subject_id,trial,correct_response,stim_time,response_time,x_coord,y_coord,trial_timeout,timeout_time,interTrial_timeout,left_rank,right_rank,distance,joint_rank,left_image,right_image
00000014,1,1,1441378055923,1441378056751,314,390,0,0,0,3,4,1,34,0003-00-0003-64.png,0004-00-0003-10.png
00000014,2,0,1441378058073,1441378058521,417,466,0,0,0,3,2,1,32,0003-00-0005-37.png,0002-00-0003-51.png
00000014,3,1,1441378061513,1441378061913,325,411,0,0,0,1,2,1,12,0001-00-0003-41.png,0002-00-0001-88.png
00000014,4,1,1441378062787,1441378063168,323,403,0,0,0,4,5,1,45,0004-00-0003-06.png,0005-00-0009-23.png
00000014,5,0,1441378064096,1441378064556,955,426,0,0,0,2,3,1,23,0002-00-0009-78.png,0003-00-0002-58.png
00000014,6,0,1441378067734,1441378068153,358,402,0,0,0,2,1,1,21,0002-00-0001-80.png,0001-00-0001-48.png
00000014,7,0,1441378071242,1441378071714,376,343,0,0,0,5,4,1,54,0005-00-0001-54.png,0004-00-0004-97.png
00000014,8,0,1441378074547,1441378074960,311,449,0,0,0,4,3,1,43,0004-00-0007-67.png,0003-00-0001-24.png
00000014,9,1,1441378078051,1441378078445,310,401,0,0,0,2,3,1,23,0002-00-0001-62.png,0003-00-0004-75.png
00000014,10,0,1441378079397,1441378079864,303,405,0,0,0,4,3,1,43,0004-00-0008-92.png,0003-00-0008-75.png
00000014,11,0,1441378082890,1441378082894,515,463,0,0,0,2,1,1,21,0002-00-0000-20.png,0001-00-0007-77.png
00000014,12,0,1441378085799,1441378086216,376,514,0,0,0,5,4,1,54,0005-00-0006-59.png,0004-00-0007-22.png
00000014,13,0,1441378089340,1441378089823,930,401,0,0,0,3,4,1,34,0003-00-0002-67.png,0004-00-0005-99.png
00000014,14,0,1441378092977,1441378093423,878,401,0,0,0,1,2,1,12,0001-00-0000-02.png,0002-00-0009-01.png
00000014,15,1,1441378096525,1441378096938,387,501,0,0,0,4,5,1,45,0004-00-0002-49.png,0005-00-0007-67.png
00000014,16,1,1441378097783,1441378098301,916,389,0,0,0,3,2,1,32,0003-00-0003-65.png,0002-00-0005-18.png
00000014,17,1,1441378099328,1441378099804,357,462,0,0,0,4,5,1,45,0004-00-0005-45.png,0005-00-0000-40.png
00000014,18,1,1441378100800,1441378101284,879,492,0,0,0,2,1,1,21,0002-00-0007-46.png,0001-00-0003-96.png
00000014,19,1,1441378102354,1441378102845,904,401,0,0,0,4,3,1,43,0004-00-0005-97.png,0003-00-0004-36.png
00000014,20,1,1441378103818,1441378104309,947,368,0,0,0,3,2,1,32,0003-00-0000-25.png,0002-00-0004-73.png
00000014,21,1,1441378105240,1441378105742,939,397,0,0,0,5,4,1,54,0005-00-0001-79.png,0004-00-0008-80.png
00000014,22,0,1441378106761,1441378107244,904,375,0,0,0,1,2,1,12,0001-00-0003-00.png,0002-00-0005-16.png
00000014,23,1,1441378110130,1441378110554,350,423,0,0,0,3,4,1,34,0003-00-0007-80.png,0004-00-0004-28.png
00000014,24,1,1441378111451,1441378111901,299,408,0,0,0,2,3,1,23,0002-00-0006-95.png,0003-00-0004-08.png
00000014,25,1,1441378112913,1441378113351,926,386,0,0,0,2,1,1,21,0002-00-0008-95.png,0001-00-0009-39.png
00000014,26,0,1441378114338,1441378114825,901,385,0,0,0,2,3,1,23,0002-00-0005-98.png,0003-00-0004-31.png
00000014,27,1,1441378117832,1441378117840,490,449,0,0,0,1,2,1,12,0001-00-0008-73.png,0002-00-0004-32.png
00000014,28,0,1441378118834,1441378119241,268,410,0,0,0,5,4,1,54,0005-00-0008-12.png,0004-00-0002-64.png
00000014,29,1,1441378122154,1441378122170,515,397,0,0,0,3,4,1,34,0003-00-0003-47.png,0004-00-0000-29.png
00000014,30,1,1441378123199,1441378123610,361,423,0,0,0,4,5,1,45,0004-00-0000-47.png,0005-00-0001-40.png
00000014,31,1,1441378124849,1441378125332,897,394,0,0,0,4,3,1,43,0004-00-0002-70.png,0003-00-0001-21.png
00000014,32,1,1441378126500,1441378126962,870,472,0,0,0,3,2,1,32,0003-00-0000-45.png,0002-00-0006-01.png
00000014,33,1,1441378128010,1441378128484,885,434,0,0,0,5,4,1,54,0005-00-0008-24.png,0004-00-0004-93.png
00000014,34,0,1441378129588,1441378130091,891,380,0,0,0,4,5,1,45,0004-00-0008-75.png,0005-00-0004-11.png
00000014,35,0,1441378133030,1441378133034,511,401,0,0,0,4,3,1,43,0004-00-0001-00.png,0003-00-0004-43.png
00000014,36,1,1441378136018,1441378136531,924,434,0,0,0,3,2,1,32,0003-00-0006-42.png,0002-00-0001-27.png
00000014,37,0,1441378137470,1441378137983,917,406,0,0,0,1,2,1,12,0001-00-0005-37.png,0002-00-0002-91.png
00000014,38,1,1441378140838,1441378141361,386,410,0,0,0,3,4,1,34,0003-00-0003-85.png,0004-00-0002-74.png
00000014,39,1,1441378142321,1441378142851,890,399,0,0,0,2,1,1,21,0002-00-0008-92.png,0001-00-0003-07.png
00000014,40,0,1441378143860,1441378144321,900,397,0,0,0,2,3,1,23,0002-00-0004-61.png,0003-00-0003-87.png
00000014,41,0,1441378147264,1441378147745,923,392,0,0,0,2,3,1,23,0002-00-0009-74.png,0003-00-0007-09.png
00000014,42,0,1441378150624,1441378151116,343,401,0,0,0,3,2,1,32,0003-00-0005-39.png,0002-00-0007-01.png
00000014,43,1,1441378154476,1441378154899,350,398,0,0,0,3,4,1,34,0003-00-0008-35.png,0004-00-0001-78.png
00000014,44,1,1441378155917,1441378156352,365,528,0,0,0,1,2,1,12,0001-00-0009-44.png,0002-00-0006-96.png
00000014,45,0,1441378157346,1441378157789,325,399,0,0,0,5,4,1,54,0005-00-0000-67.png,0004-00-0007-98.png
00000014,46,1,1441378160915,1441378161347,401,514,0,0,0,4,5,1,45,0004-00-0002-63.png,0005-00-0005-45.png
00000014,47,0,1441378162335,1441378162817,335,424,0,0,0,4,3,1,43,0004-00-0002-06.png,0003-00-0008-34.png
00000014,48,0,1441378165710,1441378166140,312,370,0,0,0,2,1,1,21,0002-00-0002-20.png,0001-00-0008-71.png
00000014,49,1,1441378169004,1441378169512,299,397,0,0,0,2,3,1,23,0002-00-0001-38.png,0003-00-0002-83.png
00000014,50,1,1441378170466,1441378170948,900,385,0,0,0,4,3,1,43,0004-00-0006-54.png,0003-00-0001-28.png
00000014,51,1,1441378171986,1441378172484,926,387,0,0,0,2,1,1,21,0002-00-0009-27.png,0001-00-0009-35.png
00000014,52,0,1441378173568,1441378174020,299,409,0,0,0,3,2,1,32,0003-00-0004-94.png,0002-00-0002-50.png
00000014,53,1,1441378177115,1441378177535,293,402,0,0,0,1,2,1,12,0001-00-0002-06.png,0002-00-0003-85.png
00000014,54,1,1441378178588,1441378179084,903,392,0,0,0,5,4,1,54,0005-00-0004-75.png,0004-00-0005-76.png
00000014,55,0,1441378180187,1441378180667,924,412,0,0,0,4,5,1,45,0004-00-0009-36.png,0005-00-0005-20.png
00000014,56,1,1441378183655,1441378183663,521,400,0,0,0,3,4,1,34,0003-00-0004-02.png,0004-00-0007-75.png
00000014,57,0,1441378184699,1441378185213,900,388,0,0,0,3,4,1,34,0003-00-0000-56.png,0004-00-0002-71.png
00000014,58,1,1441378188306,1441378188760,369,513,0,0,0,2,3,1,23,0002-00-0006-57.png,0003-00-0001-13.png
00000014,59,1,1441378189796,1441378189812,504,410,0,0,0,4,5,1,45,0004-00-0004-00.png,0005-00-0006-29.png
00000014,60,0,1441378191114,1441378191531,350,410,0,0,0,4,3,1,43,0004-00-0000-21.png,0003-00-0006-48.png
00000014,61,0,1441378194698,1441378195180,878,469,0,0,0,1,2,1,12,0001-00-0006-30.png,0002-00-0002-45.png
00000014,62,0,1441378198074,1441378198610,345,400,0,0,0,5,4,1,54,0005-00-0008-07.png,0004-00-0003-26.png
00000014,63,0,1441378201883,1441378202331,357,367,0,0,0,2,1,1,21,0002-00-0001-79.png,0001-00-0001-22.png
00000014,64,1,1441378205710,1441378206187,901,413,0,0,0,3,2,1,32,0003-00-0005-58.png,0002-00-0000-23.png
00000014,65,1,1441378207150,1441378207691,905,376,0,0,0,4,3,1,43,0004-00-0008-38.png,0003-00-0005-62.png
00000014,66,1,1441378208705,1441378209181,307,391,0,0,0,4,5,1,45,0004-00-0008-99.png,0005-00-0007-44.png
00000014,67,1,1441378210240,1441378210755,917,391,0,0,0,2,1,1,21,0002-00-0009-42.png,0001-00-0000-41.png
00000014,68,0,1441378211835,1441378212310,871,522,0,0,0,2,3,1,23,0002-00-0002-27.png,0003-00-0008-77.png
00000014,69,1,1441378215320,1441378215855,403,381,0,0,0,3,4,1,34,0003-00-0004-02.png,0004-00-0001-57.png
00000014,70,1,1441378216929,1441378217423,910,398,0,0,0,3,2,1,32,0003-00-0007-65.png,0002-00-0008-14.png
00000014,71,1,1441378218490,1441378218996,908,384,0,0,0,5,4,1,54,0005-00-0008-98.png,0004-00-0002-30.png
00000014,72,1,1441378220051,1441378220534,355,490,0,0,0,1,2,1,12,0001-00-0009-81.png,0002-00-0009-40.png
00000014,73,1,1441378221603,1441378222144,901,410,0,0,0,2,1,1,21,0002-00-0008-96.png,0001-00-0007-52.png
00000014,74,0,1441378223222,1441378223690,299,423,0,0,0,4,3,1,43,0004-00-0002-77.png,0003-00-0001-42.png
00000014,75,0,1441378226521,1441378226541,518,403,0,0,0,5,4,1,54,0005-00-0004-59.png,0004-00-0003-57.png
00000014,76,1,1441378229401,1441378229848,376,462,0,0,0,1,2,1,12,0001-00-0007-29.png,0002-00-0008-11.png
00000014,77,1,1441378230763,1441378231264,273,424,0,0,0,4,5,1,45,0004-00-0007-77.png,0005-00-0009-52.png
00000014,78,0,1441378232316,1441378232812,282,418,0,0,0,3,2,1,32,0003-00-0005-83.png,0002-00-0008-27.png
00000014,79,1,1441378235973,1441378236393,407,421,0,0,0,3,4,1,34,0003-00-0002-26.png,0004-00-0009-69.png
00000014,80,1,1441378237333,1441378237808,406,410,0,0,0,2,3,1,23,0002-00-0001-48.png,0003-00-0003-71.png
00000014,81,1,1441378238933,1441378239464,897,414,0,0,0,5,4,1,54,0005-00-0007-47.png,0004-00-0004-37.png
00000014,82,1,1441378240505,1441378240996,372,394,0,0,0,4,5,1,45,0004-00-0006-31.png,0005-00-0002-50.png
00000014,83,1,1441378242139,1441378242648,900,410,0,0,0,2,1,1,21,0002-00-0009-05.png,0001-00-0003-17.png
00000014,84,1,1441378243694,1441378244239,924,385,0,0,0,3,2,1,32,0003-00-0006-13.png,0002-00-0004-04.png
00000014,85,1,1441378245583,1441378246051,905,401,0,0,0,4,3,1,43,0004-00-0005-50.png,0003-00-0006-59.png
00000014,86,1,1441378247323,1441378247866,427,396,0,0,0,2,3,1,23,0002-00-0003-93.png,0003-00-0001-77.png
00000014,87,0,1441378249095,1441378249629,874,411,0,0,0,1,2,1,12,0001-00-0007-73.png,0002-00-0004-11.png
00000014,88,1,1441378252671,1441378253117,267,410,0,0,0,3,4,1,34,0003-00-0002-57.png,0004-00-0005-35.png
00000014,89,0,1441378254111,1441378254722,900,476,0,0,0,1,2,1,12,0001-00-0006-75.png,0002-00-0000-74.png
00000014,90,1,1441378257849,1441378258294,365,386,0,0,0,2,3,1,23,0002-00-0007-95.png,0003-00-0007-24.png
00000014,91,0,1441378259249,1441378259265,504,448,0,0,0,3,2,1,32,0003-00-0004-33.png,0002-00-0006-92.png
00000014,92,1,1441378262709,1441378263134,366,402,0,0,0,4,5,1,45,0004-00-0002-43.png,0005-00-0009-08.png
00000014,93,1,1441378264131,1441378264656,901,476,0,0,0,4,3,1,43,0004-00-0008-69.png,0003-00-0006-58.png
00000014,94,0,1441378265709,1441378266241,904,428,0,0,0,3,4,1,34,0003-00-0007-67.png,0004-00-0004-17.png
00000014,95,0,1441378269258,1441378269773,319,407,0,0,0,2,1,1,21,0002-00-0003-34.png,0001-00-0008-20.png
00000014,96,0,1441378272685,1441378272701,497,375,0,0,0,5,4,1,54,0005-00-0005-15.png,0004-00-0000-37.png
00000014,97,0,1441378275532,1441378275612,470,509,0,0,0,3,2,1,32,0003-00-0006-07.png,0002-00-0000-03.png
00000014,98,1,1441378278569,1441378279055,331,392,0,0,0,4,5,1,45,0004-00-0009-42.png,0005-00-0009-22.png
00000014,99,0,1441378280208,1441378280722,900,412,0,0,0,1,2,1,12,0001-00-0002-23.png,0002-00-0002-05.png
00000014,100,1,1441378283656,1441378284162,355,356,0,0,0,3,4,1,34,0003-00-0004-83.png,0004-00-0006-98.png
00000014,101,0,1441378285220,1441378285678,312,399,0,0,0,2,1,1,21,0002-00-0006-73.png,0001-00-0009-72.png
00000014,102,0,1441378288508,1441378289060,292,451,0,0,0,4,3,1,43,0004-00-0006-82.png,0003-00-0000-11.png
00000014,103,1,1441378291956,1441378291968,508,434,0,0,0,2,3,1,23,0002-00-0005-85.png,0003-00-0001-78.png
00000014,104,0,1441378292971,1441378293438,337,384,0,0,0,5,4,1,54,0005-00-0004-46.png,0004-00-0007-10.png
00000014,105,1,1441378296579,1441378297024,367,401,0,0,0,3,4,1,34,0003-00-0005-97.png,0004-00-0004-65.png
00000014,106,0,1441378298000,1441378298480,434,488,0,0,0,2,1,1,21,0002-00-0008-11.png,0001-00-0005-16.png
00000014,107,0,1441378301406,1441378301851,350,397,0,0,0,3,2,1,32,0003-00-0001-54.png,0002-00-0003-52.png
00000014,108,1,1441378304714,1441378304735,494,429,0,0,0,1,2,1,12,0001-00-0000-31.png,0002-00-0005-04.png
00000014,109,1,1441378305762,1441378306255,382,524,0,0,0,4,5,1,45,0004-00-0003-45.png,0005-00-0006-19.png
00000014,110,1,1441378307293,1441378307758,401,423,0,0,0,2,3,1,23,0002-00-0007-78.png,0003-00-0002-68.png
00000014,111,1,1441378308825,1441378309339,877,416,0,0,0,5,4,1,54,0005-00-0009-60.png,0004-00-0003-63.png
00000014,112,0,1441378310434,1441378310442,504,480,0,0,0,4,3,1,43,0004-00-0005-40.png,0003-00-0000-28.png
00000014,113,1,1441378313496,1441378313932,359,399,0,0,0,1,2,1,12,0001-00-0002-08.png,0002-00-0007-36.png
00000014,114,1,1441378314916,1441378315451,900,397,0,0,0,4,3,1,43,0004-00-0003-45.png,0003-00-0002-30.png
00000014,115,0,1441378316395,1441378316892,873,509,0,0,0,3,4,1,34,0003-00-0005-28.png,0004-00-0003-33.png
00000014,116,0,1441378319834,1441378320356,395,392,0,0,0,2,1,1,21,0002-00-0000-73.png,0001-00-0005-36.png
00000014,117,1,1441378323272,1441378323817,875,514,0,0,0,3,2,1,32,0003-00-0008-83.png,0002-00-0009-20.png
00000014,118,1,1441378324762,1441378325245,354,432,0,0,0,2,3,1,23,0002-00-0001-71.png,0003-00-0003-23.png
00000014,119,1,1441378326284,1441378326796,899,411,0,0,0,5,4,1,54,0005-00-0006-68.png,0004-00-0001-64.png
00000014,120,1,1441378327866,1441378328349,336,450,0,0,0,4,5,1,45,0004-00-0009-71.png,0005-00-0004-52.png
00000014,121,0,1441378329455,1441378329990,893,469,0,0,0,3,4,1,34,0003-00-0005-86.png,0004-00-0007-66.png
00000014,122,1,1441378332944,1441378333394,363,397,0,0,0,1,2,1,12,0001-00-0003-76.png,0002-00-0001-25.png
00000014,123,1,1441378334426,1441378334906,886,483,0,0,0,3,2,1,32,0003-00-0007-83.png,0002-00-0002-44.png
00000014,124,1,1441378335933,1441378336462,952,402,0,0,0,4,3,1,43,0004-00-0006-97.png,0003-00-0000-61.png
00000014,125,1,1441378337545,1441378337998,376,384,0,0,0,2,3,1,23,0002-00-0006-55.png,0003-00-0008-01.png
00000014,126,1,1441378339026,1441378339528,905,401,0,0,0,5,4,1,54,0005-00-0004-51.png,0004-00-0009-90.png
00000014,127,1,1441378340565,1441378341106,926,385,0,0,0,2,1,1,21,0002-00-0007-08.png,0001-00-0003-40.png
00000014,128,0,1441378342153,1441378342704,877,442,0,0,0,4,5,1,45,0004-00-0009-25.png,0005-00-0000-83.png
00000014,129,1,1441378345763,1441378346238,260,462,0,0,0,4,5,1,45,0004-00-0000-22.png,0005-00-0003-93.png
00000014,130,1,1441378347265,1441378347787,871,420,0,0,0,5,4,1,54,0005-00-0003-87.png,0004-00-0002-96.png
00000014,131,0,1441378348815,1441378349275,401,410,0,0,0,2,1,1,21,0002-00-0003-66.png,0001-00-0005-18.png
00000014,132,0,1441378352185,1441378352617,319,418,0,0,0,3,2,1,32,0003-00-0009-61.png,0002-00-0009-79.png
00000014,133,1,1441378355553,1441378355573,494,441,0,0,0,1,2,1,12,0001-00-0008-15.png,0002-00-0007-33.png
00000014,134,0,1441378356526,1441378357559,911,399,0,0,0,2,3,1,23,0002-00-0003-48.png,0003-00-0008-76.png
00000014,135,1,1441378360413,1441378360421,497,401,0,0,0,3,4,1,34,0003-00-0008-42.png,0004-00-0004-20.png
00000014,136,0,1441378361428,1441378361903,390,415,0,0,0,4,3,1,43,0004-00-0003-94.png,0003-00-0003-99.png
00000014,137,0,1441378365212,1441378365709,901,415,0,0,0,1,2,1,12,0001-00-0006-33.png,0002-00-0007-94.png
00000014,138,0,1441378368740,1441378368768,523,454,0,0,0,5,4,1,54,0005-00-0002-83.png,0004-00-0007-48.png
00000014,139,0,1441378372160,1441378372602,376,384,0,0,0,2,1,1,21,0002-00-0006-80.png,0001-00-0007-66.png
00000014,140,1,1441378375466,1441378375945,248,470,0,0,0,4,5,1,45,0004-00-0003-32.png,0005-00-0002-65.png
00000014,141,1,1441378376961,1441378376989,478,450,0,0,0,2,3,1,23,0002-00-0008-69.png,0003-00-0000-87.png
00000014,142,1,1441378378243,1441378379191,928,389,0,0,0,3,2,1,32,0003-00-0006-27.png,0002-00-0002-95.png
00000014,143,0,1441378380160,1441378380692,873,490,0,0,0,3,4,1,34,0003-00-0001-79.png,0004-00-0009-05.png
00000014,144,0,1441378383769,1441378384180,346,413,0,0,0,4,3,1,43,0004-00-0005-46.png,0003-00-0003-62.png
00000014,145,0,1441378387296,1441378387767,272,489,0,0,0,2,1,1,21,0002-00-0004-18.png,0001-00-0000-34.png
00000014,146,0,1441378390654,1441378390670,496,455,0,0,0,4,3,1,43,0004-00-0009-97.png,0003-00-0004-89.png
00000014,147,1,1441378393637,1441378394046,417,376,0,0,0,1,2,1,12,0001-00-0004-49.png,0002-00-0002-85.png
00000014,148,1,1441378394998,1441378395517,875,450,0,0,0,3,2,1,32,0003-00-0000-65.png,0002-00-0004-09.png
00000014,149,1,1441378396547,1441378397063,338,416,0,0,0,2,3,1,23,0002-00-0006-34.png,0003-00-0009-38.png
00000014,150,1,1441378398128,1441378398615,299,422,0,0,0,4,5,1,45,0004-00-0005-65.png,0005-00-0008-64.png
00000014,151,0,1441378399690,1441378400190,925,412,0,0,0,3,4,1,34,0003-00-0008-05.png,0004-00-0006-01.png
00000014,152,1,1441378403188,1441378403700,896,393,0,0,0,5,4,1,54,0005-00-0007-66.png,0004-00-0000-24.png
00000014,153,0,1441378404682,1441378405195,900,410,0,0,0,3,4,1,34,0003-00-0000-53.png,0004-00-0003-87.png
00000014,154,0,1441378408424,1441378408889,339,426,0,0,0,5,4,1,54,0005-00-0006-60.png,0004-00-0007-82.png
00000014,155,0,1441378411952,1441378412388,363,462,0,0,0,3,2,1,32,0003-00-0002-93.png,0002-00-0009-76.png
00000014,156,1,1441378415481,1441378416061,898,481,0,0,0,4,3,1,43,0004-00-0007-72.png,0003-00-0007-18.png
00000014,157,1,1441378417040,1441378417488,401,410,0,0,0,1,2,1,12,0001-00-0004-85.png,0002-00-0004-38.png
00000014,158,0,1441378418480,1441378418997,874,490,0,0,0,2,3,1,23,0002-00-0001-08.png,0003-00-0000-65.png
00000014,159,1,1441378422111,1441378422638,248,480,0,0,0,4,5,1,45,0004-00-0005-41.png,0005-00-0008-88.png
00000014,160,0,1441378423630,1441378424082,389,410,0,0,0,2,1,1,21,0002-00-0005-37.png,0001-00-0005-51.png
00000014,161,1,1441378427220,1441378427680,884,504,0,0,0,5,4,1,54,0005-00-0000-86.png,0004-00-0001-45.png
00000014,162,0,1441378428761,1441378429271,922,420,0,0,0,1,2,1,12,0001-00-0009-13.png,0002-00-0003-85.png
00000014,163,0,1441378432496,1441378433000,327,443,0,0,0,3,2,1,32,0003-00-0004-55.png,0002-00-0007-70.png
00000014,164,0,1441378435944,1441378436411,453,429,0,0,0,4,3,1,43,0004-00-0007-70.png,0003-00-0006-59.png
00000014,165,1,1441378439502,1441378439930,414,410,0,0,0,3,4,1,34,0003-00-0000-53.png,0004-00-0005-02.png
00000014,166,0,1441378440954,1441378441431,867,371,0,0,0,2,3,1,23,0002-00-0001-82.png,0003-00-0001-05.png
00000014,167,0,1441378444422,1441378444430,486,368,0,0,0,2,1,1,21,0002-00-0007-32.png,0001-00-0006-50.png
00000014,168,1,1441378447333,1441378447777,320,384,0,0,0,4,5,1,45,0004-00-0005-22.png,0005-00-0008-41.png
00000014,169,0,1441378448755,1441378449236,926,397,0,0,0,2,3,1,23,0002-00-0005-66.png,0003-00-0008-05.png
00000014,170,1,1441378452102,1441378452509,318,419,0,0,0,1,2,1,12,0001-00-0009-71.png,0002-00-0005-89.png
00000014,171,1,1441378453485,1441378454029,397,437,0,0,0,3,4,1,34,0003-00-0001-00.png,0004-00-0005-31.png
00000014,172,0,1441378454955,1441378455485,376,387,0,0,0,4,3,1,43,0004-00-0009-17.png,0003-00-0009-10.png
00000014,173,1,1441378458801,1441378459287,913,424,0,0,0,3,2,1,32,0003-00-0006-97.png,0002-00-0000-64.png
00000014,174,1,1441378460242,1441378460764,921,394,0,0,0,5,4,1,54,0005-00-0003-51.png,0004-00-0004-67.png
00000014,175,0,1441378461781,1441378462319,882,490,0,0,0,4,5,1,45,0004-00-0007-17.png,0005-00-0004-44.png
00000014,176,0,1441378465400,1441378465833,362,393,0,0,0,2,1,1,21,0002-00-0007-27.png,0001-00-0005-10.png
00000014,177,0,1441378468728,1441378468748,499,368,0,0,0,5,4,1,54,0005-00-0005-80.png,0004-00-0004-26.png
00000014,178,0,1441378471699,1441378471719,491,410,0,0,0,2,1,1,21,0002-00-0009-82.png,0001-00-0008-80.png
00000014,179,0,1441378475189,1441378475683,882,402,0,0,0,4,5,1,45,0004-00-0003-76.png,0005-00-0007-27.png
00000014,180,0,1441378478737,1441378479105,412,410,0,0,0,3,2,1,32,0003-00-0004-36.png,0002-00-0007-70.png
00000014,181,1,1441378482116,1441378482542,409,420,0,0,0,2,3,1,23,0002-00-0008-57.png,0003-00-0005-07.png
00000014,182,1,1441378483637,1441378484148,929,377,0,0,0,4,3,1,43,0004-00-0004-32.png,0003-00-0001-44.png
00000014,183,1,1441378485208,1441378485662,350,423,0,0,0,1,2,1,12,0001-00-0001-97.png,0002-00-0009-71.png
00000014,184,0,1441378486769,1441378487237,861,528,0,0,0,3,4,1,34,0003-00-0001-05.png,0004-00-0005-14.png
00000014,185,1,1441378490583,1441378491074,411,509,0,0,0,2,3,1,23,0002-00-0007-40.png,0003-00-0003-01.png
00000014,186,0,1441378492086,1441378492547,337,424,0,0,0,2,1,1,21,0002-00-0008-14.png,0001-00-0007-09.png
00000014,187,1,1441378495554,1441378495923,348,424,0,0,0,3,4,1,34,0003-00-0001-64.png,0004-00-0000-67.png
00000014,188,0,1441378496857,1441378496869,514,462,0,0,0,3,2,1,32,0003-00-0005-14.png,0002-00-0000-97.png
00000014,189,0,1441378499695,1441378499715,521,407,0,0,0,4,3,1,43,0004-00-0001-98.png,0003-00-0002-93.png
00000014,190,1,1441378502789,1441378503258,317,417,0,0,0,4,5,1,45,0004-00-0009-07.png,0005-00-0005-71.png
00000014,191,0,1441378504209,1441378504702,316,441,0,0,0,5,4,1,54,0005-00-0001-36.png,0004-00-0002-46.png
00000014,192,1,1441378507587,1441378507599,496,372,0,0,0,1,2,1,12,0001-00-0001-66.png,0002-00-0008-85.png
00000014,193,0,1441378508724,1441378509180,325,370,0,0,0,2,1,1,21,0002-00-0009-63.png,0001-00-0001-41.png
00000014,194,0,1441378512141,1441378512145,492,368,0,0,0,4,3,1,43,0004-00-0001-81.png,0003-00-0002-99.png
00000014,195,1,1441378515242,1441378515719,390,529,0,0,0,1,2,1,12,0001-00-0000-32.png,0002-00-0009-79.png
00000014,196,1,1441378516751,1441378517210,331,394,0,0,0,2,3,1,23,0002-00-0007-19.png,0003-00-0000-74.png
00000014,197,1,1441378518681,1441378519140,882,404,0,0,0,5,4,1,54,0005-00-0001-73.png,0004-00-0001-03.png
00000014,198,0,1441378520163,1441378520679,876,410,0,0,0,4,5,1,45,0004-00-0009-52.png,0005-00-0003-70.png
00000014,199,1,1441378523720,1441378524206,347,394,0,0,0,3,4,1,34,0003-00-0003-41.png,0004-00-0007-89.png
00000014,200,1,1441378525290,1441378525770,896,420,0,0,0,3,2,1,32,0003-00-0000-98.png,0002-00-0006-15.png
00000014,201,1,1441378526861,1441378527396,913,398,0,0,0,2,1,1,21,0002-00-0003-96.png,0001-00-0009-54.png
00000014,202,1,1441378528566,1441378529109,877,417,0,0,0,5,4,1,54,0005-00-0009-31.png,0004-00-0002-27.png
00000014,203,1,1441378530246,1441378530794,376,410,0,0,0,2,3,1,23,0002-00-0005-20.png,0003-00-0008-11.png
00000014,204,1,1441378531908,1441378532374,380,404,0,0,0,3,4,1,34,0003-00-0002-54.png,0004-00-0007-07.png
00000014,205,1,1441378533511,1441378534560,383,414,0,0,0,1,2,1,12,0001-00-0003-61.png,0002-00-0008-50.png
00000014,206,0,1441378535708,1441378536226,401,396,0,0,0,4,3,1,43,0004-00-0007-24.png,0003-00-0000-23.png
00000014,207,1,1441378539395,1441378539855,395,434,0,0,0,4,5,1,45,0004-00-0007-74.png,0005-00-0006-34.png
00000014,208,0,1441378540835,1441378541338,422,538,0,0,0,3,2,1,32,0003-00-0008-16.png,0002-00-0002-98.png
00000014,209,1,1441378544353,1441378544369,520,447,0,0,0,2,3,1,23,0002-00-0005-11.png,0003-00-0007-54.png
00000014,210,1,1441378545337,1441378545855,900,412,0,0,0,2,1,1,21,0002-00-0003-63.png,0001-00-0009-58.png
00000014,211,1,1441378546847,1441378547382,875,481,0,0,0,5,4,1,54,0005-00-0002-05.png,0004-00-0005-98.png
00000014,212,0,1441378548408,1441378548871,299,399,0,0,0,3,2,1,32,0003-00-0003-86.png,0002-00-0007-76.png
00000014,213,0,1441378551797,1441378552291,248,499,0,0,0,4,3,1,43,0004-00-0003-89.png,0003-00-0002-08.png
00000014,214,0,1441378555376,1441378555870,935,443,0,0,0,1,2,1,12,0001-00-0002-20.png,0002-00-0003-63.png
00000014,215,0,1441378558760,1441378559274,926,425,0,0,0,3,4,1,34,0003-00-0008-86.png,0004-00-0001-08.png
00000014,216,1,1441378562450,1441378562881,427,422,0,0,0,4,5,1,45,0004-00-0005-82.png,0005-00-0003-83.png
00000014,217,1,1441378563851,1441378564364,386,515,0,0,0,1,2,1,12,0001-00-0007-70.png,0002-00-0003-46.png
00000014,218,1,1441378565352,1441378565916,896,394,0,0,0,4,3,1,43,0004-00-0005-63.png,0003-00-0009-43.png
00000014,219,1,1441378567006,1441378567470,387,502,0,0,0,4,5,1,45,0004-00-0004-56.png,0005-00-0000-20.png
00000014,220,1,1441378568484,1441378568951,364,410,0,0,0,2,3,1,23,0002-00-0005-85.png,0003-00-0005-70.png
00000014,221,1,1441378569974,1441378570513,875,423,0,0,0,3,2,1,32,0003-00-0000-64.png,0002-00-0006-06.png
00000014,222,1,1441378571536,1441378572079,377,401,0,0,0,3,4,1,34,0003-00-0007-76.png,0004-00-0007-99.png
00000014,223,0,1441378573115,1441378573641,426,522,0,0,0,5,4,1,54,0005-00-0009-68.png,0004-00-0006-53.png
00000014,224,1,1441378576753,1441378577202,932,430,0,0,0,2,1,1,21,0002-00-0007-53.png,0001-00-0000-51.png
00000014,225,0,1441378578171,1441378578722,359,418,0,0,0,4,3,1,43,0004-00-0004-71.png,0003-00-0000-09.png
00000014,226,0,1441378581642,1441378582084,427,528,0,0,0,5,4,1,54,0005-00-0006-47.png,0004-00-0006-05.png
00000014,227,1,1441378584981,1441378584997,511,417,0,0,0,2,3,1,23,0002-00-0005-14.png,0003-00-0002-10.png
00000014,228,1,1441378586005,1441378586466,376,422,0,0,0,4,5,1,45,0004-00-0006-82.png,0005-00-0002-25.png
00000014,229,0,1441378587436,1441378587949,874,502,0,0,0,1,2,1,12,0001-00-0000-46.png,0002-00-0000-81.png
00000014,230,1,1441378590916,1441378591371,339,396,0,0,0,3,4,1,34,0003-00-0004-17.png,0004-00-0007-31.png
00000014,231,1,1441378592336,1441378592859,876,409,0,0,0,3,2,1,32,0003-00-0003-29.png,0002-00-0006-80.png
00000014,232,1,1441378593857,1441378594403,874,483,0,0,0,2,1,1,21,0002-00-0002-63.png,0001-00-0006-84.png
00000014,233,0,1441378595347,1441378595900,401,476,0,0,0,4,3,1,43,0004-00-0003-77.png,0003-00-0002-71.png
00000014,234,1,1441378598914,1441378599409,920,410,0,0,0,3,2,1,32,0003-00-0007-89.png,0002-00-0001-74.png
00000014,235,0,1441378600366,1441378600887,875,455,0,0,0,4,5,1,45,0004-00-0007-80.png,0005-00-0004-31.png
00000014,236,0,1441378604132,1441378604574,356,391,0,0,0,2,1,1,21,0002-00-0004-73.png,0001-00-0007-61.png
00000014,237,1,1441378607581,1441378607589,510,388,0,0,0,3,4,1,34,0003-00-0003-95.png,0004-00-0003-71.png
00000014,238,0,1441378608515,1441378609057,878,413,0,0,0,2,3,1,23,0002-00-0009-86.png,0003-00-0006-80.png
00000014,239,0,1441378612042,1441378612062,504,397,0,0,0,5,4,1,54,0005-00-0007-77.png,0004-00-0000-02.png
00000014,240,1,1441378614932,1441378615439,317,442,0,0,0,1,2,1,12,0001-00-0009-21.png,0002-00-0006-89.png
00000014,241,0,1441378616415,1441378616941,875,481,0,0,0,4,5,1,45,0004-00-0002-04.png,0005-00-0006-88.png
00000014,242,0,1441378620757,1441378621292,413,397,0,0,0,3,2,1,32,0003-00-0007-19.png,0002-00-0003-29.png
00000014,243,1,1441378624187,1441378624208,518,446,0,0,0,3,4,1,34,0003-00-0008-58.png,0004-00-0009-02.png
00000014,244,0,1441378625191,1441378625642,411,403,0,0,0,4,3,1,43,0004-00-0006-48.png,0003-00-0006-97.png
00000014,245,1,1441378628668,1441378629157,325,424,0,0,0,2,3,1,23,0002-00-0001-24.png,0003-00-0006-00.png
00000014,246,1,1441378630189,1441378631251,927,494,0,0,0,5,4,1,54,0005-00-0009-92.png,0004-00-0005-42.png
00000014,247,0,1441378632237,1441378632772,911,424,0,0,0,1,2,1,12,0001-00-0003-69.png,0002-00-0005-15.png
00000014,248,1,1441378635892,1441378636412,900,384,0,0,0,2,1,1,21,0002-00-0006-63.png,0001-00-0006-67.png
00000014,249,0,1441378637394,1441378637931,870,498,0,0,0,2,3,1,23,0002-00-0001-07.png,0003-00-0009-52.png
00000014,250,1,1441378640812,1441378640840,521,453,0,0,0,3,4,1,34,0003-00-0009-42.png,0004-00-0008-46.png
00000014,251,1,1441378641917,1441378642425,905,401,0,0,0,2,1,1,21,0002-00-0001-77.png,0001-00-0004-31.png
00000014,252,0,1441378643476,1441378643938,293,437,0,0,0,5,4,1,54,0005-00-0008-24.png,0004-00-0008-60.png
00000014,253,1,1441378646951,1441378647438,376,410,0,0,0,4,5,1,45,0004-00-0009-12.png,0005-00-0006-54.png
00000014,254,1,1441378648595,1441378649077,289,416,0,0,0,1,2,1,12,0001-00-0004-43.png,0002-00-0002-15.png
00000014,255,1,1441378650164,1441378650657,914,398,0,0,0,3,2,1,32,0003-00-0005-80.png,0002-00-0000-14.png
00000014,256,0,1441378651624,1441378652117,325,410,0,0,0,4,3,1,43,0004-00-0006-48.png,0003-00-0006-40.png
00000014,257,1,1441378655013,1441378655029,517,420,0,0,0,1,2,1,12,0001-00-0001-82.png,0002-00-0003-69.png
00000014,258,1,1441378655998,1441378656536,901,398,0,0,0,5,4,1,54,0005-00-0002-97.png,0004-00-0008-76.png
00000014,259,1,1441378657488,1441378658014,316,402,0,0,0,3,4,1,34,0003-00-0006-94.png,0004-00-0000-95.png
00000014,260,1,1441378659101,1441378659624,413,528,0,0,0,2,3,1,23,0002-00-0004-50.png,0003-00-0001-60.png
00000014,261,1,1441378660649,1441378661192,875,437,0,0,0,3,2,1,32,0003-00-0005-03.png,0002-00-0008-14.png
00000014,262,0,1441378662155,1441378662722,350,424,0,0,0,2,1,1,21,0002-00-0000-60.png,0001-00-0002-50.png
00000014,263,1,1441378665864,1441378666432,857,368,0,0,0,4,3,1,43,0004-00-0008-69.png,0003-00-0000-80.png
00000014,264,1,1441378667286,1441378667803,380,516,0,0,0,4,5,1,45,0004-00-0006-54.png,0005-00-0008-00.png
00000014,265,1,1441378669396,1441378670028,863,386,0,0,0,5,4,1,54,0005-00-0005-07.png,0004-00-0007-10.png
00000014,266,1,1441378671026,1441378671478,386,528,0,0,0,4,5,1,45,0004-00-0003-92.png,0005-00-0000-72.png
00000014,267,1,1441378672716,1441378673242,878,427,0,0,0,3,2,1,32,0003-00-0008-40.png,0002-00-0003-29.png
00000014,268,1,1441378674256,1441378674753,363,397,0,0,0,1,2,1,12,0001-00-0008-31.png,0002-00-0008-96.png
00000014,269,1,1441378675921,1441378676451,406,541,0,0,0,2,3,1,23,0002-00-0002-86.png,0003-00-0004-70.png
00000014,270,1,1441378677474,1441378678044,926,424,0,0,0,2,1,1,21,0002-00-0006-47.png,0001-00-0004-26.png
00000014,271,0,1441378679093,1441378679658,879,443,0,0,0,3,4,1,34,0003-00-0000-38.png,0004-00-0003-51.png
00000014,272,0,1441378682542,1441378683057,317,401,0,0,0,4,3,1,43,0004-00-0001-47.png,0003-00-0004-11.png
00000014,273,1,1441378685890,1441378686401,926,410,0,0,0,4,3,1,43,0004-00-0006-21.png,0003-00-0000-69.png
00000014,274,1,1441378687314,1441378687837,895,446,0,0,0,2,1,1,21,0002-00-0001-48.png,0001-00-0000-87.png
00000014,275,1,1441378688876,1441378689370,875,436,0,0,0,3,2,1,32,0003-00-0008-76.png,0002-00-0005-76.png
00000014,276,1,1441378690357,1441378690871,388,424,0,0,0,2,3,1,23,0002-00-0004-41.png,0003-00-0007-21.png
00000014,277,0,1441378692024,1441378692549,912,424,0,0,0,3,4,1,34,0003-00-0003-59.png,0004-00-0000-63.png
00000014,278,1,1441378695409,1441378695907,893,443,0,0,0,5,4,1,54,0005-00-0004-80.png,0004-00-0004-69.png
00000014,279,1,1441378696820,1441378697351,414,423,0,0,0,1,2,1,12,0001-00-0000-41.png,0002-00-0007-03.png
00000014,280,0,1441378698324,1441378699443,883,495,0,0,0,4,5,1,45,0004-00-0009-49.png,0005-00-0000-10.png
00000014,281,0,1441378702321,1441378702747,363,416,0,0,0,3,2,1,32,0003-00-0000-53.png,0002-00-0009-54.png
00000014,282,0,1441378705686,1441378706181,339,416,0,0,0,5,4,1,54,0005-00-0002-07.png,0004-00-0006-26.png
00000014,283,0,1441378709267,1441378709711,376,358,0,0,0,2,1,1,21,0002-00-0001-05.png,0001-00-0000-47.png
00000014,284,1,1441378712556,1441378712564,488,392,0,0,0,4,5,1,45,0004-00-0008-08.png,0005-00-0005-01.png
00000014,285,0,1441378713531,1441378714510,914,475,0,0,0,2,3,1,23,0002-00-0003-97.png,0003-00-0000-78.png
00000014,286,0,1441378717586,1441378718057,887,450,0,0,0,3,4,1,34,0003-00-0009-52.png,0004-00-0004-92.png
00000014,287,1,1441378720996,1441378721479,921,394,0,0,0,4,3,1,43,0004-00-0004-10.png,0003-00-0009-05.png
00000014,288,0,1441378722524,1441378723030,927,409,0,0,0,1,2,1,12,0001-00-0006-30.png,0002-00-0005-11.png
00000014,289,1,1441378726083,1441378726588,399,385,0,0,0,1,2,1,12,0001-00-0004-99.png,0002-00-0002-41.png
00000014,290,1,1441378727546,1441378728069,941,417,0,0,0,2,1,1,21,0002-00-0008-34.png,0001-00-0005-46.png
00000014,291,1,1441378729034,1441378729950,364,389,0,0,0,4,5,1,45,0004-00-0004-02.png,0005-00-0005-15.png
00000014,292,1,1441378731063,1441378731575,915,413,0,0,0,3,2,1,32,0003-00-0009-16.png,0002-00-0001-14.png
00000014,293,1,1441378732701,1441378733191,350,397,0,0,0,2,3,1,23,0002-00-0002-05.png,0003-00-0005-56.png
00000014,294,1,1441378734402,1441378734886,874,501,0,0,0,4,3,1,43,0004-00-0003-73.png,0003-00-0006-11.png
00000014,295,1,1441378735942,1441378736468,864,507,0,0,0,5,4,1,54,0005-00-0007-51.png,0004-00-0002-23.png
00000014,296,0,1441378737492,1441378738025,877,517,0,0,0,3,4,1,34,0003-00-0007-12.png,0004-00-0003-11.png
00000014,297,1,1441378741132,1441378741650,405,434,0,0,0,1,2,1,12,0001-00-0004-28.png,0002-00-0004-84.png
00000014,298,0,1441378743087,1441378743589,917,429,0,0,0,3,4,1,34,0003-00-0008-17.png,0004-00-0005-04.png
00000014,299,0,1441378746537,1441378746964,393,402,0,0,0,2,1,1,21,0002-00-0007-24.png,0001-00-0002-83.png
00000014,300,1,1441378750130,1441378750619,901,451,0,0,0,5,4,1,54,0005-00-0009-88.png,0004-00-0003-34.png
00000014,301,1,1441378751744,1441378752258,319,434,0,0,0,4,5,1,45,0004-00-0008-77.png,0005-00-0004-13.png
00000014,302,1,1441378753304,1441378753821,860,425,0,0,0,3,2,1,32,0003-00-0000-06.png,0002-00-0004-80.png
00000014,303,1,1441378754926,1441378755451,877,417,0,0,0,4,3,1,43,0004-00-0003-64.png,0003-00-0005-04.png
00000014,304,1,1441378756417,1441378756950,364,417,0,0,0,2,3,1,23,0002-00-0000-59.png,0003-00-0002-78.png
00000014,305,1,1441378758046,1441378758564,900,410,0,0,0,5,4,1,54,0005-00-0007-23.png,0004-00-0000-96.png
00000014,306,1,1441378759536,1441378760078,319,408,0,0,0,1,2,1,12,0001-00-0005-94.png,0002-00-0000-32.png
00000014,307,1,1441378761418,1441378761932,376,399,0,0,0,4,5,1,45,0004-00-0005-83.png,0005-00-0009-73.png
00000014,308,1,1441378763094,1441378763611,319,410,0,0,0,3,4,1,34,0003-00-0005-35.png,0004-00-0001-68.png
00000014,309,0,1441378764697,1441378765176,341,390,0,0,0,4,3,1,43,0004-00-0003-51.png,0003-00-0005-27.png
00000014,310,1,1441378768293,1441378768877,902,450,0,0,0,3,2,1,32,0003-00-0009-68.png,0002-00-0007-95.png
00000014,311,1,1441378769853,1441378770389,419,427,0,0,0,2,3,1,23,0002-00-0002-44.png,0003-00-0000-88.png
00000014,312,0,1441378771332,1441378771892,418,416,0,0,0,2,1,1,21,0002-00-0004-48.png,0001-00-0002-72.png
00000014,313,1,1441378774890,1441378775335,385,407,0,0,0,2,3,1,23,0002-00-0006-70.png,0003-00-0003-25.png
00000014,314,1,1441378776362,1441378776849,384,428,0,0,0,1,2,1,12,0001-00-0009-09.png,0002-00-0008-63.png
00000014,315,1,1441378777921,1441378778476,870,460,0,0,0,2,1,1,21,0002-00-0000-34.png,0001-00-0006-18.png
00000014,316,0,1441378779548,1441378780038,319,437,0,0,0,5,4,1,54,0005-00-0000-54.png,0004-00-0005-40.png
00000014,317,1,1441378783160,1441378783575,419,454,0,0,0,4,5,1,45,0004-00-0005-53.png,0005-00-0008-53.png
00000014,318,1,1441378784598,1441378785175,901,539,0,0,0,4,3,1,43,0004-00-0005-31.png,0003-00-0005-57.png
00000014,319,0,1441378786099,1441378786657,923,431,0,0,0,3,4,1,34,0003-00-0004-64.png,0004-00-0006-78.png
00000014,320,0,1441378789576,1441378790143,263,365,0,0,0,3,2,1,32,0003-00-0000-64.png,0002-00-0005-52.png
00000014,321,0,1441378793037,1441378793045,521,401,0,0,0,5,4,1,54,0005-00-0004-97.png,0004-00-0003-83.png
00000014,322,1,1441378796006,1441378796567,902,495,0,0,0,2,1,1,21,0002-00-0000-53.png,0001-00-0005-65.png
00000014,323,1,1441378797459,1441378798030,344,452,0,0,0,4,5,1,45,0004-00-0005-38.png,0005-00-0002-04.png
00000014,324,0,1441378798990,1441378799610,876,490,0,0,0,1,2,1,12,0001-00-0008-35.png,0002-00-0008-59.png
00000014,325,1,1441378803063,1441378803663,874,482,0,0,0,3,2,1,32,0003-00-0004-28.png,0002-00-0000-88.png
00000014,326,0,1441378804585,1441378805161,900,403,0,0,0,2,3,1,23,0002-00-0009-43.png,0003-00-0009-28.png
00000014,327,1,1441378808066,1441378808082,517,413,0,0,0,3,4,1,34,0003-00-0002-71.png,0004-00-0006-88.png
00000014,328,1,1441378809049,1441378809563,905,428,0,0,0,4,3,1,43,0004-00-0004-32.png,0003-00-0003-18.png
00000014,329,0,1441378810519,1441378811063,401,419,0,0,0,3,2,1,32,0003-00-0009-50.png,0002-00-0008-05.png
00000014,330,1,1441378813994,1441378814569,925,385,0,0,0,5,4,1,54,0005-00-0008-16.png,0004-00-0001-02.png
00000014,331,1,1441378815587,1441378816112,319,436,0,0,0,1,2,1,12,0001-00-0004-67.png,0002-00-0001-98.png
00000014,332,1,1441378817138,1441378817704,899,501,0,0,0,4,3,1,43,0004-00-0000-59.png,0003-00-0009-64.png
00000014,333,1,1441378818707,1441378819255,336,410,0,0,0,4,5,1,45,0004-00-0008-16.png,0005-00-0001-81.png
00000014,334,1,1441378820329,1441378820836,350,436,0,0,0,3,4,1,34,0003-00-0006-08.png,0004-00-0007-37.png
00000014,335,0,1441378821869,1441378822420,922,420,0,0,0,2,3,1,23,0002-00-0009-23.png,0003-00-0003-95.png
00000014,336,1,1441378825394,1441378825866,952,422,0,0,0,2,1,1,21,0002-00-0005-36.png,0001-00-0000-71.png
00000014,337,0,1441378826788,1441378827306,414,424,0,0,0,2,1,1,21,0002-00-0001-45.png,0001-00-0003-71.png
00000014,338,1,1441378830345,1441378830361,504,436,0,0,0,1,2,1,12,0001-00-0000-76.png,0002-00-0003-65.png
00000014,339,1,1441378831380,1441378831856,376,436,0,0,0,4,5,1,45,0004-00-0001-80.png,0005-00-0009-78.png
00000014,340,0,1441378832910,1441378833463,903,413,0,0,0,2,3,1,23,0002-00-0009-53.png,0003-00-0002-76.png
00000014,341,0,1441378836292,1441378836768,337,397,0,0,0,3,2,1,32,0003-00-0002-83.png,0002-00-0003-29.png
00000014,342,0,1441378839865,1441378840370,901,450,0,0,0,3,4,1,34,0003-00-0006-98.png,0004-00-0000-34.png
00000014,343,0,1441378843255,1441378843263,515,417,0,0,0,5,4,1,54,0005-00-0008-35.png,0004-00-0000-23.png
00000014,344,1,1441378846593,1441378847105,926,398,0,0,0,4,3,1,43,0004-00-0004-34.png,0003-00-0009-07.png
00000014,345,0,1441378847994,1441378849061,910,519,0,0,0,4,5,1,45,0004-00-0007-33.png,0005-00-0001-95.png
00000014,346,0,1441378851950,1441378851970,512,366,0,0,0,5,4,1,54,0005-00-0005-71.png,0004-00-0008-33.png
00000014,347,1,1441378854971,1441378854983,508,385,0,0,0,3,4,1,34,0003-00-0007-42.png,0004-00-0006-04.png
00000014,348,1,1441378855854,1441378856399,389,397,0,0,0,2,3,1,23,0002-00-0009-71.png,0003-00-0000-03.png
00000014,349,1,1441378857357,1441378857871,919,415,0,0,0,2,1,1,21,0002-00-0009-01.png,0001-00-0007-24.png
00000014,350,1,1441378859026,1441378859496,316,407,0,0,0,1,2,1,12,0001-00-0001-12.png,0002-00-0008-18.png
00000014,351,1,1441378860569,1441378861063,882,527,0,0,0,3,2,1,32,0003-00-0006-98.png,0002-00-0001-44.png
00000014,352,1,1441378862090,1441378862596,900,414,0,0,0,4,3,1,43,0004-00-0001-59.png,0003-00-0002-25.png
00000014,353,0,1441378863649,1441378864170,915,423,0,0,0,2,3,1,23,0002-00-0006-79.png,0003-00-0000-79.png
00000014,354,0,1441378867076,1441378867660,901,495,0,0,0,4,5,1,45,0004-00-0005-20.png,0005-00-0007-21.png
00000014,355,0,1441378870652,1441378871247,376,372,0,0,0,2,1,1,21,0002-00-0009-86.png,0001-00-0000-46.png
00000014,356,1,1441378874311,1441378874780,401,427,0,0,0,3,4,1,34,0003-00-0000-31.png,0004-00-0001-69.png
00000014,357,1,1441378875693,1441378876220,875,503,0,0,0,3,2,1,32,0003-00-0001-99.png,0002-00-0000-17.png
00000014,358,0,1441378877143,1441378877686,319,438,0,0,0,5,4,1,54,0005-00-0000-33.png,0004-00-0001-30.png
00000014,359,1,1441378881086,1441378881543,911,398,0,0,0,4,3,1,43,0004-00-0000-50.png,0003-00-0001-45.png
00000014,360,1,1441378882501,1441378882984,419,427,0,0,0,1,2,1,12,0001-00-0009-15.png,0002-00-0001-36.png
00000014,361,1,1441378883970,1441378884500,887,424,0,0,0,5,4,1,54,0005-00-0005-01.png,0004-00-0000-99.png
00000014,362,0,1441378885433,1441378885997,886,398,0,0,0,3,4,1,34,0003-00-0001-28.png,0004-00-0006-54.png
00000014,363,1,1441378889136,1441378889603,401,413,0,0,0,4,5,1,45,0004-00-0002-72.png,0005-00-0001-13.png
00000014,364,1,1441378890517,1441378891078,879,427,0,0,0,2,1,1,21,0002-00-0005-44.png,0001-00-0002-07.png
00000014,365,0,1441378892059,1441378892075,486,436,0,0,0,3,2,1,32,0003-00-0008-63.png,0002-00-0004-84.png
00000014,366,0,1441378895142,1441378895718,899,490,0,0,0,2,3,1,23,0002-00-0000-61.png,0003-00-0008-56.png
00000014,367,1,1441378898586,1441378899059,297,397,0,0,0,1,2,1,12,0001-00-0001-61.png,0002-00-0007-08.png
00000014,368,0,1441378900101,1441378900563,376,384,0,0,0,4,3,1,43,0004-00-0008-76.png,0003-00-0004-22.png
00000014,369,1,1441378903669,1441378904192,341,415,0,0,0,1,2,1,12,0001-00-0005-80.png,0002-00-0001-54.png
00000014,370,1,1441378905129,1441378905674,900,417,0,0,0,5,4,1,54,0005-00-0006-39.png,0004-00-0003-96.png
00000014,371,1,1441378906641,1441378907175,901,409,0,0,0,3,2,1,32,0003-00-0002-88.png,0002-00-0009-29.png
00000014,372,1,1441378908200,1441378908694,425,404,0,0,0,2,3,1,23,0002-00-0008-56.png,0003-00-0001-54.png
00000014,373,0,1441378909731,1441378910254,898,431,0,0,0,4,5,1,45,0004-00-0003-62.png,0005-00-0000-78.png
00000014,374,1,1441378913129,1441378913133,522,470,0,0,0,3,4,1,34,0003-00-0006-14.png,0004-00-0008-86.png
00000014,375,0,1441378914699,1441378915233,401,542,0,0,0,4,3,1,43,0004-00-0006-24.png,0003-00-0002-62.png
00000014,376,0,1441378918642,1441378919088,369,404,0,0,0,2,1,1,21,0002-00-0008-38.png,0001-00-0004-33.png
00000014,377,0,1441378922500,1441378923067,336,368,0,0,0,5,4,1,54,0005-00-0008-62.png,0004-00-0000-28.png
00000014,378,1,1441378926018,1441378926022,522,403,0,0,0,3,4,1,34,0003-00-0004-05.png,0004-00-0000-70.png
00000014,379,1,1441378926963,1441378927485,342,427,0,0,0,4,5,1,45,0004-00-0005-32.png,0005-00-0005-53.png
00000014,380,1,1441378928463,1441378928989,902,418,0,0,0,3,2,1,32,0003-00-0001-00.png,0002-00-0009-95.png
00000014,381,0,1441378929914,1441378930449,409,419,0,0,0,2,1,1,21,0002-00-0003-88.png,0001-00-0007-05.png
00000014,382,0,1441378933400,1441378933897,870,392,0,0,0,1,2,1,12,0001-00-0008-14.png,0002-00-0007-88.png
00000014,383,1,1441378936751,1441378937167,376,451,0,0,0,2,3,1,23,0002-00-0008-38.png,0003-00-0008-49.png
00000014,384,0,1441378938152,1441378938694,345,453,0,0,0,4,3,1,43,0004-00-0003-19.png,0003-00-0002-18.png
00000014,385,0,1441378941580,1441378941636,492,491,0,0,0,5,4,1,54,0005-00-0002-47.png,0004-00-0007-24.png
00000014,386,0,1441378944709,1441378945286,914,410,0,0,0,3,4,1,34,0003-00-0008-89.png,0004-00-0001-65.png
00000014,387,0,1441378948389,1441378948831,340,415,0,0,0,3,2,1,32,0003-00-0008-82.png,0002-00-0009-49.png
00000014,388,0,1441378951907,1441378952377,350,410,0,0,0,2,1,1,21,0002-00-0007-13.png,0001-00-0006-77.png
00000014,389,0,1441378955344,1441378955756,383,420,0,0,0,4,3,1,43,0004-00-0004-83.png,0003-00-0005-72.png
00000014,390,1,1441378958621,1441378959080,376,384,0,0,0,1,2,1,12,0001-00-0008-89.png,0002-00-0007-36.png
00000014,391,1,1441378960097,1441378960113,504,436,0,0,0,2,3,1,23,0002-00-0009-71.png,0003-00-0007-25.png
00000014,392,1,1441378961241,1441378961723,376,384,0,0,0,4,5,1,45,0004-00-0006-15.png,0005-00-0003-04.png
00000014,393,0,1441378962721,1441378963221,869,452,0,0,0,4,5,1,45,0004-00-0002-16.png,0005-00-0006-35.png
00000014,394,1,1441378966259,1441378966751,427,416,0,0,0,3,4,1,34,0003-00-0008-66.png,0004-00-0000-33.png
00000014,395,1,1441378967730,1441378968255,952,423,0,0,0,2,1,1,21,0002-00-0003-67.png,0001-00-0002-51.png
00000014,396,1,1441378969210,1441378969818,901,492,0,0,0,4,3,1,43,0004-00-0004-75.png,0003-00-0007-62.png
00000014,397,1,1441378970812,1441378971353,875,449,0,0,0,5,4,1,54,0005-00-0000-63.png,0004-00-0007-55.png
00000014,398,1,1441378972301,1441378972900,886,534,0,0,0,3,2,1,32,0003-00-0006-14.png,0002-00-0008-96.png
00000014,399,1,1441378973822,1441378974364,371,491,0,0,0,2,3,1,23,0002-00-0000-57.png,0003-00-0006-33.png
00000014,400,0,1441378975426,1441378975950,862,501,0,0,0,1,2,1,12,0001-00-0005-04.png,0002-00-0008-47.png
00000014,401,1,1441378979066,1441378979584,877,443,0,0,0,2,1,1,21,0002-00-0009-49.png,0001-00-0003-57.png
00000014,402,0,1441378980589,1441378981101,868,509,0,0,0,2,3,1,23,0002-00-0002-87.png,0003-00-0001-42.png
00000014,403,1,1441378984265,1441378984721,335,431,0,0,0,3,4,1,34,0003-00-0009-43.png,0004-00-0004-17.png
00000014,404,0,1441378985755,1441378986331,248,462,0,0,0,5,4,1,54,0005-00-0005-06.png,0004-00-0008-15.png
00000014,405,0,1441378989203,1441378989233,492,475,0,0,0,4,3,1,43,0004-00-0008-74.png,0003-00-0001-64.png
00000014,406,1,1441378992206,1441378992743,925,409,0,0,0,3,2,1,32,0003-00-0004-43.png,0002-00-0006-62.png
00000014,407,1,1441378993658,1441378994176,367,441,0,0,0,4,5,1,45,0004-00-0002-72.png,0005-00-0000-95.png
00000014,408,0,1441378995189,1441378995693,901,415,0,0,0,1,2,1,12,0001-00-0008-35.png,0002-00-0006-37.png
00000014,409,1,1441378998666,1441378999168,909,434,0,0,0,2,1,1,21,0002-00-0000-31.png,0001-00-0009-56.png
00000014,410,1,1441379000248,1441379000750,401,384,0,0,0,1,2,1,12,0001-00-0008-04.png,0002-00-0004-06.png
00000014,411,0,1441379001683,1441379002199,398,417,0,0,0,5,4,1,54,0005-00-0007-21.png,0004-00-0002-78.png
00000014,412,1,1441379005084,1441379005530,955,403,0,0,0,4,3,1,43,0004-00-0007-59.png,0003-00-0001-15.png
00000014,413,1,1441379006458,1441379006980,413,410,0,0,0,3,4,1,34,0003-00-0000-21.png,0004-00-0006-37.png
00000014,414,1,1441379007909,1441379008850,383,418,0,0,0,2,3,1,23,0002-00-0007-77.png,0003-00-0002-88.png
00000014,415,1,1441379010424,1441379010907,900,463,0,0,0,3,2,1,32,0003-00-0000-23.png,0002-00-0003-21.png
00000014,416,1,1441379011846,1441379012415,299,488,0,0,0,4,5,1,45,0004-00-0008-65.png,0005-00-0003-53.png
00000014,417,1,1441379013365,1441379013886,904,427,0,0,0,3,2,1,32,0003-00-0002-77.png,0002-00-0005-24.png
00000014,418,0,1441379014895,1441379015398,900,423,0,0,0,1,2,1,12,0001-00-0008-62.png,0002-00-0006-57.png
00000014,419,1,1441379018291,1441379018303,521,442,0,0,0,3,4,1,34,0003-00-0003-03.png,0004-00-0007-08.png
00000014,420,0,1441379019289,1441379019782,896,420,0,0,0,2,3,1,23,0002-00-0008-29.png,0003-00-0009-21.png
00000014,421,0,1441379022787,1441379022823,491,448,0,0,0,4,3,1,43,0004-00-0008-09.png,0003-00-0009-00.png
00000014,422,1,1441379026265,1441379026731,428,470,0,0,0,4,5,1,45,0004-00-0008-56.png,0005-00-0001-22.png
00000014,423,1,1441379027653,1441379028255,932,416,0,0,0,5,4,1,54,0005-00-0008-44.png,0004-00-0005-90.png
00000014,424,0,1441379029226,1441379029771,401,410,0,0,0,2,1,1,21,0002-00-0005-32.png,0001-00-0005-48.png
00000014,425,1,1441379032645,1441379033223,326,390,0,0,0,2,3,1,23,0002-00-0001-28.png,0003-00-0008-22.png
00000014,426,0,1441379034251,1441379034773,350,423,0,0,0,2,1,1,21,0002-00-0007-78.png,0001-00-0004-58.png
00000014,427,1,1441379037770,1441379038273,913,450,0,0,0,3,2,1,32,0003-00-0003-50.png,0002-00-0004-94.png
00000014,428,0,1441379039271,1441379039786,904,401,0,0,0,3,4,1,34,0003-00-0007-43.png,0004-00-0009-47.png
00000014,429,1,1441379042826,1441379043406,925,386,0,0,0,5,4,1,54,0005-00-0006-92.png,0004-00-0005-75.png
00000014,430,0,1441379044351,1441379044880,904,448,0,0,0,1,2,1,12,0001-00-0008-14.png,0002-00-0005-15.png
00000014,431,1,1441379048078,1441379048570,867,469,0,0,0,4,3,1,43,0004-00-0002-62.png,0003-00-0000-39.png
00000014,432,0,1441379049588,1441379050622,911,473,0,0,0,4,5,1,45,0004-00-0004-26.png,0005-00-0000-96.png
00000014,433,0,1441379053612,1441379054074,900,423,0,0,0,3,4,1,34,0003-00-0007-63.png,0004-00-0004-73.png
00000014,434,0,1441379057042,1441379057078,509,420,0,0,0,2,1,1,21,0002-00-0004-36.png,0001-00-0000-92.png
00000014,435,0,1441379060486,1441379061013,370,476,0,0,0,4,3,1,43,0004-00-0006-28.png,0003-00-0004-13.png
00000014,436,1,1441379064117,1441379064543,350,410,0,0,0,1,2,1,12,0001-00-0004-26.png,0002-00-0008-40.png
00000014,437,0,1441379065579,1441379066124,890,419,0,0,0,4,5,1,45,0004-00-0006-11.png,0005-00-0005-71.png
00000014,438,1,1441379070567,1441379071032,392,402,0,0,0,2,3,1,23,0002-00-0003-64.png,0003-00-0005-91.png
00000014,439,1,1441379072077,1441379072609,901,417,0,0,0,3,2,1,32,0003-00-0003-58.png,0002-00-0004-00.png
00000014,440,0,1441379073589,1441379073645,453,535,0,0,0,5,4,1,54,0005-00-0000-16.png,0004-00-0006-92.png
00000014,441,1,1441379076692,1441379077137,338,421,0,0,0,4,5,1,45,0004-00-0005-94.png,0005-00-0006-37.png
00000014,442,1,1441379078220,1441379078725,414,430,0,0,0,2,3,1,23,0002-00-0004-19.png,0003-00-0002-52.png
00000014,443,1,1441379079720,1441379080257,398,415,0,0,0,1,2,1,12,0001-00-0000-85.png,0002-00-0009-02.png
00000014,444,1,1441379081231,1441379081767,878,427,0,0,0,3,2,1,32,0003-00-0002-29.png,0002-00-0004-20.png
00000014,445,0,1441379082731,1441379083286,899,456,0,0,0,3,4,1,34,0003-00-0005-12.png,0004-00-0004-57.png
00000014,446,0,1441379086596,1441379087055,366,428,0,0,0,4,3,1,43,0004-00-0006-54.png,0003-00-0002-80.png
00000014,447,0,1441379090212,1441379090684,338,394,0,0,0,2,1,1,21,0002-00-0008-23.png,0001-00-0002-59.png
00000014,448,0,1441379093693,1441379094186,306,404,0,0,0,5,4,1,54,0005-00-0006-93.png,0004-00-0005-75.png
00000014,449,1,1441379097303,1441379097765,908,436,0,0,0,3,2,1,32,0003-00-0006-98.png,0002-00-0003-50.png
00000014,450,1,1441379098752,1441379099269,900,410,0,0,0,2,1,1,21,0002-00-0005-59.png,0001-00-0002-76.png
00000014,451,1,1441379100680,1441379101184,888,450,0,0,0,4,3,1,43,0004-00-0005-37.png,0003-00-0007-24.png
00000014,452,0,1441379102101,1441379102629,888,516,0,0,0,2,3,1,23,0002-00-0007-01.png,0003-00-0003-85.png
00000014,453,0,1441379105515,1441379106131,350,332,0,0,0,5,4,1,54,0005-00-0008-39.png,0004-00-0006-23.png
00000014,454,1,1441379109038,1441379109494,376,384,0,0,0,1,2,1,12,0001-00-0005-41.png,0002-00-0000-47.png
00000014,455,1,1441379110469,1441379110934,401,410,0,0,0,4,5,1,45,0004-00-0008-80.png,0005-00-0007-78.png
00000014,456,0,1441379111919,1441379112414,913,424,0,0,0,3,4,1,34,0003-00-0004-36.png,0004-00-0000-25.png
00000014,457,0,1441379115357,1441379116427,401,397,0,0,0,3,2,1,32,0003-00-0001-98.png,0002-00-0001-83.png
00000014,458,0,1441379119632,1441379120057,350,448,0,0,0,5,4,1,54,0005-00-0006-47.png,0004-00-0009-66.png
00000014,459,1,1441379123454,1441379123930,431,425,0,0,0,2,3,1,23,0002-00-0004-87.png,0003-00-0007-14.png
00000014,460,1,1441379124850,1441379125430,883,420,0,0,0,2,1,1,21,0002-00-0005-30.png,0001-00-0004-59.png
00000014,461,0,1441379126399,1441379126951,389,527,0,0,0,4,3,1,43,0004-00-0008-12.png,0003-00-0006-79.png
00000014,462,1,1441379129824,1441379129848,493,456,0,0,0,1,2,1,12,0001-00-0006-63.png,0002-00-0002-06.png
00000014,463,1,1441379130761,1441379131275,340,413,0,0,0,3,4,1,34,0003-00-0006-03.png,0004-00-0008-52.png
00000014,464,1,1441379132223,1441379132772,427,427,0,0,0,4,5,1,45,0004-00-0006-51.png,0005-00-0003-15.png
00000014,465,0,1441379133774,1441379133794,504,453,0,0,0,5,4,1,54,0005-00-0009-54.png,0004-00-0008-67.png
00000014,466,1,1441379137004,1441379137462,870,498,0,0,0,3,2,1,32,0003-00-0005-85.png,0002-00-0006-63.png
00000014,467,0,1441379138410,1441379138929,902,466,0,0,0,3,4,1,34,0003-00-0005-03.png,0004-00-0009-87.png
00000014,468,1,1441379141787,1441379142686,954,410,0,0,0,4,3,1,43,0004-00-0008-08.png,0003-00-0002-46.png
00000014,469,1,1441379143571,1441379143591,504,488,0,0,0,2,3,1,23,0002-00-0005-17.png,0003-00-0006-18.png
00000014,470,0,1441379144726,1441379145208,341,421,0,0,0,2,1,1,21,0002-00-0000-97.png,0001-00-0008-87.png
00000014,471,1,1441379148308,1441379148776,299,530,0,0,0,4,5,1,45,0004-00-0006-39.png,0005-00-0002-91.png
00000014,472,1,1441379149733,1441379150265,428,414,0,0,0,1,2,1,12,0001-00-0009-92.png,0002-00-0002-81.png
00000014,473,1,1441379151243,1441379151259,504,463,0,0,0,1,2,1,12,0001-00-0009-65.png,0002-00-0009-26.png
00000014,474,1,1441379152413,1441379152920,875,436,0,0,0,3,2,1,32,0003-00-0003-74.png,0002-00-0000-91.png
00000014,475,0,1441379153849,1441379154400,325,436,0,0,0,2,1,1,21,0002-00-0005-98.png,0001-00-0006-23.png
00000014,476,1,1441379157376,1441379157384,501,488,0,0,0,3,4,1,34,0003-00-0000-19.png,0004-00-0003-67.png
00000014,477,1,1441379158409,1441379158984,900,397,0,0,0,4,3,1,43,0004-00-0001-86.png,0003-00-0007-76.png
00000014,478,1,1441379159890,1441379160431,413,548,0,0,0,4,5,1,45,0004-00-0008-63.png,0005-00-0003-72.png
00000014,479,1,1441379161420,1441379161950,273,488,0,0,0,2,3,1,23,0002-00-0000-14.png,0003-00-0004-72.png
00000014,480,1,1441379162980,1441379163993,930,401,0,0,0,5,4,1,54,0005-00-0004-66.png,0004-00-0004-44.png
00000014,481,1,1441379164888,1441379165423,903,442,0,0,0,3,2,1,32,0003-00-0008-63.png,0002-00-0006-73.png
00000014,482,0,1441379166781,1441379167292,902,415,0,0,0,2,3,1,23,0002-00-0003-41.png,0003-00-0008-29.png
00000014,483,1,1441379170340,1441379170833,874,438,0,0,0,4,3,1,43,0004-00-0000-47.png,0003-00-0004-21.png
00000014,484,1,1441379171773,1441379172299,875,541,0,0,0,5,4,1,54,0005-00-0006-89.png,0004-00-0008-69.png
00000014,485,1,1441379173244,1441379173736,337,449,0,0,0,1,2,1,12,0001-00-0009-02.png,0002-00-0004-45.png
00000014,486,1,1441379174745,1441379175256,401,422,0,0,0,4,5,1,45,0004-00-0005-73.png,0005-00-0008-82.png
00000014,487,0,1441379176235,1441379176746,376,423,0,0,0,2,1,1,21,0002-00-0008-41.png,0001-00-0009-42.png
00000014,488,1,1441379179704,1441379180216,350,423,0,0,0,3,4,1,34,0003-00-0004-92.png,0004-00-0000-53.png
00000014,489,1,1441379181185,1441379181720,874,437,0,0,0,3,2,1,32,0003-00-0002-33.png,0002-00-0004-83.png
00000014,490,1,1441379182672,1441379183725,908,435,0,0,0,2,1,1,21,0002-00-0009-28.png,0001-00-0001-09.png
00000014,491,1,1441379184733,1441379185302,901,410,0,0,0,5,4,1,54,0005-00-0005-36.png,0004-00-0005-36.png
00000014,492,0,1441379186282,1441379186832,897,456,0,0,0,1,2,1,12,0001-00-0001-15.png,0002-00-0006-69.png
00000014,493,1,1441379190247,1441379190764,273,488,0,0,0,4,5,1,45,0004-00-0002-93.png,0005-00-0007-20.png
00000014,494,0,1441379191774,1441379192270,376,410,0,0,0,4,3,1,43,0004-00-0003-38.png,0003-00-0006-59.png
00000014,495,0,1441379200691,1441379201211,901,462,0,0,0,3,4,1,34,0003-00-0009-91.png,0004-00-0004-79.png
00000014,496,0,1441379204176,1441379204710,930,428,0,0,0,2,3,1,23,0002-00-0005-04.png,0003-00-0002-53.png
00000014,497,1,1441379207601,1441379208094,857,521,0,0,0,3,2,1,32,0003-00-0005-19.png,0002-00-0006-99.png
00000014,498,1,1441379208995,1441379209526,862,502,0,0,0,5,4,1,54,0005-00-0007-92.png,0004-00-0001-88.png
00000014,499,1,1441379210436,1441379210444,520,454,0,0,0,3,4,1,34,0003-00-0001-87.png,0004-00-0003-92.png
00000014,500,1,1441379211629,1441379212124,344,414,0,0,0,4,5,1,45,0004-00-0009-01.png,0005-00-0008-25.png
00000014,501,1,1441379213078,1441379213594,391,406,0,0,0,1,2,1,12,0001-00-0001-00.png,0002-00-0004-59.png
00000014,502,1,1441379214509,1441379215030,877,417,0,0,0,4,3,1,43,0004-00-0008-19.png,0003-00-0006-89.png
00000014,503,0,1441379215964,1441379216513,435,419,0,0,0,2,1,1,21,0002-00-0008-16.png,0001-00-0001-00.png
00000014,504,1,1441379219588,1441379220024,349,430,0,0,0,2,3,1,23,0002-00-0007-10.png,0003-00-0005-12.png
00000014,505,1,1441379220948,1441379221449,878,441,0,0,0,2,1,1,21,0002-00-0001-81.png,0001-00-0009-11.png
00000014,506,1,1441379222380,1441379222916,374,438,0,0,0,1,2,1,12,0001-00-0008-97.png,0002-00-0009-59.png
00000014,507,1,1441379223841,1441379225020,899,386,0,0,0,5,4,1,54,0005-00-0007-19.png,0004-00-0001-68.png
00000014,508,0,1441379225930,1441379226494,878,428,0,0,0,2,3,1,23,0002-00-0003-04.png,0003-00-0002-23.png
00000014,509,1,1441379229596,1441379230121,908,487,0,0,0,4,3,1,43,0004-00-0004-09.png,0003-00-0000-79.png
00000014,510,0,1441379230983,1441379231576,952,435,0,0,0,3,4,1,34,0003-00-0005-62.png,0004-00-0000-87.png
00000014,511,1,1441379234714,1441379235230,248,488,0,0,0,4,5,1,45,0004-00-0001-91.png,0005-00-0000-74.png
00000014,512,1,1441379236140,1441379236848,882,387,0,0,0,3,2,1,32,0003-00-0002-32.png,0002-00-0006-18.png
00000014,513,0,1441379237744,1441379237764,518,454,0,0,0,3,2,1,32,0003-00-0006-11.png,0002-00-0007-25.png
00000014,514,1,1441379240686,1441379241185,901,450,0,0,0,4,3,1,43,0004-00-0001-86.png,0003-00-0008-81.png
00000014,515,1,1441379242025,1441379242073,504,478,0,0,0,4,5,1,45,0004-00-0006-56.png,0005-00-0008-09.png
00000014,516,1,1441379243211,1441379243694,926,410,0,0,0,5,4,1,54,0005-00-0001-73.png,0004-00-0008-19.png
00000014,517,1,1441379244570,1441379245140,430,535,0,0,0,1,2,1,12,0001-00-0007-49.png,0002-00-0009-50.png
00000014,518,0,1441379246101,1441379246658,901,435,0,0,0,3,4,1,34,0003-00-0009-71.png,0004-00-0008-27.png
00000014,519,1,1441379250554,1441379250986,908,430,0,0,0,2,1,1,21,0002-00-0004-41.png,0001-00-0001-19.png
00000014,520,1,1441379251955,1441379252526,350,394,0,0,0,2,3,1,23,0002-00-0004-68.png,0003-00-0002-52.png
00000014,521,0,1441379253527,1441379254155,900,475,0,0,0,2,3,1,23,0002-00-0003-74.png,0003-00-0001-95.png
00000014,522,1,1441379257072,1441379257540,392,402,0,0,0,4,5,1,45,0004-00-0006-61.png,0005-00-0007-19.png
00000014,523,1,1441379258540,1441379258551,504,436,0,0,0,1,2,1,12,0001-00-0009-46.png,0002-00-0005-02.png
00000014,524,1,1441379259654,1441379260171,883,415,0,0,0,4,3,1,43,0004-00-0009-31.png,0003-00-0003-87.png
00000014,525,0,1441379261135,1441379261720,414,449,0,0,0,2,1,1,21,0002-00-0003-95.png,0001-00-0007-97.png
00000014,526,1,1441379265541,1441379266038,404,512,0,0,0,3,4,1,34,0003-00-0006-56.png,0004-00-0000-05.png
00000014,527,0,1441379266979,1441379267497,376,410,0,0,0,3,2,1,32,0003-00-0001-29.png,0002-00-0006-14.png
00000014,528,0,1441379270618,1441379271135,467,441,0,0,0,5,4,1,54,0005-00-0005-14.png,0004-00-0007-41.png
00000014,529,1,1441379274248,1441379274679,875,501,0,0,0,3,2,1,32,0003-00-0000-88.png,0002-00-0008-84.png
00000014,530,0,1441379275618,1441379276204,918,416,0,0,0,3,4,1,34,0003-00-0009-22.png,0004-00-0000-77.png
00000014,531,0,1441379279764,1441379280198,870,419,0,0,0,4,5,1,45,0004-00-0007-75.png,0005-00-0009-78.png
00000014,532,0,1441379283674,1441379284561,337,410,0,0,0,4,3,1,43,0004-00-0006-72.png,0003-00-0001-46.png
00000014,533,1,1441379287720,1441379288165,880,553,0,0,0,2,1,1,21,0002-00-0007-14.png,0001-00-0002-35.png
00000014,534,1,1441379289064,1441379289092,504,462,0,0,0,2,3,1,23,0002-00-0001-80.png,0003-00-0006-05.png
00000014,535,0,1441379290179,1441379290694,857,420,0,0,0,1,2,1,12,0001-00-0003-99.png,0002-00-0001-77.png
00000014,536,0,1441379293811,1441379294231,341,423,0,0,0,5,4,1,54,0005-00-0009-88.png,0004-00-0009-18.png
00000014,537,1,1441379297371,1441379297824,438,564,0,0,0,4,5,1,45,0004-00-0004-93.png,0005-00-0001-56.png
00000014,538,0,1441379298804,1441379299301,899,386,0,0,0,2,3,1,23,0002-00-0001-24.png,0003-00-0004-39.png
00000014,539,1,1441379302282,1441379302738,883,538,0,0,0,5,4,1,54,0005-00-0005-75.png,0004-00-0005-81.png
00000014,540,0,1441379303675,1441379303691,478,446,0,0,0,3,2,1,32,0003-00-0005-93.png,0002-00-0006-38.png
00000014,541,0,1441379306995,1441379307460,352,430,0,0,0,4,3,1,43,0004-00-0009-24.png,0003-00-0009-75.png
00000014,542,1,1441379310569,1441379310589,497,480,0,0,0,3,4,1,34,0003-00-0001-39.png,0004-00-0000-04.png
00000014,543,1,1441379311484,1441379312012,877,440,0,0,0,2,1,1,21,0002-00-0003-73.png,0001-00-0005-24.png
00000014,544,1,1441379312994,1441379313480,316,428,0,0,0,1,2,1,12,0001-00-0000-25.png,0002-00-0005-42.png
00000014,545,0,1441379314427,1441379314963,900,423,0,0,0,3,4,1,34,0003-00-0001-11.png,0004-00-0000-81.png
00000014,546,1,1441379318044,1441379318580,904,403,0,0,0,3,2,1,32,0003-00-0007-18.png,0002-00-0005-57.png
00000014,547,1,1441379319535,1441379320046,876,495,0,0,0,4,3,1,43,0004-00-0007-18.png,0003-00-0003-02.png
00000014,548,1,1441379320914,1441379321464,414,555,0,0,0,1,2,1,12,0001-00-0000-14.png,0002-00-0001-46.png
00000014,549,1,1441379322387,1441379323023,898,428,0,0,0,5,4,1,54,0005-00-0005-05.png,0004-00-0009-12.png
00000014,550,1,1441379323958,1441379323962,487,469,0,0,0,4,5,1,45,0004-00-0000-07.png,0005-00-0002-28.png
00000014,551,0,1441379325081,1441379325591,878,416,0,0,0,2,3,1,23,0002-00-0007-42.png,0003-00-0009-39.png
00000014,552,1,1441379331012,1441379331525,906,548,0,0,0,2,1,1,21,0002-00-0004-48.png,0001-00-0006-62.png
00000014,553,1,1441379332371,1441379333431,427,410,0,0,0,1,2,1,12,0001-00-0009-33.png,0002-00-0002-10.png
00000014,554,1,1441379334391,1441379334892,881,515,0,0,0,2,1,1,21,0002-00-0005-93.png,0001-00-0000-70.png
00000014,555,1,1441379335812,1441379337540,936,399,0,0,0,3,2,1,32,0003-00-0004-30.png,0002-00-0003-71.png
00000014,556,1,1441379338370,1441379338963,427,410,0,0,0,3,4,1,34,0003-00-0002-70.png,0004-00-0008-58.png
00000014,557,0,1441379339927,1441379340917,862,515,0,0,0,2,3,1,23,0002-00-0009-34.png,0003-00-0004-34.png
00000014,558,0,1441379343948,1441379344363,376,423,0,0,0,4,3,1,43,0004-00-0006-15.png,0003-00-0001-25.png
00000014,559,1,1441379347588,1441379348071,284,422,0,0,0,4,5,1,45,0004-00-0002-80.png,0005-00-0000-21.png
00000014,560,1,1441379349018,1441379349542,904,427,0,0,0,5,4,1,54,0005-00-0002-90.png,0004-00-0003-11.png
00000014,561,0,1441379350500,1441379350516,475,478,0,0,0,5,4,1,54,0005-00-0006-15.png,0004-00-0001-89.png
00000014,562,1,1441379353681,1441379354160,213,480,0,0,0,3,4,1,34,0003-00-0007-73.png,0004-00-0009-27.png
00000014,563,0,1441379355547,1441379356084,883,427,0,0,0,1,2,1,12,0001-00-0002-70.png,0002-00-0007-86.png
00000014,564,1,1441379359523,1441379359935,401,424,0,0,0,2,3,1,23,0002-00-0007-19.png,0003-00-0002-63.png
00000014,565,0,1441379360936,1441379360956,491,436,0,0,0,3,2,1,32,0003-00-0005-22.png,0002-00-0001-40.png
00000014,566,1,1441379363794,1441379364690,869,397,0,0,0,4,3,1,43,0004-00-0006-56.png,0003-00-0006-77.png
00000014,567,0,1441379365531,1441379365575,504,473,0,0,0,2,1,1,21,0002-00-0008-27.png,0001-00-0008-07.png
00000014,568,1,1441379368955,1441379369390,401,436,0,0,0,4,5,1,45,0004-00-0009-94.png,0005-00-0003-64.png
00000014,569,0,1441379370357,1441379371285,922,417,0,0,0,3,4,1,34,0003-00-0008-21.png,0004-00-0002-04.png
00000014,570,0,1441379374431,1441379374435,509,437,0,0,0,3,2,1,32,0003-00-0009-98.png,0002-00-0009-62.png
00000014,571,0,1441379377880,1441379378327,874,515,0,0,0,1,2,1,12,0001-00-0008-68.png,0002-00-0003-29.png
00000014,572,1,1441379381242,1441379381459,504,426,0,0,0,4,5,1,45,0004-00-0002-30.png,0005-00-0009-96.png
00000014,573,1,1441379382461,1441379382947,359,410,0,0,0,2,3,1,23,0002-00-0003-72.png,0003-00-0002-34.png
00000014,574,1,1441379383862,1441379384383,903,413,0,0,0,2,1,1,21,0002-00-0002-12.png,0001-00-0006-10.png
00000014,575,1,1441379385454,1441379385937,876,449,0,0,0,5,4,1,54,0005-00-0007-83.png,0004-00-0001-70.png
00000014,576,0,1441379387782,1441379388257,350,399,0,0,0,4,3,1,43,0004-00-0006-36.png,0003-00-0005-96.png
00000014,577,0,1441379391137,1441379391596,266,481,0,0,0,5,4,1,54,0005-00-0003-73.png,0004-00-0006-97.png
00000014,578,1,1441379394654,1441379395091,411,534,0,0,0,3,4,1,34,0003-00-0007-17.png,0004-00-0004-81.png
00000014,579,0,1441379395994,1441379396558,923,488,0,0,0,1,2,1,12,0001-00-0001-42.png,0002-00-0005-62.png
00000014,580,0,1441379399935,1441379400931,910,418,0,0,0,4,5,1,45,0004-00-0003-78.png,0005-00-0009-66.png
00000014,581,0,1441379403961,1441379404421,385,528,0,0,0,3,2,1,32,0003-00-0004-64.png,0002-00-0007-97.png
00000014,582,1,1441379408181,1441379409071,401,423,0,0,0,2,3,1,23,0002-00-0000-93.png,0003-00-0004-78.png
00000014,583,0,1441379409990,1441379410544,427,410,0,0,0,4,3,1,43,0004-00-0001-92.png,0003-00-0009-53.png
00000014,584,0,1441379414076,1441379414519,342,440,0,0,0,2,1,1,21,0002-00-0003-07.png,0001-00-0005-72.png
00000014,585,0,1441379417530,1441379417970,414,437,0,0,0,4,3,1,43,0004-00-0002-58.png,0003-00-0000-44.png
00000014,586,1,1441379420953,1441379420961,467,430,0,0,0,2,3,1,23,0002-00-0009-29.png,0003-00-0006-47.png
00000014,587,0,1441379421898,1441379421924,470,451,0,0,0,5,4,1,54,0005-00-0001-66.png,0004-00-0004-10.png
00000014,588,0,1441379425106,1441379425581,869,389,0,0,0,3,4,1,34,0003-00-0001-53.png,0004-00-0002-92.png
00000014,589,0,1441379428572,1441379429040,420,394,0,0,0,2,1,1,21,0002-00-0007-22.png,0001-00-0007-16.png
00000014,590,0,1441379432348,1441379432872,881,433,0,0,0,4,5,1,45,0004-00-0005-09.png,0005-00-0006-46.png
00000014,591,0,1441379435969,1441379436441,881,410,0,0,0,1,2,1,12,0001-00-0008-74.png,0002-00-0001-49.png
00000014,592,0,1441379439836,1441379439848,506,480,0,0,0,3,2,1,32,0003-00-0001-65.png,0002-00-0007-61.png
00000014,593,1,1441379442926,1441379443433,414,528,0,0,0,3,4,1,34,0003-00-0007-10.png,0004-00-0003-31.png
00000014,594,0,1441379444472,1441379444982,324,424,0,0,0,4,3,1,43,0004-00-0008-23.png,0003-00-0001-93.png
00000014,595,1,1441379448400,1441379448890,904,402,0,0,0,2,1,1,21,0002-00-0006-45.png,0001-00-0000-16.png
00000014,596,1,1441379449742,1441379450268,879,402,0,0,0,5,4,1,54,0005-00-0009-83.png,0004-00-0003-46.png
00000014,597,0,1441379451195,1441379451751,875,443,0,0,0,2,3,1,23,0002-00-0004-18.png,0003-00-0006-58.png
00000014,598,0,1441379454872,1441379455339,901,450,0,0,0,4,5,1,45,0004-00-0003-74.png,0005-00-0007-17.png
00000014,599,0,1441379458550,1441379458971,880,402,0,0,0,1,2,1,12,0001-00-0003-34.png,0002-00-0003-74.png
00000014,600,1,1441379462556,1441379463008,876,496,0,0,0,3,2,1,32,0003-00-0001-41.png,0002-00-0000-88.png
00000014,601,0,1441379463967,1441379463975,493,453,0,0,0,2,1,1,21,0002-00-0001-83.png,0001-00-0004-80.png
00000014,602,1,1441379467226,1441379467769,900,423,0,0,0,3,2,1,32,0003-00-0002-27.png,0002-00-0005-19.png
00000014,603,0,1441379468673,1441379468707,493,462,0,0,0,5,4,1,54,0005-00-0007-04.png,0004-00-0000-93.png
00000014,604,1,1441379471658,1441379471694,463,461,0,0,0,2,3,1,23,0002-00-0009-61.png,0003-00-0006-54.png
00000014,605,1,1441379472642,1441379473176,865,429,0,0,0,4,3,1,43,0004-00-0003-45.png,0003-00-0007-72.png
00000014,606,1,1441379474071,1441379474091,478,449,0,0,0,1,2,1,12,0001-00-0001-84.png,0002-00-0007-01.png
00000014,607,1,1441379475186,1441379475194,490,436,0,0,0,3,4,1,34,0003-00-0009-74.png,0004-00-0009-08.png
00000014,608,1,1441379476258,1441379476741,356,422,0,0,0,4,5,1,45,0004-00-0007-93.png,0005-00-0004-72.png
00000014,609,0,1441379477651,1441379477667,500,433,0,0,0,4,3,1,43,0004-00-0009-38.png,0003-00-0002-32.png
00000014,610,1,1441379480937,1441379481374,864,503,0,0,0,5,4,1,54,0005-00-0007-16.png,0004-00-0003-94.png
00000014,611,1,1441379482306,1441379482855,379,415,0,0,0,4,5,1,45,0004-00-0007-28.png,0005-00-0000-23.png
00000014,612,0,1441379483760,1441379484817,345,433,0,0,0,3,2,1,32,0003-00-0006-66.png,0002-00-0003-93.png
00000014,613,1,1441379489011,1441379489487,317,419,0,0,0,1,2,1,12,0001-00-0005-55.png,0002-00-0005-19.png
00000014,614,1,1441379490511,1441379490523,478,448,0,0,0,2,3,1,23,0002-00-0001-29.png,0003-00-0000-15.png
00000014,615,0,1441379491604,1441379492094,879,429,0,0,0,3,4,1,34,0003-00-0009-44.png,0004-00-0003-15.png
00000014,616,0,1441379495239,1441379495710,333,391,0,0,0,2,1,1,21,0002-00-0001-09.png,0001-00-0007-21.png
00000014,617,1,1441379498787,1441379499225,890,423,0,0,0,5,4,1,54,0005-00-0008-79.png,0004-00-0007-89.png
00000014,618,0,1441379500191,1441379500207,478,449,0,0,0,3,2,1,32,0003-00-0006-20.png,0002-00-0008-73.png
00000014,619,1,1441379504037,1441379504061,516,450,0,0,0,2,3,1,23,0002-00-0009-61.png,0003-00-0001-46.png
00000014,620,0,1441379505043,1441379505608,401,422,0,0,0,4,3,1,43,0004-00-0001-09.png,0003-00-0004-26.png
00000014,621,1,1441379508624,1441379509101,412,516,0,0,0,1,2,1,12,0001-00-0002-33.png,0002-00-0000-32.png
00000014,622,1,1441379509966,1441379509986,478,436,0,0,0,3,4,1,34,0003-00-0005-26.png,0004-00-0006-91.png
00000014,623,1,1441379511083,1441379511099,504,480,0,0,0,4,5,1,45,0004-00-0002-04.png,0005-00-0002-96.png
00000014,624,0,1441379512102,1441379512622,427,410,0,0,0,2,1,1,21,0002-00-0000-80.png,0001-00-0007-38.png
00000014,625,0,1441379516030,1441379516042,504,436,0,0,0,4,3,1,43,0004-00-0002-01.png,0003-00-0003-68.png
00000014,626,0,1441379519219,1441379519694,376,425,0,0,0,5,4,1,54,0005-00-0005-00.png,0004-00-0005-99.png
00000014,627,1,1441379523196,1441379523638,401,410,0,0,0,3,4,1,34,0003-00-0004-37.png,0004-00-0008-32.png
00000014,628,0,1441379524617,1441379525541,892,384,0,0,0,1,2,1,12,0001-00-0006-84.png,0002-00-0001-50.png
00000014,629,0,1441379529093,1441379529594,900,397,0,0,0,2,3,1,23,0002-00-0004-67.png,0003-00-0003-41.png
00000014,630,1,1441379533137,1441379533678,365,351,0,0,0,4,5,1,45,0004-00-0003-13.png,0005-00-0002-98.png
00000014,631,0,1441379534644,1441379534664,504,463,0,0,0,3,2,1,32,0003-00-0004-43.png,0002-00-0007-43.png
00000014,632,0,1441379537591,1441379537620,483,428,0,0,0,2,1,1,21,0002-00-0001-34.png,0001-00-0006-13.png
00000014,633,1,1441379540704,1441379540712,517,489,0,0,0,1,2,1,12,0001-00-0002-42.png,0002-00-0009-90.png
00000014,634,0,1441379541647,1441379542141,873,491,0,0,0,3,4,1,34,0003-00-0006-68.png,0004-00-0002-17.png
00000014,635,0,1441379548847,1441379549369,325,449,0,0,0,4,3,1,43,0004-00-0007-35.png,0003-00-0004-30.png
00000014,636,0,1441379554247,1441379554255,485,445,0,0,0,5,4,1,54,0005-00-0006-64.png,0004-00-0004-09.png
00000014,637,1,1441379557594,1441379557606,513,446,0,0,0,4,5,1,45,0004-00-0008-17.png,0005-00-0001-55.png
00000014,638,1,1441379558589,1441379559075,879,428,0,0,0,3,2,1,32,0003-00-0003-61.png,0002-00-0007-05.png
00000014,639,0,1441379559990,1441379560480,867,560,0,0,0,2,3,1,23,0002-00-0009-86.png,0003-00-0001-39.png
00000014,640,1,1441379563573,1441379564054,879,419,0,0,0,2,1,1,21,0002-00-0002-33.png,0001-00-0003-73.png
00000014,641,1,1441379564906,1441379565511,875,514,0,0,0,4,3,1,43,0004-00-0004-97.png,0003-00-0003-37.png
00000014,642,0,1441379566876,1441379567422,418,549,0,0,0,5,4,1,54,0005-00-0005-37.png,0004-00-0001-21.png
00000014,643,0,1441379575456,1441379575872,337,447,0,0,0,2,1,1,21,0002-00-0008-72.png,0001-00-0008-03.png
00000014,644,1,1441379580892,1441379581386,341,363,0,0,0,3,4,1,34,0003-00-0006-00.png,0004-00-0000-38.png
00000014,645,1,1441379582270,1441379582282,446,456,0,0,0,1,2,1,12,0001-00-0004-26.png,0002-00-0007-48.png
00000014,646,1,1441379583505,1441379583553,504,477,0,0,0,4,5,1,45,0004-00-0001-94.png,0005-00-0001-27.png
00000014,647,1,1441379584779,1441379585296,293,436,0,0,0,2,3,1,23,0002-00-0001-23.png,0003-00-0005-84.png
00000014,648,1,1441379586833,1441379587324,857,539,0,0,0,3,2,1,32,0003-00-0000-99.png,0002-00-0008-26.png
00000014,649,1,1441379588935,1441379588939,491,447,0,0,0,1,2,1,12,0001-00-0000-81.png,0002-00-0006-00.png
00000014,650,0,1441379590037,1441379590057,512,455,0,0,0,4,3,1,43,0004-00-0002-89.png,0003-00-0002-26.png
00000014,651,0,1441379593038,1441379593046,516,493,0,0,0,5,4,1,54,0005-00-0002-09.png,0004-00-0009-34.png
00000014,652,0,1441379595970,1441379595986,511,454,0,0,0,2,1,1,21,0002-00-0006-70.png,0001-00-0003-64.png
00000014,653,1,1441379599070,1441379599485,350,410,0,0,0,4,5,1,45,0004-00-0000-44.png,0005-00-0000-84.png
00000014,654,1,1441379600433,1441379600916,891,510,0,0,0,3,2,1,32,0003-00-0005-52.png,0002-00-0001-25.png
00000014,655,0,1441379602318,1441379602810,891,400,0,0,0,3,4,1,34,0003-00-0003-15.png,0004-00-0005-92.png
00000014,656,1,1441379605829,1441379605865,460,497,0,0,0,2,3,1,23,0002-00-0002-19.png,0003-00-0003-84.png
00000014,657,1,1441379606820,1441379606836,506,465,0,0,0,1,2,1,12,0001-00-0003-50.png,0002-00-0008-91.png
00000014,658,1,1441379607927,1441379608426,868,508,0,0,0,2,1,1,21,0002-00-0005-72.png,0001-00-0005-62.png
00000014,659,1,1441379609326,1441379609354,490,436,0,0,0,3,4,1,34,0003-00-0005-26.png,0004-00-0008-75.png
00000014,660,0,1441379610490,1441379610992,411,523,0,0,0,3,2,1,32,0003-00-0005-28.png,0002-00-0001-85.png
00000014,661,1,1441379613968,1441379614434,368,402,0,0,0,4,5,1,45,0004-00-0008-23.png,0005-00-0006-68.png
00000014,662,0,1441379615397,1441379615912,873,527,0,0,0,2,3,1,23,0002-00-0006-46.png,0003-00-0007-31.png
00000014,663,1,1441379619026,1441379619502,911,394,0,0,0,4,3,1,43,0004-00-0001-11.png,0003-00-0003-62.png
00000014,664,1,1441379620395,1441379620916,900,429,0,0,0,5,4,1,54,0005-00-0002-47.png,0004-00-0004-28.png
00000014,665,1,1441379621816,1441379622353,370,446,0,0,0,3,4,1,34,0003-00-0007-57.png,0004-00-0006-81.png
00000014,666,1,1441379623259,1441379623805,440,449,0,0,0,2,3,1,23,0002-00-0004-07.png,0003-00-0000-68.png
00000014,667,1,1441379624699,1441379625268,408,430,0,0,0,4,5,1,45,0004-00-0007-85.png,0005-00-0003-28.png
00000014,668,1,1441379626127,1441379627267,896,427,0,0,0,4,3,1,43,0004-00-0005-58.png,0003-00-0000-70.png
00000014,669,0,1441379628189,1441379628225,507,478,0,0,0,3,2,1,32,0003-00-0008-77.png,0002-00-0007-02.png
00000014,670,0,1441379631267,1441379631818,350,370,0,0,0,2,1,1,21,0002-00-0000-78.png,0001-00-0001-49.png
00000014,671,1,1441379634726,1441379634738,483,466,0,0,0,1,2,1,12,0001-00-0006-44.png,0002-00-0004-03.png
00000014,672,0,1441379635742,1441379636240,341,438,0,0,0,5,4,1,54,0005-00-0003-17.png,0004-00-0007-80.png
00000014,673,0,1441379639158,1441379639647,877,415,0,0,0,2,3,1,23,0002-00-0000-33.png,0003-00-0008-54.png
00000014,674,0,1441379642689,1441379642713,494,488,0,0,0,5,4,1,54,0005-00-0008-58.png,0004-00-0003-19.png
00000014,675,0,1441379645547,1441379646056,334,410,0,0,0,4,3,1,43,0004-00-0008-64.png,0003-00-0009-76.png
00000014,676,0,1441379648948,1441379649407,391,528,0,0,0,2,1,1,21,0002-00-0001-51.png,0001-00-0008-87.png
00000014,677,0,1441379652823,1441379653269,894,389,0,0,0,3,4,1,34,0003-00-0003-19.png,0004-00-0004-72.png
00000014,678,1,1441379656349,1441379656883,421,411,0,0,0,4,5,1,45,0004-00-0007-19.png,0005-00-0006-96.png
00000014,679,1,1441379657815,1441379658348,877,417,0,0,0,3,2,1,32,0003-00-0009-16.png,0002-00-0005-75.png
00000014,680,1,1441379659327,1441379660396,421,417,0,0,0,1,2,1,12,0001-00-0006-57.png,0002-00-0008-91.png
00000014,681,1,1441379661323,1441379661915,313,397,0,0,0,4,5,1,45,0004-00-0006-68.png,0005-00-0006-77.png
00000014,682,0,1441379662862,1441379662910,478,462,0,0,0,5,4,1,54,0005-00-0003-78.png,0004-00-0009-87.png
00000014,683,0,1441379666419,1441379666948,436,562,0,0,0,2,1,1,21,0002-00-0003-42.png,0001-00-0005-08.png
00000014,684,1,1441379670027,1441379670055,421,479,0,0,0,3,4,1,34,0003-00-0006-46.png,0004-00-0008-94.png
00000014,685,1,1441379670945,1441379670962,506,430,0,0,0,2,3,1,23,0002-00-0001-55.png,0003-00-0003-63.png
00000014,686,0,1441379672086,1441379672629,376,410,0,0,0,4,3,1,43,0004-00-0005-49.png,0003-00-0002-85.png
00000014,687,1,1441379676379,1441379676891,397,550,0,0,0,1,2,1,12,0001-00-0003-78.png,0002-00-0004-52.png
00000014,688,1,1441379677901,1441379678400,870,498,0,0,0,3,2,1,32,0003-00-0006-48.png,0002-00-0003-35.png
00000014,689,1,1441379679360,1441379679899,383,419,0,0,0,4,5,1,45,0004-00-0000-74.png,0005-00-0003-64.png
00000014,690,0,1441379680832,1441379681847,443,545,0,0,0,3,2,1,32,0003-00-0003-55.png,0002-00-0003-18.png
00000014,691,1,1441379684815,1441379685244,376,410,0,0,0,2,3,1,23,0002-00-0003-64.png,0003-00-0001-54.png
00000014,692,0,1441379686158,1441379686702,899,436,0,0,0,1,2,1,12,0001-00-0005-42.png,0002-00-0002-52.png
00000014,693,1,1441379689583,1441379689623,449,476,0,0,0,3,4,1,34,0003-00-0002-41.png,0004-00-0006-07.png
00000014,694,0,1441379690628,1441379691174,447,514,0,0,0,4,3,1,43,0004-00-0004-32.png,0003-00-0004-73.png
00000014,695,0,1441379694147,1441379694167,507,461,0,0,0,2,1,1,21,0002-00-0006-68.png,0001-00-0008-65.png
00000014,696,0,1441379697288,1441379697743,406,536,0,0,0,5,4,1,54,0005-00-0003-21.png,0004-00-0000-35.png
00000014,697,0,1441379700629,1441379701070,345,450,0,0,0,4,3,1,43,0004-00-0002-33.png,0003-00-0003-23.png
00000014,698,0,1441379704565,1441379705045,484,510,0,0,0,5,4,1,54,0005-00-0004-52.png,0004-00-0003-28.png
00000014,699,0,1441379708359,1441379708904,900,409,0,0,0,2,3,1,23,0002-00-0005-30.png,0003-00-0007-24.png
00000014,700,1,1441379711968,1441379711984,484,396,0,0,0,3,4,1,34,0003-00-0005-51.png,0004-00-0007-93.png
00000014,701,1,1441379712976,1441379713513,875,443,0,0,0,3,2,1,32,0003-00-0003-44.png,0002-00-0001-57.png
00000014,702,1,1441379714582,1441379715094,367,535,0,0,0,1,2,1,12,0001-00-0006-42.png,0002-00-0001-32.png
00000014,703,1,1441379716042,1441379716592,367,394,0,0,0,4,5,1,45,0004-00-0000-09.png,0005-00-0005-79.png
00000014,704,1,1441379717513,1441379718058,902,414,0,0,0,2,1,1,21,0002-00-0007-12.png,0001-00-0006-24.png
00000014,705,1,1441379718993,1441379719515,248,473,0,0,0,3,4,1,34,0003-00-0005-43.png,0004-00-0003-42.png
00000014,706,0,1441379720480,1441379721013,354,429,0,0,0,3,2,1,32,0003-00-0001-41.png,0002-00-0007-55.png
00000014,707,0,1441379723869,1441379724352,312,417,0,0,0,2,1,1,21,0002-00-0005-18.png,0001-00-0000-54.png
00000014,708,0,1441379727210,1441379727242,463,442,0,0,0,4,3,1,43,0004-00-0009-16.png,0003-00-0009-94.png
00000014,709,1,1441379730620,1441379731033,376,449,0,0,0,1,2,1,12,0001-00-0001-56.png,0002-00-0000-76.png
00000014,710,0,1441379731851,1441379732431,400,411,0,0,0,5,4,1,54,0005-00-0000-03.png,0004-00-0008-40.png
00000014,711,0,1441379735388,1441379735876,931,376,0,0,0,2,3,1,23,0002-00-0002-93.png,0003-00-0009-35.png
00000014,712,1,1441379738859,1441379739357,370,416,0,0,0,4,5,1,45,0004-00-0008-77.png,0005-00-0000-38.png
00000014,713,0,1441379740299,1441379740836,875,443,0,0,0,3,4,1,34,0003-00-0000-09.png,0004-00-0001-51.png
00000014,714,1,1441379743699,1441379744101,376,410,0,0,0,2,3,1,23,0002-00-0001-45.png,0003-00-0005-49.png
00000014,715,0,1441379744982,1441379745508,401,410,0,0,0,4,3,1,43,0004-00-0006-98.png,0003-00-0002-61.png
00000014,716,1,1441379748659,1441379749128,383,419,0,0,0,4,5,1,45,0004-00-0007-60.png,0005-00-0004-39.png
00000014,717,1,1441379750051,1441379750067,480,463,0,0,0,1,2,1,12,0001-00-0001-98.png,0002-00-0001-26.png
00000014,718,1,1441379751165,1441379751675,875,436,0,0,0,2,1,1,21,0002-00-0003-87.png,0001-00-0009-08.png
00000014,719,1,1441379752585,1441379753142,879,428,0,0,0,5,4,1,54,0005-00-0006-75.png,0004-00-0002-85.png
00000014,720,1,1441379754103,1441379754657,879,429,0,0,0,3,2,1,32,0003-00-0008-02.png,0002-00-0008-80.png
00000014,721,1,1441379755664,1441379756218,875,436,0,0,0,4,3,1,43,0004-00-0007-86.png,0003-00-0008-43.png
00000014,722,0,1441379757206,1441379757214,486,478,0,0,0,2,1,1,21,0002-00-0003-38.png,0001-00-0005-79.png
00000014,723,1,1441379760294,1441379760772,317,427,0,0,0,2,3,1,23,0002-00-0000-83.png,0003-00-0004-24.png
00000014,724,0,1441379761709,1441379762832,898,484,0,0,0,1,2,1,12,0001-00-0008-18.png,0002-00-0000-61.png
00000014,725,1,1441379765869,1441379766378,299,462,0,0,0,4,5,1,45,0004-00-0009-60.png,0005-00-0006-77.png
00000014,726,1,1441379767323,1441379767343,478,446,0,0,0,3,4,1,34,0003-00-0000-83.png,0004-00-0000-49.png
00000014,727,1,1441379768406,1441379768900,872,471,0,0,0,5,4,1,54,0005-00-0003-43.png,0004-00-0004-27.png
00000014,728,0,1441379769849,1441379770365,427,410,0,0,0,3,2,1,32,0003-00-0001-55.png,0002-00-0002-71.png
00000014,729,0,1441379773222,1441379773230,472,445,0,0,0,3,2,1,32,0003-00-0007-72.png,0002-00-0005-47.png
00000014,730,1,1441379776323,1441379776771,323,404,0,0,0,4,5,1,45,0004-00-0009-40.png,0005-00-0006-85.png
00000014,731,0,1441379777668,1441379777684,472,444,0,0,0,2,1,1,21,0002-00-0001-17.png,0001-00-0008-29.png
00000014,732,0,1441379780942,1441379781411,335,435,0,0,0,5,4,1,54,0005-00-0006-97.png,0004-00-0006-79.png
00000014,733,0,1441379784404,1441379785378,895,420,0,0,0,1,2,1,12,0001-00-0002-87.png,0002-00-0001-10.png
00000014,734,0,1441379788240,1441379788727,892,467,0,0,0,3,4,1,34,0003-00-0004-30.png,0004-00-0003-33.png
00000014,735,0,1441379791729,1441379792256,903,417,0,0,0,2,3,1,23,0002-00-0001-23.png,0003-00-0009-92.png
00000014,736,1,1441379795206,1441379795649,857,359,0,0,0,4,3,1,43,0004-00-0009-31.png,0003-00-0001-31.png
00000014,737,0,1441379796562,1441379796570,519,436,0,0,0,4,3,1,43,0004-00-0001-96.png,0003-00-0000-55.png
00000014,738,1,1441379799541,1441379800005,441,528,0,0,0,1,2,1,12,0001-00-0009-57.png,0002-00-0001-68.png
00000014,739,1,1441379800983,1441379801497,884,426,0,0,0,5,4,1,54,0005-00-0003-39.png,0004-00-0001-12.png
00000014,740,1,1441379802474,1441379803443,901,384,0,0,0,3,2,1,32,0003-00-0008-42.png,0002-00-0009-89.png
00000014,741,0,1441379804420,1441379804914,862,410,0,0,0,2,3,1,23,0002-00-0000-26.png,0003-00-0002-79.png
00000014,742,0,1441379808363,1441379808851,873,405,0,0,0,3,4,1,34,0003-00-0000-04.png,0004-00-0005-02.png
00000014,743,1,1441379811672,1441379812200,384,463,0,0,0,4,5,1,45,0004-00-0002-91.png,0005-00-0003-07.png
00000014,744,1,1441379813063,1441379813590,870,524,0,0,0,2,1,1,21,0002-00-0007-93.png,0001-00-0004-96.png
00000014,745,0,1441379814504,1441379814520,504,488,0,0,0,3,2,1,32,0003-00-0004-46.png,0002-00-0008-03.png
00000014,746,1,1441379817417,1441379817433,507,427,0,0,0,4,5,1,45,0004-00-0007-73.png,0005-00-0001-48.png
00000014,747,1,1441379818345,1441379818867,222,514,0,0,0,1,2,1,12,0001-00-0007-57.png,0002-00-0001-81.png
00000014,748,0,1441379819791,1441379820306,344,420,0,0,0,2,1,1,21,0002-00-0005-63.png,0001-00-0003-08.png
00000014,749,1,1441379823252,1441379823280,491,504,0,0,0,3,4,1,34,0003-00-0001-57.png,0004-00-0008-17.png
00000014,750,1,1441379824156,1441379824738,900,423,0,0,0,5,4,1,54,0005-00-0008-71.png,0004-00-0007-59.png
00000014,751,1,1441379825607,1441379826155,387,440,0,0,0,2,3,1,23,0002-00-0002-75.png,0003-00-0009-96.png
00000014,752,0,1441379827124,1441379827643,369,417,0,0,0,4,3,1,43,0004-00-0005-19.png,0003-00-0000-83.png
00000014,753,1,1441379830495,1441379830965,335,453,0,0,0,1,2,1,12,0001-00-0009-77.png,0002-00-0000-82.png
00000014,754,0,1441379831910,1441379832446,908,417,0,0,0,2,3,1,23,0002-00-0009-49.png,0003-00-0002-50.png
00000014,755,0,1441379835655,1441379836114,243,505,0,0,0,5,4,1,54,0005-00-0004-96.png,0004-00-0005-44.png
00000014,756,1,1441379839059,1441379839493,341,420,0,0,0,4,5,1,45,0004-00-0008-74.png,0005-00-0006-84.png
00000014,757,1,1441379840403,1441379840443,504,506,0,0,0,3,4,1,34,0003-00-0003-69.png,0004-00-0005-65.png
00000014,758,0,1441379841480,1441379842309,401,435,0,0,0,4,3,1,43,0004-00-0000-65.png,0003-00-0005-33.png
00000014,759,0,1441379845243,1441379845741,342,416,0,0,0,3,2,1,32,0003-00-0002-05.png,0002-00-0001-29.png
00000014,760,1,1441379848918,1441379849401,885,501,0,0,0,2,1,1,21,0002-00-0003-22.png,0001-00-0009-85.png
00000014,761,1,1441379850574,1441379851034,879,403,0,0,0,2,1,1,21,0002-00-0007-07.png,0001-00-0002-05.png
00000014,762,0,1441379851964,1441379852883,384,419,0,0,0,4,3,1,43,0004-00-0009-69.png,0003-00-0000-76.png
00000014,763,1,1441379855888,1441379855896,504,445,0,0,0,4,5,1,45,0004-00-0008-32.png,0005-00-0003-07.png
00000014,764,1,1441379856866,1441379857387,360,471,0,0,0,2,3,1,23,0002-00-0004-69.png,0003-00-0004-77.png
00000014,765,0,1441379858440,1441379858913,367,439,0,0,0,3,2,1,32,0003-00-0008-33.png,0002-00-0004-64.png
00000014,766,0,1441379862857,1441379863328,886,425,0,0,0,1,2,1,12,0001-00-0003-36.png,0002-00-0003-13.png
00000014,767,1,1441379866452,1441379866923,368,438,0,0,0,3,4,1,34,0003-00-0000-41.png,0004-00-0002-65.png
00000014,768,1,1441379868647,1441379869113,876,436,0,0,0,5,4,1,54,0005-00-0007-20.png,0004-00-0004-62.png
00000014,769,1,1441379870608,1441379871101,313,435,0,0,0,1,2,1,12,0001-00-0005-10.png,0002-00-0008-51.png
00000014,770,0,1441379872627,1441379873163,350,434,0,0,0,2,1,1,21,0002-00-0007-00.png,0001-00-0008-93.png
00000014,771,1,1441379876001,1441379876033,490,421,0,0,0,2,3,1,23,0002-00-0003-50.png,0003-00-0008-26.png
00000014,772,0,1441379877475,1441379877966,878,389,0,0,0,3,4,1,34,0003-00-0002-45.png,0004-00-0003-95.png
00000014,773,0,1441379882418,1441379882858,412,450,0,0,0,4,3,1,43,0004-00-0001-95.png,0003-00-0001-61.png
00000014,774,1,1441379886252,1441379886747,363,424,0,0,0,4,5,1,45,0004-00-0005-06.png,0005-00-0007-28.png
00000014,775,1,1441379888655,1441379889164,874,501,0,0,0,5,4,1,54,0005-00-0003-41.png,0004-00-0001-01.png
00000014,776,1,1441379890686,1441379891142,902,495,0,0,0,3,2,1,32,0003-00-0009-53.png,0002-00-0000-14.png
00000014,777,1,1441379892115,1441379892610,376,436,0,0,0,1,2,1,12,0001-00-0007-19.png,0002-00-0005-32.png
00000014,778,0,1441379893727,1441379894210,347,438,0,0,0,5,4,1,54,0005-00-0002-17.png,0004-00-0001-38.png
00000014,779,0,1441379898250,1441379898645,363,433,0,0,0,3,2,1,32,0003-00-0007-78.png,0002-00-0009-78.png
00000014,780,0,1441379901664,1441379901692,478,401,0,0,0,4,3,1,43,0004-00-0000-89.png,0003-00-0002-37.png
00000014,781,1,1441379905125,1441379905551,376,434,0,0,0,2,3,1,23,0002-00-0007-56.png,0003-00-0004-43.png
00000014,782,1,1441379906996,1441379907448,903,430,0,0,0,2,1,1,21,0002-00-0003-46.png,0001-00-0008-76.png
00000014,783,1,1441379908574,1441379908630,504,514,0,0,0,4,5,1,45,0004-00-0006-01.png,0005-00-0006-98.png
00000014,784,0,1441379909807,1441379910331,874,428,0,0,0,3,4,1,34,0003-00-0008-91.png,0004-00-0008-46.png
00000014,785,1,1441379913641,1441379914069,397,433,0,0,0,2,3,1,23,0002-00-0000-20.png,0003-00-0000-29.png
00000014,786,1,1441379915814,1441379916294,857,540,0,0,0,3,2,1,32,0003-00-0000-11.png,0002-00-0001-56.png
00000014,787,1,1441379917400,1441379917903,364,410,0,0,0,1,2,1,12,0001-00-0007-86.png,0002-00-0006-55.png
00000014,788,1,1441379918879,1441379919380,875,436,0,0,0,2,1,1,21,0002-00-0007-40.png,0001-00-0002-64.png
00000014,789,1,1441379920399,1441379920931,890,486,0,0,0,5,4,1,54,0005-00-0002-11.png,0004-00-0008-19.png
00000014,790,1,1441379921887,1441379921927,501,504,0,0,0,3,4,1,34,0003-00-0000-34.png,0004-00-0008-05.png
00000014,791,1,1441379923023,1441379923545,862,410,0,0,0,4,3,1,43,0004-00-0006-92.png,0003-00-0006-55.png
00000014,792,1,1441379924585,1441379925158,370,452,0,0,0,4,5,1,45,0004-00-0000-13.png,0005-00-0000-56.png
00000014,793,1,1441379926174,1441379926230,506,565,0,0,0,4,5,1,45,0004-00-0004-85.png,0005-00-0007-94.png
00000014,794,1,1441379927327,1441379928347,370,436,0,0,0,1,2,1,12,0001-00-0001-38.png,0002-00-0003-72.png
00000014,795,0,1441379929334,1441379929354,504,462,0,0,0,4,3,1,43,0004-00-0006-33.png,0003-00-0003-19.png
00000014,796,1,1441379932524,1441379932939,347,443,0,0,0,3,4,1,34,0003-00-0002-50.png,0004-00-0005-10.png
00000014,797,1,1441379934533,1441379935008,886,425,0,0,0,3,2,1,32,0003-00-0005-02.png,0002-00-0007-34.png
00000014,798,1,1441379936440,1441379936920,875,411,0,0,0,2,1,1,21,0002-00-0004-44.png,0001-00-0006-84.png
00000014,799,0,1441379938400,1441379938914,885,415,0,0,0,2,3,1,23,0002-00-0003-34.png,0003-00-0009-81.png
00000014,800,1,1441379942524,1441379943018,906,427,0,0,0,5,4,1,54,0005-00-0003-62.png,0004-00-0002-82.png
00000014,801,1,1441379944381,1441379944853,371,405,0,0,0,1,2,1,12,0001-00-0009-06.png,0002-00-0006-70.png
00000014,802,1,1441379945812,1441379946347,900,384,0,0,0,2,1,1,21,0002-00-0009-51.png,0001-00-0003-49.png
00000014,803,0,1441379947323,1441379947842,414,538,0,0,0,5,4,1,54,0005-00-0006-94.png,0004-00-0004-21.png
00000014,804,0,1441379950676,1441379950700,520,384,0,0,0,3,2,1,32,0003-00-0005-43.png,0002-00-0005-29.png
00000014,805,0,1441379954268,1441379954811,903,391,0,0,0,2,3,1,23,0002-00-0007-98.png,0003-00-0003-77.png
00000014,806,1,1441379957697,1441379958243,336,414,0,0,0,4,5,1,45,0004-00-0009-09.png,0005-00-0007-07.png
00000014,807,1,1441379959569,1441379960096,894,397,0,0,0,4,3,1,43,0004-00-0001-35.png,0003-00-0009-67.png
00000014,808,0,1441379961260,1441379962255,869,392,0,0,0,3,4,1,34,0003-00-0005-70.png,0004-00-0008-50.png
00000014,809,0,1441379965380,1441379965873,899,380,0,0,0,3,4,1,34,0003-00-0007-36.png,0004-00-0006-41.png
00000014,810,1,1441379969267,1441379969753,392,508,0,0,0,4,5,1,45,0004-00-0006-55.png,0005-00-0003-28.png
00000014,811,1,1441379970711,1441379971269,862,410,0,0,0,5,4,1,54,0005-00-0008-29.png,0004-00-0003-45.png
00000014,812,0,1441379972287,1441379972311,516,473,0,0,0,4,3,1,43,0004-00-0008-07.png,0003-00-0008-95.png
00000014,813,1,1441379975422,1441379975871,390,528,0,0,0,1,2,1,12,0001-00-0002-51.png,0002-00-0002-11.png
00000014,814,1,1441379976803,1441379976819,504,503,0,0,0,2,3,1,23,0002-00-0001-50.png,0003-00-0002-13.png
00000014,815,1,1441379977784,1441379978789,899,542,0,0,0,2,1,1,21,0002-00-0009-30.png,0001-00-0002-08.png
00000014,816,0,1441379979843,1441379980806,383,420,0,0,0,3,2,1,32,0003-00-0003-17.png,0002-00-0008-08.png
00000014,817,1,1441379984102,1441379984574,902,410,0,0,0,5,4,1,54,0005-00-0009-07.png,0004-00-0006-54.png
00000014,818,0,1441379985537,1441379986105,896,429,0,0,0,1,2,1,12,0001-00-0004-68.png,0002-00-0006-59.png
00000014,819,1,1441379991418,1441379991964,908,479,0,0,0,3,2,1,32,0003-00-0007-62.png,0002-00-0002-03.png
00000014,820,0,1441379993259,1441379993711,875,519,0,0,0,2,3,1,23,0002-00-0009-42.png,0003-00-0002-27.png
00000014,821,1,1441379997215,1441379997647,389,423,0,0,0,3,4,1,34,0003-00-0008-28.png,0004-00-0002-53.png
00000014,822,0,1441379998908,1441379999388,401,410,0,0,0,4,3,1,43,0004-00-0003-25.png,0003-00-0006-82.png
00000014,823,0,1441380002561,1441380003020,927,434,0,0,0,4,5,1,45,0004-00-0005-58.png,0005-00-0006-77.png
00000014,824,0,1441380005858,1441380005898,453,465,0,0,0,2,1,1,21,0002-00-0009-77.png,0001-00-0002-88.png
00000014,825,1,1441380009257,1441380009693,396,409,0,0,0,2,3,1,23,0002-00-0002-15.png,0003-00-0005-97.png
00000014,826,0,1441380011295,1441380011803,299,436,0,0,0,4,3,1,43,0004-00-0006-79.png,0003-00-0009-84.png
00000014,827,1,1441380014854,1441380014874,521,429,0,0,0,1,2,1,12,0001-00-0007-62.png,0002-00-0004-25.png
00000014,828,0,1441380015830,1441380016320,365,459,0,0,0,3,2,1,32,0003-00-0004-21.png,0002-00-0005-73.png
00000014,829,1,1441380019318,1441380019788,388,424,0,0,0,3,4,1,34,0003-00-0000-75.png,0004-00-0002-34.png
00000014,830,0,1441380021285,1441380022253,312,423,0,0,0,2,1,1,21,0002-00-0000-05.png,0001-00-0003-69.png
00000014,831,1,1441380027475,1441380027939,368,414,0,0,0,4,5,1,45,0004-00-0007-63.png,0005-00-0000-64.png
00000014,832,0,1441380029217,1441380029645,442,548,0,0,0,5,4,1,54,0005-00-0003-61.png,0004-00-0000-99.png
00000014,833,1,1441380059093,1441380059599,311,390,0,0,0,4,5,1,45,0004-00-0002-86.png,0005-00-0008-70.png
00000014,834,0,1441380061054,1441380061609,461,483,0,0,0,4,3,1,43,0004-00-0006-46.png,0003-00-0004-04.png
00000014,835,1,1441380065336,1441380065804,337,408,0,0,0,1,2,1,12,0001-00-0006-73.png,0002-00-0000-25.png
00000014,836,1,1441380066996,1441380068010,893,439,0,0,0,2,1,1,21,0002-00-0008-32.png,0001-00-0009-61.png
00000014,837,0,1441380068955,1441380069414,376,414,0,0,0,5,4,1,54,0005-00-0006-85.png,0004-00-0008-14.png
00000014,838,1,1441380072439,1441380072887,409,446,0,0,0,2,3,1,23,0002-00-0005-70.png,0003-00-0008-17.png
00000014,839,1,1441380074272,1441380074770,901,461,0,0,0,3,2,1,32,0003-00-0004-60.png,0002-00-0001-92.png
00000014,840,1,1441380075749,1441380075769,513,459,0,0,0,3,4,1,34,0003-00-0009-87.png,0004-00-0008-20.png
00000014,841,1,1441380076773,1441380077202,358,436,0,0,0,4,5,1,45,0004-00-0000-47.png,0005-00-0001-73.png
00000014,842,0,1441380078093,1441380078655,875,501,0,0,0,1,2,1,12,0001-00-0004-85.png,0002-00-0004-57.png
00000014,843,1,1441380084888,1441380085359,929,404,0,0,0,3,2,1,32,0003-00-0003-22.png,0002-00-0002-09.png
00000014,844,1,1441380086578,1441380087020,359,417,0,0,0,2,3,1,23,0002-00-0002-53.png,0003-00-0006-08.png
00000014,845,0,1441380088015,1441380088603,444,534,0,0,0,4,3,1,43,0004-00-0006-29.png,0003-00-0005-61.png
00000014,846,0,1441380093173,1441380093664,427,399,0,0,0,5,4,1,54,0005-00-0009-50.png,0004-00-0001-16.png
00000014,847,0,1441380099229,1441380099685,901,435,0,0,0,3,4,1,34,0003-00-0001-00.png,0004-00-0004-49.png
00000014,848,1,1441380102966,1441380103481,920,505,0,0,0,2,1,1,21,0002-00-0006-61.png,0001-00-0006-55.png
00000014,849,1,1441380104326,1441380104818,340,436,0,0,0,1,2,1,12,0001-00-0006-80.png,0002-00-0000-99.png
00000014,850,1,1441380106062,1441380106529,860,492,0,0,0,5,4,1,54,0005-00-0007-76.png,0004-00-0001-49.png
00000014,851,1,1441380107385,1441380107898,376,423,0,0,0,4,5,1,45,0004-00-0004-98.png,0005-00-0004-04.png
00000014,852,0,1441380108888,1441380109396,864,510,0,0,0,2,3,1,23,0002-00-0002-25.png,0003-00-0007-75.png
00000014,853,0,1441380112339,1441380112863,370,400,0,0,0,4,3,1,43,0004-00-0007-88.png,0003-00-0003-46.png
00000014,854,1,1441380116774,1441380117912,871,366,0,0,0,2,1,1,21,0002-00-0009-04.png,0001-00-0008-21.png
00000014,855,0,1441380118820,1441380128209,392,375,0,0,0,3,2,1,32,0003-00-0000-74.png,0002-00-0004-15.png
00000014,856,1,1441380133008,1441380133422,376,421,0,0,0,3,4,1,34,0003-00-0008-71.png,0004-00-0008-76.png
00000014,857,1,1441380134520,1441380135602,863,542,0,0,0,5,4,1,54,0005-00-0002-74.png,0004-00-0008-83.png
00000014,858,1,1441380136497,1441380136993,331,448,0,0,0,1,2,1,12,0001-00-0004-72.png,0002-00-0006-16.png
00000014,859,1,1441380137849,1441380138348,350,424,0,0,0,3,4,1,34,0003-00-0008-62.png,0004-00-0007-31.png
00000014,860,1,1441380139219,1441380139231,504,449,0,0,0,2,3,1,23,0002-00-0006-76.png,0003-00-0009-80.png
00000014,861,1,1441380140134,1441380140639,864,458,0,0,0,4,3,1,43,0004-00-0009-42.png,0003-00-0008-81.png
00000014,862,0,1441380141845,1441380142295,361,425,0,0,0,3,2,1,32,0003-00-0003-89.png,0002-00-0006-44.png
00000014,863,1,1441380149419,1441380149875,362,384,0,0,0,4,5,1,45,0004-00-0007-54.png,0005-00-0002-41.png
00000014,864,0,1441380151147,1441380151594,442,365,0,0,0,2,1,1,21,0002-00-0003-89.png,0001-00-0009-18.png
00000014,865,1,1441380154818,1441380155273,373,418,0,0,0,3,4,1,34,0003-00-0004-18.png,0004-00-0004-05.png
00000014,866,0,1441380156203,1441380156725,903,429,0,0,0,4,5,1,45,0004-00-0001-82.png,0005-00-0009-73.png
00000014,867,1,1441380162382,1441380162856,314,415,0,0,0,1,2,1,12,0001-00-0007-98.png,0002-00-0009-98.png
00000014,868,1,1441380163892,1441380164830,289,416,0,0,0,2,3,1,23,0002-00-0007-61.png,0003-00-0007-58.png
00000014,869,1,1441380165999,1441380166479,911,514,0,0,0,5,4,1,54,0005-00-0002-58.png,0004-00-0008-76.png
00000014,870,1,1441380167725,1441380168223,875,510,0,0,0,2,1,1,21,0002-00-0009-93.png,0001-00-0000-67.png
00000014,871,0,1441380169415,1441380169869,443,533,0,0,0,3,2,1,32,0003-00-0006-89.png,0002-00-0003-07.png
00000014,872,1,1441380175131,1441380175598,900,475,0,0,0,4,3,1,43,0004-00-0008-93.png,0003-00-0004-11.png
00000014,873,0,1441380176837,1441380177355,335,464,0,0,0,3,2,1,32,0003-00-0002-31.png,0002-00-0008-30.png
00000014,874,0,1441380180378,1441380180414,504,436,0,0,0,5,4,1,54,0005-00-0002-74.png,0004-00-0003-74.png
00000014,875,0,1441380183679,1441380184132,886,517,0,0,0,2,3,1,23,0002-00-0001-84.png,0003-00-0000-13.png
00000014,876,0,1441380186982,1441380187453,906,456,0,0,0,1,2,1,12,0001-00-0003-56.png,0002-00-0002-52.png
00000014,877,0,1441380190635,1441380191021,376,410,0,0,0,2,1,1,21,0002-00-0005-02.png,0001-00-0009-24.png
00000014,878,0,1441380195534,1441380196017,899,404,0,0,0,3,4,1,34,0003-00-0005-78.png,0004-00-0005-90.png
00000014,879,0,1441380199193,1441380199667,339,469,0,0,0,4,3,1,43,0004-00-0007-81.png,0003-00-0004-16.png
00000014,880,1,1441380202719,1441380203212,396,504,0,0,0,4,5,1,45,0004-00-0001-25.png,0005-00-0006-36.png
00000014,881,1,1441380204154,1441380204717,888,475,0,0,0,5,4,1,54,0005-00-0007-46.png,0004-00-0000-08.png
00000014,882,1,1441380205560,1441380206088,875,409,0,0,0,3,2,1,32,0003-00-0005-08.png,0002-00-0005-97.png
00000014,883,1,1441380206932,1441380207481,331,442,0,0,0,4,5,1,45,0004-00-0001-56.png,0005-00-0004-41.png
00000014,884,1,1441380208331,1441380208882,399,387,0,0,0,3,4,1,34,0003-00-0002-55.png,0004-00-0003-32.png
00000014,885,1,1441380210142,1441380210640,859,430,0,0,0,2,1,1,21,0002-00-0002-82.png,0001-00-0002-47.png
00000014,886,1,1441380211971,1441380212362,342,418,0,0,0,2,3,1,23,0002-00-0009-08.png,0003-00-0009-46.png
00000014,887,0,1441380213210,1441380213740,875,417,0,0,0,1,2,1,12,0001-00-0007-27.png,0002-00-0003-65.png
00000014,888,0,1441380216719,1441380216751,504,473,0,0,0,4,3,1,43,0004-00-0006-36.png,0003-00-0008-68.png
00000014,889,1,1441380219973,1441380220862,922,417,0,0,0,2,1,1,21,0002-00-0008-08.png,0001-00-0009-44.png
00000014,890,0,1441380221770,1441380221778,490,504,0,0,0,3,2,1,32,0003-00-0000-59.png,0002-00-0001-50.png
00000014,891,1,1441380225079,1441380225520,350,410,0,0,0,3,4,1,34,0003-00-0000-37.png,0004-00-0005-56.png
00000014,892,0,1441380226411,1441380226938,903,440,0,0,0,2,3,1,23,0002-00-0002-31.png,0003-00-0000-31.png
00000014,893,1,1441380230820,1441380231272,407,437,0,0,0,4,5,1,45,0004-00-0009-75.png,0005-00-0006-14.png
00000014,894,0,1441380232505,1441380232987,874,424,0,0,0,1,2,1,12,0001-00-0000-95.png,0002-00-0003-94.png
00000014,895,1,1441380236746,1441380237257,913,460,0,0,0,4,3,1,43,0004-00-0002-73.png,0003-00-0007-12.png
00000014,896,1,1441380239838,1441380240412,923,434,0,0,0,5,4,1,54,0005-00-0003-15.png,0004-00-0000-39.png
00000014,897,1,1441380241784,1441380242776,294,394,0,0,0,4,5,1,45,0004-00-0004-95.png,0005-00-0004-07.png
00000014,898,0,1441380244448,1441380245011,908,515,0,0,0,1,2,1,12,0001-00-0007-29.png,0002-00-0003-46.png
00000014,899,0,1441380247846,1441380248259,337,461,0,0,0,3,2,1,32,0003-00-0004-59.png,0002-00-0007-58.png
00000014,900,1,1441380251369,1441380251888,384,410,0,0,0,3,4,1,34,0003-00-0005-87.png,0004-00-0001-58.png
00000014,901,1,1441380255008,1441380255487,350,436,0,0,0,2,3,1,23,0002-00-0005-85.png,0003-00-0006-63.png
00000014,902,0,1441380256429,1441380256914,369,443,0,0,0,2,1,1,21,0002-00-0002-55.png,0001-00-0006-30.png
00000014,903,1,1441380259782,1441380260477,911,398,0,0,0,5,4,1,54,0005-00-0006-06.png,0004-00-0009-07.png
00000014,904,1,1441380264238,1441380264760,899,430,0,0,0,4,3,1,43,0004-00-0002-07.png,0003-00-0002-75.png
00000014,905,1,1441380266665,1441380267165,327,400,0,0,0,4,5,1,45,0004-00-0003-06.png,0005-00-0009-35.png
00000014,906,0,1441380268832,1441380269339,875,443,0,0,0,2,3,1,23,0002-00-0007-14.png,0003-00-0003-18.png
00000014,907,0,1441380272528,1441380273599,318,443,0,0,0,4,3,1,43,0004-00-0006-93.png,0003-00-0004-82.png
00000014,908,0,1441380276491,1441380276515,502,404,0,0,0,5,4,1,54,0005-00-0000-33.png,0004-00-0007-21.png
00000014,909,1,1441380282351,1441380282744,896,524,0,0,0,2,1,1,21,0002-00-0003-39.png,0001-00-0002-64.png
00000014,910,0,1441380284257,1441380285220,876,542,0,0,0,1,2,1,12,0001-00-0005-29.png,0002-00-0007-65.png
00000014,911,1,1441380288804,1441380288884,504,541,0,0,0,3,4,1,34,0003-00-0003-54.png,0004-00-0003-57.png
00000014,912,0,1441380289993,1441380290473,375,412,0,0,0,3,2,1,32,0003-00-0004-71.png,0002-00-0007-46.png
00000014,913,1,1441380294161,1441380294651,905,427,0,0,0,4,3,1,43,0004-00-0005-38.png,0003-00-0007-69.png
00000014,914,1,1441380295835,1441380296322,350,407,0,0,0,3,4,1,34,0003-00-0005-28.png,0004-00-0001-75.png
00000014,915,0,1441380297547,1441380298033,443,363,0,0,0,3,2,1,32,0003-00-0006-74.png,0002-00-0005-75.png
00000014,916,0,1441380301456,1441380301877,371,413,0,0,0,2,1,1,21,0002-00-0005-37.png,0001-00-0002-43.png
00000014,917,1,1441380305051,1441380305460,414,443,0,0,0,2,3,1,23,0002-00-0001-57.png,0003-00-0003-96.png
00000014,918,0,1441380306518,1441380307028,902,415,0,0,0,1,2,1,12,0001-00-0007-75.png,0002-00-0004-04.png
00000014,919,1,1441380310627,1441380311586,416,541,0,0,0,4,5,1,45,0004-00-0007-51.png,0005-00-0001-07.png
00000014,920,0,1441380312452,1441380313288,478,423,0,0,0,5,4,1,54,0005-00-0003-31.png,0004-00-0009-96.png
00000014,921,1,1441380316302,1441380316322,502,493,0,0,0,4,5,1,45,0004-00-0003-43.png,0005-00-0009-34.png
00000014,922,1,1441380317494,1441380317936,388,423,0,0,0,1,2,1,12,0001-00-0004-12.png,0002-00-0002-46.png
00000014,923,0,1441380318791,1441380319279,899,412,0,0,0,3,4,1,34,0003-00-0007-83.png,0004-00-0000-63.png
00000014,924,1,1441380324024,1441380324453,424,425,0,0,0,2,3,1,23,0002-00-0008-81.png,0003-00-0002-69.png
00000014,925,1,1441380325616,1441380326066,905,401,0,0,0,3,2,1,32,0003-00-0009-11.png,0002-00-0002-05.png
00000014,926,0,1441380327026,1441380327561,360,423,0,0,0,5,4,1,54,0005-00-0002-29.png,0004-00-0005-40.png
00000014,927,0,1441380331269,1441380331697,337,412,0,0,0,2,1,1,21,0002-00-0008-80.png,0001-00-0003-04.png
00000014,928,0,1441380334674,1441380334714,504,342,0,0,0,4,3,1,43,0004-00-0007-13.png,0003-00-0008-66.png
00000014,929,0,1441380337685,1441380338190,311,398,0,0,0,5,4,1,54,0005-00-0002-71.png,0004-00-0008-38.png
00000014,930,0,1441380341793,1441380342198,340,423,0,0,0,4,3,1,43,0004-00-0008-46.png,0003-00-0006-48.png
00000014,931,0,1441380345180,1441380346493,864,348,0,0,0,2,3,1,23,0002-00-0009-92.png,0003-00-0004-78.png
00000014,932,0,1441380349702,1441380350189,917,417,0,0,0,1,2,1,12,0001-00-0007-55.png,0002-00-0007-21.png
00000014,933,0,1441380353280,1441380353668,387,423,0,0,0,2,1,1,21,0002-00-0009-82.png,0001-00-0009-64.png
00000014,934,0,1441380356623,1441380356650,510,414,0,0,0,3,2,1,32,0003-00-0003-54.png,0002-00-0003-60.png
00000014,935,1,1441380359828,1441380360316,384,519,0,0,0,3,4,1,34,0003-00-0001-26.png,0004-00-0000-17.png
00000014,936,0,1441380361193,1441380361723,865,453,0,0,0,4,5,1,45,0004-00-0009-16.png,0005-00-0007-09.png
00000014,937,0,1441380364829,1441380365254,325,358,0,0,0,4,3,1,43,0004-00-0008-47.png,0003-00-0009-90.png
00000014,938,1,1441380368245,1441380368681,937,398,0,0,0,5,4,1,54,0005-00-0007-69.png,0004-00-0004-71.png
00000014,939,1,1441380369858,1441380370337,421,461,0,0,0,4,5,1,45,0004-00-0005-37.png,0005-00-0008-64.png
00000014,940,1,1441380371651,1441380372164,362,413,0,0,0,2,3,1,23,0002-00-0008-20.png,0003-00-0004-60.png
00000014,941,0,1441380373586,1441380374029,444,519,0,0,0,3,2,1,32,0003-00-0003-02.png,0002-00-0000-26.png
00000014,942,0,1441380377055,1441380377518,319,368,0,0,0,2,1,1,21,0002-00-0006-54.png,0001-00-0000-19.png
