subject_id,trial,correct_response,stim_time,response_time,x_coord,y_coord,trial_timeout,timeout_time,interTrial_timeout,left_rank,right_rank,distance,joint_rank,left_image,right_image
00000014,1,0,1442420827534,1442420827965,351,489,0,0,0,4,3,1,43,0004-00-0001-02.png,0003-00-0005-63.png
00000014,2,1,1442420831098,1442420831560,874,384,0,0,0,5,4,1,54,0005-00-0002-99.png,0004-00-0005-17.png
00000014,3,1,1442420832520,1442420832918,361,402,0,0,0,1,2,1,12,0001-00-0008-79.png,0002-00-0004-67.png
00000014,4,1,1442420833903,1442420834420,951,411,0,0,0,2,1,1,21,0002-00-0009-65.png,0001-00-0000-22.png
00000014,5,1,1442420835332,1442420835790,406,472,0,0,0,2,3,1,23,0002-00-0009-00.png,0003-00-0002-21.png
00000014,6,1,1442420836903,1442420837372,912,502,0,0,0,3,2,1,32,0003-00-0004-98.png,0002-00-0005-68.png
00000014,7,1,1442420838322,1442420838713,369,383,0,0,0,3,4,1,34,0003-00-0008-47.png,0004-00-0003-59.png
00000014,8,1,1442420840253,1442420840678,432,540,0,0,0,4,5,1,45,0004-00-0009-04.png,0005-00-0001-02.png
00000014,9,1,1442420841576,1442420841968,382,480,0,0,0,1,2,1,12,0001-00-0008-37.png,0002-00-0003-25.png
00000014,10,0,1442420844121,1442420844524,365,437,0,0,0,5,4,1,54,0005-00-0000-77.png,0004-00-0002-44.png
00000014,11,0,1442420847450,1442420847843,381,371,0,0,0,4,3,1,43,0004-00-0008-03.png,0003-00-0001-43.png
00000014,12,1,1442420850778,1442420851228,356,430,0,0,0,3,4,1,34,0003-00-0008-14.png,0004-00-0007-72.png
00000014,13,1,1442420852230,1442420852696,389,505,0,0,0,4,5,1,45,0004-00-0002-17.png,0005-00-0000-98.png
00000014,14,0,1442420853636,1442420854115,339,417,0,0,0,2,1,1,21,0002-00-0004-24.png,0001-00-0005-37.png
00000014,15,1,1442420857159,1442420857631,328,375,0,0,0,2,3,1,23,0002-00-0003-97.png,0003-00-0001-02.png
00000014,16,1,1442420858598,1442420859060,926,412,0,0,0,3,2,1,32,0003-00-0007-24.png,0002-00-0003-21.png
00000014,17,1,1442420860021,1442420860455,359,414,0,0,0,3,4,1,34,0003-00-0002-20.png,0004-00-0009-88.png
00000014,18,0,1442420861430,1442420861920,361,422,0,0,0,2,1,1,21,0002-00-0006-03.png,0001-00-0003-29.png
00000014,19,1,1442420864990,1442420865515,926,410,0,0,0,5,4,1,54,0005-00-0004-91.png,0004-00-0009-25.png
00000014,20,0,1442420866483,1442420867149,876,412,0,0,0,2,3,1,23,0002-00-0002-15.png,0003-00-0005-54.png
00000014,21,0,1442420870081,1442420870484,401,410,0,0,0,4,3,1,43,0004-00-0004-73.png,0003-00-0009-49.png
00000014,22,1,1442420873391,1442420873821,369,389,0,0,0,4,5,1,45,0004-00-0003-16.png,0005-00-0003-48.png
00000014,23,0,1442420874817,1442420875375,913,388,0,0,0,1,2,1,12,0001-00-0007-30.png,0002-00-0006-92.png
00000014,24,0,1442420878488,1442420878949,350,422,0,0,0,3,2,1,32,0003-00-0007-16.png,0002-00-0005-38.png
00000014,25,1,1442420881876,1442420882311,334,397,0,0,0,1,2,1,12,0001-00-0000-51.png,0002-00-0003-22.png
00000014,26,1,1442420883278,1442420883737,339,410,0,0,0,4,5,1,45,0004-00-0005-66.png,0005-00-0004-74.png
00000014,27,0,1442420884718,1442420885223,374,527,0,0,0,5,4,1,54,0005-00-0006-25.png,0004-00-0002-85.png
00000014,28,0,1442420889043,1442420889486,319,424,0,0,0,3,2,1,32,0003-00-0004-29.png,0002-00-0004-95.png
00000014,29,0,1442420893745,1442420894228,894,482,0,0,0,2,3,1,23,0002-00-0006-74.png,0003-00-0001-26.png
00000014,30,1,1442420897090,1442420897126,494,370,0,0,0,3,4,1,34,0003-00-0007-71.png,0004-00-0009-68.png
00000014,31,1,1442420898106,1442420898663,879,400,0,0,0,4,3,1,43,0004-00-0005-54.png,0003-00-0001-56.png
00000014,32,1,1442420899673,1442420900184,937,398,0,0,0,2,1,1,21,0002-00-0007-21.png,0001-00-0007-49.png
00000014,33,1,1442420901168,1442420902245,937,397,0,0,0,3,2,1,32,0003-00-0005-56.png,0002-00-0001-35.png
00000014,34,0,1442420903265,1442420903772,350,398,0,0,0,4,3,1,43,0004-00-0003-99.png,0003-00-0005-97.png
00000014,35,1,1442420906972,1442420907409,387,423,0,0,0,4,5,1,45,0004-00-0006-43.png,0005-00-0006-46.png
00000014,36,0,1442420908453,1442420908953,886,476,0,0,0,3,4,1,34,0003-00-0005-08.png,0004-00-0005-81.png
00000014,37,0,1442420912011,1442420912522,351,436,0,0,0,5,4,1,54,0005-00-0000-83.png,0004-00-0001-83.png
00000014,38,1,1442420915509,1442420916017,952,397,0,0,0,2,1,1,21,0002-00-0009-43.png,0001-00-0007-77.png
00000014,39,0,1442420917061,1442420917593,875,476,0,0,0,2,3,1,23,0002-00-0007-15.png,0003-00-0007-56.png
00000014,40,0,1442420920670,1442420921193,888,475,0,0,0,1,2,1,12,0001-00-0007-17.png,0002-00-0001-50.png
00000014,41,1,1442420924147,1442420926049,419,402,0,0,0,4,5,1,45,0004-00-0000-87.png,0005-00-0001-67.png
00000014,42,0,1442420927211,1442420927745,874,387,0,0,0,1,2,1,12,0001-00-0003-10.png,0002-00-0007-90.png
00000014,43,0,1442420930847,1442420931334,421,438,0,0,0,4,3,1,43,0004-00-0008-63.png,0003-00-0004-24.png
00000014,44,1,1442420934414,1442420934854,926,398,0,0,0,3,2,1,32,0003-00-0002-23.png,0002-00-0008-18.png
00000014,45,0,1442420935862,1442420936383,919,457,0,0,0,2,3,1,23,0002-00-0001-15.png,0003-00-0003-86.png
00000014,46,0,1442420939231,1442420939739,318,412,0,0,0,5,4,1,54,0005-00-0004-74.png,0004-00-0003-10.png
00000014,47,1,1442420942794,1442420943297,405,452,0,0,0,3,4,1,34,0003-00-0005-61.png,0004-00-0002-08.png
00000014,48,1,1442420944303,1442420944842,901,398,0,0,0,2,1,1,21,0002-00-0003-75.png,0001-00-0001-68.png
00000014,49,1,1442420945842,1442420946335,366,398,0,0,0,2,3,1,23,0002-00-0009-66.png,0003-00-0009-98.png
00000014,50,0,1442420947365,1442420947859,331,403,0,0,0,3,2,1,32,0003-00-0005-17.png,0002-00-0000-60.png
00000014,51,1,1442420950802,1442420951317,348,432,0,0,0,4,5,1,45,0004-00-0003-25.png,0005-00-0007-26.png
00000014,52,0,1442420952442,1442420952916,376,398,0,0,0,4,3,1,43,0004-00-0004-49.png,0003-00-0004-94.png
00000014,53,0,1442420956042,1442420956612,307,424,0,0,0,5,4,1,54,0005-00-0004-07.png,0004-00-0004-85.png
00000014,54,1,1442420959659,1442420959679,520,457,0,0,0,1,2,1,12,0001-00-0002-21.png,0002-00-0000-35.png
00000014,55,1,1442420960683,1442420961181,409,512,0,0,0,3,4,1,34,0003-00-0007-14.png,0004-00-0009-72.png
00000014,56,1,1442420962202,1442420962782,872,482,0,0,0,2,1,1,21,0002-00-0000-05.png,0001-00-0004-24.png
00000014,57,1,1442420963773,1442420964297,370,387,0,0,0,2,3,1,23,0002-00-0005-78.png,0003-00-0009-02.png
00000014,58,1,1442420965390,1442420965879,350,397,0,0,0,4,5,1,45,0004-00-0008-25.png,0005-00-0000-36.png
00000014,59,0,1442420966954,1442420967431,376,397,0,0,0,4,3,1,43,0004-00-0000-59.png,0003-00-0009-30.png
00000014,60,1,1442420970345,1442420970838,946,418,0,0,0,5,4,1,54,0005-00-0006-71.png,0004-00-0000-66.png
00000014,61,1,1442420971881,1442420972419,872,483,0,0,0,3,2,1,32,0003-00-0009-80.png,0002-00-0003-70.png
00000014,62,1,1442420973552,1442420974047,902,391,0,0,0,2,1,1,21,0002-00-0004-63.png,0001-00-0001-89.png
00000014,63,1,1442420975114,1442420975654,358,419,0,0,0,1,2,1,12,0001-00-0006-04.png,0002-00-0003-90.png
00000014,64,0,1442420976774,1442420977311,881,504,0,0,0,3,4,1,34,0003-00-0002-26.png,0004-00-0002-02.png
00000014,65,0,1442420980122,1442420980707,903,417,0,0,0,1,2,1,12,0001-00-0004-49.png,0002-00-0008-75.png
00000014,66,1,1442420983633,1442420984194,891,408,0,0,0,2,1,1,21,0002-00-0006-45.png,0001-00-0000-71.png
00000014,67,1,1442420985222,1442420985706,419,428,0,0,0,2,3,1,23,0002-00-0000-34.png,0003-00-0009-01.png
00000014,68,1,1442420986733,1442420987268,369,403,0,0,0,4,5,1,45,0004-00-0005-24.png,0005-00-0001-54.png
00000014,69,1,1442420988283,1442420988797,899,397,0,0,0,5,4,1,54,0005-00-0000-05.png,0004-00-0003-18.png
00000014,70,1,1442420989844,1442420990357,875,371,0,0,0,4,3,1,43,0004-00-0007-76.png,0003-00-0008-75.png
00000014,71,1,1442420991472,1442420992004,879,376,0,0,0,3,2,1,32,0003-00-0006-34.png,0002-00-0000-42.png
00000014,72,0,1442420993183,1442420993746,888,461,0,0,0,3,4,1,34,0003-00-0007-98.png,0004-00-0005-91.png
00000014,73,1,1442420996663,1442420997115,339,397,0,0,0,3,4,1,34,0003-00-0006-91.png,0004-00-0009-11.png
00000014,74,0,1442420998155,1442420998656,343,395,0,0,0,3,2,1,32,0003-00-0002-85.png,0002-00-0009-93.png
00000014,75,0,1442421001593,1442421002072,376,424,0,0,0,4,3,1,43,0004-00-0005-25.png,0003-00-0006-18.png
00000014,76,0,1442421004981,1442421006013,386,416,0,0,0,5,4,1,54,0005-00-0005-06.png,0004-00-0001-13.png
00000014,77,1,1442421009076,1442421009560,325,423,0,0,0,1,2,1,12,0001-00-0007-94.png,0002-00-0006-52.png
00000014,78,0,1442421010516,1442421011053,902,386,0,0,0,4,5,1,45,0004-00-0005-89.png,0005-00-0001-12.png
00000014,79,1,1442421013935,1442421013959,518,395,0,0,0,2,3,1,23,0002-00-0000-82.png,0003-00-0005-18.png
00000014,80,0,1442421015077,1442421015570,320,383,0,0,0,2,1,1,21,0002-00-0004-03.png,0001-00-0001-55.png
00000014,81,0,1442421018435,1442421018929,397,417,0,0,0,4,3,1,43,0004-00-0000-01.png,0003-00-0002-68.png
00000014,82,0,1442421021885,1442421021905,520,415,0,0,0,5,4,1,54,0005-00-0004-04.png,0004-00-0007-71.png
00000014,83,1,1442421025467,1442421025891,376,371,0,0,0,1,2,1,12,0001-00-0007-41.png,0002-00-0007-21.png
00000014,84,1,1442421026856,1442421027385,395,415,0,0,0,4,5,1,45,0004-00-0005-05.png,0005-00-0006-64.png
00000014,85,0,1442421028435,1442421028919,903,390,0,0,0,3,4,1,34,0003-00-0005-60.png,0004-00-0006-62.png
00000014,86,1,1442421031784,1442421032281,385,419,0,0,0,2,3,1,23,0002-00-0005-06.png,0003-00-0008-49.png
00000014,87,1,1442421033337,1442421033851,899,358,0,0,0,2,1,1,21,0002-00-0007-25.png,0001-00-0001-23.png
00000014,88,1,1442421034876,1442421035373,912,372,0,0,0,3,2,1,32,0003-00-0007-70.png,0002-00-0006-36.png
00000014,89,1,1442421036427,1442421036994,916,389,0,0,0,3,2,1,32,0003-00-0001-72.png,0002-00-0001-34.png
00000014,90,0,1442421038089,1442421038603,363,394,0,0,0,4,3,1,43,0004-00-0003-99.png,0003-00-0008-06.png
00000014,91,1,1442421041477,1442421042017,369,420,0,0,0,4,5,1,45,0004-00-0006-28.png,0005-00-0006-19.png
00000014,92,0,1442421042998,1442421043524,901,410,0,0,0,3,4,1,34,0003-00-0001-55.png,0004-00-0004-49.png
00000014,93,0,1442421046382,1442421046434,515,413,0,0,0,2,1,1,21,0002-00-0009-97.png,0001-00-0005-54.png
00000014,94,1,1442421049265,1442421049704,360,379,0,0,0,2,3,1,23,0002-00-0004-52.png,0003-00-0004-62.png
00000014,95,1,1442421050741,1442421051732,389,384,0,0,0,1,2,1,12,0001-00-0004-66.png,0002-00-0001-90.png
00000014,96,1,1442421052757,1442421053311,901,397,0,0,0,5,4,1,54,0005-00-0004-43.png,0004-00-0006-73.png
00000014,97,0,1442421054368,1442421054878,924,386,0,0,0,4,5,1,45,0004-00-0003-63.png,0005-00-0002-66.png
00000014,98,0,1442421057833,1442421058417,320,368,0,0,0,5,4,1,54,0005-00-0009-69.png,0004-00-0002-41.png
00000014,99,1,1442421061533,1442421062016,937,398,0,0,0,3,2,1,32,0003-00-0005-50.png,0002-00-0003-33.png
00000014,100,1,1442421063063,1442421063589,905,427,0,0,0,2,1,1,21,0002-00-0005-02.png,0001-00-0005-86.png
00000014,101,1,1442421064765,1442421065306,357,398,0,0,0,2,3,1,23,0002-00-0000-20.png,0003-00-0006-94.png
00000014,102,0,1442421066350,1442421067036,304,410,0,0,0,4,3,1,43,0004-00-0000-90.png,0003-00-0006-55.png
00000014,103,1,1442421070081,1442421070560,376,398,0,0,0,1,2,1,12,0001-00-0006-53.png,0002-00-0003-15.png
00000014,104,1,1442421071684,1442421072188,429,419,0,0,0,3,4,1,34,0003-00-0006-73.png,0004-00-0004-21.png
00000014,105,1,1442421073293,1442421073800,348,408,0,0,0,2,3,1,23,0002-00-0002-38.png,0003-00-0004-60.png
00000014,106,1,1442421074861,1442421075399,341,398,0,0,0,3,4,1,34,0003-00-0008-39.png,0004-00-0007-42.png
00000014,107,0,1442421076454,1442421077426,325,370,0,0,0,4,3,1,43,0004-00-0004-80.png,0003-00-0006-48.png
00000014,108,0,1442421080648,1442421081134,376,462,0,0,0,5,4,1,54,0005-00-0004-67.png,0004-00-0000-53.png
00000014,109,1,1442421084176,1442421084699,418,416,0,0,0,4,5,1,45,0004-00-0008-07.png,0005-00-0001-01.png
00000014,110,1,1442421085786,1442421086328,882,436,0,0,0,3,2,1,32,0003-00-0005-62.png,0002-00-0000-09.png
00000014,111,0,1442421087436,1442421087930,875,383,0,0,0,1,2,1,12,0001-00-0004-17.png,0002-00-0001-75.png
00000014,112,0,1442421090964,1442421091439,413,398,0,0,0,2,1,1,21,0002-00-0001-61.png,0001-00-0008-90.png
00000014,113,1,1442421094522,1442421095036,375,384,0,0,0,2,3,1,23,0002-00-0007-28.png,0003-00-0009-62.png
00000014,114,0,1442421096073,1442421096606,888,423,0,0,0,3,4,1,34,0003-00-0004-54.png,0004-00-0009-94.png
00000014,115,1,1442421099671,1442421100231,361,442,0,0,0,4,5,1,45,0004-00-0006-81.png,0005-00-0004-77.png
00000014,116,1,1442421101291,1442421101864,862,475,0,0,0,3,2,1,32,0003-00-0002-79.png,0002-00-0009-22.png
00000014,117,1,1442421102990,1442421103534,926,384,0,0,0,4,3,1,43,0004-00-0008-58.png,0003-00-0001-84.png
00000014,118,0,1442421104551,1442421105118,880,401,0,0,0,1,2,1,12,0001-00-0005-02.png,0002-00-0008-31.png
00000014,119,0,1442421108070,1442421108581,319,386,0,0,0,2,1,1,21,0002-00-0000-99.png,0001-00-0006-09.png
00000014,120,1,1442421111629,1442421112155,874,437,0,0,0,5,4,1,54,0005-00-0005-74.png,0004-00-0004-85.png
00000014,121,1,1442421113328,1442421113819,311,397,0,0,0,1,2,1,12,0001-00-0008-75.png,0002-00-0004-46.png
00000014,122,0,1442421114867,1442421115428,880,365,0,0,0,2,3,1,23,0002-00-0002-55.png,0003-00-0007-55.png
00000014,123,1,1442421118556,1442421119011,926,383,0,0,0,4,3,1,43,0004-00-0001-26.png,0003-00-0003-97.png
00000014,124,1,1442421120016,1442421120541,376,437,0,0,0,4,5,1,45,0004-00-0008-24.png,0005-00-0006-50.png
00000014,125,1,1442421121626,1442421122151,900,384,0,0,0,5,4,1,54,0005-00-0005-71.png,0004-00-0005-88.png
00000014,126,0,1442421123199,1442421123736,350,378,0,0,0,3,2,1,32,0003-00-0006-02.png,0002-00-0006-18.png
00000014,127,0,1442421126913,1442421127445,899,435,0,0,0,3,4,1,34,0003-00-0000-57.png,0004-00-0007-60.png
00000014,128,0,1442421130456,1442421130975,376,371,0,0,0,2,1,1,21,0002-00-0005-16.png,0001-00-0000-28.png
00000014,129,0,1442421134387,1442421134884,377,358,0,0,0,2,1,1,21,0002-00-0000-70.png,0001-00-0005-07.png
00000014,130,1,1442421137834,1442421137883,514,486,0,0,0,3,4,1,34,0003-00-0001-72.png,0004-00-0004-76.png
00000014,131,0,1442421138898,1442421139502,919,391,0,0,0,1,2,1,12,0001-00-0006-95.png,0002-00-0000-74.png
00000014,132,0,1442421142584,1442421143033,373,430,0,0,0,4,3,1,43,0004-00-0009-39.png,0003-00-0001-19.png
00000014,133,0,1442421145899,1442421146465,886,430,0,0,0,2,3,1,23,0002-00-0007-16.png,0003-00-0006-62.png
00000014,134,1,1442421149503,1442421149988,376,384,0,0,0,4,5,1,45,0004-00-0005-73.png,0005-00-0004-14.png
00000014,135,1,1442421151003,1442421151525,926,384,0,0,0,3,2,1,32,0003-00-0006-30.png,0002-00-0009-91.png
00000014,136,1,1442421152941,1442421153557,928,360,0,0,0,5,4,1,54,0005-00-0000-64.png,0004-00-0003-79.png
00000014,137,1,1442421154562,1442421155076,896,472,0,0,0,5,4,1,54,0005-00-0009-10.png,0004-00-0002-92.png
00000014,138,1,1442421156084,1442421156636,273,501,0,0,0,4,5,1,45,0004-00-0001-84.png,0005-00-0006-43.png
00000014,139,1,1442421157663,1442421158151,338,416,0,0,0,2,3,1,23,0002-00-0004-28.png,0003-00-0006-98.png
00000014,140,1,1442421159253,1442421159749,872,509,0,0,0,3,2,1,32,0003-00-0009-31.png,0002-00-0003-59.png
00000014,141,1,1442421160885,1442421161427,365,392,0,0,0,3,4,1,34,0003-00-0002-98.png,0004-00-0007-80.png
00000014,142,1,1442421162882,1442421163354,901,398,0,0,0,2,1,1,21,0002-00-0003-67.png,0001-00-0005-27.png
00000014,143,1,1442421164432,1442421164927,344,411,0,0,0,1,2,1,12,0001-00-0001-65.png,0002-00-0009-84.png
00000014,144,0,1442421166112,1442421166580,351,403,0,0,0,4,3,1,43,0004-00-0005-36.png,0003-00-0009-43.png
00000014,145,1,1442421169631,1442421170119,344,410,0,0,0,1,2,1,12,0001-00-0001-01.png,0002-00-0002-61.png
00000014,146,1,1442421171142,1442421171683,888,398,0,0,0,5,4,1,54,0005-00-0002-97.png,0004-00-0005-82.png
00000014,147,1,1442421172752,1442421173345,873,491,0,0,0,3,2,1,32,0003-00-0004-69.png,0002-00-0008-03.png
00000014,148,0,1442421174401,1442421174916,927,398,0,0,0,3,4,1,34,0003-00-0007-86.png,0004-00-0002-33.png
00000014,149,1,1442421177977,1442421178517,361,418,0,0,0,4,5,1,45,0004-00-0004-57.png,0005-00-0003-96.png
00000014,150,1,1442421179610,1442421180232,343,435,0,0,0,2,3,1,23,0002-00-0007-74.png,0003-00-0009-79.png
00000014,151,0,1442421181377,1442421181880,318,446,0,0,0,4,3,1,43,0004-00-0004-90.png,0003-00-0005-53.png
00000014,152,0,1442421184843,1442421184879,491,410,0,0,0,2,1,1,21,0002-00-0000-53.png,0001-00-0007-42.png
00000014,153,1,1442421187928,1442421188449,396,500,0,0,0,4,5,1,45,0004-00-0001-26.png,0005-00-0007-32.png
00000014,154,1,1442421189569,1442421190123,863,433,0,0,0,5,4,1,54,0005-00-0007-09.png,0004-00-0009-50.png
00000014,155,0,1442421191198,1442421191732,902,390,0,0,0,3,4,1,34,0003-00-0001-80.png,0004-00-0003-67.png
00000014,156,0,1442421194997,1442421195457,416,426,0,0,0,2,1,1,21,0002-00-0009-72.png,0001-00-0008-88.png
00000014,157,0,1442421198472,1442421198484,420,427,0,0,0,4,3,1,43,0004-00-0002-17.png,0003-00-0007-04.png
00000014,158,0,1442421201547,1442421202072,915,396,0,0,0,1,2,1,12,0001-00-0002-59.png,0002-00-0002-64.png
00000014,159,1,1442421205361,1442421205848,325,412,0,0,0,2,3,1,23,0002-00-0001-68.png,0003-00-0002-64.png
00000014,160,1,1442421206923,1442421207425,872,480,0,0,0,3,2,1,32,0003-00-0007-44.png,0002-00-0009-77.png
00000014,161,1,1442421208583,1442421209123,401,397,0,0,0,2,3,1,23,0002-00-0008-57.png,0003-00-0006-38.png
00000014,162,1,1442421210162,1442421210685,921,394,0,0,0,3,2,1,32,0003-00-0002-61.png,0002-00-0007-64.png
00000014,163,0,1442421211745,1442421212229,899,397,0,0,0,1,2,1,12,0001-00-0000-47.png,0002-00-0006-57.png
00000014,164,0,1442421215082,1442421215675,340,386,0,0,0,4,3,1,43,0004-00-0001-44.png,0003-00-0003-21.png
00000014,165,1,1442421218729,1442421218765,509,435,0,0,0,3,4,1,34,0003-00-0004-27.png,0004-00-0008-33.png
00000014,166,0,1442421219792,1442421220298,364,407,0,0,0,5,4,1,54,0005-00-0006-25.png,0004-00-0008-66.png
00000014,167,0,1442421223340,1442421223835,870,443,0,0,0,4,5,1,45,0004-00-0003-81.png,0005-00-0000-92.png
00000014,168,1,1442421226742,1442421227241,938,423,0,0,0,2,1,1,21,0002-00-0008-09.png,0001-00-0002-81.png
00000014,169,1,1442421228201,1442421228748,888,475,0,0,0,2,1,1,21,0002-00-0003-83.png,0001-00-0003-71.png
00000014,170,0,1442421229840,1442421230368,900,386,0,0,0,3,4,1,34,0003-00-0004-26.png,0004-00-0006-21.png
00000014,171,0,1442421233539,1442421233988,342,400,0,0,0,4,3,1,43,0004-00-0008-09.png,0003-00-0001-90.png
00000014,172,1,1442421237126,1442421237578,389,410,0,0,0,2,3,1,23,0002-00-0008-92.png,0003-00-0008-03.png
00000014,173,1,1442421238635,1442421239132,329,412,0,0,0,1,2,1,12,0001-00-0007-16.png,0002-00-0005-69.png
00000014,174,1,1442421240137,1442421240652,875,486,0,0,0,5,4,1,54,0005-00-0006-05.png,0004-00-0008-81.png
00000014,175,0,1442421241687,1442421242186,376,387,0,0,0,3,2,1,32,0003-00-0005-83.png,0002-00-0006-64.png
00000014,176,1,1442421245506,1442421245960,361,393,0,0,0,4,5,1,45,0004-00-0008-07.png,0005-00-0007-50.png
00000014,177,0,1442421247015,1442421247544,338,445,0,0,0,4,3,1,43,0004-00-0006-48.png,0003-00-0003-48.png
00000014,178,1,1442421250661,1442421251207,879,474,0,0,0,2,1,1,21,0002-00-0004-88.png,0001-00-0005-12.png
00000014,179,1,1442421252262,1442421252754,401,410,0,0,0,2,3,1,23,0002-00-0003-09.png,0003-00-0000-50.png
00000014,180,1,1442421253763,1442421254265,376,514,0,0,0,1,2,1,12,0001-00-0000-78.png,0002-00-0002-96.png
00000014,181,0,1442421255503,1442421256011,369,412,0,0,0,5,4,1,54,0005-00-0007-24.png,0004-00-0004-98.png
00000014,182,0,1442421259330,1442421259792,925,422,0,0,0,3,4,1,34,0003-00-0002-07.png,0004-00-0005-15.png
00000014,183,1,1442421262997,1442421263578,973,367,0,0,0,3,2,1,32,0003-00-0006-49.png,0002-00-0008-84.png
00000014,184,1,1442421264597,1442421265107,414,397,0,0,0,4,5,1,45,0004-00-0002-14.png,0005-00-0000-68.png
00000014,185,0,1442421266117,1442421266622,330,402,0,0,0,5,4,1,54,0005-00-0009-74.png,0004-00-0000-60.png
00000014,186,0,1442421269734,1442421270251,414,538,0,0,0,3,2,1,32,0003-00-0006-98.png,0002-00-0004-20.png
00000014,187,1,1442421273500,1442421273931,333,428,0,0,0,2,3,1,23,0002-00-0005-39.png,0003-00-0004-83.png
00000014,188,1,1442421274992,1442421275506,362,407,0,0,0,3,4,1,34,0003-00-0006-28.png,0004-00-0009-07.png
00000014,189,1,1442421276472,1442421277016,325,436,0,0,0,1,2,1,12,0001-00-0009-60.png,0002-00-0009-92.png
00000014,190,1,1442421278065,1442421278581,876,424,0,0,0,2,1,1,21,0002-00-0009-29.png,0001-00-0000-74.png
00000014,191,1,1442421279654,1442421280184,888,424,0,0,0,4,3,1,43,0004-00-0001-63.png,0003-00-0005-20.png
00000014,192,0,1442421281263,1442421281781,874,476,0,0,0,4,5,1,45,0004-00-0009-68.png,0005-00-0007-77.png
00000014,193,0,1442421284844,1442421285312,376,436,0,0,0,3,2,1,32,0003-00-0009-31.png,0002-00-0001-06.png
00000014,194,1,1442421288211,1442421288750,882,501,0,0,0,4,3,1,43,0004-00-0002-42.png,0003-00-0007-15.png
00000014,195,1,1442421289828,1442421290336,895,394,0,0,0,2,1,1,21,0002-00-0003-27.png,0001-00-0009-18.png
00000014,196,0,1442421291361,1442421291863,905,401,0,0,0,3,4,1,34,0003-00-0007-76.png,0004-00-0001-03.png
00000014,197,1,1442421294979,1442421295450,318,373,0,0,0,1,2,1,12,0001-00-0004-49.png,0002-00-0005-34.png
00000014,198,0,1442421296541,1442421297043,379,407,0,0,0,5,4,1,54,0005-00-0000-05.png,0004-00-0006-31.png
00000014,199,1,1442421299957,1442421300442,376,398,0,0,0,4,5,1,45,0004-00-0008-85.png,0005-00-0004-03.png
00000014,200,1,1442421301490,1442421301957,349,407,0,0,0,2,3,1,23,0002-00-0003-58.png,0003-00-0005-27.png
00000014,201,0,1442421302958,1442421303523,876,398,0,0,0,3,4,1,34,0003-00-0002-62.png,0004-00-0002-11.png
00000014,202,0,1442421306470,1442421307060,939,420,0,0,0,4,5,1,45,0004-00-0003-49.png,0005-00-0004-72.png
00000014,203,0,1442421310096,1442421310629,427,384,0,0,0,3,2,1,32,0003-00-0002-65.png,0002-00-0009-60.png
00000014,204,0,1442421313823,1442421314306,376,436,0,0,0,4,3,1,43,0004-00-0004-30.png,0003-00-0009-81.png
00000014,205,0,1442421317361,1442421317843,410,459,0,0,0,2,1,1,21,0002-00-0004-29.png,0001-00-0008-71.png
00000014,206,0,1442421320711,1442421321209,888,488,0,0,0,1,2,1,12,0001-00-0005-95.png,0002-00-0007-93.png
00000014,207,0,1442421324059,1442421324086,522,422,0,0,0,5,4,1,54,0005-00-0006-18.png,0004-00-0002-45.png
00000014,208,1,1442421327270,1442421327730,416,400,0,0,0,2,3,1,23,0002-00-0006-12.png,0003-00-0005-30.png
00000014,209,0,1442421328730,1442421329233,397,416,0,0,0,2,1,1,21,0002-00-0004-15.png,0001-00-0003-10.png
00000014,210,0,1442421332774,1442421333351,901,397,0,0,0,2,3,1,23,0002-00-0009-85.png,0003-00-0007-43.png
00000014,211,1,1442421336292,1442421336316,501,384,0,0,0,3,4,1,34,0003-00-0009-10.png,0004-00-0000-71.png
00000014,212,1,1442421337386,1442421337911,879,402,0,0,0,5,4,1,54,0005-00-0001-96.png,0004-00-0001-92.png
00000014,213,1,1442421339075,1442421339652,345,422,0,0,0,1,2,1,12,0001-00-0004-10.png,0002-00-0009-43.png
00000014,214,1,1442421340587,1442421341186,374,436,0,0,0,4,5,1,45,0004-00-0002-64.png,0005-00-0000-47.png
00000014,215,0,1442421342236,1442421342780,340,406,0,0,0,3,2,1,32,0003-00-0001-65.png,0002-00-0001-47.png
00000014,216,0,1442421345746,1442421346257,280,420,0,0,0,4,3,1,43,0004-00-0003-86.png,0003-00-0000-76.png
00000014,217,1,1442421350128,1442421350623,389,418,0,0,0,4,5,1,45,0004-00-0005-85.png,0005-00-0001-68.png
00000014,218,0,1442421351718,1442421352282,863,501,0,0,0,1,2,1,12,0001-00-0000-03.png,0002-00-0001-53.png
00000014,219,0,1442421355255,1442421355275,521,419,0,0,0,3,2,1,32,0003-00-0002-99.png,0002-00-0006-32.png
00000014,220,1,1442421358396,1442421358886,409,497,0,0,0,3,4,1,34,0003-00-0009-28.png,0004-00-0005-62.png
00000014,221,0,1442421359886,1442421360458,365,415,0,0,0,4,3,1,43,0004-00-0007-89.png,0003-00-0008-50.png
00000014,222,1,1442421364429,1442421364902,901,494,0,0,0,2,1,1,21,0002-00-0009-87.png,0001-00-0000-60.png
00000014,223,1,1442421365909,1442421366472,376,384,0,0,0,2,3,1,23,0002-00-0000-51.png,0003-00-0004-65.png
00000014,224,0,1442421367517,1442421368041,389,394,0,0,0,5,4,1,54,0005-00-0008-91.png,0004-00-0005-80.png
00000014,225,1,1442421370914,1442421371403,340,442,0,0,0,1,2,1,12,0001-00-0007-65.png,0002-00-0009-52.png
00000014,226,1,1442421372428,1442421372935,900,397,0,0,0,4,3,1,43,0004-00-0008-45.png,0003-00-0007-56.png
00000014,227,1,1442421373949,1442421374490,347,403,0,0,0,4,5,1,45,0004-00-0007-74.png,0005-00-0000-64.png
00000014,228,0,1442421375512,1442421376011,370,418,0,0,0,2,1,1,21,0002-00-0003-72.png,0001-00-0000-69.png
00000014,229,1,1442421379248,1442421379789,197,478,0,0,0,2,3,1,23,0002-00-0003-13.png,0003-00-0007-25.png
00000014,230,1,1442421380776,1442421381314,878,413,0,0,0,3,2,1,32,0003-00-0002-73.png,0002-00-0003-87.png
00000014,231,0,1442421382383,1442421383424,414,436,0,0,0,5,4,1,54,0005-00-0009-32.png,0004-00-0002-26.png
00000014,232,0,1442421386423,1442421386846,913,398,0,0,0,3,4,1,34,0003-00-0003-28.png,0004-00-0009-34.png
00000014,233,0,1442421389902,1442421390397,317,401,0,0,0,2,1,1,21,0002-00-0000-13.png,0001-00-0006-14.png
00000014,234,1,1442421393769,1442421394251,873,483,0,0,0,5,4,1,54,0005-00-0002-15.png,0004-00-0005-82.png
00000014,235,1,1442421395247,1442421395796,367,376,0,0,0,1,2,1,12,0001-00-0009-27.png,0002-00-0006-24.png
00000014,236,1,1442421396768,1442421397328,879,401,0,0,0,4,3,1,43,0004-00-0005-76.png,0003-00-0003-44.png
00000014,237,1,1442421398377,1442421398864,325,423,0,0,0,3,4,1,34,0003-00-0006-81.png,0004-00-0005-87.png
00000014,238,1,1442421399838,1442421400764,401,424,0,0,0,2,3,1,23,0002-00-0003-23.png,0003-00-0001-78.png
00000014,239,0,1442421401797,1442421402293,378,444,0,0,0,3,2,1,32,0003-00-0001-10.png,0002-00-0008-87.png
00000014,240,1,1442421405435,1442421405930,395,400,0,0,0,4,5,1,45,0004-00-0006-49.png,0005-00-0003-54.png
00000014,241,1,1442421406903,1442421407461,871,406,0,0,0,3,2,1,32,0003-00-0005-41.png,0002-00-0003-58.png
00000014,242,0,1442421408484,1442421409007,364,427,0,0,0,2,1,1,21,0002-00-0008-08.png,0001-00-0008-47.png
00000014,243,1,1442421411852,1442421412340,398,387,0,0,0,3,4,1,34,0003-00-0000-50.png,0004-00-0006-58.png
00000014,244,0,1442421413265,1442421413842,877,416,0,0,0,4,5,1,45,0004-00-0002-87.png,0005-00-0001-16.png
00000014,245,1,1442421416993,1442421417500,902,390,0,0,0,5,4,1,54,0005-00-0000-73.png,0004-00-0006-54.png
00000014,246,0,1442421418611,1442421419094,337,424,0,0,0,4,3,1,43,0004-00-0008-09.png,0003-00-0002-19.png
00000014,247,0,1442421422249,1442421422721,875,436,0,0,0,2,3,1,23,0002-00-0006-26.png,0003-00-0003-97.png
00000014,248,1,1442421426748,1442421427247,293,411,0,0,0,1,2,1,12,0001-00-0008-19.png,0002-00-0009-11.png
00000014,249,1,1442421428302,1442421428888,888,396,0,0,0,5,4,1,54,0005-00-0005-40.png,0004-00-0004-05.png
00000014,250,1,1442421429931,1442421430569,416,467,0,0,0,2,3,1,23,0002-00-0000-59.png,0003-00-0008-14.png
00000014,251,1,1442421431582,1442421432105,862,448,0,0,0,4,3,1,43,0004-00-0005-36.png,0003-00-0001-68.png
00000014,252,1,1442421433250,1442421433734,376,436,0,0,0,4,5,1,45,0004-00-0007-09.png,0005-00-0003-47.png
00000014,253,0,1442421435040,1442421435615,904,402,0,0,0,1,2,1,12,0001-00-0000-07.png,0002-00-0002-86.png
00000014,254,1,1442421438486,1442421438934,348,400,0,0,0,3,4,1,34,0003-00-0002-91.png,0004-00-0009-14.png
00000014,255,1,1442421439890,1442421440396,902,410,0,0,0,2,1,1,21,0002-00-0008-09.png,0001-00-0003-17.png
00000014,256,0,1442421441491,1442421442077,392,520,0,0,0,3,2,1,32,0003-00-0007-41.png,0002-00-0008-86.png
00000014,257,0,1442421445189,1442421445664,875,409,0,0,0,3,4,1,34,0003-00-0005-70.png,0004-00-0005-94.png
00000014,258,1,1442421448838,1442421449351,363,422,0,0,0,1,2,1,12,0001-00-0003-71.png,0002-00-0007-98.png
00000014,259,1,1442421450397,1442421450949,912,424,0,0,0,5,4,1,54,0005-00-0000-79.png,0004-00-0005-23.png
00000014,260,1,1442421451947,1442421452460,376,436,0,0,0,2,3,1,23,0002-00-0000-46.png,0003-00-0003-62.png
00000014,261,1,1442421453507,1442421454038,862,517,0,0,0,4,3,1,43,0004-00-0001-15.png,0003-00-0005-26.png
00000014,262,1,1442421455049,1442421455621,366,409,0,0,0,4,5,1,45,0004-00-0002-21.png,0005-00-0000-41.png
00000014,263,0,1442421456668,1442421457216,363,415,0,0,0,3,2,1,32,0003-00-0004-75.png,0002-00-0006-45.png
00000014,264,0,1442421460326,1442421460771,332,397,0,0,0,2,1,1,21,0002-00-0007-55.png,0001-00-0005-56.png
00000014,265,1,1442421463634,1442421464190,920,392,0,0,0,3,2,1,32,0003-00-0004-62.png,0002-00-0002-71.png
00000014,266,0,1442421465139,1442421465657,878,414,0,0,0,3,4,1,34,0003-00-0008-03.png,0004-00-0000-35.png
00000014,267,0,1442421468804,1442421469293,354,402,0,0,0,5,4,1,54,0005-00-0003-71.png,0004-00-0003-53.png
00000014,268,1,1442421472184,1442421472200,515,478,0,0,0,2,3,1,23,0002-00-0001-11.png,0003-00-0001-76.png
00000014,269,1,1442421473217,1442421473812,887,397,0,0,0,2,1,1,21,0002-00-0002-70.png,0001-00-0008-81.png
00000014,270,1,1442421474857,1442421475394,879,454,0,0,0,4,3,1,43,0004-00-0007-27.png,0003-00-0006-62.png
00000014,271,1,1442421476486,1442421477040,365,402,0,0,0,4,5,1,45,0004-00-0005-15.png,0005-00-0000-50.png
00000014,272,1,1442421478087,1442421478605,350,404,0,0,0,1,2,1,12,0001-00-0008-24.png,0002-00-0000-08.png
00000014,273,0,1442421479661,1442421480211,865,510,0,0,0,3,4,1,34,0003-00-0006-23.png,0004-00-0006-17.png
00000014,274,1,1442421483245,1442421483721,340,406,0,0,0,1,2,1,12,0001-00-0009-43.png,0002-00-0000-80.png
00000014,275,1,1442421484767,1442421485298,876,398,0,0,0,3,2,1,32,0003-00-0008-69.png,0002-00-0002-08.png
00000014,276,1,1442421486325,1442421486864,879,401,0,0,0,5,4,1,54,0005-00-0006-23.png,0004-00-0000-48.png
00000014,277,0,1442421487941,1442421488448,401,410,0,0,0,4,3,1,43,0004-00-0000-52.png,0003-00-0007-82.png
00000014,278,1,1442421491302,1442421491740,401,384,0,0,0,2,3,1,23,0002-00-0002-61.png,0003-00-0000-84.png
00000014,279,0,1442421492683,1442421493281,348,403,0,0,0,2,1,1,21,0002-00-0007-61.png,0001-00-0008-33.png
00000014,280,1,1442421496164,1442421496180,473,434,0,0,0,4,5,1,45,0004-00-0005-06.png,0005-00-0008-11.png
00000014,281,0,1442421497176,1442421497714,869,394,0,0,0,3,4,1,34,0003-00-0004-14.png,0004-00-0005-04.png
00000014,282,0,1442421501631,1442421502105,317,403,0,0,0,5,4,1,54,0005-00-0001-66.png,0004-00-0001-52.png
00000014,283,1,1442421505335,1442421505818,401,410,0,0,0,4,5,1,45,0004-00-0002-23.png,0005-00-0008-20.png
00000014,284,0,1442421506836,1442421507366,875,398,0,0,0,1,2,1,12,0001-00-0005-57.png,0002-00-0006-99.png
00000014,285,0,1442421510242,1442421510274,470,428,0,0,0,3,2,1,32,0003-00-0005-42.png,0002-00-0006-35.png
00000014,286,0,1442421513238,1442421513721,313,397,0,0,0,4,3,1,43,0004-00-0003-75.png,0003-00-0007-97.png
00000014,287,0,1442421516878,1442421517413,887,398,0,0,0,2,3,1,23,0002-00-0009-87.png,0003-00-0003-47.png
00000014,288,1,1442421520555,1442421521055,862,398,0,0,0,2,1,1,21,0002-00-0003-46.png,0001-00-0009-15.png
00000014,289,1,1442421522053,1442421522575,347,421,0,0,0,2,3,1,23,0002-00-0000-81.png,0003-00-0001-37.png
00000014,290,1,1442421523614,1442421524109,394,419,0,0,0,3,4,1,34,0003-00-0006-45.png,0004-00-0000-84.png
00000014,291,1,1442421525146,1442421525683,879,402,0,0,0,5,4,1,54,0005-00-0005-29.png,0004-00-0001-74.png
00000014,292,0,1442421526715,1442421527232,333,417,0,0,0,2,1,1,21,0002-00-0005-68.png,0001-00-0000-48.png
00000014,293,0,1442421530264,1442421530737,392,428,0,0,0,3,2,1,32,0003-00-0007-63.png,0002-00-0008-98.png
00000014,294,0,1442421533850,1442421534339,432,435,0,0,0,4,3,1,43,0004-00-0004-83.png,0003-00-0006-69.png
00000014,295,1,1442421537170,1442421537189,469,406,0,0,0,1,2,1,12,0001-00-0005-74.png,0002-00-0000-97.png
00000014,296,1,1442421538241,1442421538808,401,410,0,0,0,4,5,1,45,0004-00-0005-68.png,0005-00-0006-59.png
00000014,297,1,1442421539811,1442421540317,340,419,0,0,0,1,2,1,12,0001-00-0006-27.png,0002-00-0007-75.png
00000014,298,1,1442421541353,1442421541893,364,415,0,0,0,2,3,1,23,0002-00-0002-05.png,0003-00-0004-47.png
00000014,299,1,1442421542924,1442421543462,874,490,0,0,0,2,1,1,21,0002-00-0003-97.png,0001-00-0007-88.png
00000014,300,0,1442421544566,1442421545526,440,397,0,0,0,3,2,1,32,0003-00-0007-92.png,0002-00-0005-98.png
00000014,301,1,1442421548420,1442421548884,331,393,0,0,0,4,5,1,45,0004-00-0008-23.png,0005-00-0009-80.png
00000014,302,0,1442421549832,1442421550426,880,427,0,0,0,3,4,1,34,0003-00-0001-77.png,0004-00-0004-38.png
00000014,303,0,1442421553329,1442421553851,426,441,0,0,0,5,4,1,54,0005-00-0005-37.png,0004-00-0005-59.png
00000014,304,0,1442421557375,1442421557850,290,397,0,0,0,4,3,1,43,0004-00-0006-78.png,0003-00-0006-82.png
00000014,305,1,1442421561321,1442421561773,867,424,0,0,0,5,4,1,54,0005-00-0007-29.png,0004-00-0004-90.png
00000014,306,1,1442421562899,1442421563520,875,410,0,0,0,3,2,1,32,0003-00-0005-01.png,0002-00-0002-65.png
00000014,307,0,1442421564517,1442421565041,320,426,0,0,0,2,1,1,21,0002-00-0000-48.png,0001-00-0009-10.png
00000014,308,1,1442421567930,1442421567947,478,485,0,0,0,2,3,1,23,0002-00-0002-73.png,0003-00-0009-34.png
00000014,309,1,1442421568980,1442421569484,875,383,0,0,0,4,3,1,43,0004-00-0005-59.png,0003-00-0004-65.png
00000014,310,1,1442421570532,1442421571037,344,400,0,0,0,4,5,1,45,0004-00-0007-17.png,0005-00-0003-87.png
00000014,311,0,1442421572119,1442421572656,872,462,0,0,0,3,4,1,34,0003-00-0006-12.png,0004-00-0004-45.png
00000014,312,1,1442421575581,1442421575597,513,398,0,0,0,1,2,1,12,0001-00-0003-49.png,0002-00-0006-00.png
00000014,313,0,1442421576617,1442421577091,875,411,0,0,0,2,3,1,23,0002-00-0001-06.png,0003-00-0009-95.png
00000014,314,0,1442421580413,1442421580895,873,482,0,0,0,3,4,1,34,0003-00-0003-09.png,0004-00-0005-88.png
00000014,315,1,1442421583963,1442421584485,869,393,0,0,0,2,1,1,21,0002-00-0008-16.png,0001-00-0008-94.png
00000014,316,1,1442421585550,1442421586108,897,405,0,0,0,5,4,1,54,0005-00-0002-72.png,0004-00-0009-89.png
00000014,317,1,1442421587188,1442421587671,376,425,0,0,0,4,5,1,45,0004-00-0008-21.png,0005-00-0000-89.png
00000014,318,0,1442421588719,1442421589284,387,419,0,0,0,3,2,1,32,0003-00-0008-27.png,0002-00-0008-37.png
00000014,319,0,1442421592429,1442421592988,415,502,0,0,0,4,3,1,43,0004-00-0001-17.png,0003-00-0005-24.png
00000014,320,1,1442421596012,1442421596474,387,436,0,0,0,1,2,1,12,0001-00-0001-70.png,0002-00-0000-06.png
00000014,321,1,1442421597465,1442421598038,413,344,0,0,0,2,3,1,23,0002-00-0000-61.png,0003-00-0008-49.png
00000014,322,1,1442421599106,1442421599654,898,405,0,0,0,5,4,1,54,0005-00-0005-16.png,0004-00-0007-48.png
00000014,323,1,1442421600735,1442421601346,889,414,0,0,0,4,3,1,43,0004-00-0006-09.png,0003-00-0007-38.png
00000014,324,1,1442421602338,1442421602863,900,423,0,0,0,3,2,1,32,0003-00-0008-22.png,0002-00-0002-88.png
00000014,325,1,1442421603926,1442421604405,401,462,0,0,0,3,4,1,34,0003-00-0000-98.png,0004-00-0004-87.png
00000014,326,1,1442421605406,1442421605960,380,411,0,0,0,4,5,1,45,0004-00-0000-03.png,0005-00-0008-19.png
00000014,327,1,1442421607187,1442421607689,862,491,0,0,0,2,1,1,21,0002-00-0002-69.png,0001-00-0008-75.png
00000014,328,1,1442421608856,1442421609414,378,410,0,0,0,1,2,1,12,0001-00-0003-71.png,0002-00-0004-07.png
00000014,329,0,1442421610516,1442421611042,325,424,0,0,0,5,4,1,54,0005-00-0003-23.png,0004-00-0004-24.png
00000014,330,1,1442421614003,1442421614083,504,562,0,0,0,1,2,1,12,0001-00-0007-87.png,0002-00-0008-24.png
00000014,331,1,1442421615177,1442421615703,895,420,0,0,0,3,2,1,32,0003-00-0004-01.png,0002-00-0001-18.png
00000014,332,1,1442421616728,1442421617250,370,419,0,0,0,4,5,1,45,0004-00-0001-79.png,0005-00-0003-97.png
00000014,333,1,1442421618298,1442421618814,408,453,0,0,0,2,3,1,23,0002-00-0000-91.png,0003-00-0005-92.png
00000014,334,1,1442421619829,1442421620846,411,433,0,0,0,3,4,1,34,0003-00-0005-36.png,0004-00-0006-79.png
00000014,335,0,1442421621893,1442421622449,418,453,0,0,0,2,1,1,21,0002-00-0000-23.png,0001-00-0009-81.png
00000014,336,0,1442421625640,1442421626493,311,423,0,0,0,4,3,1,43,0004-00-0005-79.png,0003-00-0007-43.png
00000014,337,1,1442421629535,1442421630128,873,412,0,0,0,2,1,1,21,0002-00-0004-91.png,0001-00-0001-13.png
00000014,338,0,1442421631048,1442421631589,363,436,0,0,0,5,4,1,54,0005-00-0005-38.png,0004-00-0003-26.png
00000014,339,1,1442421634763,1442421635269,376,436,0,0,0,2,3,1,23,0002-00-0002-41.png,0003-00-0003-16.png
00000014,340,0,1442421636335,1442421636817,879,401,0,0,0,3,4,1,34,0003-00-0003-86.png,0004-00-0000-40.png
00000014,341,0,1442421639772,1442421639844,511,486,0,0,0,3,2,1,32,0003-00-0009-76.png,0002-00-0001-47.png
00000014,342,1,1442421642751,1442421643233,394,416,0,0,0,4,5,1,45,0004-00-0000-75.png,0005-00-0001-14.png
00000014,343,1,1442421644335,1442421644901,874,488,0,0,0,4,3,1,43,0004-00-0001-76.png,0003-00-0001-24.png
00000014,344,1,1442421646004,1442421646476,368,405,0,0,0,1,2,1,12,0001-00-0000-69.png,0002-00-0003-46.png
00000014,345,1,1442421647578,1442421648136,889,397,0,0,0,2,1,1,21,0002-00-0005-63.png,0001-00-0001-44.png
00000014,346,0,1442421649196,1442421649764,900,385,0,0,0,2,3,1,23,0002-00-0004-96.png,0003-00-0004-13.png
00000014,347,0,1442421652893,1442421653351,401,410,0,0,0,5,4,1,54,0005-00-0001-15.png,0004-00-0008-79.png
00000014,348,1,1442421656402,1442421656862,401,384,0,0,0,4,5,1,45,0004-00-0001-93.png,0005-00-0005-74.png
00000014,349,1,1442421657921,1442421658377,376,436,0,0,0,1,2,1,12,0001-00-0009-02.png,0002-00-0002-85.png
00000014,350,1,1442421659484,1442421660441,319,409,0,0,0,3,4,1,34,0003-00-0006-46.png,0004-00-0001-35.png
00000014,351,0,1442421661481,1442421662200,373,407,0,0,0,3,2,1,32,0003-00-0005-47.png,0002-00-0008-31.png
00000014,352,0,1442421665594,1442421666147,331,374,0,0,0,4,3,1,43,0004-00-0005-46.png,0003-00-0001-46.png
00000014,353,1,1442421669083,1442421669537,417,418,0,0,0,2,3,1,23,0002-00-0005-26.png,0003-00-0007-62.png
00000014,354,1,1442421670484,1442421671006,379,397,0,0,0,1,2,1,12,0001-00-0000-62.png,0002-00-0001-39.png
00000014,355,1,1442421672054,1442421672618,862,423,0,0,0,4,3,1,43,0004-00-0009-40.png,0003-00-0009-88.png
00000014,356,1,1442421673815,1442421674346,389,488,0,0,0,4,5,1,45,0004-00-0006-15.png,0005-00-0000-48.png
00000014,357,1,1442421675504,1442421676074,401,377,0,0,0,3,4,1,34,0003-00-0002-47.png,0004-00-0008-26.png
00000014,358,1,1442421677233,1442421677797,879,401,0,0,0,3,2,1,32,0003-00-0002-53.png,0002-00-0003-46.png
00000014,359,0,1442421678932,1442421679458,376,424,0,0,0,2,1,1,21,0002-00-0002-00.png,0001-00-0001-99.png
00000014,360,0,1442421682560,1442421683042,338,421,0,0,0,5,4,1,54,0005-00-0007-81.png,0004-00-0003-02.png
00000014,361,0,1442421685989,1442421686009,520,428,0,0,0,3,2,1,32,0003-00-0007-17.png,0002-00-0006-80.png
00000014,362,0,1442421689150,1442421689647,880,527,0,0,0,1,2,1,12,0001-00-0002-28.png,0002-00-0004-36.png
00000014,363,1,1442421692577,1442421692593,478,473,0,0,0,3,4,1,34,0003-00-0001-62.png,0004-00-0003-74.png
00000014,364,0,1442421693623,1442421694153,348,413,0,0,0,2,1,1,21,0002-00-0001-44.png,0001-00-0001-20.png
00000014,365,1,1442421697309,1442421697768,899,422,0,0,0,4,3,1,43,0004-00-0008-59.png,0003-00-0000-69.png
00000014,366,1,1442421698770,1442421699268,876,383,0,0,0,5,4,1,54,0005-00-0002-44.png,0004-00-0005-44.png
00000014,367,1,1442421700351,1442421700886,368,427,0,0,0,2,3,1,23,0002-00-0004-58.png,0003-00-0004-55.png
00000014,368,1,1442421701932,1442421702455,350,423,0,0,0,4,5,1,45,0004-00-0006-59.png,0005-00-0005-40.png
00000014,369,0,1442421703572,1442421704114,880,402,0,0,0,2,3,1,23,0002-00-0008-02.png,0003-00-0002-06.png
00000014,370,1,1442421707211,1442421707757,905,416,0,0,0,5,4,1,54,0005-00-0003-15.png,0004-00-0004-65.png
00000014,371,1,1442421708749,1442421709266,383,421,0,0,0,1,2,1,12,0001-00-0007-97.png,0002-00-0006-33.png
00000014,372,1,1442421710299,1442421711345,926,384,0,0,0,3,2,1,32,0003-00-0008-73.png,0002-00-0004-81.png
00000014,373,1,1442421712447,1442421713008,443,543,0,0,0,3,4,1,34,0003-00-0004-34.png,0004-00-0001-96.png
00000014,374,1,1442421714037,1442421714633,376,423,0,0,0,4,5,1,45,0004-00-0001-50.png,0005-00-0008-27.png
00000014,375,1,1442421715607,1442421716198,865,429,0,0,0,4,3,1,43,0004-00-0006-76.png,0003-00-0001-39.png
00000014,376,1,1442421717258,1442421717793,877,417,0,0,0,2,1,1,21,0002-00-0003-64.png,0001-00-0009-75.png
00000014,377,0,1442421718917,1442421719909,414,437,0,0,0,5,4,1,54,0005-00-0002-00.png,0004-00-0005-48.png
00000014,378,0,1442421723143,1442421723726,298,400,0,0,0,4,3,1,43,0004-00-0002-81.png,0003-00-0008-62.png
00000014,379,1,1442421726608,1442421727064,401,384,0,0,0,1,2,1,12,0001-00-0009-14.png,0002-00-0001-82.png
00000014,380,1,1442421728022,1442421729100,937,398,0,0,0,3,2,1,32,0003-00-0004-70.png,0002-00-0004-60.png
00000014,381,1,1442421730096,1442421730664,359,407,0,0,0,3,4,1,34,0003-00-0003-87.png,0004-00-0005-35.png
00000014,382,1,1442421731717,1442421732297,397,419,0,0,0,2,3,1,23,0002-00-0007-20.png,0003-00-0008-74.png
00000014,383,0,1442421733318,1442421733840,875,398,0,0,0,4,5,1,45,0004-00-0001-83.png,0005-00-0008-86.png
00000014,384,1,1442421736738,1442421737229,922,419,0,0,0,2,1,1,21,0002-00-0004-07.png,0001-00-0002-22.png
00000014,385,0,1442421738238,1442421738799,860,398,0,0,0,2,3,1,23,0002-00-0004-75.png,0003-00-0003-07.png
00000014,386,0,1442421741795,1442421741815,509,418,0,0,0,2,1,1,21,0002-00-0009-69.png,0001-00-0005-90.png
00000014,387,1,1442421745361,1442421745811,317,390,0,0,0,3,4,1,34,0003-00-0003-41.png,0004-00-0001-78.png
00000014,388,1,1442421746823,1442421747409,857,394,0,0,0,4,3,1,43,0004-00-0009-25.png,0003-00-0008-56.png
00000014,389,0,1442421748472,1442421749077,441,547,0,0,0,5,4,1,54,0005-00-0003-57.png,0004-00-0006-27.png
00000014,390,0,1442421752021,1442421752515,392,521,0,0,0,3,2,1,32,0003-00-0001-68.png,0002-00-0007-02.png
00000014,391,1,1442421755519,1442421755563,490,425,0,0,0,4,5,1,45,0004-00-0007-59.png,0005-00-0007-92.png
00000014,392,0,1442421756613,1442421757663,931,402,0,0,0,1,2,1,12,0001-00-0006-99.png,0002-00-0003-05.png
00000014,393,1,1442421760729,1442421761256,875,408,0,0,0,3,2,1,32,0003-00-0006-43.png,0002-00-0004-50.png
00000014,394,1,1442421762197,1442421762703,306,419,0,0,0,1,2,1,12,0001-00-0007-83.png,0002-00-0004-93.png
00000014,395,0,1442421763729,1442421764279,899,386,0,0,0,2,3,1,23,0002-00-0006-85.png,0003-00-0009-23.png
00000014,396,0,1442421767446,1442421767970,875,436,0,0,0,3,4,1,34,0003-00-0009-78.png,0004-00-0008-35.png
00000014,397,1,1442421771033,1442421771588,291,368,0,0,0,4,5,1,45,0004-00-0005-21.png,0005-00-0009-00.png
00000014,398,0,1442421772563,1442421773032,388,436,0,0,0,2,1,1,21,0002-00-0001-50.png,0001-00-0004-04.png
00000014,399,0,1442421775932,1442421776437,323,377,0,0,0,4,3,1,43,0004-00-0003-29.png,0003-00-0005-97.png
00000014,400,0,1442421779282,1442421779768,362,409,0,0,0,5,4,1,54,0005-00-0002-52.png,0004-00-0000-60.png
00000014,401,1,1442421782739,1442421783254,350,397,0,0,0,4,5,1,45,0004-00-0006-98.png,0005-00-0005-24.png
00000014,402,1,1442421784381,1442421784960,900,396,0,0,0,3,2,1,32,0003-00-0005-61.png,0002-00-0005-22.png
00000014,403,1,1442421786050,1442421786616,863,413,0,0,0,5,4,1,54,0005-00-0007-60.png,0004-00-0007-77.png
00000014,404,1,1442421787701,1442421788244,360,414,0,0,0,1,2,1,12,0001-00-0000-16.png,0002-00-0002-32.png
00000014,405,1,1442421789276,1442421789795,370,435,0,0,0,2,3,1,23,0002-00-0004-25.png,0003-00-0007-80.png
00000014,406,1,1442421790823,1442421791652,363,423,0,0,0,3,4,1,34,0003-00-0001-83.png,0004-00-0006-50.png
00000014,407,1,1442421792779,1442421793407,877,439,0,0,0,2,1,1,21,0002-00-0004-05.png,0001-00-0003-92.png
00000014,408,1,1442421794509,1442421795043,876,417,0,0,0,4,3,1,43,0004-00-0002-09.png,0003-00-0003-68.png
00000014,409,1,1442421796329,1442421796859,862,398,0,0,0,5,4,1,54,0005-00-0008-95.png,0004-00-0000-71.png
00000014,410,1,1442421797922,1442421798830,376,424,0,0,0,4,5,1,45,0004-00-0004-00.png,0005-00-0005-12.png
00000014,411,1,1442421800017,1442421800571,374,408,0,0,0,1,2,1,12,0001-00-0004-64.png,0002-00-0000-58.png
00000014,412,1,1442421801527,1442421802569,408,499,0,0,0,3,4,1,34,0003-00-0001-54.png,0004-00-0002-92.png
00000014,413,1,1442421803617,1442421804181,345,452,0,0,0,2,3,1,23,0002-00-0008-22.png,0003-00-0001-61.png
00000014,414,0,1442421805086,1442421805636,401,462,0,0,0,2,1,1,21,0002-00-0007-68.png,0001-00-0004-24.png
00000014,415,0,1442421808483,1442421808977,427,384,0,0,0,4,3,1,43,0004-00-0001-37.png,0003-00-0002-85.png
00000014,416,0,1442421811854,1442421811882,522,453,0,0,0,3,2,1,32,0003-00-0003-39.png,0002-00-0009-18.png
00000014,417,0,1442421815034,1442421815557,327,406,0,0,0,5,4,1,54,0005-00-0006-43.png,0004-00-0005-07.png
00000014,418,1,1442421818461,1442421818469,467,448,0,0,0,3,4,1,34,0003-00-0009-61.png,0004-00-0006-04.png
00000014,419,0,1442421819466,1442421819972,376,398,0,0,0,4,3,1,43,0004-00-0007-04.png,0003-00-0003-10.png
00000014,420,1,1442421823117,1442421823535,368,401,0,0,0,2,3,1,23,0002-00-0005-63.png,0003-00-0008-98.png
00000014,421,0,1442421824596,1442421825149,334,408,0,0,0,3,2,1,32,0003-00-0008-82.png,0002-00-0004-65.png
00000014,422,1,1442421828093,1442421828129,453,462,0,0,0,4,5,1,45,0004-00-0004-97.png,0005-00-0009-43.png
00000014,423,1,1442421829158,1442421829701,340,416,0,0,0,1,2,1,12,0001-00-0009-30.png,0002-00-0003-86.png
00000014,424,1,1442421830728,1442421831282,862,410,0,0,0,2,1,1,21,0002-00-0002-73.png,0001-00-0003-90.png
00000014,425,1,1442421832512,1442421833441,391,416,0,0,0,2,3,1,23,0002-00-0005-04.png,0003-00-0004-45.png
00000014,426,1,1442421834396,1442421835313,360,400,0,0,0,3,4,1,34,0003-00-0003-44.png,0004-00-0007-91.png
00000014,427,0,1442421836355,1442421836878,391,534,0,0,0,5,4,1,54,0005-00-0006-31.png,0004-00-0008-06.png
00000014,428,0,1442421840340,1442421840874,386,413,0,0,0,4,3,1,43,0004-00-0000-55.png,0003-00-0005-95.png
00000014,429,0,1442421844663,1442421844691,517,436,0,0,0,3,2,1,32,0003-00-0006-73.png,0002-00-0006-95.png
00000014,430,1,1442421848193,1442421848687,401,449,0,0,0,4,5,1,45,0004-00-0008-51.png,0005-00-0005-40.png
00000014,431,1,1442421849680,1442421850314,859,463,0,0,0,2,1,1,21,0002-00-0009-99.png,0001-00-0008-47.png
00000014,432,1,1442421851421,1442421851955,427,401,0,0,0,1,2,1,12,0001-00-0001-21.png,0002-00-0007-13.png
00000014,433,0,1442421852951,1442421853459,376,438,0,0,0,4,3,1,43,0004-00-0000-78.png,0003-00-0005-89.png
00000014,434,0,1442421856510,1442421857018,350,370,0,0,0,3,2,1,32,0003-00-0009-88.png,0002-00-0007-98.png
00000014,435,1,1442421860037,1442421860540,378,408,0,0,0,3,4,1,34,0003-00-0005-67.png,0004-00-0002-90.png
00000014,436,0,1442421861519,1442421862041,350,403,0,0,0,2,1,1,21,0002-00-0004-93.png,0001-00-0007-06.png
00000014,437,1,1442421865366,1442421865806,376,398,0,0,0,1,2,1,12,0001-00-0002-98.png,0002-00-0003-40.png
00000014,438,1,1442421866754,1442421867806,879,376,0,0,0,5,4,1,54,0005-00-0005-93.png,0004-00-0009-20.png
00000014,439,1,1442421868752,1442421869745,386,480,0,0,0,4,5,1,45,0004-00-0005-37.png,0005-00-0009-01.png
00000014,440,1,1442421870761,1442421871283,414,528,0,0,0,2,3,1,23,0002-00-0006-37.png,0003-00-0002-00.png
00000014,441,0,1442421872270,1442421872875,875,386,0,0,0,3,4,1,34,0003-00-0001-39.png,0004-00-0008-43.png
00000014,442,1,1442421875994,1442421876461,875,462,0,0,0,5,4,1,54,0005-00-0001-94.png,0004-00-0007-09.png
00000014,443,1,1442421877448,1442421877993,413,515,0,0,0,4,5,1,45,0004-00-0002-38.png,0005-00-0004-41.png
00000014,444,1,1442421878988,1442421879479,376,436,0,0,0,2,3,1,23,0002-00-0007-80.png,0003-00-0008-55.png
00000014,445,1,1442421880536,1442421881074,875,424,0,0,0,4,3,1,43,0004-00-0009-82.png,0003-00-0002-37.png
00000014,446,0,1442421882091,1442421882617,394,409,0,0,0,2,1,1,21,0002-00-0009-06.png,0001-00-0006-79.png
00000014,447,0,1442421885469,1442421885975,292,401,0,0,0,3,2,1,32,0003-00-0005-71.png,0002-00-0004-47.png
00000014,448,1,1442421888977,1442421889005,479,435,0,0,0,1,2,1,12,0001-00-0003-61.png,0002-00-0008-58.png
00000014,449,1,1442421890101,1442421890638,864,419,0,0,0,4,3,1,43,0004-00-0003-07.png,0003-00-0005-14.png
00000014,450,0,1442421891680,1442421892681,458,412,0,0,0,5,4,1,54,0005-00-0002-50.png,0004-00-0001-21.png
00000014,451,0,1442421895597,1442421896076,376,439,0,0,0,3,2,1,32,0003-00-0001-61.png,0002-00-0008-55.png
00000014,452,1,1442421898995,1442421899037,456,481,0,0,0,1,2,1,12,0001-00-0007-30.png,0002-00-0000-80.png
00000014,453,1,1442421899999,1442421900922,418,428,0,0,0,4,5,1,45,0004-00-0002-87.png,0005-00-0002-51.png
00000014,454,0,1442421901857,1442421902467,364,358,0,0,0,2,1,1,21,0002-00-0004-54.png,0001-00-0000-73.png
00000014,455,0,1442421905783,1442421906260,876,410,0,0,0,3,4,1,34,0003-00-0005-20.png,0004-00-0000-49.png
00000014,456,1,1442421909330,1442421909853,273,462,0,0,0,2,3,1,23,0002-00-0000-45.png,0003-00-0006-09.png
00000014,457,0,1442421910823,1442421911376,862,398,0,0,0,2,3,1,23,0002-00-0008-21.png,0003-00-0000-16.png
00000014,458,1,1442421915958,1442421916054,504,488,0,0,0,4,5,1,45,0004-00-0001-77.png,0005-00-0003-73.png
00000014,459,0,1442421917112,1442421917635,875,424,0,0,0,3,4,1,34,0003-00-0005-62.png,0004-00-0000-79.png
00000014,460,0,1442421920780,1442421921274,380,401,0,0,0,5,4,1,54,0005-00-0007-56.png,0004-00-0004-35.png
00000014,461,0,1442421924239,1442421924715,348,422,0,0,0,3,2,1,32,0003-00-0004-84.png,0002-00-0002-91.png
00000014,462,1,1442421927936,1442421928373,363,423,0,0,0,1,2,1,12,0001-00-0000-06.png,0002-00-0008-21.png
00000014,463,0,1442421929549,1442421930394,380,420,0,0,0,2,1,1,21,0002-00-0003-40.png,0001-00-0006-58.png
00000014,464,0,1442421934009,1442421934454,401,384,0,0,0,4,3,1,43,0004-00-0003-03.png,0003-00-0007-76.png
00000014,465,1,1442421937628,1442421938049,421,383,0,0,0,3,4,1,34,0003-00-0006-03.png,0004-00-0004-73.png
00000014,466,0,1442421939267,1442421940070,374,397,0,0,0,5,4,1,54,0005-00-0001-54.png,0004-00-0001-92.png
00000014,467,1,1442421944131,1442421944610,440,540,0,0,0,1,2,1,12,0001-00-0007-78.png,0002-00-0002-92.png
00000014,468,1,1442421945602,1442421946585,875,422,0,0,0,3,2,1,32,0003-00-0007-32.png,0002-00-0008-81.png
00000014,469,1,1442421947585,1442421948123,869,394,0,0,0,4,3,1,43,0004-00-0005-58.png,0003-00-0008-35.png
00000014,470,1,1442421949106,1442421949666,858,404,0,0,0,2,1,1,21,0002-00-0002-60.png,0001-00-0007-58.png
00000014,471,1,1442421950670,1442421951220,273,477,0,0,0,2,3,1,23,0002-00-0006-16.png,0003-00-0002-67.png
00000014,472,1,1442421952286,1442421952785,444,428,0,0,0,4,5,1,45,0004-00-0006-30.png,0005-00-0003-46.png
00000014,473,0,1442421953827,1442421954653,427,397,0,0,0,3,2,1,32,0003-00-0008-71.png,0002-00-0001-80.png
00000014,474,0,1442421961819,1442421962272,324,370,0,0,0,5,4,1,54,0005-00-0002-32.png,0004-00-0009-99.png
00000014,475,1,1442421965338,1442421965762,334,408,0,0,0,1,2,1,12,0001-00-0004-62.png,0002-00-0001-16.png
00000014,476,0,1442421966800,1442421967811,335,395,0,0,0,2,1,1,21,0002-00-0006-59.png,0001-00-0008-52.png
00000014,477,1,1442421970664,1442421971216,380,467,0,0,0,3,4,1,34,0003-00-0004-23.png,0004-00-0004-87.png
00000014,478,1,1442421972267,1442421972761,376,410,0,0,0,2,3,1,23,0002-00-0007-88.png,0003-00-0009-25.png
00000014,479,1,1442421973796,1442421974421,427,423,0,0,0,4,5,1,45,0004-00-0009-18.png,0005-00-0003-17.png
00000014,480,0,1442421975447,1442421976039,458,499,0,0,0,4,3,1,43,0004-00-0006-99.png,0003-00-0007-99.png
00000014,481,1,1442421981460,1442421981904,356,411,0,0,0,3,4,1,34,0003-00-0005-18.png,0004-00-0002-97.png
00000014,482,0,1442421983029,1442421983057,459,443,0,0,0,5,4,1,54,0005-00-0005-29.png,0004-00-0003-28.png
00000014,483,1,1442421988018,1442421988532,905,509,0,0,0,3,2,1,32,0003-00-0008-18.png,0002-00-0005-92.png
00000014,484,0,1442421989638,1442421990695,901,398,0,0,0,4,5,1,45,0004-00-0005-91.png,0005-00-0000-99.png
00000014,485,1,1442421993651,1442421994099,443,442,0,0,0,1,2,1,12,0001-00-0005-01.png,0002-00-0000-68.png
00000014,486,1,1442421995313,1442421995791,342,403,0,0,0,2,3,1,23,0002-00-0000-70.png,0003-00-0009-85.png
00000014,487,0,1442421996914,1442421997925,401,410,0,0,0,4,3,1,43,0004-00-0001-10.png,0003-00-0004-34.png
00000014,488,1,1442422001197,1442422001653,902,408,0,0,0,2,1,1,21,0002-00-0003-93.png,0001-00-0003-49.png
00000014,489,1,1442422002687,1442422003142,299,423,0,0,0,1,2,1,12,0001-00-0005-92.png,0002-00-0002-39.png
00000014,490,1,1442422004190,1442422005084,344,410,0,0,0,2,3,1,23,0002-00-0009-39.png,0003-00-0002-34.png
00000014,491,0,1442422006215,1442422006751,875,423,0,0,0,3,4,1,34,0003-00-0009-69.png,0004-00-0003-92.png
00000014,492,1,1442422009685,1442422010251,926,385,0,0,0,2,1,1,21,0002-00-0002-03.png,0001-00-0000-74.png
00000014,493,0,1442422011306,1442422011882,401,410,0,0,0,4,3,1,43,0004-00-0006-87.png,0003-00-0006-05.png
00000014,494,1,1442422015072,1442422015092,504,426,0,0,0,4,5,1,45,0004-00-0004-07.png,0005-00-0007-53.png
00000014,495,0,1442422016113,1442422017182,310,377,0,0,0,5,4,1,54,0005-00-0002-70.png,0004-00-0003-81.png
00000014,496,0,1442422020568,1442422021052,342,417,0,0,0,3,2,1,32,0003-00-0000-08.png,0002-00-0000-22.png
00000014,497,0,1442422024266,1442422024742,343,427,0,0,0,2,1,1,21,0002-00-0008-87.png,0001-00-0006-56.png
00000014,498,1,1442422027655,1442422028106,881,516,0,0,0,3,2,1,32,0003-00-0002-60.png,0002-00-0001-63.png
00000014,499,1,1442422029106,1442422029648,880,390,0,0,0,5,4,1,54,0005-00-0003-77.png,0004-00-0008-36.png
00000014,500,1,1442422030747,1442422031253,383,393,0,0,0,4,5,1,45,0004-00-0007-53.png,0005-00-0000-89.png
00000014,501,0,1442422032261,1442422033262,334,400,0,0,0,4,3,1,43,0004-00-0003-71.png,0003-00-0001-68.png
00000014,502,1,1442422036524,1442422036962,322,438,0,0,0,1,2,1,12,0001-00-0000-38.png,0002-00-0007-64.png
00000014,503,1,1442422037961,1442422038987,439,502,0,0,0,2,3,1,23,0002-00-0009-38.png,0003-00-0005-91.png
00000014,504,1,1442422040117,1442422040671,376,423,0,0,0,3,4,1,34,0003-00-0001-45.png,0004-00-0004-80.png
00000014,505,0,1442422041636,1442422042169,369,417,0,0,0,2,1,1,21,0002-00-0000-16.png,0001-00-0009-70.png
00000014,506,0,1442422045204,1442422045709,874,527,0,0,0,3,4,1,34,0003-00-0001-69.png,0004-00-0008-11.png
00000014,507,1,1442422048683,1442422048719,504,499,0,0,0,4,5,1,45,0004-00-0004-77.png,0005-00-0004-55.png
00000014,508,1,1442422049788,1442422050458,382,436,0,0,0,2,3,1,23,0002-00-0009-55.png,0003-00-0002-24.png
00000014,509,0,1442422051497,1442422052455,427,358,0,0,0,3,2,1,32,0003-00-0002-54.png,0002-00-0001-33.png
00000014,510,0,1442422055433,1442422055955,345,446,0,0,0,4,3,1,43,0004-00-0003-90.png,0003-00-0005-97.png
00000014,511,0,1442422059677,1442422060571,398,397,0,0,0,5,4,1,54,0005-00-0002-79.png,0004-00-0007-84.png
00000014,512,1,1442422063917,1442422064449,417,288,0,0,0,1,2,1,12,0001-00-0008-55.png,0002-00-0007-78.png
00000014,513,0,1442422065550,1442422066050,373,426,0,0,0,3,2,1,32,0003-00-0000-66.png,0002-00-0003-68.png
00000014,514,1,1442422069008,1442422069028,513,415,0,0,0,2,3,1,23,0002-00-0004-74.png,0003-00-0000-30.png
00000014,515,0,1442422070053,1442422070560,376,436,0,0,0,5,4,1,54,0005-00-0009-09.png,0004-00-0007-57.png
00000014,516,1,1442422073459,1442422073479,515,416,0,0,0,1,2,1,12,0001-00-0005-39.png,0002-00-0008-35.png
00000014,517,0,1442422074515,1442422075457,416,509,0,0,0,2,1,1,21,0002-00-0005-03.png,0001-00-0006-24.png
00000014,518,0,1442422078547,1442422079062,448,480,0,0,0,4,3,1,43,0004-00-0002-98.png,0003-00-0004-91.png
00000014,519,1,1442422082112,1442422082552,412,425,0,0,0,4,5,1,45,0004-00-0007-08.png,0005-00-0003-50.png
00000014,520,1,1442422083559,1442422084489,401,372,0,0,0,3,4,1,34,0003-00-0003-61.png,0004-00-0004-14.png
00000014,521,0,1442422085547,1442422086041,401,424,0,0,0,2,1,1,21,0002-00-0005-45.png,0001-00-0002-23.png
00000014,522,1,1442422089064,1442422089072,492,415,0,0,0,3,4,1,34,0003-00-0007-11.png,0004-00-0006-47.png
00000014,523,0,1442422090009,1442422090523,879,401,0,0,0,1,2,1,12,0001-00-0002-28.png,0002-00-0004-04.png
00000014,524,0,1442422093374,1442422093851,339,486,0,0,0,5,4,1,54,0005-00-0005-12.png,0004-00-0007-64.png
00000014,525,0,1442422097183,1442422097637,325,459,0,0,0,4,3,1,43,0004-00-0009-30.png,0003-00-0002-17.png
00000014,526,1,1442422100549,1442422101005,389,512,0,0,0,2,3,1,23,0002-00-0003-11.png,0003-00-0003-50.png
00000014,527,1,1442422102104,1442422102529,370,436,0,0,0,4,5,1,45,0004-00-0008-24.png,0005-00-0006-68.png
00000014,528,1,1442422103604,1442422104187,876,393,0,0,0,3,2,1,32,0003-00-0008-41.png,0002-00-0009-91.png
00000014,529,1,1442422105215,1442422105765,319,423,0,0,0,2,3,1,23,0002-00-0006-69.png,0003-00-0002-04.png
00000014,530,1,1442422106884,1442422107399,318,451,0,0,0,1,2,1,12,0001-00-0008-41.png,0002-00-0006-40.png
00000014,531,0,1442422108434,1442422109008,354,401,0,0,0,2,1,1,21,0002-00-0007-50.png,0001-00-0001-70.png
00000014,532,1,1442422112253,1442422112743,876,434,0,0,0,3,2,1,32,0003-00-0005-52.png,0002-00-0002-94.png
00000014,533,0,1442422113741,1442422114728,376,401,0,0,0,5,4,1,54,0005-00-0002-53.png,0004-00-0004-55.png
00000014,534,1,1442422118013,1442422119040,309,408,0,0,0,3,4,1,34,0003-00-0008-54.png,0004-00-0001-51.png
00000014,535,1,1442422120161,1442422120668,356,437,0,0,0,4,5,1,45,0004-00-0009-94.png,0005-00-0008-12.png
00000014,536,0,1442422122132,1442422122607,401,423,0,0,0,4,3,1,43,0004-00-0008-90.png,0003-00-0009-03.png
00000014,537,0,1442422131432,1442422132005,238,488,0,0,0,5,4,1,54,0005-00-0000-89.png,0004-00-0007-46.png
00000014,538,1,1442422136163,1442422138059,927,503,0,0,0,3,2,1,32,0003-00-0005-55.png,0002-00-0009-81.png
00000014,539,0,1442422139971,1442422140466,325,397,0,0,0,4,3,1,43,0004-00-0000-47.png,0003-00-0001-24.png
00000014,540,1,1442422143358,1442422143774,408,401,0,0,0,4,5,1,45,0004-00-0002-75.png,0005-00-0005-41.png
00000014,541,1,1442422145009,1442422145499,861,424,0,0,0,2,1,1,21,0002-00-0001-56.png,0001-00-0003-42.png
00000014,542,0,1442422146570,1442422147135,876,409,0,0,0,3,4,1,34,0003-00-0001-57.png,0004-00-0005-65.png
00000014,543,0,1442422155449,1442422155928,903,435,0,0,0,2,3,1,23,0002-00-0005-08.png,0003-00-0000-41.png
00000014,544,1,1442422158908,1442422158916,492,332,0,0,0,1,2,1,12,0001-00-0000-68.png,0002-00-0000-56.png
00000014,545,1,1442422160222,1442422160740,401,384,0,0,0,1,2,1,12,0001-00-0009-28.png,0002-00-0001-37.png
00000014,546,0,1442422161871,1442422162426,403,431,0,0,0,5,4,1,54,0005-00-0003-18.png,0004-00-0009-66.png
00000014,547,1,1442422166470,1442422166912,432,511,0,0,0,2,3,1,23,0002-00-0003-46.png,0003-00-0002-96.png
00000014,548,1,1442422168162,1442422168678,867,508,0,0,0,2,1,1,21,0002-00-0003-08.png,0001-00-0002-60.png
00000014,549,0,1442422170139,1442422170633,338,423,0,0,0,4,3,1,43,0004-00-0007-11.png,0003-00-0000-44.png
00000014,550,0,1442422174125,1442422174740,881,488,0,0,0,3,4,1,34,0003-00-0001-79.png,0004-00-0007-21.png
00000014,551,1,1442422177833,1442422178264,459,443,0,0,0,4,5,1,45,0004-00-0001-31.png,0005-00-0004-00.png
00000014,552,0,1442422179583,1442422180066,363,439,0,0,0,3,2,1,32,0003-00-0002-34.png,0002-00-0008-70.png
00000014,553,0,1442422183605,1442422184091,339,410,0,0,0,4,3,1,43,0004-00-0001-99.png,0003-00-0006-68.png
00000014,554,1,1442422187393,1442422187833,316,415,0,0,0,2,3,1,23,0002-00-0009-52.png,0003-00-0006-27.png
00000014,555,1,1442422188998,1442422189496,337,423,0,0,0,1,2,1,12,0001-00-0001-91.png,0002-00-0003-06.png
00000014,556,0,1442422190466,1442422191025,390,412,0,0,0,3,2,1,32,0003-00-0007-31.png,0002-00-0003-55.png
00000014,557,0,1442422196623,1442422197133,876,438,0,0,0,3,4,1,34,0003-00-0008-36.png,0004-00-0006-38.png
00000014,558,1,1442422202507,1442422203031,419,393,0,0,0,4,5,1,45,0004-00-0004-91.png,0005-00-0003-69.png
00000014,559,0,1442422204316,1442422205326,412,407,0,0,0,5,4,1,54,0005-00-0007-11.png,0004-00-0006-16.png
00000014,560,0,1442422208732,1442422209266,401,414,0,0,0,2,1,1,21,0002-00-0006-90.png,0001-00-0000-17.png
00000014,561,0,1442422212893,1442422213419,882,515,0,0,0,1,2,1,12,0001-00-0003-99.png,0002-00-0003-10.png
00000014,562,1,1442422216453,1442422216933,902,408,0,0,0,5,4,1,54,0005-00-0002-61.png,0004-00-0001-08.png
00000014,563,1,1442422218193,1442422218682,413,397,0,0,0,3,4,1,34,0003-00-0005-74.png,0004-00-0003-01.png
00000014,564,0,1442422219784,1442422220329,273,488,0,0,0,3,2,1,32,0003-00-0000-60.png,0002-00-0009-76.png
00000014,565,0,1442422223170,1442422223727,453,428,0,0,0,2,1,1,21,0002-00-0008-73.png,0001-00-0005-30.png
00000014,566,1,1442422229884,1442422230335,401,410,0,0,0,2,3,1,23,0002-00-0006-29.png,0003-00-0008-58.png
00000014,567,0,1442422231719,1442422232299,333,442,0,0,0,4,3,1,43,0004-00-0005-92.png,0003-00-0003-52.png
00000014,568,0,1442422237235,1442422237723,876,433,0,0,0,4,5,1,45,0004-00-0004-93.png,0005-00-0006-47.png
00000014,569,0,1442422241043,1442422241511,393,402,0,0,0,5,4,1,54,0005-00-0005-96.png,0004-00-0005-16.png
00000014,570,1,1442422245792,1442422246344,875,488,0,0,0,2,1,1,21,0002-00-0003-69.png,0001-00-0008-37.png
00000014,571,0,1442422247403,1442422247972,337,450,0,0,0,4,3,1,43,0004-00-0004-89.png,0003-00-0007-11.png
00000014,572,1,1442422251030,1442422251502,339,402,0,0,0,2,3,1,23,0002-00-0007-41.png,0003-00-0006-42.png
00000014,573,0,1442422252809,1442422253329,863,459,0,0,0,3,4,1,34,0003-00-0002-50.png,0004-00-0002-51.png
00000014,574,0,1442422256764,1442422257269,376,438,0,0,0,3,2,1,32,0003-00-0000-93.png,0002-00-0001-22.png
00000014,575,1,1442422260233,1442422260723,345,385,0,0,0,4,5,1,45,0004-00-0007-60.png,0005-00-0001-08.png
00000014,576,1,1442422261983,1442422262568,379,407,0,0,0,1,2,1,12,0001-00-0009-07.png,0002-00-0004-79.png
00000014,577,1,1442422263682,1442422264197,875,409,0,0,0,3,2,1,32,0003-00-0004-96.png,0002-00-0006-20.png
00000014,578,1,1442422265385,1442422265947,887,398,0,0,0,4,3,1,43,0004-00-0007-69.png,0003-00-0004-12.png
00000014,579,0,1442422267012,1442422268047,401,384,0,0,0,5,4,1,54,0005-00-0009-16.png,0004-00-0005-06.png
00000014,580,1,1442422271193,1442422271677,390,476,0,0,0,2,3,1,23,0002-00-0006-47.png,0003-00-0002-83.png
00000014,581,1,1442422272918,1442422273461,315,456,0,0,0,1,2,1,12,0001-00-0003-81.png,0002-00-0008-48.png
00000014,582,1,1442422274443,1442422275021,427,427,0,0,0,3,4,1,34,0003-00-0005-17.png,0004-00-0007-24.png
00000014,583,1,1442422276087,1442422276567,312,424,0,0,0,4,5,1,45,0004-00-0005-20.png,0005-00-0000-51.png
00000014,584,0,1442422277957,1442422278449,325,429,0,0,0,2,1,1,21,0002-00-0002-05.png,0001-00-0003-87.png
00000014,585,1,1442422281569,1442422282026,869,393,0,0,0,4,3,1,43,0004-00-0000-85.png,0003-00-0003-80.png
00000014,586,1,1442422283324,1442422283820,888,398,0,0,0,2,1,1,21,0002-00-0008-09.png,0001-00-0006-55.png
00000014,587,1,1442422284914,1442422285362,379,449,0,0,0,4,5,1,45,0004-00-0005-15.png,0005-00-0000-20.png
00000014,588,1,1442422286407,1442422286909,389,436,0,0,0,1,2,1,12,0001-00-0004-78.png,0002-00-0001-50.png
00000014,589,1,1442422287885,1442422288865,926,423,0,0,0,3,2,1,32,0003-00-0000-50.png,0002-00-0003-89.png
00000014,590,1,1442422289813,1442422290315,453,462,0,0,0,2,3,1,23,0002-00-0002-25.png,0003-00-0005-85.png
00000014,591,0,1442422291303,1442422291845,876,435,0,0,0,3,4,1,34,0003-00-0009-33.png,0004-00-0004-28.png
00000014,592,1,1442422294921,1442422295406,930,403,0,0,0,5,4,1,54,0005-00-0000-03.png,0004-00-0005-01.png
00000014,593,0,1442422296332,1442422297035,903,390,0,0,0,1,2,1,12,0001-00-0001-20.png,0002-00-0000-92.png
00000014,594,0,1442422299989,1442422300498,417,413,0,0,0,3,2,1,32,0003-00-0008-03.png,0002-00-0006-27.png
00000014,595,0,1442422304084,1442422304593,874,435,0,0,0,4,5,1,45,0004-00-0009-03.png,0005-00-0005-22.png
00000014,596,0,1442422307541,1442422307955,427,410,0,0,0,2,1,1,21,0002-00-0004-36.png,0001-00-0007-33.png
00000014,597,1,1442422316903,1442422317366,325,449,0,0,0,3,4,1,34,0003-00-0007-01.png,0004-00-0001-31.png
00000014,598,0,1442422318542,1442422319127,389,514,0,0,0,5,4,1,54,0005-00-0002-13.png,0004-00-0003-89.png
00000014,599,0,1442422321977,1442422322001,521,422,0,0,0,4,3,1,43,0004-00-0002-43.png,0003-00-0004-51.png
00000014,600,0,1442422325102,1442422325612,902,421,0,0,0,2,3,1,23,0002-00-0000-95.png,0003-00-0008-66.png
00000014,601,1,1442422330269,1442422330709,401,436,0,0,0,3,4,1,34,0003-00-0008-51.png,0004-00-0007-80.png
00000014,602,1,1442422331647,1442422332599,401,412,0,0,0,1,2,1,12,0001-00-0004-17.png,0002-00-0005-75.png
00000014,603,1,1442422333709,1442422334134,337,430,0,0,0,4,5,1,45,0004-00-0001-21.png,0005-00-0002-06.png
00000014,604,1,1442422335069,1442422335544,387,449,0,0,0,2,3,1,23,0002-00-0006-58.png,0003-00-0000-86.png
00000014,605,0,1442422336544,1442422337149,396,411,0,0,0,4,3,1,43,0004-00-0007-03.png,0003-00-0001-14.png
00000014,606,0,1442422356002,1442422356368,368,389,0,0,0,2,1,1,21,0002-00-0004-22.png,0001-00-0002-26.png
00000014,607,0,1442422360812,1442422362000,393,427,0,0,0,3,2,1,32,0003-00-0001-13.png,0002-00-0006-23.png
00000014,608,1,1442422368270,1442422368753,861,474,0,0,0,5,4,1,54,0005-00-0004-67.png,0004-00-0008-63.png
00000014,609,0,1442422369970,1442422370513,325,397,0,0,0,3,2,1,32,0003-00-0001-66.png,0002-00-0008-44.png
00000014,610,0,1442422374679,1442422375095,375,385,0,0,0,2,1,1,21,0002-00-0000-91.png,0001-00-0006-68.png
00000014,611,1,1442422379221,1442422379646,359,410,0,0,0,1,2,1,12,0001-00-0008-74.png,0002-00-0001-33.png
00000014,612,1,1442422380801,1442422381256,392,428,0,0,0,4,5,1,45,0004-00-0001-85.png,0005-00-0008-48.png
00000014,613,1,1442422382492,1442422382966,427,410,0,0,0,2,3,1,23,0002-00-0008-17.png,0003-00-0003-37.png
00000014,614,0,1442422383952,1442422384466,888,410,0,0,0,3,4,1,34,0003-00-0006-84.png,0004-00-0006-30.png
00000014,615,0,1442422391090,1442422391580,303,435,0,0,0,5,4,1,54,0005-00-0004-97.png,0004-00-0009-87.png
00000014,616,1,1442422395205,1442422395751,864,527,0,0,0,4,3,1,43,0004-00-0008-60.png,0003-00-0002-25.png
00000014,617,1,1442422396909,1442422397423,337,403,0,0,0,2,3,1,23,0002-00-0003-41.png,0003-00-0006-59.png
00000014,618,0,1442422398439,1442422398918,880,401,0,0,0,3,4,1,34,0003-00-0000-02.png,0004-00-0006-41.png
00000014,619,1,1442422402542,1442422403018,340,443,0,0,0,1,2,1,12,0001-00-0003-17.png,0002-00-0004-33.png
00000014,620,0,1442422404154,1442422404620,342,453,0,0,0,4,3,1,43,0004-00-0009-08.png,0003-00-0008-49.png
00000014,621,1,1442422407730,1442422408164,427,410,0,0,0,4,5,1,45,0004-00-0000-34.png,0005-00-0004-84.png
00000014,622,0,1442422409304,1442422409823,391,432,0,0,0,3,2,1,32,0003-00-0009-40.png,0002-00-0001-12.png
00000014,623,0,1442422412689,1442422412721,486,419,0,0,0,2,1,1,21,0002-00-0009-28.png,0001-00-0001-68.png
00000014,624,0,1442422416469,1442422416982,422,488,0,0,0,5,4,1,54,0005-00-0009-08.png,0004-00-0007-25.png
00000014,625,0,1442422420356,1442422420886,905,402,0,0,0,1,2,1,12,0001-00-0003-48.png,0002-00-0004-84.png
00000014,626,1,1442422424140,1442422424605,431,493,0,0,0,2,3,1,23,0002-00-0002-65.png,0003-00-0000-99.png
00000014,627,1,1442422425922,1442422426634,888,436,0,0,0,3,2,1,32,0003-00-0007-68.png,0002-00-0003-15.png
00000014,628,0,1442422427749,1442422428205,427,488,0,0,0,4,3,1,43,0004-00-0002-29.png,0003-00-0009-46.png
00000014,629,1,1442422431206,1442422431246,491,438,0,0,0,3,4,1,34,0003-00-0001-73.png,0004-00-0002-78.png
00000014,630,0,1442422432150,1442422433081,494,438,0,0,0,5,4,1,54,0005-00-0003-09.png,0004-00-0006-54.png
00000014,631,1,1442422437478,1442422437913,409,428,0,0,0,4,5,1,45,0004-00-0009-42.png,0005-00-0003-46.png
00000014,632,1,1442422438998,1442422439569,901,383,0,0,0,2,1,1,21,0002-00-0008-66.png,0001-00-0000-95.png
00000014,633,1,1442422440737,1442422441297,434,401,0,0,0,2,3,1,23,0002-00-0005-60.png,0003-00-0001-68.png
00000014,634,0,1442422442388,1442422442927,400,419,0,0,0,4,3,1,43,0004-00-0000-38.png,0003-00-0002-04.png
00000014,635,1,1442422447667,1442422448158,927,440,0,0,0,2,1,1,21,0002-00-0007-11.png,0001-00-0000-29.png
00000014,636,1,1442422449325,1442422449864,886,437,0,0,0,3,2,1,32,0003-00-0000-53.png,0002-00-0008-99.png
00000014,637,1,1442422451105,1442422452138,864,410,0,0,0,5,4,1,54,0005-00-0009-23.png,0004-00-0002-35.png
00000014,638,1,1442422453507,1442422454038,248,507,0,0,0,1,2,1,12,0001-00-0000-66.png,0002-00-0008-06.png
00000014,639,1,1442422455045,1442422455541,418,453,0,0,0,4,5,1,45,0004-00-0008-10.png,0005-00-0004-05.png
00000014,640,1,1442422456770,1442422457243,427,488,0,0,0,3,4,1,34,0003-00-0003-90.png,0004-00-0001-40.png
00000014,641,0,1442422458191,1442422459179,355,423,0,0,0,2,1,1,21,0002-00-0007-38.png,0001-00-0001-51.png
00000014,642,0,1442422462001,1442422462033,472,441,0,0,0,5,4,1,54,0005-00-0003-77.png,0004-00-0004-54.png
00000014,643,0,1442422465916,1442422466462,857,392,0,0,0,2,3,1,23,0002-00-0008-95.png,0003-00-0007-42.png
00000014,644,0,1442422470059,1442422470457,358,418,0,0,0,4,3,1,43,0004-00-0000-21.png,0003-00-0008-78.png
00000014,645,1,1442422473676,1442422474102,407,378,0,0,0,1,2,1,12,0001-00-0005-06.png,0002-00-0007-57.png
00000014,646,1,1442422475186,1442422475647,379,462,0,0,0,4,5,1,45,0004-00-0009-68.png,0005-00-0004-72.png
00000014,647,1,1442422476777,1442422477236,444,454,0,0,0,3,4,1,34,0003-00-0004-82.png,0004-00-0001-00.png
00000014,648,0,1442422478239,1442422478781,443,462,0,0,0,3,2,1,32,0003-00-0009-67.png,0002-00-0002-75.png
00000014,649,1,1442422483306,1442422483764,375,424,0,0,0,3,4,1,34,0003-00-0001-15.png,0004-00-0008-41.png
00000014,650,1,1442422484906,1442422485391,883,419,0,0,0,2,1,1,21,0002-00-0008-99.png,0001-00-0009-75.png
00000014,651,1,1442422486378,1442422486879,874,429,0,0,0,4,3,1,43,0004-00-0003-75.png,0003-00-0000-98.png
00000014,652,1,1442422487805,1442422488357,906,388,0,0,0,5,4,1,54,0005-00-0000-65.png,0004-00-0002-17.png
00000014,653,1,1442422489267,1442422489860,400,405,0,0,0,2,3,1,23,0002-00-0000-96.png,0003-00-0002-69.png
00000014,654,0,1442422490988,1442422491537,401,398,0,0,0,3,2,1,32,0003-00-0004-26.png,0002-00-0000-50.png
00000014,655,1,1442422494406,1442422494792,383,401,0,0,0,1,2,1,12,0001-00-0002-67.png,0002-00-0002-80.png
00000014,656,0,1442422495807,1442422496353,880,415,0,0,0,4,5,1,45,0004-00-0001-72.png,0005-00-0005-85.png
00000014,657,1,1442422499576,1442422500043,418,491,0,0,0,4,5,1,45,0004-00-0002-65.png,0005-00-0003-40.png
00000014,658,1,1442422500977,1442422501584,370,447,0,0,0,3,4,1,34,0003-00-0005-55.png,0004-00-0003-89.png
00000014,659,1,1442422502516,1442422503085,888,423,0,0,0,5,4,1,54,0005-00-0007-82.png,0004-00-0006-19.png
00000014,660,1,1442422503985,1442422504520,432,543,0,0,0,1,2,1,12,0001-00-0001-55.png,0002-00-0001-11.png
00000014,661,0,1442422505584,1442422506138,414,410,0,0,0,2,1,1,21,0002-00-0006-15.png,0001-00-0003-63.png
00000014,662,1,1442422510486,1442422511014,909,486,0,0,0,4,3,1,43,0004-00-0008-61.png,0003-00-0000-43.png
00000014,663,1,1442422512016,1442422512602,418,508,0,0,0,2,3,1,23,0002-00-0001-64.png,0003-00-0007-31.png
00000014,664,0,1442422513516,1442422514475,415,497,0,0,0,3,2,1,32,0003-00-0009-69.png,0002-00-0009-59.png
00000014,665,0,1442422517439,1442422517940,344,421,0,0,0,4,3,1,43,0004-00-0006-74.png,0003-00-0003-42.png
00000014,666,1,1442422521258,1442422521711,350,410,0,0,0,1,2,1,12,0001-00-0001-41.png,0002-00-0008-55.png
00000014,667,1,1442422522742,1442422523241,342,451,0,0,0,2,3,1,23,0002-00-0006-16.png,0003-00-0007-12.png
00000014,668,0,1442422524189,1442422524652,388,462,0,0,0,2,1,1,21,0002-00-0002-56.png,0001-00-0005-01.png
00000014,669,1,1442422527928,1442422528369,952,410,0,0,0,3,2,1,32,0003-00-0001-04.png,0002-00-0003-67.png
00000014,670,0,1442422529490,1442422530036,399,426,0,0,0,5,4,1,54,0005-00-0009-92.png,0004-00-0000-43.png
00000014,671,1,1442422533842,1442422534340,389,443,0,0,0,4,5,1,45,0004-00-0009-21.png,0005-00-0000-38.png
00000014,672,1,1442422535426,1442422535897,397,430,0,0,0,3,4,1,34,0003-00-0004-36.png,0004-00-0003-81.png
00000014,673,1,1442422536814,1442422537357,862,424,0,0,0,5,4,1,54,0005-00-0001-61.png,0004-00-0000-62.png
00000014,674,0,1442422538187,1442422538826,478,462,0,0,0,2,1,1,21,0002-00-0009-25.png,0001-00-0005-38.png
00000014,675,0,1442422545083,1442422545505,413,542,0,0,0,3,2,1,32,0003-00-0001-75.png,0002-00-0003-23.png
00000014,676,1,1442422552308,1442422552759,350,430,0,0,0,2,3,1,23,0002-00-0004-68.png,0003-00-0001-52.png
00000014,677,1,1442422553663,1442422554249,436,546,0,0,0,4,5,1,45,0004-00-0004-36.png,0005-00-0000-83.png
00000014,678,1,1442422555096,1442422555873,882,427,0,0,0,4,3,1,43,0004-00-0005-52.png,0003-00-0008-71.png
00000014,679,1,1442422556731,1442422557218,339,423,0,0,0,1,2,1,12,0001-00-0007-85.png,0002-00-0006-17.png
00000014,680,1,1442422558435,1442422559389,372,435,0,0,0,3,4,1,34,0003-00-0009-55.png,0004-00-0001-80.png
00000014,681,0,1442422560592,1442422561600,876,476,0,0,0,1,2,1,12,0001-00-0002-08.png,0002-00-0005-96.png
00000014,682,1,1442422567361,1442422567892,964,373,0,0,0,5,4,1,54,0005-00-0006-35.png,0004-00-0009-42.png
00000014,683,1,1442422568993,1442422569490,305,398,0,0,0,3,4,1,34,0003-00-0004-39.png,0004-00-0007-51.png
00000014,684,0,1442422570399,1442422570924,323,457,0,0,0,3,2,1,32,0003-00-0002-56.png,0002-00-0001-94.png
00000014,685,0,1442422574328,1442422574861,350,421,0,0,0,4,3,1,43,0004-00-0006-85.png,0003-00-0006-32.png
00000014,686,1,1442422577983,1442422578489,316,427,0,0,0,4,5,1,45,0004-00-0007-69.png,0005-00-0009-85.png
00000014,687,0,1442422579494,1442422580055,304,457,0,0,0,2,1,1,21,0002-00-0004-43.png,0001-00-0007-77.png
00000014,688,1,1442422584234,1442422584657,441,423,0,0,0,2,3,1,23,0002-00-0007-65.png,0003-00-0004-57.png
00000014,689,1,1442422585706,1442422586616,412,415,0,0,0,3,4,1,34,0003-00-0009-27.png,0004-00-0009-16.png
00000014,690,1,1442422587675,1442422588228,347,465,0,0,0,1,2,1,12,0001-00-0001-77.png,0002-00-0008-82.png
00000014,691,1,1442422589470,1442422589934,876,410,0,0,0,2,1,1,21,0002-00-0005-06.png,0001-00-0008-15.png
00000014,692,1,1442422590993,1442422591459,409,419,0,0,0,2,3,1,23,0002-00-0000-52.png,0003-00-0005-43.png
00000014,693,0,1442422592314,1442422592860,350,454,0,0,0,5,4,1,54,0005-00-0007-27.png,0004-00-0004-05.png
00000014,694,1,1442422595792,1442422595818,514,441,0,0,0,4,5,1,45,0004-00-0007-86.png,0005-00-0003-99.png
00000014,695,1,1442422596698,1442422597231,863,397,0,0,0,3,2,1,32,0003-00-0001-82.png,0002-00-0006-87.png
00000014,696,1,1442422598170,1442422598746,900,422,0,0,0,4,3,1,43,0004-00-0001-92.png,0003-00-0006-31.png
00000014,697,1,1442422599649,1442422600251,386,431,0,0,0,2,3,1,23,0002-00-0009-34.png,0003-00-0005-33.png
00000014,698,1,1442422601119,1442422601736,343,427,0,0,0,3,4,1,34,0003-00-0004-05.png,0004-00-0006-00.png
00000014,699,0,1442422602610,1442422603213,443,520,0,0,0,3,2,1,32,0003-00-0009-51.png,0002-00-0009-82.png
00000014,700,1,1442422606746,1442422607239,903,389,0,0,0,4,3,1,43,0004-00-0009-60.png,0003-00-0008-67.png
00000014,701,0,1442422608456,1442422608920,366,553,0,0,0,2,1,1,21,0002-00-0009-61.png,0001-00-0000-23.png
00000014,702,1,1442422612023,1442422612475,438,381,0,0,0,4,5,1,45,0004-00-0008-61.png,0005-00-0000-41.png
00000014,703,1,1442422613484,1442422614021,877,423,0,0,0,5,4,1,54,0005-00-0008-82.png,0004-00-0006-73.png
00000014,704,1,1442422614952,1442422615471,317,420,0,0,0,1,2,1,12,0001-00-0000-25.png,0002-00-0005-08.png
00000014,705,1,1442422616343,1442422617985,859,417,0,0,0,5,4,1,54,0005-00-0006-34.png,0004-00-0007-71.png
00000014,706,1,1442422618862,1442422619444,347,422,0,0,0,2,3,1,23,0002-00-0007-86.png,0003-00-0002-56.png
00000014,707,1,1442422620710,1442422621686,902,423,0,0,0,2,1,1,21,0002-00-0006-27.png,0001-00-0004-51.png
00000014,708,1,1442422622806,1442422623410,340,431,0,0,0,4,5,1,45,0004-00-0006-37.png,0005-00-0008-66.png
00000014,709,0,1442422624592,1442422625072,431,555,0,0,0,4,3,1,43,0004-00-0004-80.png,0003-00-0002-78.png
00000014,710,0,1442422628829,1442422629305,901,397,0,0,0,3,4,1,34,0003-00-0006-59.png,0004-00-0005-67.png
00000014,711,0,1442422632340,1442422633277,343,385,0,0,0,3,2,1,32,0003-00-0003-81.png,0002-00-0000-77.png
00000014,712,1,1442422636831,1442422637334,362,457,0,0,0,1,2,1,12,0001-00-0002-64.png,0002-00-0001-00.png
00000014,713,1,1442422638311,1442422639309,879,410,0,0,0,2,1,1,21,0002-00-0003-62.png,0001-00-0000-36.png
00000014,714,1,1442422640466,1442422640974,362,451,0,0,0,4,5,1,45,0004-00-0005-80.png,0005-00-0001-47.png
00000014,715,1,1442422641928,1442422642825,422,409,0,0,0,1,2,1,12,0001-00-0007-96.png,0002-00-0006-17.png
00000014,716,1,1442422643755,1442422644268,901,436,0,0,0,3,2,1,32,0003-00-0000-02.png,0002-00-0008-18.png
00000014,717,0,1442422645177,1442422645762,382,393,0,0,0,4,3,1,43,0004-00-0004-71.png,0003-00-0000-08.png
00000014,718,1,1442422649731,1442422650142,369,425,0,0,0,3,4,1,34,0003-00-0004-15.png,0004-00-0008-96.png
00000014,719,1,1442422651257,1442422651798,858,544,0,0,0,5,4,1,54,0005-00-0004-13.png,0004-00-0007-62.png
00000014,720,0,1442422652791,1442422653276,879,428,0,0,0,2,3,1,23,0002-00-0004-95.png,0003-00-0000-37.png
00000014,721,1,1442422659711,1442422660232,919,436,0,0,0,2,1,1,21,0002-00-0002-14.png,0001-00-0009-20.png
00000014,722,1,1442422661393,1442422661908,378,476,0,0,0,3,4,1,34,0003-00-0002-49.png,0004-00-0008-65.png
00000014,723,0,1442422662802,1442422663316,364,471,0,0,0,4,3,1,43,0004-00-0002-68.png,0003-00-0007-47.png
00000014,724,1,1442422666969,1442422667444,343,469,0,0,0,2,3,1,23,0002-00-0003-99.png,0003-00-0004-49.png
00000014,725,0,1442422668723,1442422669720,893,394,0,0,0,1,2,1,12,0001-00-0009-01.png,0002-00-0006-55.png
00000014,726,1,1442422672730,1442422673233,905,401,0,0,0,5,4,1,54,0005-00-0007-25.png,0004-00-0001-22.png
00000014,727,1,1442422674761,1442422675215,427,422,0,0,0,4,5,1,45,0004-00-0005-33.png,0005-00-0002-77.png
00000014,728,0,1442422676263,1442422677119,420,403,0,0,0,3,2,1,32,0003-00-0009-67.png,0002-00-0004-06.png
00000014,729,1,1442422681827,1442422682569,415,436,0,0,0,4,5,1,45,0004-00-0006-58.png,0005-00-0008-73.png
00000014,730,0,1442422684070,1442422684555,401,410,0,0,0,4,3,1,43,0004-00-0002-56.png,0003-00-0001-75.png
00000014,731,0,1442422687719,1442422688311,414,417,0,0,0,2,1,1,21,0002-00-0007-38.png,0001-00-0003-77.png
00000014,732,1,1442422691209,1442422691567,413,398,0,0,0,2,3,1,23,0002-00-0002-72.png,0003-00-0001-58.png
00000014,733,0,1442422692648,1442422693130,448,494,0,0,0,3,2,1,32,0003-00-0002-57.png,0002-00-0009-73.png
00000014,734,0,1442422697041,1442422697503,881,400,0,0,0,3,4,1,34,0003-00-0000-99.png,0004-00-0000-98.png
00000014,735,0,1442422701532,1442422702011,876,502,0,0,0,1,2,1,12,0001-00-0002-08.png,0002-00-0003-43.png
00000014,736,1,1442422705090,1442422705553,902,410,0,0,0,5,4,1,54,0005-00-0002-94.png,0004-00-0005-05.png
00000014,737,0,1442422706736,1442422707405,934,400,0,0,0,3,4,1,34,0003-00-0009-11.png,0004-00-0006-79.png
00000014,738,1,1442422710498,1442422711008,907,427,0,0,0,5,4,1,54,0005-00-0000-24.png,0004-00-0006-53.png
00000014,739,1,1442422711969,1442422712451,358,400,0,0,0,2,3,1,23,0002-00-0004-77.png,0003-00-0002-19.png
00000014,740,0,1442422713369,1442422714328,405,516,0,0,0,4,3,1,43,0004-00-0000-05.png,0003-00-0000-96.png
00000014,741,0,1442422721600,1442422722057,903,439,0,0,0,4,5,1,45,0004-00-0003-36.png,0005-00-0008-59.png
00000014,742,1,1442422724899,1442422725401,926,475,0,0,0,3,2,1,32,0003-00-0009-28.png,0002-00-0006-84.png
00000014,743,1,1442422726282,1442422726803,926,449,0,0,0,2,1,1,21,0002-00-0007-87.png,0001-00-0006-55.png
00000014,744,0,1442422727934,1442422728441,880,427,0,0,0,1,2,1,12,0001-00-0005-44.png,0002-00-0006-32.png
00000014,745,0,1442422732226,1442422732638,401,424,0,0,0,4,3,1,43,0004-00-0000-23.png,0003-00-0008-73.png
00000014,746,1,1442422736996,1442422737468,341,450,0,0,0,2,3,1,23,0002-00-0006-83.png,0003-00-0004-98.png
00000014,747,1,1442422738549,1442422739023,288,415,0,0,0,1,2,1,12,0001-00-0000-20.png,0002-00-0007-61.png
00000014,748,1,1442422739996,1442422740523,325,421,0,0,0,3,4,1,34,0003-00-0003-62.png,0004-00-0002-37.png
00000014,749,1,1442422741727,1442422742245,362,431,0,0,0,4,5,1,45,0004-00-0005-43.png,0005-00-0000-30.png
00000014,750,1,1442422743198,1442422743778,881,444,0,0,0,2,1,1,21,0002-00-0009-12.png,0001-00-0008-32.png
00000014,751,0,1442422744708,1442422745262,361,449,0,0,0,5,4,1,54,0005-00-0002-87.png,0004-00-0006-76.png
00000014,752,1,1442422748306,1442422748807,883,446,0,0,0,3,2,1,32,0003-00-0006-33.png,0002-00-0003-23.png
00000014,753,1,1442422749836,1442422750315,361,462,0,0,0,1,2,1,12,0001-00-0003-33.png,0002-00-0007-91.png
00000014,754,1,1442422751315,1442422751814,307,444,0,0,0,4,5,1,45,0004-00-0003-05.png,0005-00-0009-55.png
00000014,755,1,1442422752687,1442422753312,875,449,0,0,0,2,1,1,21,0002-00-0002-40.png,0001-00-0009-55.png
00000014,756,1,1442422754219,1442422754731,877,440,0,0,0,3,2,1,32,0003-00-0001-73.png,0002-00-0000-59.png
00000014,757,1,1442422755641,1442422756136,427,449,0,0,0,2,3,1,23,0002-00-0006-57.png,0003-00-0001-03.png
00000014,758,0,1442422757072,1442422757971,417,413,0,0,0,5,4,1,54,0005-00-0006-21.png,0004-00-0009-31.png
00000014,759,0,1442422761145,1442422761625,869,418,0,0,0,3,4,1,34,0003-00-0000-20.png,0004-00-0000-27.png
00000014,760,0,1442422764702,1442422765155,369,427,0,0,0,4,3,1,43,0004-00-0008-00.png,0003-00-0009-43.png
00000014,761,1,1442422768969,1442422769538,912,502,0,0,0,3,2,1,32,0003-00-0003-36.png,0002-00-0008-06.png
00000014,762,0,1442422770658,1442422771243,875,501,0,0,0,3,4,1,34,0003-00-0008-31.png,0004-00-0002-94.png
00000014,763,0,1442422774164,1442422774728,413,370,0,0,0,4,3,1,43,0004-00-0005-51.png,0003-00-0004-72.png
00000014,764,0,1442422777590,1442422778091,900,548,0,0,0,2,3,1,23,0002-00-0006-53.png,0003-00-0009-05.png
00000014,765,1,1442422781720,1442422782173,339,417,0,0,0,4,5,1,45,0004-00-0002-52.png,0005-00-0003-71.png
00000014,766,1,1442422783220,1442422783680,305,436,0,0,0,1,2,1,12,0001-00-0003-31.png,0002-00-0002-49.png
00000014,767,0,1442422784721,1442422785663,422,434,0,0,0,5,4,1,54,0005-00-0004-21.png,0004-00-0007-36.png
00000014,768,0,1442422788636,1442422788644,472,376,0,0,0,2,1,1,21,0002-00-0005-72.png,0001-00-0006-36.png
00000014,769,1,1442422791737,1442422792213,951,437,0,0,0,2,1,1,21,0002-00-0001-68.png,0001-00-0000-58.png
00000014,770,1,1442422793190,1442422793744,416,547,0,0,0,4,5,1,45,0004-00-0001-81.png,0005-00-0001-74.png
00000014,771,1,1442422794655,1442422795298,860,473,0,0,0,5,4,1,54,0005-00-0007-15.png,0004-00-0003-12.png
00000014,772,1,1442422796617,1442422797110,360,413,0,0,0,1,2,1,12,0001-00-0004-70.png,0002-00-0001-12.png
00000014,773,0,1442422798225,1442422798764,248,506,0,0,0,4,3,1,43,0004-00-0001-54.png,0003-00-0002-26.png
00000014,774,1,1442422801626,1442422802000,440,449,0,0,0,2,3,1,23,0002-00-0009-33.png,0003-00-0001-43.png
00000014,775,0,1442422803089,1442422803615,865,451,0,0,0,3,4,1,34,0003-00-0002-65.png,0004-00-0006-58.png
00000014,776,0,1442422806782,1442422807275,456,473,0,0,0,3,2,1,32,0003-00-0004-79.png,0002-00-0000-32.png
00000014,777,1,1442422810242,1442422810796,953,408,0,0,0,3,2,1,32,0003-00-0003-07.png,0002-00-0007-36.png
00000014,778,1,1442422811734,1442422812283,278,555,0,0,0,4,5,1,45,0004-00-0007-25.png,0005-00-0005-51.png
00000014,779,0,1442422813385,1442422813897,901,440,0,0,0,3,4,1,34,0003-00-0006-52.png,0004-00-0000-24.png
00000014,780,1,1442422816762,1442422816802,504,448,0,0,0,2,3,1,23,0002-00-0006-35.png,0003-00-0001-32.png
00000014,781,1,1442422818043,1442422818520,393,428,0,0,0,1,2,1,12,0001-00-0001-63.png,0002-00-0001-55.png
00000014,782,1,1442422819496,1442422820040,875,437,0,0,0,4,3,1,43,0004-00-0004-34.png,0003-00-0005-92.png
00000014,783,1,1442422821006,1442422821588,881,402,0,0,0,5,4,1,54,0005-00-0003-63.png,0004-00-0003-79.png
00000014,784,0,1442422822557,1442422823536,308,418,0,0,0,2,1,1,21,0002-00-0008-30.png,0001-00-0009-36.png
00000014,785,0,1442422826424,1442422826910,901,436,0,0,0,2,3,1,23,0002-00-0004-62.png,0003-00-0008-71.png
00000014,786,1,1442422830251,1442422830844,900,502,0,0,0,2,1,1,21,0002-00-0007-62.png,0001-00-0005-22.png
00000014,787,1,1442422831936,1442422832457,318,425,0,0,0,4,5,1,45,0004-00-0000-16.png,0005-00-0003-86.png
00000014,788,0,1442422833539,1442422834064,868,431,0,0,0,3,4,1,34,0003-00-0004-00.png,0004-00-0004-27.png
00000014,789,1,1442422837165,1442422837550,420,437,0,0,0,1,2,1,12,0001-00-0007-97.png,0002-00-0000-75.png
00000014,790,1,1442422838545,1442422839114,858,438,0,0,0,4,3,1,43,0004-00-0001-05.png,0003-00-0002-08.png
00000014,791,0,1442422840068,1442422840570,374,448,0,0,0,5,4,1,54,0005-00-0005-49.png,0004-00-0004-87.png
00000014,792,1,1442422843797,1442422844270,867,492,0,0,0,3,2,1,32,0003-00-0002-80.png,0002-00-0008-66.png
00000014,793,1,1442422845306,1442422845828,394,463,0,0,0,1,2,1,12,0001-00-0009-72.png,0002-00-0008-40.png
00000014,794,1,1442422846749,1442422847311,874,412,0,0,0,5,4,1,54,0005-00-0009-36.png,0004-00-0008-70.png
00000014,795,1,1442422848296,1442422848892,338,449,0,0,0,4,5,1,45,0004-00-0008-27.png,0005-00-0000-33.png
00000014,796,1,1442422849817,1442422850777,465,423,0,0,0,3,4,1,34,0003-00-0003-04.png,0004-00-0003-69.png
00000014,797,1,1442422851707,1442422852759,896,420,0,0,0,2,1,1,21,0002-00-0001-78.png,0001-00-0008-24.png
00000014,798,1,1442422853704,1442422854261,875,423,0,0,0,3,2,1,32,0003-00-0000-42.png,0002-00-0005-05.png
00000014,799,1,1442422855263,1442422855782,427,423,0,0,0,2,3,1,23,0002-00-0006-31.png,0003-00-0008-48.png
00000014,800,0,1442422856681,1442422857234,453,449,0,0,0,4,3,1,43,0004-00-0003-23.png,0003-00-0003-64.png
