subject_id,trial,correct_response,stim_time,response_time,x_coord,y_coord,trial_timeout,timeout_time,interTrial_timeout,left_rank,right_rank,distance,joint_rank,left_image,right_image
00000014,1,1,1440000428987,1440000430058,356,369,0,0,0,4,5,1,45,0004-00-0003-03.png,0005-00-0006-48.png
00000014,2,1,1440000431305,1440000432025,975,501,0,0,0,5,4,1,54,0005-00-0002-96.png,0004-00-0006-07.png
00000014,3,0,1440000433143,1440000433738,921,523,0,0,0,1,2,1,12,0001-00-0007-60.png,0002-00-0001-30.png
00000014,4,1,1440000436782,1440000437243,325,387,0,0,0,2,3,1,23,0002-00-0008-82.png,0003-00-0000-99.png
00000014,5,0,1440000438258,1440000438713,377,424,0,0,0,3,2,1,32,0003-00-0007-31.png,0002-00-0008-46.png
00000014,6,0,1440000441699,1440000442344,939,456,0,0,0,3,4,1,34,0003-00-0007-62.png,0004-00-0000-80.png
00000014,7,1,1440000445463,1440000446042,937,441,0,0,0,4,3,1,43,0004-00-0008-24.png,0003-00-0004-53.png
00000014,8,1,1440000447132,1440000447708,898,365,0,0,0,2,1,1,21,0002-00-0009-62.png,0001-00-0003-32.png
00000014,9,1,1440000448781,1440000449335,912,465,0,0,0,3,2,1,32,0003-00-0004-50.png,0002-00-0003-88.png
00000014,10,0,1440000450417,1440000450903,376,414,0,0,0,2,1,1,21,0002-00-0000-24.png,0001-00-0007-39.png
00000014,11,1,1440000455920,1440000456423,905,376,0,0,0,5,4,1,54,0005-00-0007-02.png,0004-00-0000-14.png
00000014,12,1,1440000457429,1440000457924,371,396,0,0,0,2,3,1,23,0002-00-0000-70.png,0003-00-0004-57.png
00000014,13,1,1440000459053,1440000459537,333,386,0,0,0,1,2,1,12,0001-00-0006-89.png,0002-00-0006-63.png
00000014,14,0,1440000460510,1440000461003,322,393,0,0,0,4,3,1,43,0004-00-0002-45.png,0003-00-0005-92.png
00000014,15,1,1440000464009,1440000464033,492,410,0,0,0,4,5,1,45,0004-00-0000-70.png,0005-00-0005-29.png
00000014,16,1,1440000465173,1440000465757,305,396,0,0,0,3,4,1,34,0003-00-0005-88.png,0004-00-0003-88.png
00000014,17,0,1440000466905,1440000467450,899,475,0,0,0,4,5,1,45,0004-00-0007-27.png,0005-00-0009-92.png
00000014,18,0,1440000470669,1440000471122,363,403,0,0,0,3,2,1,32,0003-00-0002-75.png,0002-00-0009-85.png
00000014,19,0,1440000474117,1440000474586,375,436,0,0,0,4,3,1,43,0004-00-0007-85.png,0003-00-0005-78.png
00000014,20,1,1440000477815,1440000478340,344,419,0,0,0,3,4,1,34,0003-00-0005-71.png,0004-00-0009-37.png
00000014,21,0,1440000480022,1440000480518,371,508,0,0,0,5,4,1,54,0005-00-0006-66.png,0004-00-0004-78.png
00000014,22,0,1440000484045,1440000484660,927,396,0,0,0,2,3,1,23,0002-00-0008-61.png,0003-00-0003-08.png
00000014,23,0,1440000487768,1440000487994,514,562,0,0,0,2,1,1,21,0002-00-0005-17.png,0001-00-0007-69.png
00000014,24,1,1440000491191,1440000491771,324,403,0,0,0,1,2,1,12,0001-00-0009-81.png,0002-00-0005-96.png
00000014,25,1,1440000493663,1440000494187,906,380,0,0,0,3,2,1,32,0003-00-0007-81.png,0002-00-0001-74.png
00000014,26,1,1440000495772,1440000496337,901,514,0,0,0,5,4,1,54,0005-00-0008-25.png,0004-00-0003-86.png
00000014,27,1,1440000498623,1440000499095,340,400,0,0,0,2,3,1,23,0002-00-0003-79.png,0003-00-0000-04.png
00000014,28,1,1440000500561,1440000501131,891,561,0,0,0,4,3,1,43,0004-00-0001-69.png,0003-00-0000-17.png
00000014,29,0,1440000502629,1440000503131,331,409,0,0,0,2,1,1,21,0002-00-0002-09.png,0001-00-0007-36.png
00000014,30,0,1440000506218,1440000506696,903,467,0,0,0,3,4,1,34,0003-00-0008-02.png,0004-00-0001-81.png
00000014,31,1,1440000510273,1440000510743,318,413,0,0,0,4,5,1,45,0004-00-0009-13.png,0005-00-0007-44.png
00000014,32,1,1440000512509,1440000512963,320,419,0,0,0,1,2,1,12,0001-00-0009-35.png,0002-00-0002-86.png
00000014,33,0,1440000514355,1440000514903,281,411,0,0,0,4,3,1,43,0004-00-0006-15.png,0003-00-0003-66.png
00000014,34,0,1440000517915,1440000519005,329,442,0,0,0,5,4,1,54,0005-00-0003-37.png,0004-00-0001-97.png
00000014,35,1,1440000522179,1440000522655,288,430,0,0,0,2,3,1,23,0002-00-0001-06.png,0003-00-0000-10.png
00000014,36,0,1440000523747,1440000525377,964,398,0,0,0,1,2,1,12,0001-00-0000-84.png,0002-00-0007-29.png
00000014,37,1,1440000528696,1440000529211,873,477,0,0,0,2,1,1,21,0002-00-0000-21.png,0001-00-0009-32.png
00000014,38,1,1440000530339,1440000530819,327,403,0,0,0,3,4,1,34,0003-00-0000-41.png,0004-00-0001-91.png
00000014,39,1,1440000532138,1440000532680,934,380,0,0,0,3,2,1,32,0003-00-0008-78.png,0002-00-0000-57.png
00000014,40,1,1440000533779,1440000534309,335,494,0,0,0,4,5,1,45,0004-00-0005-58.png,0005-00-0001-67.png
00000014,41,1,1440000535597,1440000536048,359,428,0,0,0,4,5,1,45,0004-00-0006-85.png,0005-00-0009-00.png
00000014,42,1,1440000537414,1440000538471,887,364,0,0,0,2,1,1,21,0002-00-0007-58.png,0001-00-0000-41.png
00000014,43,1,1440000539642,1440000540121,872,469,0,0,0,4,3,1,43,0004-00-0006-75.png,0003-00-0008-69.png
00000014,44,0,1440000541541,1440000542087,906,362,0,0,0,1,2,1,12,0001-00-0003-68.png,0002-00-0006-47.png
00000014,45,0,1440000545414,1440000545876,303,427,0,0,0,3,2,1,32,0003-00-0009-88.png,0002-00-0007-98.png
00000014,46,0,1440000548951,1440000549423,361,510,0,0,0,5,4,1,54,0005-00-0009-43.png,0004-00-0001-02.png
00000014,47,1,1440000552512,1440000553018,286,410,0,0,0,2,3,1,23,0002-00-0004-50.png,0003-00-0008-98.png
00000014,48,1,1440000554806,1440000555290,359,524,0,0,0,3,4,1,34,0003-00-0005-94.png,0004-00-0005-68.png
00000014,49,0,1440000556597,1440000557083,289,432,0,0,0,3,2,1,32,0003-00-0005-23.png,0002-00-0005-31.png
00000014,50,0,1440000560246,1440000560807,943,379,0,0,0,3,4,1,34,0003-00-0002-36.png,0004-00-0003-17.png
00000014,51,1,1440000563993,1440000564562,939,388,0,0,0,5,4,1,54,0005-00-0009-88.png,0004-00-0006-91.png
00000014,52,1,1440000565971,1440000566473,868,389,0,0,0,4,3,1,43,0004-00-0009-59.png,0003-00-0005-98.png
00000014,53,1,1440000567862,1440000568387,305,399,0,0,0,1,2,1,12,0001-00-0002-63.png,0002-00-0000-68.png
00000014,54,1,1440000569509,1440000570032,318,401,0,0,0,2,3,1,23,0002-00-0003-79.png,0003-00-0003-52.png
00000014,55,1,1440000571140,1440000571704,873,482,0,0,0,2,1,1,21,0002-00-0008-94.png,0001-00-0009-72.png
00000014,56,0,1440000573315,1440000573794,928,420,0,0,0,4,5,1,45,0004-00-0006-79.png,0005-00-0002-99.png
00000014,57,0,1440000576687,1440000577180,340,393,0,0,0,4,3,1,43,0004-00-0005-89.png,0003-00-0008-33.png
00000014,58,0,1440000580186,1440000580206,440,408,0,0,0,2,1,1,21,0002-00-0003-34.png,0001-00-0007-60.png
00000014,59,1,1440000585641,1440000586223,325,476,0,0,0,4,5,1,45,0004-00-0000-96.png,0005-00-0005-37.png
00000014,60,1,1440000587272,1440000587811,310,381,0,0,0,2,3,1,23,0002-00-0000-32.png,0003-00-0003-75.png
00000014,61,0,1440000589646,1440000590087,319,424,0,0,0,5,4,1,54,0005-00-0004-95.png,0004-00-0000-01.png
00000014,62,0,1440000593440,1440000593924,380,483,0,0,0,3,2,1,32,0003-00-0002-56.png,0002-00-0002-61.png
00000014,63,1,1440000596760,1440000596784,422,441,0,0,0,3,4,1,34,0003-00-0000-84.png,0004-00-0002-60.png
00000014,64,1,1440000597906,1440000598441,283,393,0,0,0,1,2,1,12,0001-00-0005-09.png,0002-00-0005-63.png
00000014,65,1,1440000599477,1440000599999,890,399,0,0,0,2,1,1,21,0002-00-0005-68.png,0001-00-0000-04.png
00000014,66,1,1440000601283,1440000601914,935,358,0,0,0,3,2,1,32,0003-00-0004-19.png,0002-00-0000-54.png
00000014,67,1,1440000603660,1440000604149,905,376,0,0,0,4,3,1,43,0004-00-0003-54.png,0003-00-0007-85.png
00000014,68,1,1440000605300,1440000605887,346,381,0,0,0,2,3,1,23,0002-00-0005-31.png,0003-00-0002-68.png
00000014,69,1,1440000607455,1440000608034,893,375,0,0,0,5,4,1,54,0005-00-0009-47.png,0004-00-0000-16.png
00000014,70,1,1440000609446,1440000609988,340,379,0,0,0,3,4,1,34,0003-00-0003-06.png,0004-00-0000-60.png
00000014,71,0,1440000611124,1440000611727,902,409,0,0,0,1,2,1,12,0001-00-0007-37.png,0002-00-0006-70.png
00000014,72,1,1440000614638,1440000615164,399,384,0,0,0,4,5,1,45,0004-00-0005-80.png,0005-00-0008-58.png
00000014,73,1,1440000616247,1440000616841,896,393,0,0,0,2,1,1,21,0002-00-0009-83.png,0001-00-0002-38.png
00000014,74,0,1440000618668,1440000619167,862,358,0,0,0,3,4,1,34,0003-00-0003-67.png,0004-00-0000-25.png
00000014,75,1,1440000622435,1440000622926,316,376,0,0,0,1,2,1,12,0001-00-0002-71.png,0002-00-0000-50.png
00000014,76,1,1440000624135,1440000624705,902,391,0,0,0,5,4,1,54,0005-00-0001-10.png,0004-00-0008-04.png
00000014,77,1,1440000626193,1440000626698,341,493,0,0,0,2,3,1,23,0002-00-0006-28.png,0003-00-0002-97.png
00000014,78,1,1440000628232,1440000628833,913,384,0,0,0,4,3,1,43,0004-00-0005-47.png,0003-00-0009-06.png
00000014,79,0,1440000630635,1440000631667,311,397,0,0,0,3,2,1,32,0003-00-0008-68.png,0002-00-0009-21.png
00000014,80,1,1440000634649,1440000634689,419,410,0,0,0,4,5,1,45,0004-00-0005-57.png,0005-00-0003-35.png
00000014,81,0,1440000636211,1440000636761,268,393,0,0,0,4,3,1,43,0004-00-0000-32.png,0003-00-0002-60.png
00000014,82,1,1440000639667,1440000639739,401,399,0,0,0,2,3,1,23,0002-00-0001-93.png,0003-00-0009-31.png
00000014,83,1,1440000641161,1440000641679,886,385,0,0,0,3,2,1,32,0003-00-0004-73.png,0002-00-0005-55.png
00000014,84,1,1440000643569,1440000644069,318,387,0,0,0,1,2,1,12,0001-00-0005-07.png,0002-00-0002-43.png
00000014,85,1,1440000645852,1440000646382,919,389,0,0,0,2,1,1,21,0002-00-0000-34.png,0001-00-0001-40.png
00000014,86,0,1440000648130,1440000648632,911,416,0,0,0,3,4,1,34,0003-00-0007-32.png,0004-00-0002-38.png
00000014,87,1,1440000651916,1440000652372,315,367,0,0,0,4,5,1,45,0004-00-0001-17.png,0005-00-0006-03.png
00000014,88,1,1440000655160,1440000655690,900,427,0,0,0,5,4,1,54,0005-00-0002-08.png,0004-00-0001-94.png
00000014,89,0,1440000657722,1440000658228,355,479,0,0,0,5,4,1,54,0005-00-0007-38.png,0004-00-0009-29.png
00000014,90,0,1440000661626,1440000662082,875,435,0,0,0,1,2,1,12,0001-00-0001-14.png,0002-00-0008-61.png
00000014,91,1,1440000669410,1440000669930,924,483,0,0,0,2,1,1,21,0002-00-0001-84.png,0001-00-0009-29.png
00000014,92,1,1440000671792,1440000672347,350,448,0,0,0,4,5,1,45,0004-00-0007-80.png,0005-00-0005-41.png
00000014,93,0,1440000674237,1440000674337,486,430,0,0,0,4,3,1,43,0004-00-0001-70.png,0003-00-0003-80.png
00000014,94,1,1440000677267,1440000677335,401,394,0,0,0,2,3,1,23,0002-00-0008-07.png,0003-00-0001-23.png
00000014,95,0,1440000678723,1440000679249,875,371,0,0,0,3,4,1,34,0003-00-0005-99.png,0004-00-0005-49.png
00000014,96,0,1440000682916,1440000682984,453,410,0,0,0,3,2,1,32,0003-00-0009-75.png,0002-00-0005-08.png
00000014,97,1,1440000686420,1440000686543,452,450,0,0,0,2,3,1,23,0002-00-0006-08.png,0003-00-0002-15.png
00000014,98,1,1440000687886,1440000688534,884,409,0,0,0,4,3,1,43,0004-00-0004-72.png,0003-00-0006-77.png
00000014,99,1,1440000689982,1440000691057,305,390,0,0,0,4,5,1,45,0004-00-0000-02.png,0005-00-0007-14.png
00000014,100,1,1440000692183,1440000693309,963,389,0,0,0,5,4,1,54,0005-00-0003-68.png,0004-00-0003-92.png
00000014,101,1,1440000694445,1440000694957,869,465,0,0,0,2,1,1,21,0002-00-0001-63.png,0001-00-0008-12.png
00000014,102,1,1440000696083,1440000696619,280,397,0,0,0,1,2,1,12,0001-00-0001-67.png,0002-00-0004-61.png
00000014,103,1,1440000698204,1440000698793,939,358,0,0,0,3,2,1,32,0003-00-0009-98.png,0002-00-0006-48.png
00000014,104,0,1440000699992,1440000701009,924,448,0,0,0,3,4,1,34,0003-00-0007-87.png,0004-00-0002-82.png
00000014,105,0,1440000704273,1440000704288,455,508,0,0,0,4,3,1,43,0004-00-0000-74.png,0003-00-0000-59.png
00000014,106,1,1440000707899,1440000708397,325,410,0,0,0,4,5,1,45,0004-00-0007-26.png,0005-00-0006-09.png
00000014,107,1,1440000710330,1440000711370,922,445,0,0,0,5,4,1,54,0005-00-0004-72.png,0004-00-0004-39.png
00000014,108,1,1440000712418,1440000713059,315,399,0,0,0,1,2,1,12,0001-00-0002-41.png,0002-00-0006-64.png
00000014,109,0,1440000714652,1440000715257,941,371,0,0,0,2,3,1,23,0002-00-0000-82.png,0003-00-0004-78.png
00000014,110,1,1440000719104,1440000719675,405,547,0,0,0,3,4,1,34,0003-00-0004-78.png,0004-00-0006-30.png
00000014,111,1,1440000720705,1440000721273,903,466,0,0,0,3,2,1,32,0003-00-0001-99.png,0002-00-0003-06.png
00000014,112,0,1440000723227,1440000724320,339,384,0,0,0,2,1,1,21,0002-00-0001-14.png,0001-00-0000-28.png
00000014,113,0,1440000727831,1440000728449,336,370,0,0,0,3,2,1,32,0003-00-0006-33.png,0002-00-0006-23.png
00000014,114,0,1440000732631,1440000733175,272,378,0,0,0,5,4,1,54,0005-00-0006-77.png,0004-00-0000-28.png
00000014,115,1,1440000736601,1440000737191,880,389,0,0,0,4,3,1,43,0004-00-0003-35.png,0003-00-0000-06.png
00000014,116,1,1440000738713,1440000739186,297,398,0,0,0,2,3,1,23,0002-00-0004-07.png,0003-00-0005-97.png
00000014,117,1,1440000740949,1440000741529,887,363,0,0,0,2,1,1,21,0002-00-0000-53.png,0001-00-0002-07.png
00000014,118,1,1440000742730,1440000743280,392,481,0,0,0,3,4,1,34,0003-00-0007-69.png,0004-00-0003-68.png
00000014,119,1,1440000744777,1440000745275,271,406,0,0,0,1,2,1,12,0001-00-0000-60.png,0002-00-0004-32.png
00000014,120,1,1440000747209,1440000747261,434,443,0,0,0,4,5,1,45,0004-00-0005-55.png,0005-00-0006-13.png
00000014,121,1,1440000749079,1440000749673,888,410,0,0,0,4,3,1,43,0004-00-0006-19.png,0003-00-0003-19.png
00000014,122,1,1440000751035,1440000751561,888,384,0,0,0,3,2,1,32,0003-00-0006-25.png,0002-00-0005-91.png
00000014,123,1,1440000753117,1440000753691,266,376,0,0,0,3,4,1,34,0003-00-0000-78.png,0004-00-0006-03.png
00000014,124,0,1440000754975,1440000755733,874,399,0,0,0,1,2,1,12,0001-00-0005-02.png,0002-00-0009-50.png
00000014,125,1,1440000759147,1440000759651,376,466,0,0,0,4,5,1,45,0004-00-0006-27.png,0005-00-0006-79.png
00000014,126,1,1440000761195,1440000761752,881,380,0,0,0,5,4,1,54,0005-00-0008-81.png,0004-00-0006-81.png
00000014,127,1,1440000762936,1440000763558,337,397,0,0,0,2,3,1,23,0002-00-0001-83.png,0003-00-0009-14.png
00000014,128,0,1440000765193,1440000765682,327,415,0,0,0,2,1,1,21,0002-00-0007-09.png,0001-00-0007-21.png
00000014,129,0,1440000768897,1440000768945,445,444,0,0,0,2,1,1,21,0002-00-0008-98.png,0001-00-0003-63.png
00000014,130,1,1440000771897,1440000771937,394,419,0,0,0,1,2,1,12,0001-00-0001-36.png,0002-00-0003-90.png
00000014,131,0,1440000773064,1440000773084,453,430,0,0,0,4,3,1,43,0004-00-0003-95.png,0003-00-0004-48.png
00000014,132,1,1440000776502,1440000776605,485,544,0,0,0,4,5,1,45,0004-00-0009-64.png,0005-00-0001-03.png
00000014,133,0,1440000777803,1440000777827,504,472,0,0,0,5,4,1,54,0005-00-0003-14.png,0004-00-0000-65.png
00000014,134,0,1440000780842,1440000780918,421,421,0,0,0,3,2,1,32,0003-00-0002-91.png,0002-00-0006-58.png
00000014,135,1,1440000784442,1440000784478,478,410,0,0,0,2,3,1,23,0002-00-0002-99.png,0003-00-0008-50.png
00000014,136,1,1440000785630,1440000786158,310,405,0,0,0,3,4,1,34,0003-00-0008-51.png,0004-00-0003-00.png
00000014,137,0,1440000787945,1440000788442,880,376,0,0,0,2,3,1,23,0002-00-0003-17.png,0003-00-0004-17.png
00000014,138,1,1440000791569,1440000792154,926,386,0,0,0,2,1,1,21,0002-00-0005-94.png,0001-00-0008-76.png
00000014,139,1,1440000793190,1440000793764,888,384,0,0,0,4,3,1,43,0004-00-0005-82.png,0003-00-0002-08.png
00000014,140,1,1440000794980,1440000795543,867,495,0,0,0,5,4,1,54,0005-00-0007-67.png,0004-00-0005-13.png
00000014,141,1,1440000796730,1440000797263,329,413,0,0,0,1,2,1,12,0001-00-0001-87.png,0002-00-0003-73.png
00000014,142,1,1440000798876,1440000799407,910,386,0,0,0,3,2,1,32,0003-00-0004-38.png,0002-00-0007-20.png
00000014,143,1,1440000800446,1440000801010,329,381,0,0,0,4,5,1,45,0004-00-0003-81.png,0005-00-0001-18.png
00000014,144,1,1440000802198,1440000802730,376,384,0,0,0,3,4,1,34,0003-00-0007-02.png,0004-00-0005-21.png
00000014,145,1,1440000803732,1440000804318,874,397,0,0,0,2,1,1,21,0002-00-0001-61.png,0001-00-0008-50.png
00000014,146,0,1440000806084,1440000806670,369,479,0,0,0,5,4,1,54,0005-00-0002-44.png,0004-00-0008-46.png
00000014,147,1,1440000809858,1440000810296,354,493,0,0,0,1,2,1,12,0001-00-0006-31.png,0002-00-0003-23.png
00000014,148,0,1440000811749,1440000812250,362,417,0,0,0,4,3,1,43,0004-00-0001-10.png,0003-00-0002-55.png
00000014,149,0,1440000815869,1440000816395,367,480,0,0,0,3,2,1,32,0003-00-0009-67.png,0002-00-0000-27.png
00000014,150,1,1440000819241,1440000819253,377,374,0,0,0,4,5,1,45,0004-00-0001-16.png,0005-00-0006-44.png
00000014,151,1,1440000820366,1440000820902,337,413,0,0,0,2,3,1,23,0002-00-0005-13.png,0003-00-0009-79.png
00000014,152,1,1440000821977,1440000822544,311,406,0,0,0,3,4,1,34,0003-00-0006-00.png,0004-00-0009-07.png
00000014,153,1,1440000823626,1440000824227,876,392,0,0,0,4,3,1,43,0004-00-0003-77.png,0003-00-0008-24.png
00000014,154,1,1440000825278,1440000825298,463,462,0,0,0,1,2,1,12,0001-00-0002-11.png,0002-00-0009-26.png
00000014,155,1,1440000826552,1440000827172,877,469,0,0,0,3,2,1,32,0003-00-0008-66.png,0002-00-0000-95.png
00000014,156,1,1440000828259,1440000828789,323,395,0,0,0,3,4,1,34,0003-00-0002-41.png,0004-00-0004-46.png
00000014,157,1,1440000829849,1440000830444,362,362,0,0,0,2,3,1,23,0002-00-0001-12.png,0003-00-0006-27.png
00000014,158,0,1440000831607,1440000832726,404,386,0,0,0,2,1,1,21,0002-00-0003-16.png,0001-00-0004-11.png
00000014,159,0,1440000835710,1440000835818,427,448,0,0,0,5,4,1,54,0005-00-0002-13.png,0004-00-0008-86.png
00000014,160,1,1440000838672,1440000838696,457,419,0,0,0,4,5,1,45,0004-00-0006-11.png,0005-00-0008-60.png
00000014,161,0,1440000839906,1440000840442,876,410,0,0,0,1,2,1,12,0001-00-0001-42.png,0002-00-0004-14.png
00000014,162,1,1440000843489,1440000843517,491,421,0,0,0,2,3,1,23,0002-00-0007-17.png,0003-00-0007-47.png
00000014,163,0,1440000844488,1440000845063,382,514,0,0,0,4,3,1,43,0004-00-0004-66.png,0003-00-0007-77.png
00000014,164,1,1440000848009,1440000848579,921,393,0,0,0,5,4,1,54,0005-00-0005-92.png,0004-00-0008-96.png
00000014,165,0,1440000849698,1440000850212,888,463,0,0,0,4,5,1,45,0004-00-0007-65.png,0005-00-0005-74.png
00000014,166,0,1440000853813,1440000854314,298,378,0,0,0,3,2,1,32,0003-00-0007-51.png,0002-00-0000-33.png
00000014,167,1,1440000857529,1440000858144,877,426,0,0,0,2,1,1,21,0002-00-0005-90.png,0001-00-0007-66.png
00000014,168,1,1440000859199,1440000859692,350,429,0,0,0,3,4,1,34,0003-00-0004-21.png,0004-00-0008-86.png
00000014,169,0,1440000861233,1440000862296,334,406,0,0,0,5,4,1,54,0005-00-0004-54.png,0004-00-0007-59.png
00000014,170,1,1440000865288,1440000865312,411,402,0,0,0,4,5,1,45,0004-00-0004-63.png,0005-00-0005-25.png
00000014,171,0,1440000866692,1440000868226,939,398,0,0,0,3,4,1,34,0003-00-0008-86.png,0004-00-0005-39.png
00000014,172,0,1440000871757,1440000872751,423,355,0,0,0,4,3,1,43,0004-00-0007-45.png,0003-00-0003-28.png
00000014,173,0,1440000875881,1440000875900,453,358,0,0,0,3,2,1,32,0003-00-0009-36.png,0002-00-0001-18.png
00000014,174,1,1440000880313,1440000880817,870,485,0,0,0,2,1,1,21,0002-00-0003-60.png,0001-00-0005-25.png
00000014,175,0,1440000881922,1440000882483,865,441,0,0,0,1,2,1,12,0001-00-0007-74.png,0002-00-0007-26.png
00000014,176,1,1440000885352,1440000885989,341,436,0,0,0,2,3,1,23,0002-00-0002-30.png,0003-00-0006-28.png
00000014,177,1,1440000887107,1440000887696,872,481,0,0,0,3,2,1,32,0003-00-0003-53.png,0002-00-0000-84.png
00000014,178,1,1440000889150,1440000889682,875,469,0,0,0,5,4,1,54,0005-00-0000-84.png,0004-00-0007-86.png
00000014,179,1,1440000890653,1440000891747,964,436,0,0,0,4,3,1,43,0004-00-0009-28.png,0003-00-0007-39.png
00000014,180,1,1440000892731,1440000893266,875,384,0,0,0,2,1,1,21,0002-00-0004-38.png,0001-00-0004-65.png
00000014,181,1,1440000894381,1440000894961,363,493,0,0,0,2,3,1,23,0002-00-0007-02.png,0003-00-0005-63.png
00000014,182,0,1440000896223,1440000896790,864,488,0,0,0,3,4,1,34,0003-00-0005-45.png,0004-00-0003-13.png
00000014,183,1,1440000900253,1440000900345,493,474,0,0,0,4,5,1,45,0004-00-0008-48.png,0005-00-0004-92.png
00000014,184,1,1440000902031,1440000902111,504,462,0,0,0,1,2,1,12,0001-00-0007-29.png,0002-00-0002-63.png
00000014,185,1,1440000903137,1440000903639,366,434,0,0,0,4,5,1,45,0004-00-0002-06.png,0005-00-0008-82.png
00000014,186,1,1440000904705,1440000905314,862,449,0,0,0,5,4,1,54,0005-00-0005-30.png,0004-00-0007-08.png
00000014,187,1,1440000906385,1440000907477,376,449,0,0,0,3,4,1,34,0003-00-0000-39.png,0004-00-0009-67.png
00000014,188,1,1440000908489,1440000908521,454,472,0,0,0,1,2,1,12,0001-00-0000-06.png,0002-00-0000-28.png
00000014,189,1,1440000909704,1440000910332,892,395,0,0,0,2,1,1,21,0002-00-0002-23.png,0001-00-0007-91.png
00000014,190,0,1440000911495,1440000912053,334,408,0,0,0,3,2,1,32,0003-00-0003-07.png,0002-00-0000-53.png
00000014,191,0,1440000915309,1440000915850,874,475,0,0,0,2,3,1,23,0002-00-0005-01.png,0003-00-0000-77.png
00000014,192,1,1440000919552,1440000920107,913,463,0,0,0,4,3,1,43,0004-00-0008-70.png,0003-00-0003-30.png
00000014,193,1,1440000921115,1440000921135,504,422,0,0,0,2,3,1,23,0002-00-0009-15.png,0003-00-0007-29.png
00000014,194,0,1440000922844,1440000923349,324,420,0,0,0,3,2,1,32,0003-00-0008-75.png,0002-00-0006-28.png
00000014,195,1,1440000926301,1440000926325,396,419,0,0,0,4,5,1,45,0004-00-0003-78.png,0005-00-0008-56.png
00000014,196,1,1440000927456,1440000928014,900,397,0,0,0,5,4,1,54,0005-00-0003-31.png,0004-00-0003-65.png
00000014,197,0,1440000929346,1440000929901,907,362,0,0,0,3,4,1,34,0003-00-0004-27.png,0004-00-0005-42.png
00000014,198,1,1440000932999,1440000933482,349,429,0,0,0,1,2,1,12,0001-00-0000-74.png,0002-00-0004-86.png
00000014,199,0,1440000934879,1440000934927,463,438,0,0,0,4,3,1,43,0004-00-0006-97.png,0003-00-0007-00.png
00000014,200,0,1440000938101,1440000938668,314,430,0,0,0,2,1,1,21,0002-00-0000-86.png,0001-00-0006-50.png
00000014,201,1,1440000941942,1440000942455,894,420,0,0,0,3,2,1,32,0003-00-0004-76.png,0002-00-0009-07.png
00000014,202,1,1440000943497,1440000944079,328,418,0,0,0,4,5,1,45,0004-00-0007-34.png,0005-00-0000-03.png
00000014,203,1,1440000945327,1440000945914,298,423,0,0,0,3,4,1,34,0003-00-0006-09.png,0004-00-0005-76.png
00000014,204,1,1440000947003,1440000947595,889,451,0,0,0,2,1,1,21,0002-00-0009-37.png,0001-00-0009-03.png
00000014,205,1,1440000949074,1440000949634,931,388,0,0,0,4,3,1,43,0004-00-0001-76.png,0003-00-0009-40.png
00000014,206,1,1440000951171,1440000952333,376,358,0,0,0,1,2,1,12,0001-00-0005-79.png,0002-00-0001-64.png
00000014,207,0,1440000953364,1440000953388,453,436,0,0,0,5,4,1,54,0005-00-0009-42.png,0004-00-0005-13.png
00000014,208,1,1440000956432,1440000956480,453,421,0,0,0,2,3,1,23,0002-00-0005-08.png,0003-00-0001-32.png
00000014,209,1,1440000957881,1440000957921,438,423,0,0,0,3,4,1,34,0003-00-0004-71.png,0004-00-0008-50.png
00000014,210,1,1440000959496,1440000959941,286,398,0,0,0,2,3,1,23,0002-00-0008-15.png,0003-00-0002-11.png
00000014,211,1,1440000961557,1440000962099,934,387,0,0,0,2,1,1,21,0002-00-0001-48.png,0001-00-0009-76.png
00000014,212,0,1440000963203,1440000964169,407,420,0,0,0,5,4,1,54,0005-00-0005-53.png,0004-00-0002-99.png
00000014,213,0,1440000967344,1440000967376,453,421,0,0,0,4,3,1,43,0004-00-0002-83.png,0003-00-0006-53.png
00000014,214,1,1440000970436,1440000971052,927,385,0,0,0,3,2,1,32,0003-00-0006-68.png,0002-00-0007-74.png
00000014,215,1,1440000972149,1440000972159,478,436,0,0,0,1,2,1,12,0001-00-0000-64.png,0002-00-0000-38.png
00000014,216,1,1440000973934,1440000974593,350,358,0,0,0,4,5,1,45,0004-00-0007-35.png,0005-00-0004-21.png
00000014,217,1,1440000975649,1440000975682,459,432,0,0,0,3,4,1,34,0003-00-0007-35.png,0004-00-0004-76.png
00000014,218,1,1440000977445,1440000978024,336,438,0,0,0,1,2,1,12,0001-00-0004-00.png,0002-00-0005-15.png
00000014,219,1,1440000979037,1440000980728,904,479,0,0,0,3,2,1,32,0003-00-0005-07.png,0002-00-0005-32.png
00000014,220,1,1440000981684,1440000982236,401,436,0,0,0,4,5,1,45,0004-00-0003-62.png,0005-00-0005-04.png
00000014,221,1,1440000983322,1440000983330,453,462,0,0,0,2,3,1,23,0002-00-0006-20.png,0003-00-0002-77.png
00000014,222,0,1440000984524,1440000985040,355,400,0,0,0,4,3,1,43,0004-00-0002-29.png,0003-00-0000-99.png
00000014,223,0,1440000988229,1440000988309,467,477,0,0,0,5,4,1,54,0005-00-0008-83.png,0004-00-0003-60.png
00000014,224,0,1440000991551,1440000991571,453,463,0,0,0,2,1,1,21,0002-00-0009-87.png,0001-00-0004-86.png
00000014,225,1,1440000994625,1440000994689,427,472,0,0,0,3,4,1,34,0003-00-0008-23.png,0004-00-0007-94.png
00000014,226,0,1440000995716,1440000996219,333,401,0,0,0,5,4,1,54,0005-00-0004-53.png,0004-00-0002-34.png
00000014,227,1,1440000999252,1440000999832,937,384,0,0,0,3,2,1,32,0003-00-0001-33.png,0002-00-0000-16.png
00000014,228,1,1440001000767,1440001001409,877,466,0,0,0,2,1,1,21,0002-00-0009-69.png,0001-00-0009-07.png
00000014,229,1,1440001002427,1440001003009,366,415,0,0,0,1,2,1,12,0001-00-0002-72.png,0002-00-0003-15.png
00000014,230,0,1440001004442,1440001004895,323,397,0,0,0,4,3,1,43,0004-00-0001-27.png,0003-00-0007-39.png
00000014,231,1,1440001007783,1440001007791,452,451,0,0,0,2,3,1,23,0002-00-0003-45.png,0003-00-0007-27.png
00000014,232,1,1440001008954,1440001009560,358,417,0,0,0,4,5,1,45,0004-00-0007-99.png,0005-00-0000-63.png
00000014,233,0,1440001010587,1440001011214,357,412,0,0,0,3,2,1,32,0003-00-0000-51.png,0002-00-0006-44.png
00000014,234,0,1440001014330,1440001014338,478,478,0,0,0,5,4,1,54,0005-00-0001-43.png,0004-00-0001-36.png
00000014,235,1,1440001017796,1440001017818,497,480,0,0,0,3,4,1,34,0003-00-0001-44.png,0004-00-0008-40.png
00000014,236,0,1440001018829,1440001019471,900,411,0,0,0,4,5,1,45,0004-00-0009-34.png,0005-00-0009-94.png
00000014,237,0,1440001022329,1440001022939,906,362,0,0,0,2,3,1,23,0002-00-0007-74.png,0003-00-0000-39.png
00000014,238,0,1440001026333,1440001026357,505,427,0,0,0,4,3,1,43,0004-00-0003-03.png,0003-00-0002-65.png
00000014,239,0,1440001029872,1440001030395,282,365,0,0,0,2,1,1,21,0002-00-0005-33.png,0001-00-0001-24.png
00000014,240,1,1440001033818,1440001033841,505,461,0,0,0,1,2,1,12,0001-00-0003-52.png,0002-00-0005-25.png
00000014,241,1,1440001034974,1440001035668,325,371,0,0,0,2,3,1,23,0002-00-0003-80.png,0003-00-0004-14.png
00000014,242,1,1440001036719,1440001037266,880,401,0,0,0,4,3,1,43,0004-00-0003-70.png,0003-00-0003-81.png
00000014,243,1,1440001038352,1440001038916,389,528,0,0,0,1,2,1,12,0001-00-0005-34.png,0002-00-0009-69.png
00000014,244,0,1440001039909,1440001040528,309,392,0,0,0,2,1,1,21,0002-00-0008-53.png,0001-00-0009-24.png
00000014,245,0,1440001043449,1440001043455,453,438,0,0,0,5,4,1,54,0005-00-0000-98.png,0004-00-0001-28.png
00000014,246,0,1440001046816,1440001046856,488,423,0,0,0,3,2,1,32,0003-00-0002-04.png,0002-00-0006-01.png
00000014,247,1,1440001049820,1440001049840,519,480,0,0,0,4,5,1,45,0004-00-0005-68.png,0005-00-0001-58.png
00000014,248,1,1440001050865,1440001051491,321,439,0,0,0,3,4,1,34,0003-00-0006-12.png,0004-00-0003-41.png
00000014,249,0,1440001052475,1440001053016,876,462,0,0,0,3,4,1,34,0003-00-0001-06.png,0004-00-0008-17.png
00000014,250,0,1440001055958,1440001056472,299,383,0,0,0,3,2,1,32,0003-00-0003-83.png,0002-00-0007-70.png
00000014,251,0,1440001059338,1440001059362,478,410,0,0,0,5,4,1,54,0005-00-0001-51.png,0004-00-0001-71.png
00000014,252,1,1440001062373,1440001062385,523,411,0,0,0,1,2,1,12,0001-00-0005-83.png,0002-00-0004-93.png
00000014,253,1,1440001063339,1440001063992,417,554,0,0,0,2,3,1,23,0002-00-0007-68.png,0003-00-0008-35.png
00000014,254,0,1440001065322,1440001065406,478,488,0,0,0,4,3,1,43,0004-00-0009-05.png,0003-00-0007-08.png
00000014,255,0,1440001068243,1440001068267,467,429,0,0,0,2,1,1,21,0002-00-0009-81.png,0001-00-0009-86.png
00000014,256,1,1440001071220,1440001071255,466,453,0,0,0,4,5,1,45,0004-00-0006-16.png,0005-00-0003-86.png
00000014,257,1,1440001072293,1440001072896,900,423,0,0,0,4,3,1,43,0004-00-0000-20.png,0003-00-0001-36.png
00000014,258,1,1440001073881,1440001073921,455,480,0,0,0,2,3,1,23,0002-00-0003-44.png,0003-00-0009-19.png
00000014,259,0,1440001075115,1440001075681,859,452,0,0,0,3,4,1,34,0003-00-0002-20.png,0004-00-0006-77.png
00000014,260,1,1440001079575,1440001080110,369,461,0,0,0,4,5,1,45,0004-00-0000-38.png,0005-00-0003-63.png
00000014,261,0,1440001081277,1440001081801,394,520,0,0,0,3,2,1,32,0003-00-0001-87.png,0002-00-0008-93.png
00000014,262,0,1440001084662,1440001084694,457,430,0,0,0,2,1,1,21,0002-00-0001-10.png,0001-00-0006-64.png
00000014,263,0,1440001087832,1440001088355,364,488,0,0,0,5,4,1,54,0005-00-0009-47.png,0004-00-0007-78.png
00000014,264,1,1440001091471,1440001091495,469,452,0,0,0,1,2,1,12,0001-00-0000-43.png,0002-00-0004-69.png
00000014,265,1,1440001092556,1440001093158,325,410,0,0,0,2,3,1,23,0002-00-0009-90.png,0003-00-0008-53.png
00000014,266,1,1440001094118,1440001094745,342,397,0,0,0,4,5,1,45,0004-00-0002-67.png,0005-00-0004-02.png
00000014,267,0,1440001095739,1440001095747,484,429,0,0,0,2,1,1,21,0002-00-0001-51.png,0001-00-0004-00.png
00000014,268,0,1440001098686,1440001098726,496,466,0,0,0,4,3,1,43,0004-00-0002-66.png,0003-00-0002-92.png
00000014,269,0,1440001102523,1440001102591,523,492,0,0,0,3,2,1,32,0003-00-0000-24.png,0002-00-0008-26.png
00000014,270,1,1440001105510,1440001105526,504,367,0,0,0,1,2,1,12,0001-00-0000-03.png,0002-00-0001-29.png
00000014,271,0,1440001106541,1440001107120,417,514,0,0,0,5,4,1,54,0005-00-0003-79.png,0004-00-0004-54.png
00000014,272,1,1440001110088,1440001110599,330,374,0,0,0,3,4,1,34,0003-00-0006-02.png,0004-00-0008-58.png
00000014,273,1,1440001111540,1440001112104,925,413,0,0,0,5,4,1,54,0005-00-0008-81.png,0004-00-0007-35.png
00000014,274,0,1440001113091,1440001113639,875,423,0,0,0,1,2,1,12,0001-00-0007-74.png,0002-00-0001-51.png
00000014,275,1,1440001116664,1440001116696,504,400,0,0,0,3,4,1,34,0003-00-0005-13.png,0004-00-0002-11.png
00000014,276,0,1440001117680,1440001118254,248,462,0,0,0,2,1,1,21,0002-00-0002-30.png,0001-00-0005-80.png
00000014,277,0,1440001121113,1440001121604,332,366,0,0,0,4,3,1,43,0004-00-0004-06.png,0003-00-0009-03.png
00000014,278,1,1440001124637,1440001124685,490,482,0,0,0,2,3,1,23,0002-00-0006-24.png,0003-00-0009-14.png
00000014,279,1,1440001125683,1440001125741,483,544,0,0,0,4,5,1,45,0004-00-0001-90.png,0005-00-0007-86.png
00000014,280,0,1440001126883,1440001126919,504,476,0,0,0,3,2,1,32,0003-00-0001-29.png,0002-00-0009-51.png
00000014,281,0,1440001129885,1440001129893,485,425,0,0,0,2,1,1,21,0002-00-0009-71.png,0001-00-0002-65.png
00000014,282,0,1440001132764,1440001132792,487,489,0,0,0,3,2,1,32,0003-00-0007-81.png,0002-00-0002-36.png
00000014,283,1,1440001135954,1440001135978,511,403,0,0,0,2,3,1,23,0002-00-0002-31.png,0003-00-0003-49.png
00000014,284,1,1440001136968,1440001137491,355,453,0,0,0,1,2,1,12,0001-00-0004-48.png,0002-00-0009-32.png
00000014,285,1,1440001138400,1440001139005,935,391,0,0,0,5,4,1,54,0005-00-0001-26.png,0004-00-0009-61.png
00000014,286,1,1440001140039,1440001141075,926,397,0,0,0,4,3,1,43,0004-00-0004-58.png,0003-00-0008-39.png
00000014,287,0,1440001142089,1440001142627,878,470,0,0,0,4,5,1,45,0004-00-0009-92.png,0005-00-0004-54.png
00000014,288,1,1440001145757,1440001146305,292,367,0,0,0,3,4,1,34,0003-00-0005-06.png,0004-00-0001-51.png
00000014,289,1,1440001147250,1440001147254,471,459,0,0,0,1,2,1,12,0001-00-0007-52.png,0002-00-0000-52.png
00000014,290,1,1440001148380,1440001148946,877,494,0,0,0,2,1,1,21,0002-00-0003-65.png,0001-00-0004-61.png
00000014,291,0,1440001149962,1440001150542,893,444,0,0,0,3,4,1,34,0003-00-0006-44.png,0004-00-0003-89.png
00000014,292,1,1440001153400,1440001153404,434,470,0,0,0,4,5,1,45,0004-00-0008-78.png,0005-00-0001-81.png
00000014,293,1,1440001154517,1440001155037,899,412,0,0,0,5,4,1,54,0005-00-0000-13.png,0004-00-0002-76.png
00000014,294,1,1440001156040,1440001156594,923,385,0,0,0,4,3,1,43,0004-00-0004-77.png,0003-00-0009-22.png
00000014,295,1,1440001157512,1440001158603,927,427,0,0,0,3,2,1,32,0003-00-0003-98.png,0002-00-0006-38.png
00000014,296,1,1440001159547,1440001160124,346,420,0,0,0,2,3,1,23,0002-00-0001-52.png,0003-00-0005-17.png
00000014,297,1,1440001161120,1440001161664,876,502,0,0,0,3,2,1,32,0003-00-0002-45.png,0002-00-0000-45.png
00000014,298,1,1440001162700,1440001163250,906,415,0,0,0,4,3,1,43,0004-00-0001-00.png,0003-00-0005-09.png
00000014,299,0,1440001164250,1440001164298,478,514,0,0,0,5,4,1,54,0005-00-0000-90.png,0004-00-0002-06.png
00000014,300,0,1440001167186,1440001167737,900,437,0,0,0,1,2,1,12,0001-00-0003-51.png,0002-00-0000-81.png
00000014,301,0,1440001170787,1440001170848,516,505,0,0,0,2,1,1,21,0002-00-0001-74.png,0001-00-0001-52.png
00000014,302,1,1440001173899,1440001173907,471,438,0,0,0,4,5,1,45,0004-00-0000-03.png,0005-00-0008-88.png
00000014,303,0,1440001174892,1440001175555,906,479,0,0,0,3,4,1,34,0003-00-0003-91.png,0004-00-0005-91.png
00000014,304,1,1440001178658,1440001178694,506,504,0,0,0,2,3,1,23,0002-00-0002-23.png,0003-00-0000-79.png
00000014,305,0,1440001179653,1440001180240,347,398,0,0,0,3,2,1,32,0003-00-0003-52.png,0002-00-0009-72.png
00000014,306,0,1440001183569,1440001183577,458,453,0,0,0,2,1,1,21,0002-00-0002-56.png,0001-00-0009-67.png
00000014,307,1,1440001186619,1440001186631,476,466,0,0,0,4,5,1,45,0004-00-0005-55.png,0005-00-0007-39.png
00000014,308,1,1440001187602,1440001188682,901,490,0,0,0,4,3,1,43,0004-00-0004-14.png,0003-00-0008-78.png
00000014,309,1,1440001189673,1440001189681,453,412,0,0,0,1,2,1,12,0001-00-0006-25.png,0002-00-0002-42.png
00000014,310,1,1440001190733,1440001191250,894,488,0,0,0,5,4,1,54,0005-00-0007-67.png,0004-00-0003-32.png
00000014,311,1,1440001192281,1440001192297,453,462,0,0,0,3,4,1,34,0003-00-0003-80.png,0004-00-0006-77.png
00000014,312,1,1440001193469,1440001194005,342,381,0,0,0,2,3,1,23,0002-00-0008-33.png,0003-00-0002-09.png
00000014,313,0,1440001195148,1440001195713,901,384,0,0,0,3,4,1,34,0003-00-0002-76.png,0004-00-0007-93.png
00000014,314,0,1440001198808,1440001198840,492,436,0,0,0,2,1,1,21,0002-00-0009-07.png,0001-00-0006-01.png
00000014,315,1,1440001201846,1440001201854,478,470,0,0,0,4,5,1,45,0004-00-0004-71.png,0005-00-0004-31.png
00000014,316,0,1440001202830,1440001203418,880,418,0,0,0,2,3,1,23,0002-00-0007-83.png,0003-00-0005-77.png
00000014,317,0,1440001206475,1440001207122,295,394,0,0,0,3,2,1,32,0003-00-0006-80.png,0002-00-0000-57.png
00000014,318,0,1440001210104,1440001210124,442,449,0,0,0,5,4,1,54,0005-00-0004-59.png,0004-00-0004-27.png
00000014,319,1,1440001213194,1440001213242,495,506,0,0,0,1,2,1,12,0001-00-0009-31.png,0002-00-0009-60.png
00000014,320,1,1440001214250,1440001214785,878,349,0,0,0,4,3,1,43,0004-00-0008-52.png,0003-00-0001-36.png
00000014,321,0,1440001215731,1440001215747,453,440,0,0,0,3,2,1,32,0003-00-0005-02.png,0002-00-0004-01.png
00000014,322,1,1440001218916,1440001219444,364,475,0,0,0,3,4,1,34,0003-00-0003-11.png,0004-00-0007-45.png
00000014,323,1,1440001220411,1440001220964,900,371,0,0,0,4,3,1,43,0004-00-0002-28.png,0003-00-0003-81.png
00000014,324,1,1440001222012,1440001222611,891,403,0,0,0,2,1,1,21,0002-00-0005-10.png,0001-00-0007-91.png
00000014,325,1,1440001223641,1440001224233,904,403,0,0,0,5,4,1,54,0005-00-0008-80.png,0004-00-0007-70.png
00000014,326,0,1440001225419,1440001225941,907,391,0,0,0,4,5,1,45,0004-00-0005-07.png,0005-00-0005-21.png
00000014,327,1,1440001229064,1440001229112,493,509,0,0,0,1,2,1,12,0001-00-0004-54.png,0002-00-0007-81.png
00000014,328,0,1440001230081,1440001230727,878,521,0,0,0,2,3,1,23,0002-00-0004-11.png,0003-00-0001-71.png
00000014,329,1,1440001233663,1440001233687,472,383,0,0,0,2,3,1,23,0002-00-0005-86.png,0003-00-0006-58.png
00000014,330,0,1440001234675,1440001235252,878,494,0,0,0,1,2,1,12,0001-00-0003-10.png,0002-00-0003-43.png
00000014,331,0,1440001238500,1440001239030,364,465,0,0,0,3,2,1,32,0003-00-0009-09.png,0002-00-0001-29.png
00000014,332,0,1440001242027,1440001242047,520,453,0,0,0,4,3,1,43,0004-00-0004-18.png,0003-00-0007-59.png
00000014,333,1,1440001245242,1440001245290,478,462,0,0,0,4,5,1,45,0004-00-0002-19.png,0005-00-0001-77.png
00000014,334,0,1440001246343,1440001246932,247,437,0,0,0,2,1,1,21,0002-00-0006-64.png,0001-00-0002-54.png
00000014,335,0,1440001249807,1440001250332,322,388,0,0,0,5,4,1,54,0005-00-0004-23.png,0004-00-0001-26.png
00000014,336,1,1440001253406,1440001253422,505,419,0,0,0,3,4,1,34,0003-00-0004-45.png,0004-00-0003-69.png
00000014,337,0,1440001254348,1440001254913,357,410,0,0,0,2,1,1,21,0002-00-0002-77.png,0001-00-0009-40.png
00000014,338,0,1440001258114,1440001258142,466,452,0,0,0,5,4,1,54,0005-00-0007-25.png,0004-00-0008-11.png
00000014,339,1,1440001261169,1440001261723,387,513,0,0,0,2,3,1,23,0002-00-0005-61.png,0003-00-0003-91.png
00000014,340,1,1440001262738,1440001263409,335,367,0,0,0,4,5,1,45,0004-00-0009-03.png,0005-00-0002-93.png
00000014,341,0,1440001264367,1440001264377,453,462,0,0,0,3,2,1,32,0003-00-0009-25.png,0002-00-0004-61.png
00000014,342,1,1440001267249,1440001267273,468,415,0,0,0,1,2,1,12,0001-00-0003-43.png,0002-00-0002-71.png
00000014,343,1,1440001268394,1440001268996,863,488,0,0,0,4,3,1,43,0004-00-0004-94.png,0003-00-0001-65.png
00000014,344,1,1440001270071,1440001270672,347,410,0,0,0,3,4,1,34,0003-00-0007-50.png,0004-00-0009-06.png
00000014,345,0,1440001271624,1440001272213,902,363,0,0,0,4,5,1,45,0004-00-0005-35.png,0005-00-0007-64.png
00000014,346,0,1440001275198,1440001275723,324,368,0,0,0,4,3,1,43,0004-00-0005-67.png,0003-00-0005-64.png
00000014,347,1,1440001278775,1440001278803,458,415,0,0,0,2,3,1,23,0002-00-0007-00.png,0003-00-0005-43.png
00000014,348,0,1440001279851,1440001280382,903,403,0,0,0,3,4,1,34,0003-00-0001-88.png,0004-00-0004-39.png
00000014,349,0,1440001283459,1440001284001,915,393,0,0,0,1,2,1,12,0001-00-0007-57.png,0002-00-0009-22.png
00000014,350,0,1440001287061,1440001287532,329,368,0,0,0,3,2,1,32,0003-00-0002-97.png,0002-00-0006-34.png
00000014,351,1,1440001290751,1440001291316,928,465,0,0,0,5,4,1,54,0005-00-0004-56.png,0004-00-0006-20.png
00000014,352,0,1440001292292,1440001292312,476,432,0,0,0,2,1,1,21,0002-00-0008-66.png,0001-00-0002-87.png
00000014,353,1,1440001295298,1440001295826,350,378,0,0,0,2,3,1,23,0002-00-0002-16.png,0003-00-0007-83.png
00000014,354,0,1440001296823,1440001296851,504,462,0,0,0,2,1,1,21,0002-00-0008-15.png,0001-00-0004-11.png
00000014,355,1,1440001299724,1440001299776,446,507,0,0,0,3,4,1,34,0003-00-0009-27.png,0004-00-0003-82.png
00000014,356,1,1440001300786,1440001301332,887,373,0,0,0,4,3,1,43,0004-00-0005-76.png,0003-00-0008-89.png
00000014,357,1,1440001302396,1440001302898,900,397,0,0,0,3,2,1,32,0003-00-0005-45.png,0002-00-0005-02.png
00000014,358,1,1440001303979,1440001304514,363,396,0,0,0,4,5,1,45,0004-00-0003-32.png,0005-00-0008-48.png
00000014,359,0,1440001305560,1440001306120,876,494,0,0,0,1,2,1,12,0001-00-0002-70.png,0002-00-0004-43.png
00000014,360,1,1440001309244,1440001309819,907,380,0,0,0,5,4,1,54,0005-00-0004-38.png,0004-00-0006-04.png
00000014,361,0,1440001310757,1440001310789,504,462,0,0,0,4,3,1,43,0004-00-0007-94.png,0003-00-0001-41.png
00000014,362,0,1440001314123,1440001314619,926,411,0,0,0,1,2,1,12,0001-00-0003-51.png,0002-00-0006-20.png
00000014,363,0,1440001317529,1440001317588,504,420,0,0,0,3,2,1,32,0003-00-0008-58.png,0002-00-0000-36.png
00000014,364,0,1440001321359,1440001321383,514,466,0,0,0,5,4,1,54,0005-00-0002-86.png,0004-00-0005-96.png
00000014,365,1,1440001325298,1440001326360,946,388,0,0,0,2,1,1,21,0002-00-0005-67.png,0001-00-0006-67.png
00000014,366,1,1440001327293,1440001327321,501,416,0,0,0,3,4,1,34,0003-00-0004-83.png,0004-00-0003-14.png
00000014,367,0,1440001328456,1440001329053,895,397,0,0,0,2,3,1,23,0002-00-0001-96.png,0003-00-0008-40.png
00000014,368,1,1440001331943,1440001331975,513,451,0,0,0,4,5,1,45,0004-00-0001-85.png,0005-00-0009-92.png
00000014,369,1,1440001333036,1440001333584,902,472,0,0,0,2,1,1,21,0002-00-0000-87.png,0001-00-0001-54.png
00000014,370,0,1440001334656,1440001335200,900,371,0,0,0,3,4,1,34,0003-00-0003-82.png,0004-00-0003-27.png
00000014,371,1,1440001338263,1440001338739,331,365,0,0,0,1,2,1,12,0001-00-0002-03.png,0002-00-0005-40.png
00000014,372,0,1440001339696,1440001340225,900,397,0,0,0,4,5,1,45,0004-00-0007-70.png,0005-00-0007-60.png
00000014,373,1,1440001343124,1440001343651,930,401,0,0,0,5,4,1,54,0005-00-0006-92.png,0004-00-0009-65.png
00000014,374,1,1440001344514,1440001345079,903,404,0,0,0,3,2,1,32,0003-00-0007-63.png,0002-00-0006-77.png
00000014,375,0,1440001346155,1440001346706,942,377,0,0,0,2,3,1,23,0002-00-0003-15.png,0003-00-0008-25.png
00000014,376,1,1440001349574,1440001350056,898,335,0,0,0,4,3,1,43,0004-00-0005-26.png,0003-00-0009-99.png
00000014,377,1,1440001350988,1440001351557,900,385,0,0,0,3,2,1,32,0003-00-0007-27.png,0002-00-0001-11.png
00000014,378,1,1440001352645,1440001353091,906,392,0,0,0,5,4,1,54,0005-00-0003-42.png,0004-00-0003-03.png
00000014,379,0,1440001354118,1440001354683,888,490,0,0,0,4,5,1,45,0004-00-0000-92.png,0005-00-0002-55.png
00000014,380,1,1440001357564,1440001357919,520,416,0,0,0,3,4,1,34,0003-00-0002-40.png,0004-00-0002-90.png
00000014,381,1,1440001359442,1440001360003,197,462,0,0,0,1,2,1,12,0001-00-0001-63.png,0002-00-0005-96.png
00000014,382,1,1440001361012,1440001361588,926,391,0,0,0,4,3,1,43,0004-00-0007-99.png,0003-00-0004-35.png
00000014,383,1,1440001362672,1440001363285,362,411,0,0,0,2,3,1,23,0002-00-0008-62.png,0003-00-0001-46.png
00000014,384,1,1440001364302,1440001364866,878,387,0,0,0,2,1,1,21,0002-00-0006-06.png,0001-00-0008-87.png
00000014,385,1,1440001365901,1440001366449,900,410,0,0,0,5,4,1,54,0005-00-0002-88.png,0004-00-0002-28.png
00000014,386,1,1440001367495,1440001368060,926,371,0,0,0,4,3,1,43,0004-00-0005-65.png,0003-00-0002-84.png
00000014,387,0,1440001369112,1440001369685,894,477,0,0,0,2,3,1,23,0002-00-0009-45.png,0003-00-0008-87.png
00000014,388,1,1440001372678,1440001372746,502,449,0,0,0,3,4,1,34,0003-00-0005-62.png,0004-00-0006-88.png
00000014,389,1,1440001373737,1440001374319,422,516,0,0,0,4,5,1,45,0004-00-0005-65.png,0005-00-0004-90.png
00000014,390,0,1440001375295,1440001375879,926,397,0,0,0,1,2,1,12,0001-00-0005-91.png,0002-00-0008-81.png
00000014,391,0,1440001378768,1440001378791,515,457,0,0,0,2,1,1,21,0002-00-0000-72.png,0001-00-0002-55.png
00000014,392,1,1440001381742,1440001382271,930,401,0,0,0,3,2,1,32,0003-00-0005-07.png,0002-00-0005-36.png
00000014,393,1,1440001383226,1440001383793,417,508,0,0,0,4,5,1,45,0004-00-0005-43.png,0005-00-0000-09.png
00000014,394,1,1440001384825,1440001385317,928,388,0,0,0,3,2,1,32,0003-00-0001-74.png,0002-00-0008-47.png
00000014,395,1,1440001386345,1440001386384,478,488,0,0,0,1,2,1,12,0001-00-0006-93.png,0002-00-0000-72.png
00000014,396,1,1440001387527,1440001388153,956,364,0,0,0,4,3,1,43,0004-00-0005-60.png,0003-00-0006-71.png
00000014,397,1,1440001389234,1440001389863,315,422,0,0,0,3,4,1,34,0003-00-0007-16.png,0004-00-0002-20.png
00000014,398,1,1440001391136,1440001391706,875,397,0,0,0,5,4,1,54,0005-00-0008-61.png,0004-00-0005-37.png
00000014,399,1,1440001392826,1440001393863,314,429,0,0,0,2,3,1,23,0002-00-0006-06.png,0003-00-0005-85.png
00000014,400,1,1440001394932,1440001395488,928,389,0,0,0,2,1,1,21,0002-00-0009-11.png,0001-00-0007-61.png
00000014,401,0,1440001396522,1440001397060,918,402,0,0,0,3,4,1,34,0003-00-0005-98.png,0004-00-0008-19.png
00000014,402,1,1440001400010,1440001400050,486,418,0,0,0,2,3,1,23,0002-00-0006-52.png,0003-00-0006-21.png
00000014,403,0,1440001401054,1440001401684,397,517,0,0,0,2,1,1,21,0002-00-0009-90.png,0001-00-0002-98.png
00000014,404,1,1440001404570,1440001405057,879,480,0,0,0,5,4,1,54,0005-00-0007-67.png,0004-00-0000-67.png
00000014,405,1,1440001406083,1440001406591,901,492,0,0,0,3,2,1,32,0003-00-0003-78.png,0002-00-0006-01.png
00000014,406,0,1440001407621,1440001408205,879,402,0,0,0,1,2,1,12,0001-00-0004-11.png,0002-00-0005-21.png
00000014,407,0,1440001411645,1440001412202,905,361,0,0,0,4,5,1,45,0004-00-0004-65.png,0005-00-0007-98.png
00000014,408,0,1440001415103,1440001415720,404,487,0,0,0,4,3,1,43,0004-00-0000-56.png,0003-00-0005-07.png
00000014,409,1,1440001418589,1440001419159,900,462,0,0,0,2,1,1,21,0002-00-0009-02.png,0001-00-0003-64.png
00000014,410,0,1440001420148,1440001420721,905,403,0,0,0,2,3,1,23,0002-00-0005-15.png,0003-00-0009-39.png
00000014,411,0,1440001423692,1440001423716,511,429,0,0,0,4,3,1,43,0004-00-0002-11.png,0003-00-0000-07.png
00000014,412,1,1440001426664,1440001426668,431,432,0,0,0,1,2,1,12,0001-00-0000-99.png,0002-00-0006-27.png
00000014,413,1,1440001427660,1440001427680,476,449,0,0,0,4,5,1,45,0004-00-0008-48.png,0005-00-0001-50.png
00000014,414,1,1440001428830,1440001429461,888,488,0,0,0,3,2,1,32,0003-00-0004-94.png,0002-00-0009-20.png
00000014,415,1,1440001430490,1440001431712,875,436,0,0,0,5,4,1,54,0005-00-0006-83.png,0004-00-0002-95.png
00000014,416,0,1440001432651,1440001433223,882,419,0,0,0,3,4,1,34,0003-00-0007-49.png,0004-00-0004-66.png
00000014,417,0,1440001436385,1440001436920,273,371,0,0,0,4,3,1,43,0004-00-0007-63.png,0003-00-0002-01.png
00000014,418,0,1440001439770,1440001440277,904,401,0,0,0,2,3,1,23,0002-00-0005-40.png,0003-00-0007-02.png
00000014,419,1,1440001443433,1440001443489,486,495,0,0,0,3,4,1,34,0003-00-0009-28.png,0004-00-0005-56.png
00000014,420,1,1440001444524,1440001445059,959,419,0,0,0,2,1,1,21,0002-00-0006-63.png,0001-00-0008-99.png
00000014,421,1,1440001446023,1440001447022,922,408,0,0,0,5,4,1,54,0005-00-0006-87.png,0004-00-0004-39.png
00000014,422,0,1440001448044,1440001448835,900,358,0,0,0,4,5,1,45,0004-00-0007-32.png,0005-00-0000-74.png
00000014,423,1,1440001452394,1440001452937,883,449,0,0,0,3,2,1,32,0003-00-0002-97.png,0002-00-0007-33.png
00000014,424,0,1440001454018,1440001454604,866,485,0,0,0,1,2,1,12,0001-00-0006-23.png,0002-00-0001-72.png
00000014,425,1,1440001457468,1440001458200,920,457,0,0,0,2,1,1,21,0002-00-0005-97.png,0001-00-0003-53.png
00000014,426,0,1440001459092,1440001459677,905,417,0,0,0,1,2,1,12,0001-00-0006-96.png,0002-00-0008-33.png
00000014,427,0,1440001463007,1440001463519,913,369,0,0,0,4,5,1,45,0004-00-0003-50.png,0005-00-0006-51.png
00000014,428,0,1440001466447,1440001466463,478,398,0,0,0,4,3,1,43,0004-00-0006-81.png,0003-00-0001-27.png
00000014,429,1,1440001469327,1440001469367,384,429,0,0,0,2,3,1,23,0002-00-0006-21.png,0003-00-0004-28.png
00000014,430,0,1440001470502,1440001470535,474,435,0,0,0,5,4,1,54,0005-00-0007-20.png,0004-00-0003-82.png
00000014,431,1,1440001473642,1440001473662,510,455,0,0,0,3,4,1,34,0003-00-0005-60.png,0004-00-0005-10.png
00000014,432,0,1440001474504,1440001474536,513,453,0,0,0,3,2,1,32,0003-00-0008-98.png,0002-00-0005-02.png
00000014,433,0,1440001477649,1440001478144,935,443,0,0,0,2,3,1,23,0002-00-0009-90.png,0003-00-0008-61.png
00000014,434,0,1440001481225,1440001481269,504,452,0,0,0,2,1,1,21,0002-00-0009-29.png,0001-00-0002-50.png
00000014,435,1,1440001485121,1440001485149,520,446,0,0,0,3,4,1,34,0003-00-0000-11.png,0004-00-0008-42.png
00000014,436,1,1440001486600,1440001486624,504,462,0,0,0,1,2,1,12,0001-00-0006-18.png,0002-00-0001-12.png
00000014,437,0,1440001487624,1440001487644,489,442,0,0,0,3,2,1,32,0003-00-0007-70.png,0002-00-0000-30.png
00000014,438,0,1440001490556,1440001490584,511,465,0,0,0,4,3,1,43,0004-00-0007-11.png,0003-00-0006-82.png
00000014,439,1,1440001493557,1440001494039,340,381,0,0,0,4,5,1,45,0004-00-0009-77.png,0005-00-0008-56.png
00000014,440,1,1440001494969,1440001495603,877,358,0,0,0,5,4,1,54,0005-00-0000-41.png,0004-00-0000-80.png
00000014,441,1,1440001496557,1440001497216,933,367,0,0,0,3,2,1,32,0003-00-0002-92.png,0002-00-0007-46.png
00000014,442,0,1440001498156,1440001498705,904,403,0,0,0,1,2,1,12,0001-00-0003-82.png,0002-00-0005-65.png
00000014,443,1,1440001501905,1440001502422,921,498,0,0,0,4,3,1,43,0004-00-0003-16.png,0003-00-0002-39.png
00000014,444,0,1440001503396,1440001503416,504,436,0,0,0,5,4,1,54,0005-00-0003-06.png,0004-00-0003-48.png
00000014,445,1,1440001506337,1440001506357,490,436,0,0,0,3,4,1,34,0003-00-0007-77.png,0004-00-0001-57.png
00000014,446,1,1440001507262,1440001507818,915,450,0,0,0,2,1,1,21,0002-00-0002-73.png,0001-00-0007-88.png
00000014,447,1,1440001508786,1440001509426,376,384,0,0,0,4,5,1,45,0004-00-0008-85.png,0005-00-0003-73.png
00000014,448,0,1440001510344,1440001510926,875,397,0,0,0,2,3,1,23,0002-00-0006-88.png,0003-00-0004-20.png
00000014,449,0,1440001514235,1440001514776,278,371,0,0,0,5,4,1,54,0005-00-0009-19.png,0004-00-0006-58.png
00000014,450,1,1440001517675,1440001518668,907,404,0,0,0,4,3,1,43,0004-00-0009-66.png,0003-00-0009-10.png
00000014,451,0,1440001519565,1440001520152,411,496,0,0,0,2,1,1,21,0002-00-0000-45.png,0001-00-0005-29.png
00000014,452,1,1440001523002,1440001523518,297,355,0,0,0,4,5,1,45,0004-00-0007-50.png,0005-00-0008-41.png
00000014,453,1,1440001524515,1440001524543,472,449,0,0,0,2,3,1,23,0002-00-0003-30.png,0003-00-0003-90.png
00000014,454,1,1440001525569,1440001526124,350,412,0,0,0,1,2,1,12,0001-00-0006-28.png,0002-00-0001-96.png
00000014,455,0,1440001527018,1440001527042,478,436,0,0,0,3,2,1,32,0003-00-0003-20.png,0002-00-0006-64.png
00000014,456,1,1440001529998,1440001530024,464,462,0,0,0,3,4,1,34,0003-00-0003-33.png,0004-00-0002-73.png
00000014,457,1,1440001530944,1440001531541,909,364,0,0,0,5,4,1,54,0005-00-0006-98.png,0004-00-0001-30.png
00000014,458,0,1440001532546,1440001537362,339,432,0,0,0,2,1,1,21,0002-00-0009-86.png,0001-00-0005-91.png
00000014,459,0,1440001540394,1440001540932,920,486,0,0,0,4,5,1,45,0004-00-0008-52.png,0005-00-0003-38.png
00000014,460,0,1440001543802,1440001544320,904,375,0,0,0,3,4,1,34,0003-00-0009-01.png,0004-00-0009-43.png
00000014,461,1,1440001547520,1440001548011,903,452,0,0,0,4,3,1,43,0004-00-0001-69.png,0003-00-0002-16.png
00000014,462,1,1440001548973,1440001549573,357,403,0,0,0,1,2,1,12,0001-00-0004-57.png,0002-00-0008-51.png
00000014,463,0,1440001550560,1440001551197,863,475,0,0,0,2,3,1,23,0002-00-0008-28.png,0003-00-0006-78.png
00000014,464,0,1440001554346,1440001554866,299,391,0,0,0,3,2,1,32,0003-00-0006-00.png,0002-00-0009-80.png
00000014,465,0,1440001557836,1440001557844,510,392,0,0,0,3,2,1,32,0003-00-0007-76.png,0002-00-0004-26.png
00000014,466,1,1440001561881,1440001562345,298,386,0,0,0,1,2,1,12,0001-00-0006-75.png,0002-00-0000-82.png
00000014,467,0,1440001563761,1440001564255,912,377,0,0,0,2,3,1,23,0002-00-0008-28.png,0003-00-0002-30.png
00000014,468,0,1440001568100,1440001569167,926,477,0,0,0,3,4,1,34,0003-00-0006-76.png,0004-00-0007-86.png
00000014,469,1,1440001572411,1440001572965,893,433,0,0,0,4,3,1,43,0004-00-0005-77.png,0003-00-0003-66.png
00000014,470,1,1440001574136,1440001574830,893,428,0,0,0,5,4,1,54,0005-00-0000-65.png,0004-00-0008-33.png
00000014,471,0,1440001575826,1440001576351,858,468,0,0,0,4,5,1,45,0004-00-0001-23.png,0005-00-0001-88.png
00000014,472,1,1440001579324,1440001579907,904,466,0,0,0,2,1,1,21,0002-00-0004-59.png,0001-00-0001-79.png
00000014,473,1,1440001580844,1440001581378,896,454,0,0,0,4,3,1,43,0004-00-0001-91.png,0003-00-0000-10.png
00000014,474,1,1440001582808,1440001582885,482,532,0,0,0,3,4,1,34,0003-00-0003-67.png,0004-00-0005-92.png
00000014,475,0,1440001583985,1440001584502,932,388,0,0,0,2,3,1,23,0002-00-0002-47.png,0003-00-0001-47.png
00000014,476,0,1440001587491,1440001587519,512,445,0,0,0,2,1,1,21,0002-00-0001-04.png,0001-00-0006-38.png
00000014,477,0,1440001590442,1440001590482,469,377,0,0,0,5,4,1,54,0005-00-0006-60.png,0004-00-0007-51.png
00000014,478,0,1440001593983,1440001594712,911,489,0,0,0,1,2,1,12,0001-00-0003-56.png,0002-00-0009-24.png
00000014,479,1,1440001598162,1440001598688,894,492,0,0,0,3,2,1,32,0003-00-0001-97.png,0002-00-0004-26.png
00000014,480,1,1440001599912,1440001600986,404,504,0,0,0,4,5,1,45,0004-00-0001-33.png,0005-00-0000-63.png
00000014,481,1,1440001602030,1440001602581,339,406,0,0,0,3,4,1,34,0003-00-0005-08.png,0004-00-0008-68.png
00000014,482,1,1440001603733,1440001604394,859,474,0,0,0,3,2,1,32,0003-00-0008-75.png,0002-00-0008-41.png
00000014,483,0,1440001605489,1440001606062,323,422,0,0,0,4,3,1,43,0004-00-0003-20.png,0003-00-0006-08.png
00000014,484,1,1440001612365,1440001612910,357,456,0,0,0,1,2,1,12,0001-00-0006-08.png,0002-00-0009-90.png
00000014,485,1,1440001614207,1440001614768,326,434,0,0,0,2,3,1,23,0002-00-0004-78.png,0003-00-0005-82.png
00000014,486,1,1440001615777,1440001616349,897,476,0,0,0,2,1,1,21,0002-00-0006-34.png,0001-00-0001-62.png
00000014,487,1,1440001617551,1440001618813,871,500,0,0,0,5,4,1,54,0005-00-0000-40.png,0004-00-0009-78.png
00000014,488,1,1440001619752,1440001620318,342,399,0,0,0,4,5,1,45,0004-00-0008-64.png,0005-00-0007-53.png
00000014,489,0,1440001621278,1440001622099,878,492,0,0,0,1,2,1,12,0001-00-0005-91.png,0002-00-0008-83.png
00000014,490,1,1440001627218,1440001628234,908,486,0,0,0,3,2,1,32,0003-00-0003-80.png,0002-00-0005-68.png
00000014,491,0,1440001631531,1440001632043,302,398,0,0,0,2,1,1,21,0002-00-0003-99.png,0001-00-0007-66.png
00000014,492,0,1440001641765,1440001642339,902,453,0,0,0,4,5,1,45,0004-00-0002-63.png,0005-00-0000-96.png
00000014,493,1,1440001646266,1440001646849,287,415,0,0,0,2,3,1,23,0002-00-0005-97.png,0003-00-0000-04.png
00000014,494,1,1440001648820,1440001649634,278,400,0,0,0,3,4,1,34,0003-00-0007-52.png,0004-00-0008-29.png
00000014,495,1,1440001650969,1440001651558,901,474,0,0,0,4,3,1,43,0004-00-0003-35.png,0003-00-0005-90.png
00000014,496,1,1440001653343,1440001653979,939,384,0,0,0,5,4,1,54,0005-00-0001-53.png,0004-00-0004-73.png
00000014,497,1,1440001655084,1440001656216,400,445,0,0,0,3,4,1,34,0003-00-0007-34.png,0004-00-0008-73.png
00000014,498,0,1440001657927,1440001659573,904,467,0,0,0,1,2,1,12,0001-00-0006-93.png,0002-00-0005-40.png
00000014,499,0,1440001662697,1440001663336,862,384,0,0,0,2,3,1,23,0002-00-0007-01.png,0003-00-0003-39.png
00000014,500,1,1440001670187,1440001670737,403,480,0,0,0,4,5,1,45,0004-00-0007-24.png,0005-00-0005-29.png
00000014,501,1,1440001672668,1440001673713,926,476,0,0,0,3,2,1,32,0003-00-0006-68.png,0002-00-0005-87.png
00000014,502,0,1440001674714,1440001674740,492,386,0,0,0,2,1,1,21,0002-00-0004-20.png,0001-00-0009-27.png
00000014,503,1,1440001679484,1440001680133,889,319,0,0,0,4,3,1,43,0004-00-0003-36.png,0003-00-0007-43.png
00000014,504,0,1440001681384,1440001682438,406,480,0,0,0,5,4,1,54,0005-00-0004-09.png,0004-00-0001-65.png
00000014,505,1,1440001686103,1440001686658,896,408,0,0,0,5,4,1,54,0005-00-0003-96.png,0004-00-0007-90.png
00000014,506,1,1440001687764,1440001688318,441,332,0,0,0,2,3,1,23,0002-00-0004-72.png,0003-00-0009-12.png
00000014,507,1,1440001690327,1440001690872,312,411,0,0,0,1,2,1,12,0001-00-0005-92.png,0002-00-0007-24.png
00000014,508,0,1440001691867,1440001691875,462,393,0,0,0,2,1,1,21,0002-00-0003-26.png,0001-00-0000-71.png
00000014,509,1,1440001695232,1440001695296,478,423,0,0,0,3,4,1,34,0003-00-0009-53.png,0004-00-0005-53.png
00000014,510,1,1440001696279,1440001696988,919,373,0,0,0,3,2,1,32,0003-00-0003-95.png,0002-00-0005-45.png
00000014,511,1,1440001698155,1440001698736,901,461,0,0,0,4,3,1,43,0004-00-0004-26.png,0003-00-0009-18.png
00000014,512,0,1440001699898,1440001700406,926,460,0,0,0,4,5,1,45,0004-00-0003-13.png,0005-00-0009-32.png
00000014,513,0,1440001732034,1440001732202,1040,445,0,0,0,1,2,1,12,0001-00-0008-12.png,0002-00-0002-88.png
00000014,514,1,1440001735145,1440001735744,310,397,0,0,0,3,4,1,34,0003-00-0008-63.png,0004-00-0001-55.png
00000014,515,0,1440001740901,1440001742566,919,463,0,0,0,2,3,1,23,0002-00-0003-23.png,0003-00-0001-01.png
00000014,516,1,1440001745481,1440001746041,907,460,0,0,0,2,1,1,21,0002-00-0003-56.png,0001-00-0003-35.png
00000014,517,1,1440001747589,1440001748126,911,392,0,0,0,4,3,1,43,0004-00-0000-12.png,0003-00-0005-60.png
00000014,518,0,1440001752738,1440001753364,294,407,0,0,0,5,4,1,54,0005-00-0008-27.png,0004-00-0007-59.png
00000014,519,1,1440001763817,1440001764428,1204,397,0,0,0,3,2,1,32,0003-00-0000-29.png,0002-00-0009-20.png
00000014,520,1,1440001768949,1440001769590,228,497,0,0,0,4,5,1,45,0004-00-0009-34.png,0005-00-0003-67.png
00000014,521,0,1440001770636,1440001771207,905,399,0,0,0,4,5,1,45,0004-00-0006-69.png,0005-00-0005-00.png
00000014,522,0,1440001780346,1440001780899,338,375,0,0,0,2,1,1,21,0002-00-0007-13.png,0001-00-0000-28.png
00000014,523,0,1440001794056,1440001794674,351,345,0,0,0,4,3,1,43,0004-00-0002-33.png,0003-00-0007-21.png
00000014,524,1,1440001807033,1440001807620,273,358,0,0,0,1,2,1,12,0001-00-0009-03.png,0002-00-0008-17.png
00000014,525,0,1440001809175,1440001810985,295,381,0,0,0,3,2,1,32,0003-00-0007-53.png,0002-00-0006-28.png
00000014,526,1,1440001817653,1440001818237,325,380,0,0,0,2,3,1,23,0002-00-0004-04.png,0003-00-0000-75.png
00000014,527,1,1440001819808,1440001821153,396,517,0,0,0,3,4,1,34,0003-00-0006-52.png,0004-00-0009-22.png
00000014,528,0,1440001825853,1440001826419,383,381,0,0,0,5,4,1,54,0005-00-0002-14.png,0004-00-0006-83.png
00000014,529,0,1440001829779,1440001830401,899,385,0,0,0,2,3,1,23,0002-00-0003-91.png,0003-00-0005-24.png
00000014,530,1,1440001833606,1440001834209,290,387,0,0,0,1,2,1,12,0001-00-0007-44.png,0002-00-0006-98.png
00000014,531,0,1440001835213,1440001836538,512,485,0,0,0,2,1,1,21,0002-00-0006-93.png,0001-00-0003-36.png
00000014,532,1,1440001840104,1440001840579,388,499,0,0,0,3,4,1,34,0003-00-0003-80.png,0004-00-0009-29.png
00000014,533,1,1440001841993,1440001842580,858,437,0,0,0,5,4,1,54,0005-00-0003-75.png,0004-00-0003-29.png
00000014,534,0,1440001844932,1440001845588,311,409,0,0,0,3,2,1,32,0003-00-0007-67.png,0002-00-0003-88.png
00000014,535,1,1440001848440,1440001848995,928,410,0,0,0,4,3,1,43,0004-00-0004-93.png,0003-00-0000-13.png
00000014,536,0,1440001849952,1440001851211,923,418,0,0,0,4,5,1,45,0004-00-0001-84.png,0005-00-0007-91.png
00000014,537,1,1440001854296,1440001854821,367,501,0,0,0,1,2,1,12,0001-00-0006-84.png,0002-00-0001-67.png
00000014,538,1,1440001855765,1440001856458,958,337,0,0,0,5,4,1,54,0005-00-0002-88.png,0004-00-0004-11.png
00000014,539,1,1440001859194,1440001859691,871,444,0,0,0,3,2,1,32,0003-00-0005-72.png,0002-00-0009-07.png
00000014,540,1,1440001861273,1440001861281,484,405,0,0,0,3,4,1,34,0003-00-0009-33.png,0004-00-0007-75.png
00000014,541,1,1440001863653,1440001863669,500,381,0,0,0,4,5,1,45,0004-00-0003-30.png,0005-00-0009-34.png
00000014,542,1,1440001866110,1440001866673,876,410,0,0,0,4,3,1,43,0004-00-0006-21.png,0003-00-0005-79.png
00000014,543,1,1440001867793,1440001867813,498,436,0,0,0,2,3,1,23,0002-00-0009-43.png,0003-00-0008-64.png
00000014,544,1,1440001869390,1440001869944,874,460,0,0,0,2,1,1,21,0002-00-0000-19.png,0001-00-0004-57.png
00000014,545,1,1440001871660,1440001872252,868,478,0,0,0,5,4,1,54,0005-00-0005-24.png,0004-00-0000-29.png
00000014,546,1,1440001874052,1440001874108,486,447,0,0,0,1,2,1,12,0001-00-0009-98.png,0002-00-0002-35.png
00000014,547,0,1440001877425,1440001877540,464,448,0,0,0,2,1,1,21,0002-00-0008-45.png,0001-00-0008-70.png
00000014,548,1,1440001882728,1440001882764,492,399,0,0,0,3,4,1,34,0003-00-0006-58.png,0004-00-0006-97.png
00000014,549,1,1440001884537,1440001884637,462,462,0,0,0,2,3,1,23,0002-00-0004-09.png,0003-00-0001-74.png
00000014,550,0,1440001886586,1440001886602,453,446,0,0,0,3,2,1,32,0003-00-0009-28.png,0002-00-0000-19.png
00000014,551,1,1440001890639,1440001891362,938,375,0,0,0,4,3,1,43,0004-00-0003-66.png,0003-00-0000-14.png
00000014,552,1,1440001893635,1440001894713,340,336,0,0,0,4,5,1,45,0004-00-0006-19.png,0005-00-0002-83.png
00000014,553,1,1440001896472,1440001897072,913,399,0,0,0,4,3,1,43,0004-00-0007-00.png,0003-00-0008-22.png
00000014,554,1,1440001898850,1440001898976,461,513,0,0,0,1,2,1,12,0001-00-0006-73.png,0002-00-0004-39.png
00000014,555,1,1440001901395,1440001902058,920,378,0,0,0,2,1,1,21,0002-00-0002-69.png,0001-00-0001-75.png
00000014,556,0,1440001903809,1440001903913,446,524,0,0,0,3,2,1,32,0003-00-0006-86.png,0002-00-0002-14.png
00000014,557,0,1440001910093,1440001910137,979,532,0,0,0,4,5,1,45,0004-00-0005-89.png,0005-00-0006-98.png
00000014,558,0,1440001913914,1440001914577,334,476,0,0,0,5,4,1,54,0005-00-0008-97.png,0004-00-0006-32.png
00000014,559,1,1440001921098,1440001921171,491,401,0,0,0,2,3,1,23,0002-00-0002-06.png,0003-00-0005-61.png
00000014,560,1,1440001922827,1440001922851,467,416,0,0,0,3,4,1,34,0003-00-0007-53.png,0004-00-0001-66.png
00000014,561,1,1440001924806,1440001925877,961,387,0,0,0,2,1,1,21,0002-00-0000-37.png,0001-00-0002-35.png
00000014,562,1,1440001927406,1440001927944,401,370,0,0,0,1,2,1,12,0001-00-0005-94.png,0002-00-0005-87.png
00000014,563,1,1440001930508,1440001930667,502,565,0,0,0,4,5,1,45,0004-00-0006-60.png,0005-00-0004-91.png
00000014,564,0,1440001934376,1440001934392,489,425,0,0,0,4,3,1,43,0004-00-0006-92.png,0003-00-0002-74.png
00000014,565,0,1440001937908,1440001937936,486,387,0,0,0,5,4,1,54,0005-00-0009-00.png,0004-00-0003-65.png
00000014,566,0,1440001943015,1440001943601,325,361,0,0,0,3,2,1,32,0003-00-0004-16.png,0002-00-0009-76.png
00000014,567,1,1440001946710,1440001947780,378,466,0,0,0,2,3,1,23,0002-00-0002-54.png,0003-00-0000-03.png
00000014,568,1,1440001951661,1440001951709,466,451,0,0,0,3,4,1,34,0003-00-0004-43.png,0004-00-0000-69.png
00000014,569,0,1440001953804,1440001953913,511,445,0,0,0,5,4,1,54,0005-00-0001-22.png,0004-00-0009-27.png
00000014,570,0,1440001956929,1440001956933,461,433,0,0,0,3,2,1,32,0003-00-0006-23.png,0002-00-0006-41.png
00000014,571,1,1440001962773,1440001962781,504,410,0,0,0,3,4,1,34,0003-00-0002-00.png,0004-00-0004-57.png
00000014,572,1,1440001964234,1440001964262,485,446,0,0,0,4,5,1,45,0004-00-0006-90.png,0005-00-0004-47.png
00000014,573,0,1440001967241,1440001967321,489,516,0,0,0,4,3,1,43,0004-00-0004-46.png,0003-00-0001-21.png
00000014,574,1,1440001970267,1440001971277,392,427,0,0,0,1,2,1,12,0001-00-0001-66.png,0002-00-0002-63.png
00000014,575,0,1440001972324,1440001973021,862,436,0,0,0,2,3,1,23,0002-00-0007-70.png,0003-00-0001-37.png
00000014,576,0,1440001976674,1440001976694,504,419,0,0,0,2,1,1,21,0002-00-0008-83.png,0001-00-0003-63.png
00000014,577,0,1440001980988,1440001981557,879,485,0,0,0,1,2,1,12,0001-00-0004-93.png,0002-00-0000-72.png
00000014,578,0,1440001984742,1440001984766,486,405,0,0,0,3,2,1,32,0003-00-0003-17.png,0002-00-0005-55.png
00000014,579,1,1440001987828,1440001987856,390,453,0,0,0,4,5,1,45,0004-00-0008-75.png,0005-00-0007-43.png
00000014,580,1,1440001994166,1440001994751,929,402,0,0,0,5,4,1,54,0005-00-0008-15.png,0004-00-0002-92.png
00000014,581,0,1440001995789,1440001996455,913,384,0,0,0,2,3,1,23,0002-00-0009-17.png,0003-00-0008-00.png
00000014,582,1,1440002001105,1440002001640,905,481,0,0,0,4,3,1,43,0004-00-0005-82.png,0003-00-0006-32.png
00000014,583,1,1440002004107,1440002004696,907,480,0,0,0,2,1,1,21,0002-00-0006-31.png,0001-00-0009-50.png
00000014,584,1,1440002008080,1440002008112,514,398,0,0,0,3,4,1,34,0003-00-0002-73.png,0004-00-0004-85.png
00000014,585,1,1440002012195,1440002012227,376,449,0,0,0,3,4,1,34,0003-00-0001-31.png,0004-00-0006-34.png
00000014,586,0,1440002013309,1440002013913,898,456,0,0,0,2,3,1,23,0002-00-0001-84.png,0003-00-0003-56.png
00000014,587,1,1440002016960,1440002017491,918,472,0,0,0,3,2,1,32,0003-00-0006-12.png,0002-00-0001-50.png
00000014,588,1,1440002020110,1440002020359,505,468,0,0,0,1,2,1,12,0001-00-0000-22.png,0002-00-0002-03.png
00000014,589,0,1440002022003,1440002022031,483,459,0,0,0,2,1,1,21,0002-00-0006-39.png,0001-00-0008-84.png
00000014,590,0,1440002025581,1440002025625,504,451,0,0,0,5,4,1,54,0005-00-0003-54.png,0004-00-0002-76.png
00000014,591,0,1440002028564,1440002029118,307,393,0,0,0,4,3,1,43,0004-00-0009-28.png,0003-00-0003-59.png
00000014,592,1,1440002033653,1440002034132,268,383,0,0,0,4,5,1,45,0004-00-0003-70.png,0005-00-0005-58.png
00000014,593,1,1440002036900,1440002036920,482,395,0,0,0,1,2,1,12,0001-00-0004-76.png,0002-00-0004-80.png
00000014,594,0,1440002038057,1440002038133,468,533,0,0,0,2,1,1,21,0002-00-0000-41.png,0001-00-0009-04.png
00000014,595,0,1440002041702,1440002041726,468,387,0,0,0,4,3,1,43,0004-00-0009-89.png,0003-00-0002-91.png
00000014,596,0,1440002044650,1440002044746,475,473,0,0,0,3,2,1,32,0003-00-0006-00.png,0002-00-0006-42.png
00000014,597,1,1440002049992,1440002050016,488,426,0,0,0,4,5,1,45,0004-00-0009-99.png,0005-00-0009-54.png
00000014,598,1,1440002051373,1440002051381,486,444,0,0,0,3,4,1,34,0003-00-0005-06.png,0004-00-0004-82.png
00000014,599,0,1440002054221,1440002054797,372,499,0,0,0,5,4,1,54,0005-00-0001-47.png,0004-00-0007-33.png
00000014,600,1,1440002058479,1440002058499,472,441,0,0,0,2,3,1,23,0002-00-0002-60.png,0003-00-0001-28.png
00000014,601,1,1440002060113,1440002060185,519,474,0,0,0,3,4,1,34,0003-00-0006-76.png,0004-00-0001-48.png
00000014,602,1,1440002062037,1440002062069,478,501,0,0,0,2,3,1,23,0002-00-0005-47.png,0003-00-0001-09.png
00000014,603,0,1440002064798,1440002064894,523,514,0,0,0,4,3,1,43,0004-00-0003-81.png,0003-00-0005-70.png
00000014,604,0,1440002069268,1440002069280,523,400,0,0,0,3,2,1,32,0003-00-0004-81.png,0002-00-0000-78.png
00000014,605,1,1440002072549,1440002072605,513,442,0,0,0,4,5,1,45,0004-00-0000-50.png,0005-00-0007-45.png
00000014,606,0,1440002075041,1440002075121,490,451,0,0,0,2,1,1,21,0002-00-0001-39.png,0001-00-0000-40.png
00000014,607,1,1440002079784,1440002080476,286,385,0,0,0,1,2,1,12,0001-00-0003-85.png,0002-00-0001-31.png
00000014,608,0,1440002082377,1440002082974,307,394,0,0,0,5,4,1,54,0005-00-0004-90.png,0004-00-0008-17.png
00000014,609,1,1440002085826,1440002086490,259,385,0,0,0,4,5,1,45,0004-00-0000-74.png,0005-00-0008-50.png
00000014,610,0,1440002087588,1440002088200,912,424,0,0,0,1,2,1,12,0001-00-0005-91.png,0002-00-0007-26.png
00000014,611,1,1440002091680,1440002092175,900,397,0,0,0,3,2,1,32,0003-00-0001-48.png,0002-00-0001-71.png
00000014,612,0,1440002093985,1440002094539,886,398,0,0,0,2,3,1,23,0002-00-0001-83.png,0003-00-0006-55.png
00000014,613,0,1440002097444,1440002097492,479,410,0,0,0,4,3,1,43,0004-00-0007-03.png,0003-00-0000-49.png
00000014,614,0,1440002100931,1440002100999,521,481,0,0,0,2,1,1,21,0002-00-0008-72.png,0001-00-0004-16.png
00000014,615,1,1440002103976,1440002104511,877,468,0,0,0,5,4,1,54,0005-00-0000-22.png,0004-00-0004-68.png
00000014,616,1,1440002106989,1440002107017,514,450,0,0,0,3,4,1,34,0003-00-0003-49.png,0004-00-0004-29.png
00000014,617,1,1440002109489,1440002110057,934,391,0,0,0,2,1,1,21,0002-00-0008-34.png,0001-00-0003-96.png
00000014,618,1,1440002111190,1440002111812,321,403,0,0,0,1,2,1,12,0001-00-0006-09.png,0002-00-0003-98.png
00000014,619,0,1440002113295,1440002113319,520,404,0,0,0,4,3,1,43,0004-00-0009-14.png,0003-00-0002-22.png
00000014,620,0,1440002116179,1440002116617,881,468,0,0,0,3,4,1,34,0003-00-0005-24.png,0004-00-0006-85.png
00000014,621,1,1440002119571,1440002119659,501,492,0,0,0,2,3,1,23,0002-00-0002-53.png,0003-00-0001-55.png
00000014,622,0,1440002120746,1440002120766,492,463,0,0,0,3,2,1,32,0003-00-0005-14.png,0002-00-0007-76.png
00000014,623,1,1440002123935,1440002123955,491,448,0,0,0,4,5,1,45,0004-00-0000-93.png,0005-00-0009-84.png
00000014,624,1,1440002125443,1440002125980,870,484,0,0,0,5,4,1,54,0005-00-0004-16.png,0004-00-0003-71.png
00000014,625,0,1440002127453,1440002127473,500,447,0,0,0,3,2,1,32,0003-00-0001-02.png,0002-00-0006-08.png
00000014,626,1,1440002130472,1440002130512,493,448,0,0,0,2,3,1,23,0002-00-0008-99.png,0003-00-0008-56.png
00000014,627,1,1440002131529,1440002132152,859,361,0,0,0,5,4,1,54,0005-00-0002-76.png,0004-00-0002-71.png
00000014,628,1,1440002133208,1440002133236,495,478,0,0,0,1,2,1,12,0001-00-0000-31.png,0002-00-0008-90.png
00000014,629,1,1440002134900,1440002134904,503,451,0,0,0,3,4,1,34,0003-00-0003-60.png,0004-00-0005-93.png
00000014,630,0,1440002136538,1440002136626,491,504,0,0,0,4,3,1,43,0004-00-0005-34.png,0003-00-0005-42.png
00000014,631,1,1440002139993,1440002140879,427,371,0,0,0,4,5,1,45,0004-00-0005-54.png,0005-00-0008-59.png
00000014,632,0,1440002141845,1440002141869,488,458,0,0,0,2,1,1,21,0002-00-0008-04.png,0001-00-0001-46.png
00000014,633,1,1440002144862,1440002145492,299,405,0,0,0,2,3,1,23,0002-00-0002-82.png,0003-00-0008-64.png
00000014,634,1,1440002146841,1440002146881,492,470,0,0,0,3,4,1,34,0003-00-0004-17.png,0004-00-0004-81.png
00000014,635,1,1440002148473,1440002148492,467,453,0,0,0,1,2,1,12,0001-00-0001-45.png,0002-00-0000-26.png
00000014,636,1,1440002149439,1440002150540,862,410,0,0,0,2,1,1,21,0002-00-0006-86.png,0001-00-0002-55.png
00000014,637,0,1440002151534,1440002151582,500,469,0,0,0,3,2,1,32,0003-00-0005-23.png,0002-00-0004-87.png
00000014,638,0,1440002155042,1440002155062,487,462,0,0,0,5,4,1,54,0005-00-0006-35.png,0004-00-0008-39.png
00000014,639,1,1440002157904,1440002158357,875,410,0,0,0,4,3,1,43,0004-00-0002-74.png,0003-00-0002-17.png
00000014,640,1,1440002159360,1440002159379,462,471,0,0,0,4,5,1,45,0004-00-0002-47.png,0005-00-0006-63.png
00000014,641,0,1440002161006,1440002161588,891,464,0,0,0,2,3,1,23,0002-00-0001-71.png,0003-00-0001-09.png
00000014,642,1,1440002165336,1440002165871,325,372,0,0,0,3,4,1,34,0003-00-0009-68.png,0004-00-0005-73.png
00000014,643,0,1440002166869,1440002166889,494,466,0,0,0,5,4,1,54,0005-00-0006-93.png,0004-00-0008-74.png
00000014,644,1,1440002169934,1440002170550,298,372,0,0,0,4,5,1,45,0004-00-0003-38.png,0005-00-0003-62.png
00000014,645,0,1440002171523,1440002172140,328,390,0,0,0,2,1,1,21,0002-00-0001-04.png,0001-00-0003-10.png
00000014,646,0,1440002175125,1440002175149,511,442,0,0,0,3,2,1,32,0003-00-0003-09.png,0002-00-0007-75.png
00000014,647,1,1440002178267,1440002178299,512,488,0,0,0,1,2,1,12,0001-00-0001-23.png,0002-00-0003-77.png
00000014,648,0,1440002179299,1440002179331,515,475,0,0,0,4,3,1,43,0004-00-0009-31.png,0003-00-0005-68.png
00000014,649,1,1440002182332,1440002182897,900,390,0,0,0,3,2,1,32,0003-00-0004-83.png,0002-00-0007-32.png
00000014,650,0,1440002183782,1440002184410,902,469,0,0,0,2,3,1,23,0002-00-0008-92.png,0003-00-0006-75.png
00000014,651,1,1440002187438,1440002187507,481,428,0,0,0,1,2,1,12,0001-00-0007-06.png,0002-00-0006-39.png
00000014,652,0,1440002188393,1440002188449,496,480,0,0,0,5,4,1,54,0005-00-0009-31.png,0004-00-0000-86.png
00000014,653,1,1440002191275,1440002191942,325,332,0,0,0,4,5,1,45,0004-00-0002-38.png,0005-00-0007-08.png
00000014,654,0,1440002193331,1440002193379,485,481,0,0,0,2,1,1,21,0002-00-0009-76.png,0001-00-0003-74.png
00000014,655,1,1440002196448,1440002196993,934,393,0,0,0,4,3,1,43,0004-00-0003-81.png,0003-00-0001-48.png
00000014,656,1,1440002198004,1440002198044,519,504,0,0,0,3,4,1,34,0003-00-0006-60.png,0004-00-0009-46.png
00000014,657,0,1440002199675,1440002200264,879,480,0,0,0,2,3,1,23,0002-00-0002-68.png,0003-00-0007-72.png
00000014,658,1,1440002203109,1440002203674,349,379,0,0,0,1,2,1,12,0001-00-0005-21.png,0002-00-0006-92.png
00000014,659,0,1440002204634,1440002204646,483,466,0,0,0,3,2,1,32,0003-00-0007-98.png,0002-00-0003-72.png
00000014,660,1,1440002207625,1440002208186,964,371,0,0,0,4,3,1,43,0004-00-0002-88.png,0003-00-0001-88.png
00000014,661,1,1440002209135,1440002209779,295,394,0,0,0,4,5,1,45,0004-00-0009-63.png,0005-00-0000-95.png
00000014,662,1,1440002211599,1440002212133,858,380,0,0,0,5,4,1,54,0005-00-0007-36.png,0004-00-0008-65.png
00000014,663,1,1440002213102,1440002214002,427,344,0,0,0,3,4,1,34,0003-00-0000-11.png,0004-00-0000-60.png
00000014,664,0,1440002215077,1440002215169,488,566,0,0,0,2,1,1,21,0002-00-0001-81.png,0001-00-0005-27.png
00000014,665,0,1440002218207,1440002218696,312,410,0,0,0,3,2,1,32,0003-00-0009-73.png,0002-00-0000-92.png
00000014,666,1,1440002222424,1440002222508,497,503,0,0,0,4,5,1,45,0004-00-0001-20.png,0005-00-0004-54.png
00000014,667,0,1440002223536,1440002224119,197,462,0,0,0,2,1,1,21,0002-00-0009-63.png,0001-00-0007-07.png
00000014,668,0,1440002227100,1440002227147,510,420,0,0,0,4,3,1,43,0004-00-0002-81.png,0003-00-0002-24.png
00000014,669,1,1440002229992,1440002230548,323,382,0,0,0,2,3,1,23,0002-00-0001-62.png,0003-00-0001-17.png
00000014,670,1,1440002231966,1440002232526,402,489,0,0,0,3,4,1,34,0003-00-0001-57.png,0004-00-0000-57.png
00000014,671,0,1440002233566,1440002234230,876,441,0,0,0,1,2,1,12,0001-00-0008-51.png,0002-00-0002-28.png
00000014,672,0,1440002237227,1440002237706,343,390,0,0,0,5,4,1,54,0005-00-0009-05.png,0004-00-0002-47.png
00000014,673,1,1440002240579,1440002241128,325,384,0,0,0,2,3,1,23,0002-00-0002-01.png,0003-00-0007-72.png
00000014,674,1,1440002242677,1440002243283,898,458,0,0,0,5,4,1,54,0005-00-0000-66.png,0004-00-0004-12.png
00000014,675,1,1440002244336,1440002244356,515,462,0,0,0,1,2,1,12,0001-00-0002-31.png,0002-00-0001-54.png
00000014,676,1,1440002246025,1440002246085,504,514,0,0,0,3,4,1,34,0003-00-0004-07.png,0004-00-0007-28.png
00000014,677,1,1440002247951,1440002248427,900,411,0,0,0,4,3,1,43,0004-00-0009-47.png,0003-00-0002-01.png
00000014,678,0,1440002250447,1440002251008,297,408,0,0,0,3,2,1,32,0003-00-0008-45.png,0002-00-0002-93.png
00000014,679,1,1440002253995,1440002254524,871,358,0,0,0,2,1,1,21,0002-00-0000-70.png,0001-00-0000-30.png
00000014,680,1,1440002255505,1440002255552,505,481,0,0,0,4,5,1,45,0004-00-0009-88.png,0005-00-0001-50.png
00000014,681,1,1440002257329,1440002257353,483,491,0,0,0,3,4,1,34,0003-00-0005-30.png,0004-00-0000-41.png
00000014,682,1,1440002259054,1440002259613,908,387,0,0,0,3,2,1,32,0003-00-0009-73.png,0002-00-0004-73.png
00000014,683,0,1440002261708,1440002261768,511,491,0,0,0,5,4,1,54,0005-00-0007-82.png,0004-00-0008-52.png
00000014,684,1,1440002265006,1440002265490,882,405,0,0,0,2,1,1,21,0002-00-0006-06.png,0001-00-0001-55.png
00000014,685,1,1440002267978,1440002268274,477,483,0,0,0,2,3,1,23,0002-00-0000-32.png,0003-00-0008-25.png
00000014,686,1,1440002270602,1440002271204,905,401,0,0,0,4,3,1,43,0004-00-0003-29.png,0003-00-0008-72.png
00000014,687,0,1440002272978,1440002273557,926,397,0,0,0,4,5,1,45,0004-00-0007-98.png,0005-00-0007-55.png
00000014,688,1,1440002276584,1440002277078,337,502,0,0,0,1,2,1,12,0001-00-0007-16.png,0002-00-0002-36.png
00000014,689,0,1440002279189,1440002279738,879,494,0,0,0,1,2,1,12,0001-00-0000-84.png,0002-00-0002-28.png
00000014,690,1,1440002283263,1440002283860,913,449,0,0,0,4,3,1,43,0004-00-0006-74.png,0003-00-0006-84.png
00000014,691,1,1440002285392,1440002285915,939,384,0,0,0,2,1,1,21,0002-00-0000-97.png,0001-00-0002-67.png
00000014,692,0,1440002287718,1440002288194,880,453,0,0,0,3,4,1,34,0003-00-0005-73.png,0004-00-0005-80.png
00000014,693,1,1440002291781,1440002292297,331,385,0,0,0,2,3,1,23,0002-00-0001-08.png,0003-00-0002-80.png
00000014,694,0,1440002293811,1440002293860,491,477,0,0,0,3,2,1,32,0003-00-0008-16.png,0002-00-0005-22.png
00000014,695,1,1440002296892,1440002297399,345,378,0,0,0,4,5,1,45,0004-00-0005-27.png,0005-00-0005-68.png
00000014,696,0,1440002298807,1440002298882,517,514,0,0,0,5,4,1,54,0005-00-0000-84.png,0004-00-0006-22.png
00000014,697,0,1440002301840,1440002301872,497,470,0,0,0,4,3,1,43,0004-00-0007-67.png,0003-00-0006-75.png
00000014,698,0,1440002305317,1440002305811,932,362,0,0,0,2,3,1,23,0002-00-0003-23.png,0003-00-0008-56.png
00000014,699,1,1440002308708,1440002308732,477,440,0,0,0,4,5,1,45,0004-00-0000-74.png,0005-00-0001-09.png
00000014,700,1,1440002309812,1440002310360,908,366,0,0,0,5,4,1,54,0005-00-0001-90.png,0004-00-0002-09.png
00000014,701,0,1440002312307,1440002312343,504,450,0,0,0,2,1,1,21,0002-00-0005-17.png,0001-00-0001-06.png
00000014,702,0,1440002315286,1440002315306,504,410,0,0,0,3,2,1,32,0003-00-0006-84.png,0002-00-0006-14.png
00000014,703,1,1440002318365,1440002318399,496,422,0,0,0,3,4,1,34,0003-00-0005-07.png,0004-00-0001-89.png
00000014,704,0,1440002319412,1440002320492,872,458,0,0,0,1,2,1,12,0001-00-0009-25.png,0002-00-0002-17.png
00000014,705,1,1440002323484,1440002323504,513,469,0,0,0,4,5,1,45,0004-00-0002-01.png,0005-00-0009-02.png
00000014,706,0,1440002324491,1440002325072,877,426,0,0,0,2,3,1,23,0002-00-0005-19.png,0003-00-0007-28.png
00000014,707,1,1440002328116,1440002328633,875,501,0,0,0,5,4,1,54,0005-00-0002-46.png,0004-00-0001-54.png
00000014,708,1,1440002329539,1440002329551,471,453,0,0,0,1,2,1,12,0001-00-0001-94.png,0002-00-0006-20.png
00000014,709,0,1440002331141,1440002331620,357,429,0,0,0,4,3,1,43,0004-00-0002-06.png,0003-00-0000-60.png
00000014,710,1,1440002334762,1440002335250,875,488,0,0,0,3,2,1,32,0003-00-0004-49.png,0002-00-0003-51.png
00000014,711,1,1440002336157,1440002336181,493,411,0,0,0,3,4,1,34,0003-00-0002-26.png,0004-00-0002-63.png
00000014,712,0,1440002337746,1440002337818,511,540,0,0,0,2,1,1,21,0002-00-0008-89.png,0001-00-0002-72.png
00000014,713,1,1440002340778,1440002340818,521,434,0,0,0,1,2,1,12,0001-00-0001-52.png,0002-00-0008-01.png
00000014,714,0,1440002341873,1440002342412,905,390,0,0,0,2,3,1,23,0002-00-0005-03.png,0003-00-0008-25.png
00000014,715,1,1440002345468,1440002345946,926,371,0,0,0,5,4,1,54,0005-00-0002-00.png,0004-00-0007-24.png
00000014,716,0,1440002346927,1440002347524,309,387,0,0,0,3,2,1,32,0003-00-0002-06.png,0002-00-0007-63.png
00000014,717,1,1440002350578,1440002350618,523,466,0,0,0,4,5,1,45,0004-00-0005-74.png,0005-00-0009-50.png
00000014,718,0,1440002351508,1440002351552,491,487,0,0,0,2,1,1,21,0002-00-0007-59.png,0001-00-0004-74.png
00000014,719,1,1440002354581,1440002355179,883,433,0,0,0,4,3,1,43,0004-00-0000-13.png,0003-00-0004-37.png
00000014,720,1,1440002356101,1440002356125,510,446,0,0,0,3,4,1,34,0003-00-0008-22.png,0004-00-0001-48.png
00000014,721,1,1440002357256,1440002357307,505,504,0,0,0,3,4,1,34,0003-00-0002-68.png,0004-00-0000-97.png
00000014,722,1,1440002358906,1440002359388,876,410,0,0,0,3,2,1,32,0003-00-0009-81.png,0002-00-0007-52.png
00000014,723,1,1440002360744,1440002361250,310,381,0,0,0,1,2,1,12,0001-00-0001-63.png,0002-00-0003-51.png
00000014,724,1,1440002362275,1440002363263,441,397,0,0,0,2,3,1,23,0002-00-0001-26.png,0003-00-0005-27.png
00000014,725,1,1440002364301,1440002364972,216,469,0,0,0,4,5,1,45,0004-00-0000-12.png,0005-00-0007-50.png
00000014,726,0,1440002366742,1440002366778,504,514,0,0,0,2,1,1,21,0002-00-0002-52.png,0001-00-0002-41.png
00000014,727,1,1440002369638,1440002370144,875,422,0,0,0,5,4,1,54,0005-00-0008-19.png,0004-00-0009-02.png
00000014,728,1,1440002371697,1440002372268,881,511,0,0,0,4,3,1,43,0004-00-0008-36.png,0003-00-0007-82.png
00000014,729,0,1440002373411,1440002374426,882,391,0,0,0,4,5,1,45,0004-00-0002-83.png,0005-00-0001-72.png
00000014,730,1,1440002377336,1440002377912,956,349,0,0,0,2,1,1,21,0002-00-0001-72.png,0001-00-0005-54.png
00000014,731,0,1440002378913,1440002378921,516,452,0,0,0,5,4,1,54,0005-00-0004-62.png,0004-00-0002-02.png
00000014,732,1,1440002382000,1440002382468,299,384,0,0,0,3,4,1,34,0003-00-0009-01.png,0004-00-0000-89.png
00000014,733,0,1440002383434,1440002383483,507,493,0,0,0,4,3,1,43,0004-00-0001-26.png,0003-00-0002-41.png
00000014,734,1,1440002386388,1440002386828,357,394,0,0,0,2,3,1,23,0002-00-0006-10.png,0003-00-0009-60.png
00000014,735,1,1440002387798,1440002387854,504,530,0,0,0,1,2,1,12,0001-00-0008-68.png,0002-00-0002-53.png
00000014,736,0,1440002389576,1440002390123,325,404,0,0,0,3,2,1,32,0003-00-0001-68.png,0002-00-0000-82.png
00000014,737,0,1440002393243,1440002393295,485,494,0,0,0,2,1,1,21,0002-00-0009-96.png,0001-00-0004-19.png
00000014,738,1,1440002396164,1440002396702,957,395,0,0,0,4,3,1,43,0004-00-0007-80.png,0003-00-0009-42.png
00000014,739,1,1440002397635,1440002398248,376,358,0,0,0,3,4,1,34,0003-00-0006-83.png,0004-00-0000-86.png
00000014,740,1,1440002399276,1440002399347,479,539,0,0,0,1,2,1,12,0001-00-0007-47.png,0002-00-0000-35.png
00000014,741,0,1440002401009,1440002401542,904,428,0,0,0,4,5,1,45,0004-00-0002-47.png,0005-00-0003-77.png
00000014,742,1,1440002404724,1440002405249,926,383,0,0,0,3,2,1,32,0003-00-0005-07.png,0002-00-0001-61.png
00000014,743,1,1440002406291,1440002408015,944,390,0,0,0,5,4,1,54,0005-00-0009-13.png,0004-00-0009-63.png
00000014,744,0,1440002409007,1440002410037,928,496,0,0,0,2,3,1,23,0002-00-0009-68.png,0003-00-0009-59.png
00000014,745,1,1440002412969,1440002413523,873,507,0,0,0,3,2,1,32,0003-00-0009-87.png,0002-00-0001-03.png
00000014,746,0,1440002414453,1440002415121,885,419,0,0,0,4,5,1,45,0004-00-0008-65.png,0005-00-0009-75.png
00000014,747,1,1440002418236,1440002418803,300,359,0,0,0,3,4,1,34,0003-00-0008-96.png,0004-00-0001-38.png
00000014,748,1,1440002419779,1440002420372,894,484,0,0,0,4,3,1,43,0004-00-0009-79.png,0003-00-0008-71.png
00000014,749,1,1440002421339,1440002421371,503,447,0,0,0,2,3,1,23,0002-00-0008-48.png,0003-00-0007-90.png
00000014,750,0,1440002423075,1440002423567,916,418,0,0,0,1,2,1,12,0001-00-0005-55.png,0002-00-0008-17.png
00000014,751,1,1440002426733,1440002427265,862,346,0,0,0,5,4,1,54,0005-00-0006-84.png,0004-00-0009-33.png
00000014,752,1,1440002428216,1440002428829,952,408,0,0,0,2,1,1,21,0002-00-0002-49.png,0001-00-0004-40.png
00000014,753,0,1440002430503,1440002431022,858,484,0,0,0,4,5,1,45,0004-00-0007-13.png,0005-00-0005-75.png
00000014,754,0,1440002434117,1440002434168,516,516,0,0,0,3,2,1,32,0003-00-0007-81.png,0002-00-0003-45.png
00000014,755,1,1440002437279,1440002437824,919,336,0,0,0,2,1,1,21,0002-00-0007-91.png,0001-00-0005-82.png
00000014,756,0,1440002438762,1440002439804,365,424,0,0,0,5,4,1,54,0005-00-0002-98.png,0004-00-0008-84.png
00000014,757,1,1440002442883,1440002442947,518,526,0,0,0,3,4,1,34,0003-00-0003-89.png,0004-00-0006-65.png
00000014,758,1,1440002443908,1440002444440,314,398,0,0,0,1,2,1,12,0001-00-0000-74.png,0002-00-0009-64.png
00000014,759,1,1440002445574,1440002446154,864,377,0,0,0,4,3,1,43,0004-00-0000-18.png,0003-00-0002-85.png
00000014,760,1,1440002447196,1440002447235,512,484,0,0,0,2,3,1,23,0002-00-0007-16.png,0003-00-0007-05.png
00000014,761,0,1440002448902,1440002449415,869,498,0,0,0,2,3,1,23,0002-00-0000-59.png,0003-00-0006-52.png
00000014,762,0,1440002452344,1440002452384,510,450,0,0,0,2,1,1,21,0002-00-0008-78.png,0001-00-0007-75.png
00000014,763,1,1440002455454,1440002455958,926,391,0,0,0,5,4,1,54,0005-00-0001-05.png,0004-00-0007-34.png
00000014,764,1,1440002456978,1440002457524,907,450,0,0,0,4,3,1,43,0004-00-0009-01.png,0003-00-0008-23.png
00000014,765,1,1440002459115,1440002460016,370,374,0,0,0,4,5,1,45,0004-00-0003-28.png,0005-00-0008-22.png
00000014,766,1,1440002461002,1440002461070,478,506,0,0,0,1,2,1,12,0001-00-0000-99.png,0002-00-0009-29.png
00000014,767,0,1440002462195,1440002462748,903,478,0,0,0,3,4,1,34,0003-00-0000-81.png,0004-00-0005-15.png
00000014,768,0,1440002465666,1440002466117,323,383,0,0,0,3,2,1,32,0003-00-0008-57.png,0002-00-0005-27.png
00000014,769,0,1440002469169,1440002469765,897,375,0,0,0,3,4,1,34,0003-00-0006-14.png,0004-00-0004-52.png
00000014,770,0,1440002472726,1440002473811,229,446,0,0,0,2,1,1,21,0002-00-0003-57.png,0001-00-0005-84.png
00000014,771,0,1440002476903,1440002476927,511,462,0,0,0,3,2,1,32,0003-00-0001-60.png,0002-00-0006-76.png
00000014,772,1,1440002479797,1440002479821,517,500,0,0,0,1,2,1,12,0001-00-0001-16.png,0002-00-0009-98.png
00000014,773,0,1440002480839,1440002480867,504,481,0,0,0,4,3,1,43,0004-00-0001-04.png,0003-00-0008-25.png
00000014,774,0,1440002483859,1440002484412,878,480,0,0,0,2,3,1,23,0002-00-0004-41.png,0003-00-0000-85.png
00000014,775,1,1440002487324,1440002487380,510,446,0,0,0,4,5,1,45,0004-00-0009-69.png,0005-00-0008-04.png
00000014,776,0,1440002488317,1440002488325,508,476,0,0,0,5,4,1,54,0005-00-0003-93.png,0004-00-0001-82.png
00000014,777,1,1440002491413,1440002491939,307,393,0,0,0,3,4,1,34,0003-00-0006-05.png,0004-00-0000-26.png
00000014,778,0,1440002492956,1440002493541,863,399,0,0,0,4,5,1,45,0004-00-0003-33.png,0005-00-0004-38.png
00000014,779,0,1440002496619,1440002496715,513,539,0,0,0,5,4,1,54,0005-00-0004-63.png,0004-00-0009-89.png
00000014,780,1,1440002499631,1440002499659,469,462,0,0,0,1,2,1,12,0001-00-0004-15.png,0002-00-0006-75.png
00000014,781,0,1440002500728,1440002501316,222,436,0,0,0,2,1,1,21,0002-00-0004-57.png,0001-00-0009-55.png
00000014,782,0,1440002504171,1440002504701,901,370,0,0,0,2,3,1,23,0002-00-0005-53.png,0003-00-0007-08.png
00000014,783,1,1440002507807,1440002508328,862,347,0,0,0,3,2,1,32,0003-00-0001-80.png,0002-00-0006-00.png
00000014,784,0,1440002509212,1440002509244,511,446,0,0,0,4,3,1,43,0004-00-0007-19.png,0003-00-0009-61.png
00000014,785,0,1440002512181,1440002512244,489,541,0,0,0,2,1,1,21,0002-00-0005-79.png,0001-00-0009-66.png
00000014,786,0,1440002515243,1440002516302,385,417,0,0,0,3,2,1,32,0003-00-0009-91.png,0002-00-0008-48.png
00000014,787,1,1440002519479,1440002519523,515,462,0,0,0,3,4,1,34,0003-00-0006-44.png,0004-00-0001-55.png
00000014,788,0,1440002520393,1440002520417,520,462,0,0,0,5,4,1,54,0005-00-0000-93.png,0004-00-0006-59.png
00000014,789,0,1440002523362,1440002523887,931,402,0,0,0,1,2,1,12,0001-00-0008-66.png,0002-00-0008-16.png
00000014,790,1,1440002526825,1440002526851,518,438,0,0,0,4,5,1,45,0004-00-0006-43.png,0005-00-0007-08.png
00000014,791,0,1440002527930,1440002527950,506,500,0,0,0,4,3,1,43,0004-00-0006-08.png,0003-00-0004-66.png
00000014,792,0,1440002530898,1440002531384,905,400,0,0,0,2,3,1,23,0002-00-0009-02.png,0003-00-0005-19.png
00000014,793,0,1440002534267,1440002534768,894,416,0,0,0,2,3,1,23,0002-00-0006-27.png,0003-00-0001-13.png
00000014,794,1,1440002537716,1440002538300,325,346,0,0,0,4,5,1,45,0004-00-0007-53.png,0005-00-0004-57.png
00000014,795,0,1440002539359,1440002539902,352,388,0,0,0,2,1,1,21,0002-00-0003-33.png,0001-00-0002-82.png
00000014,796,0,1440002542719,1440002542771,522,492,0,0,0,5,4,1,54,0005-00-0009-46.png,0004-00-0004-00.png
00000014,797,0,1440002545717,1440002546161,333,385,0,0,0,3,2,1,32,0003-00-0005-32.png,0002-00-0006-89.png
00000014,798,1,1440002551007,1440002551603,284,375,0,0,0,1,2,1,12,0001-00-0008-11.png,0002-00-0006-26.png
00000014,799,0,1440002552863,1440002553392,319,400,0,0,0,4,3,1,43,0004-00-0000-97.png,0003-00-0005-77.png
00000014,800,1,1440002556351,1440002556410,522,427,0,0,0,3,4,1,34,0003-00-0008-16.png,0004-00-0002-83.png
00000014,801,1,1440002558012,1440002558538,350,398,0,0,0,4,5,1,45,0004-00-0008-79.png,0005-00-0003-41.png
00000014,802,0,1440002560091,1440002561069,956,402,0,0,0,2,3,1,23,0002-00-0000-98.png,0003-00-0000-13.png
00000014,803,1,1440002565039,1440002565576,875,490,0,0,0,3,2,1,32,0003-00-0002-84.png,0002-00-0002-43.png
00000014,804,0,1440002567138,1440002567626,359,521,0,0,0,2,1,1,21,0002-00-0007-20.png,0001-00-0000-98.png
00000014,805,1,1440002570600,1440002571204,912,425,0,0,0,5,4,1,54,0005-00-0008-29.png,0004-00-0001-67.png
00000014,806,1,1440002572753,1440002573330,913,426,0,0,0,4,3,1,43,0004-00-0006-30.png,0003-00-0009-64.png
00000014,807,0,1440002574969,1440002575489,878,478,0,0,0,1,2,1,12,0001-00-0005-23.png,0002-00-0002-50.png
00000014,808,0,1440002578445,1440002578933,926,437,0,0,0,3,4,1,34,0003-00-0001-43.png,0004-00-0008-45.png
00000014,809,1,1440002581780,1440002582303,340,453,0,0,0,4,5,1,45,0004-00-0003-47.png,0005-00-0001-71.png
00000014,810,0,1440002583385,1440002584410,367,480,0,0,0,2,1,1,21,0002-00-0008-93.png,0001-00-0008-36.png
00000014,811,0,1440002587290,1440002587784,349,373,0,0,0,5,4,1,54,0005-00-0007-84.png,0004-00-0008-70.png
00000014,812,0,1440002590638,1440002590682,498,402,0,0,0,4,3,1,43,0004-00-0005-50.png,0003-00-0001-71.png
00000014,813,1,1440002593699,1440002593805,468,546,0,0,0,2,3,1,23,0002-00-0008-52.png,0003-00-0000-46.png
00000014,814,1,1440002594815,1440002595395,284,405,0,0,0,3,4,1,34,0003-00-0000-98.png,0004-00-0008-73.png
00000014,815,1,1440002596800,1440002596924,506,513,0,0,0,1,2,1,12,0001-00-0008-41.png,0002-00-0000-26.png
00000014,816,1,1440002598322,1440002599311,906,419,0,0,0,3,2,1,32,0003-00-0002-91.png,0002-00-0006-48.png
00000014,817,1,1440002600958,1440002601493,350,502,0,0,0,4,5,1,45,0004-00-0003-61.png,0005-00-0003-42.png
00000014,818,1,1440002602538,1440002603152,364,502,0,0,0,1,2,1,12,0001-00-0001-66.png,0002-00-0008-99.png
00000014,819,1,1440002604224,1440002604783,882,458,0,0,0,4,3,1,43,0004-00-0007-55.png,0003-00-0003-90.png
00000014,820,1,1440002606393,1440002606950,859,494,0,0,0,5,4,1,54,0005-00-0008-67.png,0004-00-0008-67.png
00000014,821,0,1440002608064,1440002608637,907,407,0,0,0,3,4,1,34,0003-00-0001-12.png,0004-00-0006-62.png
00000014,822,1,1440002611551,1440002612239,965,394,0,0,0,3,2,1,32,0003-00-0007-42.png,0002-00-0000-07.png
00000014,823,0,1440002613179,1440002613717,876,424,0,0,0,2,3,1,23,0002-00-0000-40.png,0003-00-0002-39.png
00000014,824,0,1440002616725,1440002616785,498,427,0,0,0,2,1,1,21,0002-00-0003-42.png,0001-00-0003-67.png
00000014,825,1,1440002619847,1440002619875,520,427,0,0,0,3,4,1,34,0003-00-0000-82.png,0004-00-0006-81.png
00000014,826,0,1440002620832,1440002620864,505,485,0,0,0,4,3,1,43,0004-00-0009-62.png,0003-00-0005-51.png
00000014,827,1,1440002624083,1440002624631,903,453,0,0,0,2,1,1,21,0002-00-0002-06.png,0001-00-0000-58.png
00000014,828,1,1440002625475,1440002626079,305,411,0,0,0,1,2,1,12,0001-00-0005-94.png,0002-00-0004-40.png
00000014,829,1,1440002627098,1440002627722,869,484,0,0,0,5,4,1,54,0005-00-0003-51.png,0004-00-0001-09.png
00000014,830,1,1440002628723,1440002628759,504,479,0,0,0,2,3,1,23,0002-00-0001-65.png,0003-00-0001-84.png
00000014,831,1,1440002630015,1440002630600,882,389,0,0,0,3,2,1,32,0003-00-0002-59.png,0002-00-0007-29.png
00000014,832,1,1440002631605,1440002632200,389,528,0,0,0,4,5,1,45,0004-00-0009-61.png,0005-00-0008-48.png
00000014,833,1,1440002633256,1440002633817,903,404,0,0,0,3,2,1,32,0003-00-0000-85.png,0002-00-0001-49.png
00000014,834,1,1440002634895,1440002635475,334,397,0,0,0,1,2,1,12,0001-00-0002-85.png,0002-00-0005-04.png
00000014,835,1,1440002636545,1440002637168,900,397,0,0,0,2,1,1,21,0002-00-0007-68.png,0001-00-0002-04.png
00000014,836,1,1440002638172,1440002638211,502,506,0,0,0,3,4,1,34,0003-00-0006-34.png,0004-00-0002-03.png
00000014,837,1,1440002639913,1440002640480,875,423,0,0,0,5,4,1,54,0005-00-0005-06.png,0004-00-0003-09.png
00000014,838,0,1440002641582,1440002642157,875,436,0,0,0,2,3,1,23,0002-00-0000-87.png,0003-00-0002-61.png
00000014,839,1,1440002645025,1440002645558,918,365,0,0,0,4,3,1,43,0004-00-0005-15.png,0003-00-0009-56.png
00000014,840,1,1440002646512,1440002647119,332,402,0,0,0,4,5,1,45,0004-00-0000-38.png,0005-00-0006-26.png
00000014,841,0,1440002648141,1440002648169,522,435,0,0,0,5,4,1,54,0005-00-0000-81.png,0004-00-0004-92.png
00000014,842,0,1440002651037,1440002651067,504,497,0,0,0,3,2,1,32,0003-00-0005-18.png,0002-00-0004-91.png
00000014,843,1,1440002654142,1440002654640,869,476,0,0,0,4,3,1,43,0004-00-0007-38.png,0003-00-0002-46.png
00000014,844,1,1440002655585,1440002655605,501,479,0,0,0,2,3,1,23,0002-00-0003-08.png,0003-00-0009-28.png
00000014,845,1,1440002656986,1440002657505,376,384,0,0,0,3,4,1,34,0003-00-0006-19.png,0004-00-0000-80.png
00000014,846,1,1440002658548,1440002660118,315,388,0,0,0,4,5,1,45,0004-00-0006-77.png,0005-00-0004-63.png
00000014,847,0,1440002661209,1440002661229,509,460,0,0,0,2,1,1,21,0002-00-0001-39.png,0001-00-0008-82.png
00000014,848,1,1440002664237,1440002664795,300,370,0,0,0,1,2,1,12,0001-00-0000-16.png,0002-00-0008-18.png
00000014,849,1,1440002665800,1440002666441,334,402,0,0,0,2,3,1,23,0002-00-0008-62.png,0003-00-0002-60.png
00000014,850,1,1440002667391,1440002669198,343,395,0,0,0,4,5,1,45,0004-00-0007-27.png,0005-00-0003-68.png
00000014,851,0,1440002670169,1440002670197,518,454,0,0,0,3,2,1,32,0003-00-0002-76.png,0002-00-0003-99.png
00000014,852,1,1440002673031,1440002673550,345,386,0,0,0,1,2,1,12,0001-00-0005-53.png,0002-00-0009-22.png
00000014,853,0,1440002674475,1440002674495,519,456,0,0,0,2,1,1,21,0002-00-0006-99.png,0001-00-0001-34.png
00000014,854,0,1440002677394,1440002677410,511,434,0,0,0,5,4,1,54,0005-00-0002-33.png,0004-00-0009-75.png
00000014,855,1,1440002680387,1440002680459,485,518,0,0,0,3,4,1,34,0003-00-0006-54.png,0004-00-0007-08.png
00000014,856,0,1440002681418,1440002682037,344,420,0,0,0,4,3,1,43,0004-00-0008-01.png,0003-00-0002-24.png
00000014,857,0,1440002685080,1440002685716,387,450,0,0,0,2,1,1,21,0002-00-0007-89.png,0001-00-0005-48.png
00000014,858,1,1440002688826,1440002689940,876,388,0,0,0,5,4,1,54,0005-00-0002-18.png,0004-00-0007-21.png
00000014,859,1,1440002690887,1440002691505,892,517,0,0,0,4,3,1,43,0004-00-0000-78.png,0003-00-0003-30.png
00000014,860,0,1440002693078,1440002694216,926,423,0,0,0,3,4,1,34,0003-00-0003-09.png,0004-00-0008-06.png
00000014,861,1,1440002697192,1440002697220,522,394,0,0,0,2,3,1,23,0002-00-0008-37.png,0003-00-0002-90.png
00000014,862,1,1440002698209,1440002698233,504,481,0,0,0,4,5,1,45,0004-00-0000-26.png,0005-00-0009-59.png
00000014,863,0,1440002699828,1440002700375,885,503,0,0,0,1,2,1,12,0001-00-0002-28.png,0002-00-0000-01.png
00000014,864,0,1440002703295,1440002703841,349,401,0,0,0,3,2,1,32,0003-00-0000-66.png,0002-00-0002-51.png
00000014,865,1,1440002706792,1440002706820,484,495,0,0,0,3,4,1,34,0003-00-0008-84.png,0004-00-0001-26.png
00000014,866,1,1440002707829,1440002708522,871,368,0,0,0,5,4,1,54,0005-00-0001-49.png,0004-00-0004-31.png
00000014,867,1,1440002709517,1440002709601,504,488,0,0,0,1,2,1,12,0001-00-0000-69.png,0002-00-0006-09.png
00000014,868,0,1440002711268,1440002711769,337,436,0,0,0,2,1,1,21,0002-00-0000-24.png,0001-00-0008-43.png
00000014,869,0,1440002714812,1440002715303,357,398,0,0,0,3,2,1,32,0003-00-0007-38.png,0002-00-0002-02.png
00000014,870,0,1440002718235,1440002718693,905,427,0,0,0,4,5,1,45,0004-00-0001-66.png,0005-00-0003-12.png
00000014,871,1,1440002721589,1440002722080,417,402,0,0,0,2,3,1,23,0002-00-0005-17.png,0003-00-0006-85.png
00000014,872,1,1440002723082,1440002723701,896,375,0,0,0,4,3,1,43,0004-00-0007-12.png,0003-00-0002-68.png
00000014,873,0,1440002725299,1440002725830,900,423,0,0,0,1,2,1,12,0001-00-0001-03.png,0002-00-0005-96.png
00000014,874,0,1440002728727,1440002728739,517,421,0,0,0,2,1,1,21,0002-00-0004-17.png,0001-00-0001-83.png
00000014,875,0,1440002731851,1440002732364,299,373,0,0,0,4,3,1,43,0004-00-0000-96.png,0003-00-0004-69.png
00000014,876,1,1440002735698,1440002736125,360,392,0,0,0,4,5,1,45,0004-00-0005-67.png,0005-00-0006-83.png
00000014,877,1,1440002737564,1440002738108,869,511,0,0,0,3,2,1,32,0003-00-0007-60.png,0002-00-0007-20.png
00000014,878,0,1440002739652,1440002740169,313,410,0,0,0,5,4,1,54,0005-00-0001-04.png,0004-00-0005-84.png
00000014,879,1,1440002743088,1440002743567,337,476,0,0,0,3,4,1,34,0003-00-0000-51.png,0004-00-0007-02.png
00000014,880,1,1440002744600,1440002745119,364,502,0,0,0,2,3,1,23,0002-00-0009-69.png,0003-00-0004-88.png
00000014,881,1,1440002746699,1440002747250,906,416,0,0,0,2,1,1,21,0002-00-0003-90.png,0001-00-0003-66.png
00000014,882,0,1440002748408,1440002749023,879,458,0,0,0,3,4,1,34,0003-00-0004-79.png,0004-00-0001-30.png
00000014,883,1,1440002752063,1440002752644,287,488,0,0,0,2,3,1,23,0002-00-0009-50.png,0003-00-0009-77.png
00000014,884,0,1440002753657,1440002753732,504,507,0,0,0,5,4,1,54,0005-00-0001-03.png,0004-00-0003-09.png
00000014,885,1,1440002756606,1440002756630,518,475,0,0,0,4,5,1,45,0004-00-0009-83.png,0005-00-0008-88.png
00000014,886,0,1440002757755,1440002758314,303,389,0,0,0,4,3,1,43,0004-00-0004-97.png,0003-00-0009-76.png
00000014,887,1,1440002761193,1440002761245,509,486,0,0,0,1,2,1,12,0001-00-0001-89.png,0002-00-0009-23.png
00000014,888,1,1440002762422,1440002762943,875,514,0,0,0,3,2,1,32,0003-00-0004-41.png,0002-00-0000-92.png
00000014,889,1,1440002763985,1440002764509,357,397,0,0,0,3,4,1,34,0003-00-0004-13.png,0004-00-0004-85.png
00000014,890,0,1440002765512,1440002766054,879,427,0,0,0,1,2,1,12,0001-00-0003-15.png,0002-00-0004-37.png
00000014,891,0,1440002768947,1440002769003,513,456,0,0,0,3,2,1,32,0003-00-0001-28.png,0002-00-0007-04.png
00000014,892,0,1440002772108,1440002772168,512,510,0,0,0,5,4,1,54,0005-00-0009-54.png,0004-00-0002-40.png
00000014,893,0,1440002775015,1440002775714,931,402,0,0,0,4,5,1,45,0004-00-0007-44.png,0005-00-0008-24.png
00000014,894,0,1440002778777,1440002778877,518,541,0,0,0,4,3,1,43,0004-00-0004-83.png,0003-00-0009-27.png
00000014,895,1,1440002781918,1440002782477,905,480,0,0,0,2,1,1,21,0002-00-0001-81.png,0001-00-0003-94.png
00000014,896,0,1440002783349,1440002784050,912,399,0,0,0,2,3,1,23,0002-00-0004-78.png,0003-00-0008-69.png
00000014,897,1,1440002787036,1440002787541,917,392,0,0,0,2,1,1,21,0002-00-0000-83.png,0001-00-0000-13.png
00000014,898,0,1440002788441,1440002789070,933,413,0,0,0,4,5,1,45,0004-00-0004-21.png,0005-00-0006-77.png
00000014,899,0,1440002792026,1440002792638,875,358,0,0,0,2,3,1,23,0002-00-0008-49.png,0003-00-0009-08.png
00000014,900,1,1440002795674,1440002795702,520,428,0,0,0,3,4,1,34,0003-00-0004-64.png,0004-00-0004-55.png
00000014,901,0,1440002796640,1440002797232,386,502,0,0,0,3,2,1,32,0003-00-0009-96.png,0002-00-0009-02.png
00000014,902,1,1440002800074,1440002800614,862,378,0,0,0,5,4,1,54,0005-00-0003-20.png,0004-00-0006-72.png
00000014,903,0,1440002801550,1440002801578,519,480,0,0,0,4,3,1,43,0004-00-0006-38.png,0003-00-0000-64.png
00000014,904,1,1440002804472,1440002804964,354,401,0,0,0,1,2,1,12,0001-00-0002-13.png,0002-00-0000-85.png
00000014,905,1,1440002805868,1440002805932,504,479,0,0,0,2,3,1,23,0002-00-0004-58.png,0003-00-0007-26.png
00000014,906,0,1440002807097,1440002807670,316,414,0,0,0,2,1,1,21,0002-00-0000-32.png,0001-00-0007-99.png
00000014,907,0,1440002811060,1440002811553,392,428,0,0,0,4,3,1,43,0004-00-0005-65.png,0003-00-0002-79.png
00000014,908,1,1440002815085,1440002815598,926,397,0,0,0,3,2,1,32,0003-00-0007-12.png,0002-00-0002-52.png
00000014,909,0,1440002816521,1440002817119,901,424,0,0,0,3,4,1,34,0003-00-0008-47.png,0004-00-0004-90.png
00000014,910,0,1440002819983,1440002820453,350,423,0,0,0,5,4,1,54,0005-00-0004-22.png,0004-00-0008-59.png
00000014,911,0,1440002824794,1440002825347,900,514,0,0,0,4,5,1,45,0004-00-0009-11.png,0005-00-0001-78.png
00000014,912,0,1440002829380,1440002830001,921,471,0,0,0,1,2,1,12,0001-00-0003-50.png,0002-00-0004-92.png
00000014,913,1,1440002833082,1440002833624,901,476,0,0,0,2,1,1,21,0002-00-0002-42.png,0001-00-0008-37.png
00000014,914,1,1440002834663,1440002835287,346,421,0,0,0,2,3,1,23,0002-00-0005-28.png,0003-00-0004-07.png
00000014,915,0,1440002836973,1440002837559,875,436,0,0,0,4,5,1,45,0004-00-0007-61.png,0005-00-0007-34.png
00000014,916,1,1440002840583,1440002841152,862,528,0,0,0,3,2,1,32,0003-00-0007-92.png,0002-00-0005-12.png
00000014,917,1,1440002842435,1440002843098,905,427,0,0,0,5,4,1,54,0005-00-0001-80.png,0004-00-0005-83.png
00000014,918,0,1440002844471,1440002844997,874,489,0,0,0,1,2,1,12,0001-00-0006-05.png,0002-00-0000-03.png
00000014,919,0,1440002848446,1440002849232,882,488,0,0,0,3,4,1,34,0003-00-0001-40.png,0004-00-0005-33.png
00000014,920,1,1440002852071,1440002852735,947,446,0,0,0,4,3,1,43,0004-00-0009-43.png,0003-00-0002-21.png
00000014,921,1,1440002853695,1440002854217,925,411,0,0,0,2,1,1,21,0002-00-0004-31.png,0001-00-0007-52.png
00000014,922,1,1440002855232,1440002855861,874,501,0,0,0,4,3,1,43,0004-00-0005-45.png,0003-00-0001-05.png
00000014,923,0,1440002856833,1440002857396,360,427,0,0,0,3,2,1,32,0003-00-0006-26.png,0002-00-0008-32.png
00000014,924,1,1440002860379,1440002860415,518,491,0,0,0,3,4,1,34,0003-00-0002-60.png,0004-00-0009-71.png
00000014,925,0,1440002861489,1440002861993,913,424,0,0,0,4,5,1,45,0004-00-0007-24.png,0005-00-0003-79.png
00000014,926,1,1440002865022,1440002865513,297,397,0,0,0,1,2,1,12,0001-00-0000-61.png,0002-00-0009-84.png
00000014,927,0,1440002866455,1440002867029,427,384,0,0,0,5,4,1,54,0005-00-0001-51.png,0004-00-0001-26.png
00000014,928,1,1440002870299,1440002870887,399,505,0,0,0,2,3,1,23,0002-00-0006-36.png,0003-00-0006-44.png
00000014,929,1,1440002871790,1440002872408,359,406,0,0,0,1,2,1,12,0001-00-0005-00.png,0002-00-0002-61.png
00000014,930,0,1440002873431,1440002873473,493,544,0,0,0,4,3,1,43,0004-00-0007-20.png,0003-00-0005-90.png
00000014,931,1,1440002876528,1440002877016,392,494,0,0,0,2,3,1,23,0002-00-0007-08.png,0003-00-0005-86.png
00000014,932,0,1440002877972,1440002878525,382,398,0,0,0,3,2,1,32,0003-00-0004-94.png,0002-00-0001-29.png
00000014,933,1,1440002881557,1440002882042,952,397,0,0,0,5,4,1,54,0005-00-0004-75.png,0004-00-0004-39.png
00000014,934,1,1440002882939,1440002883038,506,540,0,0,0,3,4,1,34,0003-00-0006-69.png,0004-00-0003-62.png
00000014,935,1,1440002884003,1440002884035,514,462,0,0,0,4,5,1,45,0004-00-0001-03.png,0005-00-0008-70.png
00000014,936,0,1440002885017,1440002885649,364,385,0,0,0,2,1,1,21,0002-00-0009-08.png,0001-00-0007-39.png
00000014,937,0,1440002888664,1440002889247,386,483,0,0,0,3,2,1,32,0003-00-0004-64.png,0002-00-0003-73.png
00000014,938,0,1440002892419,1440002892451,510,443,0,0,0,5,4,1,54,0005-00-0006-97.png,0004-00-0001-51.png
00000014,939,1,1440002898162,1440002898708,930,401,0,0,0,4,3,1,43,0004-00-0004-23.png,0003-00-0005-16.png
00000014,940,1,1440002899685,1440002900310,875,385,0,0,0,2,1,1,21,0002-00-0004-32.png,0001-00-0004-84.png
00000014,941,0,1440002901205,1440002901776,902,413,0,0,0,4,5,1,45,0004-00-0004-85.png,0005-00-0008-09.png
00000014,942,0,1440002905169,1440002905617,875,502,0,0,0,3,4,1,34,0003-00-0001-46.png,0004-00-0003-33.png
