subject_id,trial,correct_response,stim_time,response_time,x_coord,y_coord,trial_timeout,timeout_time,interTrial_timeout,left_rank,right_rank,distance,joint_rank,left_image,right_image
00000009,1,1,1442423058207,1442423058696,1015,282,0,0,0,4,3,1,43,0004-00-0008-03.png,0003-00-0004-03.png
00000009,2,0,1442423059728,1442423060453,1076,309,0,0,0,4,5,1,45,0004-00-0007-05.png,0005-00-0002-02.png
00000009,3,1,1442423063651,1442423064178,945,391,0,0,0,3,2,1,32,0003-00-0000-58.png,0002-00-0004-72.png
00000009,4,0,1442423065453,1442423065645,911,389,0,0,0,1,2,1,12,0001-00-0008-34.png,0002-00-0007-80.png
00000009,5,1,1442423068821,1442423069650,985,430,0,0,0,5,4,1,54,0005-00-0007-21.png,0004-00-0004-54.png
00000009,6,1,1442423070638,1442423071450,435,275,0,0,0,3,4,1,34,0003-00-0002-19.png,0004-00-0001-64.png
00000009,7,1,1442423072508,1442423072585,862,436,0,0,0,2,1,1,21,0002-00-0008-00.png,0001-00-0004-84.png
00000009,8,0,1442423073779,1442423073859,860,420,0,0,0,2,3,1,23,0002-00-0002-73.png,0003-00-0005-09.png
00000009,9,1,1442423076810,1442423077486,343,344,0,0,0,4,5,1,45,0004-00-0007-78.png,0005-00-0009-06.png
00000009,10,0,1442423078422,1442423078536,862,421,0,0,0,3,4,1,34,0003-00-0002-67.png,0004-00-0005-30.png
00000009,11,0,1442423081618,1442423082253,975,436,0,0,0,1,2,1,12,0001-00-0001-81.png,0002-00-0009-03.png
00000009,12,1,1442423085345,1442423085381,873,288,0,0,0,2,1,1,21,0002-00-0000-43.png,0001-00-0002-24.png
00000009,13,1,1442423086430,1442423086486,888,462,0,0,0,5,4,1,54,0005-00-0006-83.png,0004-00-0000-30.png
00000009,14,1,1442423087738,1442423087787,888,448,0,0,0,3,2,1,32,0003-00-0004-63.png,0002-00-0006-80.png
00000009,15,0,1442423089064,1442423089128,886,434,0,0,0,2,3,1,23,0002-00-0009-49.png,0003-00-0002-90.png
00000009,16,1,1442423092273,1442423092798,945,380,0,0,0,4,3,1,43,0004-00-0004-46.png,0003-00-0004-72.png
00000009,17,1,1442423093713,1442423093797,905,436,0,0,0,4,3,1,43,0004-00-0003-83.png,0003-00-0005-26.png
00000009,18,1,1442423094946,1442423095911,456,252,0,0,0,2,3,1,23,0002-00-0005-02.png,0003-00-0007-95.png
00000009,19,0,1442423096971,1442423097031,862,410,0,0,0,3,4,1,34,0003-00-0005-15.png,0004-00-0008-81.png
00000009,20,0,1442423099861,1442423099901,990,383,0,0,0,4,5,1,45,0004-00-0004-88.png,0005-00-0003-94.png
00000009,21,0,1442423103084,1442423103595,964,396,0,0,0,1,2,1,12,0001-00-0007-66.png,0002-00-0009-34.png
00000009,22,0,1442423106467,1442423107022,372,383,0,0,0,5,4,1,54,0005-00-0007-21.png,0004-00-0006-12.png
00000009,23,1,1442423110161,1442423110691,1118,292,0,0,0,2,1,1,21,0002-00-0006-99.png,0001-00-0009-71.png
00000009,24,1,1442423111539,1442423111635,939,421,0,0,0,3,2,1,32,0003-00-0000-20.png,0002-00-0003-32.png
00000009,25,1,1442423112775,1442423112858,880,443,0,0,0,3,2,1,32,0003-00-0004-10.png,0002-00-0005-60.png
00000009,26,1,1442423114039,1442423114809,416,248,0,0,0,2,3,1,23,0002-00-0008-26.png,0003-00-0009-02.png
00000009,27,1,1442423115914,1442423116019,899,410,0,0,0,2,1,1,21,0002-00-0006-01.png,0001-00-0002-88.png
00000009,28,0,1442423117345,1442423117409,866,419,0,0,0,3,4,1,34,0003-00-0000-28.png,0004-00-0002-83.png
00000009,29,1,1442423120264,1442423120312,899,413,0,0,0,5,4,1,54,0005-00-0000-24.png,0004-00-0008-82.png
00000009,30,1,1442423121247,1442423122003,393,393,0,0,0,1,2,1,12,0001-00-0005-19.png,0002-00-0004-14.png
00000009,31,0,1442423122969,1442423123793,376,401,0,0,0,4,3,1,43,0004-00-0006-63.png,0003-00-0007-38.png
00000009,32,0,1442423126645,1442423126669,913,292,0,0,0,4,5,1,45,0004-00-0007-30.png,0005-00-0001-27.png
00000009,33,0,1442423129836,1442423130354,919,375,0,0,0,3,4,1,34,0003-00-0001-17.png,0004-00-0005-76.png
00000009,34,1,1442423133242,1442423133282,872,424,0,0,0,4,3,1,43,0004-00-0000-64.png,0003-00-0008-38.png
00000009,35,1,1442423134248,1442423134309,873,424,0,0,0,2,1,1,21,0002-00-0001-51.png,0001-00-0002-45.png
00000009,36,1,1442423135432,1442423136369,946,398,0,0,0,3,2,1,32,0003-00-0000-34.png,0002-00-0000-36.png
00000009,37,0,1442423137309,1442423137385,919,426,0,0,0,2,3,1,23,0002-00-0001-98.png,0003-00-0005-35.png
00000009,38,1,1442423140389,1442423141033,490,248,0,0,0,4,5,1,45,0004-00-0007-53.png,0005-00-0008-68.png
00000009,39,1,1442423141867,1442423142726,398,430,0,0,0,1,2,1,12,0001-00-0004-62.png,0002-00-0007-43.png
00000009,40,1,1442423143700,1442423144930,959,348,0,0,0,5,4,1,54,0005-00-0007-40.png,0004-00-0002-80.png
00000009,41,0,1442423145871,1442423145923,887,426,0,0,0,2,3,1,23,0002-00-0004-18.png,0003-00-0007-65.png
00000009,42,0,1442423148762,1442423149431,1068,279,0,0,0,3,4,1,34,0003-00-0008-69.png,0004-00-0003-23.png
00000009,43,1,1442423152542,1442423152728,917,336,0,0,0,5,4,1,54,0005-00-0005-54.png,0004-00-0005-96.png
00000009,44,1,1442423153734,1442423154535,462,262,0,0,0,4,5,1,45,0004-00-0006-30.png,0005-00-0008-05.png
00000009,45,0,1442423155494,1442423156373,448,265,0,0,0,4,3,1,43,0004-00-0003-94.png,0003-00-0006-37.png
00000009,46,1,1442423159340,1442423159979,1105,300,0,0,0,3,2,1,32,0003-00-0005-65.png,0002-00-0001-94.png
00000009,47,0,1442423160857,1442423161679,383,400,0,0,0,2,1,1,21,0002-00-0000-27.png,0001-00-0001-54.png
00000009,48,1,1442423164518,1442423165161,386,383,0,0,0,1,2,1,12,0001-00-0002-14.png,0002-00-0009-18.png
00000009,49,1,1442423166743,1442423167239,938,369,0,0,0,2,1,1,21,0002-00-0002-23.png,0001-00-0007-41.png
00000009,50,1,1442423168143,1442423168183,894,417,0,0,0,5,4,1,54,0005-00-0001-49.png,0004-00-0000-25.png
00000009,51,1,1442423169368,1442423170179,396,381,0,0,0,1,2,1,12,0001-00-0009-68.png,0002-00-0001-30.png
00000009,52,0,1442423171155,1442423172193,389,383,0,0,0,4,3,1,43,0004-00-0003-99.png,0003-00-0003-41.png
00000009,53,1,1442423175151,1442423175995,354,377,0,0,0,4,5,1,45,0004-00-0000-42.png,0005-00-0000-42.png
00000009,54,1,1442423176922,1442423177725,388,385,0,0,0,2,3,1,23,0002-00-0007-53.png,0003-00-0005-36.png
00000009,55,1,1442423178671,1442423178727,904,421,0,0,0,3,2,1,32,0003-00-0008-68.png,0002-00-0008-67.png
00000009,56,0,1442423180017,1442423180073,864,445,0,0,0,3,4,1,34,0003-00-0007-95.png,0004-00-0000-32.png
00000009,57,0,1442423183272,1442423183955,384,391,0,0,0,3,2,1,32,0003-00-0005-10.png,0002-00-0009-61.png
00000009,58,0,1442423186987,1442423187586,359,386,0,0,0,4,3,1,43,0004-00-0004-00.png,0003-00-0008-89.png
00000009,59,1,1442423190754,1442423191319,380,386,0,0,0,1,2,1,12,0001-00-0002-66.png,0002-00-0008-58.png
00000009,60,0,1442423192225,1442423192301,888,384,0,0,0,2,3,1,23,0002-00-0009-69.png,0003-00-0009-49.png
00000009,61,0,1442423195234,1442423195282,860,466,0,0,0,3,4,1,34,0003-00-0000-95.png,0004-00-0009-09.png
00000009,62,0,1442423198326,1442423198867,479,296,0,0,0,2,1,1,21,0002-00-0003-58.png,0001-00-0007-30.png
00000009,63,1,1442423201963,1442423202669,393,364,0,0,0,4,5,1,45,0004-00-0007-95.png,0005-00-0007-90.png
00000009,64,0,1442423203581,1442423204463,507,250,0,0,0,5,4,1,54,0005-00-0008-79.png,0004-00-0004-29.png
00000009,65,0,1442423207428,1442423207464,960,378,0,0,0,2,3,1,23,0002-00-0000-33.png,0003-00-0004-69.png
00000009,66,1,1442423210629,1442423210673,890,303,0,0,0,3,2,1,32,0003-00-0002-21.png,0002-00-0009-63.png
00000009,67,0,1442423211583,1442423211655,862,413,0,0,0,1,2,1,12,0001-00-0004-88.png,0002-00-0002-15.png
00000009,68,0,1442423214782,1442423214838,862,303,0,0,0,4,5,1,45,0004-00-0008-32.png,0005-00-0000-95.png
00000009,69,1,1442423217914,1442423218432,1015,298,0,0,0,5,4,1,54,0005-00-0004-16.png,0004-00-0001-63.png
00000009,70,1,1442423219290,1442423220351,964,393,0,0,0,2,1,1,21,0002-00-0003-34.png,0001-00-0008-53.png
00000009,71,0,1442423221468,1442423221528,975,441,0,0,0,3,4,1,34,0003-00-0000-71.png,0004-00-0006-77.png
00000009,72,1,1442423224453,1442423225303,939,393,0,0,0,4,3,1,43,0004-00-0005-77.png,0003-00-0008-69.png
00000009,73,1,1442423226159,1442423227160,955,417,0,0,0,2,1,1,21,0002-00-0001-40.png,0001-00-0004-09.png
00000009,74,0,1442423228128,1442423228194,926,443,0,0,0,3,4,1,34,0003-00-0007-45.png,0004-00-0007-58.png
00000009,75,1,1442423231170,1442423231174,862,410,0,0,0,3,2,1,32,0003-00-0001-91.png,0002-00-0005-07.png
00000009,76,0,1442423232144,1442423232212,913,436,0,0,0,4,5,1,45,0004-00-0001-91.png,0005-00-0008-91.png
00000009,77,0,1442423235294,1442423235468,862,358,0,0,0,1,2,1,12,0001-00-0004-14.png,0002-00-0006-91.png
00000009,78,1,1442423238331,1442423238371,908,413,0,0,0,5,4,1,54,0005-00-0002-41.png,0004-00-0007-26.png
00000009,79,0,1442423239288,1442423239332,915,369,0,0,0,2,3,1,23,0002-00-0009-96.png,0003-00-0007-46.png
00000009,80,0,1442423242488,1442423243123,374,328,0,0,0,4,3,1,43,0004-00-0009-05.png,0003-00-0002-86.png
00000009,81,1,1442423246226,1442423246290,898,308,0,0,0,3,2,1,32,0003-00-0000-25.png,0002-00-0000-96.png
00000009,82,0,1442423247168,1442423247228,862,436,0,0,0,1,2,1,12,0001-00-0004-69.png,0002-00-0007-22.png
00000009,83,1,1442423250369,1442423250940,438,303,0,0,0,4,5,1,45,0004-00-0003-40.png,0005-00-0007-83.png
00000009,84,0,1442423252476,1442423252560,879,410,0,0,0,3,4,1,34,0003-00-0005-52.png,0004-00-0007-40.png
00000009,85,0,1442423255725,1442423256410,375,379,0,0,0,4,3,1,43,0004-00-0002-11.png,0003-00-0007-34.png
00000009,86,1,1442423259299,1442423259315,883,321,0,0,0,5,4,1,54,0005-00-0001-76.png,0004-00-0007-38.png
00000009,87,0,1442423260264,1442423260300,863,385,0,0,0,2,3,1,23,0002-00-0003-22.png,0003-00-0006-97.png
00000009,88,1,1442423263375,1442423263919,964,396,0,0,0,2,1,1,21,0002-00-0008-57.png,0001-00-0002-90.png
00000009,89,1,1442423265433,1442423265519,904,392,0,0,0,3,2,1,32,0003-00-0009-43.png,0002-00-0006-84.png
00000009,90,0,1442423266704,1442423266752,886,383,0,0,0,4,5,1,45,0004-00-0007-48.png,0005-00-0002-69.png
00000009,91,1,1442423269930,1442423270807,1067,279,0,0,0,2,1,1,21,0002-00-0009-88.png,0001-00-0007-09.png
00000009,92,1,1442423272444,1442423272534,896,410,0,0,0,4,3,1,43,0004-00-0002-58.png,0003-00-0007-93.png
00000009,93,0,1442423273779,1442423273847,871,410,0,0,0,3,4,1,34,0003-00-0007-84.png,0004-00-0007-21.png
00000009,94,1,1442423276687,1442423277355,964,398,0,0,0,5,4,1,54,0005-00-0003-85.png,0004-00-0003-74.png
00000009,95,0,1442423278620,1442423278700,926,395,0,0,0,1,2,1,12,0001-00-0008-96.png,0002-00-0006-69.png
00000009,96,0,1442423281671,1442423282310,964,323,0,0,0,2,3,1,23,0002-00-0006-61.png,0003-00-0009-69.png
00000009,97,0,1442423285444,1442423286258,460,262,0,0,0,5,4,1,54,0005-00-0000-60.png,0004-00-0005-87.png
00000009,98,1,1442423289353,1442423289401,1004,324,0,0,0,3,2,1,32,0003-00-0001-86.png,0002-00-0004-34.png
00000009,99,0,1442423290283,1442423290331,862,436,0,0,0,2,3,1,23,0002-00-0009-46.png,0003-00-0000-60.png
00000009,100,1,1442423293436,1442423293452,879,342,0,0,0,4,3,1,43,0004-00-0005-47.png,0003-00-0006-50.png
00000009,101,1,1442423294359,1442423295346,965,308,0,0,0,2,1,1,21,0002-00-0006-00.png,0001-00-0001-33.png
00000009,102,0,1442423296279,1442423296327,928,433,0,0,0,4,5,1,45,0004-00-0003-11.png,0005-00-0005-84.png
00000009,103,0,1442423299494,1442423300060,990,332,0,0,0,3,4,1,34,0003-00-0000-86.png,0004-00-0003-81.png
00000009,104,1,1442423303174,1442423303739,381,393,0,0,0,1,2,1,12,0001-00-0002-32.png,0002-00-0005-14.png
00000009,105,1,1442423305310,1442423305358,891,382,0,0,0,3,2,1,32,0003-00-0007-81.png,0002-00-0006-87.png
00000009,106,0,1442423306492,1442423306569,862,410,0,0,0,3,4,1,34,0003-00-0007-73.png,0004-00-0002-90.png
00000009,107,1,1442423309724,1442423310251,1093,283,0,0,0,4,3,1,43,0004-00-0003-11.png,0003-00-0006-53.png
00000009,108,0,1442423311603,1442423311691,913,391,0,0,0,1,2,1,12,0001-00-0005-23.png,0002-00-0004-96.png
00000009,109,1,1442423314641,1442423315278,363,371,0,0,0,2,3,1,23,0002-00-0003-54.png,0003-00-0004-69.png
00000009,110,0,1442423316151,1442423316279,859,479,0,0,0,4,5,1,45,0004-00-0002-62.png,0005-00-0003-66.png
00000009,111,1,1442423319342,1442423319366,866,311,0,0,0,5,4,1,54,0005-00-0007-50.png,0004-00-0006-93.png
00000009,112,1,1442423320277,1442423320310,887,388,0,0,0,2,1,1,21,0002-00-0009-34.png,0001-00-0004-27.png
00000009,113,1,1442423321599,1442423322447,887,501,0,0,0,5,4,1,54,0005-00-0002-86.png,0004-00-0006-75.png
00000009,114,1,1442423323482,1442423323553,899,461,0,0,0,4,3,1,43,0004-00-0006-44.png,0003-00-0006-27.png
00000009,115,1,1442423324788,1442423325470,886,500,0,0,0,2,1,1,21,0002-00-0008-13.png,0001-00-0003-82.png
00000009,116,0,1442423326498,1442423326534,908,396,0,0,0,4,5,1,45,0004-00-0009-44.png,0005-00-0003-70.png
00000009,117,1,1442423329569,1442423330262,447,250,0,0,0,2,3,1,23,0002-00-0009-18.png,0003-00-0004-89.png
00000009,118,1,1442423331732,1442423331903,907,402,0,0,0,3,2,1,32,0003-00-0002-67.png,0002-00-0009-64.png
00000009,119,0,1442423333075,1442423333136,866,420,0,0,0,1,2,1,12,0001-00-0004-99.png,0002-00-0009-23.png
00000009,120,0,1442423336335,1442423336363,964,320,0,0,0,3,4,1,34,0003-00-0000-17.png,0004-00-0007-46.png
00000009,121,0,1442423339423,1442423339455,960,356,0,0,0,4,5,1,45,0004-00-0000-72.png,0005-00-0005-40.png
00000009,122,0,1442423342616,1442423343250,945,351,0,0,0,3,4,1,34,0003-00-0009-50.png,0004-00-0005-84.png
00000009,123,1,1442423346382,1442423346915,388,391,0,0,0,2,3,1,23,0002-00-0007-74.png,0003-00-0007-32.png
00000009,124,1,1442423348360,1442423348455,888,376,0,0,0,2,1,1,21,0002-00-0005-02.png,0001-00-0002-09.png
00000009,125,1,1442423349522,1442423350274,928,529,0,0,0,3,2,1,32,0003-00-0003-15.png,0002-00-0003-77.png
00000009,126,1,1442423351213,1442423351269,862,409,0,0,0,4,3,1,43,0004-00-0008-83.png,0003-00-0007-34.png
00000009,127,1,1442423352495,1442423353404,438,257,0,0,0,1,2,1,12,0001-00-0002-33.png,0002-00-0004-29.png
00000009,128,0,1442423354433,1442423355164,458,396,0,0,0,5,4,1,54,0005-00-0002-48.png,0004-00-0004-41.png
00000009,129,0,1442423358175,1442423358741,990,421,0,0,0,2,3,1,23,0002-00-0006-40.png,0003-00-0002-26.png
00000009,130,1,1442423361835,1442423361863,941,338,0,0,0,4,3,1,43,0004-00-0001-08.png,0003-00-0009-58.png
00000009,131,0,1442423362829,1442423362865,870,416,0,0,0,4,5,1,45,0004-00-0003-76.png,0005-00-0004-44.png
00000009,132,1,1442423365850,1442423365866,894,358,0,0,0,2,1,1,21,0002-00-0002-86.png,0001-00-0008-65.png
00000009,133,1,1442423366846,1442423367985,917,350,0,0,0,5,4,1,54,0005-00-0000-81.png,0004-00-0004-66.png
00000009,134,0,1442423368891,1442423368927,896,414,0,0,0,1,2,1,12,0001-00-0003-08.png,0002-00-0009-12.png
00000009,135,1,1442423372156,1442423372188,1041,273,0,0,0,3,2,1,32,0003-00-0008-37.png,0002-00-0004-60.png
00000009,136,0,1442423373164,1442423373228,862,426,0,0,0,3,4,1,34,0003-00-0005-08.png,0004-00-0009-72.png
00000009,137,1,1442423376161,1442423377099,1069,279,0,0,0,5,4,1,54,0005-00-0007-23.png,0004-00-0007-03.png
00000009,138,1,1442423377909,1442423377981,892,448,0,0,0,4,3,1,43,0004-00-0002-64.png,0003-00-0009-18.png
00000009,139,1,1442423379422,1442423380450,921,349,0,0,0,3,2,1,32,0003-00-0000-18.png,0002-00-0002-05.png
00000009,140,0,1442423381320,1442423381356,893,452,0,0,0,3,4,1,34,0003-00-0001-07.png,0004-00-0003-87.png
00000009,141,0,1442423384542,1442423384566,860,315,0,0,0,4,5,1,45,0004-00-0008-49.png,0005-00-0002-72.png
00000009,142,0,1442423387699,1442423387751,971,356,0,0,0,1,2,1,12,0001-00-0006-06.png,0002-00-0003-29.png
00000009,143,1,1442423390901,1442423391481,965,329,0,0,0,2,1,1,21,0002-00-0002-29.png,0001-00-0001-65.png
00000009,144,0,1442423392868,1442423392892,863,355,0,0,0,2,3,1,23,0002-00-0004-30.png,0003-00-0004-43.png
00000009,145,0,1442423395968,1442423396523,1116,278,0,0,0,1,2,1,12,0001-00-0000-21.png,0002-00-0007-36.png
00000009,146,0,1442423400032,1442423400748,457,282,0,0,0,3,2,1,32,0003-00-0002-06.png,0002-00-0005-40.png
00000009,147,0,1442423403639,1442423403687,959,426,0,0,0,4,5,1,45,0004-00-0005-29.png,0005-00-0008-23.png
00000009,148,1,1442423406868,1442423407494,990,322,0,0,0,5,4,1,54,0005-00-0008-37.png,0004-00-0006-73.png
00000009,149,1,1442423408329,1442423408417,888,410,0,0,0,4,3,1,43,0004-00-0006-23.png,0003-00-0001-66.png
00000009,150,1,1442423409541,1442423410452,944,342,0,0,0,2,1,1,21,0002-00-0001-82.png,0001-00-0005-99.png
00000009,151,0,1442423411352,1442423411380,896,413,0,0,0,2,3,1,23,0002-00-0006-85.png,0003-00-0005-09.png
00000009,152,0,1442423414509,1442423414573,964,351,0,0,0,3,4,1,34,0003-00-0000-72.png,0004-00-0007-47.png
00000009,153,1,1442423417699,1442423417727,924,350,0,0,0,5,4,1,54,0005-00-0002-61.png,0004-00-0005-02.png
00000009,154,0,1442423418679,1442423418733,876,400,0,0,0,1,2,1,12,0001-00-0007-65.png,0002-00-0003-21.png
00000009,155,1,1442423421826,1442423421862,926,359,0,0,0,2,1,1,21,0002-00-0004-40.png,0001-00-0009-47.png
00000009,156,0,1442423422840,1442423422888,901,426,0,0,0,3,4,1,34,0003-00-0000-27.png,0004-00-0007-81.png
00000009,157,1,1442423426265,1442423427341,457,238,0,0,0,4,5,1,45,0004-00-0006-25.png,0005-00-0006-01.png
00000009,158,1,1442423428205,1442423428265,860,415,0,0,0,3,2,1,32,0003-00-0005-70.png,0002-00-0000-13.png
00000009,159,0,1442423429338,1442423429399,859,426,0,0,0,2,3,1,23,0002-00-0005-25.png,0003-00-0000-56.png
00000009,160,0,1442423432589,1442423433203,449,281,0,0,0,4,3,1,43,0004-00-0009-15.png,0003-00-0002-27.png
00000009,161,0,1442423436474,1442423436494,860,302,0,0,0,2,3,1,23,0002-00-0003-36.png,0003-00-0006-03.png
00000009,162,1,1442423439615,1442423440221,965,322,0,0,0,2,1,1,21,0002-00-0002-68.png,0001-00-0006-78.png
00000009,163,1,1442423441051,1442423441119,877,410,0,0,0,5,4,1,54,0005-00-0005-59.png,0004-00-0007-05.png
00000009,164,0,1442423442119,1442423442621,893,481,0,0,0,1,2,1,12,0001-00-0008-18.png,0002-00-0004-80.png
00000009,165,1,1442423445667,1442423445703,906,309,0,0,0,4,3,1,43,0004-00-0005-70.png,0003-00-0000-75.png
00000009,166,0,1442423446729,1442423446769,898,421,0,0,0,4,5,1,45,0004-00-0002-80.png,0005-00-0006-39.png
00000009,167,0,1442423449712,1442423449756,880,437,0,0,0,3,4,1,34,0003-00-0001-60.png,0004-00-0002-80.png
00000009,168,1,1442423452873,1442423453388,968,338,0,0,0,3,2,1,32,0003-00-0008-17.png,0002-00-0003-22.png
00000009,169,0,1442423454223,1442423454275,896,413,0,0,0,1,2,1,12,0001-00-0000-70.png,0002-00-0006-06.png
00000009,170,1,1442423457483,1442423458044,1108,293,0,0,0,2,1,1,21,0002-00-0002-01.png,0001-00-0000-76.png
00000009,171,1,1442423459406,1442423459478,888,369,0,0,0,3,2,1,32,0003-00-0006-28.png,0002-00-0001-71.png
00000009,172,1,1442423460562,1442423460618,869,463,0,0,0,5,4,1,54,0005-00-0003-44.png,0004-00-0002-34.png
00000009,173,1,1442423461852,1442423461892,868,424,0,0,0,4,3,1,43,0004-00-0007-58.png,0003-00-0007-01.png
00000009,174,0,1442423463144,1442423463212,862,417,0,0,0,2,3,1,23,0002-00-0005-21.png,0003-00-0001-05.png
00000009,175,0,1442423466327,1442423466383,960,338,0,0,0,3,4,1,34,0003-00-0000-02.png,0004-00-0004-08.png
00000009,176,0,1442423469634,1442423470218,1135,298,0,0,0,4,5,1,45,0004-00-0004-86.png,0005-00-0001-25.png
00000009,177,1,1442423473363,1442423473387,964,306,0,0,0,5,4,1,54,0005-00-0005-81.png,0004-00-0009-39.png
00000009,178,1,1442423474337,1442423474413,907,429,0,0,0,4,3,1,43,0004-00-0006-03.png,0003-00-0001-90.png
00000009,179,1,1442423475368,1442423476357,436,267,0,0,0,1,2,1,12,0001-00-0005-90.png,0002-00-0005-55.png
00000009,180,0,1442423477298,1442423477362,892,427,0,0,0,3,4,1,34,0003-00-0006-22.png,0004-00-0006-28.png
00000009,181,1,1442423480875,1442423481448,967,331,0,0,0,2,1,1,21,0002-00-0000-47.png,0001-00-0006-21.png
00000009,182,0,1442423482290,1442423482374,931,442,0,0,0,2,3,1,23,0002-00-0002-69.png,0003-00-0000-92.png
00000009,183,1,1442423485554,1442423486170,494,278,0,0,0,4,5,1,45,0004-00-0006-89.png,0005-00-0000-09.png
00000009,184,1,1442423487688,1442423487736,861,383,0,0,0,3,2,1,32,0003-00-0009-59.png,0002-00-0001-28.png
00000009,185,0,1442423488877,1442423490081,1058,320,0,0,0,3,4,1,34,0003-00-0007-74.png,0004-00-0004-77.png
00000009,186,1,1442423493217,1442423493880,1093,304,0,0,0,5,4,1,54,0005-00-0000-61.png,0004-00-0005-50.png
00000009,187,1,1442423494713,1442423495998,1067,279,0,0,0,2,1,1,21,0002-00-0002-68.png,0001-00-0000-92.png
00000009,188,1,1442423497442,1442423497510,904,384,0,0,0,4,3,1,43,0004-00-0000-80.png,0003-00-0003-88.png
00000009,189,0,1442423498565,1442423498632,900,436,0,0,0,1,2,1,12,0001-00-0002-41.png,0002-00-0000-96.png
00000009,190,1,1442423502036,1442423502548,964,340,0,0,0,3,2,1,32,0003-00-0008-72.png,0002-00-0000-52.png
00000009,191,0,1442423504010,1442423504078,896,376,0,0,0,4,5,1,45,0004-00-0009-24.png,0005-00-0008-00.png
00000009,192,0,1442423507289,1442423508233,990,323,0,0,0,2,3,1,23,0002-00-0000-47.png,0003-00-0003-08.png
00000009,193,0,1442423511273,1442423511924,962,322,0,0,0,2,3,1,23,0002-00-0004-23.png,0003-00-0004-96.png
00000009,194,0,1442423514952,1442423515589,481,274,0,0,0,2,1,1,21,0002-00-0004-02.png,0001-00-0002-01.png
00000009,195,1,1442423518584,1442423519141,1098,281,0,0,0,3,2,1,32,0003-00-0000-55.png,0002-00-0008-38.png
00000009,196,0,1442423520027,1442423520091,950,358,0,0,0,4,5,1,45,0004-00-0008-23.png,0005-00-0007-32.png
00000009,197,1,1442423523170,1442423523848,383,356,0,0,0,1,2,1,12,0001-00-0001-05.png,0002-00-0002-43.png
00000009,198,1,1442423525267,1442423525335,894,363,0,0,0,4,3,1,43,0004-00-0009-50.png,0003-00-0003-58.png
00000009,199,0,1442423526405,1442423526484,862,400,0,0,0,3,4,1,34,0003-00-0008-73.png,0004-00-0002-35.png
00000009,200,0,1442423529347,1442423530105,469,260,0,0,0,5,4,1,54,0005-00-0003-07.png,0004-00-0008-49.png
00000009,201,0,1442423532944,1442423533543,1098,308,0,0,0,3,4,1,34,0003-00-0004-74.png,0004-00-0000-77.png
00000009,202,1,1442423536493,1442423537242,350,373,0,0,0,4,5,1,45,0004-00-0000-32.png,0005-00-0009-77.png
00000009,203,1,1442423538089,1442423538184,888,410,0,0,0,2,1,1,21,0002-00-0009-92.png,0001-00-0003-85.png
00000009,204,1,1442423539377,1442423539453,858,406,0,0,0,5,4,1,54,0005-00-0002-92.png,0004-00-0001-17.png
00000009,205,0,1442423540829,1442423541371,888,474,0,0,0,2,3,1,23,0002-00-0000-51.png,0003-00-0004-65.png
00000009,206,1,1442423544515,1442423545147,964,326,0,0,0,4,3,1,43,0004-00-0003-78.png,0003-00-0001-29.png
00000009,207,0,1442423546592,1442423546632,869,396,0,0,0,1,2,1,12,0001-00-0006-02.png,0002-00-0004-70.png
00000009,208,1,1442423549659,1442423550622,963,316,0,0,0,3,2,1,32,0003-00-0008-14.png,0002-00-0009-98.png
00000009,209,0,1442423552023,1442423552092,894,400,0,0,0,2,3,1,23,0002-00-0004-77.png,0003-00-0004-81.png
00000009,210,1,1442423555130,1442423555746,370,359,0,0,0,4,5,1,45,0004-00-0003-16.png,0005-00-0006-95.png
00000009,211,1,1442423557182,1442423557214,862,384,0,0,0,3,2,1,32,0003-00-0008-01.png,0002-00-0003-87.png
00000009,212,0,1442423558454,1442423559702,462,242,0,0,0,4,3,1,43,0004-00-0008-95.png,0003-00-0005-72.png
00000009,213,0,1442423562600,1442423562626,913,462,0,0,0,3,4,1,34,0003-00-0007-59.png,0004-00-0006-42.png
00000009,214,1,1442423565709,1442423566404,1104,306,0,0,0,2,1,1,21,0002-00-0003-19.png,0001-00-0006-29.png
00000009,215,0,1442423567776,1442423567804,860,338,0,0,0,1,2,1,12,0001-00-0002-56.png,0002-00-0005-32.png
00000009,216,1,1442423570951,1442423571003,977,308,0,0,0,5,4,1,54,0005-00-0003-93.png,0004-00-0003-65.png
00000009,217,0,1442423572014,1442423572038,873,432,0,0,0,4,5,1,45,0004-00-0002-86.png,0005-00-0009-85.png
00000009,218,1,1442423575200,1442423575228,929,342,0,0,0,4,3,1,43,0004-00-0009-44.png,0003-00-0001-50.png
00000009,219,1,1442423576103,1442423576195,887,455,0,0,0,5,4,1,54,0005-00-0001-98.png,0004-00-0004-76.png
00000009,220,0,1442423577268,1442423578128,943,309,0,0,0,3,4,1,34,0003-00-0004-91.png,0004-00-0005-52.png
00000009,221,1,1442423581036,1442423581560,990,305,0,0,0,2,1,1,21,0002-00-0001-58.png,0001-00-0005-09.png
00000009,222,1,1442423582883,1442423582963,914,364,0,0,0,3,2,1,32,0003-00-0000-81.png,0002-00-0001-45.png
00000009,223,0,1442423584145,1442423584181,903,419,0,0,0,2,3,1,23,0002-00-0009-23.png,0003-00-0000-29.png
00000009,224,0,1442423587146,1442423587690,1092,279,0,0,0,1,2,1,12,0001-00-0003-05.png,0002-00-0004-97.png
00000009,225,0,1442423590831,1442423591492,450,286,0,0,0,5,4,1,54,0005-00-0005-53.png,0004-00-0008-28.png
00000009,226,1,1442423594667,1442423594727,1004,357,0,0,0,2,1,1,21,0002-00-0008-72.png,0001-00-0006-66.png
00000009,227,1,1442423595684,1442423595777,939,425,0,0,0,3,2,1,32,0003-00-0002-48.png,0002-00-0008-41.png
00000009,228,0,1442423596823,1442423596879,862,418,0,0,0,3,4,1,34,0003-00-0004-74.png,0004-00-0000-00.png
00000009,229,1,1442423599937,1442423600582,354,342,0,0,0,4,5,1,45,0004-00-0001-04.png,0005-00-0005-06.png
00000009,230,0,1442423601424,1442423601464,868,388,0,0,0,1,2,1,12,0001-00-0009-27.png,0002-00-0001-23.png
00000009,231,0,1442423604389,1442423604405,890,447,0,0,0,2,3,1,23,0002-00-0004-98.png,0003-00-0004-02.png
00000009,232,1,1442423607301,1442423607577,991,382,0,0,0,4,3,1,43,0004-00-0007-89.png,0003-00-0009-81.png
00000009,233,1,1442423608499,1442423608571,888,436,0,0,0,4,3,1,43,0004-00-0006-24.png,0003-00-0002-84.png
00000009,234,1,1442423610090,1442423610843,366,388,0,0,0,1,2,1,12,0001-00-0009-35.png,0002-00-0004-78.png
00000009,235,1,1442423611981,1442423612037,879,432,0,0,0,2,1,1,21,0002-00-0007-48.png,0001-00-0001-60.png
00000009,236,0,1442423613073,1442423614411,1049,287,0,0,0,4,5,1,45,0004-00-0001-22.png,0005-00-0002-71.png
00000009,237,0,1442423617563,1442423617591,965,336,0,0,0,2,3,1,23,0002-00-0006-04.png,0003-00-0009-77.png
00000009,238,1,1442423620685,1442423621294,976,332,0,0,0,3,2,1,32,0003-00-0002-81.png,0002-00-0009-61.png
00000009,239,1,1442423622582,1442423622622,875,358,0,0,0,5,4,1,54,0005-00-0007-73.png,0004-00-0009-46.png
00000009,240,0,1442423623747,1442423624559,903,486,0,0,0,3,4,1,34,0003-00-0005-47.png,0004-00-0001-33.png
00000009,241,0,1442423627777,1442423628383,413,348,0,0,0,2,1,1,21,0002-00-0004-12.png,0001-00-0009-73.png
00000009,242,0,1442423631518,1442423632270,465,280,0,0,0,5,4,1,54,0005-00-0002-54.png,0004-00-0005-96.png
00000009,243,1,1442423635145,1442423636099,463,234,0,0,0,4,5,1,45,0004-00-0004-61.png,0005-00-0002-43.png
00000009,244,1,1442423637088,1442423638038,965,332,0,0,0,4,3,1,43,0004-00-0005-43.png,0003-00-0004-65.png
00000009,245,0,1442423638921,1442423638977,909,392,0,0,0,3,4,1,34,0003-00-0008-08.png,0004-00-0003-24.png
00000009,246,0,1442423642152,1442423642192,860,297,0,0,0,2,3,1,23,0002-00-0008-08.png,0003-00-0001-15.png
00000009,247,1,1442423645093,1442423645129,937,411,0,0,0,3,2,1,32,0003-00-0006-07.png,0002-00-0005-97.png
00000009,248,0,1442423645995,1442423646114,928,436,0,0,0,1,2,1,12,0001-00-0004-65.png,0002-00-0000-97.png
00000009,249,1,1442423649305,1442423649866,934,331,0,0,0,4,3,1,43,0004-00-0003-42.png,0003-00-0000-19.png
00000009,250,1,1442423651202,1442423651262,888,358,0,0,0,5,4,1,54,0005-00-0002-21.png,0004-00-0004-59.png
00000009,251,0,1442423652388,1442423652424,901,430,0,0,0,4,5,1,45,0004-00-0009-33.png,0005-00-0006-21.png
00000009,252,0,1442423655574,1442423655602,908,328,0,0,0,1,2,1,12,0001-00-0003-34.png,0002-00-0001-75.png
00000009,253,1,1442423658778,1442423659547,475,269,0,0,0,3,4,1,34,0003-00-0005-95.png,0004-00-0007-29.png
00000009,254,1,1442423661002,1442423661030,862,358,0,0,0,3,2,1,32,0003-00-0005-57.png,0002-00-0008-68.png
00000009,255,1,1442423662094,1442423662142,862,410,0,0,0,2,1,1,21,0002-00-0006-51.png,0001-00-0003-94.png
00000009,256,0,1442423663298,1442423663346,878,419,0,0,0,2,3,1,23,0002-00-0006-09.png,0003-00-0005-14.png
00000009,257,0,1442423666248,1442423666982,376,321,0,0,0,4,3,1,43,0004-00-0007-00.png,0003-00-0009-79.png
00000009,258,1,1442423669937,1442423670189,1056,308,0,0,0,5,4,1,54,0005-00-0008-14.png,0004-00-0007-95.png
00000009,259,0,1442423671079,1442423671179,888,462,0,0,0,1,2,1,12,0001-00-0007-12.png,0002-00-0004-19.png
00000009,260,1,1442423674387,1442423674399,955,335,0,0,0,3,2,1,32,0003-00-0009-84.png,0002-00-0006-91.png
00000009,261,0,1442423675749,1442423675789,861,362,0,0,0,4,5,1,45,0004-00-0006-51.png,0005-00-0000-89.png
00000009,262,1,1442423678971,1442423679636,493,291,0,0,0,2,3,1,23,0002-00-0007-03.png,0003-00-0003-45.png
00000009,263,0,1442423681025,1442423681085,904,358,0,0,0,3,4,1,34,0003-00-0006-44.png,0004-00-0002-57.png
00000009,264,1,1442423684246,1442423684298,975,353,0,0,0,2,1,1,21,0002-00-0002-82.png,0001-00-0000-22.png
00000009,265,0,1442423685199,1442423685239,888,419,0,0,0,2,3,1,23,0002-00-0008-57.png,0003-00-0003-25.png
00000009,266,1,1442423688370,1442423688414,861,310,0,0,0,2,1,1,21,0002-00-0002-88.png,0001-00-0003-41.png
00000009,267,0,1442423689283,1442423689351,923,410,0,0,0,3,4,1,34,0003-00-0008-07.png,0004-00-0008-64.png
00000009,268,0,1442423692451,1442423692491,960,354,0,0,0,4,5,1,45,0004-00-0008-68.png,0005-00-0006-26.png
00000009,269,1,1442423695595,1442423695659,977,322,0,0,0,3,2,1,32,0003-00-0008-36.png,0002-00-0007-96.png
00000009,270,1,1442423696527,1442423696607,905,436,0,0,0,4,3,1,43,0004-00-0000-59.png,0003-00-0002-10.png
00000009,271,1,1442423697969,1442423698506,928,529,0,0,0,5,4,1,54,0005-00-0003-18.png,0004-00-0003-03.png
00000009,272,0,1442423699518,1442423699599,932,416,0,0,0,1,2,1,12,0001-00-0008-51.png,0002-00-0004-57.png
00000009,273,0,1442423702729,1442423702777,990,308,0,0,0,3,4,1,34,0003-00-0006-88.png,0004-00-0003-87.png
00000009,274,1,1442423705811,1442423706367,990,347,0,0,0,3,2,1,32,0003-00-0003-35.png,0002-00-0003-31.png
00000009,275,1,1442423707201,1442423707293,913,462,0,0,0,2,1,1,21,0002-00-0000-35.png,0001-00-0007-17.png
00000009,276,1,1442423708543,1442423708603,862,436,0,0,0,5,4,1,54,0005-00-0002-55.png,0004-00-0005-64.png
00000009,277,0,1442423709755,1442423709811,869,453,0,0,0,4,5,1,45,0004-00-0001-23.png,0005-00-0002-48.png
00000009,278,0,1442423712865,1442423712913,964,345,0,0,0,1,2,1,12,0001-00-0000-97.png,0002-00-0003-74.png
00000009,279,1,1442423716423,1442423717074,514,279,0,0,0,2,3,1,23,0002-00-0002-99.png,0003-00-0007-60.png
00000009,280,1,1442423717902,1442423717970,888,420,0,0,0,4,3,1,43,0004-00-0002-61.png,0003-00-0003-58.png
00000009,281,1,1442423719047,1442423719107,867,427,0,0,0,5,4,1,54,0005-00-0002-08.png,0004-00-0009-35.png
00000009,282,1,1442423720237,1442423720310,862,424,0,0,0,4,3,1,43,0004-00-0009-21.png,0003-00-0001-83.png
00000009,283,1,1442423721450,1442423722522,1022,283,0,0,0,3,2,1,32,0003-00-0007-54.png,0002-00-0005-64.png
00000009,284,0,1442423723418,1442423723442,918,430,0,0,0,2,3,1,23,0002-00-0003-80.png,0003-00-0002-36.png
00000009,285,1,1442423726468,1442423726997,368,374,0,0,0,1,2,1,12,0001-00-0009-56.png,0002-00-0007-02.png
00000009,286,1,1442423728386,1442423729457,1058,279,0,0,0,2,1,1,21,0002-00-0000-74.png,0001-00-0002-52.png
00000009,287,0,1442423730930,1442423730978,871,410,0,0,0,3,4,1,34,0003-00-0004-01.png,0004-00-0009-54.png
00000009,288,1,1442423734109,1442423734782,478,270,0,0,0,4,5,1,45,0004-00-0001-83.png,0005-00-0006-50.png
00000009,289,1,1442423736186,1442423736234,868,360,0,0,0,2,1,1,21,0002-00-0004-89.png,0001-00-0003-12.png
00000009,290,1,1442423737261,1442423738341,458,252,0,0,0,1,2,1,12,0001-00-0005-62.png,0002-00-0007-43.png
00000009,291,1,1442423739236,1442423739305,862,462,0,0,0,4,3,1,43,0004-00-0009-79.png,0003-00-0005-42.png
00000009,292,0,1442423740528,1442423741002,928,529,0,0,0,4,5,1,45,0004-00-0002-35.png,0005-00-0006-39.png
00000009,293,0,1442423744205,1442423744800,1056,306,0,0,0,3,4,1,34,0003-00-0001-19.png,0004-00-0005-10.png
00000009,294,1,1442423748023,1442423748650,1017,328,0,0,0,5,4,1,54,0005-00-0007-88.png,0004-00-0002-17.png
00000009,295,0,1442423750030,1442423750118,878,384,0,0,0,2,3,1,23,0002-00-0009-45.png,0003-00-0009-44.png
00000009,296,0,1442423753299,1442423753896,392,358,0,0,0,3,2,1,32,0003-00-0003-79.png,0002-00-0007-71.png
00000009,297,0,1442423756918,1442423757502,1096,300,0,0,0,2,3,1,23,0002-00-0009-04.png,0003-00-0008-08.png
00000009,298,0,1442423760425,1442423760513,885,436,0,0,0,4,5,1,45,0004-00-0001-51.png,0005-00-0001-85.png
00000009,299,0,1442423763579,1442423763615,907,380,0,0,0,3,4,1,34,0003-00-0003-22.png,0004-00-0002-19.png
00000009,300,1,1442423766768,1442423766796,959,320,0,0,0,2,1,1,21,0002-00-0005-53.png,0001-00-0001-89.png
00000009,301,1,1442423767734,1442423767794,891,392,0,0,0,4,3,1,43,0004-00-0001-81.png,0003-00-0009-56.png
00000009,302,1,1442423768746,1442423769742,476,229,0,0,0,1,2,1,12,0001-00-0007-13.png,0002-00-0002-10.png
00000009,303,0,1442423770891,1442423771744,466,235,0,0,0,3,2,1,32,0003-00-0006-01.png,0002-00-0002-65.png
00000009,304,1,1442423774697,1442423774717,894,422,0,0,0,5,4,1,54,0005-00-0001-20.png,0004-00-0007-32.png
00000009,305,1,1442423775641,1442423775689,888,385,0,0,0,3,2,1,32,0003-00-0000-67.png,0002-00-0001-84.png
00000009,306,1,1442423776982,1442423777949,448,404,0,0,0,4,5,1,45,0004-00-0003-77.png,0005-00-0004-89.png
00000009,307,1,1442423778829,1442423778904,862,423,0,0,0,4,3,1,43,0004-00-0003-76.png,0003-00-0007-70.png
00000009,308,1,1442423780073,1442423780477,888,488,0,0,0,2,1,1,21,0002-00-0006-73.png,0001-00-0000-34.png
00000009,309,0,1442423781803,1442423781831,873,435,0,0,0,3,4,1,34,0003-00-0000-16.png,0004-00-0000-02.png
00000009,310,0,1442423784951,1442423785505,937,302,0,0,0,1,2,1,12,0001-00-0006-51.png,0002-00-0005-03.png
00000009,311,1,1442423788320,1442423788853,478,268,0,0,0,2,3,1,23,0002-00-0003-36.png,0003-00-0007-95.png
00000009,312,1,1442423790258,1442423790326,879,359,0,0,0,5,4,1,54,0005-00-0002-36.png,0004-00-0003-55.png
00000009,313,0,1442423791402,1442423791470,858,437,0,0,0,3,4,1,34,0003-00-0007-45.png,0004-00-0001-85.png
00000009,314,1,1442423794464,1442423794994,354,368,0,0,0,4,5,1,45,0004-00-0002-68.png,0005-00-0000-78.png
00000009,315,0,1442423796301,1442423796369,888,358,0,0,0,1,2,1,12,0001-00-0006-04.png,0002-00-0001-19.png
00000009,316,0,1442423799562,1442423800111,486,247,0,0,0,4,3,1,43,0004-00-0001-04.png,0003-00-0000-34.png
00000009,317,0,1442423803238,1442423803266,959,355,0,0,0,2,3,1,23,0002-00-0002-00.png,0003-00-0003-27.png
00000009,318,1,1442423806399,1442423806407,859,300,0,0,0,5,4,1,54,0005-00-0006-69.png,0004-00-0009-65.png
00000009,319,1,1442423807293,1442423807360,870,410,0,0,0,2,1,1,21,0002-00-0001-98.png,0001-00-0002-49.png
00000009,320,1,1442423808494,1442423808973,907,489,0,0,0,3,2,1,32,0003-00-0008-55.png,0002-00-0000-17.png
00000009,321,0,1442423810002,1442423810031,865,387,0,0,0,4,5,1,45,0004-00-0008-31.png,0005-00-0005-50.png
00000009,322,1,1442423813054,1442423813579,1092,279,0,0,0,3,2,1,32,0003-00-0007-44.png,0002-00-0005-46.png
00000009,323,0,1442423814882,1442423814914,895,355,0,0,0,1,2,1,12,0001-00-0003-06.png,0002-00-0003-37.png
00000009,324,0,1442423818064,1442423818657,398,360,0,0,0,4,3,1,43,0004-00-0005-91.png,0003-00-0002-74.png
00000009,325,1,1442423821851,1442423822791,478,253,0,0,0,2,3,1,23,0002-00-0006-02.png,0003-00-0002-34.png
00000009,326,0,1442423823697,1442423823865,897,436,0,0,0,3,4,1,34,0003-00-0007-51.png,0004-00-0002-94.png
00000009,327,0,1442423827066,1442423827719,437,359,0,0,0,2,1,1,21,0002-00-0007-51.png,0001-00-0005-84.png
00000009,328,1,1442423830654,1442423830714,862,520,0,0,0,5,4,1,54,0005-00-0005-19.png,0004-00-0006-01.png
00000009,329,1,1442423831708,1442423831767,907,419,0,0,0,3,2,1,32,0003-00-0001-05.png,0002-00-0001-08.png
00000009,330,1,1442423832631,1442423833515,913,317,0,0,0,2,1,1,21,0002-00-0003-43.png,0001-00-0007-84.png
00000009,331,0,1442423834620,1442423834688,964,358,0,0,0,3,4,1,34,0003-00-0002-72.png,0004-00-0008-70.png
00000009,332,0,1442423837829,1442423837845,903,362,0,0,0,4,5,1,45,0004-00-0001-43.png,0005-00-0000-28.png
00000009,333,1,1442423840968,1442423841523,1100,307,0,0,0,5,4,1,54,0005-00-0004-27.png,0004-00-0005-19.png
00000009,334,1,1442423842846,1442423842906,879,358,0,0,0,4,3,1,43,0004-00-0005-44.png,0003-00-0007-26.png
00000009,335,0,1442423844001,1442423844037,870,400,0,0,0,2,3,1,23,0002-00-0007-93.png,0003-00-0000-42.png
00000009,336,0,1442423847190,1442423847238,951,347,0,0,0,1,2,1,12,0001-00-0007-10.png,0002-00-0008-17.png
00000009,337,0,1442423850556,1442423850576,903,332,0,0,0,4,5,1,45,0004-00-0000-01.png,0005-00-0002-54.png
00000009,338,0,1442423853731,1442423853767,872,275,0,0,0,1,2,1,12,0001-00-0003-03.png,0002-00-0006-63.png
00000009,339,1,1442423856808,1442423857416,394,360,0,0,0,2,3,1,23,0002-00-0005-76.png,0003-00-0004-46.png
00000009,340,0,1442423858236,1442423858418,913,399,0,0,0,3,4,1,34,0003-00-0009-28.png,0004-00-0007-32.png
00000009,341,1,1442423861497,1442423862118,970,325,0,0,0,5,4,1,54,0005-00-0002-35.png,0004-00-0001-58.png
00000009,342,1,1442423863516,1442423863663,877,384,0,0,0,2,1,1,21,0002-00-0006-54.png,0001-00-0008-64.png
00000009,343,1,1442423864751,1442423864807,868,451,0,0,0,4,3,1,43,0004-00-0008-32.png,0003-00-0003-02.png
00000009,344,1,1442423865882,1442423866735,894,506,0,0,0,3,2,1,32,0003-00-0009-83.png,0002-00-0003-47.png
00000009,345,1,1442423867961,1442423869004,485,233,0,0,0,2,3,1,23,0002-00-0003-52.png,0003-00-0004-99.png
00000009,346,1,1442423870156,1442423870205,873,438,0,0,0,2,1,1,21,0002-00-0006-60.png,0001-00-0002-57.png
00000009,347,1,1442423871288,1442423871769,919,501,0,0,0,4,3,1,43,0004-00-0003-88.png,0003-00-0007-22.png
00000009,348,0,1442423872885,1442423872937,888,394,0,0,0,1,2,1,12,0001-00-0008-09.png,0002-00-0009-67.png
00000009,349,1,1442423875929,1442423876591,919,324,0,0,0,5,4,1,54,0005-00-0008-30.png,0004-00-0002-87.png
00000009,350,0,1442423877987,1442423878023,892,387,0,0,0,3,4,1,34,0003-00-0002-98.png,0004-00-0002-55.png
00000009,351,1,1442423881195,1442423882019,390,384,0,0,0,4,5,1,45,0004-00-0007-15.png,0005-00-0004-21.png
00000009,352,1,1442423883453,1442423883521,896,410,0,0,0,3,2,1,32,0003-00-0000-54.png,0002-00-0000-98.png
00000009,353,0,1442423884414,1442423885310,355,377,0,0,0,5,4,1,54,0005-00-0002-68.png,0004-00-0007-05.png
00000009,354,0,1442423888549,1442423888712,869,335,0,0,0,1,2,1,12,0001-00-0001-78.png,0002-00-0000-40.png
00000009,355,1,1442423891811,1442423891855,995,355,0,0,0,4,3,1,43,0004-00-0007-49.png,0003-00-0009-94.png
00000009,356,1,1442423892861,1442423892893,862,459,0,0,0,2,1,1,21,0002-00-0001-54.png,0001-00-0008-87.png
00000009,357,0,1442423894154,1442423895126,1062,275,0,0,0,3,4,1,34,0003-00-0004-06.png,0004-00-0005-72.png
00000009,358,1,1442423898221,1442423898800,504,239,0,0,0,2,3,1,23,0002-00-0001-64.png,0003-00-0001-73.png
00000009,359,0,1442423899625,1442423899661,876,424,0,0,0,4,5,1,45,0004-00-0008-38.png,0005-00-0000-73.png
00000009,360,1,1442423902858,1442423902866,932,349,0,0,0,3,2,1,32,0003-00-0007-08.png,0002-00-0002-85.png
00000009,361,1,1442423903698,1442423903792,907,470,0,0,0,2,1,1,21,0002-00-0007-26.png,0001-00-0009-92.png
00000009,362,0,1442423905097,1442423905153,859,412,0,0,0,3,4,1,34,0003-00-0008-39.png,0004-00-0003-68.png
00000009,363,1,1442423908670,1442423909287,427,400,0,0,0,4,5,1,45,0004-00-0006-56.png,0005-00-0003-36.png
00000009,364,1,1442423910688,1442423910732,862,384,0,0,0,3,2,1,32,0003-00-0005-45.png,0002-00-0009-43.png
00000009,365,0,1442423911752,1442423912626,406,419,0,0,0,4,3,1,43,0004-00-0008-44.png,0003-00-0007-70.png
00000009,366,0,1442423915736,1442423915776,959,333,0,0,0,2,3,1,23,0002-00-0006-68.png,0003-00-0002-62.png
00000009,367,0,1442423918867,1442423919463,988,336,0,0,0,1,2,1,12,0001-00-0003-64.png,0002-00-0003-09.png
00000009,368,1,1442423922605,1442423923213,1118,293,0,0,0,5,4,1,54,0005-00-0008-82.png,0004-00-0002-88.png
00000009,369,0,1442423924552,1442423924693,913,373,0,0,0,3,4,1,34,0003-00-0007-11.png,0004-00-0001-14.png
00000009,370,1,1442423927673,1442423928245,517,245,0,0,0,1,2,1,12,0001-00-0005-99.png,0002-00-0003-18.png
00000009,371,0,1442423929131,1442423930233,488,236,0,0,0,4,3,1,43,0004-00-0000-59.png,0003-00-0001-19.png
00000009,372,1,1442423933083,1442423933719,488,247,0,0,0,2,3,1,23,0002-00-0008-80.png,0003-00-0002-29.png
00000009,373,1,1442423935084,1442423935144,859,395,0,0,0,2,1,1,21,0002-00-0006-33.png,0001-00-0004-63.png
00000009,374,1,1442423936206,1442423936934,913,541,0,0,0,3,2,1,32,0003-00-0006-82.png,0002-00-0005-96.png
00000009,375,0,1442423937776,1442423937855,907,450,0,0,0,4,5,1,45,0004-00-0004-82.png,0005-00-0001-35.png
00000009,376,1,1442423940747,1442423940767,942,431,0,0,0,5,4,1,54,0005-00-0007-65.png,0004-00-0000-11.png
00000009,377,1,1442423941868,1442423941920,903,412,0,0,0,4,3,1,43,0004-00-0004-23.png,0003-00-0003-77.png
00000009,378,0,1442423942944,1442423943579,928,530,0,0,0,3,4,1,34,0003-00-0004-99.png,0004-00-0008-76.png
00000009,379,0,1442423946758,1442423946810,944,355,0,0,0,4,5,1,45,0004-00-0001-64.png,0005-00-0000-77.png
00000009,380,1,1442423949969,1442423950812,449,242,0,0,0,2,3,1,23,0002-00-0006-38.png,0003-00-0001-85.png
00000009,381,1,1442423951644,1442423951736,888,410,0,0,0,2,1,1,21,0002-00-0008-25.png,0001-00-0007-57.png
00000009,382,1,1442423952654,1442423952702,872,410,0,0,0,5,4,1,54,0005-00-0006-17.png,0004-00-0002-89.png
00000009,383,0,1442423953896,1442423953924,869,414,0,0,0,1,2,1,12,0001-00-0002-88.png,0002-00-0000-46.png
00000009,384,1,1442423957083,1442423957639,964,410,0,0,0,3,2,1,32,0003-00-0003-98.png,0002-00-0001-60.png
00000009,385,1,1442423958915,1442423958991,877,384,0,0,0,3,2,1,32,0003-00-0003-85.png,0002-00-0007-66.png
00000009,386,1,1442423960017,1442423960920,337,376,0,0,0,1,2,1,12,0001-00-0002-04.png,0002-00-0002-35.png
00000009,387,0,1442423961834,1442423962766,1067,253,0,0,0,3,4,1,34,0003-00-0000-95.png,0004-00-0008-99.png
00000009,388,1,1442423965869,1442423965917,964,358,0,0,0,2,1,1,21,0002-00-0002-95.png,0001-00-0004-63.png
00000009,389,0,1442423966838,1442423966893,888,462,0,0,0,4,5,1,45,0004-00-0008-64.png,0005-00-0003-08.png
00000009,390,1,1442423970045,1442423970089,971,333,0,0,0,5,4,1,54,0005-00-0000-35.png,0004-00-0008-75.png
00000009,391,0,1442423970922,1442423971064,939,473,0,0,0,2,3,1,23,0002-00-0001-50.png,0003-00-0005-52.png
00000009,392,1,1442423973984,1442423974794,1090,299,0,0,0,4,3,1,43,0004-00-0007-19.png,0003-00-0002-08.png
00000009,393,1,1442423976076,1442423976112,871,384,0,0,0,4,3,1,43,0004-00-0008-04.png,0003-00-0009-95.png
00000009,394,0,1442423977239,1442423977287,862,398,0,0,0,2,3,1,23,0002-00-0008-64.png,0003-00-0002-30.png
00000009,395,0,1442423980274,1442423980317,884,432,0,0,0,4,5,1,45,0004-00-0002-71.png,0005-00-0000-85.png
00000009,396,1,1442423983460,1442423983496,953,365,0,0,0,3,2,1,32,0003-00-0007-53.png,0002-00-0006-98.png
00000009,397,0,1442423984415,1442423984483,879,462,0,0,0,3,4,1,34,0003-00-0009-13.png,0004-00-0004-46.png
00000009,398,1,1442423987594,1442423987602,939,338,0,0,0,5,4,1,54,0005-00-0009-88.png,0004-00-0006-50.png
00000009,399,1,1442423988567,1442423988635,913,410,0,0,0,2,1,1,21,0002-00-0001-15.png,0001-00-0008-87.png
00000009,400,0,1442423989510,1442423989570,864,398,0,0,0,1,2,1,12,0001-00-0004-80.png,0002-00-0006-56.png
00000009,401,1,1442423993069,1442423993733,393,339,0,0,0,2,3,1,23,0002-00-0005-66.png,0003-00-0009-73.png
00000009,402,0,1442423995104,1442423995156,862,373,0,0,0,3,4,1,34,0003-00-0009-13.png,0004-00-0000-84.png
00000009,403,1,1442423998076,1442423998867,939,332,0,0,0,2,1,1,21,0002-00-0005-12.png,0001-00-0005-84.png
00000009,404,0,1442424000133,1442424000161,888,367,0,0,0,1,2,1,12,0001-00-0005-55.png,0002-00-0003-34.png
00000009,405,1,1442424003234,1442424004089,940,384,0,0,0,5,4,1,54,0005-00-0006-91.png,0004-00-0001-91.png
00000009,406,0,1442424005422,1442424005490,894,374,0,0,0,4,5,1,45,0004-00-0002-36.png,0005-00-0006-08.png
00000009,407,1,1442424008642,1442424009478,965,337,0,0,0,4,3,1,43,0004-00-0009-38.png,0003-00-0002-32.png
00000009,408,1,1442424010339,1442424010351,913,466,0,0,0,3,2,1,32,0003-00-0002-24.png,0002-00-0006-42.png
00000009,409,1,1442424011661,1442424011717,879,436,0,0,0,3,2,1,32,0003-00-0001-17.png,0002-00-0009-91.png
00000009,410,1,1442424012893,1442424012929,866,447,0,0,0,4,3,1,43,0004-00-0009-09.png,0003-00-0007-88.png
00000009,411,1,1442424014112,1442424014429,876,488,0,0,0,2,1,1,21,0002-00-0002-02.png,0001-00-0008-22.png
00000009,412,0,1442424015653,1442424015685,875,441,0,0,0,2,3,1,23,0002-00-0009-57.png,0003-00-0005-35.png
00000009,413,0,1442424018754,1442424019348,967,335,0,0,0,3,4,1,34,0003-00-0002-72.png,0004-00-0001-71.png
00000009,414,1,1442424022542,1442424023125,490,269,0,0,0,1,2,1,12,0001-00-0008-15.png,0002-00-0005-18.png
00000009,415,0,1442424023981,1442424024080,873,436,0,0,0,4,5,1,45,0004-00-0007-78.png,0005-00-0004-66.png
00000009,416,1,1442424027243,1442424027263,969,327,0,0,0,5,4,1,54,0005-00-0003-06.png,0004-00-0002-12.png
00000009,417,1,1442424028193,1442424028277,886,433,0,0,0,3,2,1,32,0003-00-0001-73.png,0002-00-0004-23.png
00000009,418,0,1442424029230,1442424029286,862,436,0,0,0,3,4,1,34,0003-00-0002-26.png,0004-00-0003-05.png
00000009,419,1,1442424032439,1442424033120,395,332,0,0,0,1,2,1,12,0001-00-0004-68.png,0002-00-0004-42.png
00000009,420,1,1442424034552,1442424035070,905,468,0,0,0,4,3,1,43,0004-00-0004-94.png,0003-00-0007-35.png
00000009,421,0,1442424036157,1442424036187,868,394,0,0,0,4,5,1,45,0004-00-0006-84.png,0005-00-0002-34.png
00000009,422,1,1442424039304,1442424039879,512,234,0,0,0,2,3,1,23,0002-00-0006-51.png,0003-00-0006-07.png
00000009,423,1,1442424041263,1442424041299,858,355,0,0,0,2,1,1,21,0002-00-0008-21.png,0001-00-0005-45.png
00000009,424,0,1442424042255,1442424043209,470,342,0,0,0,5,4,1,54,0005-00-0002-73.png,0004-00-0005-73.png
00000009,425,0,1442424046059,1442424046625,965,335,0,0,0,3,4,1,34,0003-00-0004-00.png,0004-00-0000-99.png
00000009,426,1,1442424049769,1442424050319,390,375,0,0,0,1,2,1,12,0001-00-0001-00.png,0002-00-0009-15.png
00000009,427,1,1442424051157,1442424052107,943,333,0,0,0,4,3,1,43,0004-00-0004-29.png,0003-00-0004-75.png
00000009,428,1,1442424052977,1442424053017,888,387,0,0,0,5,4,1,54,0005-00-0008-17.png,0004-00-0007-18.png
00000009,429,0,1442424054130,1442424054540,895,482,0,0,0,2,3,1,23,0002-00-0006-36.png,0003-00-0008-24.png
00000009,430,1,1442424057709,1442424058222,967,331,0,0,0,3,2,1,32,0003-00-0004-66.png,0002-00-0003-90.png
00000009,431,0,1442424059598,1442424059650,879,358,0,0,0,4,5,1,45,0004-00-0004-96.png,0005-00-0002-69.png
00000009,432,1,1442424062804,1442424063648,964,398,0,0,0,2,1,1,21,0002-00-0009-32.png,0001-00-0004-19.png
00000009,433,0,1442424064481,1442424065356,895,403,0,0,0,4,5,1,45,0004-00-0006-12.png,0005-00-0008-59.png
00000009,434,1,1442424068498,1442424068550,994,332,0,0,0,2,1,1,21,0002-00-0008-88.png,0001-00-0007-66.png
00000009,435,0,1442424069515,1442424069559,913,410,0,0,0,3,4,1,34,0003-00-0000-71.png,0004-00-0000-90.png
00000009,436,1,1442424072606,1442424073487,483,249,0,0,0,2,3,1,23,0002-00-0007-89.png,0003-00-0003-91.png
00000009,437,1,1442424074320,1442424074360,885,466,0,0,0,5,4,1,54,0005-00-0009-79.png,0004-00-0005-15.png
00000009,438,0,1442424075804,1442424075860,862,410,0,0,0,1,2,1,12,0001-00-0007-16.png,0002-00-0006-91.png
00000009,439,1,1442424078793,1442424079388,953,384,0,0,0,3,2,1,32,0003-00-0006-13.png,0002-00-0002-88.png
00000009,440,1,1442424080760,1442424080792,865,385,0,0,0,4,3,1,43,0004-00-0003-91.png,0003-00-0007-96.png
00000009,441,1,1442424081895,1442424081935,864,411,0,0,0,3,2,1,32,0003-00-0007-27.png,0002-00-0000-37.png
00000009,442,0,1442424083129,1442424083165,859,397,0,0,0,2,3,1,23,0002-00-0005-55.png,0003-00-0009-66.png
00000009,443,1,1442424086010,1442424086569,932,325,0,0,0,5,4,1,54,0005-00-0006-39.png,0004-00-0001-59.png
00000009,444,0,1442424087405,1442424087501,939,410,0,0,0,1,2,1,12,0001-00-0003-34.png,0002-00-0005-67.png
00000009,445,1,1442424090660,1442424091346,503,254,0,0,0,4,5,1,45,0004-00-0000-66.png,0005-00-0006-32.png
00000009,446,1,1442424092885,1442424092913,860,383,0,0,0,2,1,1,21,0002-00-0004-41.png,0001-00-0009-84.png
00000009,447,1,1442424094009,1442424094069,888,436,0,0,0,4,3,1,43,0004-00-0001-56.png,0003-00-0006-19.png
00000009,448,0,1442424095211,1442424095259,889,429,0,0,0,3,4,1,34,0003-00-0000-23.png,0004-00-0008-56.png
00000009,449,0,1442424098301,1442424099087,1089,274,0,0,0,4,5,1,45,0004-00-0008-84.png,0005-00-0006-96.png
00000009,450,0,1442424102670,1442424103228,464,290,0,0,0,4,3,1,43,0004-00-0009-19.png,0003-00-0009-73.png
00000009,451,0,1442424106271,1442424106299,893,376,0,0,0,3,4,1,34,0003-00-0006-78.png,0004-00-0007-20.png
00000009,452,1,1442424109524,1442424109584,884,252,0,0,0,5,4,1,54,0005-00-0006-01.png,0004-00-0007-48.png
00000009,453,1,1442424110549,1442424110584,867,343,0,0,0,2,1,1,21,0002-00-0008-63.png,0001-00-0003-55.png
00000009,454,1,1442424111651,1442424112469,471,246,0,0,0,1,2,1,12,0001-00-0000-73.png,0002-00-0001-17.png
00000009,455,1,1442424113331,1442424113377,872,367,0,0,0,3,2,1,32,0003-00-0006-28.png,0002-00-0002-91.png
00000009,456,0,1442424114511,1442424114539,872,383,0,0,0,2,3,1,23,0002-00-0001-14.png,0003-00-0007-21.png
00000009,457,0,1442424117620,1442424117628,888,384,0,0,0,4,5,1,45,0004-00-0001-51.png,0005-00-0002-03.png
00000009,458,1,1442424120740,1442424121353,1092,279,0,0,0,3,2,1,32,0003-00-0001-35.png,0002-00-0006-46.png
00000009,459,1,1442424122694,1442424122717,872,342,0,0,0,4,3,1,43,0004-00-0000-66.png,0003-00-0004-18.png
00000009,460,0,1442424123861,1442424124375,893,480,0,0,0,1,2,1,12,0001-00-0008-01.png,0002-00-0007-44.png
00000009,461,1,1442424127578,1442424128195,458,262,0,0,0,2,3,1,23,0002-00-0006-01.png,0003-00-0002-33.png
00000009,462,1,1442424129585,1442424130427,946,346,0,0,0,5,4,1,54,0005-00-0005-85.png,0004-00-0004-38.png
00000009,463,1,1442424131825,1442424131866,871,384,0,0,0,2,1,1,21,0002-00-0006-49.png,0001-00-0001-42.png
00000009,464,0,1442424132860,1442424133218,880,471,0,0,0,3,4,1,34,0003-00-0007-39.png,0004-00-0008-34.png
00000009,465,1,1442424136351,1442424137009,480,250,0,0,0,2,3,1,23,0002-00-0008-36.png,0003-00-0001-14.png
00000009,466,1,1442424138299,1442424138365,875,384,0,0,0,5,4,1,54,0005-00-0001-56.png,0004-00-0006-83.png
00000009,467,1,1442424139422,1442424140290,446,258,0,0,0,1,2,1,12,0001-00-0007-56.png,0002-00-0008-45.png
00000009,468,1,1442424141279,1442424141372,862,449,0,0,0,2,1,1,21,0002-00-0005-01.png,0001-00-0000-73.png
00000009,469,0,1442424142472,1442424142508,873,408,0,0,0,4,5,1,45,0004-00-0003-26.png,0005-00-0000-43.png
00000009,470,0,1442424145451,1442424146029,493,271,0,0,0,4,3,1,43,0004-00-0004-15.png,0003-00-0005-58.png
00000009,471,0,1442424149084,1442424149634,936,322,0,0,0,3,4,1,34,0003-00-0002-36.png,0004-00-0005-41.png
00000009,472,1,1442424152485,1442424153084,1090,288,0,0,0,3,2,1,32,0003-00-0004-40.png,0002-00-0005-26.png
00000009,473,0,1442424154375,1442424154443,886,361,0,0,0,1,2,1,12,0001-00-0004-04.png,0002-00-0001-53.png
00000009,474,1,1442424157388,1442424157938,383,395,0,0,0,4,5,1,45,0004-00-0009-65.png,0005-00-0009-65.png
00000009,475,1,1442424158811,1442424158871,871,439,0,0,0,3,2,1,32,0003-00-0008-68.png,0002-00-0003-89.png
00000009,476,1,1442424160060,1442424160132,861,412,0,0,0,4,3,1,43,0004-00-0004-11.png,0003-00-0005-33.png
00000009,477,1,1442424161314,1442424161356,867,439,0,0,0,2,1,1,21,0002-00-0004-43.png,0001-00-0003-25.png
00000009,478,0,1442424162617,1442424162728,871,479,0,0,0,2,3,1,23,0002-00-0003-36.png,0003-00-0004-33.png
00000009,479,1,1442424165668,1442424166306,961,328,0,0,0,5,4,1,54,0005-00-0002-02.png,0004-00-0002-88.png
00000009,480,0,1442424167606,1442424167662,884,371,0,0,0,3,4,1,34,0003-00-0007-21.png,0004-00-0002-34.png
00000009,481,1,1442424170822,1442424171508,990,317,0,0,0,3,2,1,32,0003-00-0002-53.png,0002-00-0009-25.png
00000009,482,0,1442424172853,1442424172901,905,356,0,0,0,4,5,1,45,0004-00-0001-44.png,0005-00-0009-51.png
00000009,483,1,1442424176013,1442424176727,1099,312,0,0,0,2,1,1,21,0002-00-0008-68.png,0001-00-0008-21.png
00000009,484,0,1442424178170,1442424178206,888,347,0,0,0,2,3,1,23,0002-00-0004-29.png,0003-00-0005-99.png
00000009,485,0,1442424181359,1442424182134,1113,305,0,0,0,1,2,1,12,0001-00-0006-49.png,0002-00-0005-40.png
00000009,486,1,1442424184990,1442424185026,891,387,0,0,0,4,3,1,43,0004-00-0003-84.png,0003-00-0002-41.png
00000009,487,0,1442424186007,1442424186039,915,394,0,0,0,3,4,1,34,0003-00-0008-95.png,0004-00-0008-16.png
00000009,488,1,1442424189207,1442424189247,939,336,0,0,0,5,4,1,54,0005-00-0003-02.png,0004-00-0001-34.png
00000009,489,1,1442424190252,1442424190288,888,427,0,0,0,3,2,1,32,0003-00-0004-65.png,0002-00-0002-73.png
00000009,490,0,1442424191296,1442424191352,870,455,0,0,0,2,3,1,23,0002-00-0004-32.png,0003-00-0005-22.png
00000009,491,1,1442424194376,1442424195139,365,372,0,0,0,4,5,1,45,0004-00-0001-12.png,0005-00-0001-92.png
00000009,492,1,1442424196025,1442424196061,865,396,0,0,0,2,1,1,21,0002-00-0001-00.png,0001-00-0009-82.png
00000009,493,1,1442424197388,1442424197847,874,488,0,0,0,5,4,1,54,0005-00-0007-97.png,0004-00-0002-17.png
00000009,494,1,1442424198838,1442424198886,881,418,0,0,0,4,3,1,43,0004-00-0004-53.png,0003-00-0009-79.png
00000009,495,0,1442424200058,1442424200089,885,415,0,0,0,3,4,1,34,0003-00-0004-43.png,0004-00-0005-29.png
00000009,496,0,1442424203287,1442424203311,897,321,0,0,0,1,2,1,12,0001-00-0009-56.png,0002-00-0006-81.png
00000009,497,1,1442424206159,1442424206802,485,265,0,0,0,2,3,1,23,0002-00-0007-07.png,0003-00-0004-46.png
00000009,498,1,1442424208165,1442424208205,871,384,0,0,0,2,1,1,21,0002-00-0000-41.png,0001-00-0002-54.png
00000009,499,1,1442424209311,1442424209357,859,412,0,0,0,4,3,1,43,0004-00-0005-32.png,0003-00-0008-29.png
00000009,500,0,1442424210601,1442424210625,865,395,0,0,0,4,5,1,45,0004-00-0005-59.png,0005-00-0000-96.png
00000009,501,1,1442424213684,1442424213692,898,422,0,0,0,3,2,1,32,0003-00-0006-91.png,0002-00-0003-11.png
00000009,502,0,1442424214644,1442424214696,916,418,0,0,0,3,4,1,34,0003-00-0005-77.png,0004-00-0007-00.png
00000009,503,1,1442424217759,1442424218461,405,346,0,0,0,1,2,1,12,0001-00-0002-55.png,0002-00-0000-69.png
00000009,504,1,1442424219355,1442424219431,882,421,0,0,0,5,4,1,54,0005-00-0005-73.png,0004-00-0007-83.png
00000009,505,0,1442424220420,1442424221172,895,507,0,0,0,2,3,1,23,0002-00-0009-45.png,0003-00-0002-12.png
00000009,506,1,1442424224318,1442424224858,490,259,0,0,0,1,2,1,12,0001-00-0007-13.png,0002-00-0009-75.png
00000009,507,0,1442424226263,1442424226303,869,371,0,0,0,4,5,1,45,0004-00-0005-85.png,0005-00-0003-24.png
00000009,508,0,1442424229352,1442424230157,970,318,0,0,0,3,4,1,34,0003-00-0001-16.png,0004-00-0006-11.png
00000009,509,1,1442424233289,1442424233321,937,345,0,0,0,2,1,1,21,0002-00-0005-60.png,0001-00-0002-41.png
00000009,510,1,1442424234262,1442424234290,887,398,0,0,0,5,4,1,54,0005-00-0004-02.png,0004-00-0004-79.png
00000009,511,1,1442424235345,1442424235385,863,407,0,0,0,4,3,1,43,0004-00-0008-58.png,0003-00-0004-12.png
00000009,512,1,1442424236498,1442424236894,939,541,0,0,0,3,2,1,32,0003-00-0009-57.png,0002-00-0001-02.png
00000009,513,0,1442424237989,1442424238017,899,388,0,0,0,1,2,1,12,0001-00-0009-83.png,0002-00-0006-02.png
00000009,514,0,1442424240939,1442424241624,917,340,0,0,0,3,4,1,34,0003-00-0001-10.png,0004-00-0002-18.png
00000009,515,0,1442424244748,1442424245364,964,393,0,0,0,2,3,1,23,0002-00-0000-73.png,0003-00-0000-24.png
00000009,516,0,1442424248531,1442424249186,508,259,0,0,0,5,4,1,54,0005-00-0009-78.png,0004-00-0004-69.png
00000009,517,1,1442424252252,1442424253020,505,265,0,0,0,4,5,1,45,0004-00-0009-98.png,0005-00-0002-15.png
00000009,518,1,1442424253908,1442424253940,862,445,0,0,0,3,2,1,32,0003-00-0003-42.png,0002-00-0002-95.png
00000009,519,1,1442424254872,1442424254912,867,400,0,0,0,2,1,1,21,0002-00-0001-40.png,0001-00-0001-20.png
00000009,520,1,1442424256162,1442424256206,860,396,0,0,0,4,3,1,43,0004-00-0009-61.png,0003-00-0003-69.png
00000009,521,1,1442424257496,1442424257544,881,396,0,0,0,3,2,1,32,0003-00-0009-98.png,0002-00-0003-18.png
00000009,522,1,1442424258837,1442424258877,884,389,0,0,0,5,4,1,54,0005-00-0007-05.png,0004-00-0001-47.png
00000009,523,0,1442424260207,1442424260267,882,393,0,0,0,2,3,1,23,0002-00-0000-67.png,0003-00-0009-81.png
00000009,524,0,1442424263399,1442424263672,1005,359,0,0,0,3,4,1,34,0003-00-0007-23.png,0004-00-0005-90.png
00000009,525,1,1442424266856,1442424268111,423,234,0,0,0,4,5,1,45,0004-00-0006-29.png,0005-00-0008-14.png
00000009,526,0,1442424268982,1442424269022,862,436,0,0,0,1,2,1,12,0001-00-0005-62.png,0002-00-0005-24.png
00000009,527,1,1442424272126,1442424272154,946,409,0,0,0,2,1,1,21,0002-00-0006-33.png,0001-00-0006-22.png
00000009,528,1,1442424273088,1442424273180,913,436,0,0,0,4,3,1,43,0004-00-0004-29.png,0003-00-0009-58.png
00000009,529,0,1442424274030,1442424274316,879,486,0,0,0,4,5,1,45,0004-00-0001-49.png,0005-00-0008-61.png
00000009,530,1,1442424277341,1442424277914,520,254,0,0,0,2,3,1,23,0002-00-0001-57.png,0003-00-0005-01.png
00000009,531,1,1442424278759,1442424278839,888,436,0,0,0,5,4,1,54,0005-00-0000-60.png,0004-00-0004-66.png
00000009,532,1,1442424279758,1442424280091,880,470,0,0,0,3,2,1,32,0003-00-0007-82.png,0002-00-0004-54.png
00000009,533,0,1442424281095,1442424281155,873,405,0,0,0,3,4,1,34,0003-00-0001-47.png,0004-00-0008-59.png
00000009,534,0,1442424284179,1442424284183,918,370,0,0,0,1,2,1,12,0001-00-0001-57.png,0002-00-0001-96.png
00000009,535,1,1442424287673,1442424287693,890,357,0,0,0,2,1,1,21,0002-00-0004-24.png,0001-00-0009-04.png
00000009,536,0,1442424288618,1442424289357,485,248,0,0,0,4,3,1,43,0004-00-0000-87.png,0003-00-0004-81.png
00000009,537,0,1442424292367,1442424292434,919,388,0,0,0,1,2,1,12,0001-00-0006-04.png,0002-00-0000-51.png
00000009,538,1,1442424295616,1442424295644,943,378,0,0,0,4,3,1,43,0004-00-0009-31.png,0003-00-0006-12.png
00000009,539,1,1442424296507,1442424296539,891,412,0,0,0,3,2,1,32,0003-00-0007-11.png,0002-00-0004-35.png
00000009,540,0,1442424297363,1442424298420,1200,374,0,0,0,2,3,1,23,0002-00-0007-57.png,0003-00-0008-82.png
00000009,541,0,1442424301577,1442424302149,1118,306,0,0,0,3,4,1,34,0003-00-0008-15.png,0004-00-0000-59.png
00000009,542,1,1442424305283,1442424305335,955,342,0,0,0,2,1,1,21,0002-00-0009-34.png,0001-00-0006-56.png
00000009,543,1,1442424306196,1442424306220,864,432,0,0,0,5,4,1,54,0005-00-0000-84.png,0004-00-0000-62.png
00000009,544,0,1442424307581,1442424308146,894,479,0,0,0,4,5,1,45,0004-00-0004-68.png,0005-00-0004-38.png
00000009,545,0,1442424311037,1442424311097,875,442,0,0,0,4,5,1,45,0004-00-0008-18.png,0005-00-0003-00.png
00000009,546,1,1442424314208,1442424314236,868,291,0,0,0,5,4,1,54,0005-00-0006-23.png,0004-00-0001-73.png
00000009,547,0,1442424315153,1442424315209,901,436,0,0,0,3,4,1,34,0003-00-0009-17.png,0004-00-0000-87.png
00000009,548,1,1442424318491,1442424318765,935,352,0,0,0,3,2,1,32,0003-00-0008-41.png,0002-00-0001-51.png
00000009,549,1,1442424319622,1442424320983,395,392,0,0,0,2,3,1,23,0002-00-0003-72.png,0003-00-0001-19.png
00000009,550,1,1442424321899,1442424321959,888,410,0,0,0,2,1,1,21,0002-00-0002-74.png,0001-00-0008-07.png
00000009,551,1,1442424323042,1442424323070,888,410,0,0,0,4,3,1,43,0004-00-0008-69.png,0003-00-0003-65.png
00000009,552,0,1442424324232,1442424324264,890,410,0,0,0,1,2,1,12,0001-00-0009-28.png,0002-00-0000-11.png
00000009,553,0,1442424327105,1442424327185,901,455,0,0,0,1,2,1,12,0001-00-0004-08.png,0002-00-0000-85.png
00000009,554,1,1442424330048,1442424330615,468,253,0,0,0,2,3,1,23,0002-00-0002-94.png,0003-00-0003-54.png
00000009,555,1,1442424332004,1442424332040,865,367,0,0,0,4,3,1,43,0004-00-0000-89.png,0003-00-0004-49.png
00000009,556,1,1442424333018,1442424333442,906,486,0,0,0,2,1,1,21,0002-00-0004-64.png,0001-00-0001-90.png
00000009,557,0,1442424334408,1442424334440,870,417,0,0,0,3,4,1,34,0003-00-0005-45.png,0004-00-0005-80.png
00000009,558,1,1442424337253,1442424337911,1072,279,0,0,0,3,2,1,32,0003-00-0009-41.png,0002-00-0004-91.png
00000009,559,0,1442424339320,1442424339328,867,369,0,0,0,4,5,1,45,0004-00-0008-15.png,0005-00-0000-06.png
00000009,560,1,1442424342488,1442424342508,919,353,0,0,0,5,4,1,54,0005-00-0007-36.png,0004-00-0000-16.png
00000009,561,1,1442424343394,1442424343434,893,489,0,0,0,4,3,1,43,0004-00-0006-56.png,0003-00-0001-91.png
00000009,562,1,1442424344726,1442424344766,859,435,0,0,0,3,2,1,32,0003-00-0009-70.png,0002-00-0004-78.png
00000009,563,1,1442424345809,1442424345861,858,445,0,0,0,5,4,1,54,0005-00-0002-94.png,0004-00-0006-42.png
00000009,564,0,1442424347029,1442424347069,875,422,0,0,0,1,2,1,12,0001-00-0000-57.png,0002-00-0001-51.png
00000009,565,0,1442424350250,1442424350835,1094,300,0,0,0,3,4,1,34,0003-00-0007-24.png,0004-00-0004-63.png
00000009,566,1,1442424353988,1442424354499,506,259,0,0,0,2,3,1,23,0002-00-0008-64.png,0003-00-0002-12.png
00000009,567,0,1442424355347,1442424355379,891,436,0,0,0,4,5,1,45,0004-00-0002-19.png,0005-00-0001-99.png
00000009,568,1,1442424358228,1442424358767,950,327,0,0,0,2,1,1,21,0002-00-0008-97.png,0001-00-0006-40.png
00000009,569,0,1442424360130,1442424360166,891,368,0,0,0,1,2,1,12,0001-00-0009-67.png,0002-00-0006-07.png
00000009,570,1,1442424363038,1442424363662,964,342,0,0,0,2,1,1,21,0002-00-0008-43.png,0001-00-0001-54.png
00000009,571,0,1442424364937,1442424365048,888,374,0,0,0,3,4,1,34,0003-00-0000-47.png,0004-00-0002-53.png
00000009,572,0,1442424368199,1442424368223,942,354,0,0,0,2,3,1,23,0002-00-0006-35.png,0003-00-0002-97.png
00000009,573,1,1442424371357,1442424372009,964,346,0,0,0,5,4,1,54,0005-00-0001-88.png,0004-00-0000-12.png
00000009,574,0,1442424372866,1442424372898,888,445,0,0,0,4,5,1,45,0004-00-0007-09.png,0005-00-0007-66.png
00000009,575,0,1442424375868,1442424376482,519,253,0,0,0,4,3,1,43,0004-00-0006-29.png,0003-00-0004-46.png
00000009,576,1,1442424379420,1442424379484,900,485,0,0,0,3,2,1,32,0003-00-0000-10.png,0002-00-0002-68.png
00000009,577,0,1442424380868,1442424380998,907,401,0,0,0,1,2,1,12,0001-00-0003-08.png,0002-00-0008-97.png
00000009,578,0,1442424384159,1442424384195,945,347,0,0,0,3,4,1,34,0003-00-0007-87.png,0004-00-0001-46.png
00000009,579,1,1442424387397,1442424387437,973,360,0,0,0,4,3,1,43,0004-00-0001-99.png,0003-00-0009-63.png
00000009,580,0,1442424388340,1442424388436,913,447,0,0,0,4,5,1,45,0004-00-0002-09.png,0005-00-0001-22.png
00000009,581,1,1442424391304,1442424391874,1111,285,0,0,0,5,4,1,54,0005-00-0001-74.png,0004-00-0001-81.png
00000009,582,0,1442424393331,1442424393367,888,374,0,0,0,2,3,1,23,0002-00-0002-55.png,0003-00-0005-13.png
00000009,583,1,1442424396200,1442424396797,1092,306,0,0,0,2,1,1,21,0002-00-0009-84.png,0001-00-0006-36.png
00000009,584,1,1442424397635,1442424397663,897,429,0,0,0,3,2,1,32,0003-00-0005-66.png,0002-00-0005-91.png
00000009,585,1,1442424398935,1442424399882,469,269,0,0,0,1,2,1,12,0001-00-0007-43.png,0002-00-0003-21.png
00000009,586,1,1442424400962,1442424401081,888,447,0,0,0,4,3,1,43,0004-00-0006-60.png,0003-00-0004-03.png
00000009,587,1,1442424402125,1442424402185,862,410,0,0,0,5,4,1,54,0005-00-0009-73.png,0004-00-0005-66.png
00000009,588,0,1442424403415,1442424403467,864,388,0,0,0,4,5,1,45,0004-00-0005-99.png,0005-00-0007-22.png
00000009,589,0,1442424406645,1442424407268,944,348,0,0,0,3,4,1,34,0003-00-0000-80.png,0004-00-0004-22.png
00000009,590,1,1442424410810,1442424411561,939,346,0,0,0,3,2,1,32,0003-00-0004-45.png,0002-00-0002-90.png
00000009,591,0,1442424412406,1442424412486,913,420,0,0,0,2,3,1,23,0002-00-0003-72.png,0003-00-0008-34.png
00000009,592,1,1442424415648,1442424415676,964,356,0,0,0,2,1,1,21,0002-00-0008-12.png,0001-00-0003-22.png
00000009,593,1,1442424416723,1442424416747,896,420,0,0,0,4,3,1,43,0004-00-0001-36.png,0003-00-0002-75.png
00000009,594,1,1442424417694,1442424417868,880,486,0,0,0,5,4,1,54,0005-00-0006-69.png,0004-00-0001-57.png
00000009,595,1,1442424419046,1442424419086,871,394,0,0,0,2,1,1,21,0002-00-0003-22.png,0001-00-0006-76.png
00000009,596,0,1442424420198,1442424420238,893,423,0,0,0,3,4,1,34,0003-00-0000-96.png,0004-00-0006-07.png
00000009,597,1,1442424423398,1442424423984,427,398,0,0,0,1,2,1,12,0001-00-0002-53.png,0002-00-0000-79.png
00000009,598,0,1442424425393,1442424425443,859,359,0,0,0,2,3,1,23,0002-00-0000-63.png,0003-00-0001-80.png
00000009,599,1,1442424428478,1442424429076,941,349,0,0,0,3,2,1,32,0003-00-0005-24.png,0002-00-0007-17.png
00000009,600,0,1442424429955,1442424430047,934,469,0,0,0,4,5,1,45,0004-00-0008-82.png,0005-00-0003-20.png
00000009,601,0,1442424433108,1442424433664,961,331,0,0,0,4,5,1,45,0004-00-0001-24.png,0005-00-0006-60.png
00000009,602,0,1442424436504,1442424437124,403,357,0,0,0,2,1,1,21,0002-00-0000-24.png,0001-00-0002-36.png
00000009,603,1,1442424440176,1442424440768,965,324,0,0,0,5,4,1,54,0005-00-0000-16.png,0004-00-0007-73.png
00000009,604,0,1442424441685,1442424441713,938,412,0,0,0,1,2,1,12,0001-00-0004-42.png,0002-00-0005-13.png
00000009,605,1,1442424444914,1442424445526,990,348,0,0,0,3,2,1,32,0003-00-0005-67.png,0002-00-0004-54.png
00000009,606,0,1442424447021,1442424447081,877,384,0,0,0,3,4,1,34,0003-00-0007-88.png,0004-00-0001-53.png
00000009,607,1,1442424449933,1442424450817,360,358,0,0,0,2,3,1,23,0002-00-0002-31.png,0003-00-0002-12.png
00000009,608,1,1442424451671,1442424451723,890,465,0,0,0,4,3,1,43,0004-00-0007-72.png,0003-00-0005-91.png
00000009,609,0,1442424452676,1442424452716,862,436,0,0,0,4,5,1,45,0004-00-0003-83.png,0005-00-0007-29.png
00000009,610,1,1442424455926,1442424456761,964,374,0,0,0,4,3,1,43,0004-00-0005-99.png,0003-00-0000-16.png
00000009,611,0,1442424457613,1442424457724,957,463,0,0,0,2,3,1,23,0002-00-0006-03.png,0003-00-0004-03.png
00000009,612,1,1442424460833,1442424461406,944,344,0,0,0,3,2,1,32,0003-00-0002-26.png,0002-00-0009-50.png
00000009,613,0,1442424462334,1442424462438,913,488,0,0,0,3,4,1,34,0003-00-0004-62.png,0004-00-0008-86.png
00000009,614,0,1442424465325,1442424465999,964,410,0,0,0,1,2,1,12,0001-00-0001-75.png,0002-00-0006-15.png
00000009,615,1,1442424469149,1442424469916,979,410,0,0,0,5,4,1,54,0005-00-0000-12.png,0004-00-0006-16.png
00000009,616,1,1442424470751,1442424470835,904,410,0,0,0,2,1,1,21,0002-00-0003-48.png,0001-00-0000-86.png
00000009,617,1,1442424471735,1442424471806,888,436,0,0,0,2,1,1,21,0002-00-0009-98.png,0001-00-0009-45.png
00000009,618,1,1442424472977,1442424473331,880,497,0,0,0,5,4,1,54,0005-00-0008-86.png,0004-00-0002-01.png
00000009,619,0,1442424474576,1442424474618,896,413,0,0,0,3,4,1,34,0003-00-0007-87.png,0004-00-0001-68.png
00000009,620,0,1442424477687,1442424478328,949,338,0,0,0,2,3,1,23,0002-00-0008-35.png,0003-00-0009-36.png
00000009,621,0,1442424481513,1442424482099,941,324,0,0,0,4,5,1,45,0004-00-0008-48.png,0005-00-0004-71.png
00000009,622,0,1442424485209,1442424485844,505,263,0,0,0,4,3,1,43,0004-00-0006-96.png,0003-00-0003-84.png
00000009,623,1,1442424489006,1442424489046,962,357,0,0,0,3,2,1,32,0003-00-0007-11.png,0002-00-0001-99.png
00000009,624,0,1442424489989,1442424490061,935,446,0,0,0,1,2,1,12,0001-00-0002-13.png,0002-00-0007-46.png
00000009,625,0,1442424493241,1442424493281,938,331,0,0,0,1,2,1,12,0001-00-0009-27.png,0002-00-0006-60.png
00000009,626,0,1442424496490,1442424496522,947,354,0,0,0,2,3,1,23,0002-00-0005-96.png,0003-00-0005-83.png
00000009,627,1,1442424499701,1442424499709,899,347,0,0,0,5,4,1,54,0005-00-0001-13.png,0004-00-0001-75.png
00000009,628,0,1442424500660,1442424501594,1044,248,0,0,0,4,5,1,45,0004-00-0009-39.png,0005-00-0009-17.png
00000009,629,1,1442424504756,1442424505413,1082,313,0,0,0,2,1,1,21,0002-00-0004-16.png,0001-00-0002-80.png
00000009,630,1,1442424506813,1442424506845,892,390,0,0,0,4,3,1,43,0004-00-0007-63.png,0003-00-0002-52.png
00000009,631,1,1442424508024,1442424508096,892,420,0,0,0,3,2,1,32,0003-00-0007-64.png,0002-00-0002-65.png
00000009,632,0,1442424509239,1442424509319,881,420,0,0,0,3,4,1,34,0003-00-0001-75.png,0004-00-0001-31.png
00000009,633,1,1442424512302,1442424513013,939,327,0,0,0,3,2,1,32,0003-00-0007-90.png,0002-00-0007-50.png
00000009,634,1,1442424513826,1442424514732,510,240,0,0,0,2,3,1,23,0002-00-0008-33.png,0003-00-0005-65.png
00000009,635,1,1442424515944,1442424516008,874,436,0,0,0,2,1,1,21,0002-00-0009-32.png,0001-00-0007-33.png
00000009,636,0,1442424516909,1442424516961,876,445,0,0,0,4,5,1,45,0004-00-0002-21.png,0005-00-0003-92.png
00000009,637,1,1442424519831,1442424519887,933,455,0,0,0,4,3,1,43,0004-00-0001-68.png,0003-00-0007-79.png
00000009,638,0,1442424521182,1442424521254,888,315,0,0,0,1,2,1,12,0001-00-0000-16.png,0002-00-0002-41.png
00000009,639,0,1442424524275,1442424524810,1118,297,0,0,0,3,4,1,34,0003-00-0009-63.png,0004-00-0001-46.png
00000009,640,1,1442424527754,1442424528397,1123,306,0,0,0,5,4,1,54,0005-00-0004-32.png,0004-00-0000-54.png
00000009,641,1,1442424529230,1442424529318,938,410,0,0,0,2,1,1,21,0002-00-0000-81.png,0001-00-0009-96.png
00000009,642,0,1442424530911,1442424530991,879,436,0,0,0,2,3,1,23,0002-00-0002-66.png,0003-00-0001-71.png
00000009,643,1,1442424533936,1442424534539,953,334,0,0,0,5,4,1,54,0005-00-0003-34.png,0004-00-0001-96.png
00000009,644,0,1442424535413,1442424535469,913,436,0,0,0,1,2,1,12,0001-00-0000-52.png,0002-00-0006-60.png
00000009,645,1,1442424538383,1442424539027,976,306,0,0,0,3,2,1,32,0003-00-0009-07.png,0002-00-0007-49.png
00000009,646,0,1442424540430,1442424540482,879,403,0,0,0,4,5,1,45,0004-00-0004-78.png,0005-00-0006-94.png
00000009,647,0,1442424543581,1442424544221,978,417,0,0,0,3,4,1,34,0003-00-0000-54.png,0004-00-0003-93.png
00000009,648,1,1442424547361,1442424547939,960,353,0,0,0,4,3,1,43,0004-00-0007-19.png,0003-00-0003-18.png
00000009,649,0,1442424548769,1442424548887,964,447,0,0,0,1,2,1,12,0001-00-0008-60.png,0002-00-0008-01.png
00000009,650,0,1442424551808,1442424552416,939,320,0,0,0,4,5,1,45,0004-00-0005-98.png,0005-00-0004-50.png
00000009,651,0,1442424555308,1442424555906,484,283,0,0,0,4,3,1,43,0004-00-0009-81.png,0003-00-0006-62.png
00000009,652,1,1442424559113,1442424559125,934,345,0,0,0,3,2,1,32,0003-00-0002-76.png,0002-00-0005-03.png
00000009,653,1,1442424560088,1442424560120,885,434,0,0,0,2,1,1,21,0002-00-0003-87.png,0001-00-0002-10.png
00000009,654,0,1442424561173,1442424561201,858,421,0,0,0,2,3,1,23,0002-00-0006-70.png,0003-00-0009-67.png
00000009,655,1,1442424564343,1442424564383,950,339,0,0,0,5,4,1,54,0005-00-0003-50.png,0004-00-0005-05.png
00000009,656,0,1442424565373,1442424565409,914,405,0,0,0,3,4,1,34,0003-00-0003-47.png,0004-00-0005-10.png
00000009,657,1,1442424568421,1442424569113,939,381,0,0,0,2,1,1,21,0002-00-0000-95.png,0001-00-0001-05.png
00000009,658,0,1442424569940,1442424571115,939,343,0,0,0,4,5,1,45,0004-00-0004-46.png,0005-00-0004-84.png
00000009,659,0,1442424574118,1442424574158,888,393,0,0,0,1,2,1,12,0001-00-0004-79.png,0002-00-0004-11.png
00000009,660,1,1442424577041,1442424577544,936,359,0,0,0,3,2,1,32,0003-00-0004-01.png,0002-00-0007-46.png
00000009,661,1,1442424578919,1442424578975,888,375,0,0,0,4,3,1,43,0004-00-0002-91.png,0003-00-0008-18.png
00000009,662,0,1442424580114,1442424580178,928,410,0,0,0,2,3,1,23,0002-00-0004-79.png,0003-00-0007-82.png
00000009,663,0,1442424583351,1442424583867,1119,308,0,0,0,3,4,1,34,0003-00-0003-42.png,0004-00-0006-56.png
00000009,664,1,1442424586930,1442424587511,1071,304,0,0,0,5,4,1,54,0005-00-0005-03.png,0004-00-0009-05.png
00000009,665,0,1442424588409,1442424588441,916,414,0,0,0,2,3,1,23,0002-00-0005-79.png,0003-00-0002-62.png
00000009,666,1,1442424591483,1442424592202,963,337,0,0,0,2,1,1,21,0002-00-0003-05.png,0001-00-0009-49.png
00000009,667,1,1442424593586,1442424593606,885,393,0,0,0,3,2,1,32,0003-00-0009-77.png,0002-00-0009-10.png
00000009,668,0,1442424594732,1442424594762,864,421,0,0,0,3,4,1,34,0003-00-0000-20.png,0004-00-0006-80.png
00000009,669,1,1442424597820,1442424598424,470,269,0,0,0,4,5,1,45,0004-00-0004-56.png,0005-00-0000-51.png
00000009,670,1,1442424599313,1442424599361,903,470,0,0,0,4,3,1,43,0004-00-0006-07.png,0003-00-0007-49.png
00000009,671,1,1442424600335,1442424600395,878,410,0,0,0,5,4,1,54,0005-00-0003-54.png,0004-00-0008-98.png
00000009,672,0,1442424601972,1442424602033,907,420,0,0,0,1,2,1,12,0001-00-0007-16.png,0002-00-0005-89.png
00000009,673,1,1442424605253,1442424605878,478,422,0,0,0,2,3,1,23,0002-00-0009-62.png,0003-00-0005-71.png
00000009,674,0,1442424606832,1442424606920,955,384,0,0,0,4,5,1,45,0004-00-0006-47.png,0005-00-0000-53.png
00000009,675,1,1442424610101,1442424610397,950,357,0,0,0,5,4,1,54,0005-00-0004-76.png,0004-00-0007-29.png
00000009,676,1,1442424611372,1442424611444,973,436,0,0,0,2,1,1,21,0002-00-0005-09.png,0001-00-0001-93.png
00000009,677,1,1442424612380,1442424612440,881,419,0,0,0,4,3,1,43,0004-00-0002-62.png,0003-00-0006-71.png
00000009,678,1,1442424613629,1442424614893,265,286,0,0,0,3,4,1,34,0003-00-0008-97.png,0004-00-0009-04.png
00000009,679,1,1442424615944,1442424615984,893,408,0,0,0,3,2,1,32,0003-00-0008-74.png,0002-00-0003-92.png
00000009,680,0,1442424617156,1442424617180,887,442,0,0,0,1,2,1,12,0001-00-0009-08.png,0002-00-0006-86.png
00000009,681,1,1442424620385,1442424621166,507,259,0,0,0,1,2,1,12,0001-00-0000-98.png,0002-00-0007-99.png
00000009,682,1,1442424622532,1442424622556,888,358,0,0,0,3,2,1,32,0003-00-0000-74.png,0002-00-0007-63.png
00000009,683,1,1442424623647,1442424623687,870,436,0,0,0,5,4,1,54,0005-00-0000-26.png,0004-00-0003-18.png
00000009,684,0,1442424624768,1442424624808,896,413,0,0,0,3,4,1,34,0003-00-0004-65.png,0004-00-0008-24.png
00000009,685,1,1442424627790,1442424627814,869,430,0,0,0,2,1,1,21,0002-00-0007-96.png,0001-00-0006-83.png
00000009,686,1,1442424628714,1442424628746,889,421,0,0,0,4,3,1,43,0004-00-0009-50.png,0003-00-0002-45.png
00000009,687,0,1442424629608,1442424630258,924,552,0,0,0,2,3,1,23,0002-00-0001-83.png,0003-00-0004-47.png
00000009,688,0,1442424633137,1442424633161,905,429,0,0,0,4,5,1,45,0004-00-0001-62.png,0005-00-0003-73.png
00000009,689,0,1442424636046,1442424636683,514,242,0,0,0,5,4,1,54,0005-00-0009-21.png,0004-00-0001-32.png
00000009,690,1,1442424639815,1442424639839,893,368,0,0,0,2,1,1,21,0002-00-0002-80.png,0001-00-0008-89.png
00000009,691,0,1442424640778,1442424640847,901,410,0,0,0,3,4,1,34,0003-00-0001-90.png,0004-00-0001-23.png
00000009,692,1,1442424643887,1442424644541,389,382,0,0,0,4,5,1,45,0004-00-0005-47.png,0005-00-0007-57.png
00000009,693,0,1442424645932,1442424646725,488,262,0,0,0,4,3,1,43,0004-00-0006-63.png,0003-00-0006-34.png
00000009,694,0,1442424649890,1442424649918,903,328,0,0,0,1,2,1,12,0001-00-0006-79.png,0002-00-0007-76.png
00000009,695,1,1442424652761,1442424653325,940,329,0,0,0,3,2,1,32,0003-00-0003-86.png,0002-00-0005-59.png
00000009,696,0,1442424654182,1442424654214,913,436,0,0,0,2,3,1,23,0002-00-0006-50.png,0003-00-0008-61.png
00000009,697,1,1442424657421,1442424657468,978,333,0,0,0,3,2,1,32,0003-00-0002-29.png,0002-00-0009-72.png
00000009,698,1,1442424658386,1442424658418,890,435,0,0,0,4,3,1,43,0004-00-0004-68.png,0003-00-0000-39.png
00000009,699,0,1442424659451,1442424659487,891,458,0,0,0,4,5,1,45,0004-00-0001-24.png,0005-00-0008-32.png
00000009,700,0,1442424662868,1442424662888,916,352,0,0,0,3,4,1,34,0003-00-0009-32.png,0004-00-0005-05.png
00000009,701,1,1442424665986,1442424666536,1096,302,0,0,0,5,4,1,54,0005-00-0001-04.png,0004-00-0007-17.png
00000009,702,1,1442424667946,1442424667974,887,366,0,0,0,2,1,1,21,0002-00-0006-86.png,0001-00-0000-65.png
00000009,703,0,1442424669089,1442424669117,895,446,0,0,0,2,3,1,23,0002-00-0008-59.png,0003-00-0003-47.png
00000009,704,1,1442424671990,1442424672536,516,233,0,0,0,1,2,1,12,0001-00-0005-27.png,0002-00-0008-68.png
00000009,705,1,1442424673419,1442424673451,911,492,0,0,0,5,4,1,54,0005-00-0003-13.png,0004-00-0002-80.png
00000009,706,1,1442424674615,1442424674643,896,436,0,0,0,2,1,1,21,0002-00-0009-52.png,0001-00-0003-97.png
00000009,707,0,1442424675914,1442424675973,871,402,0,0,0,2,3,1,23,0002-00-0003-32.png,0003-00-0009-79.png
00000009,708,1,1442424678940,1442424679603,368,341,0,0,0,4,5,1,45,0004-00-0003-44.png,0005-00-0008-46.png
00000009,709,0,1442424681015,1442424681797,954,494,0,0,0,3,4,1,34,0003-00-0000-25.png,0004-00-0002-94.png
00000009,710,1,1442424685016,1442424685584,486,258,0,0,0,1,2,1,12,0001-00-0003-49.png,0002-00-0007-53.png
00000009,711,1,1442424686429,1442424686461,888,473,0,0,0,3,2,1,32,0003-00-0009-04.png,0002-00-0009-84.png
00000009,712,1,1442424688020,1442424688080,862,448,0,0,0,4,3,1,43,0004-00-0007-65.png,0003-00-0008-33.png
00000009,713,1,1442424689190,1442424689242,862,410,0,0,0,2,1,1,21,0002-00-0009-28.png,0001-00-0008-32.png
00000009,714,1,1442424690421,1442424690465,862,450,0,0,0,3,2,1,32,0003-00-0007-73.png,0002-00-0008-73.png
00000009,715,0,1442424691713,1442424691785,879,462,0,0,0,3,4,1,34,0003-00-0004-71.png,0004-00-0004-85.png
00000009,716,1,1442424694905,1442424695555,373,338,0,0,0,1,2,1,12,0001-00-0000-95.png,0002-00-0006-75.png
00000009,717,0,1442424696891,1442424696911,888,358,0,0,0,4,5,1,45,0004-00-0003-67.png,0005-00-0005-69.png
00000009,718,1,1442424699923,1442424700495,495,279,0,0,0,2,3,1,23,0002-00-0002-62.png,0003-00-0007-52.png
00000009,719,1,1442424701898,1442424701970,897,410,0,0,0,4,3,1,43,0004-00-0001-67.png,0003-00-0002-86.png
00000009,720,1,1442424703119,1442424703171,881,468,0,0,0,5,4,1,54,0005-00-0001-02.png,0004-00-0008-27.png
00000009,721,0,1442424704463,1442424704495,932,440,0,0,0,2,3,1,23,0002-00-0009-33.png,0003-00-0002-21.png
00000009,722,0,1442424707386,1442424707938,967,341,0,0,0,3,4,1,34,0003-00-0007-69.png,0004-00-0006-43.png
00000009,723,0,1442424711062,1442424711686,399,383,0,0,0,4,3,1,43,0004-00-0004-78.png,0003-00-0002-10.png
00000009,724,1,1442424714829,1442424715406,955,358,0,0,0,3,2,1,32,0003-00-0001-71.png,0002-00-0003-00.png
00000009,725,1,1442424716330,1442424716386,913,462,0,0,0,5,4,1,54,0005-00-0005-12.png,0004-00-0008-34.png
00000009,726,0,1442424717391,1442424717443,903,436,0,0,0,1,2,1,12,0001-00-0003-34.png,0002-00-0002-39.png
00000009,727,1,1442424720613,1442424720657,969,333,0,0,0,2,1,1,21,0002-00-0009-40.png,0001-00-0002-73.png
00000009,728,0,1442424721609,1442424721645,923,410,0,0,0,4,5,1,45,0004-00-0006-94.png,0005-00-0001-99.png
00000009,729,0,1442424724815,1442424725419,926,335,0,0,0,3,4,1,34,0003-00-0002-21.png,0004-00-0001-06.png
00000009,730,1,1442424728621,1442424728653,914,335,0,0,0,4,3,1,43,0004-00-0003-42.png,0003-00-0001-62.png
00000009,731,1,1442424729638,1442424729658,913,421,0,0,0,5,4,1,54,0005-00-0005-01.png,0004-00-0008-22.png
00000009,732,0,1442424730610,1442424730650,858,422,0,0,0,4,5,1,45,0004-00-0007-72.png,0005-00-0009-37.png
00000009,733,1,1442424733801,1442424734345,502,258,0,0,0,1,2,1,12,0001-00-0001-86.png,0002-00-0006-60.png
00000009,734,1,1442424735197,1442424735241,891,443,0,0,0,2,1,1,21,0002-00-0004-55.png,0001-00-0007-84.png
00000009,735,0,1442424736273,1442424736313,897,411,0,0,0,2,3,1,23,0002-00-0009-51.png,0003-00-0007-76.png
00000009,736,1,1442424739245,1442424739277,871,438,0,0,0,3,2,1,32,0003-00-0005-89.png,0002-00-0003-22.png
00000009,737,1,1442424740228,1442424740260,913,413,0,0,0,5,4,1,54,0005-00-0009-29.png,0004-00-0009-18.png
00000009,738,1,1442424741133,1442424741173,887,461,0,0,0,3,2,1,32,0003-00-0006-45.png,0002-00-0003-22.png
00000009,739,1,1442424742413,1442424743627,206,253,0,0,0,4,5,1,45,0004-00-0003-08.png,0005-00-0003-39.png
00000009,740,1,1442424744729,1442424744753,870,387,0,0,0,4,3,1,43,0004-00-0008-29.png,0003-00-0000-38.png
00000009,741,0,1442424745873,1442424745901,891,433,0,0,0,2,3,1,23,0002-00-0005-35.png,0003-00-0002-22.png
00000009,742,1,1442424749113,1442424749686,973,342,0,0,0,2,1,1,21,0002-00-0006-00.png,0001-00-0001-54.png
00000009,743,0,1442424751130,1442424751150,877,370,0,0,0,1,2,1,12,0001-00-0009-79.png,0002-00-0002-50.png
00000009,744,0,1442424754219,1442424754263,943,361,0,0,0,3,4,1,34,0003-00-0004-40.png,0004-00-0001-21.png
00000009,745,1,1442424757374,1442424758013,514,274,0,0,0,3,4,1,34,0003-00-0002-95.png,0004-00-0000-72.png
00000009,746,0,1442424759285,1442424759318,888,375,0,0,0,4,5,1,45,0004-00-0003-36.png,0005-00-0000-22.png
00000009,747,1,1442424762351,1442424763015,498,243,0,0,0,1,2,1,12,0001-00-0009-70.png,0002-00-0001-98.png
00000009,748,1,1442424764358,1442424764394,913,397,0,0,0,3,2,1,32,0003-00-0008-20.png,0002-00-0004-11.png
00000009,749,1,1442424765490,1442424765542,913,436,0,0,0,5,4,1,54,0005-00-0001-39.png,0004-00-0008-66.png
00000009,750,1,1442424766601,1442424766641,925,447,0,0,0,2,1,1,21,0002-00-0006-59.png,0001-00-0001-91.png
00000009,751,1,1442424768001,1442424768077,930,458,0,0,0,4,3,1,43,0004-00-0004-82.png,0003-00-0006-90.png
00000009,752,0,1442424769186,1442424769266,972,477,0,0,0,2,3,1,23,0002-00-0009-04.png,0003-00-0002-99.png
00000009,753,1,1442424772258,1442424772810,1127,308,0,0,0,2,1,1,21,0002-00-0009-97.png,0001-00-0009-04.png
00000009,754,1,1442424774167,1442424774187,883,381,0,0,0,5,4,1,54,0005-00-0002-38.png,0004-00-0006-61.png
00000009,755,1,1442424775169,1442424775209,864,444,0,0,0,4,3,1,43,0004-00-0000-46.png,0003-00-0002-69.png
00000009,756,0,1442424776380,1442424776408,868,388,0,0,0,4,5,1,45,0004-00-0009-29.png,0005-00-0005-32.png
00000009,757,1,1442424779281,1442424779999,485,250,0,0,0,1,2,1,12,0001-00-0003-75.png,0002-00-0009-75.png
00000009,758,1,1442424781352,1442424781392,888,393,0,0,0,3,2,1,32,0003-00-0001-02.png,0002-00-0009-63.png
00000009,759,0,1442424782425,1442424782473,887,474,0,0,0,2,3,1,23,0002-00-0006-39.png,0003-00-0007-11.png
00000009,760,0,1442424785523,1442424786089,1114,305,0,0,0,3,4,1,34,0003-00-0008-72.png,0004-00-0007-32.png
00000009,761,0,1442424788993,1442424789061,888,462,0,0,0,2,3,1,23,0002-00-0007-06.png,0003-00-0003-19.png
00000009,762,1,1442424792222,1442424792896,948,403,0,0,0,2,1,1,21,0002-00-0009-69.png,0001-00-0003-85.png
00000009,763,1,1442424793760,1442424793825,950,446,0,0,0,4,3,1,43,0004-00-0001-12.png,0003-00-0004-03.png
00000009,764,1,1442424795153,1442424795217,904,436,0,0,0,5,4,1,54,0005-00-0007-10.png,0004-00-0003-75.png
00000009,765,0,1442424796385,1442424796465,932,496,0,0,0,1,2,1,12,0001-00-0009-32.png,0002-00-0002-89.png
00000009,766,1,1442424799656,1442424800348,481,261,0,0,0,4,5,1,45,0004-00-0000-65.png,0005-00-0007-15.png
00000009,767,1,1442424801235,1442424801263,913,436,0,0,0,3,2,1,32,0003-00-0005-45.png,0002-00-0008-70.png
00000009,768,0,1442424802318,1442424802366,866,445,0,0,0,3,4,1,34,0003-00-0006-16.png,0004-00-0004-72.png
00000009,769,1,1442424805540,1442424806061,477,293,0,0,0,3,4,1,34,0003-00-0007-51.png,0004-00-0004-59.png
00000009,770,1,1442424807406,1442424807454,874,410,0,0,0,2,1,1,21,0002-00-0002-18.png,0001-00-0008-45.png
00000009,771,1,1442424808517,1442424808585,891,447,0,0,0,3,2,1,32,0003-00-0007-91.png,0002-00-0005-20.png
00000009,772,1,1442424809749,1442424809789,891,438,0,0,0,5,4,1,54,0005-00-0004-66.png,0004-00-0003-38.png
00000009,773,0,1442424811070,1442424811114,914,413,0,0,0,1,2,1,12,0001-00-0002-93.png,0002-00-0002-81.png
00000009,774,0,1442424813973,1442424814005,861,440,0,0,0,2,3,1,23,0002-00-0001-55.png,0003-00-0007-35.png
00000009,775,1,1442424817065,1442424817757,964,346,0,0,0,4,3,1,43,0004-00-0005-09.png,0003-00-0008-33.png
00000009,776,0,1442424818609,1442424819684,941,316,0,0,0,4,5,1,45,0004-00-0005-59.png,0005-00-0007-77.png
00000009,777,0,1442424822827,1442424823576,990,349,0,0,0,3,4,1,34,0003-00-0009-69.png,0004-00-0006-13.png
00000009,778,0,1442424826656,1442424826685,905,412,0,0,0,2,3,1,23,0002-00-0008-63.png,0003-00-0000-68.png
00000009,779,1,1442424829814,1442424829838,916,352,0,0,0,2,1,1,21,0002-00-0008-50.png,0001-00-0004-26.png
00000009,780,1,1442424830739,1442424830763,890,458,0,0,0,5,4,1,54,0005-00-0006-93.png,0004-00-0007-29.png
00000009,781,1,1442424831804,1442424831832,884,413,0,0,0,4,3,1,43,0004-00-0003-14.png,0003-00-0003-66.png
00000009,782,1,1442424832962,1442424833002,915,399,0,0,0,3,2,1,32,0003-00-0007-67.png,0002-00-0001-56.png
00000009,783,0,1442424834234,1442424834274,886,414,0,0,0,1,2,1,12,0001-00-0007-63.png,0002-00-0005-51.png
00000009,784,0,1442424837445,1442424837979,970,337,0,0,0,4,5,1,45,0004-00-0000-53.png,0005-00-0008-70.png
00000009,785,0,1442424841174,1442424841729,501,274,0,0,0,4,3,1,43,0004-00-0003-72.png,0003-00-0003-45.png
00000009,786,1,1442424844831,1442424845350,480,294,0,0,0,2,3,1,23,0002-00-0007-55.png,0003-00-0008-21.png
00000009,787,0,1442424846827,1442424846859,882,365,0,0,0,3,4,1,34,0003-00-0008-72.png,0004-00-0003-45.png
00000009,788,0,1442424849692,1442424850343,1116,334,0,0,0,4,5,1,45,0004-00-0003-62.png,0005-00-0009-16.png
00000009,789,1,1442424853436,1442424853476,948,388,0,0,0,3,2,1,32,0003-00-0008-80.png,0002-00-0003-27.png
00000009,790,1,1442424854391,1442424855443,966,332,0,0,0,2,1,1,21,0002-00-0006-80.png,0001-00-0001-64.png
00000009,791,1,1442424856499,1442424856527,1018,446,0,0,0,5,4,1,54,0005-00-0002-60.png,0004-00-0009-55.png
00000009,792,0,1442424857489,1442424857509,916,416,0,0,0,1,2,1,12,0001-00-0001-32.png,0002-00-0005-88.png
00000009,793,0,1442424860613,1442424860621,928,386,0,0,0,4,5,1,45,0004-00-0005-97.png,0005-00-0003-65.png
00000009,794,0,1442424863792,1442424864715,964,393,0,0,0,2,3,1,23,0002-00-0004-18.png,0003-00-0002-20.png
00000009,795,0,1442424867596,1442424868192,936,329,0,0,0,3,4,1,34,0003-00-0002-77.png,0004-00-0003-99.png
00000009,796,0,1442424871146,1442424871737,1090,280,0,0,0,1,2,1,12,0001-00-0009-73.png,0002-00-0005-24.png
00000009,797,0,1442424874824,1442424875564,384,347,0,0,0,5,4,1,54,0005-00-0005-46.png,0004-00-0002-93.png
00000009,798,1,1442424878720,1442424879327,992,336,0,0,0,2,1,1,21,0002-00-0002-85.png,0001-00-0001-51.png
00000009,799,1,1442424880822,1442424880854,883,369,0,0,0,3,2,1,32,0003-00-0001-78.png,0002-00-0005-90.png
00000009,800,1,1442424881947,1442424882019,907,430,0,0,0,4,3,1,43,0004-00-0002-57.png,0003-00-0009-62.png
