subject_id,trial,correct_response,stim_time,response_time,x_coord,y_coord,trial_timeout,timeout_time,interTrial_timeout,left_rank,right_rank,distance,joint_rank,left_image,right_image
00000014,1,0,1439478651277,1439478651860,365,384,0,0,0,4,3,1,43,0004-00-0000-07.png,0003-00-0000-47.png
00000014,2,1,1439478655040,1439478655554,401,512,0,0,0,2,3,1,23,0002-00-0000-27.png,0003-00-0000-28.png
00000014,3,1,1439478657082,1439478657589,361,396,0,0,0,4,5,1,45,0004-00-0000-80.png,0005-00-0000-24.png
00000014,4,1,1439478661905,1439478662364,359,413,0,0,0,3,4,1,34,0003-00-0000-73.png,0004-00-0000-85.png
00000014,5,0,1439478664124,1439478664668,366,405,0,0,0,5,4,1,54,0005-00-0001-86.png,0004-00-0000-36.png
00000014,6,0,1439478667886,1439478668407,388,450,0,0,0,3,2,1,32,0003-00-0001-33.png,0002-00-0000-59.png
00000014,7,1,1439478671347,1439478672080,929,441,0,0,0,2,1,1,21,0002-00-0001-09.png,0001-00-0001-29.png
00000014,8,1,1439478673133,1439478673682,303,359,0,0,0,1,2,1,12,0001-00-0001-89.png,0002-00-0001-76.png
00000014,9,1,1439478698032,1439478698630,906,467,0,0,0,5,4,1,54,0005-00-0000-30.png,0004-00-0000-47.png
00000014,10,1,1439478701933,1439478702426,355,409,0,0,0,3,4,1,34,0003-00-0001-54.png,0004-00-0000-00.png
00000014,11,1,1439478703958,1439478704492,390,502,0,0,0,1,2,1,12,0001-00-0001-84.png,0002-00-0001-39.png
00000014,12,1,1439478707366,1439478708002,951,387,0,0,0,3,2,1,32,0003-00-0001-58.png,0002-00-0000-90.png
00000014,13,1,1439478709230,1439478709755,362,413,0,0,0,2,3,1,23,0002-00-0001-77.png,0003-00-0000-81.png
00000014,14,0,1439478711382,1439478712004,380,382,0,0,0,2,1,1,21,0002-00-0001-93.png,0001-00-0001-47.png
00000014,15,1,1439478715010,1439478715507,324,372,0,0,0,4,5,1,45,0004-00-0000-17.png,0005-00-0000-13.png
00000014,16,0,1439478716694,1439478717233,325,474,0,0,0,4,3,1,43,0004-00-0001-98.png,0003-00-0000-85.png
00000014,17,1,1439478720406,1439478721024,344,479,0,0,0,2,3,1,23,0002-00-0001-61.png,0003-00-0001-34.png
00000014,18,1,1439478722174,1439478722887,902,442,0,0,0,5,4,1,54,0005-00-0000-64.png,0004-00-0000-56.png
00000014,19,0,1439478724379,1439478724974,348,410,0,0,0,2,1,1,21,0002-00-0000-47.png,0001-00-0001-20.png
00000014,20,0,1439478730511,1439478731213,954,356,0,0,0,3,4,1,34,0003-00-0001-85.png,0004-00-0001-97.png
00000014,21,1,1439478734077,1439478734101,480,417,0,0,0,1,2,1,12,0001-00-0000-05.png,0002-00-0000-18.png
00000014,22,0,1439478735535,1439478736053,350,384,0,0,0,4,3,1,43,0004-00-0001-42.png,0003-00-0001-21.png
00000014,23,0,1439478739049,1439478739061,469,476,0,0,0,3,2,1,32,0003-00-0001-19.png,0002-00-0000-33.png
00000014,24,1,1439478741999,1439478744340,365,350,0,0,0,4,5,1,45,0004-00-0000-62.png,0005-00-0001-95.png
00000014,25,1,1439478746076,1439478746877,510,483,0,0,0,1,2,1,12,0001-00-0001-91.png,0002-00-0001-03.png
00000014,26,1,1439478748391,1439478748974,930,351,0,0,0,4,3,1,43,0004-00-0000-84.png,0003-00-0001-35.png
00000014,27,1,1439478750268,1439478750800,357,368,0,0,0,2,3,1,23,0002-00-0000-44.png,0003-00-0000-75.png
00000014,28,1,1439478752215,1439478752763,352,378,0,0,0,4,5,1,45,0004-00-0000-50.png,0005-00-0001-53.png
00000014,29,0,1439478754124,1439478754715,299,369,0,0,0,5,4,1,54,0005-00-0001-98.png,0004-00-0000-76.png
00000014,30,0,1439478758389,1439478759099,956,366,0,0,0,3,4,1,34,0003-00-0001-80.png,0004-00-0001-00.png
00000014,31,1,1439478762084,1439478762844,881,338,0,0,0,3,2,1,32,0003-00-0000-47.png,0002-00-0000-75.png
00000014,32,0,1439478764271,1439478764842,354,400,0,0,0,2,1,1,21,0002-00-0001-74.png,0001-00-0000-56.png
00000014,33,1,1439478768058,1439478768587,288,371,0,0,0,2,3,1,23,0002-00-0000-83.png,0003-00-0001-12.png
00000014,34,1,1439478769806,1439478769810,493,446,0,0,0,1,2,1,12,0001-00-0000-20.png,0002-00-0000-57.png
00000014,35,1,1439478771038,1439478771573,358,399,0,0,0,4,5,1,45,0004-00-0000-16.png,0005-00-0000-66.png
00000014,36,1,1439478772888,1439478773472,969,356,0,0,0,4,3,1,43,0004-00-0001-40.png,0003-00-0000-12.png
00000014,37,1,1439478777072,1439478777883,355,387,0,0,0,3,4,1,34,0003-00-0001-53.png,0004-00-0001-95.png
00000014,38,1,1439478779149,1439478780031,940,475,0,0,0,3,2,1,32,0003-00-0000-91.png,0002-00-0000-04.png
00000014,39,1,1439478780999,1439478781709,964,384,0,0,0,5,4,1,54,0005-00-0000-23.png,0004-00-0001-05.png
00000014,40,0,1439478783447,1439478784106,317,392,0,0,0,2,1,1,21,0002-00-0000-58.png,0001-00-0001-10.png
00000014,41,0,1439478788923,1439478789552,956,376,0,0,0,3,4,1,34,0003-00-0000-85.png,0004-00-0000-51.png
00000014,42,1,1439478792605,1439478793260,951,386,0,0,0,3,2,1,32,0003-00-0001-71.png,0002-00-0000-23.png
00000014,43,1,1439478794245,1439478795114,323,371,0,0,0,2,3,1,23,0002-00-0000-65.png,0003-00-0001-78.png
00000014,44,1,1439478797197,1439478797720,968,391,0,0,0,4,3,1,43,0004-00-0000-42.png,0003-00-0000-12.png
00000014,45,1,1439478800029,1439478800555,354,369,0,0,0,4,5,1,45,0004-00-0001-78.png,0005-00-0000-38.png
00000014,46,0,1439478801938,1439478802678,947,367,0,0,0,1,2,1,12,0001-00-0000-28.png,0002-00-0001-05.png
00000014,47,0,1439478805741,1439478806314,356,405,0,0,0,5,4,1,54,0005-00-0001-02.png,0004-00-0001-09.png
00000014,48,0,1439478809192,1439478809196,494,393,0,0,0,2,1,1,21,0002-00-0000-64.png,0001-00-0001-53.png
00000014,49,0,1439478812312,1439478813058,889,475,0,0,0,1,2,1,12,0001-00-0001-62.png,0002-00-0001-62.png
00000014,50,0,1439478816258,1439478816815,947,419,0,0,0,2,3,1,23,0002-00-0000-29.png,0003-00-0001-32.png
00000014,51,1,1439478819964,1439478820678,975,358,0,0,0,5,4,1,54,0005-00-0001-79.png,0004-00-0000-05.png
00000014,52,1,1439478822362,1439478823283,952,382,0,0,0,3,2,1,32,0003-00-0000-20.png,0002-00-0000-05.png
00000014,53,0,1439478824308,1439478824972,952,355,0,0,0,3,4,1,34,0003-00-0000-04.png,0004-00-0000-08.png
00000014,54,0,1439478827885,1439478827890,468,367,0,0,0,4,3,1,43,0004-00-0000-79.png,0003-00-0000-13.png
00000014,55,0,1439478831016,1439478831632,350,423,0,0,0,2,1,1,21,0002-00-0001-01.png,0001-00-0000-31.png
00000014,56,1,1439478834793,1439478834817,503,459,0,0,0,4,5,1,45,0004-00-0000-44.png,0005-00-0000-14.png
00000014,57,1,1439478835837,1439478836442,925,397,0,0,0,3,2,1,32,0003-00-0001-25.png,0002-00-0000-49.png
00000014,58,0,1439478837487,1439478838039,924,398,0,0,0,4,5,1,45,0004-00-0000-42.png,0005-00-0001-77.png
00000014,59,0,1439478841075,1439478841083,520,396,0,0,0,2,1,1,21,0002-00-0001-75.png,0001-00-0001-91.png
00000014,60,1,1439478844164,1439478844984,906,420,0,0,0,4,3,1,43,0004-00-0001-84.png,0003-00-0000-35.png
00000014,61,0,1439478845946,1439478846477,925,384,0,0,0,1,2,1,12,0001-00-0001-46.png,0002-00-0000-69.png
00000014,62,1,1439478849409,1439478850207,350,332,0,0,0,3,4,1,34,0003-00-0001-80.png,0004-00-0001-91.png
00000014,63,0,1439478851131,1439478851151,504,428,0,0,0,5,4,1,54,0005-00-0000-42.png,0004-00-0001-70.png
00000014,64,1,1439478854211,1439478854247,508,455,0,0,0,2,3,1,23,0002-00-0000-73.png,0003-00-0000-06.png
00000014,65,0,1439478855226,1439478855761,948,372,0,0,0,3,4,1,34,0003-00-0001-03.png,0004-00-0000-85.png
00000014,66,1,1439478858775,1439478859350,282,393,0,0,0,1,2,1,12,0001-00-0001-96.png,0002-00-0001-99.png
00000014,67,0,1439478860295,1439478860983,316,392,0,0,0,3,2,1,32,0003-00-0000-49.png,0002-00-0000-51.png
00000014,68,0,1439478863963,1439478863979,461,446,0,0,0,2,1,1,21,0002-00-0001-54.png,0001-00-0001-76.png
00000014,69,1,1439478869219,1439478869782,900,455,0,0,0,5,4,1,54,0005-00-0000-96.png,0004-00-0000-54.png
00000014,70,0,1439478870754,1439478871407,376,397,0,0,0,4,3,1,43,0004-00-0001-97.png,0003-00-0001-23.png
00000014,71,1,1439478874416,1439478874432,517,369,0,0,0,2,3,1,23,0002-00-0000-08.png,0003-00-0000-03.png
00000014,72,1,1439478875351,1439478876035,341,364,0,0,0,4,5,1,45,0004-00-0000-01.png,0005-00-0000-81.png
00000014,73,0,1439478877001,1439478877017,504,452,0,0,0,4,3,1,43,0004-00-0000-72.png,0003-00-0000-12.png
00000014,74,1,1439478879872,1439478880471,421,487,0,0,0,1,2,1,12,0001-00-0001-98.png,0002-00-0001-76.png
00000014,75,1,1439478881354,1439478882200,945,433,0,0,0,3,2,1,32,0003-00-0000-11.png,0002-00-0000-52.png
00000014,76,1,1439478883119,1439478883139,504,446,0,0,0,3,4,1,34,0003-00-0000-44.png,0004-00-0001-66.png
00000014,77,0,1439478884414,1439478884863,920,368,0,0,0,2,3,1,23,0002-00-0000-05.png,0003-00-0001-36.png
00000014,78,0,1439478888022,1439478888587,940,386,0,0,0,4,5,1,45,0004-00-0001-82.png,0005-00-0000-77.png
00000014,79,0,1439478891511,1439478891595,508,452,0,0,0,5,4,1,54,0005-00-0001-06.png,0004-00-0000-32.png
00000014,80,1,1439478896341,1439478896905,909,367,0,0,0,2,1,1,21,0002-00-0001-76.png,0001-00-0001-98.png
00000014,81,0,1439478897871,1439478898602,925,482,0,0,0,2,3,1,23,0002-00-0001-47.png,0003-00-0000-22.png
00000014,82,0,1439478901866,1439478902535,350,358,0,0,0,4,3,1,43,0004-00-0001-51.png,0003-00-0001-76.png
00000014,83,1,1439478906016,1439478906639,273,345,0,0,0,4,5,1,45,0004-00-0001-54.png,0005-00-0001-16.png
00000014,84,1,1439478907596,1439478908133,385,466,0,0,0,3,4,1,34,0003-00-0000-47.png,0004-00-0000-09.png
00000014,85,1,1439478909071,1439478909724,389,490,0,0,0,1,2,1,12,0001-00-0001-57.png,0002-00-0001-20.png
00000014,86,0,1439478910710,1439478911261,345,373,0,0,0,5,4,1,54,0005-00-0001-36.png,0004-00-0001-51.png
00000014,87,0,1439478919413,1439478919972,320,393,0,0,0,2,1,1,21,0002-00-0001-07.png,0001-00-0000-19.png
00000014,88,0,1439478923044,1439478923060,504,410,0,0,0,3,2,1,32,0003-00-0000-33.png,0002-00-0000-58.png
00000014,89,0,1439478925943,1439478925947,470,350,0,0,0,2,1,1,21,0002-00-0001-19.png,0001-00-0000-58.png
00000014,90,0,1439478929155,1439478929859,903,324,0,0,0,4,5,1,45,0004-00-0000-07.png,0005-00-0000-81.png
00000014,91,1,1439478932843,1439478932847,480,362,0,0,0,2,3,1,23,0002-00-0000-28.png,0003-00-0000-78.png
00000014,92,1,1439478933856,1439478934408,376,358,0,0,0,3,4,1,34,0003-00-0001-16.png,0004-00-0000-42.png
00000014,93,1,1439478935406,1439478936130,946,342,0,0,0,3,2,1,32,0003-00-0000-57.png,0002-00-0000-21.png
00000014,94,0,1439478937066,1439478937780,917,457,0,0,0,1,2,1,12,0001-00-0001-86.png,0002-00-0001-21.png
00000014,95,0,1439478940642,1439478940666,470,460,0,0,0,4,3,1,43,0004-00-0001-37.png,0003-00-0000-24.png
00000014,96,1,1439478943754,1439478944699,952,411,0,0,0,5,4,1,54,0005-00-0001-79.png,0004-00-0000-93.png
00000014,97,0,1439478945613,1439478945649,504,436,0,0,0,3,2,1,32,0003-00-0000-03.png,0002-00-0000-14.png
00000014,98,1,1439478948702,1439478948778,504,462,0,0,0,4,5,1,45,0004-00-0001-35.png,0005-00-0000-69.png
00000014,99,0,1439478949684,1439478950512,932,348,0,0,0,3,4,1,34,0003-00-0001-73.png,0004-00-0001-82.png
00000014,100,1,1439478953644,1439478953698,476,555,0,0,0,1,2,1,12,0001-00-0000-84.png,0002-00-0001-43.png
00000014,101,1,1439478954653,1439478955501,931,374,0,0,0,4,3,1,43,0004-00-0000-23.png,0003-00-0001-64.png
00000014,102,0,1439478956496,1439478957197,354,374,0,0,0,5,4,1,54,0005-00-0000-56.png,0004-00-0000-91.png
00000014,103,0,1439478960452,1439478960978,346,393,0,0,0,2,1,1,21,0002-00-0001-97.png,0001-00-0000-63.png
00000014,104,1,1439478964112,1439478964137,480,437,0,0,0,2,3,1,23,0002-00-0000-50.png,0003-00-0000-35.png
00000014,105,1,1439478965105,1439478965748,939,346,0,0,0,5,4,1,54,0005-00-0000-27.png,0004-00-0000-39.png
00000014,106,1,1439478966744,1439478967389,957,390,0,0,0,3,2,1,32,0003-00-0000-81.png,0002-00-0000-86.png
00000014,107,1,1439478968374,1439478968945,349,410,0,0,0,2,3,1,23,0002-00-0001-57.png,0003-00-0000-45.png
00000014,108,0,1439478970064,1439478970555,873,491,0,0,0,1,2,1,12,0001-00-0000-15.png,0002-00-0000-14.png
00000014,109,1,1439478973738,1439478974385,921,367,0,0,0,4,3,1,43,0004-00-0000-84.png,0003-00-0001-99.png
00000014,110,1,1439478975389,1439478975909,359,394,0,0,0,4,5,1,45,0004-00-0000-40.png,0005-00-0000-48.png
00000014,111,1,1439478976915,1439478977433,946,369,0,0,0,2,1,1,21,0002-00-0000-18.png,0001-00-0000-30.png
00000014,112,0,1439478978415,1439478978896,913,395,0,0,0,3,4,1,34,0003-00-0001-64.png,0004-00-0001-54.png
00000014,113,1,1439478982047,1439478982713,950,369,0,0,0,5,4,1,54,0005-00-0000-29.png,0004-00-0000-60.png
00000014,114,0,1439478983734,1439478984189,924,384,0,0,0,1,2,1,12,0001-00-0000-36.png,0002-00-0001-97.png
00000014,115,0,1439478987126,1439478987859,357,364,0,0,0,2,1,1,21,0002-00-0000-61.png,0001-00-0000-18.png
00000014,116,0,1439478990909,1439478991611,939,397,0,0,0,3,4,1,34,0003-00-0000-22.png,0004-00-0000-18.png
00000014,117,1,1439478994590,1439478995195,273,377,0,0,0,2,3,1,23,0002-00-0000-06.png,0003-00-0000-43.png
00000014,118,1,1439478996210,1439478996776,924,367,0,0,0,4,3,1,43,0004-00-0000-88.png,0003-00-0000-27.png
00000014,119,0,1439478997740,1439478998331,928,362,0,0,0,4,5,1,45,0004-00-0001-58.png,0005-00-0001-29.png
00000014,120,1,1439479001446,1439479002005,901,384,0,0,0,3,2,1,32,0003-00-0001-85.png,0002-00-0000-84.png
00000014,121,0,1439479002938,1439479002954,478,436,0,0,0,4,3,1,43,0004-00-0000-69.png,0003-00-0001-20.png
00000014,122,0,1439479006010,1439479006616,913,436,0,0,0,3,4,1,34,0003-00-0001-78.png,0004-00-0000-27.png
00000014,123,0,1439479009507,1439479009515,493,455,0,0,0,3,2,1,32,0003-00-0000-09.png,0002-00-0001-87.png
00000014,124,1,1439479012826,1439479013395,308,393,0,0,0,2,3,1,23,0002-00-0000-48.png,0003-00-0001-08.png
00000014,125,1,1439479014438,1439479015023,927,381,0,0,0,2,1,1,21,0002-00-0000-80.png,0001-00-0001-67.png
00000014,126,1,1439479016027,1439479016819,952,373,0,0,0,5,4,1,54,0005-00-0000-86.png,0004-00-0001-82.png
00000014,127,0,1439479017814,1439479018364,913,423,0,0,0,1,2,1,12,0001-00-0000-25.png,0002-00-0001-81.png
00000014,128,1,1439479021808,1439479022386,325,384,0,0,0,4,5,1,45,0004-00-0001-60.png,0005-00-0001-57.png
00000014,129,1,1439479023400,1439479024005,267,374,0,0,0,2,3,1,23,0002-00-0000-06.png,0003-00-0000-08.png
00000014,130,1,1439479024990,1439479025542,898,399,0,0,0,5,4,1,54,0005-00-0000-90.png,0004-00-0001-74.png
00000014,131,1,1439479026565,1439479027133,310,374,0,0,0,1,2,1,12,0001-00-0000-18.png,0002-00-0000-91.png
00000014,132,0,1439479028118,1439479028650,328,376,0,0,0,4,3,1,43,0004-00-0001-70.png,0003-00-0001-00.png
00000014,133,1,1439479035250,1439479035920,368,350,0,0,0,4,5,1,45,0004-00-0000-94.png,0005-00-0001-29.png
00000014,134,1,1439479036835,1439479037351,927,398,0,0,0,3,2,1,32,0003-00-0001-52.png,0002-00-0001-80.png
00000014,135,1,1439479038365,1439479038893,919,398,0,0,0,2,1,1,21,0002-00-0001-46.png,0001-00-0000-56.png
00000014,136,0,1439479039772,1439479040295,905,403,0,0,0,3,4,1,34,0003-00-0000-03.png,0004-00-0000-15.png
00000014,137,0,1439479044324,1439479044918,376,410,0,0,0,4,3,1,43,0004-00-0001-41.png,0003-00-0001-97.png
00000014,138,0,1439479050940,1439479051769,951,370,0,0,0,2,3,1,23,0002-00-0000-59.png,0003-00-0000-83.png
00000014,139,1,1439479055355,1439479055957,953,440,0,0,0,3,2,1,32,0003-00-0001-46.png,0002-00-0000-52.png
00000014,140,1,1439479056853,1439479057352,881,349,0,0,0,2,1,1,21,0002-00-0001-75.png,0001-00-0001-70.png
00000014,141,1,1439479058255,1439479058708,361,399,0,0,0,1,2,1,12,0001-00-0000-58.png,0002-00-0001-95.png
00000014,142,1,1439479059935,1439479060474,375,380,0,0,0,4,5,1,45,0004-00-0000-78.png,0005-00-0000-85.png
00000014,143,1,1439479061574,1439479062448,349,367,0,0,0,3,4,1,34,0003-00-0001-11.png,0004-00-0001-90.png
00000014,144,1,1439479063662,1439479070749,955,443,0,0,0,5,4,1,54,0005-00-0001-79.png,0004-00-0001-00.png
00000014,145,1,1439479071759,1439479072203,951,397,0,0,0,3,2,1,32,0003-00-0000-06.png,0002-00-0000-28.png
00000014,146,0,1439479073129,1439479073174,517,462,0,0,0,4,3,1,43,0004-00-0000-05.png,0003-00-0001-60.png
00000014,147,0,1439479076391,1439479076985,926,420,0,0,0,3,4,1,34,0003-00-0000-11.png,0004-00-0001-20.png
00000014,148,0,1439479081384,1439479081863,912,508,0,0,0,1,2,1,12,0001-00-0000-63.png,0002-00-0000-28.png
00000014,149,1,1439479086290,1439479086326,504,462,0,0,0,4,5,1,45,0004-00-0000-41.png,0005-00-0001-77.png
00000014,150,1,1439479087332,1439479087908,905,416,0,0,0,5,4,1,54,0005-00-0000-09.png,0004-00-0001-89.png
00000014,151,0,1439479089351,1439479090085,944,387,0,0,0,2,3,1,23,0002-00-0001-58.png,0003-00-0000-42.png
00000014,152,1,1439479094340,1439479094877,922,497,0,0,0,2,1,1,21,0002-00-0000-47.png,0001-00-0001-84.png
00000014,153,1,1439479095855,1439479096363,931,375,0,0,0,2,1,1,21,0002-00-0001-20.png,0001-00-0001-64.png
00000014,154,0,1439479097391,1439479097944,944,384,0,0,0,4,5,1,45,0004-00-0000-11.png,0005-00-0001-99.png
00000014,155,1,1439479100830,1439479101446,365,382,0,0,0,2,3,1,23,0002-00-0001-14.png,0003-00-0000-17.png
00000014,156,0,1439479102431,1439479102958,913,384,0,0,0,3,4,1,34,0003-00-0001-92.png,0004-00-0000-02.png
00000014,157,0,1439479105814,1439479106361,338,369,0,0,0,5,4,1,54,0005-00-0000-78.png,0004-00-0001-40.png
00000014,158,0,1439479111712,1439479112528,929,391,0,0,0,1,2,1,12,0001-00-0000-46.png,0002-00-0001-17.png
00000014,159,0,1439479115411,1439479116024,376,384,0,0,0,4,3,1,43,0004-00-0000-56.png,0003-00-0000-43.png
00000014,160,0,1439479119057,1439479119066,504,372,0,0,0,3,2,1,32,0003-00-0001-46.png,0002-00-0001-26.png
00000014,161,0,1439479122029,1439479122053,415,488,0,0,0,3,2,1,32,0003-00-0001-22.png,0002-00-0001-52.png
00000014,162,1,1439479124949,1439479125470,350,358,0,0,0,2,3,1,23,0002-00-0001-21.png,0003-00-0000-71.png
00000014,163,0,1439479126528,1439479127145,878,494,0,0,0,4,5,1,45,0004-00-0001-66.png,0005-00-0000-18.png
00000014,164,0,1439479130346,1439479130382,523,437,0,0,0,2,1,1,21,0002-00-0000-56.png,0001-00-0001-22.png
00000014,165,1,1439479133355,1439479133367,499,359,0,0,0,3,4,1,34,0003-00-0000-85.png,0004-00-0001-40.png
00000014,166,1,1439479134463,1439479135037,905,428,0,0,0,4,3,1,43,0004-00-0000-78.png,0003-00-0000-88.png
00000014,167,1,1439479136084,1439479136635,930,415,0,0,0,5,4,1,54,0005-00-0001-19.png,0004-00-0000-72.png
00000014,168,0,1439479137653,1439479138216,930,402,0,0,0,1,2,1,12,0001-00-0001-72.png,0002-00-0001-59.png
00000014,169,1,1439479141046,1439479141670,932,401,0,0,0,4,3,1,43,0004-00-0000-26.png,0003-00-0000-07.png
00000014,170,0,1439479142669,1439479143221,926,397,0,0,0,2,3,1,23,0002-00-0001-06.png,0003-00-0001-59.png
00000014,171,0,1439479146866,1439479147678,385,521,0,0,0,3,2,1,32,0003-00-0000-92.png,0002-00-0001-70.png
00000014,172,0,1439479150684,1439479150708,491,450,0,0,0,2,1,1,21,0002-00-0000-53.png,0001-00-0001-46.png
00000014,173,0,1439479153929,1439479154589,941,397,0,0,0,3,4,1,34,0003-00-0000-45.png,0004-00-0001-05.png
00000014,174,1,1439479158354,1439479159003,368,426,0,0,0,4,5,1,45,0004-00-0000-70.png,0005-00-0001-38.png
00000014,175,0,1439479160036,1439479160585,929,414,0,0,0,1,2,1,12,0001-00-0000-10.png,0002-00-0001-97.png
00000014,176,0,1439479163682,1439479163686,489,436,0,0,0,5,4,1,54,0005-00-0000-74.png,0004-00-0001-52.png
00000014,177,0,1439479166746,1439479167299,345,486,0,0,0,4,3,1,43,0004-00-0000-93.png,0003-00-0001-89.png
00000014,178,0,1439479170368,1439479171156,312,368,0,0,0,2,1,1,21,0002-00-0001-54.png,0001-00-0001-18.png
00000014,179,1,1439479177393,1439479178034,367,382,0,0,0,1,2,1,12,0001-00-0000-41.png,0002-00-0000-15.png
00000014,180,1,1439479179084,1439479179096,504,472,0,0,0,2,3,1,23,0002-00-0001-44.png,0003-00-0000-07.png
00000014,181,0,1439479180273,1439479180861,325,410,0,0,0,3,2,1,32,0003-00-0000-71.png,0002-00-0000-67.png
00000014,182,1,1439479183901,1439479184550,933,401,0,0,0,5,4,1,54,0005-00-0001-43.png,0004-00-0001-72.png
00000014,183,1,1439479185616,1439479186416,338,429,0,0,0,3,4,1,34,0003-00-0001-02.png,0004-00-0000-31.png
00000014,184,1,1439479187382,1439479187992,338,403,0,0,0,4,5,1,45,0004-00-0001-94.png,0005-00-0000-03.png
00000014,185,1,1439479189033,1439479189575,906,401,0,0,0,5,4,1,54,0005-00-0001-32.png,0004-00-0000-75.png
00000014,186,1,1439479190592,1439479191075,919,392,0,0,0,4,3,1,43,0004-00-0001-16.png,0003-00-0001-36.png
00000014,187,1,1439479192065,1439479192775,338,371,0,0,0,3,4,1,34,0003-00-0000-48.png,0004-00-0000-03.png
00000014,188,1,1439479193763,1439479194436,920,368,0,0,0,2,1,1,21,0002-00-0000-21.png,0001-00-0001-99.png
00000014,189,1,1439479195374,1439479196005,299,398,0,0,0,4,5,1,45,0004-00-0000-43.png,0005-00-0000-39.png
00000014,190,0,1439479197000,1439479197585,320,413,0,0,0,3,2,1,32,0003-00-0001-31.png,0002-00-0001-79.png
00000014,191,1,1439479200527,1439479200531,522,480,0,0,0,1,2,1,12,0001-00-0001-69.png,0002-00-0001-86.png
00000014,192,1,1439479201484,1439479202056,334,400,0,0,0,2,3,1,23,0002-00-0000-11.png,0003-00-0001-98.png
00000014,193,0,1439479203045,1439479203547,939,413,0,0,0,2,3,1,23,0002-00-0000-60.png,0003-00-0001-32.png
00000014,194,1,1439479206674,1439479207308,936,392,0,0,0,4,3,1,43,0004-00-0001-71.png,0003-00-0000-34.png
00000014,195,1,1439479208306,1439479208890,376,397,0,0,0,1,2,1,12,0001-00-0000-98.png,0002-00-0000-33.png
00000014,196,0,1439479209881,1439479210446,945,399,0,0,0,3,4,1,34,0003-00-0000-95.png,0004-00-0001-87.png
00000014,197,1,1439479213531,1439479214326,330,395,0,0,0,4,5,1,45,0004-00-0001-11.png,0005-00-0001-81.png
00000014,198,0,1439479215291,1439479215924,331,381,0,0,0,5,4,1,54,0005-00-0000-99.png,0004-00-0001-71.png
00000014,199,0,1439479219099,1439479219632,385,507,0,0,0,2,1,1,21,0002-00-0000-14.png,0001-00-0000-03.png
00000014,200,0,1439479222715,1439479222759,478,514,0,0,0,3,2,1,32,0003-00-0000-94.png,0002-00-0000-45.png
00000014,201,1,1439479226717,1439479227366,892,493,0,0,0,3,2,1,32,0003-00-0001-93.png,0002-00-0000-19.png
00000014,202,1,1439479228385,1439479229041,346,412,0,0,0,3,4,1,34,0003-00-0000-16.png,0004-00-0000-04.png
00000014,203,1,1439479230037,1439479230798,382,489,0,0,0,4,5,1,45,0004-00-0000-61.png,0005-00-0001-45.png
00000014,204,1,1439479231768,1439479232364,350,384,0,0,0,2,3,1,23,0002-00-0000-90.png,0003-00-0001-73.png
00000014,205,0,1439479233417,1439479233955,339,401,0,0,0,5,4,1,54,0005-00-0001-31.png,0004-00-0001-16.png
00000014,206,1,1439479237165,1439479237821,925,386,0,0,0,4,3,1,43,0004-00-0001-53.png,0003-00-0000-11.png
00000014,207,1,1439479238989,1439479239534,930,401,0,0,0,2,1,1,21,0002-00-0001-84.png,0001-00-0001-46.png
00000014,208,0,1439479240531,1439479241278,925,362,0,0,0,1,2,1,12,0001-00-0000-18.png,0002-00-0000-73.png
00000014,209,1,1439479244262,1439479244278,516,499,0,0,0,2,3,1,23,0002-00-0001-32.png,0003-00-0001-21.png
00000014,210,1,1439479245251,1439479245769,919,421,0,0,0,3,2,1,32,0003-00-0001-80.png,0002-00-0000-16.png
00000014,211,1,1439479246748,1439479247376,350,395,0,0,0,1,2,1,12,0001-00-0001-65.png,0002-00-0000-71.png
00000014,212,1,1439479248372,1439479248936,361,413,0,0,0,4,5,1,45,0004-00-0001-43.png,0005-00-0000-86.png
00000014,213,1,1439479249901,1439479250429,881,427,0,0,0,4,3,1,43,0004-00-0001-05.png,0003-00-0000-17.png
00000014,214,1,1439479251836,1439479252472,349,384,0,0,0,3,4,1,34,0003-00-0000-65.png,0004-00-0001-75.png
00000014,215,1,1439479253479,1439479254042,893,420,0,0,0,2,1,1,21,0002-00-0000-35.png,0001-00-0001-77.png
00000014,216,1,1439479255094,1439479255609,916,423,0,0,0,5,4,1,54,0005-00-0000-54.png,0004-00-0000-63.png
00000014,217,1,1439479256584,1439479257209,920,417,0,0,0,4,3,1,43,0004-00-0000-39.png,0003-00-0001-47.png
00000014,218,0,1439479258206,1439479258949,906,399,0,0,0,1,2,1,12,0001-00-0000-13.png,0002-00-0000-37.png
00000014,219,1,1439479262221,1439479262764,336,397,0,0,0,2,3,1,23,0002-00-0000-54.png,0003-00-0001-92.png
00000014,220,0,1439479263731,1439479264282,350,429,0,0,0,2,1,1,21,0002-00-0001-65.png,0001-00-0001-85.png
00000014,221,1,1439479267439,1439479268409,982,401,0,0,0,5,4,1,54,0005-00-0000-29.png,0004-00-0000-47.png
00000014,222,1,1439479269338,1439479270142,352,396,0,0,0,4,5,1,45,0004-00-0001-12.png,0005-00-0000-13.png
00000014,223,1,1439479271152,1439479271869,920,362,0,0,0,3,2,1,32,0003-00-0000-21.png,0002-00-0000-97.png
00000014,224,1,1439479272926,1439479273522,325,397,0,0,0,3,4,1,34,0003-00-0000-79.png,0004-00-0000-78.png
00000014,225,1,1439479274505,1439479275039,899,398,0,0,0,5,4,1,54,0005-00-0001-11.png,0004-00-0000-40.png
00000014,226,0,1439479275996,1439479276529,882,512,0,0,0,1,2,1,12,0001-00-0000-43.png,0002-00-0001-30.png
00000014,227,0,1439479279544,1439479279548,507,440,0,0,0,2,1,1,21,0002-00-0001-28.png,0001-00-0001-73.png
00000014,228,1,1439479282846,1439479283319,931,376,0,0,0,4,3,1,43,0004-00-0000-71.png,0003-00-0000-73.png
00000014,229,1,1439479284292,1439479284992,349,371,0,0,0,4,5,1,45,0004-00-0000-99.png,0005-00-0000-91.png
00000014,230,0,1439479286081,1439479286591,897,394,0,0,0,2,3,1,23,0002-00-0001-99.png,0003-00-0000-81.png
00000014,231,0,1439479289824,1439479290424,902,469,0,0,0,3,4,1,34,0003-00-0001-97.png,0004-00-0000-96.png
00000014,232,1,1439479293489,1439479294103,949,378,0,0,0,3,2,1,32,0003-00-0000-49.png,0002-00-0001-54.png
00000014,233,0,1439479295009,1439479295631,337,387,0,0,0,2,1,1,21,0002-00-0001-71.png,0001-00-0000-31.png
00000014,234,0,1439479298704,1439479299232,387,488,0,0,0,4,3,1,43,0004-00-0001-35.png,0003-00-0000-02.png
00000014,235,1,1439479302226,1439479302895,926,358,0,0,0,5,4,1,54,0005-00-0000-14.png,0004-00-0000-58.png
00000014,236,0,1439479303861,1439479304392,386,498,0,0,0,3,2,1,32,0003-00-0001-36.png,0002-00-0001-42.png
00000014,237,0,1439479307503,1439479308244,922,365,0,0,0,4,5,1,45,0004-00-0001-49.png,0005-00-0001-70.png
00000014,238,0,1439479311797,1439479312375,912,398,0,0,0,1,2,1,12,0001-00-0000-93.png,0002-00-0001-70.png
00000014,239,1,1439479315424,1439479315440,468,384,0,0,0,2,3,1,23,0002-00-0000-39.png,0003-00-0001-48.png
00000014,240,0,1439479316477,1439479317116,932,374,0,0,0,3,4,1,34,0003-00-0001-75.png,0004-00-0001-63.png
00000014,241,1,1439479320254,1439479320953,332,397,0,0,0,2,3,1,23,0002-00-0000-77.png,0003-00-0000-76.png
00000014,242,0,1439479321973,1439479322612,330,388,0,0,0,3,2,1,32,0003-00-0001-49.png,0002-00-0001-80.png
00000014,243,0,1439479325737,1439479326328,410,499,0,0,0,4,3,1,43,0004-00-0000-48.png,0003-00-0001-89.png
00000014,244,1,1439479329503,1439479330052,947,419,0,0,0,5,4,1,54,0005-00-0001-39.png,0004-00-0001-60.png
00000014,245,1,1439479330992,1439479331462,903,516,0,0,0,2,1,1,21,0002-00-0000-27.png,0001-00-0001-35.png
00000014,246,0,1439479332377,1439479332868,899,422,0,0,0,4,5,1,45,0004-00-0000-42.png,0005-00-0000-83.png
00000014,247,1,1439479335726,1439479336323,392,469,0,0,0,1,2,1,12,0001-00-0001-29.png,0002-00-0000-22.png
00000014,248,0,1439479337357,1439479337899,922,394,0,0,0,3,4,1,34,0003-00-0001-70.png,0004-00-0001-15.png
00000014,249,0,1439479340744,1439479341533,946,368,0,0,0,1,2,1,12,0001-00-0001-09.png,0002-00-0001-57.png
00000014,250,1,1439479344614,1439479345226,900,345,0,0,0,4,3,1,43,0004-00-0000-60.png,0003-00-0001-51.png
00000014,251,0,1439479346281,1439479346887,339,398,0,0,0,3,2,1,32,0003-00-0000-22.png,0002-00-0001-43.png
00000014,252,1,1439479350014,1439479350619,949,382,0,0,0,5,4,1,54,0005-00-0000-56.png,0004-00-0001-90.png
00000014,253,0,1439479351641,1439479352184,906,402,0,0,0,4,5,1,45,0004-00-0001-44.png,0005-00-0001-33.png
00000014,254,1,1439479355406,1439479356078,324,377,0,0,0,3,4,1,34,0003-00-0000-10.png,0004-00-0000-20.png
00000014,255,1,1439479357005,1439479357522,408,507,0,0,0,2,3,1,23,0002-00-0000-16.png,0003-00-0001-48.png
00000014,256,1,1439479358597,1439479359162,902,435,0,0,0,2,1,1,21,0002-00-0001-87.png,0001-00-0001-44.png
00000014,257,1,1439479360147,1439479360871,927,407,0,0,0,3,2,1,32,0003-00-0001-78.png,0002-00-0001-45.png
00000014,258,0,1439479361864,1439479362397,875,502,0,0,0,4,5,1,45,0004-00-0000-57.png,0005-00-0000-35.png
00000014,259,0,1439479365254,1439479366088,378,421,0,0,0,4,3,1,43,0004-00-0000-33.png,0003-00-0001-75.png
00000014,260,1,1439479368929,1439479369501,334,388,0,0,0,1,2,1,12,0001-00-0001-53.png,0002-00-0001-00.png
00000014,261,0,1439479370557,1439479371135,904,414,0,0,0,3,4,1,34,0003-00-0000-68.png,0004-00-0000-34.png
00000014,262,0,1439479374213,1439479374780,358,390,0,0,0,2,1,1,21,0002-00-0001-53.png,0001-00-0000-59.png
00000014,263,1,1439479377810,1439479377838,521,452,0,0,0,2,3,1,23,0002-00-0001-04.png,0003-00-0000-96.png
00000014,264,0,1439479378794,1439479379420,346,413,0,0,0,5,4,1,54,0005-00-0000-60.png,0004-00-0000-69.png
00000014,265,0,1439479382659,1439479383481,949,405,0,0,0,4,5,1,45,0004-00-0001-33.png,0005-00-0000-05.png
00000014,266,0,1439479386344,1439479386368,511,442,0,0,0,3,2,1,32,0003-00-0000-35.png,0002-00-0001-15.png
00000014,267,1,1439479390474,1439479391036,396,493,0,0,0,3,4,1,34,0003-00-0000-37.png,0004-00-0001-66.png
00000014,268,1,1439479392003,1439479392595,389,397,0,0,0,2,3,1,23,0002-00-0000-40.png,0003-00-0001-01.png
00000014,269,1,1439479393566,1439479394186,926,396,0,0,0,4,3,1,43,0004-00-0000-71.png,0003-00-0000-21.png
00000014,270,0,1439479395161,1439479395873,905,401,0,0,0,1,2,1,12,0001-00-0001-01.png,0002-00-0000-66.png
00000014,271,1,1439479398773,1439479399408,926,371,0,0,0,5,4,1,54,0005-00-0001-59.png,0004-00-0001-14.png
00000014,272,1,1439479400372,1439479400958,906,455,0,0,0,2,1,1,21,0002-00-0001-33.png,0001-00-0000-22.png
00000014,273,0,1439479402031,1439479402547,905,427,0,0,0,4,5,1,45,0004-00-0000-33.png,0005-00-0001-62.png
00000014,274,0,1439479405688,1439479406359,977,358,0,0,0,2,3,1,23,0002-00-0001-83.png,0003-00-0000-25.png
00000014,275,0,1439479409471,1439479410006,394,408,0,0,0,3,2,1,32,0003-00-0000-54.png,0002-00-0001-78.png
00000014,276,1,1439479413068,1439479413098,444,457,0,0,0,1,2,1,12,0001-00-0000-31.png,0002-00-0001-21.png
00000014,277,0,1439479414017,1439479414770,372,399,0,0,0,5,4,1,54,0005-00-0000-53.png,0004-00-0000-99.png
00000014,278,0,1439479417982,1439479418678,927,397,0,0,0,3,4,1,34,0003-00-0001-33.png,0004-00-0000-55.png
00000014,279,0,1439479421580,1439479421592,473,400,0,0,0,4,3,1,43,0004-00-0001-82.png,0003-00-0001-53.png
00000014,280,1,1439479424833,1439479425595,930,401,0,0,0,2,1,1,21,0002-00-0000-38.png,0001-00-0001-25.png
00000014,281,0,1439479426580,1439479427202,341,388,0,0,0,3,2,1,32,0003-00-0000-70.png,0002-00-0001-53.png
00000014,282,1,1439479430426,1439479431007,401,462,0,0,0,2,3,1,23,0002-00-0001-71.png,0003-00-0000-33.png
00000014,283,0,1439479432259,1439479433155,898,412,0,0,0,4,5,1,45,0004-00-0001-58.png,0005-00-0001-37.png
00000014,284,0,1439479440408,1439479440874,956,402,0,0,0,3,4,1,34,0003-00-0000-43.png,0004-00-0000-63.png
00000014,285,0,1439479443737,1439479443765,506,491,0,0,0,5,4,1,54,0005-00-0001-20.png,0004-00-0000-01.png
00000014,286,0,1439479448730,1439479449277,376,436,0,0,0,2,1,1,21,0002-00-0001-32.png,0001-00-0000-23.png
00000014,287,0,1439479452280,1439479452284,497,452,0,0,0,4,3,1,43,0004-00-0001-28.png,0003-00-0000-56.png
00000014,288,0,1439479455385,1439479456016,938,346,0,0,0,1,2,1,12,0001-00-0001-66.png,0002-00-0000-26.png
00000014,289,1,1439479459006,1439479459014,492,465,0,0,0,1,2,1,12,0001-00-0000-80.png,0002-00-0001-82.png
00000014,290,1,1439479459947,1439479460462,913,474,0,0,0,4,3,1,43,0004-00-0001-41.png,0003-00-0000-67.png
00000014,291,0,1439479461506,1439479462211,878,517,0,0,0,2,3,1,23,0002-00-0001-13.png,0003-00-0000-74.png
00000014,292,1,1439479465148,1439479465604,940,397,0,0,0,3,2,1,32,0003-00-0000-03.png,0002-00-0000-16.png
00000014,293,0,1439479466601,1439479467289,356,465,0,0,0,5,4,1,54,0005-00-0001-06.png,0004-00-0000-77.png
00000014,294,0,1439479470364,1439479471140,376,489,0,0,0,2,1,1,21,0002-00-0001-04.png,0001-00-0001-18.png
00000014,295,1,1439479485931,1439479486512,324,377,0,0,0,3,4,1,34,0003-00-0001-18.png,0004-00-0000-09.png
00000014,296,0,1439479487485,1439479488234,929,375,0,0,0,4,5,1,45,0004-00-0001-03.png,0005-00-0001-03.png
00000014,297,0,1439479491121,1439479491784,921,472,0,0,0,4,5,1,45,0004-00-0001-28.png,0005-00-0001-37.png
00000014,298,1,1439479494919,1439479495536,931,375,0,0,0,4,3,1,43,0004-00-0001-26.png,0003-00-0000-33.png
00000014,299,1,1439479496570,1439479497091,927,409,0,0,0,3,2,1,32,0003-00-0000-91.png,0002-00-0000-44.png
00000014,300,1,1439479498092,1439479498594,862,371,0,0,0,2,1,1,21,0002-00-0001-40.png,0001-00-0001-12.png
00000014,301,1,1439479499621,1439479500368,899,456,0,0,0,5,4,1,54,0005-00-0000-10.png,0004-00-0000-91.png
00000014,302,1,1439479501514,1439479502164,370,360,0,0,0,3,4,1,34,0003-00-0001-88.png,0004-00-0000-24.png
00000014,303,1,1439479503342,1439479504083,357,399,0,0,0,2,3,1,23,0002-00-0000-32.png,0003-00-0001-63.png
00000014,304,1,1439479505015,1439479505031,504,462,0,0,0,1,2,1,12,0001-00-0001-87.png,0002-00-0000-75.png
00000014,305,1,1439479506259,1439479506784,900,410,0,0,0,2,1,1,21,0002-00-0000-61.png,0001-00-0001-58.png
00000014,306,0,1439479507751,1439479508325,386,476,0,0,0,4,3,1,43,0004-00-0001-84.png,0003-00-0001-24.png
00000014,307,1,1439479511277,1439479511301,478,436,0,0,0,4,5,1,45,0004-00-0001-30.png,0005-00-0000-33.png
00000014,308,1,1439479512282,1439479512901,912,383,0,0,0,5,4,1,54,0005-00-0001-44.png,0004-00-0001-66.png
00000014,309,0,1439479513997,1439479514521,918,400,0,0,0,2,3,1,23,0002-00-0000-12.png,0003-00-0001-35.png
00000014,310,1,1439479517576,1439479518363,973,394,0,0,0,3,2,1,32,0003-00-0001-56.png,0002-00-0001-95.png
00000014,311,0,1439479519351,1439479519896,937,424,0,0,0,3,4,1,34,0003-00-0000-65.png,0004-00-0001-64.png
00000014,312,0,1439479522926,1439479523521,903,494,0,0,0,1,2,1,12,0001-00-0001-68.png,0002-00-0000-72.png
00000014,313,1,1439479526857,1439479526869,523,506,0,0,0,2,3,1,23,0002-00-0000-22.png,0003-00-0000-58.png
00000014,314,0,1439479527926,1439479528599,900,469,0,0,0,3,4,1,34,0003-00-0000-37.png,0004-00-0001-25.png
00000014,315,0,1439479531733,1439479532323,362,394,0,0,0,4,3,1,43,0004-00-0001-99.png,0003-00-0001-23.png
00000014,316,1,1439479535337,1439479536016,898,482,0,0,0,5,4,1,54,0005-00-0000-36.png,0004-00-0000-83.png
00000014,317,1,1439479536939,1439479537563,401,397,0,0,0,1,2,1,12,0001-00-0000-66.png,0002-00-0000-78.png
00000014,318,0,1439479538489,1439479539222,376,397,0,0,0,2,1,1,21,0002-00-0001-44.png,0001-00-0001-75.png
00000014,319,1,1439479544423,1439479544986,931,401,0,0,0,3,2,1,32,0003-00-0000-50.png,0002-00-0001-40.png
00000014,320,1,1439479545962,1439479546542,376,358,0,0,0,4,5,1,45,0004-00-0000-22.png,0005-00-0001-10.png
00000014,321,0,1439479547525,1439479548034,927,424,0,0,0,4,5,1,45,0004-00-0000-03.png,0005-00-0000-77.png
00000014,322,0,1439479551068,1439479551645,324,422,0,0,0,2,1,1,21,0002-00-0001-50.png,0001-00-0000-59.png
00000014,323,1,1439479554776,1439479555483,928,495,0,0,0,3,2,1,32,0003-00-0000-86.png,0002-00-0001-12.png
00000014,324,1,1439479556447,1439479556463,520,462,0,0,0,2,3,1,23,0002-00-0001-00.png,0003-00-0000-22.png
00000014,325,1,1439479557532,1439479558025,925,410,0,0,0,5,4,1,54,0005-00-0001-53.png,0004-00-0000-14.png
00000014,326,1,1439479558992,1439479559551,344,386,0,0,0,3,4,1,34,0003-00-0001-88.png,0004-00-0000-92.png
00000014,327,1,1439479560536,1439479560556,503,532,0,0,0,1,2,1,12,0001-00-0000-31.png,0002-00-0001-96.png
00000014,328,1,1439479561666,1439479562196,896,407,0,0,0,4,3,1,43,0004-00-0000-48.png,0003-00-0001-38.png
00000014,329,1,1439479563238,1439479563837,905,376,0,0,0,4,3,1,43,0004-00-0001-79.png,0003-00-0001-74.png
00000014,330,0,1439479564858,1439479565514,308,377,0,0,0,2,1,1,21,0002-00-0001-73.png,0001-00-0000-18.png
00000014,331,1,1439479568764,1439479569308,956,439,0,0,0,5,4,1,54,0005-00-0001-64.png,0004-00-0000-45.png
00000014,332,1,1439479570313,1439479570904,342,398,0,0,0,2,3,1,23,0002-00-0000-10.png,0003-00-0000-70.png
00000014,333,1,1439479571853,1439479572578,330,380,0,0,0,4,5,1,45,0004-00-0000-84.png,0005-00-0001-90.png
00000014,334,1,1439479573583,1439479574088,353,405,0,0,0,1,2,1,12,0001-00-0000-28.png,0002-00-0000-58.png
00000014,335,0,1439479574991,1439479575800,948,392,0,0,0,3,4,1,34,0003-00-0001-70.png,0004-00-0001-77.png
00000014,336,0,1439479578779,1439479578795,521,466,0,0,0,3,2,1,32,0003-00-0000-85.png,0002-00-0001-74.png
00000014,337,0,1439479581781,1439479581789,498,470,0,0,0,4,3,1,43,0004-00-0000-18.png,0003-00-0001-70.png
00000014,338,1,1439479585141,1439479585153,521,427,0,0,0,3,4,1,34,0003-00-0001-39.png,0004-00-0001-33.png
00000014,339,1,1439479586135,1439479586703,341,392,0,0,0,2,3,1,23,0002-00-0001-32.png,0003-00-0000-83.png
00000014,340,1,1439479587623,1439479588428,927,382,0,0,0,2,1,1,21,0002-00-0000-02.png,0001-00-0001-68.png
00000014,341,1,1439479589372,1439479589912,339,392,0,0,0,1,2,1,12,0001-00-0000-29.png,0002-00-0000-64.png
00000014,342,1,1439479590935,1439479591641,376,358,0,0,0,4,5,1,45,0004-00-0001-90.png,0005-00-0000-31.png
00000014,343,0,1439479592666,1439479593234,352,418,0,0,0,5,4,1,54,0005-00-0001-44.png,0004-00-0001-26.png
00000014,344,1,1439479596561,1439479597193,920,415,0,0,0,3,2,1,32,0003-00-0000-53.png,0002-00-0000-13.png
00000014,345,1,1439479598100,1439479598666,897,538,0,0,0,4,3,1,43,0004-00-0001-72.png,0003-00-0000-83.png
00000014,346,0,1439479599599,1439479600289,944,435,0,0,0,1,2,1,12,0001-00-0001-94.png,0002-00-0001-69.png
00000014,347,1,1439479603755,1439479604509,918,509,0,0,0,5,4,1,54,0005-00-0000-33.png,0004-00-0000-42.png
00000014,348,1,1439479605497,1439479606074,342,386,0,0,0,4,5,1,45,0004-00-0001-96.png,0005-00-0000-39.png
00000014,349,1,1439479607034,1439479607050,503,490,0,0,0,3,4,1,34,0003-00-0001-18.png,0004-00-0000-58.png
00000014,350,0,1439479608096,1439479608663,905,453,0,0,0,2,3,1,23,0002-00-0001-88.png,0003-00-0000-85.png
00000014,351,0,1439479612639,1439479612647,515,480,0,0,0,3,2,1,32,0003-00-0001-61.png,0002-00-0000-80.png
00000014,352,0,1439479615670,1439479616195,338,394,0,0,0,2,1,1,21,0002-00-0001-65.png,0001-00-0001-32.png
00000014,353,0,1439479619375,1439479620051,950,404,0,0,0,4,5,1,45,0004-00-0001-32.png,0005-00-0000-55.png
00000014,354,0,1439479623224,1439479623828,939,424,0,0,0,1,2,1,12,0001-00-0001-18.png,0002-00-0001-35.png
00000014,355,1,1439479626971,1439479627665,918,509,0,0,0,3,2,1,32,0003-00-0000-06.png,0002-00-0000-60.png
00000014,356,0,1439479628791,1439479628823,478,447,0,0,0,5,4,1,54,0005-00-0001-26.png,0004-00-0001-39.png
00000014,357,1,1439479631810,1439479631839,507,536,0,0,0,2,3,1,23,0002-00-0001-70.png,0003-00-0001-19.png
00000014,358,0,1439479632829,1439479633516,340,382,0,0,0,2,1,1,21,0002-00-0000-20.png,0001-00-0001-08.png
00000014,359,0,1439479636685,1439479637872,366,410,0,0,0,4,3,1,43,0004-00-0000-92.png,0003-00-0001-97.png
00000014,360,0,1439479646977,1439479647442,971,425,0,0,0,3,4,1,34,0003-00-0001-70.png,0004-00-0001-46.png
00000014,361,1,1439479650636,1439479651160,927,414,0,0,0,2,1,1,21,0002-00-0001-77.png,0001-00-0000-00.png
00000014,362,1,1439479652149,1439479652711,389,490,0,0,0,4,5,1,45,0004-00-0000-06.png,0005-00-0001-58.png
00000014,363,0,1439479653678,1439479654229,900,501,0,0,0,3,4,1,34,0003-00-0000-26.png,0004-00-0000-44.png
00000014,364,0,1439479657126,1439479657860,899,475,0,0,0,2,3,1,23,0002-00-0001-87.png,0003-00-0000-88.png
00000014,365,1,1439479660871,1439479661783,963,398,0,0,0,3,2,1,32,0003-00-0000-05.png,0002-00-0000-23.png
00000014,366,0,1439479662658,1439479663252,368,400,0,0,0,4,3,1,43,0004-00-0000-34.png,0003-00-0000-09.png
00000014,367,0,1439479666205,1439479666742,876,548,0,0,0,1,2,1,12,0001-00-0000-32.png,0002-00-0001-96.png
00000014,368,0,1439479669628,1439479669636,519,443,0,0,0,5,4,1,54,0005-00-0001-28.png,0004-00-0000-31.png
00000014,369,1,1439479672547,1439479672555,511,351,0,0,0,4,5,1,45,0004-00-0001-21.png,0005-00-0000-57.png
00000014,370,1,1439479673525,1439479674056,353,390,0,0,0,2,3,1,23,0002-00-0000-71.png,0003-00-0001-00.png
00000014,371,1,1439479675045,1439479675513,877,349,0,0,0,4,3,1,43,0004-00-0001-44.png,0003-00-0001-31.png
00000014,372,1,1439479676448,1439479677025,325,370,0,0,0,1,2,1,12,0001-00-0001-22.png,0002-00-0001-45.png
00000014,373,0,1439479677881,1439479678791,925,411,0,0,0,3,4,1,34,0003-00-0000-36.png,0004-00-0000-60.png
00000014,374,1,1439479682045,1439479682571,874,554,0,0,0,2,1,1,21,0002-00-0000-96.png,0001-00-0000-49.png
00000014,375,0,1439479683550,1439479684255,334,367,0,0,0,3,2,1,32,0003-00-0000-23.png,0002-00-0001-58.png
00000014,376,1,1439479687716,1439479688265,905,444,0,0,0,5,4,1,54,0005-00-0001-49.png,0004-00-0001-39.png
00000014,377,1,1439479689228,1439479689860,366,370,0,0,0,2,3,1,23,0002-00-0000-90.png,0003-00-0000-03.png
00000014,378,0,1439479690767,1439479691631,947,394,0,0,0,4,5,1,45,0004-00-0001-42.png,0005-00-0001-02.png
00000014,379,0,1439479699437,1439479700060,331,374,0,0,0,4,3,1,43,0004-00-0000-62.png,0003-00-0000-05.png
00000014,380,1,1439479703216,1439479703232,504,450,0,0,0,3,4,1,34,0003-00-0001-62.png,0004-00-0001-09.png
00000014,381,1,1439479704258,1439479705218,880,374,0,0,0,5,4,1,54,0005-00-0001-05.png,0004-00-0001-31.png
00000014,382,0,1439479706195,1439479707172,351,396,0,0,0,3,2,1,32,0003-00-0001-33.png,0002-00-0001-72.png
00000014,383,0,1439479710029,1439479710660,349,392,0,0,0,2,1,1,21,0002-00-0000-44.png,0001-00-0000-96.png
00000014,384,0,1439479713800,1439479714421,927,414,0,0,0,1,2,1,12,0001-00-0001-82.png,0002-00-0000-48.png
00000014,385,1,1439479717736,1439479718295,329,389,0,0,0,2,3,1,23,0002-00-0001-14.png,0003-00-0000-64.png
00000014,386,1,1439479719314,1439479719857,910,399,0,0,0,2,1,1,21,0002-00-0000-56.png,0001-00-0001-49.png
00000014,387,0,1439479720844,1439479721373,950,387,0,0,0,3,4,1,34,0003-00-0000-28.png,0004-00-0000-24.png
00000014,388,1,1439479728738,1439479729495,929,410,0,0,0,4,3,1,43,0004-00-0000-46.png,0003-00-0000-35.png
00000014,389,1,1439479730468,1439479731054,361,407,0,0,0,1,2,1,12,0001-00-0001-30.png,0002-00-0000-19.png
00000014,390,1,1439479732129,1439479732636,919,529,0,0,0,5,4,1,54,0005-00-0001-67.png,0004-00-0000-24.png
00000014,391,0,1439479733647,1439479734152,401,410,0,0,0,3,2,1,32,0003-00-0000-37.png,0002-00-0001-63.png
00000014,392,1,1439479737237,1439479737827,364,420,0,0,0,4,5,1,45,0004-00-0000-86.png,0005-00-0000-02.png
00000014,393,1,1439479738838,1439479739417,926,423,0,0,0,4,3,1,43,0004-00-0001-17.png,0003-00-0001-52.png
00000014,394,1,1439479740346,1439479740912,899,543,0,0,0,5,4,1,54,0005-00-0000-25.png,0004-00-0000-68.png
00000014,395,1,1439479741879,1439479741895,504,480,0,0,0,3,4,1,34,0003-00-0000-75.png,0004-00-0001-58.png
00000014,396,1,1439479742872,1439479743426,877,523,0,0,0,3,2,1,32,0003-00-0000-84.png,0002-00-0000-03.png
00000014,397,0,1439479744383,1439479745138,879,454,0,0,0,4,5,1,45,0004-00-0001-16.png,0005-00-0000-65.png
00000014,398,1,1439479749124,1439479749660,872,374,0,0,0,2,1,1,21,0002-00-0001-98.png,0001-00-0000-71.png
00000014,399,1,1439479750679,1439479751304,360,415,0,0,0,2,3,1,23,0002-00-0001-66.png,0003-00-0001-57.png
00000014,400,0,1439479752253,1439479752756,925,450,0,0,0,1,2,1,12,0001-00-0001-87.png,0002-00-0001-07.png
00000014,401,0,1439479755942,1439479756471,951,435,0,0,0,3,4,1,34,0003-00-0001-73.png,0004-00-0000-37.png
00000014,402,0,1439479764870,1439479765324,913,514,0,0,0,2,3,1,23,0002-00-0000-66.png,0003-00-0001-32.png
00000014,403,0,1439479771205,1439479771823,927,413,0,0,0,1,2,1,12,0001-00-0000-32.png,0002-00-0001-52.png
00000014,404,1,1439479775305,1439479775950,975,371,0,0,0,4,3,1,43,0004-00-0000-03.png,0003-00-0001-53.png
00000014,405,0,1439479776995,1439479777551,922,445,0,0,0,4,5,1,45,0004-00-0001-66.png,0005-00-0000-77.png
00000014,406,1,1439479780581,1439479781197,924,408,0,0,0,2,1,1,21,0002-00-0001-04.png,0001-00-0001-54.png
00000014,407,1,1439479782137,1439479782733,901,397,0,0,0,5,4,1,54,0005-00-0000-33.png,0004-00-0001-20.png
00000014,408,0,1439479783704,1439479783720,521,459,0,0,0,3,2,1,32,0003-00-0000-18.png,0002-00-0001-44.png
00000014,409,1,1439479787700,1439479788246,365,381,0,0,0,2,3,1,23,0002-00-0001-30.png,0003-00-0000-20.png
00000014,410,0,1439479789655,1439479790171,900,436,0,0,0,1,2,1,12,0001-00-0000-86.png,0002-00-0001-07.png
00000014,411,1,1439479793244,1439479793839,878,495,0,0,0,5,4,1,54,0005-00-0001-85.png,0004-00-0001-63.png
00000014,412,0,1439479794734,1439479794750,512,469,0,0,0,4,3,1,43,0004-00-0000-17.png,0003-00-0001-70.png
00000014,413,1,1439479797647,1439479798216,924,412,0,0,0,3,2,1,32,0003-00-0001-16.png,0002-00-0000-08.png
00000014,414,0,1439479799157,1439479799695,881,453,0,0,0,4,5,1,45,0004-00-0000-07.png,0005-00-0000-82.png
00000014,415,1,1439479803794,1439479804314,875,371,0,0,0,2,1,1,21,0002-00-0001-29.png,0001-00-0001-90.png
00000014,416,0,1439479805280,1439479805810,899,411,0,0,0,3,4,1,34,0003-00-0001-63.png,0004-00-0001-18.png
00000014,417,1,1439479812268,1439479813028,901,424,0,0,0,4,3,1,43,0004-00-0001-25.png,0003-00-0000-89.png
00000014,418,0,1439479814133,1439479814668,906,548,0,0,0,3,4,1,34,0003-00-0000-88.png,0004-00-0000-32.png
00000014,419,0,1439479818689,1439479819342,282,402,0,0,0,5,4,1,54,0005-00-0000-05.png,0004-00-0000-57.png
00000014,420,1,1439479822506,1439479823135,930,375,0,0,0,2,1,1,21,0002-00-0000-93.png,0001-00-0001-55.png
00000014,421,0,1439479824115,1439479824740,905,402,0,0,0,4,5,1,45,0004-00-0001-70.png,0005-00-0001-83.png
00000014,422,0,1439479827662,1439479828277,906,349,0,0,0,1,2,1,12,0001-00-0000-26.png,0002-00-0000-66.png
00000014,423,1,1439479833552,1439479834366,385,482,0,0,0,2,3,1,23,0002-00-0000-30.png,0003-00-0000-77.png
00000014,424,1,1439479835336,1439479836108,953,371,0,0,0,3,2,1,32,0003-00-0001-19.png,0002-00-0001-11.png
00000014,425,1,1439479837083,1439479837788,879,428,0,0,0,5,4,1,54,0005-00-0000-58.png,0004-00-0000-93.png
00000014,426,1,1439479838805,1439479839606,335,349,0,0,0,4,5,1,45,0004-00-0000-46.png,0005-00-0001-41.png
00000014,427,1,1439479840632,1439479841157,896,420,0,0,0,3,2,1,32,0003-00-0001-38.png,0002-00-0001-07.png
00000014,428,0,1439479842162,1439479842178,469,462,0,0,0,4,3,1,43,0004-00-0000-22.png,0003-00-0001-90.png
00000014,429,1,1439479845197,1439479845965,383,366,0,0,0,3,4,1,34,0003-00-0000-03.png,0004-00-0001-77.png
00000014,430,1,1439479846994,1439479847010,504,475,0,0,0,2,3,1,23,0002-00-0000-11.png,0003-00-0000-33.png
00000014,431,1,1439479848058,1439479848559,921,414,0,0,0,2,1,1,21,0002-00-0000-70.png,0001-00-0000-71.png
00000014,432,0,1439479849613,1439479850092,893,427,0,0,0,1,2,1,12,0001-00-0000-52.png,0002-00-0001-50.png
00000014,433,1,1439479853126,1439479853650,390,415,0,0,0,1,2,1,12,0001-00-0000-79.png,0002-00-0001-29.png
00000014,434,1,1439479854611,1439479854623,504,436,0,0,0,4,5,1,45,0004-00-0000-63.png,0005-00-0001-62.png
00000014,435,1,1439479855648,1439479856221,370,391,0,0,0,2,3,1,23,0002-00-0000-10.png,0003-00-0001-53.png
00000014,436,1,1439479857254,1439479857850,337,383,0,0,0,3,4,1,34,0003-00-0001-90.png,0004-00-0000-84.png
00000014,437,1,1439479858814,1439479859421,900,449,0,0,0,3,2,1,32,0003-00-0001-63.png,0002-00-0001-14.png
00000014,438,1,1439479860507,1439479861027,887,398,0,0,0,4,3,1,43,0004-00-0000-68.png,0003-00-0001-46.png
00000014,439,0,1439479862010,1439479862030,484,484,0,0,0,5,4,1,54,0005-00-0000-86.png,0004-00-0001-34.png
00000014,440,0,1439479865159,1439479865745,401,436,0,0,0,2,1,1,21,0002-00-0000-23.png,0001-00-0001-04.png
00000014,441,1,1439479877226,1439479877963,926,410,0,0,0,5,4,1,54,0005-00-0000-00.png,0004-00-0001-59.png
00000014,442,1,1439479878969,1439479879568,327,396,0,0,0,1,2,1,12,0001-00-0000-35.png,0002-00-0001-59.png
00000014,443,1,1439479880476,1439479881706,955,401,0,0,0,2,1,1,21,0002-00-0001-53.png,0001-00-0000-10.png
00000014,444,1,1439479882556,1439479883206,917,484,0,0,0,3,2,1,32,0003-00-0000-10.png,0002-00-0000-52.png
00000014,445,1,1439479884086,1439479884678,369,411,0,0,0,2,3,1,23,0002-00-0000-21.png,0003-00-0000-99.png
00000014,446,0,1439479885514,1439479885534,501,485,0,0,0,4,3,1,43,0004-00-0001-85.png,0003-00-0001-18.png
00000014,447,1,1439479888747,1439479889419,391,476,0,0,0,3,4,1,34,0003-00-0000-64.png,0004-00-0001-48.png
00000014,448,0,1439479890329,1439479890836,895,395,0,0,0,4,5,1,45,0004-00-0000-08.png,0005-00-0000-10.png
00000014,449,1,1439479896123,1439479896617,350,397,0,0,0,1,2,1,12,0001-00-0001-09.png,0002-00-0001-56.png
00000014,450,0,1439479897490,1439479898013,905,401,0,0,0,2,3,1,23,0002-00-0000-27.png,0003-00-0001-84.png
00000014,451,0,1439479903126,1439479903714,401,477,0,0,0,2,1,1,21,0002-00-0000-28.png,0001-00-0001-95.png
00000014,452,1,1439479907628,1439479908259,954,375,0,0,0,5,4,1,54,0005-00-0001-93.png,0004-00-0000-61.png
00000014,453,1,1439479909287,1439479909986,927,391,0,0,0,4,3,1,43,0004-00-0000-54.png,0003-00-0001-57.png
00000014,454,1,1439479910848,1439479910868,490,462,0,0,0,4,5,1,45,0004-00-0000-57.png,0005-00-0001-33.png
00000014,455,1,1439479911952,1439479912636,350,384,0,0,0,3,4,1,34,0003-00-0000-19.png,0004-00-0000-10.png
00000014,456,1,1439479913490,1439479914053,911,399,0,0,0,3,2,1,32,0003-00-0001-41.png,0002-00-0000-57.png
00000014,457,1,1439479914971,1439479915464,887,398,0,0,0,2,1,1,21,0002-00-0001-56.png,0001-00-0000-30.png
00000014,458,0,1439479916334,1439479917060,910,400,0,0,0,2,3,1,23,0002-00-0001-12.png,0003-00-0000-59.png
00000014,459,1,1439479920108,1439479920773,939,371,0,0,0,4,3,1,43,0004-00-0000-77.png,0003-00-0001-42.png
00000014,460,1,1439479921741,1439479922281,393,476,0,0,0,1,2,1,12,0001-00-0001-53.png,0002-00-0001-08.png
00000014,461,0,1439479923202,1439479923218,487,461,0,0,0,3,2,1,32,0003-00-0000-36.png,0002-00-0000-69.png
00000014,462,1,1439479928885,1439479929670,925,387,0,0,0,5,4,1,54,0005-00-0001-34.png,0004-00-0000-57.png
00000014,463,1,1439479930647,1439479930663,504,462,0,0,0,4,5,1,45,0004-00-0000-75.png,0005-00-0000-12.png
00000014,464,0,1439479931677,1439479932197,882,421,0,0,0,3,4,1,34,0003-00-0000-27.png,0004-00-0001-03.png
00000014,465,1,1439479935486,1439479936179,383,463,0,0,0,4,5,1,45,0004-00-0001-51.png,0005-00-0001-66.png
00000014,466,0,1439479937095,1439479937792,895,498,0,0,0,1,2,1,12,0001-00-0001-05.png,0002-00-0000-41.png
00000014,467,0,1439479946034,1439479946763,952,423,0,0,0,2,3,1,23,0002-00-0001-86.png,0003-00-0000-73.png
00000014,468,1,1439479949798,1439479950332,385,495,0,0,0,3,4,1,34,0003-00-0000-64.png,0004-00-0001-26.png
00000014,469,1,1439479951349,1439479951871,877,520,0,0,0,5,4,1,54,0005-00-0001-48.png,0004-00-0001-85.png
00000014,470,1,1439479952797,1439479953376,900,488,0,0,0,4,3,1,43,0004-00-0000-26.png,0003-00-0000-14.png
00000014,471,1,1439479954686,1439479955185,863,501,0,0,0,3,2,1,32,0003-00-0000-55.png,0002-00-0001-32.png
00000014,472,1,1439479956088,1439479956574,866,517,0,0,0,2,1,1,21,0002-00-0001-40.png,0001-00-0001-19.png
00000014,473,1,1439479957500,1439479958028,911,414,0,0,0,4,3,1,43,0004-00-0001-53.png,0003-00-0000-21.png
00000014,474,1,1439479958927,1439479959416,904,427,0,0,0,2,1,1,21,0002-00-0000-33.png,0001-00-0001-64.png
00000014,475,0,1439479960318,1439479960901,884,425,0,0,0,2,3,1,23,0002-00-0001-05.png,0003-00-0001-18.png
00000014,476,1,1439479975348,1439479975776,875,397,0,0,0,5,4,1,54,0005-00-0001-74.png,0004-00-0001-30.png
00000014,477,0,1439479976776,1439479977357,333,393,0,0,0,3,2,1,32,0003-00-0000-68.png,0002-00-0001-94.png
00000014,478,0,1439479980848,1439479981829,910,444,0,0,0,4,5,1,45,0004-00-0000-56.png,0005-00-0001-65.png
00000014,479,0,1439479984683,1439479985352,898,474,0,0,0,1,2,1,12,0001-00-0001-54.png,0002-00-0000-95.png
00000014,480,1,1439479991761,1439479992324,291,396,0,0,0,3,4,1,34,0003-00-0001-13.png,0004-00-0000-30.png
00000014,481,0,1439479993373,1439479994189,913,411,0,0,0,2,3,1,23,0002-00-0000-54.png,0003-00-0000-07.png
00000014,482,0,1439479997049,1439479997665,905,348,0,0,0,4,5,1,45,0004-00-0000-51.png,0005-00-0000-36.png
00000014,483,1,1439480005889,1439480006407,931,419,0,0,0,5,4,1,54,0005-00-0000-24.png,0004-00-0001-26.png
00000014,484,0,1439480007364,1439480007378,521,474,0,0,0,3,2,1,32,0003-00-0001-16.png,0002-00-0001-43.png
00000014,485,0,1439480012713,1439480013373,902,495,0,0,0,1,2,1,12,0001-00-0001-46.png,0002-00-0001-29.png
00000014,486,0,1439480016431,1439480016467,485,529,0,0,0,4,3,1,43,0004-00-0000-20.png,0003-00-0001-06.png
00000014,487,1,1439480020008,1439480020024,504,472,0,0,0,3,4,1,34,0003-00-0000-94.png,0004-00-0000-22.png
00000014,488,1,1439480020994,1439480021461,926,436,0,0,0,2,1,1,21,0002-00-0001-40.png,0001-00-0001-67.png
00000014,489,1,1439480022386,1439480022402,504,474,0,0,0,4,5,1,45,0004-00-0001-83.png,0005-00-0000-71.png
00000014,490,1,1439480023524,1439480024286,867,477,0,0,0,2,1,1,21,0002-00-0001-79.png,0001-00-0000-21.png
00000014,491,1,1439480025196,1439480025710,356,410,0,0,0,2,3,1,23,0002-00-0001-89.png,0003-00-0001-89.png
00000014,492,1,1439480026630,1439480027513,878,386,0,0,0,3,2,1,32,0003-00-0001-41.png,0002-00-0000-35.png
00000014,493,1,1439480028417,1439480028916,899,410,0,0,0,5,4,1,54,0005-00-0000-70.png,0004-00-0001-54.png
00000014,494,1,1439480029894,1439480030378,878,468,0,0,0,4,3,1,43,0004-00-0000-39.png,0003-00-0000-93.png
00000014,495,0,1439480031265,1439480031870,896,426,0,0,0,1,2,1,12,0001-00-0001-15.png,0002-00-0001-73.png
00000014,496,0,1439480039333,1439480040106,899,490,0,0,0,3,4,1,34,0003-00-0000-75.png,0004-00-0001-88.png
00000014,497,1,1439480043825,1439480044350,868,481,0,0,0,5,4,1,54,0005-00-0001-50.png,0004-00-0001-25.png
00000014,498,1,1439480045296,1439480045948,954,403,0,0,0,3,2,1,32,0003-00-0001-36.png,0002-00-0001-85.png
00000014,499,1,1439480046907,1439480047483,867,534,0,0,0,2,1,1,21,0002-00-0001-83.png,0001-00-0001-07.png
00000014,500,1,1439480048396,1439480048946,865,537,0,0,0,4,3,1,43,0004-00-0000-09.png,0003-00-0000-85.png
00000014,501,1,1439480049867,1439480050422,413,518,0,0,0,1,2,1,12,0001-00-0001-77.png,0002-00-0001-25.png
00000014,502,1,1439480051453,1439480051961,386,411,0,0,0,4,5,1,45,0004-00-0001-43.png,0005-00-0000-26.png
00000014,503,0,1439480052785,1439480053351,875,437,0,0,0,3,4,1,34,0003-00-0000-16.png,0004-00-0000-62.png
00000014,504,0,1439480056495,1439480057237,930,374,0,0,0,2,3,1,23,0002-00-0000-35.png,0003-00-0000-98.png
00000014,505,1,1439480061057,1439480061581,401,527,0,0,0,3,4,1,34,0003-00-0000-73.png,0004-00-0001-86.png
00000014,506,0,1439480062513,1439480063530,372,403,0,0,0,4,3,1,43,0004-00-0001-21.png,0003-00-0001-71.png
00000014,507,1,1439480067566,1439480068272,888,475,0,0,0,5,4,1,54,0005-00-0001-10.png,0004-00-0000-81.png
00000014,508,0,1439480069180,1439480069232,487,486,0,0,0,2,1,1,21,0002-00-0001-60.png,0001-00-0001-49.png
00000014,509,1,1439480072434,1439480072983,400,434,0,0,0,2,3,1,23,0002-00-0000-34.png,0003-00-0000-05.png
00000014,510,1,1439480073875,1439480074420,904,429,0,0,0,3,2,1,32,0003-00-0000-24.png,0002-00-0001-85.png
00000014,511,1,1439480075254,1439480075274,504,472,0,0,0,1,2,1,12,0001-00-0000-76.png,0002-00-0000-05.png
00000014,512,0,1439480076279,1439480077102,902,469,0,0,0,4,5,1,45,0004-00-0001-81.png,0005-00-0000-34.png
00000014,513,1,1439480091587,1439480092070,895,524,0,0,0,3,2,1,32,0003-00-0000-39.png,0002-00-0001-50.png
00000014,514,0,1439480093018,1439480093613,904,427,0,0,0,1,2,1,12,0001-00-0000-04.png,0002-00-0000-04.png
00000014,515,1,1439480101895,1439480102374,341,394,0,0,0,2,3,1,23,0002-00-0001-46.png,0003-00-0000-97.png
00000014,516,0,1439480103314,1439480103849,875,515,0,0,0,3,4,1,34,0003-00-0001-29.png,0004-00-0000-35.png
00000014,517,1,1439480107767,1439480108497,376,332,0,0,0,4,5,1,45,0004-00-0000-68.png,0005-00-0000-06.png
00000014,518,1,1439480109416,1439480109924,867,485,0,0,0,4,3,1,43,0004-00-0000-25.png,0003-00-0001-13.png
00000014,519,0,1439480111264,1439480111948,380,407,0,0,0,5,4,1,54,0005-00-0000-45.png,0004-00-0000-11.png
00000014,520,0,1439480116823,1439480117403,387,476,0,0,0,2,1,1,21,0002-00-0001-28.png,0001-00-0000-22.png
00000014,521,1,1439480123230,1439480123763,313,393,0,0,0,4,5,1,45,0004-00-0000-22.png,0005-00-0000-45.png
00000014,522,1,1439480124711,1439480125262,408,505,0,0,0,1,2,1,12,0001-00-0000-17.png,0002-00-0000-90.png
00000014,523,1,1439480126191,1439480126722,929,389,0,0,0,2,1,1,21,0002-00-0000-50.png,0001-00-0001-73.png
00000014,524,1,1439480127624,1439480127648,507,478,0,0,0,3,4,1,34,0003-00-0001-19.png,0004-00-0001-10.png
00000014,525,1,1439480128713,1439480129516,888,398,0,0,0,4,3,1,43,0004-00-0000-78.png,0003-00-0000-88.png
00000014,526,1,1439480130453,1439480130967,875,408,0,0,0,3,2,1,32,0003-00-0000-10.png,0002-00-0000-25.png
00000014,527,1,1439480131925,1439480132468,900,436,0,0,0,5,4,1,54,0005-00-0000-46.png,0004-00-0000-00.png
00000014,528,1,1439480133376,1439480134061,412,398,0,0,0,2,3,1,23,0002-00-0001-83.png,0003-00-0000-02.png
00000014,529,1,1439480134956,1439480135595,902,416,0,0,0,2,1,1,21,0002-00-0000-98.png,0001-00-0000-35.png
00000014,530,0,1439480136462,1439480137080,896,394,0,0,0,1,2,1,12,0001-00-0000-91.png,0002-00-0001-63.png
00000014,531,0,1439480149958,1439480150965,885,444,0,0,0,4,5,1,45,0004-00-0001-72.png,0005-00-0000-18.png
00000014,532,1,1439480153812,1439480154439,870,368,0,0,0,3,2,1,32,0003-00-0001-08.png,0002-00-0000-26.png
00000014,533,1,1439480155457,1439480156048,906,444,0,0,0,5,4,1,54,0005-00-0000-45.png,0004-00-0001-56.png
00000014,534,1,1439480156946,1439480157546,350,358,0,0,0,3,4,1,34,0003-00-0001-13.png,0004-00-0000-80.png
00000014,535,0,1439480158487,1439480159085,900,384,0,0,0,2,3,1,23,0002-00-0000-10.png,0003-00-0000-14.png
00000014,536,1,1439480162192,1439480162842,929,393,0,0,0,4,3,1,43,0004-00-0001-15.png,0003-00-0000-42.png
00000014,537,0,1439480163783,1439480164320,909,430,0,0,0,3,4,1,34,0003-00-0000-04.png,0004-00-0001-64.png
00000014,538,1,1439480167560,1439480168472,924,534,0,0,0,3,2,1,32,0003-00-0000-80.png,0002-00-0000-53.png
00000014,539,1,1439480169369,1439480170540,951,410,0,0,0,2,1,1,21,0002-00-0000-07.png,0001-00-0001-79.png
00000014,540,0,1439480171456,1439480172050,354,410,0,0,0,4,3,1,43,0004-00-0000-29.png,0003-00-0000-09.png
00000014,541,1,1439480175630,1439480176149,324,371,0,0,0,2,3,1,23,0002-00-0000-21.png,0003-00-0001-70.png
00000014,542,0,1439480177064,1439480177827,883,405,0,0,0,4,5,1,45,0004-00-0000-94.png,0005-00-0001-43.png
00000014,543,1,1439480180727,1439480181422,978,360,0,0,0,5,4,1,54,0005-00-0000-29.png,0004-00-0000-29.png
00000014,544,1,1439480182348,1439480182901,375,401,0,0,0,1,2,1,12,0001-00-0001-93.png,0002-00-0000-89.png
00000014,545,1,1439480183839,1439480184496,347,435,0,0,0,4,5,1,45,0004-00-0000-51.png,0005-00-0001-85.png
00000014,546,0,1439480185368,1439480185912,428,516,0,0,0,3,2,1,32,0003-00-0000-61.png,0002-00-0000-36.png
00000014,547,1,1439480188813,1439480189424,877,490,0,0,0,4,3,1,43,0004-00-0001-29.png,0003-00-0001-82.png
00000014,548,1,1439480190357,1439480190853,381,425,0,0,0,2,3,1,23,0002-00-0000-84.png,0003-00-0001-19.png
00000014,549,0,1439480191759,1439480191767,504,503,0,0,0,5,4,1,54,0005-00-0000-40.png,0004-00-0001-92.png
00000014,550,1,1439480194839,1439480195312,323,394,0,0,0,3,4,1,34,0003-00-0001-26.png,0004-00-0001-21.png
00000014,551,1,1439480196147,1439480196784,363,396,0,0,0,1,2,1,12,0001-00-0001-05.png,0002-00-0000-30.png
00000014,552,1,1439480197968,1439480198519,887,561,0,0,0,2,1,1,21,0002-00-0001-85.png,0001-00-0001-74.png
00000014,553,1,1439480199356,1439480199997,873,424,0,0,0,2,1,1,21,0002-00-0000-37.png,0001-00-0001-56.png
00000014,554,0,1439480200827,1439480201559,377,418,0,0,0,3,2,1,32,0003-00-0001-66.png,0002-00-0000-85.png
00000014,555,0,1439480206952,1439480207444,930,428,0,0,0,3,4,1,34,0003-00-0000-86.png,0004-00-0001-61.png
00000014,556,1,1439480210830,1439480211391,325,423,0,0,0,2,3,1,23,0002-00-0001-73.png,0003-00-0000-44.png
00000014,557,0,1439480212248,1439480212863,408,557,0,0,0,4,3,1,43,0004-00-0001-18.png,0003-00-0001-33.png
00000014,558,1,1439480215858,1439480216403,338,409,0,0,0,1,2,1,12,0001-00-0000-50.png,0002-00-0000-67.png
00000014,559,1,1439480217285,1439480217916,375,426,0,0,0,4,5,1,45,0004-00-0000-05.png,0005-00-0000-62.png
00000014,560,1,1439480218839,1439480219387,901,397,0,0,0,5,4,1,54,0005-00-0000-86.png,0004-00-0001-84.png
00000014,561,1,1439480220339,1439480220359,504,462,0,0,0,1,2,1,12,0001-00-0000-69.png,0002-00-0001-38.png
00000014,562,1,1439480221432,1439480221920,894,395,0,0,0,5,4,1,54,0005-00-0000-95.png,0004-00-0001-15.png
00000014,563,0,1439480222912,1439480223947,343,399,0,0,0,3,2,1,32,0003-00-0000-95.png,0002-00-0001-36.png
00000014,564,1,1439480226963,1439480227507,925,386,0,0,0,2,1,1,21,0002-00-0001-86.png,0001-00-0000-35.png
00000014,565,1,1439480228408,1439480228416,523,481,0,0,0,2,3,1,23,0002-00-0001-48.png,0003-00-0000-62.png
00000014,566,0,1439480229810,1439480230386,880,402,0,0,0,4,5,1,45,0004-00-0001-88.png,0005-00-0000-08.png
00000014,567,1,1439480233288,1439480233890,401,397,0,0,0,3,4,1,34,0003-00-0001-68.png,0004-00-0000-26.png
00000014,568,1,1439480234821,1439480235331,870,420,0,0,0,4,3,1,43,0004-00-0000-08.png,0003-00-0001-64.png
00000014,569,0,1439480236301,1439480236838,406,513,0,0,0,4,3,1,43,0004-00-0000-52.png,0003-00-0001-80.png
00000014,570,0,1439480240513,1439480241130,248,477,0,0,0,3,2,1,32,0003-00-0001-11.png,0002-00-0001-06.png
00000014,571,0,1439480244191,1439480244931,926,385,0,0,0,1,2,1,12,0001-00-0001-48.png,0002-00-0000-22.png
00000014,572,1,1439480247926,1439480248491,376,501,0,0,0,2,3,1,23,0002-00-0000-06.png,0003-00-0000-97.png
00000014,573,1,1439480249335,1439480249873,938,398,0,0,0,2,1,1,21,0002-00-0001-29.png,0001-00-0001-34.png
00000014,574,0,1439480250714,1439480251221,865,525,0,0,0,3,4,1,34,0003-00-0001-24.png,0004-00-0001-77.png
00000014,575,0,1439480256335,1439480257397,360,396,0,0,0,5,4,1,54,0005-00-0000-25.png,0004-00-0000-11.png
00000014,576,0,1439480260245,1439480260955,888,358,0,0,0,4,5,1,45,0004-00-0001-28.png,0005-00-0001-45.png
00000014,577,1,1439480264045,1439480264914,388,502,0,0,0,2,3,1,23,0002-00-0000-49.png,0003-00-0001-61.png
00000014,578,1,1439480265855,1439480266461,345,412,0,0,0,3,4,1,34,0003-00-0001-45.png,0004-00-0001-36.png
00000014,579,0,1439480267408,1439480267424,504,488,0,0,0,3,2,1,32,0003-00-0000-98.png,0002-00-0001-08.png
00000014,580,1,1439480270584,1439480271085,324,403,0,0,0,1,2,1,12,0001-00-0000-38.png,0002-00-0001-42.png
00000014,581,1,1439480272027,1439480272614,902,492,0,0,0,2,1,1,21,0002-00-0001-07.png,0001-00-0001-45.png
00000014,582,1,1439480273941,1439480274598,915,408,0,0,0,5,4,1,54,0005-00-0001-33.png,0004-00-0001-84.png
00000014,583,1,1439480275493,1439480276186,350,370,0,0,0,4,5,1,45,0004-00-0001-28.png,0005-00-0001-37.png
00000014,584,1,1439480277106,1439480277758,875,411,0,0,0,4,3,1,43,0004-00-0001-15.png,0003-00-0001-96.png
00000014,585,1,1439480278654,1439480278670,504,477,0,0,0,4,5,1,45,0004-00-0000-89.png,0005-00-0001-33.png
00000014,586,0,1439480279785,1439480280484,876,408,0,0,0,3,4,1,34,0003-00-0001-54.png,0004-00-0001-79.png
00000014,587,0,1439480283626,1439480283642,481,447,0,0,0,2,1,1,21,0002-00-0000-46.png,0001-00-0001-52.png
00000014,588,1,1439480286794,1439480287301,334,404,0,0,0,1,2,1,12,0001-00-0001-39.png,0002-00-0000-22.png
00000014,589,0,1439480288151,1439480288175,514,462,0,0,0,5,4,1,54,0005-00-0001-34.png,0004-00-0000-70.png
00000014,590,1,1439480291108,1439480291652,342,390,0,0,0,2,3,1,23,0002-00-0000-05.png,0003-00-0001-70.png
00000014,591,1,1439480292566,1439480293128,896,407,0,0,0,4,3,1,43,0004-00-0000-93.png,0003-00-0001-04.png
00000014,592,0,1439480294525,1439480295146,326,362,0,0,0,3,2,1,32,0003-00-0001-78.png,0002-00-0001-95.png
00000014,593,1,1439480298183,1439480298843,882,397,0,0,0,2,1,1,21,0002-00-0000-16.png,0001-00-0001-70.png
00000014,594,0,1439480299722,1439480300383,360,397,0,0,0,3,2,1,32,0003-00-0001-56.png,0002-00-0001-84.png
00000014,595,1,1439480303351,1439480303892,402,409,0,0,0,2,3,1,23,0002-00-0001-46.png,0003-00-0001-34.png
00000014,596,1,1439480304751,1439480304771,504,514,0,0,0,1,2,1,12,0001-00-0001-83.png,0002-00-0001-37.png
00000014,597,1,1439480305761,1439480306279,898,386,0,0,0,4,3,1,43,0004-00-0000-89.png,0003-00-0000-42.png
00000014,598,0,1439480307247,1439480308066,879,402,0,0,0,3,4,1,34,0003-00-0000-18.png,0004-00-0000-07.png
00000014,599,1,1439480311013,1439480311567,880,376,0,0,0,5,4,1,54,0005-00-0000-28.png,0004-00-0001-16.png
00000014,600,1,1439480312545,1439480313208,390,502,0,0,0,4,5,1,45,0004-00-0001-97.png,0005-00-0001-97.png
00000014,601,1,1439480314123,1439480314657,350,410,0,0,0,2,3,1,23,0002-00-0000-30.png,0003-00-0001-56.png
00000014,602,0,1439480315613,1439480316142,373,431,0,0,0,3,2,1,32,0003-00-0001-11.png,0002-00-0001-83.png
00000014,603,1,1439480319231,1439480319734,401,527,0,0,0,4,5,1,45,0004-00-0000-47.png,0005-00-0001-45.png
00000014,604,1,1439480320631,1439480320639,513,488,0,0,0,3,4,1,34,0003-00-0001-65.png,0004-00-0000-72.png
00000014,605,1,1439480321665,1439480322180,876,417,0,0,0,5,4,1,54,0005-00-0001-18.png,0004-00-0000-79.png
00000014,606,0,1439480323109,1439480323740,379,405,0,0,0,2,1,1,21,0002-00-0000-98.png,0001-00-0001-51.png
00000014,607,1,1439480326862,1439480327515,915,423,0,0,0,4,3,1,43,0004-00-0001-82.png,0003-00-0000-19.png
00000014,608,1,1439480328911,1439480329520,345,420,0,0,0,1,2,1,12,0001-00-0001-47.png,0002-00-0000-22.png
00000014,609,0,1439480330411,1439480330947,926,428,0,0,0,2,3,1,23,0002-00-0000-36.png,0003-00-0000-37.png
00000014,610,0,1439480334145,1439480334810,877,415,0,0,0,1,2,1,12,0001-00-0000-32.png,0002-00-0000-33.png
00000014,611,1,1439480337676,1439480338212,334,405,0,0,0,4,5,1,45,0004-00-0000-47.png,0005-00-0000-97.png
00000014,612,1,1439480339127,1439480339679,880,402,0,0,0,3,2,1,32,0003-00-0000-39.png,0002-00-0000-17.png
00000014,613,0,1439480340647,1439480341417,347,389,0,0,0,5,4,1,54,0005-00-0000-21.png,0004-00-0001-09.png
00000014,614,1,1439480344648,1439480345168,925,397,0,0,0,4,3,1,43,0004-00-0000-44.png,0003-00-0001-31.png
00000014,615,1,1439480346029,1439480346645,324,397,0,0,0,3,4,1,34,0003-00-0001-63.png,0004-00-0001-24.png
00000014,616,0,1439480347512,1439480348192,437,523,0,0,0,2,1,1,21,0002-00-0001-16.png,0001-00-0000-43.png
00000014,617,0,1439480351322,1439480351346,521,507,0,0,0,4,3,1,43,0004-00-0001-44.png,0003-00-0000-42.png
00000014,618,1,1439480354471,1439480355019,922,446,0,0,0,3,2,1,32,0003-00-0001-98.png,0002-00-0001-06.png
00000014,619,1,1439480355977,1439480356654,911,399,0,0,0,5,4,1,54,0005-00-0000-87.png,0004-00-0000-42.png
00000014,620,0,1439480358106,1439480358605,401,424,0,0,0,2,1,1,21,0002-00-0001-73.png,0001-00-0001-76.png
00000014,621,1,1439480361632,1439480362305,391,493,0,0,0,1,2,1,12,0001-00-0000-14.png,0002-00-0000-98.png
00000014,622,0,1439480363356,1439480363916,890,453,0,0,0,3,4,1,34,0003-00-0001-56.png,0004-00-0001-39.png
00000014,623,1,1439480367164,1439480367761,332,401,0,0,0,4,5,1,45,0004-00-0000-09.png,0005-00-0001-90.png
00000014,624,1,1439480368683,1439480369196,373,416,0,0,0,2,3,1,23,0002-00-0001-05.png,0003-00-0001-34.png
00000014,625,0,1439480370103,1439480370751,925,410,0,0,0,2,3,1,23,0002-00-0000-85.png,0003-00-0001-76.png
00000014,626,0,1439480373830,1439480373866,512,497,0,0,0,2,1,1,21,0002-00-0000-59.png,0001-00-0001-36.png
00000014,627,0,1439480376781,1439480377497,951,385,0,0,0,4,5,1,45,0004-00-0001-96.png,0005-00-0000-94.png
00000014,628,0,1439480380349,1439480380365,481,460,0,0,0,5,4,1,54,0005-00-0001-81.png,0004-00-0001-12.png
00000014,629,1,1439480384368,1439480384861,364,490,0,0,0,3,4,1,34,0003-00-0001-11.png,0004-00-0000-42.png
00000014,630,0,1439480385787,1439480386423,401,410,0,0,0,3,2,1,32,0003-00-0000-58.png,0002-00-0000-72.png
00000014,631,0,1439480389497,1439480390111,937,398,0,0,0,1,2,1,12,0001-00-0000-97.png,0002-00-0000-54.png
00000014,632,0,1439480404295,1439480404793,316,391,0,0,0,4,3,1,43,0004-00-0001-61.png,0003-00-0001-70.png
00000014,633,0,1439480407626,1439480408149,401,384,0,0,0,3,2,1,32,0003-00-0001-84.png,0002-00-0001-63.png
00000014,634,1,1439480411128,1439480411652,924,405,0,0,0,5,4,1,54,0005-00-0001-65.png,0004-00-0001-60.png
00000014,635,1,1439480412608,1439480413193,414,499,0,0,0,1,2,1,12,0001-00-0001-43.png,0002-00-0000-85.png
00000014,636,1,1439480414100,1439480414927,944,400,0,0,0,2,1,1,21,0002-00-0001-22.png,0001-00-0001-38.png
00000014,637,0,1439480415810,1439480416357,932,411,0,0,0,2,3,1,23,0002-00-0000-87.png,0003-00-0001-59.png
00000014,638,1,1439480419504,1439480420008,401,436,0,0,0,3,4,1,34,0003-00-0000-89.png,0004-00-0001-66.png
00000014,639,1,1439480420907,1439480421466,904,458,0,0,0,4,3,1,43,0004-00-0001-71.png,0003-00-0001-41.png
00000014,640,1,1439480422337,1439480423107,325,384,0,0,0,4,5,1,45,0004-00-0001-13.png,0005-00-0000-40.png
00000014,641,0,1439480423972,1439480424718,325,448,0,0,0,4,3,1,43,0004-00-0001-97.png,0003-00-0000-72.png
00000014,642,1,1439480427662,1439480428217,877,494,0,0,0,5,4,1,54,0005-00-0001-07.png,0004-00-0000-75.png
00000014,643,1,1439480429143,1439480429816,428,541,0,0,0,4,5,1,45,0004-00-0000-00.png,0005-00-0001-29.png
00000014,644,1,1439480430704,1439480431272,406,520,0,0,0,3,4,1,34,0003-00-0001-82.png,0004-00-0001-83.png
00000014,645,0,1439480432215,1439480432756,401,422,0,0,0,2,1,1,21,0002-00-0000-93.png,0001-00-0000-69.png
00000014,646,0,1439480436425,1439480436926,900,450,0,0,0,2,3,1,23,0002-00-0001-00.png,0003-00-0000-13.png
00000014,647,1,1439480439925,1439480440516,356,397,0,0,0,1,2,1,12,0001-00-0000-42.png,0002-00-0001-75.png
00000014,648,1,1439480441374,1439480441962,926,409,0,0,0,3,2,1,32,0003-00-0001-72.png,0002-00-0000-63.png
00000014,649,1,1439480442867,1439480443419,898,431,0,0,0,3,2,1,32,0003-00-0000-85.png,0002-00-0000-72.png
00000014,650,1,1439480444278,1439480445121,948,408,0,0,0,5,4,1,54,0005-00-0000-31.png,0004-00-0001-69.png
00000014,651,1,1439480445994,1439480446026,478,488,0,0,0,3,4,1,34,0003-00-0001-35.png,0004-00-0000-13.png
00000014,652,1,1439480447220,1439480447985,402,397,0,0,0,1,2,1,12,0001-00-0001-86.png,0002-00-0001-46.png
00000014,653,1,1439480449098,1439480449618,874,463,0,0,0,2,1,1,21,0002-00-0000-56.png,0001-00-0000-52.png
00000014,654,1,1439480450609,1439480451273,387,475,0,0,0,2,3,1,23,0002-00-0000-18.png,0003-00-0000-16.png
00000014,655,1,1439480452169,1439480452805,365,419,0,0,0,4,5,1,45,0004-00-0000-11.png,0005-00-0001-94.png
00000014,656,0,1439480454156,1439480454760,360,444,0,0,0,4,3,1,43,0004-00-0000-16.png,0003-00-0000-76.png
00000014,657,1,1439480461351,1439480461826,870,498,0,0,0,2,1,1,21,0002-00-0001-82.png,0001-00-0001-64.png
00000014,658,0,1439480462809,1439480463330,357,393,0,0,0,5,4,1,54,0005-00-0000-35.png,0004-00-0001-30.png
00000014,659,1,1439480466478,1439480467237,949,449,0,0,0,3,2,1,32,0003-00-0000-79.png,0002-00-0000-57.png
00000014,660,0,1439480468139,1439480468818,926,403,0,0,0,3,4,1,34,0003-00-0000-78.png,0004-00-0001-76.png
00000014,661,0,1439480472191,1439480472884,926,423,0,0,0,1,2,1,12,0001-00-0000-65.png,0002-00-0001-93.png
00000014,662,1,1439480482840,1439480483403,375,341,0,0,0,4,5,1,45,0004-00-0000-43.png,0005-00-0001-32.png
00000014,663,1,1439480484409,1439480484989,928,364,0,0,0,4,3,1,43,0004-00-0000-88.png,0003-00-0000-64.png
00000014,664,1,1439480485900,1439480485916,514,436,0,0,0,2,3,1,23,0002-00-0001-78.png,0003-00-0000-11.png
00000014,665,0,1439480487124,1439480488046,881,496,0,0,0,1,2,1,12,0001-00-0000-46.png,0002-00-0001-32.png
00000014,666,0,1439480491039,1439480491743,380,401,0,0,0,4,3,1,43,0004-00-0001-94.png,0003-00-0001-61.png
00000014,667,1,1439480494845,1439480495386,878,391,0,0,0,3,2,1,32,0003-00-0000-52.png,0002-00-0000-94.png
00000014,668,1,1439480496347,1439480496980,366,367,0,0,0,4,5,1,45,0004-00-0001-84.png,0005-00-0000-49.png
00000014,669,1,1439480497906,1439480498747,905,389,0,0,0,5,4,1,54,0005-00-0001-60.png,0004-00-0000-21.png
00000014,670,1,1439480499662,1439480500472,895,393,0,0,0,2,1,1,21,0002-00-0000-85.png,0001-00-0001-38.png
00000014,671,0,1439480501403,1439480501949,889,423,0,0,0,2,3,1,23,0002-00-0000-37.png,0003-00-0000-62.png
00000014,672,0,1439480505233,1439480506038,870,394,0,0,0,3,4,1,34,0003-00-0001-77.png,0004-00-0000-00.png
00000014,673,1,1439480509851,1439480510645,953,435,0,0,0,3,2,1,32,0003-00-0001-48.png,0002-00-0001-70.png
00000014,674,1,1439480511977,1439480512474,362,402,0,0,0,1,2,1,12,0001-00-0001-67.png,0002-00-0001-03.png
00000014,675,1,1439480513372,1439480513999,345,381,0,0,0,3,4,1,34,0003-00-0001-95.png,0004-00-0000-10.png
00000014,676,0,1439480514935,1439480515465,360,397,0,0,0,2,1,1,21,0002-00-0000-80.png,0001-00-0001-04.png
00000014,677,1,1439480518337,1439480518913,353,362,0,0,0,4,5,1,45,0004-00-0000-35.png,0005-00-0001-11.png
00000014,678,1,1439480519838,1439480520493,900,385,0,0,0,4,3,1,43,0004-00-0001-37.png,0003-00-0000-59.png
00000014,679,1,1439480521357,1439480521405,504,510,0,0,0,2,3,1,23,0002-00-0000-79.png,0003-00-0000-71.png
00000014,680,1,1439480522480,1439480523287,876,469,0,0,0,5,4,1,54,0005-00-0001-43.png,0004-00-0000-72.png
00000014,681,0,1439480524168,1439480524180,504,462,0,0,0,4,3,1,43,0004-00-0001-74.png,0003-00-0001-49.png
00000014,682,0,1439480527084,1439480527819,940,397,0,0,0,2,3,1,23,0002-00-0000-97.png,0003-00-0000-67.png
00000014,683,1,1439480530887,1439480532057,414,528,0,0,0,1,2,1,12,0001-00-0000-67.png,0002-00-0001-61.png
00000014,684,1,1439480532904,1439480533639,389,379,0,0,0,4,5,1,45,0004-00-0000-08.png,0005-00-0000-97.png
00000014,685,0,1439480534523,1439480535139,361,397,0,0,0,5,4,1,54,0005-00-0001-33.png,0004-00-0000-68.png
00000014,686,0,1439480539277,1439480539797,894,510,0,0,0,3,4,1,34,0003-00-0000-27.png,0004-00-0001-60.png
00000014,687,0,1439480542845,1439480542865,519,488,0,0,0,3,2,1,32,0003-00-0001-38.png,0002-00-0000-21.png
00000014,688,0,1439480546210,1439480546222,501,420,0,0,0,2,1,1,21,0002-00-0001-02.png,0001-00-0001-78.png
00000014,689,0,1439480549258,1439480549985,956,401,0,0,0,4,5,1,45,0004-00-0000-77.png,0005-00-0000-71.png
00000014,690,0,1439480554431,1439480555001,397,518,0,0,0,2,1,1,21,0002-00-0001-97.png,0001-00-0000-07.png
00000014,691,1,1439480558121,1439480558791,381,397,0,0,0,2,3,1,23,0002-00-0000-77.png,0003-00-0000-99.png
00000014,692,1,1439480559740,1439480559756,504,448,0,0,0,1,2,1,12,0001-00-0000-42.png,0002-00-0001-03.png
00000014,693,1,1439480560723,1439480561268,904,440,0,0,0,4,3,1,43,0004-00-0001-48.png,0003-00-0001-61.png
00000014,694,1,1439480562253,1439480562726,922,428,0,0,0,5,4,1,54,0005-00-0000-47.png,0004-00-0000-51.png
00000014,695,0,1439480563604,1439480563624,519,482,0,0,0,3,2,1,32,0003-00-0001-05.png,0002-00-0000-69.png
00000014,696,1,1439480566502,1439480567017,419,401,0,0,0,3,4,1,34,0003-00-0001-43.png,0004-00-0001-48.png
00000014,697,1,1439480567908,1439480568510,376,424,0,0,0,4,5,1,45,0004-00-0000-40.png,0005-00-0001-64.png
00000014,698,1,1439480569417,1439480569929,896,421,0,0,0,4,3,1,43,0004-00-0000-48.png,0003-00-0001-13.png
00000014,699,0,1439480570850,1439480570866,496,469,0,0,0,2,1,1,21,0002-00-0000-38.png,0001-00-0001-94.png
00000014,700,0,1439480573712,1439480574295,904,376,0,0,0,1,2,1,12,0001-00-0000-03.png,0002-00-0000-63.png
00000014,701,1,1439480577281,1439480578021,400,384,0,0,0,3,4,1,34,0003-00-0001-78.png,0004-00-0000-71.png
00000014,702,0,1439480578890,1439480579418,412,508,0,0,0,3,2,1,32,0003-00-0001-72.png,0002-00-0001-08.png
00000014,703,1,1439480583483,1439480584035,922,420,0,0,0,5,4,1,54,0005-00-0000-92.png,0004-00-0001-46.png
00000014,704,1,1439480585031,1439480585059,504,502,0,0,0,2,3,1,23,0002-00-0000-81.png,0003-00-0001-79.png
00000014,705,0,1439480586044,1439480586732,348,384,0,0,0,3,2,1,32,0003-00-0000-78.png,0002-00-0001-28.png
00000014,706,1,1439480589840,1439480590481,365,385,0,0,0,3,4,1,34,0003-00-0000-91.png,0004-00-0001-03.png
00000014,707,1,1439480591397,1439480591429,513,488,0,0,0,4,5,1,45,0004-00-0000-05.png,0005-00-0001-24.png
00000014,708,1,1439480592401,1439480592921,902,439,0,0,0,4,3,1,43,0004-00-0000-49.png,0003-00-0000-73.png
00000014,709,0,1439480593762,1439480594411,899,413,0,0,0,2,3,1,23,0002-00-0001-05.png,0003-00-0000-95.png
00000014,710,0,1439480597521,1439480598020,905,428,0,0,0,1,2,1,12,0001-00-0001-72.png,0002-00-0001-57.png
00000014,711,1,1439480601101,1439480601663,871,434,0,0,0,2,1,1,21,0002-00-0001-97.png,0001-00-0001-51.png
00000014,712,0,1439480602593,1439480603254,248,478,0,0,0,5,4,1,54,0005-00-0001-87.png,0004-00-0001-95.png
00000014,713,1,1439480606475,1439480607053,913,398,0,0,0,5,4,1,54,0005-00-0000-55.png,0004-00-0000-79.png
00000014,714,1,1439480607988,1439480608511,360,423,0,0,0,4,5,1,45,0004-00-0001-18.png,0005-00-0000-51.png
00000014,715,1,1439480609395,1439480610092,904,401,0,0,0,4,3,1,43,0004-00-0000-13.png,0003-00-0001-10.png
00000014,716,1,1439480611016,1439480611752,873,507,0,0,0,2,1,1,21,0002-00-0000-85.png,0001-00-0000-08.png
00000014,717,1,1439480612711,1439480613259,384,418,0,0,0,1,2,1,12,0001-00-0000-01.png,0002-00-0000-90.png
00000014,718,1,1439480614208,1439480614236,504,488,0,0,0,3,4,1,34,0003-00-0000-94.png,0004-00-0001-77.png
00000014,719,1,1439480615284,1439480615779,902,408,0,0,0,3,2,1,32,0003-00-0000-95.png,0002-00-0000-40.png
00000014,720,1,1439480616784,1439480616809,504,514,0,0,0,2,3,1,23,0002-00-0000-84.png,0003-00-0001-49.png
00000014,721,1,1439480617894,1439480618472,901,486,0,0,0,3,2,1,32,0003-00-0000-23.png,0002-00-0001-17.png
00000014,722,0,1439480619386,1439480619974,892,459,0,0,0,4,5,1,45,0004-00-0000-40.png,0005-00-0000-71.png
00000014,723,0,1439480623292,1439480623795,879,428,0,0,0,3,4,1,34,0003-00-0000-02.png,0004-00-0000-43.png
00000014,724,1,1439480627356,1439480627891,339,388,0,0,0,1,2,1,12,0001-00-0000-85.png,0002-00-0000-66.png
00000014,725,1,1439480628828,1439480629526,886,482,0,0,0,5,4,1,54,0005-00-0000-70.png,0004-00-0001-67.png
00000014,726,1,1439480630457,1439480630970,887,424,0,0,0,2,1,1,21,0002-00-0001-54.png,0001-00-0001-64.png
00000014,727,0,1439480631831,1439480631859,504,480,0,0,0,4,3,1,43,0004-00-0000-46.png,0003-00-0001-15.png
00000014,728,1,1439480635944,1439480635968,463,477,0,0,0,2,3,1,23,0002-00-0000-60.png,0003-00-0001-73.png
00000014,729,1,1439480637038,1439480637492,879,427,0,0,0,2,1,1,21,0002-00-0001-96.png,0001-00-0001-49.png
00000014,730,1,1439480638437,1439480638445,462,462,0,0,0,1,2,1,12,0001-00-0000-54.png,0002-00-0000-68.png
00000014,731,0,1439480639580,1439480640539,444,525,0,0,0,5,4,1,54,0005-00-0001-69.png,0004-00-0000-40.png
00000014,732,1,1439480643723,1439480644237,418,428,0,0,0,4,5,1,45,0004-00-0001-92.png,0005-00-0001-88.png
00000014,733,1,1439480645166,1439480645658,368,427,0,0,0,3,4,1,34,0003-00-0000-61.png,0004-00-0001-76.png
00000014,734,1,1439480646524,1439480647112,901,434,0,0,0,4,3,1,43,0004-00-0000-36.png,0003-00-0001-79.png
00000014,735,1,1439480647986,1439480648002,498,506,0,0,0,2,3,1,23,0002-00-0000-20.png,0003-00-0001-95.png
00000014,736,1,1439480649052,1439480649601,875,455,0,0,0,3,2,1,32,0003-00-0000-16.png,0002-00-0001-47.png
00000014,737,0,1439480650573,1439480651193,340,415,0,0,0,4,3,1,43,0004-00-0001-38.png,0003-00-0001-03.png
00000014,738,1,1439480654067,1439480654627,357,400,0,0,0,1,2,1,12,0001-00-0001-81.png,0002-00-0000-22.png
00000014,739,0,1439480655499,1439480655527,486,496,0,0,0,3,2,1,32,0003-00-0001-61.png,0002-00-0001-77.png
00000014,740,0,1439480658797,1439480659323,349,395,0,0,0,5,4,1,54,0005-00-0001-63.png,0004-00-0001-82.png
00000014,741,0,1439480662443,1439480663239,889,397,0,0,0,3,4,1,34,0003-00-0000-06.png,0004-00-0000-78.png
00000014,742,0,1439480666323,1439480666906,921,415,0,0,0,2,3,1,23,0002-00-0000-18.png,0003-00-0001-39.png
00000014,743,0,1439480669911,1439480670577,880,427,0,0,0,4,5,1,45,0004-00-0001-07.png,0005-00-0000-68.png
00000014,744,0,1439480674442,1439480675138,427,372,0,0,0,2,1,1,21,0002-00-0001-41.png,0001-00-0001-50.png
00000014,745,1,1439480678248,1439480678743,384,424,0,0,0,4,5,1,45,0004-00-0001-79.png,0005-00-0000-22.png
00000014,746,0,1439480679680,1439480680524,927,398,0,0,0,3,4,1,34,0003-00-0001-14.png,0004-00-0000-25.png
00000014,747,1,1439480683385,1439480683908,370,393,0,0,0,2,3,1,23,0002-00-0000-15.png,0003-00-0001-45.png
00000014,748,0,1439480684837,1439480684853,513,478,0,0,0,2,1,1,21,0002-00-0000-69.png,0001-00-0001-76.png
00000014,749,0,1439480687948,1439480688479,376,398,0,0,0,4,3,1,43,0004-00-0001-27.png,0003-00-0001-99.png
00000014,750,0,1439480695197,1439480695944,366,456,0,0,0,5,4,1,54,0005-00-0000-46.png,0004-00-0000-71.png
00000014,751,1,1439480698838,1439480698870,511,443,0,0,0,1,2,1,12,0001-00-0000-26.png,0002-00-0001-65.png
00000014,752,0,1439480699876,1439480700408,370,416,0,0,0,3,2,1,32,0003-00-0000-13.png,0002-00-0000-47.png
00000014,753,1,1439480703821,1439480704559,872,383,0,0,0,4,3,1,43,0004-00-0001-10.png,0003-00-0001-30.png
00000014,754,1,1439480705461,1439480706154,362,407,0,0,0,4,5,1,45,0004-00-0000-78.png,0005-00-0000-64.png
00000014,755,0,1439480707005,1439480707576,390,527,0,0,0,2,1,1,21,0002-00-0001-85.png,0001-00-0000-32.png
00000014,756,1,1439480711801,1439480712371,388,392,0,0,0,3,4,1,34,0003-00-0001-25.png,0004-00-0000-55.png
00000014,757,1,1439480713208,1439480714071,394,413,0,0,0,1,2,1,12,0001-00-0001-47.png,0002-00-0001-86.png
00000014,758,1,1439480715380,1439480715874,918,444,0,0,0,5,4,1,54,0005-00-0001-42.png,0004-00-0001-33.png
00000014,759,1,1439480717134,1439480717649,373,412,0,0,0,2,3,1,23,0002-00-0001-62.png,0003-00-0001-64.png
00000014,760,1,1439480718501,1439480719228,892,535,0,0,0,3,2,1,32,0003-00-0001-84.png,0002-00-0000-92.png
00000014,761,1,1439480720086,1439480720609,357,431,0,0,0,2,3,1,23,0002-00-0001-69.png,0003-00-0000-43.png
00000014,762,1,1439480721498,1439480722155,878,400,0,0,0,5,4,1,54,0005-00-0000-06.png,0004-00-0000-91.png
00000014,763,1,1439480723017,1439480723846,878,438,0,0,0,4,3,1,43,0004-00-0001-06.png,0003-00-0001-34.png
00000014,764,1,1439480725116,1439480725124,504,475,0,0,0,1,2,1,12,0001-00-0001-71.png,0002-00-0000-84.png
00000014,765,1,1439480726049,1439480726537,894,414,0,0,0,2,1,1,21,0002-00-0001-91.png,0001-00-0001-64.png
00000014,766,1,1439480727789,1439480728879,406,421,0,0,0,4,5,1,45,0004-00-0000-98.png,0005-00-0001-11.png
00000014,767,1,1439480730084,1439480730573,877,442,0,0,0,3,2,1,32,0003-00-0000-25.png,0002-00-0001-48.png
00000014,768,1,1439480731802,1439480732434,411,410,0,0,0,3,4,1,34,0003-00-0000-51.png,0004-00-0000-32.png
00000014,769,1,1439480733312,1439480733967,877,444,0,0,0,3,2,1,32,0003-00-0000-03.png,0002-00-0000-82.png
00000014,770,1,1439480735195,1439480736731,926,475,0,0,0,2,1,1,21,0002-00-0001-99.png,0001-00-0001-72.png
00000014,771,1,1439480737961,1439480738472,885,450,0,0,0,5,4,1,54,0005-00-0001-09.png,0004-00-0000-19.png
00000014,772,1,1439480739337,1439480739918,388,436,0,0,0,2,3,1,23,0002-00-0001-30.png,0003-00-0001-38.png
00000014,773,1,1439480741202,1439480741698,879,453,0,0,0,4,3,1,43,0004-00-0001-71.png,0003-00-0000-26.png
00000014,774,1,1439480742913,1439480744421,363,449,0,0,0,3,4,1,34,0003-00-0000-94.png,0004-00-0000-53.png
00000014,775,0,1439480745459,1439480745954,876,435,0,0,0,1,2,1,12,0001-00-0000-68.png,0002-00-0001-62.png
00000014,776,0,1439480754522,1439480755000,900,423,0,0,0,4,5,1,45,0004-00-0000-04.png,0005-00-0001-36.png
00000014,777,0,1439480757921,1439480758483,895,498,0,0,0,3,4,1,34,0003-00-0000-33.png,0004-00-0001-19.png
00000014,778,0,1439480761450,1439480762054,926,397,0,0,0,2,3,1,23,0002-00-0000-66.png,0003-00-0000-64.png
00000014,779,0,1439480765438,1439480766155,902,493,0,0,0,1,2,1,12,0001-00-0000-94.png,0002-00-0001-08.png
00000014,780,1,1439480769065,1439480769539,352,378,0,0,0,4,5,1,45,0004-00-0000-42.png,0005-00-0000-57.png
00000014,781,1,1439480770588,1439480771230,891,483,0,0,0,2,1,1,21,0002-00-0001-18.png,0001-00-0000-92.png
00000014,782,1,1439480772166,1439480772648,880,455,0,0,0,3,2,1,32,0003-00-0001-99.png,0002-00-0001-36.png
00000014,783,1,1439480773576,1439480774091,888,514,0,0,0,5,4,1,54,0005-00-0000-14.png,0004-00-0000-54.png
00000014,784,0,1439480774947,1439480775003,505,560,0,0,0,4,3,1,43,0004-00-0001-67.png,0003-00-0001-94.png
00000014,785,1,1439480778196,1439480778977,885,492,0,0,0,2,1,1,21,0002-00-0000-74.png,0001-00-0001-77.png
00000014,786,1,1439480779831,1439480780339,877,545,0,0,0,3,2,1,32,0003-00-0000-13.png,0002-00-0001-25.png
00000014,787,0,1439480781238,1439480781250,517,488,0,0,0,4,3,1,43,0004-00-0001-74.png,0003-00-0000-84.png
00000014,788,1,1439480784248,1439480784296,486,513,0,0,0,4,5,1,45,0004-00-0000-19.png,0005-00-0001-98.png
00000014,789,0,1439480785160,1439480785692,903,468,0,0,0,3,4,1,34,0003-00-0000-51.png,0004-00-0000-06.png
00000014,790,0,1439480790949,1439480791603,933,431,0,0,0,1,2,1,12,0001-00-0001-66.png,0002-00-0001-54.png
00000014,791,0,1439480797574,1439480798177,878,429,0,0,0,2,3,1,23,0002-00-0001-36.png,0003-00-0001-18.png
00000014,792,1,1439480801070,1439480801663,901,439,0,0,0,5,4,1,54,0005-00-0000-76.png,0004-00-0001-17.png
00000014,793,1,1439480802601,1439480803295,356,395,0,0,0,3,4,1,34,0003-00-0000-21.png,0004-00-0000-78.png
00000014,794,1,1439480804163,1439480804687,250,485,0,0,0,1,2,1,12,0001-00-0000-29.png,0002-00-0001-90.png
00000014,795,1,1439480805572,1439480805612,481,511,0,0,0,4,5,1,45,0004-00-0001-83.png,0005-00-0000-29.png
00000014,796,0,1439480806559,1439480807070,375,408,0,0,0,3,2,1,32,0003-00-0001-84.png,0002-00-0000-33.png
00000014,797,1,1439480810013,1439480810670,930,419,0,0,0,4,3,1,43,0004-00-0001-30.png,0003-00-0000-70.png
00000014,798,0,1439480811563,1439480812175,382,443,0,0,0,2,1,1,21,0002-00-0001-85.png,0001-00-0001-69.png
00000014,799,0,1439480815404,1439480816049,925,410,0,0,0,2,3,1,23,0002-00-0000-30.png,0003-00-0000-90.png
00000014,800,1,1439480818975,1439480819704,901,390,0,0,0,5,4,1,54,0005-00-0001-04.png,0004-00-0001-20.png
00000014,801,1,1439480820629,1439480821298,861,516,0,0,0,5,4,1,54,0005-00-0000-79.png,0004-00-0001-04.png
00000014,802,1,1439480822218,1439480822689,901,512,0,0,0,4,3,1,43,0004-00-0000-76.png,0003-00-0000-93.png
00000014,803,1,1439480823523,1439480823567,457,512,0,0,0,1,2,1,12,0001-00-0001-26.png,0002-00-0000-77.png
00000014,804,1,1439480824476,1439480824492,504,504,0,0,0,3,4,1,34,0003-00-0000-69.png,0004-00-0000-69.png
00000014,805,1,1439480825500,1439480826774,349,410,0,0,0,4,5,1,45,0004-00-0001-46.png,0005-00-0001-30.png
00000014,806,1,1439480827640,1439480828331,899,490,0,0,0,3,2,1,32,0003-00-0001-47.png,0002-00-0000-12.png
00000014,807,1,1439480829642,1439480830700,401,432,0,0,0,2,3,1,23,0002-00-0000-33.png,0003-00-0000-21.png
00000014,808,0,1439480832722,1439480833247,411,528,0,0,0,2,1,1,21,0002-00-0000-81.png,0001-00-0001-83.png
00000014,809,0,1439480837165,1439480837648,891,443,0,0,0,1,2,1,12,0001-00-0001-41.png,0002-00-0000-71.png
00000014,810,0,1439480840662,1439480840678,519,442,0,0,0,5,4,1,54,0005-00-0000-33.png,0004-00-0000-26.png
00000014,811,0,1439480843614,1439480844138,405,509,0,0,0,2,1,1,21,0002-00-0001-17.png,0001-00-0000-26.png
00000014,812,0,1439480847850,1439480848465,875,462,0,0,0,2,3,1,23,0002-00-0000-17.png,0003-00-0001-40.png
00000014,813,1,1439480851434,1439480851450,497,470,0,0,0,3,4,1,34,0003-00-0000-94.png,0004-00-0001-03.png
00000014,814,1,1439480852390,1439480852971,368,376,0,0,0,4,5,1,45,0004-00-0000-01.png,0005-00-0000-03.png
00000014,815,0,1439480853838,1439480853882,485,471,0,0,0,3,2,1,32,0003-00-0001-22.png,0002-00-0000-53.png
00000014,816,0,1439480856778,1439480857381,407,394,0,0,0,4,3,1,43,0004-00-0000-71.png,0003-00-0001-12.png
00000014,817,1,1439480860283,1439480861040,880,418,0,0,0,2,1,1,21,0002-00-0000-53.png,0001-00-0001-84.png
00000014,818,0,1439480861928,1439480862537,878,463,0,0,0,1,2,1,12,0001-00-0001-43.png,0002-00-0001-89.png
00000014,819,0,1439480866285,1439480867027,904,431,0,0,0,4,5,1,45,0004-00-0000-17.png,0005-00-0000-24.png
00000014,820,1,1439480871938,1439480872422,342,415,0,0,0,2,3,1,23,0002-00-0000-84.png,0003-00-0000-47.png
00000014,821,0,1439480873379,1439480874071,401,358,0,0,0,3,2,1,32,0003-00-0001-63.png,0002-00-0000-27.png
00000014,822,1,1439480877552,1439480878147,878,519,0,0,0,4,3,1,43,0004-00-0000-08.png,0003-00-0001-03.png
00000014,823,1,1439480879153,1439480879686,422,508,0,0,0,3,4,1,34,0003-00-0001-13.png,0004-00-0001-24.png
00000014,824,0,1439480880634,1439480880654,504,426,0,0,0,5,4,1,54,0005-00-0000-03.png,0004-00-0001-94.png
00000014,825,1,1439480883871,1439480884577,442,522,0,0,0,2,3,1,23,0002-00-0000-25.png,0003-00-0001-09.png
00000014,826,1,1439480885452,1439480886080,901,436,0,0,0,5,4,1,54,0005-00-0001-00.png,0004-00-0000-91.png
00000014,827,1,1439480886952,1439480887514,899,465,0,0,0,2,1,1,21,0002-00-0000-70.png,0001-00-0001-30.png
00000014,828,0,1439480888402,1439480888963,900,438,0,0,0,1,2,1,12,0001-00-0000-09.png,0002-00-0001-87.png
00000014,829,1,1439480892039,1439480892051,516,441,0,0,0,4,5,1,45,0004-00-0000-44.png,0005-00-0001-48.png
00000014,830,0,1439480892962,1439480893609,872,481,0,0,0,3,4,1,34,0003-00-0001-67.png,0004-00-0000-06.png
00000014,831,0,1439480896574,1439480897087,440,423,0,0,0,3,2,1,32,0003-00-0000-98.png,0002-00-0000-22.png
00000014,832,0,1439480899928,1439480900537,401,396,0,0,0,4,3,1,43,0004-00-0000-70.png,0003-00-0001-09.png
00000014,833,0,1439480903709,1439480903717,517,450,0,0,0,5,4,1,54,0005-00-0000-59.png,0004-00-0001-92.png
00000014,834,1,1439480906879,1439480907422,414,411,0,0,0,1,2,1,12,0001-00-0000-81.png,0002-00-0000-06.png
00000014,835,0,1439480908380,1439480909352,361,403,0,0,0,3,2,1,32,0003-00-0001-29.png,0002-00-0000-23.png
00000014,836,1,1439480912385,1439480912891,905,402,0,0,0,2,1,1,21,0002-00-0001-42.png,0001-00-0000-82.png
00000014,837,1,1439480913827,1439480914383,392,492,0,0,0,3,4,1,34,0003-00-0001-79.png,0004-00-0000-00.png
00000014,838,1,1439480915304,1439480916025,404,403,0,0,0,4,5,1,45,0004-00-0001-24.png,0005-00-0001-22.png
00000014,839,1,1439480916853,1439480917457,879,416,0,0,0,4,3,1,43,0004-00-0000-00.png,0003-00-0001-79.png
00000014,840,1,1439480918314,1439480919318,372,400,0,0,0,2,3,1,23,0002-00-0001-29.png,0003-00-0001-66.png
00000014,841,1,1439480920213,1439480920221,513,488,0,0,0,3,4,1,34,0003-00-0001-55.png,0004-00-0000-12.png
00000014,842,1,1439480921107,1439480921139,480,486,0,0,0,4,5,1,45,0004-00-0001-85.png,0005-00-0001-59.png
00000014,843,0,1439480922114,1439480922627,875,412,0,0,0,2,3,1,23,0002-00-0000-53.png,0003-00-0001-11.png
00000014,844,1,1439480925630,1439480926239,903,392,0,0,0,2,1,1,21,0002-00-0001-67.png,0001-00-0000-97.png
00000014,845,1,1439480927150,1439480927769,890,484,0,0,0,3,2,1,32,0003-00-0001-09.png,0002-00-0001-20.png
00000014,846,0,1439480928652,1439480928668,496,494,0,0,0,5,4,1,54,0005-00-0000-13.png,0004-00-0000-61.png
00000014,847,1,1439480931523,1439480932022,361,396,0,0,0,1,2,1,12,0001-00-0000-87.png,0002-00-0001-09.png
00000014,848,1,1439480932934,1439480933462,879,454,0,0,0,4,3,1,43,0004-00-0000-93.png,0003-00-0001-60.png
00000014,849,1,1439480934335,1439480935076,397,513,0,0,0,1,2,1,12,0001-00-0000-72.png,0002-00-0000-92.png
00000014,850,1,1439480935938,1439480937013,400,497,0,0,0,2,3,1,23,0002-00-0000-63.png,0003-00-0000-26.png
00000014,851,0,1439480937893,1439480937913,504,462,0,0,0,4,3,1,43,0004-00-0000-33.png,0003-00-0001-81.png
00000014,852,1,1439480941104,1439480941621,875,423,0,0,0,3,2,1,32,0003-00-0001-86.png,0002-00-0000-34.png
00000014,853,0,1439480942526,1439480943069,877,443,0,0,0,3,4,1,34,0003-00-0000-14.png,0004-00-0000-07.png
00000014,854,1,1439480946211,1439480946805,897,375,0,0,0,2,1,1,21,0002-00-0001-02.png,0001-00-0000-62.png
00000014,855,1,1439480947683,1439480947699,512,479,0,0,0,4,5,1,45,0004-00-0000-92.png,0005-00-0000-40.png
00000014,856,0,1439480948618,1439480949258,351,406,0,0,0,5,4,1,54,0005-00-0001-60.png,0004-00-0000-64.png
00000014,857,1,1439480952522,1439480953131,388,430,0,0,0,2,3,1,23,0002-00-0000-74.png,0003-00-0000-18.png
00000014,858,1,1439480954000,1439480954529,367,443,0,0,0,1,2,1,12,0001-00-0001-12.png,0002-00-0000-69.png
00000014,859,0,1439480955372,1439480955919,376,410,0,0,0,5,4,1,54,0005-00-0001-97.png,0004-00-0000-95.png
00000014,860,0,1439480958959,1439480958987,504,492,0,0,0,3,2,1,32,0003-00-0001-68.png,0002-00-0000-52.png
00000014,861,1,1439480961886,1439480962468,416,495,0,0,0,4,5,1,45,0004-00-0001-91.png,0005-00-0000-41.png
00000014,862,0,1439480963377,1439480964254,427,384,0,0,0,4,3,1,43,0004-00-0000-94.png,0003-00-0001-90.png
00000014,863,1,1439480967988,1439480969096,357,416,0,0,0,3,4,1,34,0003-00-0000-87.png,0004-00-0001-29.png
00000014,864,1,1439480969950,1439480970541,875,436,0,0,0,2,1,1,21,0002-00-0000-13.png,0001-00-0001-93.png
00000014,865,1,1439480971442,1439480971995,910,425,0,0,0,4,3,1,43,0004-00-0000-53.png,0003-00-0001-05.png
00000014,866,1,1439480972896,1439480972912,522,469,0,0,0,3,4,1,34,0003-00-0000-17.png,0004-00-0001-93.png
00000014,867,1,1439480973881,1439480974400,880,445,0,0,0,5,4,1,54,0005-00-0000-49.png,0004-00-0000-23.png
00000014,868,0,1439480975339,1439480976041,453,536,0,0,0,3,2,1,32,0003-00-0001-70.png,0002-00-0001-51.png
00000014,869,1,1439480982733,1439480983162,875,538,0,0,0,2,1,1,21,0002-00-0000-47.png,0001-00-0001-76.png
00000014,870,1,1439480984068,1439480984596,416,502,0,0,0,2,3,1,23,0002-00-0001-54.png,0003-00-0001-34.png
00000014,871,1,1439480985430,1439480985967,335,425,0,0,0,1,2,1,12,0001-00-0000-72.png,0002-00-0000-39.png
00000014,872,1,1439480986838,1439480987465,340,414,0,0,0,4,5,1,45,0004-00-0000-95.png,0005-00-0000-67.png
00000014,873,1,1439480988320,1439480988993,893,390,0,0,0,5,4,1,54,0005-00-0000-05.png,0004-00-0001-48.png
00000014,874,1,1439480990254,1439480990873,328,395,0,0,0,4,5,1,45,0004-00-0000-83.png,0005-00-0001-74.png
00000014,875,1,1439480992147,1439480992602,349,398,0,0,0,2,3,1,23,0002-00-0001-20.png,0003-00-0000-20.png
00000014,876,1,1439480993867,1439480994551,889,423,0,0,0,2,1,1,21,0002-00-0001-43.png,0001-00-0001-11.png
00000014,877,1,1439480995409,1439480995433,520,488,0,0,0,1,2,1,12,0001-00-0000-16.png,0002-00-0000-78.png
00000014,878,0,1439480996440,1439480996963,878,468,0,0,0,3,4,1,34,0003-00-0000-54.png,0004-00-0001-18.png
00000014,879,0,1439481000216,1439481000746,416,548,0,0,0,4,3,1,43,0004-00-0001-36.png,0003-00-0000-97.png
00000014,880,0,1439481003630,1439481003646,522,469,0,0,0,3,2,1,32,0003-00-0000-06.png,0002-00-0001-98.png
00000014,881,1,1439481006684,1439481007184,341,380,0,0,0,2,3,1,23,0002-00-0000-89.png,0003-00-0000-36.png
00000014,882,0,1439481008045,1439481008781,402,410,0,0,0,3,2,1,32,0003-00-0001-70.png,0002-00-0001-75.png
00000014,883,1,1439481011726,1439481011742,476,471,0,0,0,4,5,1,45,0004-00-0000-92.png,0005-00-0000-51.png
00000014,884,0,1439481012650,1439481012666,514,478,0,0,0,5,4,1,54,0005-00-0000-50.png,0004-00-0000-48.png
00000014,885,0,1439481015767,1439481015804,504,488,0,0,0,2,1,1,21,0002-00-0000-12.png,0001-00-0000-92.png
00000014,886,0,1439481018826,1439481019633,951,385,0,0,0,3,4,1,34,0003-00-0001-70.png,0004-00-0000-89.png
00000014,887,1,1439481022943,1439481023592,901,410,0,0,0,4,3,1,43,0004-00-0001-40.png,0003-00-0000-32.png
00000014,888,0,1439481024542,1439481025138,904,455,0,0,0,1,2,1,12,0001-00-0001-83.png,0002-00-0000-78.png
00000014,889,1,1439481028351,1439481028415,499,500,0,0,0,3,4,1,34,0003-00-0001-53.png,0004-00-0000-73.png
00000014,890,1,1439481029317,1439481030039,384,367,0,0,0,4,5,1,45,0004-00-0001-26.png,0005-00-0000-22.png
00000014,891,1,1439481030903,1439481031449,900,463,0,0,0,3,2,1,32,0003-00-0000-74.png,0002-00-0000-34.png
00000014,892,1,1439481032347,1439481032355,521,480,0,0,0,2,3,1,23,0002-00-0000-87.png,0003-00-0001-27.png
00000014,893,0,1439481033322,1439481033943,369,400,0,0,0,4,3,1,43,0004-00-0000-15.png,0003-00-0001-86.png
00000014,894,0,1439481037448,1439481037964,882,419,0,0,0,1,2,1,12,0001-00-0000-65.png,0002-00-0000-93.png
00000014,895,1,1439481040894,1439481041411,914,424,0,0,0,5,4,1,54,0005-00-0000-40.png,0004-00-0000-54.png
00000014,896,1,1439481042691,1439481043277,886,451,0,0,0,2,1,1,21,0002-00-0000-46.png,0001-00-0001-05.png
00000014,897,1,1439481044122,1439481044142,512,471,0,0,0,1,2,1,12,0001-00-0001-18.png,0002-00-0001-11.png
00000014,898,0,1439481045108,1439481045726,352,405,0,0,0,4,3,1,43,0004-00-0001-61.png,0003-00-0000-66.png
00000014,899,0,1439481048824,1439481048882,478,514,0,0,0,5,4,1,54,0005-00-0001-06.png,0004-00-0000-00.png
00000014,900,1,1439481060391,1439481060857,375,384,0,0,0,3,4,1,34,0003-00-0000-05.png,0004-00-0001-59.png
00000014,901,1,1439481061991,1439481062614,862,371,0,0,0,2,1,1,21,0002-00-0001-79.png,0001-00-0000-22.png
00000014,902,1,1439481063859,1439481067266,360,375,0,0,0,2,3,1,23,0002-00-0001-14.png,0003-00-0001-06.png
00000014,903,1,1439481068444,1439481068924,876,554,0,0,0,3,2,1,32,0003-00-0000-86.png,0002-00-0000-92.png
00000014,904,0,1439481069800,1439481070521,879,428,0,0,0,4,5,1,45,0004-00-0000-17.png,0005-00-0000-85.png
00000014,905,1,1439481073758,1439481074353,877,468,0,0,0,2,1,1,21,0002-00-0000-91.png,0001-00-0000-28.png
00000014,906,0,1439481075199,1439481075684,900,423,0,0,0,2,3,1,23,0002-00-0001-06.png,0003-00-0000-12.png
00000014,907,0,1439481078740,1439481079291,927,398,0,0,0,3,4,1,34,0003-00-0000-59.png,0004-00-0001-38.png
00000014,908,1,1439481084923,1439481085437,888,512,0,0,0,4,3,1,43,0004-00-0000-81.png,0003-00-0000-13.png
00000014,909,0,1439481086328,1439481087036,920,428,0,0,0,1,2,1,12,0001-00-0000-54.png,0002-00-0001-09.png
00000014,910,1,1439481091548,1439481091992,897,480,0,0,0,3,2,1,32,0003-00-0000-97.png,0002-00-0001-72.png
00000014,911,0,1439481093039,1439481093556,859,429,0,0,0,4,5,1,45,0004-00-0001-44.png,0005-00-0000-00.png
00000014,912,1,1439481096610,1439481097240,861,361,0,0,0,5,4,1,54,0005-00-0001-80.png,0004-00-0000-20.png
00000014,913,1,1439481098222,1439481098719,874,426,0,0,0,2,1,1,21,0002-00-0001-16.png,0001-00-0001-79.png
00000014,914,1,1439481099941,1439481099965,513,457,0,0,0,4,5,1,45,0004-00-0000-68.png,0005-00-0000-75.png
00000014,915,1,1439481100932,1439481100970,479,557,0,0,0,3,4,1,34,0003-00-0001-86.png,0004-00-0000-16.png
00000014,916,1,1439481101844,1439481102496,412,489,0,0,0,1,2,1,12,0001-00-0001-79.png,0002-00-0001-58.png
00000014,917,0,1439481103769,1439481104278,869,524,0,0,0,2,3,1,23,0002-00-0000-19.png,0003-00-0001-35.png
00000014,918,1,1439481107527,1439481108208,940,398,0,0,0,3,2,1,32,0003-00-0001-98.png,0002-00-0001-78.png
00000014,919,1,1439481109238,1439481109953,928,411,0,0,0,5,4,1,54,0005-00-0001-37.png,0004-00-0000-22.png
00000014,920,1,1439481110813,1439481111374,900,403,0,0,0,4,3,1,43,0004-00-0001-12.png,0003-00-0001-20.png
00000014,921,0,1439481112225,1439481112791,888,516,0,0,0,3,4,1,34,0003-00-0001-78.png,0004-00-0001-50.png
00000014,922,0,1439481115740,1439481116242,407,489,0,0,0,5,4,1,54,0005-00-0000-29.png,0004-00-0000-57.png
00000014,923,1,1439481122482,1439481123000,324,395,0,0,0,2,3,1,23,0002-00-0000-82.png,0003-00-0000-99.png
00000014,924,0,1439481124085,1439481124113,504,462,0,0,0,3,2,1,32,0003-00-0001-60.png,0002-00-0000-96.png
00000014,925,1,1439481126927,1439481127611,394,376,0,0,0,4,5,1,45,0004-00-0000-78.png,0005-00-0001-93.png
00000014,926,1,1439481128464,1439481129017,862,394,0,0,0,2,1,1,21,0002-00-0001-95.png,0001-00-0001-16.png
00000014,927,0,1439481129866,1439481130436,869,524,0,0,0,1,2,1,12,0001-00-0001-03.png,0002-00-0000-25.png
00000014,928,1,1439481133491,1439481133973,875,398,0,0,0,4,3,1,43,0004-00-0001-48.png,0003-00-0000-13.png
00000014,929,0,1439481134933,1439481135833,346,389,0,0,0,2,1,1,21,0002-00-0001-99.png,0001-00-0000-31.png
00000014,930,1,1439481138900,1439481138916,488,440,0,0,0,3,4,1,34,0003-00-0000-66.png,0004-00-0001-26.png
00000014,931,1,1439481139784,1439481140343,349,425,0,0,0,1,2,1,12,0001-00-0000-20.png,0002-00-0001-72.png
00000014,932,1,1439481141595,1439481142412,341,387,0,0,0,4,5,1,45,0004-00-0000-08.png,0005-00-0000-01.png
00000014,933,0,1439481143262,1439481143290,504,476,0,0,0,4,3,1,43,0004-00-0000-66.png,0003-00-0000-28.png
00000014,934,0,1439481146739,1439481146755,514,470,0,0,0,3,2,1,32,0003-00-0001-40.png,0002-00-0000-79.png
00000014,935,0,1439481150151,1439481150861,357,360,0,0,0,5,4,1,54,0005-00-0001-77.png,0004-00-0001-99.png
00000014,936,0,1439481154063,1439481154662,895,394,0,0,0,2,3,1,23,0002-00-0000-71.png,0003-00-0001-17.png
00000014,937,1,1439481163650,1439481164276,901,409,0,0,0,3,2,1,32,0003-00-0000-87.png,0002-00-0001-77.png
00000014,938,0,1439481165210,1439481165226,513,443,0,0,0,5,4,1,54,0005-00-0000-28.png,0004-00-0000-31.png
00000014,939,0,1439481177498,1439481178109,428,470,0,0,0,2,1,1,21,0002-00-0001-73.png,0001-00-0000-96.png
00000014,940,0,1439481181149,1439481181796,899,490,0,0,0,4,5,1,45,0004-00-0001-17.png,0005-00-0000-76.png
00000014,941,0,1439481185124,1439481185679,904,401,0,0,0,1,2,1,12,0001-00-0001-56.png,0002-00-0000-61.png
00000014,942,1,1439481188568,1439481189415,945,409,0,0,0,4,3,1,43,0004-00-0000-51.png,0003-00-0000-17.png
