subject_id,trial,correct_response,stim_time,response_time,x_coord,y_coord,trial_timeout,timeout_time,interTrial_timeout,left_rank,right_rank,distance,joint_rank,left_image,right_image
00000014,1,1,1438358115328,1438358126791,434,532,0,0,0,2,3,1,23,0002-00-0001-53.png,0003-00-0000-54.png
00000014,2,1,1438358128138,1438358128546,300,401,0,0,0,1,2,1,12,0001-00-0001-77.png,0002-00-0000-90.png
00000014,3,1,1438358129856,1438358130316,307,412,0,0,0,4,5,1,45,0004-00-0001-10.png,0005-00-0001-08.png
00000014,4,0,1438358131894,1438358132350,248,488,0,0,0,5,4,1,54,0005-00-0001-21.png,0004-00-0001-03.png
00000014,5,1,1438358133485,1438358133975,323,440,0,0,0,3,4,1,34,0003-00-0001-31.png,0004-00-0001-55.png
00000014,6,0,1438358135294,1438358135717,253,376,0,0,0,3,2,1,32,0003-00-0000-23.png,0002-00-0000-65.png
00000014,7,0,1438358136663,1438358137013,355,486,0,0,0,4,3,1,43,0004-00-0001-08.png,0003-00-0001-27.png
00000014,8,0,1438358137906,1438358137914,515,424,0,0,0,2,1,1,21,0002-00-0000-17.png,0001-00-0000-21.png
00000014,9,1,1438358139137,1438358139593,197,476,0,0,0,2,3,1,23,0002-00-0000-23.png,0003-00-0000-45.png
00000014,10,0,1438358140490,1438358140949,183,488,0,0,0,2,1,1,21,0002-00-0000-60.png,0001-00-0000-33.png
00000014,11,0,1438358141840,1438358142261,325,397,0,0,0,4,3,1,43,0004-00-0000-40.png,0003-00-0000-47.png
00000014,12,0,1438358145424,1438358145895,341,442,0,0,0,3,2,1,32,0003-00-0001-70.png,0002-00-0001-94.png
00000014,13,1,1438358146720,1438358147175,325,395,0,0,0,4,5,1,45,0004-00-0000-23.png,0005-00-0001-89.png
00000014,14,1,1438358148304,1438358148754,317,429,0,0,0,3,4,1,34,0003-00-0000-00.png,0004-00-0001-81.png
00000014,15,1,1438358150031,1438358150685,350,514,0,0,0,1,2,1,12,0001-00-0000-03.png,0002-00-0000-15.png
00000014,16,0,1438358154423,1438358154924,332,419,0,0,0,5,4,1,54,0005-00-0001-92.png,0004-00-0000-58.png
00000014,17,1,1438358155873,1438358156368,274,425,0,0,0,1,2,1,12,0001-00-0001-52.png,0002-00-0001-56.png
00000014,18,1,1438358157523,1438358158156,966,425,0,0,0,5,4,1,54,0005-00-0001-09.png,0004-00-0001-63.png
00000014,19,0,1438358166498,1438358166933,336,374,0,0,0,4,3,1,43,0004-00-0001-85.png,0003-00-0000-42.png
00000014,20,0,1438358167890,1438358167894,520,341,0,0,0,3,2,1,32,0003-00-0000-20.png,0002-00-0000-99.png
00000014,21,1,1438358172928,1438358173396,356,393,0,0,0,3,4,1,34,0003-00-0001-88.png,0004-00-0000-39.png
00000014,22,1,1438358174745,1438358175220,306,394,0,0,0,4,5,1,45,0004-00-0001-72.png,0005-00-0000-91.png
00000014,23,1,1438358176525,1438358177045,325,397,0,0,0,2,3,1,23,0002-00-0000-68.png,0003-00-0001-16.png
00000014,24,0,1438358178275,1438358178724,337,410,0,0,0,2,1,1,21,0002-00-0000-96.png,0001-00-0000-91.png
00000014,25,0,1438358181345,1438358181832,312,397,0,0,0,4,3,1,43,0004-00-0001-30.png,0003-00-0000-27.png
00000014,26,1,1438358182935,1438358183399,334,415,0,0,0,4,5,1,45,0004-00-0001-03.png,0005-00-0001-14.png
00000014,27,0,1438358184624,1438358185125,380,526,0,0,0,5,4,1,54,0005-00-0001-72.png,0004-00-0000-26.png
00000014,28,0,1438358186063,1438358186091,497,469,0,0,0,2,1,1,21,0002-00-0001-16.png,0001-00-0000-48.png
00000014,29,1,1438358187210,1438358187611,300,406,0,0,0,1,2,1,12,0001-00-0000-99.png,0002-00-0000-79.png
00000014,30,0,1438358189372,1438358189740,382,498,0,0,0,3,2,1,32,0003-00-0000-92.png,0002-00-0001-16.png
00000014,31,1,1438358191254,1438358191700,244,433,0,0,0,2,3,1,23,0002-00-0000-29.png,0003-00-0001-00.png
00000014,32,1,1438358192593,1438358193066,363,503,0,0,0,3,4,1,34,0003-00-0000-81.png,0004-00-0001-23.png
00000014,33,1,1438358194242,1438358194266,487,469,0,0,0,3,4,1,34,0003-00-0000-55.png,0004-00-0001-74.png
00000014,34,0,1438358195279,1438358195303,519,443,0,0,0,4,3,1,43,0004-00-0000-72.png,0003-00-0000-73.png
00000014,35,0,1438358196202,1438358196684,291,427,0,0,0,2,1,1,21,0002-00-0001-65.png,0001-00-0000-83.png
00000014,36,0,1438358199989,1438358200497,285,400,0,0,0,3,2,1,32,0003-00-0000-17.png,0002-00-0000-34.png
00000014,37,1,1438358201957,1438358202369,292,401,0,0,0,2,3,1,23,0002-00-0001-10.png,0003-00-0001-95.png
00000014,38,1,1438358203337,1438358203931,350,440,0,0,0,4,5,1,45,0004-00-0000-65.png,0005-00-0001-78.png
00000014,39,0,1438358205442,1438358205788,401,514,0,0,0,5,4,1,54,0005-00-0000-41.png,0004-00-0001-87.png
00000014,40,1,1438358206695,1438358207234,388,477,0,0,0,1,2,1,12,0001-00-0001-19.png,0002-00-0001-56.png
00000014,41,0,1438358208617,1438358209181,362,503,0,0,0,3,2,1,32,0003-00-0000-45.png,0002-00-0000-11.png
00000014,42,1,1438358210147,1438358210750,933,419,0,0,0,5,4,1,54,0005-00-0000-47.png,0004-00-0000-46.png
00000014,43,0,1438358211817,1438358211833,515,462,0,0,0,2,1,1,21,0002-00-0001-48.png,0001-00-0001-40.png
00000014,44,1,1438358215326,1438358215831,294,431,0,0,0,4,5,1,45,0004-00-0000-90.png,0005-00-0001-84.png
00000014,45,0,1438358216774,1438358217224,197,477,0,0,0,4,3,1,43,0004-00-0001-92.png,0003-00-0001-14.png
00000014,46,1,1438358218137,1438358218578,334,394,0,0,0,2,3,1,23,0002-00-0000-21.png,0003-00-0001-42.png
00000014,47,1,1438358219480,1438358219968,359,498,0,0,0,1,2,1,12,0001-00-0000-31.png,0002-00-0001-79.png
00000014,48,0,1438358221229,1438358221784,898,482,0,0,0,3,4,1,34,0003-00-0000-15.png,0004-00-0000-44.png
00000014,49,0,1438358222808,1438358222824,504,436,0,0,0,5,4,1,54,0005-00-0001-01.png,0004-00-0000-86.png
00000014,50,1,1438358223891,1438358224316,275,391,0,0,0,1,2,1,12,0001-00-0001-90.png,0002-00-0000-06.png
00000014,51,0,1438358225731,1438358226274,888,370,0,0,0,3,4,1,34,0003-00-0000-50.png,0004-00-0000-14.png
00000014,52,0,1438358227209,1438358227722,339,403,0,0,0,2,1,1,21,0002-00-0000-58.png,0001-00-0000-58.png
00000014,53,0,1438358228662,1438358229126,310,401,0,0,0,3,2,1,32,0003-00-0000-65.png,0002-00-0001-96.png
00000014,54,1,1438358233087,1438358233576,248,398,0,0,0,4,5,1,45,0004-00-0001-01.png,0005-00-0000-28.png
00000014,55,1,1438358234766,1438358235295,894,376,0,0,0,4,3,1,43,0004-00-0001-30.png,0003-00-0001-44.png
00000014,56,1,1438358236447,1438358236958,273,397,0,0,0,2,3,1,23,0002-00-0001-00.png,0003-00-0000-29.png
00000014,57,0,1438358237925,1438358238511,875,357,0,0,0,3,4,1,34,0003-00-0000-39.png,0004-00-0000-19.png
00000014,58,0,1438358239696,1438358240191,266,401,0,0,0,5,4,1,54,0005-00-0001-88.png,0004-00-0000-41.png
00000014,59,1,1438358243223,1438358243744,274,423,0,0,0,1,2,1,12,0001-00-0001-14.png,0002-00-0000-60.png
00000014,60,1,1438358244979,1438358245525,325,397,0,0,0,2,3,1,23,0002-00-0000-28.png,0003-00-0000-82.png
00000014,61,0,1438358246920,1438358247414,304,400,0,0,0,4,3,1,43,0004-00-0001-82.png,0003-00-0000-67.png
00000014,62,0,1438358250600,1438358251068,289,430,0,0,0,2,1,1,21,0002-00-0001-13.png,0001-00-0000-78.png
00000014,63,1,1438358252239,1438358252740,292,394,0,0,0,4,5,1,45,0004-00-0001-20.png,0005-00-0001-53.png
00000014,64,0,1438358255000,1438358255522,299,423,0,0,0,3,2,1,32,0003-00-0000-68.png,0002-00-0000-21.png
00000014,65,1,1438358256366,1438358256378,515,410,0,0,0,1,2,1,12,0001-00-0001-25.png,0002-00-0001-70.png
00000014,66,1,1438358257745,1438358258224,301,402,0,0,0,2,3,1,23,0002-00-0000-19.png,0003-00-0001-78.png
00000014,67,0,1438358259611,1438358260074,337,420,0,0,0,3,2,1,32,0003-00-0000-87.png,0002-00-0001-16.png
00000014,68,1,1438358261063,1438358261589,341,428,0,0,0,3,4,1,34,0003-00-0001-28.png,0004-00-0001-75.png
00000014,69,0,1438358262625,1438358263237,330,487,0,0,0,4,3,1,43,0004-00-0001-51.png,0003-00-0000-76.png
00000014,70,0,1438358264155,1438358264655,377,438,0,0,0,5,4,1,54,0005-00-0001-73.png,0004-00-0001-83.png
00000014,71,0,1438358265605,1438358266112,304,425,0,0,0,2,1,1,21,0002-00-0001-09.png,0001-00-0000-03.png
00000014,72,1,1438358267214,1438358267794,316,402,0,0,0,4,5,1,45,0004-00-0001-06.png,0005-00-0001-31.png
00000014,73,1,1438358268761,1438358269461,900,462,0,0,0,3,2,1,32,0003-00-0001-25.png,0002-00-0001-37.png
00000014,74,1,1438358270654,1438358270670,512,443,0,0,0,2,3,1,23,0002-00-0000-58.png,0003-00-0001-17.png
00000014,75,0,1438358271807,1438358272395,917,484,0,0,0,1,2,1,12,0001-00-0001-87.png,0002-00-0000-01.png
00000014,76,0,1438358273465,1438358274041,899,438,0,0,0,4,5,1,45,0004-00-0001-44.png,0005-00-0001-48.png
00000014,77,0,1438358275013,1438358275543,350,476,0,0,0,5,4,1,54,0005-00-0000-34.png,0004-00-0000-85.png
00000014,78,0,1438358276426,1438358276886,337,477,0,0,0,2,1,1,21,0002-00-0001-99.png,0001-00-0001-47.png
00000014,79,0,1438358277747,1438358278220,289,436,0,0,0,4,3,1,43,0004-00-0001-00.png,0003-00-0000-89.png
00000014,80,1,1438358279355,1438358279403,499,472,0,0,0,3,4,1,34,0003-00-0000-46.png,0004-00-0001-68.png
00000014,81,0,1438358280582,1438358281104,362,410,0,0,0,2,1,1,21,0002-00-0001-87.png,0001-00-0000-78.png
00000014,82,1,1438358281990,1438358282002,483,394,0,0,0,1,2,1,12,0001-00-0000-33.png,0002-00-0000-47.png
00000014,83,1,1438358283117,1438358283612,334,403,0,0,0,3,4,1,34,0003-00-0000-79.png,0004-00-0001-12.png
00000014,84,1,1438358284539,1438358285121,924,483,0,0,0,3,2,1,32,0003-00-0000-20.png,0002-00-0001-59.png
00000014,85,0,1438358286160,1438358286843,349,405,0,0,0,4,3,1,43,0004-00-0001-29.png,0003-00-0001-00.png
00000014,86,0,1438358288166,1438358288668,222,462,0,0,0,5,4,1,54,0005-00-0001-16.png,0004-00-0000-61.png
00000014,87,1,1438358289717,1438358290203,291,377,0,0,0,2,3,1,23,0002-00-0000-45.png,0003-00-0000-87.png
00000014,88,1,1438358291097,1438358291117,519,425,0,0,0,4,5,1,45,0004-00-0000-36.png,0005-00-0001-17.png
00000014,89,1,1438358292375,1438358292807,350,502,0,0,0,4,5,1,45,0004-00-0000-44.png,0005-00-0000-70.png
00000014,90,0,1438358293853,1438358293869,483,447,0,0,0,2,1,1,21,0002-00-0000-34.png,0001-00-0000-15.png
00000014,91,1,1438358294954,1438358295449,312,414,0,0,0,3,4,1,34,0003-00-0001-03.png,0004-00-0000-61.png
00000014,92,1,1438358296396,1438358296928,320,429,0,0,0,1,2,1,12,0001-00-0000-58.png,0002-00-0000-43.png
00000014,93,1,1438358297967,1438358298592,283,405,0,0,0,2,3,1,23,0002-00-0001-50.png,0003-00-0000-37.png
00000014,94,0,1438358299538,1438358299622,519,506,0,0,0,5,4,1,54,0005-00-0001-08.png,0004-00-0000-71.png
00000014,95,0,1438358300457,1438358300919,301,428,0,0,0,3,2,1,32,0003-00-0001-50.png,0002-00-0000-34.png
00000014,96,0,1438358302219,1438358302691,331,408,0,0,0,4,3,1,43,0004-00-0001-91.png,0003-00-0000-27.png
00000014,97,0,1438358303653,1438358304124,360,476,0,0,0,2,1,1,21,0002-00-0001-21.png,0001-00-0001-34.png
00000014,98,1,1438358305140,1438358305855,998,394,0,0,0,5,4,1,54,0005-00-0000-87.png,0004-00-0000-45.png
00000014,99,1,1438358306719,1438358307183,315,389,0,0,0,2,3,1,23,0002-00-0000-30.png,0003-00-0001-16.png
00000014,100,0,1438358308082,1438358308696,914,449,0,0,0,3,4,1,34,0003-00-0001-40.png,0004-00-0001-45.png
00000014,101,0,1438358309888,1438358310443,215,456,0,0,0,4,3,1,43,0004-00-0000-60.png,0003-00-0000-95.png
00000014,102,1,1438358325413,1438358325918,296,388,0,0,0,4,5,1,45,0004-00-0001-98.png,0005-00-0001-33.png
00000014,103,0,1438358327273,1438358327329,478,488,0,0,0,3,2,1,32,0003-00-0001-62.png,0002-00-0001-41.png
00000014,104,1,1438358328234,1438358328725,272,423,0,0,0,1,2,1,12,0001-00-0000-95.png,0002-00-0001-50.png
00000014,105,0,1438358330550,1438358331003,325,397,0,0,0,3,2,1,32,0003-00-0000-60.png,0002-00-0000-61.png
00000014,106,1,1438358332411,1438358332898,305,405,0,0,0,3,4,1,34,0003-00-0001-93.png,0004-00-0001-85.png
00000014,107,1,1438358333830,1438358334340,322,371,0,0,0,4,5,1,45,0004-00-0000-77.png,0005-00-0001-76.png
00000014,108,0,1438358335263,1438358335720,343,400,0,0,0,4,3,1,43,0004-00-0001-34.png,0003-00-0000-85.png
00000014,109,1,1438358337398,1438358337943,321,414,0,0,0,2,3,1,23,0002-00-0000-39.png,0003-00-0000-57.png
00000014,110,0,1438358338849,1438358339458,376,370,0,0,0,5,4,1,54,0005-00-0000-00.png,0004-00-0000-10.png
00000014,111,0,1438358340460,1438358340963,350,358,0,0,0,2,1,1,21,0002-00-0001-75.png,0001-00-0001-07.png
00000014,112,1,1438358342338,1438358342821,342,374,0,0,0,1,2,1,12,0001-00-0001-86.png,0002-00-0000-39.png
00000014,113,0,1438358343687,1438358344214,311,412,0,0,0,4,3,1,43,0004-00-0000-39.png,0003-00-0001-29.png
00000014,114,0,1438358345180,1438358345685,307,378,0,0,0,3,2,1,32,0003-00-0000-69.png,0002-00-0000-97.png
00000014,115,1,1438358346652,1438358346660,515,448,0,0,0,1,2,1,12,0001-00-0001-00.png,0002-00-0000-93.png
00000014,116,0,1438358347696,1438358348170,350,399,0,0,0,2,1,1,21,0002-00-0001-57.png,0001-00-0000-08.png
00000014,117,0,1438358349083,1438358349497,275,436,0,0,0,5,4,1,54,0005-00-0001-45.png,0004-00-0000-77.png
00000014,118,1,1438358356016,1438358356596,418,514,0,0,0,4,5,1,45,0004-00-0001-39.png,0005-00-0000-06.png
00000014,119,1,1438358357643,1438358357651,518,436,0,0,0,2,3,1,23,0002-00-0000-03.png,0003-00-0000-26.png
00000014,120,0,1438358358687,1438358359285,968,370,0,0,0,3,4,1,34,0003-00-0001-42.png,0004-00-0001-99.png
00000014,121,0,1438358360126,1438358360146,441,411,0,0,0,4,3,1,43,0004-00-0000-01.png,0003-00-0001-10.png
00000014,122,1,1438358360972,1438358361418,307,367,0,0,0,4,5,1,45,0004-00-0000-14.png,0005-00-0000-37.png
00000014,123,0,1438358362394,1438358362410,520,457,0,0,0,3,2,1,32,0003-00-0001-25.png,0002-00-0001-55.png
00000014,124,1,1438358363506,1438358363522,510,369,0,0,0,1,2,1,12,0001-00-0001-91.png,0002-00-0000-86.png
00000014,125,0,1438358364580,1438358365046,310,394,0,0,0,2,1,1,21,0002-00-0001-65.png,0001-00-0001-93.png
00000014,126,0,1438358366163,1438358366670,248,492,0,0,0,5,4,1,54,0005-00-0000-82.png,0004-00-0001-58.png
00000014,127,1,1438358367639,1438358368112,340,495,0,0,0,2,3,1,23,0002-00-0001-07.png,0003-00-0001-29.png
00000014,128,1,1438358369020,1438358369469,391,493,0,0,0,3,4,1,34,0003-00-0000-69.png,0004-00-0000-04.png
00000014,129,1,1438358370402,1438358370430,498,446,0,0,0,1,2,1,12,0001-00-0001-18.png,0002-00-0000-04.png
00000014,130,1,1438358371567,1438358372028,325,373,0,0,0,4,5,1,45,0004-00-0000-42.png,0005-00-0001-38.png
00000014,131,0,1438358373028,1438358373048,515,420,0,0,0,3,2,1,32,0003-00-0000-74.png,0002-00-0000-46.png
00000014,132,0,1438358373920,1438358374372,326,398,0,0,0,5,4,1,54,0005-00-0000-69.png,0004-00-0000-03.png
00000014,133,0,1438358375441,1438358375919,241,470,0,0,0,2,1,1,21,0002-00-0001-59.png,0001-00-0001-75.png
00000014,134,1,1438358377023,1438358377497,326,366,0,0,0,3,4,1,34,0003-00-0000-85.png,0004-00-0000-73.png
00000014,135,0,1438358378413,1438358378957,375,447,0,0,0,4,3,1,43,0004-00-0001-65.png,0003-00-0000-67.png
00000014,136,1,1438358380059,1438358380588,391,491,0,0,0,2,3,1,23,0002-00-0001-26.png,0003-00-0001-29.png
00000014,137,0,1438358382057,1438358382540,389,503,0,0,0,4,3,1,43,0004-00-0000-51.png,0003-00-0000-69.png
00000014,138,1,1438358383511,1438358384014,401,410,0,0,0,4,5,1,45,0004-00-0000-12.png,0005-00-0000-46.png
00000014,139,0,1438358384962,1438358384978,520,429,0,0,0,2,1,1,21,0002-00-0000-16.png,0001-00-0000-90.png
00000014,140,1,1438358385811,1438358386234,309,361,0,0,0,2,3,1,23,0002-00-0001-45.png,0003-00-0000-42.png
00000014,141,0,1438358387169,1438358387216,505,528,0,0,0,3,2,1,32,0003-00-0000-08.png,0002-00-0000-64.png
00000014,142,1,1438358388342,1438358388907,376,358,0,0,0,3,4,1,34,0003-00-0000-89.png,0004-00-0000-53.png
00000014,143,0,1438358389832,1438358390376,883,367,0,0,0,1,2,1,12,0001-00-0000-82.png,0002-00-0001-57.png
00000014,144,0,1438358391583,1438358392128,400,460,0,0,0,5,4,1,54,0005-00-0000-13.png,0004-00-0001-14.png
00000014,145,0,1438358393559,1438358394106,925,405,0,0,0,3,4,1,34,0003-00-0000-52.png,0004-00-0000-71.png
00000014,146,1,1438358395088,1438358395136,517,410,0,0,0,2,3,1,23,0002-00-0001-19.png,0003-00-0000-66.png
00000014,147,1,1438358396123,1438358396710,312,362,0,0,0,4,5,1,45,0004-00-0001-09.png,0005-00-0000-30.png
00000014,148,1,1438358397705,1438358398320,947,393,0,0,0,2,1,1,21,0002-00-0001-72.png,0001-00-0001-74.png
00000014,149,1,1438358399334,1438358399956,933,374,0,0,0,5,4,1,54,0005-00-0001-19.png,0004-00-0000-45.png
00000014,150,0,1438358400925,1438358401420,308,370,0,0,0,4,3,1,43,0004-00-0001-18.png,0003-00-0000-50.png
00000014,151,1,1438358402555,1438358402559,522,390,0,0,0,1,2,1,12,0001-00-0001-56.png,0002-00-0000-00.png
00000014,152,0,1438358403520,1438358403992,299,423,0,0,0,3,2,1,32,0003-00-0000-85.png,0002-00-0000-88.png
00000014,153,0,1438358404850,1438358404862,496,377,0,0,0,5,4,1,54,0005-00-0000-95.png,0004-00-0001-47.png
00000014,154,0,1438358405964,1438358406478,368,485,0,0,0,4,3,1,43,0004-00-0001-16.png,0003-00-0001-25.png
00000014,155,1,1438358407300,1438358407785,299,373,0,0,0,3,4,1,34,0003-00-0001-80.png,0004-00-0001-79.png
00000014,156,1,1438358408768,1438358409235,352,369,0,0,0,2,3,1,23,0002-00-0001-21.png,0003-00-0000-10.png
00000014,157,0,1438358410207,1438358410235,511,461,0,0,0,3,2,1,32,0003-00-0000-86.png,0002-00-0000-85.png
00000014,158,1,1438358411430,1438358411883,371,487,0,0,0,1,2,1,12,0001-00-0000-52.png,0002-00-0001-00.png
00000014,159,1,1438358412831,1438358413355,294,401,0,0,0,4,5,1,45,0004-00-0000-52.png,0005-00-0000-76.png
00000014,160,0,1438358414467,1438358414925,328,383,0,0,0,2,1,1,21,0002-00-0001-94.png,0001-00-0000-65.png
00000014,161,1,1438358416003,1438358416537,350,384,0,0,0,4,5,1,45,0004-00-0000-22.png,0005-00-0001-89.png
00000014,162,1,1438358417433,1438358418019,872,381,0,0,0,3,2,1,32,0003-00-0000-15.png,0002-00-0001-45.png
00000014,163,1,1438358418993,1438358419550,974,389,0,0,0,5,4,1,54,0005-00-0001-14.png,0004-00-0001-61.png
00000014,164,0,1438358420515,1438358421087,313,413,0,0,0,2,1,1,21,0002-00-0001-48.png,0001-00-0001-17.png
00000014,165,1,1438358422174,1438358422655,351,381,0,0,0,1,2,1,12,0001-00-0000-90.png,0002-00-0001-13.png
00000014,166,1,1438358423556,1438358423612,513,490,0,0,0,3,4,1,34,0003-00-0001-30.png,0004-00-0001-21.png
00000014,167,0,1438358424586,1438358424602,518,424,0,0,0,4,3,1,43,0004-00-0000-85.png,0003-00-0001-80.png
00000014,168,0,1438358425653,1438358426267,945,480,0,0,0,2,3,1,23,0002-00-0000-77.png,0003-00-0001-65.png
00000014,169,0,1438358427341,1438358427914,924,463,0,0,0,1,2,1,12,0001-00-0001-43.png,0002-00-0000-37.png
00000014,170,1,1438358429011,1438358429665,877,391,0,0,0,3,2,1,32,0003-00-0000-48.png,0002-00-0000-48.png
00000014,171,1,1438358430630,1438358431245,931,468,0,0,0,2,1,1,21,0002-00-0001-70.png,0001-00-0001-88.png
00000014,172,0,1438358432268,1438358432748,325,370,0,0,0,4,3,1,43,0004-00-0001-70.png,0003-00-0000-05.png
00000014,173,1,1438358433839,1438358434321,315,357,0,0,0,2,3,1,23,0002-00-0000-14.png,0003-00-0000-59.png
00000014,174,1,1438358435200,1438358435731,313,417,0,0,0,3,4,1,34,0003-00-0001-47.png,0004-00-0000-99.png
00000014,175,0,1438358436631,1438358436655,522,428,0,0,0,5,4,1,54,0005-00-0001-50.png,0004-00-0001-85.png
00000014,176,1,1438358437494,1438358438012,272,400,0,0,0,4,5,1,45,0004-00-0000-90.png,0005-00-0001-91.png
00000014,177,0,1438358438948,1438358438968,504,448,0,0,0,2,1,1,21,0002-00-0000-25.png,0001-00-0001-21.png
00000014,178,1,1438358439812,1438358440314,235,437,0,0,0,4,5,1,45,0004-00-0000-97.png,0005-00-0000-14.png
00000014,179,1,1438358441241,1438358441876,297,357,0,0,0,2,3,1,23,0002-00-0000-52.png,0003-00-0000-39.png
00000014,180,1,1438358442863,1438358442899,488,478,0,0,0,1,2,1,12,0001-00-0001-19.png,0002-00-0000-18.png
00000014,181,1,1438358443996,1438358444632,936,371,0,0,0,3,2,1,32,0003-00-0001-52.png,0002-00-0000-45.png
00000014,182,0,1438358445583,1438358446038,376,371,0,0,0,4,3,1,43,0004-00-0001-23.png,0003-00-0001-30.png
00000014,183,1,1438358447037,1438358447562,329,402,0,0,0,3,4,1,34,0003-00-0001-24.png,0004-00-0000-30.png
00000014,184,0,1438358448459,1438358448487,521,498,0,0,0,5,4,1,54,0005-00-0001-41.png,0004-00-0001-85.png
00000014,185,0,1438358449334,1438358449876,325,346,0,0,0,2,1,1,21,0002-00-0000-85.png,0001-00-0001-83.png
00000014,186,0,1438358451241,1438358451751,306,386,0,0,0,5,4,1,54,0005-00-0000-33.png,0004-00-0000-70.png
00000014,187,1,1438358452641,1438358453088,370,470,0,0,0,1,2,1,12,0001-00-0001-88.png,0002-00-0001-61.png
00000014,188,0,1438358454043,1438358454087,501,501,0,0,0,4,3,1,43,0004-00-0000-36.png,0003-00-0001-23.png
00000014,189,1,1438358454915,1438358455441,920,492,0,0,0,3,2,1,32,0003-00-0000-16.png,0002-00-0000-14.png
00000014,190,1,1438358456389,1438358456874,351,365,0,0,0,2,3,1,23,0002-00-0001-17.png,0003-00-0000-20.png
00000014,191,1,1438358457866,1438358457898,517,533,0,0,0,3,4,1,34,0003-00-0001-30.png,0004-00-0000-81.png
00000014,192,1,1438358458913,1438358459342,350,358,0,0,0,4,5,1,45,0004-00-0000-40.png,0005-00-0000-43.png
00000014,193,1,1438358460211,1438358460667,325,358,0,0,0,2,3,1,23,0002-00-0000-41.png,0003-00-0000-47.png
00000014,194,1,1438358461564,1438358462162,965,435,0,0,0,3,2,1,32,0003-00-0001-93.png,0002-00-0001-87.png
00000014,195,1,1438358463013,1438358469383,265,407,0,0,0,1,2,1,12,0001-00-0001-68.png,0002-00-0001-31.png
00000014,196,1,1438358470441,1438358470885,299,359,0,0,0,4,5,1,45,0004-00-0001-10.png,0005-00-0000-10.png
00000014,197,0,1438358471844,1438358472315,350,370,0,0,0,2,1,1,21,0002-00-0000-34.png,0001-00-0001-01.png
00000014,198,0,1438358473274,1438358473325,435,418,0,0,0,4,3,1,43,0004-00-0001-30.png,0003-00-0001-40.png
00000014,199,0,1438358474424,1438358475064,954,350,0,0,0,3,4,1,34,0003-00-0001-40.png,0004-00-0000-26.png
00000014,200,0,1438358475989,1438358476521,308,435,0,0,0,5,4,1,54,0005-00-0001-58.png,0004-00-0000-30.png
00000014,201,1,1438358477496,1438358477504,480,386,0,0,0,4,5,1,45,0004-00-0000-52.png,0005-00-0000-74.png
00000014,202,1,1438358478420,1438358478958,869,340,0,0,0,2,1,1,21,0002-00-0000-51.png,0001-00-0000-20.png
00000014,203,1,1438358479871,1438358480517,930,324,0,0,0,5,4,1,54,0005-00-0000-79.png,0004-00-0000-08.png
00000014,204,0,1438358481503,1438358481507,507,407,0,0,0,3,2,1,32,0003-00-0000-94.png,0002-00-0001-52.png
00000014,205,0,1438358482642,1438358483079,363,501,0,0,0,4,3,1,43,0004-00-0001-85.png,0003-00-0000-08.png
00000014,206,1,1438358484889,1438358485509,256,497,0,0,0,3,4,1,34,0003-00-0000-10.png,0004-00-0001-13.png
00000014,207,1,1438358486399,1438358486860,350,358,0,0,0,1,2,1,12,0001-00-0000-56.png,0002-00-0001-52.png
00000014,208,1,1438358487801,1438358487805,510,421,0,0,0,2,3,1,23,0002-00-0000-24.png,0003-00-0000-12.png
00000014,209,0,1438358488804,1438358489423,951,436,0,0,0,3,4,1,34,0003-00-0001-62.png,0004-00-0001-93.png
00000014,210,0,1438358490576,1438358491030,312,391,0,0,0,3,2,1,32,0003-00-0001-74.png,0002-00-0000-07.png
00000014,211,0,1438358491858,1438358492290,321,393,0,0,0,2,1,1,21,0002-00-0000-84.png,0001-00-0000-06.png
00000014,212,1,1438358493584,1438358493588,514,384,0,0,0,2,3,1,23,0002-00-0000-63.png,0003-00-0001-54.png
00000014,213,1,1438358494567,1438358495020,325,397,0,0,0,1,2,1,12,0001-00-0001-64.png,0002-00-0001-12.png
00000014,214,1,1438358495920,1438358495944,519,403,0,0,0,4,5,1,45,0004-00-0001-35.png,0005-00-0000-71.png
00000014,215,0,1438358497052,1438358497633,401,501,0,0,0,5,4,1,54,0005-00-0000-65.png,0004-00-0001-53.png
00000014,216,0,1438358498741,1438358498777,496,427,0,0,0,4,3,1,43,0004-00-0001-72.png,0003-00-0000-54.png
00000014,217,0,1438358499624,1438358500080,307,423,0,0,0,2,1,1,21,0002-00-0001-26.png,0001-00-0000-28.png
00000014,218,0,1438358501266,1438358501754,296,397,0,0,0,3,2,1,32,0003-00-0001-66.png,0002-00-0000-38.png
00000014,219,1,1438358502759,1438358503272,333,460,0,0,0,1,2,1,12,0001-00-0001-49.png,0002-00-0001-23.png
00000014,220,0,1438358504179,1438358504762,875,349,0,0,0,3,4,1,34,0003-00-0001-78.png,0004-00-0001-36.png
00000014,221,0,1438358506037,1438358506467,273,383,0,0,0,4,3,1,43,0004-00-0001-81.png,0003-00-0001-82.png
00000014,222,0,1438358507526,1438358507996,345,488,0,0,0,5,4,1,54,0005-00-0000-39.png,0004-00-0001-96.png
00000014,223,1,1438358509135,1438358509590,363,397,0,0,0,4,5,1,45,0004-00-0001-39.png,0005-00-0001-99.png
00000014,224,1,1438358510495,1438358510924,393,401,0,0,0,2,3,1,23,0002-00-0001-52.png,0003-00-0001-70.png
00000014,225,0,1438358511942,1438358512438,347,477,0,0,0,3,2,1,32,0003-00-0000-71.png,0002-00-0001-65.png
00000014,226,1,1438358513519,1438358513543,523,418,0,0,0,2,3,1,23,0002-00-0001-76.png,0003-00-0001-81.png
00000014,227,0,1438358514482,1438358515083,935,447,0,0,0,4,5,1,45,0004-00-0000-02.png,0005-00-0001-15.png
00000014,228,0,1438358516142,1438358516600,260,371,0,0,0,4,3,1,43,0004-00-0000-88.png,0003-00-0001-48.png
00000014,229,0,1438358517604,1438358518213,957,362,0,0,0,1,2,1,12,0001-00-0000-81.png,0002-00-0000-03.png
00000014,230,0,1438358519191,1438358519796,954,483,0,0,0,3,4,1,34,0003-00-0000-45.png,0004-00-0001-89.png
00000014,231,0,1438358520683,1438358521177,306,394,0,0,0,5,4,1,54,0005-00-0000-36.png,0004-00-0000-36.png
00000014,232,0,1438358522274,1438358522294,516,426,0,0,0,2,1,1,21,0002-00-0000-60.png,0001-00-0001-12.png
00000014,233,0,1438358523308,1438358523325,507,462,0,0,0,4,3,1,43,0004-00-0000-68.png,0003-00-0001-12.png
00000014,234,0,1438358524187,1438358524772,881,421,0,0,0,4,5,1,45,0004-00-0001-12.png,0005-00-0000-05.png
00000014,235,1,1438358525892,1438358526431,396,430,0,0,0,1,2,1,12,0001-00-0000-65.png,0002-00-0000-59.png
00000014,236,0,1438358527468,1438358527923,299,373,0,0,0,3,2,1,32,0003-00-0001-11.png,0002-00-0001-80.png
00000014,237,0,1438358528981,1438358529461,325,369,0,0,0,5,4,1,54,0005-00-0000-83.png,0004-00-0000-69.png
00000014,238,1,1438358530959,1438358530975,510,373,0,0,0,2,3,1,23,0002-00-0001-82.png,0003-00-0000-82.png
00000014,239,1,1438358531963,1438358533050,318,364,0,0,0,3,4,1,34,0003-00-0000-19.png,0004-00-0000-24.png
00000014,240,0,1438358534061,1438358534085,509,453,0,0,0,2,1,1,21,0002-00-0000-67.png,0001-00-0000-81.png
00000014,241,0,1438358535221,1438358535877,900,436,0,0,0,3,4,1,34,0003-00-0001-81.png,0004-00-0001-55.png
00000014,242,1,1438358540639,1438358541074,263,361,0,0,0,4,5,1,45,0004-00-0000-35.png,0005-00-0000-13.png
00000014,243,1,1438358542018,1438358542048,478,399,0,0,0,1,2,1,12,0001-00-0001-43.png,0002-00-0001-85.png
00000014,244,0,1438358543014,1438358543034,497,399,0,0,0,4,3,1,43,0004-00-0001-41.png,0003-00-0001-76.png
00000014,245,1,1438358544125,1438358544194,516,454,0,0,0,2,3,1,23,0002-00-0001-01.png,0003-00-0000-16.png
00000014,246,0,1438358545163,1438358545645,291,391,0,0,0,2,1,1,21,0002-00-0001-58.png,0001-00-0000-90.png
00000014,247,0,1438358546682,1438358546702,467,412,0,0,0,3,2,1,32,0003-00-0000-51.png,0002-00-0000-77.png
00000014,248,0,1438358547575,1438358548020,331,407,0,0,0,5,4,1,54,0005-00-0000-13.png,0004-00-0000-85.png
00000014,249,0,1438358549279,1438358549756,343,462,0,0,0,4,3,1,43,0004-00-0000-52.png,0003-00-0001-47.png
00000014,250,0,1438358550724,1438358550728,459,368,0,0,0,2,1,1,21,0002-00-0000-76.png,0001-00-0000-88.png
00000014,251,1,1438358551668,1438358552142,291,391,0,0,0,4,5,1,45,0004-00-0001-54.png,0005-00-0000-10.png
00000014,252,1,1438358553574,1438358554119,950,405,0,0,0,3,2,1,32,0003-00-0000-15.png,0002-00-0000-92.png
00000014,253,0,1438358555098,1438358555582,354,404,0,0,0,5,4,1,54,0005-00-0000-64.png,0004-00-0000-41.png
00000014,254,1,1438358556638,1438358557171,311,409,0,0,0,2,3,1,23,0002-00-0001-29.png,0003-00-0001-37.png
00000014,255,1,1438358558071,1438358558107,498,443,0,0,0,3,4,1,34,0003-00-0000-02.png,0004-00-0000-96.png
00000014,256,1,1438358559183,1438358559683,317,391,0,0,0,1,2,1,12,0001-00-0000-54.png,0002-00-0001-56.png
00000014,257,1,1438358560697,1438358561171,299,384,0,0,0,4,5,1,45,0004-00-0000-73.png,0005-00-0001-39.png
00000014,258,0,1438358562136,1438358562591,366,477,0,0,0,2,1,1,21,0002-00-0000-71.png,0001-00-0001-49.png
00000014,259,0,1438358563484,1438358563500,441,398,0,0,0,4,3,1,43,0004-00-0000-09.png,0003-00-0001-08.png
00000014,260,0,1438358564340,1438358564352,487,390,0,0,0,5,4,1,54,0005-00-0001-20.png,0004-00-0000-99.png
00000014,261,1,1438358565218,1438358565238,487,392,0,0,0,1,2,1,12,0001-00-0001-83.png,0002-00-0000-22.png
00000014,262,1,1438358566118,1438358566666,874,370,0,0,0,3,2,1,32,0003-00-0000-63.png,0002-00-0000-11.png
00000014,263,1,1438358568057,1438358568626,403,503,0,0,0,3,4,1,34,0003-00-0001-32.png,0004-00-0000-67.png
00000014,264,1,1438358569652,1438358570179,357,369,0,0,0,2,3,1,23,0002-00-0000-44.png,0003-00-0001-38.png
00000014,265,1,1438358571087,1438358571585,313,387,0,0,0,1,2,1,12,0001-00-0000-47.png,0002-00-0001-59.png
00000014,266,0,1438358572956,1438358572984,511,422,0,0,0,3,2,1,32,0003-00-0001-62.png,0002-00-0001-95.png
00000014,267,0,1438358574088,1438358574578,301,360,0,0,0,5,4,1,54,0005-00-0001-64.png,0004-00-0000-86.png
00000014,268,1,1438358575566,1438358575574,522,417,0,0,0,3,4,1,34,0003-00-0001-33.png,0004-00-0001-22.png
00000014,269,0,1438358576556,1438358577055,323,397,0,0,0,2,1,1,21,0002-00-0001-81.png,0001-00-0001-31.png
00000014,270,0,1438358578162,1438358578884,934,417,0,0,0,2,3,1,23,0002-00-0000-05.png,0003-00-0001-50.png
00000014,271,0,1438358579793,1438358579990,500,399,0,0,0,4,3,1,43,0004-00-0001-26.png,0003-00-0000-83.png
00000014,272,1,1438358580850,1438358581289,318,349,0,0,0,4,5,1,45,0004-00-0001-84.png,0005-00-0001-59.png
00000014,273,0,1438358582218,1438358582326,522,521,0,0,0,4,3,1,43,0004-00-0001-59.png,0003-00-0001-04.png
00000014,274,1,1438358583215,1438358583239,513,410,0,0,0,3,4,1,34,0003-00-0000-22.png,0004-00-0000-54.png
00000014,275,0,1438358584194,1438358584214,522,417,0,0,0,5,4,1,54,0005-00-0000-59.png,0004-00-0001-39.png
00000014,276,1,1438358585372,1438358585904,888,501,0,0,0,2,1,1,21,0002-00-0001-16.png,0001-00-0000-54.png
00000014,277,1,1438358586858,1438358586894,522,423,0,0,0,4,5,1,45,0004-00-0001-99.png,0005-00-0000-78.png
00000014,278,0,1438358587952,1438358588495,374,422,0,0,0,3,2,1,32,0003-00-0001-28.png,0002-00-0000-03.png
00000014,279,1,1438358589412,1438358589863,293,374,0,0,0,2,3,1,23,0002-00-0000-99.png,0003-00-0001-57.png
00000014,280,1,1438358591032,1438358591444,273,396,0,0,0,1,2,1,12,0001-00-0000-46.png,0002-00-0000-96.png
00000014,281,0,1438358593258,1438358593796,933,472,0,0,0,3,4,1,34,0003-00-0001-91.png,0004-00-0001-42.png
00000014,282,0,1438358594926,1438358595412,286,396,0,0,0,2,1,1,21,0002-00-0001-19.png,0001-00-0000-11.png
00000014,283,0,1438358596761,1438358597258,951,384,0,0,0,1,2,1,12,0001-00-0001-30.png,0002-00-0000-41.png
00000014,284,0,1438358598196,1438358598666,338,450,0,0,0,4,3,1,43,0004-00-0001-71.png,0003-00-0000-33.png
00000014,285,1,1438358599497,1438358599954,292,388,0,0,0,4,5,1,45,0004-00-0000-71.png,0005-00-0001-73.png
00000014,286,0,1438358600960,1438358601003,492,517,0,0,0,3,2,1,32,0003-00-0001-50.png,0002-00-0000-23.png
00000014,287,1,1438358601863,1438358601891,522,444,0,0,0,2,3,1,23,0002-00-0001-26.png,0003-00-0001-85.png
00000014,288,0,1438358602958,1438358603459,400,501,0,0,0,5,4,1,54,0005-00-0000-36.png,0004-00-0001-31.png
00000014,289,0,1438358604614,1438358605107,365,493,0,0,0,5,4,1,54,0005-00-0001-47.png,0004-00-0000-38.png
00000014,290,0,1438358606004,1438358606024,475,442,0,0,0,2,1,1,21,0002-00-0000-83.png,0001-00-0000-33.png
00000014,291,1,1438358607040,1438358607511,338,476,0,0,0,4,5,1,45,0004-00-0001-73.png,0005-00-0001-25.png
00000014,292,1,1438358608432,1438358609223,955,438,0,0,0,3,2,1,32,0003-00-0001-21.png,0002-00-0000-58.png
00000014,293,1,1438358610212,1438358610712,355,392,0,0,0,2,3,1,23,0002-00-0001-20.png,0003-00-0000-84.png
00000014,294,0,1438358611602,1438358612134,349,384,0,0,0,4,3,1,43,0004-00-0001-99.png,0003-00-0001-76.png
00000014,295,1,1438358613353,1438358613821,376,398,0,0,0,1,2,1,12,0001-00-0001-94.png,0002-00-0001-79.png
00000014,296,1,1438358614813,1438358615353,343,387,0,0,0,3,4,1,34,0003-00-0000-26.png,0004-00-0000-29.png
00000014,297,0,1438358616918,1438358617379,310,384,0,0,0,4,3,1,43,0004-00-0001-06.png,0003-00-0001-71.png
00000014,298,0,1438358618538,1438358618997,267,373,0,0,0,3,2,1,32,0003-00-0001-14.png,0002-00-0001-33.png
00000014,299,1,1438358619863,1438358620371,365,368,0,0,0,4,5,1,45,0004-00-0001-91.png,0005-00-0001-74.png
00000014,300,1,1438358621292,1438358621816,324,405,0,0,0,2,3,1,23,0002-00-0001-46.png,0003-00-0000-63.png
00000014,301,0,1438358623198,1438358623842,947,407,0,0,0,3,4,1,34,0003-00-0001-13.png,0004-00-0000-21.png
00000014,302,1,1438358641645,1438358642751,896,390,0,0,0,2,1,1,21,0002-00-0001-95.png,0001-00-0000-30.png
00000014,303,1,1438358643734,1438358644169,343,453,0,0,0,1,2,1,12,0001-00-0001-52.png,0002-00-0001-21.png
00000014,304,1,1438358645106,1438358645753,950,464,0,0,0,5,4,1,54,0005-00-0000-73.png,0004-00-0000-13.png
00000014,305,0,1438358646705,1438358647351,997,387,0,0,0,3,4,1,34,0003-00-0000-21.png,0004-00-0000-28.png
00000014,306,0,1438358648485,1438358648959,335,449,0,0,0,5,4,1,54,0005-00-0000-10.png,0004-00-0000-67.png
00000014,307,1,1438358650023,1438358650635,951,449,0,0,0,2,1,1,21,0002-00-0001-40.png,0001-00-0001-54.png
00000014,308,0,1438358651544,1438358652010,316,399,0,0,0,4,3,1,43,0004-00-0000-27.png,0003-00-0000-05.png
00000014,309,0,1438358653423,1438358653881,298,351,0,0,0,3,2,1,32,0003-00-0000-39.png,0002-00-0000-87.png
00000014,310,1,1438358654741,1438358655210,289,390,0,0,0,4,5,1,45,0004-00-0001-78.png,0005-00-0001-65.png
00000014,311,1,1438358656144,1438358656567,316,349,0,0,0,2,3,1,23,0002-00-0001-20.png,0003-00-0001-82.png
00000014,312,0,1438358657538,1438358658119,949,455,0,0,0,1,2,1,12,0001-00-0000-16.png,0002-00-0001-02.png
00000014,313,1,1438358659084,1438358659112,514,400,0,0,0,2,3,1,23,0002-00-0000-82.png,0003-00-0001-42.png
00000014,314,0,1438358660041,1438358660049,516,397,0,0,0,3,2,1,32,0003-00-0000-36.png,0002-00-0000-20.png
00000014,315,1,1438358660973,1438358661497,950,387,0,0,0,2,1,1,21,0002-00-0000-73.png,0001-00-0000-39.png
00000014,316,0,1438358662341,1438358662812,356,359,0,0,0,4,3,1,43,0004-00-0001-10.png,0003-00-0001-25.png
00000014,317,1,1438358663876,1438358664322,298,379,0,0,0,1,2,1,12,0001-00-0001-22.png,0002-00-0001-10.png
00000014,318,1,1438358665197,1438358665783,358,355,0,0,0,4,5,1,45,0004-00-0000-53.png,0005-00-0000-71.png
00000014,319,1,1438358666719,1438358667374,972,363,0,0,0,5,4,1,54,0005-00-0000-36.png,0004-00-0000-00.png
00000014,320,1,1438358668279,1438358668299,521,429,0,0,0,3,4,1,34,0003-00-0000-81.png,0004-00-0000-03.png
00000014,321,0,1438358669413,1438358669983,355,357,0,0,0,2,1,1,21,0002-00-0000-25.png,0001-00-0001-38.png
00000014,322,1,1438358671100,1438358671708,350,332,0,0,0,1,2,1,12,0001-00-0000-56.png,0002-00-0000-00.png
00000014,323,1,1438358672596,1438358673058,185,410,0,0,0,3,4,1,34,0003-00-0001-44.png,0004-00-0001-79.png
00000014,324,1,1438358673989,1438358674465,286,371,0,0,0,2,3,1,23,0002-00-0001-28.png,0003-00-0000-19.png
00000014,325,0,1438358675406,1438358675426,523,426,0,0,0,3,2,1,32,0003-00-0001-91.png,0002-00-0001-40.png
00000014,326,0,1438358676258,1438358676679,293,387,0,0,0,4,3,1,43,0004-00-0000-12.png,0003-00-0000-75.png
00000014,327,1,1438358677817,1438358678305,291,375,0,0,0,4,5,1,45,0004-00-0001-13.png,0005-00-0000-41.png
00000014,328,0,1438358679197,1438358679205,510,447,0,0,0,5,4,1,54,0005-00-0000-31.png,0004-00-0000-49.png
00000014,329,1,1438358680076,1438358680493,316,364,0,0,0,4,5,1,45,0004-00-0001-76.png,0005-00-0000-39.png
00000014,330,1,1438358681386,1438358682441,319,365,0,0,0,2,3,1,23,0002-00-0001-45.png,0003-00-0001-59.png
00000014,331,1,1438358683424,1438358683452,515,448,0,0,0,3,4,1,34,0003-00-0000-99.png,0004-00-0001-07.png
00000014,332,1,1438358684487,1438358685083,969,413,0,0,0,2,1,1,21,0002-00-0000-22.png,0001-00-0000-15.png
00000014,333,0,1438358685996,1438358686535,277,378,0,0,0,4,3,1,43,0004-00-0001-57.png,0003-00-0000-63.png
00000014,334,0,1438358687371,1438358687953,901,434,0,0,0,1,2,1,12,0001-00-0001-05.png,0002-00-0001-18.png
00000014,335,0,1438358688946,1438358689435,325,377,0,0,0,5,4,1,54,0005-00-0001-50.png,0004-00-0000-01.png
00000014,336,1,1438358690558,1438358691110,929,382,0,0,0,3,2,1,32,0003-00-0001-00.png,0002-00-0001-10.png
00000014,337,0,1438358692079,1438358692714,953,394,0,0,0,2,3,1,23,0002-00-0000-48.png,0003-00-0000-34.png
00000014,338,1,1438358693609,1438358693617,425,367,0,0,0,4,5,1,45,0004-00-0000-82.png,0005-00-0001-88.png
00000014,339,1,1438358694631,1438358695072,325,358,0,0,0,3,4,1,34,0003-00-0000-93.png,0004-00-0001-43.png
00000014,340,0,1438358696061,1438358696065,507,464,0,0,0,5,4,1,54,0005-00-0001-77.png,0004-00-0001-11.png
00000014,341,0,1438358696879,1438358697348,319,362,0,0,0,4,3,1,43,0004-00-0001-75.png,0003-00-0000-25.png
00000014,342,0,1438358698508,1438358699123,957,379,0,0,0,1,2,1,12,0001-00-0000-02.png,0002-00-0000-57.png
00000014,343,0,1438358700078,1438358700090,492,369,0,0,0,3,2,1,32,0003-00-0000-58.png,0002-00-0000-11.png
00000014,344,0,1438358700929,1438358701406,401,409,0,0,0,2,1,1,21,0002-00-0000-59.png,0001-00-0000-76.png
00000014,345,0,1438358702294,1438358702318,521,507,0,0,0,4,3,1,43,0004-00-0001-72.png,0003-00-0000-24.png
00000014,346,1,1438358703416,1438358703851,248,372,0,0,0,1,2,1,12,0001-00-0001-71.png,0002-00-0001-65.png
00000014,347,0,1438358704858,1438358705315,322,410,0,0,0,5,4,1,54,0005-00-0000-75.png,0004-00-0001-09.png
00000014,348,0,1438358706427,1438358706902,322,471,0,0,0,3,2,1,32,0003-00-0001-18.png,0002-00-0001-83.png
00000014,349,0,1438358707786,1438358708274,319,435,0,0,0,2,1,1,21,0002-00-0001-81.png,0001-00-0000-13.png
00000014,350,1,1438358709180,1438358709200,514,528,0,0,0,3,4,1,34,0003-00-0001-52.png,0004-00-0000-89.png
00000014,351,1,1438358710584,1438358711049,325,397,0,0,0,2,3,1,23,0002-00-0000-39.png,0003-00-0001-98.png
00000014,352,1,1438358711974,1438358712439,303,380,0,0,0,4,5,1,45,0004-00-0000-24.png,0005-00-0000-31.png
00000014,353,1,1438358713855,1438358713879,504,453,0,0,0,2,3,1,23,0002-00-0000-49.png,0003-00-0001-07.png
00000014,354,1,1438358714975,1438358715583,885,388,0,0,0,2,1,1,21,0002-00-0000-15.png,0001-00-0001-40.png
00000014,355,0,1438358716628,1438358717230,948,394,0,0,0,4,5,1,45,0004-00-0000-04.png,0005-00-0000-22.png
00000014,356,0,1438358718493,1438358718509,478,395,0,0,0,4,3,1,43,0004-00-0000-46.png,0003-00-0001-98.png
00000014,357,1,1438358719594,1438358720088,913,372,0,0,0,5,4,1,54,0005-00-0000-04.png,0004-00-0001-01.png
00000014,358,0,1438358721138,1438358721684,939,464,0,0,0,3,4,1,34,0003-00-0001-91.png,0004-00-0000-50.png
00000014,359,1,1438358722536,1438358723076,949,367,0,0,0,3,2,1,32,0003-00-0000-74.png,0002-00-0001-05.png
00000014,360,0,1438358723968,1438358725018,931,358,0,0,0,1,2,1,12,0001-00-0000-01.png,0002-00-0001-20.png
00000014,361,1,1438358726063,1438358726917,340,339,0,0,0,4,5,1,45,0004-00-0001-21.png,0005-00-0001-76.png
00000014,362,0,1438358727814,1438358727830,511,418,0,0,0,2,1,1,21,0002-00-0001-73.png,0001-00-0001-50.png
00000014,363,0,1438358728717,1438358729209,294,378,0,0,0,3,2,1,32,0003-00-0000-93.png,0002-00-0000-43.png
00000014,364,1,1438358730387,1438358730870,357,491,0,0,0,2,3,1,23,0002-00-0001-09.png,0003-00-0001-36.png
00000014,365,0,1438358731811,1438358732367,914,371,0,0,0,1,2,1,12,0001-00-0001-14.png,0002-00-0000-55.png
00000014,366,0,1438358733400,1438358733871,383,499,0,0,0,5,4,1,54,0005-00-0000-33.png,0004-00-0001-48.png
00000014,367,0,1438358734869,1438358734885,500,438,0,0,0,4,3,1,43,0004-00-0001-36.png,0003-00-0000-46.png
00000014,368,0,1438358735951,1438358736451,952,409,0,0,0,3,4,1,34,0003-00-0001-33.png,0004-00-0000-19.png
00000014,369,0,1438358737353,1438358737796,318,410,0,0,0,5,4,1,54,0005-00-0000-61.png,0004-00-0001-48.png
00000014,370,1,1438358738645,1438358739147,896,472,0,0,0,3,2,1,32,0003-00-0001-67.png,0002-00-0000-20.png
00000014,371,1,1438358740056,1438358740636,376,449,0,0,0,4,5,1,45,0004-00-0000-79.png,0005-00-0000-88.png
00000014,372,1,1438358741678,1438358741722,521,428,0,0,0,3,4,1,34,0003-00-0001-10.png,0004-00-0000-44.png
00000014,373,0,1438358742821,1438358743283,197,473,0,0,0,4,3,1,43,0004-00-0000-21.png,0003-00-0001-42.png
00000014,374,0,1438358744565,1438358745122,888,469,0,0,0,1,2,1,12,0001-00-0000-31.png,0002-00-0001-73.png
00000014,375,1,1438358746357,1438358746864,376,419,0,0,0,2,3,1,23,0002-00-0000-45.png,0003-00-0001-49.png
00000014,376,0,1438358747881,1438358748352,197,449,0,0,0,2,1,1,21,0002-00-0001-92.png,0001-00-0000-13.png
00000014,377,0,1438358749588,1438358750067,350,358,0,0,0,2,1,1,21,0002-00-0000-34.png,0001-00-0000-42.png
00000014,378,0,1438358751123,1438358751143,504,396,0,0,0,5,4,1,54,0005-00-0000-21.png,0004-00-0001-97.png
00000014,379,1,1438358751982,1438358752433,376,397,0,0,0,2,3,1,23,0002-00-0000-78.png,0003-00-0001-79.png
00000014,380,0,1438358753373,1438358753816,340,414,0,0,0,3,2,1,32,0003-00-0000-58.png,0002-00-0000-97.png
00000014,381,0,1438358755034,1438358755604,389,519,0,0,0,4,3,1,43,0004-00-0001-39.png,0003-00-0001-82.png
00000014,382,0,1438358756620,1438358757247,891,392,0,0,0,3,4,1,34,0003-00-0001-99.png,0004-00-0000-78.png
00000014,383,1,1438358758415,1438358758423,520,410,0,0,0,4,5,1,45,0004-00-0000-64.png,0005-00-0000-19.png
00000014,384,1,1438358759376,1438358759858,338,410,0,0,0,1,2,1,12,0001-00-0001-38.png,0002-00-0000-10.png
00000014,385,0,1438358760817,1438358761472,952,455,0,0,0,4,5,1,45,0004-00-0001-41.png,0005-00-0001-42.png
00000014,386,1,1438358762554,1438358763087,376,384,0,0,0,2,3,1,23,0002-00-0001-70.png,0003-00-0001-64.png
00000014,387,0,1438358764064,1438358764567,293,395,0,0,0,5,4,1,54,0005-00-0000-97.png,0004-00-0000-75.png
00000014,388,1,1438358765943,1438358766379,311,423,0,0,0,1,2,1,12,0001-00-0000-45.png,0002-00-0000-62.png
00000014,389,0,1438358767361,1438358767856,290,395,0,0,0,3,2,1,32,0003-00-0001-31.png,0002-00-0000-76.png
00000014,390,1,1438358769052,1438358769102,513,442,0,0,0,3,4,1,34,0003-00-0001-88.png,0004-00-0000-52.png
00000014,391,1,1438358770037,1438358770663,876,492,0,0,0,4,3,1,43,0004-00-0000-83.png,0003-00-0001-72.png
00000014,392,1,1438358771600,1438358772291,955,474,0,0,0,2,1,1,21,0002-00-0000-60.png,0001-00-0001-81.png
00000014,393,0,1438358773260,1438358773770,337,397,0,0,0,2,1,1,21,0002-00-0000-62.png,0001-00-0001-80.png
00000014,394,0,1438358774628,1438358775222,955,524,0,0,0,1,2,1,12,0001-00-0001-72.png,0002-00-0001-84.png
00000014,395,1,1438358776106,1438358776683,317,377,0,0,0,3,4,1,34,0003-00-0000-90.png,0004-00-0001-09.png
00000014,396,1,1438358777571,1438358777579,518,423,0,0,0,4,5,1,45,0004-00-0001-51.png,0005-00-0001-61.png
00000014,397,1,1438358778624,1438358779193,927,371,0,0,0,3,2,1,32,0003-00-0001-78.png,0002-00-0001-00.png
00000014,398,0,1438358780164,1438358780676,399,505,0,0,0,4,3,1,43,0004-00-0000-25.png,0003-00-0001-47.png
00000014,399,1,1438358782129,1438358782697,940,417,0,0,0,5,4,1,54,0005-00-0000-55.png,0004-00-0001-50.png
00000014,400,1,1438358783703,1438358784196,337,388,0,0,0,2,3,1,23,0002-00-0000-72.png,0003-00-0000-57.png
00000014,401,1,1438358785092,1438358785698,897,377,0,0,0,5,4,1,54,0005-00-0001-07.png,0004-00-0000-73.png
00000014,402,1,1438358786617,1438358787276,387,487,0,0,0,2,3,1,23,0002-00-0001-85.png,0003-00-0000-00.png
00000014,403,1,1438358788263,1438358788287,517,453,0,0,0,4,5,1,45,0004-00-0000-04.png,0005-00-0000-37.png
00000014,404,0,1438358789462,1438358790144,955,492,0,0,0,3,4,1,34,0003-00-0001-71.png,0004-00-0000-13.png
00000014,405,1,1438358791520,1438358791528,523,444,0,0,0,1,2,1,12,0001-00-0001-45.png,0002-00-0001-39.png
00000014,406,1,1438358792458,1438358793098,952,492,0,0,0,2,1,1,21,0002-00-0000-08.png,0001-00-0000-37.png
00000014,407,1,1438358794033,1438358794587,930,428,0,0,0,3,2,1,32,0003-00-0000-97.png,0002-00-0000-93.png
00000014,408,0,1438358795576,1438358796052,310,348,0,0,0,4,3,1,43,0004-00-0000-50.png,0003-00-0001-60.png
00000014,409,1,1438358796898,1438358797372,350,358,0,0,0,1,2,1,12,0001-00-0001-54.png,0002-00-0001-53.png
00000014,410,0,1438358798351,1438358798939,350,372,0,0,0,3,2,1,32,0003-00-0001-01.png,0002-00-0000-77.png
00000014,411,1,1438358800219,1438358800765,337,393,0,0,0,3,4,1,34,0003-00-0000-41.png,0004-00-0000-66.png
00000014,412,0,1438358801649,1438358802133,294,383,0,0,0,2,1,1,21,0002-00-0000-64.png,0001-00-0001-67.png
00000014,413,1,1438358803016,1438358803406,291,390,0,0,0,2,3,1,23,0002-00-0001-70.png,0003-00-0000-21.png
00000014,414,1,1438358804331,1438358805420,862,345,0,0,0,5,4,1,54,0005-00-0000-85.png,0004-00-0000-74.png
00000014,415,1,1438358806579,1438358807152,940,397,0,0,0,4,3,1,43,0004-00-0000-33.png,0003-00-0001-09.png
00000014,416,1,1438358808087,1438358808574,376,370,0,0,0,4,5,1,45,0004-00-0001-01.png,0005-00-0000-18.png
00000014,417,1,1438358810502,1438358811182,947,472,0,0,0,3,2,1,32,0003-00-0001-26.png,0002-00-0000-63.png
00000014,418,0,1438358816417,1438358816441,504,425,0,0,0,4,3,1,43,0004-00-0000-47.png,0003-00-0000-07.png
00000014,419,1,1438358817559,1438358817994,350,384,0,0,0,2,3,1,23,0002-00-0001-11.png,0003-00-0001-82.png
00000014,420,0,1438358818870,1438358818882,515,400,0,0,0,5,4,1,54,0005-00-0000-71.png,0004-00-0000-01.png
00000014,421,1,1438358820569,1438358821012,248,462,0,0,0,1,2,1,12,0001-00-0001-91.png,0002-00-0000-01.png
00000014,422,0,1438358822328,1438358822895,952,439,0,0,0,3,4,1,34,0003-00-0001-39.png,0004-00-0001-97.png
00000014,423,1,1438358824297,1438358824748,348,385,0,0,0,4,5,1,45,0004-00-0000-35.png,0005-00-0000-70.png
00000014,424,0,1438358825600,1438358826099,315,404,0,0,0,2,1,1,21,0002-00-0001-84.png,0001-00-0000-53.png
00000014,425,0,1438358827756,1438358828206,325,358,0,0,0,5,4,1,54,0005-00-0000-12.png,0004-00-0000-57.png
00000014,426,0,1438358830320,1438358830879,922,471,0,0,0,2,3,1,23,0002-00-0000-68.png,0003-00-0000-98.png
00000014,427,1,1438358831753,1438358832186,318,380,0,0,0,1,2,1,12,0001-00-0001-46.png,0002-00-0000-63.png
00000014,428,0,1438358833102,1438358833122,515,419,0,0,0,4,3,1,43,0004-00-0001-16.png,0003-00-0000-09.png
00000014,429,1,1438358834713,1438358835206,273,397,0,0,0,4,5,1,45,0004-00-0000-56.png,0005-00-0000-08.png
00000014,430,1,1438358836552,1438358837138,914,455,0,0,0,3,2,1,32,0003-00-0000-67.png,0002-00-0000-91.png
00000014,431,1,1438358838101,1438358838681,944,377,0,0,0,2,1,1,21,0002-00-0001-43.png,0001-00-0001-69.png
00000014,432,0,1438358839610,1438358840149,879,349,0,0,0,3,4,1,34,0003-00-0001-93.png,0004-00-0001-36.png
00000014,433,1,1438358841340,1438358841990,363,501,0,0,0,4,5,1,45,0004-00-0000-71.png,0005-00-0000-82.png
00000014,434,1,1438358842900,1438358842936,523,455,0,0,0,1,2,1,12,0001-00-0001-12.png,0002-00-0000-26.png
00000014,435,1,1438358844135,1438358844727,320,401,0,0,0,2,3,1,23,0002-00-0001-53.png,0003-00-0001-44.png
00000014,436,1,1438358845634,1438358846229,877,355,0,0,0,5,4,1,54,0005-00-0001-27.png,0004-00-0000-48.png
00000014,437,0,1438358847210,1438358847727,926,384,0,0,0,3,4,1,34,0003-00-0001-06.png,0004-00-0001-54.png
00000014,438,1,1438358848560,1438358849059,954,364,0,0,0,3,2,1,32,0003-00-0000-40.png,0002-00-0000-11.png
00000014,439,1,1438358849986,1438358850507,926,371,0,0,0,2,1,1,21,0002-00-0001-18.png,0001-00-0001-00.png
00000014,440,1,1438358851458,1438358852149,947,410,0,0,0,4,3,1,43,0004-00-0001-32.png,0003-00-0001-49.png
00000014,441,1,1438358853174,1438358853664,927,399,0,0,0,3,2,1,32,0003-00-0001-42.png,0002-00-0000-34.png
00000014,442,0,1438358854656,1438358855246,950,410,0,0,0,3,4,1,34,0003-00-0000-20.png,0004-00-0000-96.png
00000014,443,1,1438358856344,1438358856866,928,362,0,0,0,2,1,1,21,0002-00-0000-63.png,0001-00-0000-15.png
00000014,444,0,1438358857758,1438358857774,521,480,0,0,0,4,3,1,43,0004-00-0000-00.png,0003-00-0001-51.png
00000014,445,0,1438358858650,1438358859234,935,400,0,0,0,2,3,1,23,0002-00-0000-42.png,0003-00-0000-48.png
00000014,446,0,1438358860278,1438358860731,325,384,0,0,0,5,4,1,54,0005-00-0001-76.png,0004-00-0000-05.png
00000014,447,0,1438358861780,1438358862350,926,439,0,0,0,4,5,1,45,0004-00-0000-11.png,0005-00-0000-24.png
00000014,448,1,1438358863224,1438358863860,312,419,0,0,0,1,2,1,12,0001-00-0000-89.png,0002-00-0000-15.png
00000014,449,0,1438358864749,1438358864793,521,454,0,0,0,2,1,1,21,0002-00-0001-09.png,0001-00-0000-52.png
00000014,450,1,1438358866304,1438358866770,350,358,0,0,0,3,4,1,34,0003-00-0001-68.png,0004-00-0001-98.png
00000014,451,0,1438358867734,1438358867746,522,442,0,0,0,5,4,1,54,0005-00-0001-82.png,0004-00-0001-78.png
00000014,452,1,1438358868596,1438358869148,947,426,0,0,0,3,2,1,32,0003-00-0000-28.png,0002-00-0000-09.png
00000014,453,0,1438358870069,1438358871268,936,446,0,0,0,1,2,1,12,0001-00-0001-14.png,0002-00-0001-76.png
00000014,454,1,1438358872144,1438358872704,350,464,0,0,0,4,5,1,45,0004-00-0001-00.png,0005-00-0000-60.png
00000014,455,0,1438358873735,1438358874308,946,409,0,0,0,2,3,1,23,0002-00-0000-36.png,0003-00-0001-86.png
00000014,456,0,1438358875346,1438358875362,495,428,0,0,0,4,3,1,43,0004-00-0001-91.png,0003-00-0001-81.png
00000014,457,1,1438358876488,1438358877039,936,394,0,0,0,3,2,1,32,0003-00-0000-01.png,0002-00-0000-15.png
00000014,458,0,1438358877948,1438358878461,322,403,0,0,0,5,4,1,54,0005-00-0000-54.png,0004-00-0001-00.png
00000014,459,0,1438358879548,1438358880138,938,397,0,0,0,1,2,1,12,0001-00-0000-43.png,0002-00-0001-50.png
00000014,460,0,1438358881185,1438358881704,384,509,0,0,0,2,1,1,21,0002-00-0000-10.png,0001-00-0000-44.png
00000014,461,0,1438358882769,1438358883381,922,498,0,0,0,4,5,1,45,0004-00-0000-31.png,0005-00-0001-05.png
00000014,462,0,1438358884256,1438358884776,947,436,0,0,0,2,3,1,23,0002-00-0000-47.png,0003-00-0000-16.png
00000014,463,0,1438358885728,1438358885736,517,436,0,0,0,4,3,1,43,0004-00-0001-69.png,0003-00-0000-76.png
00000014,464,1,1438358886723,1438358887265,388,535,0,0,0,3,4,1,34,0003-00-0001-73.png,0004-00-0001-00.png
00000014,465,1,1438358888253,1438358888771,914,479,0,0,0,3,2,1,32,0003-00-0000-68.png,0002-00-0001-39.png
00000014,466,1,1438358889724,1438358890197,298,422,0,0,0,4,5,1,45,0004-00-0001-81.png,0005-00-0001-80.png
00000014,467,0,1438358891113,1438358891121,510,488,0,0,0,4,3,1,43,0004-00-0001-72.png,0003-00-0001-27.png
00000014,468,1,1438358891998,1438358892484,907,448,0,0,0,5,4,1,54,0005-00-0000-21.png,0004-00-0000-97.png
00000014,469,0,1438358893451,1438358893986,928,413,0,0,0,3,4,1,34,0003-00-0000-32.png,0004-00-0000-02.png
00000014,470,0,1438358895010,1438358895568,938,470,0,0,0,1,2,1,12,0001-00-0000-89.png,0002-00-0001-91.png
00000014,471,0,1438358896626,1438358897126,341,446,0,0,0,2,1,1,21,0002-00-0000-72.png,0001-00-0001-45.png
00000014,472,0,1438358898059,1438358898561,979,451,0,0,0,2,3,1,23,0002-00-0001-13.png,0003-00-0001-39.png
00000014,473,0,1438358899947,1438358899955,487,413,0,0,0,5,4,1,54,0005-00-0000-02.png,0004-00-0000-77.png
00000014,474,1,1438358900789,1438358901329,385,494,0,0,0,4,5,1,45,0004-00-0000-02.png,0005-00-0001-46.png
00000014,475,0,1438358902244,1438358902256,519,439,0,0,0,4,3,1,43,0004-00-0001-52.png,0003-00-0000-67.png
00000014,476,1,1438358903137,1438358903573,325,410,0,0,0,2,3,1,23,0002-00-0001-70.png,0003-00-0000-35.png
00000014,477,0,1438358904598,1438358904606,522,453,0,0,0,2,1,1,21,0002-00-0001-14.png,0001-00-0000-30.png
00000014,478,1,1438358905461,1438358905890,350,371,0,0,0,1,2,1,12,0001-00-0000-17.png,0002-00-0001-12.png
00000014,479,1,1438358906823,1438358907262,350,424,0,0,0,3,4,1,34,0003-00-0000-37.png,0004-00-0001-80.png
00000014,480,0,1438358908214,1438358908681,211,462,0,0,0,3,2,1,32,0003-00-0001-86.png,0002-00-0000-59.png
00000014,481,0,1438358909795,1438358910438,939,399,0,0,0,1,2,1,12,0001-00-0001-06.png,0002-00-0001-82.png
00000014,482,0,1438358911485,1438358911950,297,397,0,0,0,5,4,1,54,0005-00-0001-82.png,0004-00-0001-32.png
00000014,483,0,1438358913046,1438358913636,924,521,0,0,0,3,4,1,34,0003-00-0001-12.png,0004-00-0000-82.png
00000014,484,1,1438358914470,1438358914887,273,358,0,0,0,2,3,1,23,0002-00-0000-63.png,0003-00-0001-27.png
00000014,485,0,1438358916305,1438358916754,314,390,0,0,0,2,1,1,21,0002-00-0001-46.png,0001-00-0001-99.png
00000014,486,0,1438358917913,1438358917953,504,448,0,0,0,4,3,1,43,0004-00-0000-00.png,0003-00-0001-39.png
00000014,487,1,1438358918936,1438358918960,504,450,0,0,0,4,5,1,45,0004-00-0000-68.png,0005-00-0001-44.png
00000014,488,0,1438358920052,1438358920550,293,420,0,0,0,3,2,1,32,0003-00-0001-00.png,0002-00-0000-08.png
00000014,489,1,1438358921752,1438358922454,899,467,0,0,0,2,1,1,21,0002-00-0000-22.png,0001-00-0001-98.png
00000014,490,1,1438358923411,1438358923892,363,371,0,0,0,4,5,1,45,0004-00-0001-21.png,0005-00-0001-32.png
00000014,491,1,1438358924953,1438358925491,878,349,0,0,0,3,2,1,32,0003-00-0000-06.png,0002-00-0001-41.png
00000014,492,1,1438358926482,1438358926972,381,388,0,0,0,1,2,1,12,0001-00-0000-45.png,0002-00-0001-14.png
00000014,493,0,1438358927950,1438358928425,319,402,0,0,0,4,3,1,43,0004-00-0000-73.png,0003-00-0000-64.png
00000014,494,0,1438358929652,1438358930075,386,499,0,0,0,5,4,1,54,0005-00-0001-11.png,0004-00-0001-84.png
00000014,495,1,1438358931080,1438358931597,369,480,0,0,0,3,4,1,34,0003-00-0001-34.png,0004-00-0000-72.png
00000014,496,1,1438358932493,1438358932600,518,501,0,0,0,2,3,1,23,0002-00-0000-24.png,0003-00-0000-49.png
00000014,497,0,1438358933616,1438358934251,375,515,0,0,0,3,2,1,32,0003-00-0001-42.png,0002-00-0000-39.png
00000014,498,0,1438358935084,1438358935528,350,397,0,0,0,2,1,1,21,0002-00-0000-96.png,0001-00-0000-24.png
00000014,499,1,1438358936615,1438358937235,350,397,0,0,0,4,5,1,45,0004-00-0001-91.png,0005-00-0000-82.png
00000014,500,0,1438358939310,1438358939801,321,390,0,0,0,4,3,1,43,0004-00-0000-86.png,0003-00-0000-99.png
00000014,501,1,1438358940762,1438358940782,489,462,0,0,0,3,4,1,34,0003-00-0000-55.png,0004-00-0001-28.png
00000014,502,1,1438358941715,1438358942276,952,390,0,0,0,5,4,1,54,0005-00-0000-55.png,0004-00-0001-31.png
00000014,503,0,1438358943206,1438358943727,908,445,0,0,0,1,2,1,12,0001-00-0001-74.png,0002-00-0001-94.png
00000014,504,1,1438358944856,1438358945320,363,430,0,0,0,2,3,1,23,0002-00-0000-85.png,0003-00-0000-72.png
00000014,505,0,1438358946226,1438358946701,376,384,0,0,0,4,3,1,43,0004-00-0000-87.png,0003-00-0000-13.png
00000014,506,1,1438358947636,1438358948206,944,401,0,0,0,5,4,1,54,0005-00-0001-74.png,0004-00-0001-75.png
00000014,507,1,1438358949097,1438358949778,875,357,0,0,0,3,2,1,32,0003-00-0000-95.png,0002-00-0000-75.png
00000014,508,1,1438358950747,1438358951233,287,397,0,0,0,1,2,1,12,0001-00-0000-86.png,0002-00-0000-48.png
00000014,509,1,1438358952198,1438358952871,373,385,0,0,0,4,5,1,45,0004-00-0001-13.png,0005-00-0000-13.png
00000014,510,0,1438358954660,1438358955284,894,376,0,0,0,3,4,1,34,0003-00-0001-14.png,0004-00-0000-00.png
00000014,511,1,1438358956362,1438358956428,518,550,0,0,0,2,3,1,23,0002-00-0001-07.png,0003-00-0001-05.png
00000014,512,0,1438358957366,1438358957952,434,472,0,0,0,2,1,1,21,0002-00-0000-52.png,0001-00-0001-07.png
00000014,513,0,1438358958854,1438358958870,493,410,0,0,0,5,4,1,54,0005-00-0000-18.png,0004-00-0000-88.png
00000014,514,1,1438358959829,1438358960300,370,487,0,0,0,1,2,1,12,0001-00-0001-35.png,0002-00-0000-08.png
00000014,515,0,1438358961221,1438358961761,294,394,0,0,0,2,1,1,21,0002-00-0001-25.png,0001-00-0001-85.png
00000014,516,1,1438358963308,1438358963791,325,398,0,0,0,4,5,1,45,0004-00-0001-00.png,0005-00-0000-86.png
00000014,517,1,1438358964836,1438358965440,350,469,0,0,0,2,3,1,23,0002-00-0001-94.png,0003-00-0000-28.png
00000014,518,0,1438358966885,1438358966957,522,525,0,0,0,3,2,1,32,0003-00-0000-55.png,0002-00-0001-88.png
00000014,519,1,1438358967818,1438358967834,486,442,0,0,0,3,4,1,34,0003-00-0000-34.png,0004-00-0001-91.png
00000014,520,0,1438358968863,1438358969372,318,397,0,0,0,4,3,1,43,0004-00-0000-77.png,0003-00-0000-02.png
00000014,521,1,1438358970253,1438358970669,286,406,0,0,0,1,2,1,12,0001-00-0000-81.png,0002-00-0001-32.png
00000014,522,0,1438358971637,1438358972132,346,440,0,0,0,2,1,1,21,0002-00-0000-23.png,0001-00-0001-71.png
00000014,523,1,1438358972973,1438358973052,523,558,0,0,0,2,3,1,23,0002-00-0000-19.png,0003-00-0001-82.png
00000014,524,0,1438358974019,1438358974571,310,417,0,0,0,3,2,1,32,0003-00-0000-27.png,0002-00-0001-67.png
00000014,525,1,1438358975728,1438358976234,311,397,0,0,0,4,5,1,45,0004-00-0001-34.png,0005-00-0000-48.png
00000014,526,1,1438358977186,1438358977206,522,496,0,0,0,3,4,1,34,0003-00-0000-71.png,0004-00-0000-56.png
00000014,527,0,1438358978293,1438358978744,361,501,0,0,0,5,4,1,54,0005-00-0000-95.png,0004-00-0000-80.png
00000014,528,0,1438358979880,1438358980399,325,397,0,0,0,4,3,1,43,0004-00-0001-89.png,0003-00-0001-06.png
00000014,529,0,1438358981382,1438358981394,478,420,0,0,0,3,2,1,32,0003-00-0000-58.png,0002-00-0001-72.png
00000014,530,1,1438358982276,1438358982800,387,528,0,0,0,1,2,1,12,0001-00-0001-69.png,0002-00-0000-07.png
00000014,531,0,1438358983718,1438358983726,489,455,0,0,0,5,4,1,54,0005-00-0000-06.png,0004-00-0000-11.png
00000014,532,0,1438358984759,1438358984787,516,462,0,0,0,2,1,1,21,0002-00-0001-03.png,0001-00-0000-95.png
00000014,533,1,1438358985834,1438358985846,502,473,0,0,0,3,4,1,34,0003-00-0000-21.png,0004-00-0001-31.png
00000014,534,1,1438358986827,1438358987300,308,416,0,0,0,4,5,1,45,0004-00-0000-54.png,0005-00-0001-59.png
00000014,535,0,1438358988179,1438358988276,520,542,0,0,0,4,3,1,43,0004-00-0001-80.png,0003-00-0000-41.png
00000014,536,0,1438358989319,1438358989866,949,416,0,0,0,2,3,1,23,0002-00-0000-42.png,0003-00-0001-86.png
00000014,537,1,1438358994996,1438358995052,504,514,0,0,0,2,3,1,23,0002-00-0001-77.png,0003-00-0001-50.png
00000014,538,1,1438358996121,1438358996632,340,418,0,0,0,1,2,1,12,0001-00-0001-23.png,0002-00-0000-38.png
00000014,539,0,1438358997511,1438358998055,332,384,0,0,0,3,2,1,32,0003-00-0001-43.png,0002-00-0001-12.png
00000014,540,0,1438358999120,1438358999591,195,490,0,0,0,2,1,1,21,0002-00-0000-29.png,0001-00-0000-63.png
00000014,541,0,1438359000862,1438359000866,497,442,0,0,0,4,3,1,43,0004-00-0001-49.png,0003-00-0001-46.png
00000014,542,0,1438359001801,1438359002287,298,405,0,0,0,5,4,1,54,0005-00-0001-71.png,0004-00-0001-67.png
00000014,543,1,1438359003174,1438359003682,350,384,0,0,0,3,4,1,34,0003-00-0001-75.png,0004-00-0000-88.png
00000014,544,1,1438359004536,1438359004564,523,427,0,0,0,4,5,1,45,0004-00-0001-28.png,0005-00-0001-51.png
00000014,545,0,1438359005541,1438359005569,523,468,0,0,0,2,1,1,21,0002-00-0000-10.png,0001-00-0000-71.png
00000014,546,1,1438359007109,1438359007706,969,388,0,0,0,3,2,1,32,0003-00-0001-92.png,0002-00-0000-72.png
00000014,547,0,1438359008569,1438359009253,909,443,0,0,0,4,5,1,45,0004-00-0001-31.png,0005-00-0000-01.png
00000014,548,1,1438359010102,1438359010557,306,393,0,0,0,3,4,1,34,0003-00-0000-88.png,0004-00-0000-27.png
00000014,549,0,1438359011551,1438359012056,284,417,0,0,0,5,4,1,54,0005-00-0001-67.png,0004-00-0000-99.png
00000014,550,1,1438359012900,1438359013348,298,413,0,0,0,1,2,1,12,0001-00-0000-41.png,0002-00-0001-12.png
00000014,551,1,1438359014317,1438359014789,375,487,0,0,0,2,3,1,23,0002-00-0000-45.png,0003-00-0000-91.png
00000014,552,0,1438359015683,1438359015703,514,443,0,0,0,4,3,1,43,0004-00-0000-23.png,0003-00-0001-79.png
00000014,553,0,1438359017297,1438359017770,289,367,0,0,0,4,3,1,43,0004-00-0001-20.png,0003-00-0001-77.png
00000014,554,1,1438359018893,1438359019442,387,516,0,0,0,1,2,1,12,0001-00-0001-24.png,0002-00-0000-05.png
00000014,555,1,1438359020326,1438359020338,498,428,0,0,0,3,4,1,34,0003-00-0000-93.png,0004-00-0000-15.png
00000014,556,1,1438359021359,1438359021954,868,376,0,0,0,2,1,1,21,0002-00-0001-66.png,0001-00-0000-14.png
00000014,557,1,1438359023318,1438359023330,499,465,0,0,0,2,3,1,23,0002-00-0001-32.png,0003-00-0000-86.png
00000014,558,1,1438359024263,1438359025377,899,456,0,0,0,3,2,1,32,0003-00-0001-64.png,0002-00-0001-31.png
00000014,559,1,1438359026320,1438359026364,519,447,0,0,0,4,5,1,45,0004-00-0000-30.png,0005-00-0001-01.png
00000014,560,1,1438359027314,1438359027839,875,351,0,0,0,5,4,1,54,0005-00-0000-73.png,0004-00-0001-99.png
00000014,561,1,1438359028734,1438359028826,520,541,0,0,0,4,5,1,45,0004-00-0000-94.png,0005-00-0001-52.png
00000014,562,0,1438359029977,1438359030438,331,366,0,0,0,4,3,1,43,0004-00-0001-62.png,0003-00-0001-87.png
00000014,563,0,1438359031783,1438359032330,981,384,0,0,0,2,3,1,23,0002-00-0000-86.png,0003-00-0000-61.png
00000014,564,1,1438359033316,1438359033866,968,429,0,0,0,2,1,1,21,0002-00-0001-83.png,0001-00-0001-56.png
00000014,565,0,1438359035172,1438359035729,325,347,0,0,0,5,4,1,54,0005-00-0000-58.png,0004-00-0000-77.png
00000014,566,0,1438359036666,1438359036694,504,426,0,0,0,3,2,1,32,0003-00-0001-26.png,0002-00-0001-62.png
00000014,567,1,1438359037594,1438359037610,493,403,0,0,0,3,4,1,34,0003-00-0001-45.png,0004-00-0001-97.png
00000014,568,0,1438359038472,1438359039083,932,389,0,0,0,1,2,1,12,0001-00-0001-53.png,0002-00-0000-58.png
00000014,569,1,1438359044526,1438359044542,521,514,0,0,0,3,4,1,34,0003-00-0001-16.png,0004-00-0000-74.png
00000014,570,0,1438359045668,1438359046247,913,502,0,0,0,1,2,1,12,0001-00-0001-08.png,0002-00-0001-21.png
00000014,571,0,1438359047106,1438359047126,516,488,0,0,0,3,2,1,32,0003-00-0000-11.png,0002-00-0000-95.png
00000014,572,0,1438359047980,1438359048004,445,462,0,0,0,2,1,1,21,0002-00-0000-33.png,0001-00-0000-18.png
00000014,573,0,1438359048896,1438359048916,504,477,0,0,0,5,4,1,54,0005-00-0000-07.png,0004-00-0001-02.png
00000014,574,1,1438359049919,1438359049959,520,488,0,0,0,2,3,1,23,0002-00-0000-31.png,0003-00-0000-22.png
00000014,575,1,1438359051053,1438359051542,316,415,0,0,0,4,5,1,45,0004-00-0000-89.png,0005-00-0000-05.png
00000014,576,0,1438359052412,1438359052432,483,419,0,0,0,4,3,1,43,0004-00-0000-31.png,0003-00-0001-10.png
00000014,577,1,1438359053557,1438359054044,336,435,0,0,0,3,4,1,34,0003-00-0000-13.png,0004-00-0001-61.png
00000014,578,1,1438359055029,1438359055555,333,398,0,0,0,4,5,1,45,0004-00-0000-66.png,0005-00-0001-10.png
00000014,579,0,1438359056452,1438359057083,291,429,0,0,0,5,4,1,54,0005-00-0000-70.png,0004-00-0000-76.png
00000014,580,0,1438359058243,1438359058689,270,405,0,0,0,4,3,1,43,0004-00-0001-99.png,0003-00-0001-10.png
00000014,581,1,1438359059822,1438359060442,307,392,0,0,0,1,2,1,12,0001-00-0001-05.png,0002-00-0001-46.png
00000014,582,0,1438359061289,1438359062092,409,412,0,0,0,3,2,1,32,0003-00-0000-28.png,0002-00-0000-42.png
00000014,583,0,1438359063782,1438359064249,303,405,0,0,0,2,1,1,21,0002-00-0001-32.png,0001-00-0001-36.png
00000014,584,1,1438359065531,1438359065551,513,477,0,0,0,2,3,1,23,0002-00-0001-84.png,0003-00-0001-47.png
00000014,585,1,1438359066887,1438359066903,516,451,0,0,0,4,5,1,45,0004-00-0000-17.png,0005-00-0001-09.png
00000014,586,1,1438359067837,1438359067865,514,450,0,0,0,3,4,1,34,0003-00-0000-47.png,0004-00-0001-03.png
00000014,587,0,1438359068969,1438359069437,297,399,0,0,0,4,3,1,43,0004-00-0001-24.png,0003-00-0001-91.png
00000014,588,0,1438359070580,1438359071038,300,405,0,0,0,3,2,1,32,0003-00-0001-11.png,0002-00-0000-47.png
00000014,589,0,1438359072072,1438359072084,478,426,0,0,0,5,4,1,54,0005-00-0000-81.png,0004-00-0001-82.png
00000014,590,1,1438359073123,1438359073163,510,471,0,0,0,1,2,1,12,0001-00-0001-10.png,0002-00-0000-78.png
00000014,591,1,1438359074162,1438359074674,269,417,0,0,0,2,3,1,23,0002-00-0000-60.png,0003-00-0000-11.png
00000014,592,0,1438359075532,1438359075600,515,528,0,0,0,2,1,1,21,0002-00-0000-11.png,0001-00-0001-82.png
00000014,593,1,1438359076564,1438359077279,949,410,0,0,0,5,4,1,54,0005-00-0000-46.png,0004-00-0000-58.png
00000014,594,0,1438359078163,1438359078676,381,514,0,0,0,3,2,1,32,0003-00-0000-91.png,0002-00-0000-73.png
00000014,595,0,1438359079622,1438359079642,498,445,0,0,0,4,3,1,43,0004-00-0000-81.png,0003-00-0001-41.png
00000014,596,1,1438359080806,1438359081359,366,520,0,0,0,4,5,1,45,0004-00-0001-18.png,0005-00-0000-40.png
00000014,597,0,1438359082210,1438359082222,488,423,0,0,0,2,1,1,21,0002-00-0001-11.png,0001-00-0000-57.png
00000014,598,1,1438359083433,1438359083989,288,397,0,0,0,2,3,1,23,0002-00-0000-96.png,0003-00-0000-58.png
00000014,599,0,1438359084859,1438359085455,924,483,0,0,0,1,2,1,12,0001-00-0001-55.png,0002-00-0001-36.png
00000014,600,0,1438359086699,1438359087344,871,368,0,0,0,3,4,1,34,0003-00-0001-09.png,0004-00-0001-86.png
00000014,601,0,1438359088375,1438359088396,514,423,0,0,0,2,1,1,21,0002-00-0000-36.png,0001-00-0000-66.png
00000014,602,1,1438359089480,1438359089896,306,395,0,0,0,2,3,1,23,0002-00-0000-41.png,0003-00-0000-84.png
00000014,603,1,1438359091191,1438359091203,498,429,0,0,0,4,5,1,45,0004-00-0001-41.png,0005-00-0001-04.png
00000014,604,0,1438359092204,1438359092725,307,370,0,0,0,4,3,1,43,0004-00-0001-76.png,0003-00-0000-87.png
00000014,605,0,1438359093745,1438359094202,318,444,0,0,0,5,4,1,54,0005-00-0000-82.png,0004-00-0001-46.png
00000014,606,1,1438359095183,1438359095203,488,450,0,0,0,1,2,1,12,0001-00-0000-59.png,0002-00-0000-74.png
00000014,607,1,1438359096202,1438359096746,873,534,0,0,0,3,2,1,32,0003-00-0001-05.png,0002-00-0000-50.png
00000014,608,0,1438359097801,1438359098361,916,489,0,0,0,3,4,1,34,0003-00-0000-44.png,0004-00-0001-01.png
00000014,609,0,1438359099290,1438359099987,409,531,0,0,0,4,3,1,43,0004-00-0001-06.png,0003-00-0000-21.png
00000014,610,1,1438359100828,1438359100848,523,480,0,0,0,2,3,1,23,0002-00-0000-56.png,0003-00-0000-18.png
00000014,611,1,1438359101846,1438359102476,376,386,0,0,0,1,2,1,12,0001-00-0000-59.png,0002-00-0001-09.png
00000014,612,1,1438359103476,1438359103988,323,393,0,0,0,4,5,1,45,0004-00-0000-09.png,0005-00-0001-58.png
00000014,613,1,1438359104973,1438359105647,894,482,0,0,0,2,1,1,21,0002-00-0001-08.png,0001-00-0001-58.png
00000014,614,1,1438359106545,1438359107137,929,423,0,0,0,5,4,1,54,0005-00-0001-17.png,0004-00-0000-80.png
00000014,615,0,1438359108074,1438359108614,945,397,0,0,0,3,4,1,34,0003-00-0000-63.png,0004-00-0001-63.png
00000014,616,1,1438359109985,1438359110492,915,436,0,0,0,3,2,1,32,0003-00-0001-13.png,0002-00-0000-82.png
00000014,617,0,1438359111340,1438359111841,376,384,0,0,0,5,4,1,54,0005-00-0001-16.png,0004-00-0001-16.png
00000014,618,1,1438359112871,1438359112897,504,423,0,0,0,2,3,1,23,0002-00-0000-26.png,0003-00-0001-03.png
00000014,619,1,1438359113769,1438359114277,317,419,0,0,0,4,5,1,45,0004-00-0000-39.png,0005-00-0000-60.png
00000014,620,1,1438359115121,1438359115853,332,398,0,0,0,3,4,1,34,0003-00-0000-27.png,0004-00-0000-21.png
00000014,621,0,1438359116890,1438359117423,246,518,0,0,0,4,3,1,43,0004-00-0001-93.png,0003-00-0001-81.png
00000014,622,0,1438359118285,1438359118728,350,384,0,0,0,2,1,1,21,0002-00-0001-76.png,0001-00-0000-15.png
00000014,623,1,1438359119711,1438359120213,297,432,0,0,0,1,2,1,12,0001-00-0001-40.png,0002-00-0000-88.png
00000014,624,0,1438359121540,1438359121560,519,480,0,0,0,3,2,1,32,0003-00-0000-95.png,0002-00-0000-36.png
00000014,625,1,1438359123259,1438359123722,354,441,0,0,0,3,4,1,34,0003-00-0001-52.png,0004-00-0000-78.png
00000014,626,1,1438359124578,1438359125097,401,384,0,0,0,4,5,1,45,0004-00-0000-44.png,0005-00-0001-18.png
00000014,627,1,1438359125993,1438359126663,897,456,0,0,0,3,2,1,32,0003-00-0000-63.png,0002-00-0000-39.png
00000014,628,1,1438359127561,1438359128741,296,389,0,0,0,1,2,1,12,0001-00-0001-58.png,0002-00-0000-94.png
00000014,629,0,1438359129658,1438359130325,206,505,0,0,0,5,4,1,54,0005-00-0000-58.png,0004-00-0000-15.png
00000014,630,0,1438359131408,1438359131420,493,436,0,0,0,2,1,1,21,0002-00-0000-76.png,0001-00-0000-94.png
00000014,631,0,1438359133008,1438359133020,504,421,0,0,0,4,3,1,43,0004-00-0000-78.png,0003-00-0000-68.png
00000014,632,0,1438359133860,1438359134487,869,386,0,0,0,2,3,1,23,0002-00-0000-47.png,0003-00-0000-67.png
00000014,633,1,1438359135353,1438359135719,381,479,0,0,0,3,4,1,34,0003-00-0000-26.png,0004-00-0000-99.png
00000014,634,1,1438359136681,1438359137201,318,442,0,0,0,2,3,1,23,0002-00-0000-45.png,0003-00-0000-43.png
00000014,635,0,1438359138076,1438359138080,517,474,0,0,0,5,4,1,54,0005-00-0001-90.png,0004-00-0000-16.png
00000014,636,0,1438359139393,1438359139410,500,440,0,0,0,2,1,1,21,0002-00-0001-28.png,0001-00-0000-69.png
00000014,637,0,1438359140423,1438359140449,493,450,0,0,0,3,2,1,32,0003-00-0000-00.png,0002-00-0000-48.png
00000014,638,1,1438359141435,1438359141919,289,462,0,0,0,1,2,1,12,0001-00-0001-23.png,0002-00-0001-27.png
00000014,639,0,1438359142820,1438359143376,351,409,0,0,0,4,3,1,43,0004-00-0000-89.png,0003-00-0000-94.png
00000014,640,1,1438359144525,1438359144533,514,447,0,0,0,4,5,1,45,0004-00-0000-44.png,0005-00-0000-49.png
00000014,641,1,1438359145539,1438359146152,343,387,0,0,0,2,3,1,23,0002-00-0000-12.png,0003-00-0001-28.png
00000014,642,1,1438359147049,1438359147069,512,444,0,0,0,4,5,1,45,0004-00-0001-72.png,0005-00-0001-56.png
00000014,643,0,1438359148160,1438359148739,913,436,0,0,0,3,4,1,34,0003-00-0001-54.png,0004-00-0000-77.png
00000014,644,0,1438359149790,1438359149802,485,410,0,0,0,3,2,1,32,0003-00-0000-93.png,0002-00-0001-45.png
00000014,645,0,1438359150893,1438359150922,488,451,0,0,0,4,3,1,43,0004-00-0000-48.png,0003-00-0000-63.png
00000014,646,0,1438359151906,1438359151926,487,457,0,0,0,5,4,1,54,0005-00-0000-44.png,0004-00-0000-76.png
00000014,647,1,1438359152782,1438359152809,492,422,0,0,0,1,2,1,12,0001-00-0000-56.png,0002-00-0000-81.png
00000014,648,0,1438359153803,1438359154389,384,468,0,0,0,2,1,1,21,0002-00-0000-55.png,0001-00-0001-00.png
00000014,649,0,1438359155495,1438359155934,312,400,0,0,0,5,4,1,54,0005-00-0001-88.png,0004-00-0000-88.png
00000014,650,1,1438359157366,1438359157837,326,407,0,0,0,1,2,1,12,0001-00-0001-54.png,0002-00-0001-13.png
00000014,651,1,1438359158715,1438359158727,497,429,0,0,0,2,3,1,23,0002-00-0001-52.png,0003-00-0001-59.png
00000014,652,1,1438359159739,1438359160309,340,402,0,0,0,3,4,1,34,0003-00-0001-71.png,0004-00-0001-48.png
00000014,653,0,1438359161237,1438359161241,501,458,0,0,0,2,1,1,21,0002-00-0001-15.png,0001-00-0001-63.png
00000014,654,1,1438359162068,1438359162531,279,429,0,0,0,4,5,1,45,0004-00-0000-83.png,0005-00-0000-19.png
00000014,655,0,1438359163373,1438359163911,325,412,0,0,0,4,3,1,43,0004-00-0000-44.png,0003-00-0001-19.png
00000014,656,0,1438359164845,1438359164873,471,430,0,0,0,3,2,1,32,0003-00-0000-91.png,0002-00-0001-51.png
00000014,657,0,1438359166025,1438359166539,415,514,0,0,0,5,4,1,54,0005-00-0001-65.png,0004-00-0000-28.png
00000014,658,0,1438359167469,1438359167982,313,390,0,0,0,3,2,1,32,0003-00-0000-06.png,0002-00-0001-69.png
00000014,659,1,1438359168839,1438359169256,336,424,0,0,0,1,2,1,12,0001-00-0000-39.png,0002-00-0001-02.png
00000014,660,1,1438359170173,1438359170181,516,448,0,0,0,3,4,1,34,0003-00-0000-76.png,0004-00-0000-93.png
00000014,661,1,1438359171682,1438359171731,502,483,0,0,0,4,5,1,45,0004-00-0001-33.png,0005-00-0000-04.png
00000014,662,0,1438359173227,1438359173254,504,452,0,0,0,4,3,1,43,0004-00-0001-14.png,0003-00-0001-49.png
00000014,663,1,1438359174374,1438359174988,915,486,0,0,0,2,1,1,21,0002-00-0001-68.png,0001-00-0001-67.png
00000014,664,1,1438359175907,1438359175919,501,432,0,0,0,2,3,1,23,0002-00-0001-07.png,0003-00-0000-51.png
00000014,665,0,1438359177435,1438359177949,897,456,0,0,0,3,4,1,34,0003-00-0001-01.png,0004-00-0001-18.png
00000014,666,0,1438359179076,1438359179649,268,421,0,0,0,4,3,1,43,0004-00-0000-79.png,0003-00-0000-80.png
00000014,667,0,1438359180865,1438359180881,511,430,0,0,0,5,4,1,54,0005-00-0001-69.png,0004-00-0001-48.png
00000014,668,0,1438359181766,1438359181808,520,496,0,0,0,3,2,1,32,0003-00-0001-24.png,0002-00-0000-10.png
00000014,669,1,1438359182807,1438359183273,321,403,0,0,0,2,3,1,23,0002-00-0000-17.png,0003-00-0001-00.png
00000014,670,0,1438359184126,1438359184731,863,364,0,0,0,1,2,1,12,0001-00-0000-94.png,0002-00-0000-70.png
00000014,671,1,1438359185792,1438359185812,523,453,0,0,0,4,5,1,45,0004-00-0001-51.png,0005-00-0000-48.png
00000014,672,0,1438359186729,1438359187821,338,378,0,0,0,2,1,1,21,0002-00-0000-74.png,0001-00-0000-79.png
00000014,673,1,1438359189190,1438359189202,503,432,0,0,0,1,2,1,12,0001-00-0000-98.png,0002-00-0000-41.png
00000014,674,0,1438359190128,1438359190636,354,424,0,0,0,2,1,1,21,0002-00-0001-92.png,0001-00-0000-13.png
00000014,675,1,1438359191479,1438359191911,256,454,0,0,0,2,3,1,23,0002-00-0001-95.png,0003-00-0000-26.png
00000014,676,0,1438359193213,1438359193233,490,423,0,0,0,4,3,1,43,0004-00-0001-46.png,0003-00-0000-53.png
00000014,677,0,1438359194224,1438359194255,487,451,0,0,0,3,2,1,32,0003-00-0000-60.png,0002-00-0001-78.png
00000014,678,1,1438359195387,1438359195973,877,467,0,0,0,5,4,1,54,0005-00-0001-14.png,0004-00-0001-95.png
00000014,679,1,1438359196899,1438359197409,415,514,0,0,0,4,5,1,45,0004-00-0000-51.png,0005-00-0001-12.png
00000014,680,1,1438359198729,1438359198741,494,444,0,0,0,3,4,1,34,0003-00-0000-08.png,0004-00-0000-73.png
00000014,681,0,1438359199662,1438359199722,513,457,0,0,0,2,1,1,21,0002-00-0001-84.png,0001-00-0000-67.png
00000014,682,1,1438359200636,1438359201663,877,340,0,0,0,5,4,1,54,0005-00-0001-73.png,0004-00-0000-65.png
00000014,683,0,1438359202592,1438359203020,222,478,0,0,0,3,2,1,32,0003-00-0000-81.png,0002-00-0001-00.png
00000014,684,0,1438359204600,1438359205264,925,385,0,0,0,2,3,1,23,0002-00-0000-35.png,0003-00-0000-94.png
00000014,685,0,1438359206618,1438359207064,331,384,0,0,0,4,3,1,43,0004-00-0001-05.png,0003-00-0000-71.png
00000014,686,1,1438359207980,1438359208000,517,450,0,0,0,1,2,1,12,0001-00-0000-55.png,0002-00-0000-24.png
00000014,687,0,1438359208927,1438359210534,913,358,0,0,0,3,4,1,34,0003-00-0001-37.png,0004-00-0000-16.png
00000014,688,1,1438359211376,1438359211904,190,480,0,0,0,4,5,1,45,0004-00-0000-60.png,0005-00-0000-43.png
00000014,689,0,1438359212761,1438359212781,490,425,0,0,0,3,2,1,32,0003-00-0001-26.png,0002-00-0000-64.png
00000014,690,1,1438359213717,1438359214245,317,397,0,0,0,2,3,1,23,0002-00-0001-35.png,0003-00-0001-21.png
00000014,691,1,1438359215133,1438359215760,875,410,0,0,0,5,4,1,54,0005-00-0001-90.png,0004-00-0001-41.png
00000014,692,0,1438359216678,1438359217681,936,436,0,0,0,4,5,1,45,0004-00-0001-91.png,0005-00-0001-61.png
00000014,693,1,1438359218567,1438359219741,337,345,0,0,0,3,4,1,34,0003-00-0001-99.png,0004-00-0000-99.png
00000014,694,1,1438359220613,1438359221167,905,480,0,0,0,2,1,1,21,0002-00-0001-33.png,0001-00-0000-04.png
00000014,695,0,1438359222020,1438359222631,273,384,0,0,0,4,3,1,43,0004-00-0000-52.png,0003-00-0001-31.png
00000014,696,1,1438359223709,1438359223724,509,448,0,0,0,1,2,1,12,0001-00-0001-64.png,0002-00-0001-56.png
00000014,697,0,1438359224639,1438359225169,300,410,0,0,0,3,2,1,32,0003-00-0000-71.png,0002-00-0000-87.png
00000014,698,0,1438359226563,1438359226579,493,416,0,0,0,5,4,1,54,0005-00-0001-06.png,0004-00-0000-40.png
00000014,699,1,1438359227585,1438359227601,514,423,0,0,0,2,3,1,23,0002-00-0000-29.png,0003-00-0000-69.png
00000014,700,1,1438359228501,1438359229050,293,436,0,0,0,1,2,1,12,0001-00-0001-30.png,0002-00-0001-00.png
00000014,701,1,1438359229933,1438359229970,508,447,0,0,0,3,4,1,34,0003-00-0001-90.png,0004-00-0000-28.png
00000014,702,0,1438359230926,1438359231407,307,388,0,0,0,4,3,1,43,0004-00-0001-54.png,0003-00-0001-67.png
00000014,703,0,1438359232416,1438359232428,480,384,0,0,0,2,1,1,21,0002-00-0000-24.png,0001-00-0000-63.png
00000014,704,1,1438359233330,1438359233350,490,403,0,0,0,4,5,1,45,0004-00-0001-44.png,0005-00-0000-60.png
00000014,705,1,1438359234218,1438359234749,387,503,0,0,0,2,3,1,23,0002-00-0000-72.png,0003-00-0000-38.png
00000014,706,0,1438359235585,1438359236212,278,413,0,0,0,5,4,1,54,0005-00-0001-19.png,0004-00-0001-11.png
00000014,707,1,1438359237105,1438359237129,517,449,0,0,0,4,5,1,45,0004-00-0000-89.png,0005-00-0000-85.png
00000014,708,0,1438359238020,1438359238509,376,384,0,0,0,3,2,1,32,0003-00-0001-20.png,0002-00-0001-80.png
00000014,709,1,1438359239356,1438359239862,388,476,0,0,0,3,4,1,34,0003-00-0001-23.png,0004-00-0000-77.png
00000014,710,1,1438359240728,1438359241280,319,376,0,0,0,1,2,1,12,0001-00-0001-61.png,0002-00-0000-60.png
00000014,711,0,1438359242174,1438359242631,390,451,0,0,0,4,3,1,43,0004-00-0000-50.png,0003-00-0001-99.png
00000014,712,0,1438359244114,1438359244181,516,488,0,0,0,2,1,1,21,0002-00-0000-77.png,0001-00-0000-78.png
00000014,713,1,1438359245307,1438359245840,236,510,0,0,0,1,2,1,12,0001-00-0000-92.png,0002-00-0000-92.png
00000014,714,0,1438359247118,1438359247598,323,408,0,0,0,5,4,1,54,0005-00-0001-33.png,0004-00-0000-03.png
00000014,715,0,1438359248534,1438359248554,494,456,0,0,0,3,2,1,32,0003-00-0000-77.png,0002-00-0001-48.png
00000014,716,1,1438359249718,1438359267768,350,410,0,0,0,2,3,1,23,0002-00-0001-09.png,0003-00-0000-70.png
00000014,717,0,1438359269081,1438359269641,350,371,0,0,0,2,1,1,21,0002-00-0001-09.png,0001-00-0001-72.png
00000014,718,0,1438359270541,1438359270553,453,371,0,0,0,4,3,1,43,0004-00-0000-87.png,0003-00-0001-04.png
00000014,719,1,1438359271381,1438359271783,248,371,0,0,0,4,5,1,45,0004-00-0000-09.png,0005-00-0001-08.png
00000014,720,1,1438359272700,1438359273132,324,373,0,0,0,3,4,1,34,0003-00-0000-79.png,0004-00-0000-52.png
00000014,721,0,1438359274028,1438359274049,498,459,0,0,0,2,1,1,21,0002-00-0001-23.png,0001-00-0000-25.png
00000014,722,0,1438359274879,1438359275392,352,458,0,0,0,3,2,1,32,0003-00-0000-46.png,0002-00-0001-58.png
00000014,723,1,1438359276461,1438359276976,358,469,0,0,0,3,4,1,34,0003-00-0000-61.png,0004-00-0001-10.png
00000014,724,1,1438359277823,1438359277839,514,452,0,0,0,4,5,1,45,0004-00-0001-39.png,0005-00-0001-42.png
00000014,725,0,1438359278880,1438359278892,514,506,0,0,0,5,4,1,54,0005-00-0001-51.png,0004-00-0000-20.png
00000014,726,1,1438359279852,1438359279872,520,449,0,0,0,2,3,1,23,0002-00-0001-06.png,0003-00-0001-34.png
00000014,727,0,1438359281228,1438359281244,475,411,0,0,0,4,3,1,43,0004-00-0000-42.png,0003-00-0000-98.png
00000014,728,1,1438359282259,1438359282706,290,394,0,0,0,1,2,1,12,0001-00-0001-90.png,0002-00-0001-71.png
00000014,729,1,1438359283937,1438359284380,368,423,0,0,0,3,4,1,34,0003-00-0000-13.png,0004-00-0001-33.png
00000014,730,0,1438359285291,1438359285825,222,462,0,0,0,5,4,1,54,0005-00-0001-84.png,0004-00-0000-79.png
00000014,731,1,1438359286684,1438359287184,365,477,0,0,0,4,5,1,45,0004-00-0000-62.png,0005-00-0000-86.png
00000014,732,1,1438359288143,1438359288649,356,389,0,0,0,2,3,1,23,0002-00-0001-45.png,0003-00-0001-07.png
00000014,733,1,1438359289490,1438359290054,401,491,0,0,0,1,2,1,12,0001-00-0001-34.png,0002-00-0001-30.png
00000014,734,1,1438359291311,1438359291898,953,393,0,0,0,3,2,1,32,0003-00-0001-24.png,0002-00-0001-95.png
00000014,735,0,1438359292800,1438359293344,214,445,0,0,0,2,1,1,21,0002-00-0001-56.png,0001-00-0001-35.png
00000014,736,0,1438359294311,1438359294770,299,377,0,0,0,4,3,1,43,0004-00-0000-55.png,0003-00-0001-45.png
00000014,737,0,1438359296306,1438359296827,292,367,0,0,0,4,3,1,43,0004-00-0000-22.png,0003-00-0001-86.png
00000014,738,0,1438359298343,1438359298795,344,419,0,0,0,3,2,1,32,0003-00-0000-66.png,0002-00-0001-11.png
00000014,739,1,1438359299856,1438359300255,323,403,0,0,0,4,5,1,45,0004-00-0001-65.png,0005-00-0000-66.png
00000014,740,0,1438359301156,1438359301746,875,332,0,0,0,3,4,1,34,0003-00-0000-32.png,0004-00-0000-12.png
00000014,741,1,1438359302575,1438359302999,336,398,0,0,0,2,3,1,23,0002-00-0000-59.png,0003-00-0001-17.png
00000014,742,0,1438359304287,1438359304971,947,368,0,0,0,1,2,1,12,0001-00-0001-35.png,0002-00-0001-05.png
00000014,743,0,1438359305951,1438359305977,498,427,0,0,0,2,1,1,21,0002-00-0001-14.png,0001-00-0000-50.png
00000014,744,1,1438359307035,1438359307687,925,370,0,0,0,5,4,1,54,0005-00-0001-37.png,0004-00-0000-18.png
00000014,745,1,1438359308612,1438359308640,505,498,0,0,0,3,4,1,34,0003-00-0000-37.png,0004-00-0001-00.png
00000014,746,0,1438359309766,1438359310184,304,399,0,0,0,4,3,1,43,0004-00-0000-73.png,0003-00-0001-06.png
00000014,747,1,1438359311275,1438359311758,333,481,0,0,0,4,5,1,45,0004-00-0000-65.png,0005-00-0000-65.png
00000014,748,1,1438359312605,1438359313094,363,502,0,0,0,1,2,1,12,0001-00-0001-59.png,0002-00-0000-45.png
00000014,749,1,1438359314050,1438359314614,947,446,0,0,0,2,1,1,21,0002-00-0001-16.png,0001-00-0001-88.png
00000014,750,1,1438359315507,1438359315997,365,477,0,0,0,2,3,1,23,0002-00-0001-12.png,0003-00-0001-98.png
00000014,751,0,1438359316946,1438359317471,342,401,0,0,0,3,2,1,32,0003-00-0000-92.png,0002-00-0000-46.png
00000014,752,0,1438359318585,1438359318605,504,422,0,0,0,5,4,1,54,0005-00-0000-85.png,0004-00-0000-09.png
00000014,753,0,1438359319776,1438359320235,275,399,0,0,0,4,3,1,43,0004-00-0001-67.png,0003-00-0001-39.png
00000014,754,1,1438359321301,1438359321317,493,447,0,0,0,2,3,1,23,0002-00-0000-62.png,0003-00-0000-01.png
00000014,755,0,1438359322296,1438359322820,299,423,0,0,0,3,2,1,32,0003-00-0001-16.png,0002-00-0001-03.png
00000014,756,1,1438359323697,1438359324175,299,394,0,0,0,1,2,1,12,0001-00-0000-17.png,0002-00-0001-50.png
00000014,757,0,1438359325469,1438359325489,499,432,0,0,0,2,1,1,21,0002-00-0001-38.png,0001-00-0001-94.png
00000014,758,0,1438359326573,1438359327045,292,410,0,0,0,5,4,1,54,0005-00-0001-52.png,0004-00-0001-79.png
00000014,759,1,1438359327999,1438359328437,316,418,0,0,0,3,4,1,34,0003-00-0000-60.png,0004-00-0000-67.png
00000014,760,1,1438359329275,1438359329746,376,397,0,0,0,4,5,1,45,0004-00-0000-66.png,0005-00-0001-91.png
00000014,761,1,1438359330882,1438359331390,299,409,0,0,0,2,3,1,23,0002-00-0000-39.png,0003-00-0001-86.png
00000014,762,0,1438359332231,1438359332778,293,409,0,0,0,2,1,1,21,0002-00-0001-03.png,0001-00-0000-07.png
00000014,763,0,1438359333870,1438359334335,296,405,0,0,0,4,3,1,43,0004-00-0001-88.png,0003-00-0001-10.png
00000014,764,1,1438359335332,1438359335780,359,468,0,0,0,3,4,1,34,0003-00-0001-86.png,0004-00-0000-89.png
00000014,765,0,1438359337131,1438359337167,512,443,0,0,0,3,2,1,32,0003-00-0001-71.png,0002-00-0000-83.png
00000014,766,1,1438359338217,1438359338721,344,513,0,0,0,4,5,1,45,0004-00-0001-27.png,0005-00-0000-22.png
00000014,767,0,1438359340040,1438359340965,877,454,0,0,0,1,2,1,12,0001-00-0000-65.png,0002-00-0001-01.png
00000014,768,0,1438359345323,1438359345339,504,499,0,0,0,5,4,1,54,0005-00-0000-40.png,0004-00-0000-36.png
00000014,769,0,1438359346350,1438359346378,504,420,0,0,0,3,2,1,32,0003-00-0000-02.png,0002-00-0000-90.png
00000014,770,0,1438359347405,1438359347950,350,393,0,0,0,5,4,1,54,0005-00-0001-57.png,0004-00-0001-19.png
00000014,771,1,1438359348875,1438359348907,517,473,0,0,0,4,5,1,45,0004-00-0000-38.png,0005-00-0001-39.png
00000014,772,1,1438359349841,1438359350408,929,427,0,0,0,2,1,1,21,0002-00-0000-66.png,0001-00-0001-76.png
00000014,773,0,1438359351343,1438359352031,361,478,0,0,0,4,3,1,43,0004-00-0001-78.png,0003-00-0000-94.png
00000014,774,1,1438359353049,1438359353577,312,384,0,0,0,1,2,1,12,0001-00-0000-27.png,0002-00-0000-32.png
00000014,775,0,1438359354451,1438359355160,947,418,0,0,0,2,3,1,23,0002-00-0001-78.png,0003-00-0001-16.png
00000014,776,1,1438359355994,1438359356425,300,376,0,0,0,3,4,1,34,0003-00-0000-79.png,0004-00-0000-29.png
00000014,777,1,1438359357284,1438359357877,960,371,0,0,0,4,3,1,43,0004-00-0001-94.png,0003-00-0000-12.png
00000014,778,0,1438359358822,1438359359823,937,436,0,0,0,3,4,1,34,0003-00-0001-33.png,0004-00-0000-66.png
00000014,779,1,1438359360741,1438359361125,299,370,0,0,0,1,2,1,12,0001-00-0000-67.png,0002-00-0000-96.png
00000014,780,1,1438359362023,1438359362503,197,420,0,0,0,2,3,1,23,0002-00-0000-57.png,0003-00-0001-83.png
00000014,781,0,1438359363436,1438359363487,489,504,0,0,0,3,2,1,32,0003-00-0001-36.png,0002-00-0001-91.png
00000014,782,1,1438359364575,1438359365069,944,495,0,0,0,5,4,1,54,0005-00-0000-47.png,0004-00-0001-01.png
00000014,783,0,1438359365949,1438359366548,869,342,0,0,0,4,5,1,45,0004-00-0001-63.png,0005-00-0001-13.png
00000014,784,1,1438359367380,1438359367902,875,345,0,0,0,2,1,1,21,0002-00-0000-89.png,0001-00-0000-16.png
00000014,785,1,1438359368770,1438359368838,511,566,0,0,0,2,3,1,23,0002-00-0001-60.png,0003-00-0001-28.png
00000014,786,0,1438359369795,1438359370345,879,349,0,0,0,4,5,1,45,0004-00-0001-73.png,0005-00-0000-29.png
00000014,787,1,1438359371194,1438359371663,363,502,0,0,0,1,2,1,12,0001-00-0001-67.png,0002-00-0001-43.png
00000014,788,0,1438359376188,1438359376691,946,371,0,0,0,3,4,1,34,0003-00-0000-14.png,0004-00-0000-47.png
00000014,789,0,1438359377604,1438359377624,510,420,0,0,0,3,2,1,32,0003-00-0001-20.png,0002-00-0000-81.png
00000014,790,0,1438359378759,1438359378786,518,408,0,0,0,5,4,1,54,0005-00-0000-58.png,0004-00-0000-27.png
00000014,791,0,1438359379622,1438359380010,299,347,0,0,0,4,3,1,43,0004-00-0000-70.png,0003-00-0000-71.png
00000014,792,0,1438359380891,1438359381315,311,371,0,0,0,2,1,1,21,0002-00-0001-52.png,0001-00-0001-29.png
00000014,793,1,1438359382783,1438359383218,362,476,0,0,0,2,3,1,23,0002-00-0000-08.png,0003-00-0001-18.png
00000014,794,0,1438359384135,1438359384155,515,436,0,0,0,4,3,1,43,0004-00-0001-27.png,0003-00-0001-89.png
00000014,795,1,1438359385983,1438359386527,925,462,0,0,0,5,4,1,54,0005-00-0001-03.png,0004-00-0000-06.png
00000014,796,1,1438359387425,1438359387902,366,494,0,0,0,4,5,1,45,0004-00-0000-77.png,0005-00-0001-03.png
00000014,797,1,1438359388750,1438359388810,504,475,0,0,0,1,2,1,12,0001-00-0001-81.png,0002-00-0000-62.png
00000014,798,0,1438359389780,1438359390391,921,445,0,0,0,3,4,1,34,0003-00-0001-24.png,0004-00-0001-64.png
00000014,799,1,1438359391429,1438359391932,942,412,0,0,0,2,1,1,21,0002-00-0000-86.png,0001-00-0001-43.png
00000014,800,1,1438359392819,1438359393371,940,449,0,0,0,3,2,1,32,0003-00-0000-70.png,0002-00-0001-88.png
00000014,801,1,1438359394260,1438359394808,926,462,0,0,0,3,2,1,32,0003-00-0001-17.png,0002-00-0001-74.png
00000014,802,1,1438359395664,1438359396147,324,348,0,0,0,4,5,1,45,0004-00-0001-49.png,0005-00-0000-24.png
00000014,803,0,1438359397042,1438359397636,963,372,0,0,0,2,3,1,23,0002-00-0000-26.png,0003-00-0000-10.png
00000014,804,0,1438359398620,1438359399209,951,384,0,0,0,1,2,1,12,0001-00-0000-25.png,0002-00-0001-01.png
00000014,805,1,1438359400143,1438359400609,344,486,0,0,0,3,4,1,34,0003-00-0000-57.png,0004-00-0000-91.png
00000014,806,1,1438359401544,1438359402100,957,362,0,0,0,2,1,1,21,0002-00-0000-90.png,0001-00-0000-91.png
00000014,807,0,1438359402975,1438359403003,521,436,0,0,0,5,4,1,54,0005-00-0000-75.png,0004-00-0001-66.png
00000014,808,0,1438359404168,1438359404611,319,376,0,0,0,4,3,1,43,0004-00-0000-24.png,0003-00-0001-44.png
00000014,809,0,1438359405698,1438359406186,291,373,0,0,0,5,4,1,54,0005-00-0001-68.png,0004-00-0001-21.png
00000014,810,0,1438359407057,1438359407641,865,403,0,0,0,2,3,1,23,0002-00-0000-48.png,0003-00-0000-30.png
00000014,811,1,1438359409016,1438359409449,298,371,0,0,0,4,5,1,45,0004-00-0000-73.png,0005-00-0001-33.png
00000014,812,0,1438359410360,1438359410841,316,401,0,0,0,3,2,1,32,0003-00-0001-97.png,0002-00-0001-09.png
00000014,813,1,1438359412378,1438359412849,390,496,0,0,0,1,2,1,12,0001-00-0001-80.png,0002-00-0000-61.png
00000014,814,0,1438359413714,1438359414232,284,390,0,0,0,2,1,1,21,0002-00-0001-02.png,0001-00-0000-40.png
00000014,815,1,1438359415575,1438359415596,495,375,0,0,0,3,4,1,34,0003-00-0001-23.png,0004-00-0001-85.png
00000014,816,0,1438359416550,1438359416590,522,508,0,0,0,4,3,1,43,0004-00-0000-43.png,0003-00-0000-21.png
00000014,817,1,1438359417769,1438359418405,884,390,0,0,0,3,2,1,32,0003-00-0001-14.png,0002-00-0001-86.png
00000014,818,0,1438359419260,1438359419906,293,401,0,0,0,5,4,1,54,0005-00-0001-72.png,0004-00-0000-45.png
00000014,819,0,1438359421305,1438359421756,332,398,0,0,0,4,3,1,43,0004-00-0000-43.png,0003-00-0001-67.png
00000014,820,0,1438359422679,1438359422687,480,472,0,0,0,2,1,1,21,0002-00-0000-77.png,0001-00-0000-61.png
00000014,821,1,1438359423860,1438359423880,478,421,0,0,0,3,4,1,34,0003-00-0000-92.png,0004-00-0001-84.png
00000014,822,1,1438359424867,1438359425340,227,447,0,0,0,4,5,1,45,0004-00-0000-85.png,0005-00-0000-47.png
00000014,823,0,1438359426686,1438359427370,911,469,0,0,0,1,2,1,12,0001-00-0001-25.png,0002-00-0000-03.png
00000014,824,1,1438359428631,1438359429094,370,505,0,0,0,2,3,1,23,0002-00-0000-57.png,0003-00-0000-68.png
00000014,825,0,1438359429940,1438359430598,888,459,0,0,0,2,3,1,23,0002-00-0000-36.png,0003-00-0000-21.png
00000014,826,0,1438359434695,1438359435149,348,423,0,0,0,4,3,1,43,0004-00-0000-86.png,0003-00-0000-89.png
00000014,827,1,1438359436512,1438359436977,384,510,0,0,0,3,4,1,34,0003-00-0001-15.png,0004-00-0000-35.png
00000014,828,0,1438359437832,1438359437900,497,521,0,0,0,3,2,1,32,0003-00-0001-00.png,0002-00-0001-47.png
00000014,829,1,1438359439383,1438359439830,376,358,0,0,0,1,2,1,12,0001-00-0000-49.png,0002-00-0001-33.png
00000014,830,1,1438359440729,1438359441168,320,391,0,0,0,4,5,1,45,0004-00-0001-18.png,0005-00-0001-72.png
00000014,831,0,1438359442056,1438359442115,486,455,0,0,0,2,1,1,21,0002-00-0000-39.png,0001-00-0001-16.png
00000014,832,0,1438359442971,1438359443459,346,399,0,0,0,5,4,1,54,0005-00-0001-34.png,0004-00-0000-56.png
00000014,833,1,1438359444567,1438359444609,523,479,0,0,0,2,3,1,23,0002-00-0000-11.png,0003-00-0000-01.png
00000014,834,0,1438359445611,1438359446159,928,391,0,0,0,1,2,1,12,0001-00-0001-53.png,0002-00-0000-15.png
00000014,835,1,1438359447203,1438359447215,511,442,0,0,0,3,4,1,34,0003-00-0000-60.png,0004-00-0000-42.png
00000014,836,0,1438359448147,1438359448180,517,461,0,0,0,2,1,1,21,0002-00-0000-70.png,0001-00-0001-35.png
00000014,837,0,1438359449022,1438359449432,302,364,0,0,0,4,3,1,43,0004-00-0000-15.png,0003-00-0000-86.png
00000014,838,1,1438359450661,1438359451116,325,398,0,0,0,4,5,1,45,0004-00-0001-62.png,0005-00-0000-99.png
00000014,839,0,1438359452074,1438359452103,507,494,0,0,0,3,2,1,32,0003-00-0001-27.png,0002-00-0000-68.png
00000014,840,0,1438359453611,1438359454079,277,401,0,0,0,5,4,1,54,0005-00-0000-43.png,0004-00-0000-92.png
00000014,841,0,1438359454935,1438359455378,350,395,0,0,0,4,3,1,43,0004-00-0001-10.png,0003-00-0001-08.png
00000014,842,0,1438359456649,1438359457109,376,358,0,0,0,2,1,1,21,0002-00-0000-43.png,0001-00-0000-87.png
00000014,843,1,1438359457975,1438359458430,350,373,0,0,0,4,5,1,45,0004-00-0000-94.png,0005-00-0000-15.png
00000014,844,0,1438359459479,1438359460016,923,408,0,0,0,2,3,1,23,0002-00-0000-12.png,0003-00-0000-73.png
00000014,845,0,1438359461054,1438359461632,977,385,0,0,0,1,2,1,12,0001-00-0001-06.png,0002-00-0000-27.png
00000014,846,1,1438359463094,1438359463687,325,398,0,0,0,3,4,1,34,0003-00-0001-03.png,0004-00-0000-91.png
00000014,847,0,1438359464564,1438359464584,504,422,0,0,0,5,4,1,54,0005-00-0000-75.png,0004-00-0000-31.png
00000014,848,1,1438359465541,1438359466098,900,374,0,0,0,3,2,1,32,0003-00-0001-62.png,0002-00-0000-38.png
00000014,849,0,1438359466998,1438359467040,504,451,0,0,0,3,2,1,32,0003-00-0001-66.png,0002-00-0001-05.png
00000014,850,0,1438359468120,1438359468637,858,336,0,0,0,3,4,1,34,0003-00-0001-49.png,0004-00-0000-74.png
00000014,851,1,1438359469499,1438359470352,950,418,0,0,0,2,1,1,21,0002-00-0001-38.png,0001-00-0000-68.png
00000014,852,1,1438359471227,1438359471727,391,495,0,0,0,1,2,1,12,0001-00-0000-13.png,0002-00-0000-36.png
00000014,853,1,1438359472641,1438359473099,297,396,0,0,0,2,3,1,23,0002-00-0001-79.png,0003-00-0000-70.png
00000014,854,1,1438359473992,1438359474559,901,431,0,0,0,5,4,1,54,0005-00-0001-85.png,0004-00-0001-87.png
00000014,855,1,1438359475926,1438359476422,305,416,0,0,0,4,5,1,45,0004-00-0000-42.png,0005-00-0001-34.png
00000014,856,0,1438359477250,1438359477762,384,469,0,0,0,4,3,1,43,0004-00-0001-75.png,0003-00-0001-51.png
00000014,857,0,1438359478803,1438359478827,518,473,0,0,0,4,3,1,43,0004-00-0001-33.png,0003-00-0000-65.png
00000014,858,1,1438359479868,1438359480413,925,464,0,0,0,5,4,1,54,0005-00-0001-42.png,0004-00-0001-61.png
00000014,859,1,1438359481293,1438359481313,512,443,0,0,0,3,4,1,34,0003-00-0000-56.png,0004-00-0001-87.png
00000014,860,1,1438359482482,1438359483054,222,462,0,0,0,4,5,1,45,0004-00-0001-18.png,0005-00-0000-72.png
00000014,861,1,1438359484383,1438359484872,926,383,0,0,0,3,2,1,32,0003-00-0000-63.png,0002-00-0000-48.png
00000014,862,1,1438359486145,1438359486165,515,425,0,0,0,1,2,1,12,0001-00-0000-65.png,0002-00-0000-23.png
00000014,863,0,1438359487069,1438359487641,930,416,0,0,0,2,3,1,23,0002-00-0000-36.png,0003-00-0001-65.png
00000014,864,0,1438359488824,1438359489375,325,377,0,0,0,2,1,1,21,0002-00-0001-31.png,0001-00-0000-64.png
00000014,865,1,1438359490307,1438359490895,883,360,0,0,0,3,2,1,32,0003-00-0000-86.png,0002-00-0001-48.png
00000014,866,1,1438359491752,1438359492311,926,405,0,0,0,2,1,1,21,0002-00-0001-09.png,0001-00-0000-29.png
00000014,867,1,1438359493584,1438359494129,313,386,0,0,0,2,3,1,23,0002-00-0000-70.png,0003-00-0000-41.png
00000014,868,1,1438359495111,1438359495127,504,441,0,0,0,3,4,1,34,0003-00-0001-00.png,0004-00-0000-34.png
00000014,869,0,1438359496046,1438359496082,504,452,0,0,0,5,4,1,54,0005-00-0001-56.png,0004-00-0000-56.png
00000014,870,1,1438359496948,1438359497470,314,412,0,0,0,1,2,1,12,0001-00-0000-87.png,0002-00-0000-04.png
00000014,871,1,1438359498324,1438359498336,497,469,0,0,0,4,5,1,45,0004-00-0000-31.png,0005-00-0001-24.png
00000014,872,0,1438359499425,1438359499987,325,358,0,0,0,4,3,1,43,0004-00-0000-75.png,0003-00-0000-59.png
00000014,873,1,1438359501099,1438359501162,522,454,0,0,0,2,3,1,23,0002-00-0001-31.png,0003-00-0001-94.png
00000014,874,0,1438359502014,1438359502552,376,397,0,0,0,5,4,1,54,0005-00-0000-79.png,0004-00-0001-96.png
00000014,875,0,1438359503549,1438359504038,273,397,0,0,0,4,3,1,43,0004-00-0000-51.png,0003-00-0001-69.png
00000014,876,0,1438359504898,1438359505472,975,416,0,0,0,3,4,1,34,0003-00-0000-39.png,0004-00-0001-71.png
00000014,877,0,1438359506378,1438359506776,359,453,0,0,0,2,1,1,21,0002-00-0001-75.png,0001-00-0000-82.png
00000014,878,1,1438359507725,1438359508226,395,512,0,0,0,4,5,1,45,0004-00-0000-16.png,0005-00-0001-44.png
00000014,879,1,1438359509172,1438359509188,518,430,0,0,0,1,2,1,12,0001-00-0000-28.png,0002-00-0000-62.png
00000014,880,1,1438359510141,1438359511087,957,380,0,0,0,3,2,1,32,0003-00-0001-70.png,0002-00-0000-96.png
00000014,881,0,1438359512010,1438359512577,952,423,0,0,0,3,4,1,34,0003-00-0001-92.png,0004-00-0001-61.png
00000014,882,1,1438359513470,1438359514333,393,468,0,0,0,2,3,1,23,0002-00-0000-90.png,0003-00-0000-89.png
00000014,883,0,1438359515231,1438359515302,502,513,0,0,0,3,2,1,32,0003-00-0000-88.png,0002-00-0000-92.png
00000014,884,1,1438359516845,1438359517348,926,384,0,0,0,2,1,1,21,0002-00-0001-78.png,0001-00-0001-64.png
00000014,885,0,1438359518175,1438359518652,328,407,0,0,0,4,3,1,43,0004-00-0000-38.png,0003-00-0001-99.png
00000014,886,0,1438359519606,1438359519634,493,450,0,0,0,5,4,1,54,0005-00-0001-55.png,0004-00-0001-35.png
00000014,887,1,1438359520468,1438359520929,315,418,0,0,0,4,5,1,45,0004-00-0001-41.png,0005-00-0001-38.png
00000014,888,0,1438359521761,1438359522356,925,387,0,0,0,1,2,1,12,0001-00-0000-35.png,0002-00-0000-72.png
00000014,889,1,1438359523321,1438359523956,932,392,0,0,0,3,2,1,32,0003-00-0001-18.png,0002-00-0000-25.png
00000014,890,0,1438359525258,1438359525300,503,462,0,0,0,4,3,1,43,0004-00-0000-32.png,0003-00-0000-93.png
00000014,891,1,1438359526169,1438359526599,300,382,0,0,0,2,3,1,23,0002-00-0001-71.png,0003-00-0001-21.png
00000014,892,1,1438359527477,1438359527525,496,483,0,0,0,1,2,1,12,0001-00-0000-73.png,0002-00-0000-02.png
00000014,893,0,1438359528419,1438359528455,510,446,0,0,0,5,4,1,54,0005-00-0000-32.png,0004-00-0001-25.png
00000014,894,0,1438359529542,1438359536797,918,455,0,0,0,3,4,1,34,0003-00-0000-60.png,0004-00-0001-75.png
00000014,895,1,1438359538330,1438359538813,389,488,0,0,0,4,5,1,45,0004-00-0000-22.png,0005-00-0001-17.png
00000014,896,0,1438359540035,1438359540083,522,427,0,0,0,2,1,1,21,0002-00-0001-18.png,0001-00-0000-17.png
00000014,897,1,1438359540933,1438359541403,298,383,0,0,0,1,2,1,12,0001-00-0001-14.png,0002-00-0001-04.png
00000014,898,0,1438359542353,1438359542405,482,513,0,0,0,2,1,1,21,0002-00-0001-09.png,0001-00-0001-18.png
00000014,899,0,1438359543265,1438359543907,939,408,0,0,0,3,4,1,34,0003-00-0001-12.png,0004-00-0000-00.png
00000014,900,1,1438359544894,1438359545473,350,404,0,0,0,4,5,1,45,0004-00-0001-23.png,0005-00-0000-92.png
00000014,901,0,1438359546897,1438359547537,324,347,0,0,0,4,3,1,43,0004-00-0000-10.png,0003-00-0000-30.png
00000014,902,1,1438359548415,1438359548954,906,453,0,0,0,5,4,1,54,0005-00-0000-45.png,0004-00-0000-10.png
00000014,903,0,1438359549803,1438359549874,521,483,0,0,0,3,2,1,32,0003-00-0000-68.png,0002-00-0000-62.png
00000014,904,1,1438359550836,1438359551364,351,485,0,0,0,2,3,1,23,0002-00-0001-68.png,0003-00-0000-74.png
00000014,905,0,1438359552460,1438359553017,928,419,0,0,0,4,5,1,45,0004-00-0000-31.png,0005-00-0001-90.png
00000014,906,0,1438359554367,1438359554931,954,422,0,0,0,3,4,1,34,0003-00-0001-06.png,0004-00-0000-09.png
00000014,907,0,1438359555758,1438359556267,947,420,0,0,0,2,3,1,23,0002-00-0000-91.png,0003-00-0000-16.png
00000014,908,1,1438359557169,1438359558171,887,399,0,0,0,2,1,1,21,0002-00-0000-55.png,0001-00-0001-39.png
00000014,909,1,1438359559057,1438359560209,941,370,0,0,0,5,4,1,54,0005-00-0000-86.png,0004-00-0001-86.png
00000014,910,1,1438359561055,1438359561593,948,367,0,0,0,3,2,1,32,0003-00-0001-95.png,0002-00-0001-61.png
00000014,911,0,1438359562446,1438359562919,364,450,0,0,0,4,3,1,43,0004-00-0000-48.png,0003-00-0000-05.png
00000014,912,1,1438359564110,1438359564593,350,462,0,0,0,1,2,1,12,0001-00-0001-85.png,0002-00-0001-80.png
00000014,913,0,1438359565844,1438359566369,352,369,0,0,0,5,4,1,54,0005-00-0001-23.png,0004-00-0000-96.png
00000014,914,1,1438359567342,1438359567876,376,384,0,0,0,4,5,1,45,0004-00-0000-01.png,0005-00-0001-79.png
00000014,915,1,1438359572108,1438359572542,318,393,0,0,0,3,4,1,34,0003-00-0001-72.png,0004-00-0001-30.png
00000014,916,1,1438359573467,1438359574043,870,387,0,0,0,3,2,1,32,0003-00-0001-84.png,0002-00-0001-62.png
00000014,917,0,1438359575030,1438359575481,307,359,0,0,0,4,3,1,43,0004-00-0000-03.png,0003-00-0001-63.png
00000014,918,1,1438359576519,1438359576555,518,456,0,0,0,2,3,1,23,0002-00-0000-36.png,0003-00-0000-51.png
00000014,919,1,1438359577421,1438359578020,968,361,0,0,0,2,1,1,21,0002-00-0001-88.png,0001-00-0001-83.png
00000014,920,1,1438359578957,1438359578981,515,488,0,0,0,1,2,1,12,0001-00-0000-88.png,0002-00-0001-80.png
00000014,921,0,1438359579971,1438359580494,896,472,0,0,0,4,5,1,45,0004-00-0000-31.png,0005-00-0000-77.png
00000014,922,0,1438359581339,1438359581860,928,417,0,0,0,1,2,1,12,0001-00-0000-52.png,0002-00-0000-56.png
00000014,923,1,1438359582749,1438359583294,954,541,0,0,0,2,1,1,21,0002-00-0000-85.png,0001-00-0001-15.png
00000014,924,0,1438359584294,1438359584740,361,475,0,0,0,3,2,1,32,0003-00-0000-18.png,0002-00-0001-38.png
00000014,925,0,1438359585712,1438359585732,500,468,0,0,0,5,4,1,54,0005-00-0001-26.png,0004-00-0001-61.png
00000014,926,1,1438359586775,1438359587251,376,358,0,0,0,2,3,1,23,0002-00-0000-66.png,0003-00-0001-16.png
00000014,927,0,1438359588078,1438359588609,926,384,0,0,0,3,4,1,34,0003-00-0001-12.png,0004-00-0001-54.png
00000014,928,0,1438359589686,1438359590140,358,367,0,0,0,4,3,1,43,0004-00-0001-60.png,0003-00-0000-36.png
00000014,929,0,1438359591015,1438359591582,926,396,0,0,0,3,4,1,34,0003-00-0001-93.png,0004-00-0001-20.png
00000014,930,0,1438359592563,1438359593005,291,377,0,0,0,2,1,1,21,0002-00-0001-46.png,0001-00-0000-29.png
00000014,931,1,1438359594186,1438359594773,288,391,0,0,0,2,3,1,23,0002-00-0001-14.png,0003-00-0001-60.png
00000014,932,1,1438359595626,1438359596139,366,497,0,0,0,1,2,1,12,0001-00-0000-83.png,0002-00-0000-79.png
00000014,933,1,1438359597051,1438359597087,500,490,0,0,0,4,5,1,45,0004-00-0001-73.png,0005-00-0001-96.png
00000014,934,0,1438359598164,1438359598658,317,374,0,0,0,3,2,1,32,0003-00-0000-80.png,0002-00-0001-08.png
00000014,935,1,1438359599680,1438359600253,942,369,0,0,0,4,3,1,43,0004-00-0001-11.png,0003-00-0000-39.png
00000014,936,1,1438359601176,1438359601681,930,375,0,0,0,5,4,1,54,0005-00-0001-56.png,0004-00-0001-29.png
00000014,937,0,1438359602595,1438359603195,302,388,0,0,0,3,2,1,32,0003-00-0001-64.png,0002-00-0001-08.png
00000014,938,0,1438359604204,1438359604220,513,450,0,0,0,4,3,1,43,0004-00-0000-00.png,0003-00-0000-18.png
00000014,939,1,1438359605137,1438359605157,502,442,0,0,0,2,3,1,23,0002-00-0001-74.png,0003-00-0001-95.png
00000014,940,1,1438359606143,1438359606660,930,350,0,0,0,5,4,1,54,0005-00-0000-44.png,0004-00-0000-20.png
00000014,941,0,1438359607952,1438359608472,881,400,0,0,0,4,5,1,45,0004-00-0000-33.png,0005-00-0001-50.png
00000014,942,1,1438359609567,1438359609598,520,431,0,0,0,1,2,1,12,0001-00-0000-56.png,0002-00-0001-43.png
