subject_id,trial,correct_response,stim_time,response_time,x_coord,y_coord,trial_timeout,timeout_time,interTrial_timeout,left_rank,right_rank,distance,joint_rank,left_image,right_image
00000009,1,1,1440171819674,1440171820601,1143,225,0,0,0,5,4,1,54,0005-00-0003-88.png,0004-00-0007-07.png
00000009,2,0,1440171822095,1440171822511,1017,298,0,0,0,3,4,1,34,0003-00-0009-11.png,0004-00-0005-44.png
00000009,3,1,1440171825712,1440171826438,996,359,0,0,0,2,1,1,21,0002-00-0000-99.png,0001-00-0001-24.png
00000009,4,1,1440171828547,1440171829256,965,332,0,0,0,3,2,1,32,0003-00-0000-21.png,0002-00-0004-63.png
00000009,5,1,1440171831230,1440171831809,1072,354,0,0,0,4,3,1,43,0004-00-0006-21.png,0003-00-0009-25.png
00000009,6,0,1440171832786,1440171833930,939,350,0,0,0,1,2,1,12,0001-00-0001-99.png,0002-00-0000-09.png
00000009,7,0,1440171837072,1440171837711,965,380,0,0,0,2,3,1,23,0002-00-0000-30.png,0003-00-0001-20.png
00000009,8,0,1440171841039,1440171841711,970,384,0,0,0,4,5,1,45,0004-00-0007-59.png,0005-00-0008-90.png
00000009,9,0,1440171844836,1440171845487,936,361,0,0,0,4,5,1,45,0004-00-0009-69.png,0005-00-0007-48.png
00000009,10,1,1440171848988,1440171850101,929,351,0,0,0,4,3,1,43,0004-00-0006-39.png,0003-00-0001-60.png
00000009,11,1,1440171850940,1440171852049,966,329,0,0,0,5,4,1,54,0005-00-0002-61.png,0004-00-0008-54.png
00000009,12,1,1440171852871,1440171853815,948,330,0,0,0,3,2,1,32,0003-00-0000-77.png,0002-00-0009-37.png
00000009,13,1,1440171854691,1440171855733,1097,331,0,0,0,2,1,1,21,0002-00-0005-66.png,0001-00-0008-33.png
00000009,14,0,1440171857147,1440171858131,1051,276,0,0,0,1,2,1,12,0001-00-0007-54.png,0002-00-0001-74.png
00000009,15,0,1440171861214,1440171861355,870,282,0,0,0,2,3,1,23,0002-00-0009-93.png,0003-00-0000-92.png
00000009,16,0,1440171864896,1440171864932,927,300,0,0,0,3,4,1,34,0003-00-0003-54.png,0004-00-0007-92.png
00000009,17,1,1440171868199,1440171869103,412,232,0,0,0,2,3,1,23,0002-00-0008-03.png,0003-00-0002-61.png
00000009,18,1,1440171869994,1440171870535,862,499,0,0,0,2,1,1,21,0002-00-0000-92.png,0001-00-0006-88.png
00000009,19,0,1440171871505,1440171871953,890,492,0,0,0,1,2,1,12,0001-00-0000-63.png,0002-00-0002-72.png
00000009,20,1,1440171875352,1440171876110,327,352,0,0,0,4,5,1,45,0004-00-0006-19.png,0005-00-0001-84.png
00000009,21,0,1440171878025,1440171878874,442,274,0,0,0,4,3,1,43,0004-00-0000-67.png,0003-00-0006-86.png
00000009,22,0,1440171882013,1440171882963,442,227,0,0,0,3,2,1,32,0003-00-0000-41.png,0002-00-0006-61.png
00000009,23,0,1440171886647,1440171887225,909,345,0,0,0,3,4,1,34,0003-00-0003-22.png,0004-00-0004-74.png
00000009,24,1,1440171890622,1440171891511,940,327,0,0,0,5,4,1,54,0005-00-0007-66.png,0004-00-0009-66.png
00000009,25,0,1440171892907,1440171893562,868,435,0,0,0,1,2,1,12,0001-00-0003-93.png,0002-00-0006-95.png
00000009,26,0,1440171897140,1440171897962,445,246,0,0,0,5,4,1,54,0005-00-0000-69.png,0004-00-0000-89.png
00000009,27,0,1440171901157,1440171902072,325,373,0,0,0,4,3,1,43,0004-00-0007-85.png,0003-00-0007-52.png
00000009,28,1,1440171905181,1440171905747,1032,279,0,0,0,2,1,1,21,0002-00-0002-62.png,0001-00-0001-16.png
00000009,29,0,1440171907248,1440171907633,862,427,0,0,0,2,3,1,23,0002-00-0004-99.png,0003-00-0002-02.png
00000009,30,0,1440171910795,1440171911843,933,295,0,0,0,4,5,1,45,0004-00-0005-36.png,0005-00-0000-36.png
00000009,31,1,1440171914952,1440171915832,1045,268,0,0,0,3,2,1,32,0003-00-0000-52.png,0002-00-0009-42.png
00000009,32,0,1440171917097,1440171917613,884,468,0,0,0,3,4,1,34,0003-00-0008-52.png,0004-00-0009-54.png
00000009,33,0,1440171921228,1440171921259,907,298,0,0,0,3,4,1,34,0003-00-0006-21.png,0004-00-0002-48.png
00000009,34,1,1440171924454,1440171925172,921,344,0,0,0,5,4,1,54,0005-00-0003-58.png,0004-00-0008-95.png
00000009,35,1,1440171926384,1440171927705,350,411,0,0,0,2,3,1,23,0002-00-0000-97.png,0003-00-0003-97.png
00000009,36,0,1440171929002,1440171930229,893,327,0,0,0,4,5,1,45,0004-00-0002-24.png,0005-00-0000-19.png
00000009,37,1,1440171933395,1440171934114,418,267,0,0,0,1,2,1,12,0001-00-0002-62.png,0002-00-0005-24.png
00000009,38,0,1440171935766,1440171936912,381,269,0,0,0,4,3,1,43,0004-00-0003-92.png,0003-00-0000-42.png
00000009,39,1,1440171940123,1440171940899,1039,283,0,0,0,3,2,1,32,0003-00-0007-58.png,0002-00-0004-90.png
00000009,40,1,1440171942290,1440171943407,952,327,0,0,0,2,1,1,21,0002-00-0007-98.png,0001-00-0001-62.png
00000009,41,0,1440171944638,1440171946217,322,342,0,0,0,3,2,1,32,0003-00-0004-16.png,0002-00-0009-28.png
00000009,42,0,1440171949427,1440171949483,993,306,0,0,0,1,2,1,12,0001-00-0006-72.png,0002-00-0002-67.png
00000009,43,0,1440171952686,1440171954106,951,387,0,0,0,2,3,1,23,0002-00-0005-85.png,0003-00-0003-86.png
00000009,44,0,1440171957249,1440171958171,400,239,0,0,0,4,3,1,43,0004-00-0009-34.png,0003-00-0009-43.png
00000009,45,1,1440171961353,1440171961906,939,351,0,0,0,5,4,1,54,0005-00-0002-69.png,0004-00-0007-97.png
00000009,46,0,1440171963376,1440171963832,862,436,0,0,0,4,5,1,45,0004-00-0009-30.png,0005-00-0002-48.png
00000009,47,0,1440171967525,1440171968619,1030,422,0,0,0,3,4,1,34,0003-00-0002-28.png,0004-00-0007-20.png
00000009,48,1,1440171971810,1440171971822,888,306,0,0,0,2,1,1,21,0002-00-0002-59.png,0001-00-0006-23.png
00000009,49,0,1440171972693,1440171973306,884,492,0,0,0,4,5,1,45,0004-00-0004-03.png,0005-00-0003-30.png
00000009,50,0,1440171976302,1440171976354,964,322,0,0,0,2,3,1,23,0002-00-0007-80.png,0003-00-0009-30.png
00000009,51,0,1440171979560,1440171980580,372,280,0,0,0,4,3,1,43,0004-00-0002-52.png,0003-00-0002-46.png
00000009,52,0,1440171984181,1440171984213,889,328,0,0,0,3,4,1,34,0003-00-0006-71.png,0004-00-0003-92.png
00000009,53,0,1440171987622,1440171988544,923,356,0,0,0,1,2,1,12,0001-00-0004-78.png,0002-00-0003-28.png
00000009,54,1,1440171991756,1440171992359,942,354,0,0,0,5,4,1,54,0005-00-0002-74.png,0004-00-0003-01.png
00000009,55,1,1440171993660,1440171994102,862,453,0,0,0,2,1,1,21,0002-00-0001-58.png,0001-00-0006-00.png
00000009,56,0,1440171995095,1440171996445,360,382,0,0,0,3,2,1,32,0003-00-0001-34.png,0002-00-0008-27.png
00000009,57,1,1440171999664,1440171999705,969,283,0,0,0,2,1,1,21,0002-00-0009-11.png,0001-00-0005-95.png
00000009,58,0,1440172000646,1440172002187,937,379,0,0,0,3,4,1,34,0003-00-0001-09.png,0004-00-0004-17.png
00000009,59,1,1440172005371,1440172006159,1041,279,0,0,0,3,2,1,32,0003-00-0006-34.png,0002-00-0000-76.png
00000009,60,1,1440172007894,1440172008606,408,261,0,0,0,1,2,1,12,0001-00-0006-89.png,0002-00-0001-00.png
00000009,61,0,1440172010083,1440172010500,930,488,0,0,0,2,3,1,23,0002-00-0009-73.png,0003-00-0007-87.png
00000009,62,0,1440172013739,1440172015124,955,322,0,0,0,4,5,1,45,0004-00-0002-57.png,0005-00-0009-80.png
00000009,63,0,1440172018359,1440172019002,394,284,0,0,0,5,4,1,54,0005-00-0009-67.png,0004-00-0008-61.png
00000009,64,1,1440172021967,1440172022658,1035,273,0,0,0,4,3,1,43,0004-00-0007-90.png,0003-00-0000-58.png
00000009,65,1,1440172024125,1440172024506,862,436,0,0,0,3,2,1,32,0003-00-0005-34.png,0002-00-0006-57.png
00000009,66,1,1440172025324,1440172026675,1063,262,0,0,0,5,4,1,54,0005-00-0007-22.png,0004-00-0000-11.png
00000009,67,0,1440172027737,1440172029068,933,342,0,0,0,2,3,1,23,0002-00-0000-51.png,0003-00-0003-33.png
00000009,68,0,1440172032631,1440172032635,863,277,0,0,0,1,2,1,12,0001-00-0008-67.png,0002-00-0003-66.png
00000009,69,0,1440172035480,1440172036129,901,344,0,0,0,3,4,1,34,0003-00-0004-60.png,0004-00-0008-76.png
00000009,70,0,1440172039329,1440172040072,391,272,0,0,0,4,3,1,43,0004-00-0002-04.png,0003-00-0001-16.png
00000009,71,1,1440172043275,1440172044165,299,358,0,0,0,4,5,1,45,0004-00-0006-06.png,0005-00-0000-03.png
00000009,72,1,1440172045011,1440172047058,1098,271,0,0,0,2,1,1,21,0002-00-0009-28.png,0001-00-0001-28.png
00000009,73,1,1440172047916,1440172049672,943,325,0,0,0,5,4,1,54,0005-00-0000-31.png,0004-00-0007-44.png
00000009,74,0,1440172050983,1440172052280,1036,274,0,0,0,4,5,1,45,0004-00-0009-99.png,0005-00-0002-32.png
00000009,75,0,1440172055449,1440172056326,1069,308,0,0,0,2,3,1,23,0002-00-0008-37.png,0003-00-0007-60.png
00000009,76,1,1440172059574,1440172060533,377,283,0,0,0,1,2,1,12,0001-00-0009-82.png,0002-00-0005-76.png
00000009,77,0,1440172062075,1440172062271,864,414,0,0,0,3,4,1,34,0003-00-0002-74.png,0004-00-0008-51.png
00000009,78,1,1440172065416,1440172066078,930,325,0,0,0,4,3,1,43,0004-00-0000-05.png,0003-00-0002-74.png
00000009,79,1,1440172067605,1440172068914,916,341,0,0,0,3,2,1,32,0003-00-0004-28.png,0002-00-0005-85.png
00000009,80,1,1440172070603,1440172070978,913,473,0,0,0,2,1,1,21,0002-00-0007-07.png,0001-00-0005-24.png
00000009,81,0,1440172071877,1440172073359,957,390,0,0,0,3,4,1,34,0003-00-0001-86.png,0004-00-0000-54.png
00000009,82,0,1440172076335,1440172077027,427,297,0,0,0,2,1,1,21,0002-00-0009-18.png,0001-00-0002-10.png
00000009,83,1,1440172080377,1440172081236,984,429,0,0,0,4,3,1,43,0004-00-0009-32.png,0003-00-0002-18.png
00000009,84,0,1440172082745,1440172084184,322,381,0,0,0,5,4,1,54,0005-00-0007-56.png,0004-00-0006-79.png
00000009,85,1,1440172087311,1440172088621,404,264,0,0,0,4,5,1,45,0004-00-0001-01.png,0005-00-0001-86.png
00000009,86,1,1440172089552,1440172091071,320,370,0,0,0,2,3,1,23,0002-00-0008-30.png,0003-00-0002-96.png
00000009,87,1,1440172092664,1440172093839,398,267,0,0,0,1,2,1,12,0001-00-0007-46.png,0002-00-0009-66.png
00000009,88,1,1440172094700,1440172096682,937,356,0,0,0,3,2,1,32,0003-00-0009-28.png,0002-00-0005-79.png
00000009,89,0,1440172097567,1440172099087,381,289,0,0,0,4,3,1,43,0004-00-0007-32.png,0003-00-0006-99.png
00000009,90,1,1440172102616,1440172103229,1001,436,0,0,0,2,1,1,21,0002-00-0002-30.png,0001-00-0002-05.png
00000009,91,1,1440172110135,1440172110767,316,349,0,0,0,4,5,1,45,0004-00-0008-80.png,0005-00-0006-20.png
00000009,92,0,1440172115277,1440172121271,1052,306,0,0,0,1,2,1,12,0001-00-0008-79.png,0002-00-0000-15.png
00000009,93,0,1440172125103,1440172125717,989,333,0,0,0,3,4,1,34,0003-00-0004-20.png,0004-00-0000-47.png
00000009,94,1,1440172128940,1440172129730,299,436,0,0,0,2,3,1,23,0002-00-0007-87.png,0003-00-0004-60.png
00000009,95,1,1440172131923,1440172133334,1034,353,0,0,0,3,2,1,32,0003-00-0000-80.png,0002-00-0006-50.png
00000009,96,1,1440172135884,1440172136578,1020,330,0,0,0,5,4,1,54,0005-00-0007-25.png,0004-00-0007-42.png
00000009,97,1,1440172139019,1440172139951,365,350,0,0,0,2,3,1,23,0002-00-0009-09.png,0003-00-0007-69.png
00000009,98,0,1440172142007,1440172143531,252,254,0,0,0,2,1,1,21,0002-00-0004-00.png,0001-00-0004-07.png
00000009,99,1,1440172147009,1440172147936,1055,289,0,0,0,5,4,1,54,0005-00-0004-34.png,0004-00-0006-04.png
00000009,100,1,1440172150329,1440172152240,967,313,0,0,0,3,2,1,32,0003-00-0001-75.png,0002-00-0003-67.png
00000009,101,1,1440172154779,1440172155755,222,343,0,0,0,3,4,1,34,0003-00-0008-78.png,0004-00-0006-88.png
00000009,102,0,1440172157913,1440172158456,1016,306,0,0,0,1,2,1,12,0001-00-0002-19.png,0002-00-0002-92.png
00000009,103,1,1440172162281,1440172162862,976,328,0,0,0,4,3,1,43,0004-00-0003-49.png,0003-00-0007-41.png
00000009,104,0,1440172164869,1440172164905,888,352,0,0,0,4,5,1,45,0004-00-0007-08.png,0005-00-0007-93.png
00000009,105,1,1440172168576,1440172168590,955,353,0,0,0,3,2,1,32,0003-00-0005-13.png,0002-00-0008-42.png
00000009,106,1,1440172170781,1440172170898,450,400,0,0,0,1,2,1,12,0001-00-0003-36.png,0002-00-0006-91.png
00000009,107,1,1440172172787,1440172172821,404,381,0,0,0,2,3,1,23,0002-00-0004-61.png,0003-00-0002-07.png
00000009,108,1,1440172175931,1440172176863,1055,358,0,0,0,5,4,1,54,0005-00-0003-65.png,0004-00-0004-68.png
00000009,109,1,1440172178782,1440172179716,1034,377,0,0,0,2,1,1,21,0002-00-0002-78.png,0001-00-0001-60.png
00000009,110,0,1440172181912,1440172183093,1107,315,0,0,0,4,5,1,45,0004-00-0003-95.png,0005-00-0004-35.png
00000009,111,0,1440172186328,1440172187010,258,306,0,0,0,4,3,1,43,0004-00-0001-84.png,0003-00-0001-58.png
00000009,112,0,1440172191768,1440172192884,1118,332,0,0,0,3,4,1,34,0003-00-0002-58.png,0004-00-0009-03.png
00000009,113,0,1440172196094,1440172196194,939,358,0,0,0,1,2,1,12,0001-00-0004-81.png,0002-00-0001-37.png
00000009,114,0,1440172199385,1440172199921,1020,317,0,0,0,3,4,1,34,0003-00-0002-95.png,0004-00-0003-20.png
00000009,115,1,1440172220616,1440172221179,939,332,0,0,0,2,1,1,21,0002-00-0005-41.png,0001-00-0009-61.png
00000009,116,1,1440172223231,1440172223937,964,358,0,0,0,5,4,1,54,0005-00-0008-65.png,0004-00-0000-42.png
00000009,117,1,1440172225879,1440172226924,940,384,0,0,0,4,3,1,43,0004-00-0007-98.png,0003-00-0000-74.png
00000009,118,0,1440172228072,1440172228129,870,423,0,0,0,2,3,1,23,0002-00-0007-91.png,0003-00-0004-37.png
00000009,119,1,1440172231286,1440172231818,963,327,0,0,0,3,2,1,32,0003-00-0006-62.png,0002-00-0001-76.png
00000009,120,0,1440172233578,1440172234178,990,314,0,0,0,4,5,1,45,0004-00-0003-02.png,0005-00-0000-31.png
00000009,121,0,1440172237241,1440172237413,886,432,0,0,0,2,3,1,23,0002-00-0000-34.png,0003-00-0006-86.png
00000009,122,0,1440172240916,1440172241781,1057,343,0,0,0,3,4,1,34,0003-00-0000-95.png,0004-00-0007-06.png
00000009,123,0,1440172245012,1440172245106,872,293,0,0,0,1,2,1,12,0001-00-0000-58.png,0002-00-0000-21.png
00000009,124,0,1440172248262,1440172248358,903,356,0,0,0,4,5,1,45,0004-00-0006-55.png,0005-00-0003-86.png
00000009,125,1,1440172251936,1440172252488,968,307,0,0,0,4,3,1,43,0004-00-0000-21.png,0003-00-0005-96.png
00000009,126,1,1440172254244,1440172254252,1048,448,0,0,0,2,1,1,21,0002-00-0009-63.png,0001-00-0004-13.png
00000009,127,1,1440172255673,1440172257145,995,302,0,0,0,3,2,1,32,0003-00-0002-96.png,0002-00-0005-40.png
00000009,128,1,1440172258224,1440172258293,1052,488,0,0,0,5,4,1,54,0005-00-0008-14.png,0004-00-0001-40.png
00000009,129,0,1440172259165,1440172259173,969,467,0,0,0,3,4,1,34,0003-00-0000-90.png,0004-00-0008-79.png
00000009,130,1,1440172262413,1440172263003,964,349,0,0,0,2,1,1,21,0002-00-0007-13.png,0001-00-0003-31.png
00000009,131,0,1440172264312,1440172264376,1043,434,0,0,0,2,3,1,23,0002-00-0001-23.png,0003-00-0009-95.png
00000009,132,1,1440172267213,1440172267834,1092,306,0,0,0,3,2,1,32,0003-00-0007-51.png,0002-00-0000-43.png
00000009,133,0,1440172270582,1440172271166,991,312,0,0,0,4,5,1,45,0004-00-0007-10.png,0005-00-0000-06.png
00000009,134,1,1440172275005,1440172275797,1112,318,0,0,0,4,3,1,43,0004-00-0005-66.png,0003-00-0004-34.png
00000009,135,0,1440172277186,1440172277206,959,423,0,0,0,1,2,1,12,0001-00-0005-90.png,0002-00-0008-60.png
00000009,136,1,1440172280559,1440172281116,990,306,0,0,0,5,4,1,54,0005-00-0009-22.png,0004-00-0007-56.png
00000009,137,1,1440172282623,1440172282651,1002,470,0,0,0,5,4,1,54,0005-00-0004-60.png,0004-00-0006-79.png
00000009,138,0,1440172283909,1440172283949,1049,467,0,0,0,4,5,1,45,0004-00-0004-33.png,0005-00-0001-55.png
00000009,139,1,1440172287289,1440172287359,902,358,0,0,0,3,2,1,32,0003-00-0004-56.png,0002-00-0002-62.png
00000009,140,0,1440172289368,1440172290295,441,285,0,0,0,4,3,1,43,0004-00-0005-65.png,0003-00-0008-71.png
00000009,141,0,1440172293449,1440172293546,961,309,0,0,0,1,2,1,12,0001-00-0003-44.png,0002-00-0000-31.png
00000009,142,0,1440172297420,1440172298026,964,321,0,0,0,2,3,1,23,0002-00-0002-88.png,0003-00-0001-28.png
00000009,143,0,1440172301216,1440172301787,974,296,0,0,0,3,4,1,34,0003-00-0007-63.png,0004-00-0004-17.png
00000009,144,1,1440172305298,1440172305425,921,355,0,0,0,2,1,1,21,0002-00-0009-09.png,0001-00-0009-21.png
00000009,145,0,1440172306605,1440172306621,901,404,0,0,0,2,3,1,23,0002-00-0005-96.png,0003-00-0001-14.png
00000009,146,1,1440172311693,1440172312247,939,347,0,0,0,2,1,1,21,0002-00-0006-87.png,0001-00-0008-46.png
00000009,147,0,1440172313642,1440172313710,1027,389,0,0,0,4,5,1,45,0004-00-0000-39.png,0005-00-0002-63.png
00000009,148,0,1440172316881,1440172317508,990,306,0,0,0,3,4,1,34,0003-00-0008-95.png,0004-00-0004-67.png
00000009,149,0,1440172320387,1440172321011,427,295,0,0,0,5,4,1,54,0005-00-0000-03.png,0004-00-0009-55.png
00000009,150,1,1440172324570,1440172325126,990,375,0,0,0,4,3,1,43,0004-00-0001-51.png,0003-00-0007-48.png
00000009,151,0,1440172326532,1440172326584,990,375,0,0,0,1,2,1,12,0001-00-0007-54.png,0002-00-0009-86.png
00000009,152,1,1440172329788,1440172330708,965,296,0,0,0,3,2,1,32,0003-00-0006-98.png,0002-00-0006-04.png
00000009,153,0,1440172331579,1440172331689,1016,462,0,0,0,4,5,1,45,0004-00-0007-24.png,0005-00-0004-44.png
00000009,154,0,1440172334868,1440172335541,964,296,0,0,0,1,2,1,12,0001-00-0006-87.png,0002-00-0006-89.png
00000009,155,0,1440172338395,1440172339415,959,349,0,0,0,3,4,1,34,0003-00-0009-93.png,0004-00-0002-71.png
00000009,156,1,1440172342608,1440172343228,990,366,0,0,0,2,1,1,21,0002-00-0005-77.png,0001-00-0001-58.png
00000009,157,0,1440172344540,1440172344619,1007,410,0,0,0,2,3,1,23,0002-00-0009-57.png,0003-00-0006-86.png
00000009,158,0,1440172347767,1440172348665,323,337,0,0,0,4,3,1,43,0004-00-0001-84.png,0003-00-0001-08.png
00000009,159,1,1440172364648,1440172365265,967,332,0,0,0,5,4,1,54,0005-00-0001-92.png,0004-00-0007-66.png
00000009,160,1,1440172367326,1440172368003,968,335,0,0,0,3,2,1,32,0003-00-0001-66.png,0002-00-0008-19.png
00000009,161,1,1440172369300,1440172369377,990,344,0,0,0,5,4,1,54,0005-00-0005-94.png,0004-00-0005-20.png
00000009,162,0,1440172370464,1440172370512,940,422,0,0,0,1,2,1,12,0001-00-0007-70.png,0002-00-0000-12.png
00000009,163,1,1440172373745,1440172374286,961,313,0,0,0,4,3,1,43,0004-00-0005-20.png,0003-00-0000-26.png
00000009,164,0,1440172375654,1440172375683,907,365,0,0,0,2,3,1,23,0002-00-0006-29.png,0003-00-0001-47.png
00000009,165,0,1440172378890,1440172379408,959,301,0,0,0,4,5,1,45,0004-00-0006-45.png,0005-00-0009-11.png
00000009,166,0,1440172382640,1440172382656,875,353,0,0,0,3,4,1,34,0003-00-0008-03.png,0004-00-0004-02.png
00000009,167,1,1440172385873,1440172385894,863,356,0,0,0,3,2,1,32,0003-00-0006-94.png,0002-00-0006-64.png
00000009,168,1,1440172388342,1440172388382,967,323,0,0,0,2,1,1,21,0002-00-0005-52.png,0001-00-0009-47.png
00000009,169,0,1440172389364,1440172390979,939,375,0,0,0,2,3,1,23,0002-00-0009-81.png,0003-00-0004-31.png
00000009,170,0,1440172394580,1440172394621,862,317,0,0,0,4,5,1,45,0004-00-0005-59.png,0005-00-0002-59.png
00000009,171,1,1440172398948,1440172399475,977,296,0,0,0,3,2,1,32,0003-00-0009-50.png,0002-00-0004-76.png
00000009,172,1,1440172400636,1440172400716,982,417,0,0,0,2,1,1,21,0002-00-0005-13.png,0001-00-0007-39.png
00000009,173,0,1440172402196,1440172402264,1003,410,0,0,0,1,2,1,12,0001-00-0008-14.png,0002-00-0006-91.png
00000009,174,0,1440172405226,1440172406600,307,345,0,0,0,5,4,1,54,0005-00-0009-06.png,0004-00-0009-69.png
00000009,175,1,1440172409792,1440172410330,968,304,0,0,0,4,3,1,43,0004-00-0007-45.png,0003-00-0000-67.png
00000009,176,0,1440172411148,1440172411591,890,362,0,0,0,3,4,1,34,0003-00-0009-87.png,0004-00-0004-75.png
00000009,177,0,1440172414889,1440172415488,974,378,0,0,0,2,3,1,23,0002-00-0009-50.png,0003-00-0001-44.png
00000009,178,1,1440172418647,1440172419308,990,306,0,0,0,4,3,1,43,0004-00-0007-94.png,0003-00-0004-54.png
00000009,179,1,1440172420553,1440172420641,964,472,0,0,0,5,4,1,54,0005-00-0006-37.png,0004-00-0005-32.png
00000009,180,0,1440172421845,1440172421917,979,410,0,0,0,4,5,1,45,0004-00-0009-17.png,0005-00-0008-41.png
00000009,181,1,1440172425145,1440172425157,882,332,0,0,0,2,1,1,21,0002-00-0001-56.png,0001-00-0006-98.png
00000009,182,0,1440172426465,1440172426529,909,413,0,0,0,1,2,1,12,0001-00-0007-80.png,0002-00-0007-75.png
00000009,183,1,1440172433171,1440172434117,303,365,0,0,0,3,4,1,34,0003-00-0008-42.png,0004-00-0005-77.png
00000009,184,1,1440172435023,1440172435091,1000,436,0,0,0,3,2,1,32,0003-00-0005-67.png,0002-00-0000-58.png
00000009,185,1,1440172437082,1440172437856,990,296,0,0,0,2,1,1,21,0002-00-0008-74.png,0001-00-0003-78.png
00000009,186,0,1440172440767,1440172441812,964,384,0,0,0,4,5,1,45,0004-00-0006-25.png,0005-00-0001-04.png
00000009,187,0,1440172444841,1440172445504,964,332,0,0,0,3,4,1,34,0003-00-0006-97.png,0004-00-0003-71.png
00000009,188,0,1440172448729,1440172449652,913,369,0,0,0,1,2,1,12,0001-00-0001-29.png,0002-00-0004-39.png
00000009,189,0,1440172452839,1440172453650,275,370,0,0,0,3,2,1,32,0003-00-0008-18.png,0002-00-0008-74.png
00000009,190,1,1440172456650,1440172457999,1144,337,0,0,0,5,4,1,54,0005-00-0004-55.png,0004-00-0004-86.png
00000009,191,1,1440172460059,1440172460759,324,355,0,0,0,2,3,1,23,0002-00-0006-71.png,0003-00-0008-50.png
00000009,192,1,1440172461735,1440172461821,990,474,0,0,0,4,3,1,43,0004-00-0005-16.png,0003-00-0003-35.png
00000009,193,0,1440172463305,1440172463325,952,401,0,0,0,3,4,1,34,0003-00-0000-58.png,0004-00-0008-78.png
00000009,194,0,1440172466900,1440172467474,969,384,0,0,0,4,5,1,45,0004-00-0002-62.png,0005-00-0007-77.png
00000009,195,1,1440172470653,1440172471165,990,297,0,0,0,3,2,1,32,0003-00-0009-61.png,0002-00-0004-35.png
00000009,196,0,1440172472059,1440172472218,1016,475,0,0,0,2,3,1,23,0002-00-0006-01.png,0003-00-0002-52.png
00000009,197,1,1440172475423,1440172475515,913,358,0,0,0,2,1,1,21,0002-00-0002-58.png,0001-00-0008-98.png
00000009,198,0,1440172476574,1440172476638,976,471,0,0,0,1,2,1,12,0001-00-0007-91.png,0002-00-0007-63.png
00000009,199,1,1440172479822,1440172480455,991,304,0,0,0,4,3,1,43,0004-00-0008-90.png,0003-00-0002-00.png
00000009,200,1,1440172481877,1440172481923,857,416,0,0,0,5,4,1,54,0005-00-0000-64.png,0004-00-0005-32.png
00000009,201,0,1440172483134,1440172483138,873,376,0,0,0,1,2,1,12,0001-00-0001-53.png,0002-00-0001-98.png
00000009,202,0,1440172486301,1440172487712,301,383,0,0,0,5,4,1,54,0005-00-0003-21.png,0004-00-0005-93.png
00000009,203,0,1440172490826,1440172491889,933,365,0,0,0,2,3,1,23,0002-00-0009-99.png,0003-00-0009-38.png
00000009,204,0,1440172494995,1440172495677,964,358,0,0,0,3,4,1,34,0003-00-0008-33.png,0004-00-0006-47.png
00000009,205,1,1440172498509,1440172498569,862,384,0,0,0,4,3,1,43,0004-00-0002-14.png,0003-00-0002-47.png
00000009,206,1,1440172500483,1440172500577,990,425,0,0,0,2,1,1,21,0002-00-0003-19.png,0001-00-0006-35.png
00000009,207,1,1440172501778,1440172501854,1026,439,0,0,0,3,2,1,32,0003-00-0009-21.png,0002-00-0007-71.png
00000009,208,0,1440172503256,1440172503329,992,421,0,0,0,4,5,1,45,0004-00-0004-80.png,0005-00-0001-04.png
00000009,209,1,1440172506558,1440172506582,875,358,0,0,0,5,4,1,54,0005-00-0006-16.png,0004-00-0005-32.png
00000009,210,1,1440172507448,1440172507559,883,446,0,0,0,4,3,1,43,0004-00-0005-46.png,0003-00-0006-42.png
00000009,211,1,1440172509148,1440172510205,964,410,0,0,0,3,2,1,32,0003-00-0005-96.png,0002-00-0005-49.png
00000009,212,1,1440172511154,1440172511238,1041,504,0,0,0,2,1,1,21,0002-00-0008-73.png,0001-00-0000-60.png
00000009,213,0,1440172513571,1440172514240,1124,311,0,0,0,4,5,1,45,0004-00-0002-21.png,0005-00-0003-88.png
00000009,214,0,1440172517500,1440172517544,869,361,0,0,0,2,3,1,23,0002-00-0005-20.png,0003-00-0001-97.png
00000009,215,0,1440172520749,1440172520769,907,352,0,0,0,3,4,1,34,0003-00-0002-81.png,0004-00-0006-15.png
00000009,216,0,1440172523991,1440172524568,1015,308,0,0,0,1,2,1,12,0001-00-0000-48.png,0002-00-0002-81.png
00000009,217,0,1440172527792,1440172528773,964,367,0,0,0,2,3,1,23,0002-00-0009-99.png,0003-00-0004-74.png
00000009,218,1,1440172532278,1440172533155,957,361,0,0,0,4,3,1,43,0004-00-0004-61.png,0003-00-0005-94.png
00000009,219,1,1440172534177,1440172534261,1041,479,0,0,0,5,4,1,54,0005-00-0004-26.png,0004-00-0006-92.png
00000009,220,0,1440172536064,1440172536108,1004,463,0,0,0,3,4,1,34,0003-00-0005-48.png,0004-00-0002-17.png
00000009,221,1,1440172539186,1440172539842,959,374,0,0,0,2,1,1,21,0002-00-0003-11.png,0001-00-0008-62.png
00000009,222,1,1440172541174,1440172541250,1030,410,0,0,0,3,2,1,32,0003-00-0001-70.png,0002-00-0006-90.png
00000009,223,0,1440172542542,1440172542562,889,344,0,0,0,1,2,1,12,0001-00-0000-06.png,0002-00-0003-81.png
00000009,224,0,1440172554142,1440172554702,989,272,0,0,0,4,5,1,45,0004-00-0008-85.png,0005-00-0002-62.png
00000009,225,1,1440172558657,1440172559245,941,407,0,0,0,5,4,1,54,0005-00-0007-41.png,0004-00-0009-86.png
00000009,226,0,1440172560233,1440172560338,990,447,0,0,0,4,5,1,45,0004-00-0003-94.png,0005-00-0007-82.png
00000009,227,1,1440172563602,1440172563642,888,320,0,0,0,4,3,1,43,0004-00-0006-48.png,0003-00-0002-88.png
00000009,228,1,1440172564567,1440172564695,964,475,0,0,0,3,2,1,32,0003-00-0000-66.png,0002-00-0000-64.png
00000009,229,0,1440172567170,1440172567803,999,404,0,0,0,1,2,1,12,0001-00-0003-46.png,0002-00-0003-66.png
00000009,230,0,1440172570966,1440172571821,978,306,0,0,0,2,3,1,23,0002-00-0002-23.png,0003-00-0006-57.png
00000009,231,0,1440172575118,1440172575147,862,291,0,0,0,3,4,1,34,0003-00-0005-00.png,0004-00-0005-61.png
00000009,232,1,1440172578277,1440172578898,1030,358,0,0,0,2,1,1,21,0002-00-0005-79.png,0001-00-0009-43.png
00000009,233,1,1440172581800,1440172582366,1037,305,0,0,0,4,3,1,43,0004-00-0007-42.png,0003-00-0003-44.png
00000009,234,1,1440172583339,1440172583442,989,395,0,0,0,2,1,1,21,0002-00-0004-68.png,0001-00-0006-33.png
00000009,235,0,1440172586407,1440172587256,965,384,0,0,0,2,3,1,23,0002-00-0003-20.png,0003-00-0008-63.png
00000009,236,1,1440172590446,1440172590490,927,306,0,0,0,5,4,1,54,0005-00-0002-35.png,0004-00-0006-37.png
00000009,237,0,1440172591490,1440172591583,964,448,0,0,0,3,4,1,34,0003-00-0005-49.png,0004-00-0005-14.png
00000009,238,0,1440172595202,1440172595831,983,390,0,0,0,1,2,1,12,0001-00-0004-48.png,0002-00-0004-33.png
00000009,239,0,1440172599101,1440172599697,975,358,0,0,0,4,5,1,45,0004-00-0000-30.png,0005-00-0009-89.png
00000009,240,1,1440172602649,1440172603917,959,363,0,0,0,3,2,1,32,0003-00-0005-13.png,0002-00-0005-05.png
00000009,241,1,1440172605162,1440172605251,1008,455,0,0,0,2,1,1,21,0002-00-0005-19.png,0001-00-0003-00.png
00000009,242,1,1440172606446,1440172606522,872,353,0,0,0,4,3,1,43,0004-00-0003-61.png,0003-00-0000-73.png
00000009,243,0,1440172608028,1440172608120,866,386,0,0,0,3,4,1,34,0003-00-0001-42.png,0004-00-0000-59.png
00000009,244,0,1440172611287,1440172611313,946,442,0,0,0,2,3,1,23,0002-00-0006-92.png,0003-00-0006-31.png
00000009,245,1,1440172614709,1440172615359,964,306,0,0,0,3,2,1,32,0003-00-0006-12.png,0002-00-0000-91.png
00000009,246,0,1440172616666,1440172616718,968,428,0,0,0,4,5,1,45,0004-00-0003-53.png,0005-00-0006-00.png
00000009,247,1,1440172619786,1440172620424,964,347,0,0,0,5,4,1,54,0005-00-0008-53.png,0004-00-0000-85.png
00000009,248,0,1440172621597,1440172621661,964,426,0,0,0,1,2,1,12,0001-00-0009-79.png,0002-00-0000-92.png
00000009,249,1,1440172624867,1440172625911,429,300,0,0,0,2,3,1,23,0002-00-0000-57.png,0003-00-0002-87.png
00000009,250,1,1440172627080,1440172627156,880,377,0,0,0,3,2,1,32,0003-00-0005-72.png,0002-00-0009-13.png
00000009,251,1,1440172628255,1440172628323,1016,436,0,0,0,4,3,1,43,0004-00-0002-53.png,0003-00-0008-17.png
00000009,252,1,1440172629733,1440172629801,1028,450,0,0,0,2,1,1,21,0002-00-0009-93.png,0001-00-0000-96.png
00000009,253,0,1440172631393,1440172631433,1012,465,0,0,0,1,2,1,12,0001-00-0007-12.png,0002-00-0001-69.png
00000009,254,1,1440172634624,1440172635442,445,270,0,0,0,3,4,1,34,0003-00-0009-93.png,0004-00-0000-57.png
00000009,255,1,1440172636272,1440172638033,964,335,0,0,0,5,4,1,54,0005-00-0008-97.png,0004-00-0003-10.png
00000009,256,0,1440172639008,1440172639085,1005,410,0,0,0,4,5,1,45,0004-00-0000-18.png,0005-00-0008-29.png
00000009,257,1,1440172642315,1440172642921,971,377,0,0,0,3,2,1,32,0003-00-0008-80.png,0002-00-0003-59.png
00000009,258,1,1440172644038,1440172645558,964,395,0,0,0,2,1,1,21,0002-00-0000-59.png,0001-00-0002-96.png
00000009,259,0,1440172648472,1440172649075,962,352,0,0,0,1,2,1,12,0001-00-0003-04.png,0002-00-0000-49.png
00000009,260,1,1440172652208,1440172652718,966,308,0,0,0,4,3,1,43,0004-00-0001-09.png,0003-00-0009-16.png
00000009,261,1,1440172653814,1440172653873,948,429,0,0,0,5,4,1,54,0005-00-0003-98.png,0004-00-0003-55.png
00000009,262,0,1440172654748,1440172654824,921,426,0,0,0,3,4,1,34,0003-00-0002-39.png,0004-00-0007-24.png
00000009,263,0,1440172658375,1440172658900,962,285,0,0,0,4,5,1,45,0004-00-0004-75.png,0005-00-0002-09.png
00000009,264,0,1440172662060,1440172662682,1134,306,0,0,0,2,3,1,23,0002-00-0008-47.png,0003-00-0007-92.png
00000009,265,0,1440172665563,1440172666395,919,305,0,0,0,1,2,1,12,0001-00-0008-14.png,0002-00-0004-67.png
00000009,266,0,1440172669767,1440172669850,926,332,0,0,0,4,5,1,45,0004-00-0003-04.png,0005-00-0009-15.png
00000009,267,0,1440172673096,1440172674113,484,282,0,0,0,5,4,1,54,0005-00-0000-22.png,0004-00-0006-41.png
00000009,268,0,1440172677339,1440172677387,875,335,0,0,0,3,4,1,34,0003-00-0001-58.png,0004-00-0005-23.png
00000009,269,1,1440172681404,1440172681988,968,294,0,0,0,4,3,1,43,0004-00-0008-86.png,0003-00-0002-60.png
00000009,270,0,1440172683230,1440172683310,955,444,0,0,0,2,3,1,23,0002-00-0009-39.png,0003-00-0008-59.png
00000009,271,1,1440172686623,1440172687167,971,343,0,0,0,2,1,1,21,0002-00-0004-34.png,0001-00-0004-39.png
00000009,272,1,1440172688261,1440172688349,982,456,0,0,0,3,2,1,32,0003-00-0008-32.png,0002-00-0009-03.png
00000009,273,0,1440172689582,1440172689639,994,409,0,0,0,2,3,1,23,0002-00-0002-94.png,0003-00-0000-34.png
00000009,274,0,1440172692694,1440172692710,865,415,0,0,0,4,5,1,45,0004-00-0000-92.png,0005-00-0008-34.png
00000009,275,1,1440172695742,1440172695802,885,330,0,0,0,4,3,1,43,0004-00-0009-28.png,0003-00-0002-90.png
00000009,276,1,1440172696643,1440172696754,888,410,0,0,0,3,2,1,32,0003-00-0007-03.png,0002-00-0001-76.png
00000009,277,0,1440172697880,1440172697920,917,405,0,0,0,3,4,1,34,0003-00-0008-81.png,0004-00-0007-04.png
00000009,278,0,1440172700920,1440172701479,958,367,0,0,0,1,2,1,12,0001-00-0006-45.png,0002-00-0007-17.png
00000009,279,1,1440172704327,1440172705109,964,344,0,0,0,2,1,1,21,0002-00-0004-48.png,0001-00-0005-60.png
00000009,280,1,1440172706173,1440172706274,946,476,0,0,0,5,4,1,54,0005-00-0004-49.png,0004-00-0007-60.png
00000009,281,0,1440172708494,1440172709410,990,290,0,0,0,2,3,1,23,0002-00-0000-85.png,0003-00-0006-18.png
00000009,282,1,1440172712249,1440172713015,1118,274,0,0,0,4,3,1,43,0004-00-0006-97.png,0003-00-0008-48.png
00000009,283,1,1440172713847,1440172713937,916,428,0,0,0,3,2,1,32,0003-00-0001-63.png,0002-00-0008-42.png
00000009,284,0,1440172714993,1440172715184,990,462,0,0,0,4,5,1,45,0004-00-0003-49.png,0005-00-0005-71.png
00000009,285,1,1440172718782,1440172719377,964,373,0,0,0,2,1,1,21,0002-00-0009-17.png,0001-00-0009-68.png
00000009,286,0,1440172720487,1440172720601,964,451,0,0,0,3,4,1,34,0003-00-0008-32.png,0004-00-0003-70.png
00000009,287,1,1440172723691,1440172724939,964,304,0,0,0,5,4,1,54,0005-00-0007-47.png,0004-00-0009-28.png
00000009,288,0,1440172725834,1440172725945,977,424,0,0,0,1,2,1,12,0001-00-0000-83.png,0002-00-0000-85.png
00000009,289,0,1440172729098,1440172729154,890,286,0,0,0,3,4,1,34,0003-00-0008-51.png,0004-00-0007-57.png
00000009,290,0,1440172732323,1440172732861,1015,280,0,0,0,1,2,1,12,0001-00-0003-08.png,0002-00-0005-99.png
00000009,291,1,1440172736223,1440172736295,913,279,0,0,0,3,2,1,32,0003-00-0007-21.png,0002-00-0009-76.png
00000009,292,1,1440172737277,1440172739236,989,304,0,0,0,2,1,1,21,0002-00-0004-09.png,0001-00-0009-99.png
00000009,293,1,1440172740394,1440172740535,1005,462,0,0,0,5,4,1,54,0005-00-0006-01.png,0004-00-0004-37.png
00000009,294,0,1440172741612,1440172741794,990,479,0,0,0,2,3,1,23,0002-00-0006-05.png,0003-00-0009-82.png
00000009,295,1,1440172744881,1440172745435,1092,279,0,0,0,4,3,1,43,0004-00-0004-06.png,0003-00-0007-42.png
00000009,296,0,1440172746357,1440172748209,982,392,0,0,0,4,5,1,45,0004-00-0002-64.png,0005-00-0008-00.png
00000009,297,0,1440172751335,1440172752352,964,371,0,0,0,1,2,1,12,0001-00-0008-06.png,0002-00-0005-32.png
00000009,298,1,1440172755549,1440172756181,964,343,0,0,0,3,2,1,32,0003-00-0008-18.png,0002-00-0000-70.png
00000009,299,0,1440172757413,1440172757479,924,452,0,0,0,2,3,1,23,0002-00-0004-76.png,0003-00-0005-85.png
00000009,300,0,1440172760711,1440172761414,955,358,0,0,0,3,4,1,34,0003-00-0002-04.png,0004-00-0005-14.png
00000009,301,0,1440172764645,1440172765317,338,343,0,0,0,5,4,1,54,0005-00-0009-11.png,0004-00-0009-88.png
00000009,302,1,1440172768522,1440172769078,990,315,0,0,0,2,1,1,21,0002-00-0006-13.png,0001-00-0001-05.png
00000009,303,1,1440172770293,1440172770398,943,449,0,0,0,4,3,1,43,0004-00-0000-99.png,0003-00-0003-39.png
00000009,304,0,1440172773740,1440172774313,1133,261,0,0,0,4,5,1,45,0004-00-0008-01.png,0005-00-0009-66.png
00000009,305,1,1440172777588,1440172778194,948,353,0,0,0,5,4,1,54,0005-00-0004-15.png,0004-00-0000-80.png
00000009,306,1,1440172779026,1440172780706,347,372,0,0,0,3,4,1,34,0003-00-0006-78.png,0004-00-0004-34.png
00000009,307,1,1440172781592,1440172781691,962,415,0,0,0,3,2,1,32,0003-00-0007-30.png,0002-00-0005-16.png
00000009,308,1,1440172783354,1440172783416,951,462,0,0,0,2,1,1,21,0002-00-0007-25.png,0001-00-0003-21.png
00000009,309,0,1440172784464,1440172784537,939,400,0,0,0,1,2,1,12,0001-00-0002-41.png,0002-00-0009-88.png
00000009,310,1,1440172787685,1440172788271,990,279,0,0,0,4,3,1,43,0004-00-0001-97.png,0003-00-0002-06.png
00000009,311,0,1440172789558,1440172789793,965,546,0,0,0,2,3,1,23,0002-00-0005-18.png,0003-00-0007-08.png
00000009,312,0,1440172792724,1440172792747,882,414,0,0,0,4,5,1,45,0004-00-0008-21.png,0005-00-0009-17.png
00000009,313,1,1440172795662,1440172796351,353,343,0,0,0,4,5,1,45,0004-00-0006-70.png,0005-00-0007-86.png
00000009,314,0,1440172797550,1440172798829,484,253,0,0,0,2,1,1,21,0002-00-0007-34.png,0001-00-0006-66.png
00000009,315,0,1440172801721,1440172801761,888,384,0,0,0,1,2,1,12,0001-00-0001-30.png,0002-00-0001-13.png
00000009,316,0,1440172804973,1440172805601,1000,373,0,0,0,3,4,1,34,0003-00-0006-19.png,0004-00-0008-03.png
00000009,317,1,1440172809185,1440172809825,454,281,0,0,0,2,3,1,23,0002-00-0009-06.png,0003-00-0000-63.png
00000009,318,1,1440172810704,1440172810795,898,446,0,0,0,4,3,1,43,0004-00-0007-81.png,0003-00-0006-63.png
00000009,319,1,1440172812006,1440172812121,913,419,0,0,0,3,2,1,32,0003-00-0006-74.png,0002-00-0002-30.png
00000009,320,0,1440172813466,1440172814670,472,289,0,0,0,5,4,1,54,0005-00-0008-48.png,0004-00-0001-50.png
00000009,321,0,1440172817702,1440172817818,889,354,0,0,0,1,2,1,12,0001-00-0005-87.png,0002-00-0003-96.png
00000009,322,1,1440172821013,1440172821566,964,375,0,0,0,2,1,1,21,0002-00-0002-93.png,0001-00-0005-86.png
00000009,323,1,1440172822501,1440172823970,976,306,0,0,0,4,3,1,43,0004-00-0004-26.png,0003-00-0006-23.png
00000009,324,0,1440172825006,1440172825125,972,439,0,0,0,4,5,1,45,0004-00-0007-53.png,0005-00-0003-19.png
00000009,325,0,1440172828462,1440172828530,913,306,0,0,0,3,4,1,34,0003-00-0009-18.png,0004-00-0000-26.png
00000009,326,0,1440172831765,1440172831789,871,314,0,0,0,2,3,1,23,0002-00-0004-17.png,0003-00-0003-55.png
00000009,327,1,1440172835004,1440172835615,971,322,0,0,0,5,4,1,54,0005-00-0003-02.png,0004-00-0004-47.png
00000009,328,1,1440172837167,1440172837259,965,417,0,0,0,3,2,1,32,0003-00-0005-74.png,0002-00-0008-57.png
00000009,329,1,1440172838379,1440172838479,915,437,0,0,0,4,3,1,43,0004-00-0006-42.png,0003-00-0001-50.png
00000009,330,1,1440172839514,1440172839606,922,409,0,0,0,5,4,1,54,0005-00-0000-69.png,0004-00-0007-15.png
00000009,331,0,1440172840668,1440172840737,918,403,0,0,0,4,5,1,45,0004-00-0008-75.png,0005-00-0002-63.png
00000009,332,0,1440172844106,1440172844206,938,284,0,0,0,2,3,1,23,0002-00-0005-79.png,0003-00-0007-02.png
00000009,333,0,1440172847398,1440172848290,988,253,0,0,0,1,2,1,12,0001-00-0005-70.png,0002-00-0005-59.png
00000009,334,0,1440172851482,1440172851770,862,385,0,0,0,3,4,1,34,0003-00-0009-02.png,0004-00-0001-72.png
00000009,335,1,1440172854940,1440172855582,1143,306,0,0,0,2,1,1,21,0002-00-0006-92.png,0001-00-0004-78.png
00000009,336,1,1440172857703,1440172858330,989,298,0,0,0,3,2,1,32,0003-00-0000-66.png,0002-00-0001-80.png
00000009,337,1,1440172859210,1440172859474,963,488,0,0,0,5,4,1,54,0005-00-0008-86.png,0004-00-0002-04.png
00000009,338,0,1440172860334,1440172860398,928,371,0,0,0,1,2,1,12,0001-00-0004-95.png,0002-00-0001-36.png
00000009,339,1,1440172863466,1440172864248,339,349,0,0,0,2,3,1,23,0002-00-0001-27.png,0003-00-0009-59.png
00000009,340,0,1440172865453,1440172866567,1118,332,0,0,0,3,4,1,34,0003-00-0008-29.png,0004-00-0009-62.png
00000009,341,1,1440172870116,1440172870648,975,298,0,0,0,4,3,1,43,0004-00-0006-67.png,0003-00-0002-87.png
00000009,342,1,1440172871497,1440172873690,939,347,0,0,0,2,1,1,21,0002-00-0001-14.png,0001-00-0003-44.png
00000009,343,0,1440172874548,1440172875921,972,295,0,0,0,4,5,1,45,0004-00-0001-79.png,0005-00-0007-20.png
00000009,344,1,1440172878890,1440172879666,935,295,0,0,0,3,2,1,32,0003-00-0002-36.png,0002-00-0000-51.png
00000009,345,1,1440172881337,1440172881965,964,294,0,0,0,3,2,1,32,0003-00-0006-60.png,0002-00-0002-52.png
00000009,346,1,1440172882924,1440172882984,963,441,0,0,0,2,1,1,21,0002-00-0009-36.png,0001-00-0002-04.png
00000009,347,0,1440172883901,1440172883945,923,413,0,0,0,1,2,1,12,0001-00-0008-07.png,0002-00-0007-18.png
00000009,348,1,1440172886870,1440172887711,477,258,0,0,0,2,3,1,23,0002-00-0006-01.png,0003-00-0009-26.png
00000009,349,0,1440172888777,1440172888884,934,467,0,0,0,3,4,1,34,0003-00-0002-99.png,0004-00-0004-18.png
00000009,350,1,1440172892464,1440172893063,964,393,0,0,0,4,3,1,43,0004-00-0006-45.png,0003-00-0007-33.png
00000009,351,1,1440172893894,1440172895431,964,347,0,0,0,5,4,1,54,0005-00-0007-07.png,0004-00-0002-28.png
00000009,352,0,1440172896251,1440172896396,967,466,0,0,0,4,5,1,45,0004-00-0006-63.png,0005-00-0008-86.png
00000009,353,0,1440172899937,1440172900588,989,308,0,0,0,3,4,1,34,0003-00-0002-22.png,0004-00-0006-18.png
00000009,354,0,1440172903814,1440172904524,1019,285,0,0,0,1,2,1,12,0001-00-0009-51.png,0002-00-0004-58.png
00000009,355,1,1440172907762,1440172907770,880,329,0,0,0,3,2,1,32,0003-00-0006-58.png,0002-00-0006-49.png
00000009,356,1,1440172908801,1440172908861,888,449,0,0,0,4,3,1,43,0004-00-0006-43.png,0003-00-0005-37.png
00000009,357,1,1440172909977,1440172910042,868,418,0,0,0,5,4,1,54,0005-00-0008-17.png,0004-00-0009-60.png
00000009,358,1,1440172911185,1440172911237,880,429,0,0,0,2,1,1,21,0002-00-0009-45.png,0001-00-0004-87.png
00000009,359,0,1440172912638,1440172912726,871,468,0,0,0,4,5,1,45,0004-00-0002-73.png,0005-00-0008-59.png
00000009,360,0,1440172916243,1440172916853,968,401,0,0,0,2,3,1,23,0002-00-0003-20.png,0003-00-0001-76.png
00000009,361,1,1440172920063,1440172921352,322,356,0,0,0,3,4,1,34,0003-00-0000-02.png,0004-00-0008-56.png
00000009,362,0,1440172922250,1440172922326,898,507,0,0,0,2,3,1,23,0002-00-0005-92.png,0003-00-0008-72.png
00000009,363,1,1440172925197,1440172926319,949,336,0,0,0,5,4,1,54,0005-00-0001-18.png,0004-00-0002-39.png
00000009,364,0,1440172928112,1440172929174,990,358,0,0,0,4,5,1,45,0004-00-0009-48.png,0005-00-0002-26.png
00000009,365,1,1440172932347,1440172932391,865,335,0,0,0,2,1,1,21,0002-00-0005-97.png,0001-00-0000-36.png
00000009,366,1,1440172933259,1440172935086,444,300,0,0,0,1,2,1,12,0001-00-0007-84.png,0002-00-0002-56.png
00000009,367,1,1440172937333,1440172937882,942,317,0,0,0,4,3,1,43,0004-00-0001-26.png,0003-00-0002-06.png
00000009,368,1,1440172938731,1440172939068,999,561,0,0,0,3,2,1,32,0003-00-0002-70.png,0002-00-0006-35.png
00000009,369,1,1440172940166,1440172940222,953,446,0,0,0,4,3,1,43,0004-00-0006-54.png,0003-00-0002-92.png
00000009,370,0,1440172941433,1440172941518,955,462,0,0,0,4,5,1,45,0004-00-0002-27.png,0005-00-0008-99.png
00000009,371,0,1440172944749,1440172945403,958,367,0,0,0,3,4,1,34,0003-00-0004-63.png,0004-00-0001-44.png
00000009,372,0,1440172948555,1440172949797,427,267,0,0,0,5,4,1,54,0005-00-0003-42.png,0004-00-0009-56.png
00000009,373,1,1440172952967,1440172953518,1143,306,0,0,0,2,1,1,21,0002-00-0002-70.png,0001-00-0001-90.png
00000009,374,1,1440172954693,1440172956782,305,344,0,0,0,2,3,1,23,0002-00-0001-07.png,0003-00-0008-45.png
00000009,375,1,1440172957933,1440172959374,942,313,0,0,0,3,2,1,32,0003-00-0000-92.png,0002-00-0000-85.png
00000009,376,0,1440172960948,1440172961028,913,370,0,0,0,1,2,1,12,0001-00-0001-80.png,0002-00-0001-63.png
00000009,377,0,1440172963857,1440172964693,939,374,0,0,0,3,4,1,34,0003-00-0004-66.png,0004-00-0003-02.png
00000009,378,1,1440172967943,1440172968107,990,335,0,0,0,4,3,1,43,0004-00-0000-42.png,0003-00-0005-79.png
00000009,379,0,1440172969116,1440172969219,964,488,0,0,0,2,3,1,23,0002-00-0004-39.png,0003-00-0003-15.png
00000009,380,1,1440172972435,1440172972503,888,320,0,0,0,3,2,1,32,0003-00-0002-69.png,0002-00-0002-04.png
00000009,381,1,1440172973546,1440172974688,378,388,0,0,0,1,2,1,12,0001-00-0009-91.png,0002-00-0003-87.png
00000009,382,0,1440172975671,1440172975800,939,488,0,0,0,4,5,1,45,0004-00-0002-09.png,0005-00-0005-52.png
00000009,383,1,1440172979331,1440172979899,964,401,0,0,0,2,1,1,21,0002-00-0000-60.png,0001-00-0004-23.png
00000009,384,1,1440172981524,1440172981643,939,419,0,0,0,5,4,1,54,0005-00-0003-94.png,0004-00-0007-39.png
00000009,385,0,1440172983035,1440172984151,942,406,0,0,0,4,5,1,45,0004-00-0006-02.png,0005-00-0004-93.png
00000009,386,1,1440172987660,1440172988294,990,294,0,0,0,3,2,1,32,0003-00-0005-10.png,0002-00-0002-90.png
00000009,387,1,1440172989436,1440172989541,955,488,0,0,0,4,3,1,43,0004-00-0003-26.png,0003-00-0001-81.png
00000009,388,0,1440172991204,1440172991284,949,384,0,0,0,1,2,1,12,0001-00-0006-60.png,0002-00-0001-75.png
00000009,389,0,1440172994586,1440172994594,913,306,0,0,0,2,3,1,23,0002-00-0007-98.png,0003-00-0009-64.png
00000009,390,0,1440172997900,1440172998881,455,256,0,0,0,5,4,1,54,0005-00-0002-67.png,0004-00-0005-71.png
00000009,391,0,1440173002130,1440173002154,862,306,0,0,0,3,4,1,34,0003-00-0000-59.png,0004-00-0001-62.png
00000009,392,0,1440173005259,1440173006250,342,307,0,0,0,2,1,1,21,0002-00-0005-63.png,0001-00-0001-23.png
00000009,393,1,1440173009253,1440173009927,1008,333,0,0,0,3,2,1,32,0003-00-0001-57.png,0002-00-0009-78.png
00000009,394,0,1440173011372,1440173011428,885,356,0,0,0,1,2,1,12,0001-00-0001-80.png,0002-00-0004-29.png
00000009,395,0,1440173014648,1440173015253,990,367,0,0,0,2,3,1,23,0002-00-0002-76.png,0003-00-0002-57.png
00000009,396,0,1440173018426,1440173018466,909,301,0,0,0,4,5,1,45,0004-00-0005-30.png,0005-00-0007-03.png
00000009,397,1,1440173021637,1440173022208,985,375,0,0,0,5,4,1,54,0005-00-0004-63.png,0004-00-0000-67.png
00000009,398,0,1440173023044,1440173024312,414,410,0,0,0,4,3,1,43,0004-00-0000-56.png,0003-00-0003-14.png
00000009,399,1,1440173028321,1440173028987,1108,281,0,0,0,2,1,1,21,0002-00-0008-26.png,0001-00-0008-88.png
00000009,400,0,1440173029822,1440173029950,897,462,0,0,0,3,4,1,34,0003-00-0003-54.png,0004-00-0001-30.png
00000009,401,1,1440173033171,1440173033215,882,336,0,0,0,3,2,1,32,0003-00-0001-76.png,0002-00-0007-36.png
00000009,402,1,1440173034215,1440173034286,891,446,0,0,0,2,1,1,21,0002-00-0004-61.png,0001-00-0002-04.png
00000009,403,0,1440173035118,1440173035202,882,362,0,0,0,1,2,1,12,0001-00-0002-90.png,0002-00-0000-23.png
00000009,404,0,1440173038412,1440173038488,913,294,0,0,0,2,3,1,23,0002-00-0000-00.png,0003-00-0001-43.png
00000009,405,1,1440173041719,1440173042302,963,281,0,0,0,5,4,1,54,0005-00-0002-15.png,0004-00-0006-02.png
00000009,406,0,1440173043956,1440173044057,887,360,0,0,0,3,4,1,34,0003-00-0001-18.png,0004-00-0006-48.png
00000009,407,1,1440173047298,1440173047965,438,270,0,0,0,4,5,1,45,0004-00-0007-29.png,0005-00-0004-18.png
00000009,408,1,1440173049881,1440173050547,1016,332,0,0,0,4,3,1,43,0004-00-0008-37.png,0003-00-0001-26.png
00000009,409,0,1440173051987,1440173052876,481,270,0,0,0,2,1,1,21,0002-00-0008-07.png,0001-00-0006-19.png
00000009,410,0,1440173056488,1440173056993,967,302,0,0,0,3,4,1,34,0003-00-0001-25.png,0004-00-0004-07.png
00000009,411,1,1440173060176,1440173061209,313,384,0,0,0,1,2,1,12,0001-00-0003-94.png,0002-00-0000-54.png
00000009,412,0,1440173063088,1440173063801,942,313,0,0,0,4,5,1,45,0004-00-0002-81.png,0005-00-0008-34.png
00000009,413,1,1440173067358,1440173067972,1128,332,0,0,0,5,4,1,54,0005-00-0004-03.png,0004-00-0003-54.png
00000009,414,1,1440173068868,1440173070271,439,253,0,0,0,2,3,1,23,0002-00-0002-81.png,0003-00-0008-58.png
00000009,415,1,1440173071811,1440173072038,939,436,0,0,0,3,2,1,32,0003-00-0008-68.png,0002-00-0007-79.png
00000009,416,1,1440173073008,1440173073169,907,463,0,0,0,4,3,1,43,0004-00-0002-22.png,0003-00-0001-40.png
00000009,417,0,1440173074763,1440173075858,449,287,0,0,0,4,3,1,43,0004-00-0008-33.png,0003-00-0004-36.png
00000009,418,0,1440173078848,1440173078868,879,399,0,0,0,4,5,1,45,0004-00-0009-63.png,0005-00-0004-91.png
00000009,419,1,1440173082118,1440173082674,989,304,0,0,0,2,1,1,21,0002-00-0009-64.png,0001-00-0008-20.png
00000009,420,0,1440173084441,1440173085140,336,358,0,0,0,5,4,1,54,0005-00-0007-88.png,0004-00-0007-59.png
00000009,421,0,1440173088357,1440173088909,1006,410,0,0,0,2,3,1,23,0002-00-0003-20.png,0003-00-0001-44.png
00000009,422,1,1440173092116,1440173092832,301,376,0,0,0,1,2,1,12,0001-00-0009-37.png,0002-00-0008-66.png
00000009,423,0,1440173094403,1440173095408,964,398,0,0,0,3,4,1,34,0003-00-0006-64.png,0004-00-0009-54.png
00000009,424,1,1440173098615,1440173098724,954,306,0,0,0,3,2,1,32,0003-00-0001-40.png,0002-00-0009-90.png
00000009,425,0,1440173099650,1440173099763,884,438,0,0,0,3,4,1,34,0003-00-0004-38.png,0004-00-0002-52.png
00000009,426,0,1440173103722,1440173104294,990,400,0,0,0,1,2,1,12,0001-00-0004-61.png,0002-00-0002-53.png
00000009,427,1,1440173107482,1440173107518,862,329,0,0,0,3,2,1,32,0003-00-0006-68.png,0002-00-0003-83.png
00000009,428,0,1440173108442,1440173108574,913,488,0,0,0,4,5,1,45,0004-00-0007-74.png,0005-00-0005-07.png
00000009,429,1,1440173111815,1440173112465,989,271,0,0,0,2,1,1,21,0002-00-0009-99.png,0001-00-0006-68.png
00000009,430,0,1440173114373,1440173115150,478,253,0,0,0,4,3,1,43,0004-00-0005-56.png,0003-00-0007-60.png
00000009,431,1,1440173118329,1440173118377,888,318,0,0,0,5,4,1,54,0005-00-0001-68.png,0004-00-0007-00.png
00000009,432,0,1440173119293,1440173119419,917,433,0,0,0,2,3,1,23,0002-00-0002-90.png,0003-00-0000-98.png
00000009,433,0,1440173127049,1440173127057,900,328,0,0,0,3,4,1,34,0003-00-0005-21.png,0004-00-0005-64.png
00000009,434,1,1440173130201,1440173130700,1025,294,0,0,0,2,1,1,21,0002-00-0001-90.png,0001-00-0008-55.png
00000009,435,1,1440173131641,1440173131717,943,445,0,0,0,4,3,1,43,0004-00-0000-84.png,0003-00-0003-08.png
00000009,436,0,1440173132763,1440173132803,896,377,0,0,0,1,2,1,12,0001-00-0000-60.png,0002-00-0008-64.png
00000009,437,1,1440173136216,1440173136753,939,367,0,0,0,3,2,1,32,0003-00-0000-70.png,0002-00-0003-01.png
00000009,438,0,1440173137630,1440173137681,951,465,0,0,0,4,5,1,45,0004-00-0008-82.png,0005-00-0006-70.png
00000009,439,0,1440173140861,1440173141408,1158,332,0,0,0,2,3,1,23,0002-00-0006-37.png,0003-00-0001-48.png
00000009,440,1,1440173144749,1440173145394,990,394,0,0,0,5,4,1,54,0005-00-0002-88.png,0004-00-0003-57.png
00000009,441,0,1440173146264,1440173146336,939,445,0,0,0,2,3,1,23,0002-00-0008-34.png,0003-00-0001-96.png
00000009,442,1,1440173149340,1440173149885,996,295,0,0,0,2,1,1,21,0002-00-0000-15.png,0001-00-0000-77.png
00000009,443,1,1440173150758,1440173150806,941,424,0,0,0,5,4,1,54,0005-00-0000-77.png,0004-00-0007-38.png
00000009,444,1,1440173152202,1440173152411,939,488,0,0,0,3,2,1,32,0003-00-0004-79.png,0002-00-0001-62.png
00000009,445,0,1440173153542,1440173153618,934,409,0,0,0,3,4,1,34,0003-00-0004-88.png,0004-00-0005-11.png
00000009,446,1,1440173156831,1440173157378,967,301,0,0,0,4,3,1,43,0004-00-0008-74.png,0003-00-0005-06.png
00000009,447,0,1440173159190,1440173159985,964,358,0,0,0,1,2,1,12,0001-00-0004-59.png,0002-00-0004-39.png
00000009,448,0,1440173163038,1440173163634,974,284,0,0,0,4,5,1,45,0004-00-0006-41.png,0005-00-0001-57.png
00000009,449,0,1440173166900,1440173167614,340,410,0,0,0,2,1,1,21,0002-00-0007-17.png,0001-00-0006-59.png
00000009,450,1,1440173171060,1440173171628,1158,336,0,0,0,3,2,1,32,0003-00-0007-84.png,0002-00-0008-09.png
00000009,451,0,1440173173729,1440173174403,984,375,0,0,0,3,4,1,34,0003-00-0001-38.png,0004-00-0003-33.png
00000009,452,1,1440173178541,1440173179449,504,253,0,0,0,4,5,1,45,0004-00-0005-05.png,0005-00-0000-73.png
00000009,453,0,1440173180365,1440173180452,888,448,0,0,0,2,3,1,23,0002-00-0008-77.png,0003-00-0009-60.png
00000009,454,0,1440173183681,1440173184232,976,299,0,0,0,1,2,1,12,0001-00-0007-92.png,0002-00-0005-08.png
00000009,455,1,1440173187421,1440173188006,937,391,0,0,0,5,4,1,54,0005-00-0006-36.png,0004-00-0008-67.png
00000009,456,1,1440173189459,1440173189548,876,443,0,0,0,4,3,1,43,0004-00-0002-25.png,0003-00-0006-80.png
00000009,457,1,1440173190749,1440173192036,916,330,0,0,0,4,3,1,43,0004-00-0007-67.png,0003-00-0005-86.png
00000009,458,0,1440173193104,1440173193282,891,493,0,0,0,1,2,1,12,0001-00-0004-28.png,0002-00-0001-83.png
00000009,459,0,1440173196771,1440173197297,949,294,0,0,0,4,5,1,45,0004-00-0003-38.png,0005-00-0003-50.png
00000009,460,0,1440173200877,1440173201479,1016,288,0,0,0,2,3,1,23,0002-00-0005-53.png,0003-00-0003-55.png
00000009,461,1,1440173204989,1440173205593,964,332,0,0,0,2,1,1,21,0002-00-0007-71.png,0001-00-0009-03.png
00000009,462,0,1440173207307,1440173207919,987,313,0,0,0,3,4,1,34,0003-00-0008-70.png,0004-00-0006-90.png
00000009,463,1,1440173211123,1440173211767,964,374,0,0,0,3,2,1,32,0003-00-0007-35.png,0002-00-0002-13.png
00000009,464,1,1440173213522,1440173214454,973,376,0,0,0,5,4,1,54,0005-00-0009-59.png,0004-00-0003-94.png
00000009,465,0,1440173215520,1440173215836,964,492,0,0,0,2,3,1,23,0002-00-0007-87.png,0003-00-0003-93.png
00000009,466,1,1440173219021,1440173219079,876,306,0,0,0,3,2,1,32,0003-00-0003-57.png,0002-00-0009-09.png
00000009,467,1,1440173220044,1440173221217,990,401,0,0,0,4,3,1,43,0004-00-0008-66.png,0003-00-0008-05.png
00000009,468,0,1440173222716,1440173222866,950,488,0,0,0,3,4,1,34,0003-00-0005-57.png,0004-00-0007-68.png
00000009,469,1,1440173226106,1440173226683,1155,304,0,0,0,2,1,1,21,0002-00-0005-30.png,0001-00-0009-74.png
00000009,470,0,1440173227509,1440173227736,891,497,0,0,0,1,2,1,12,0001-00-0001-78.png,0002-00-0008-42.png
00000009,471,0,1440173230604,1440173231265,986,385,0,0,0,4,5,1,45,0004-00-0005-67.png,0005-00-0006-92.png
00000009,472,1,1440173234249,1440173235058,1118,306,0,0,0,5,4,1,54,0005-00-0001-29.png,0004-00-0006-92.png
00000009,473,1,1440173236003,1440173236240,862,488,0,0,0,2,1,1,21,0002-00-0006-09.png,0001-00-0006-63.png
00000009,474,1,1440173237288,1440173238513,364,391,0,0,0,4,5,1,45,0004-00-0004-25.png,0005-00-0000-04.png
00000009,475,1,1440173239740,1440173239844,878,514,0,0,0,5,4,1,54,0005-00-0001-28.png,0004-00-0006-93.png
00000009,476,1,1440173241381,1440173242378,468,288,0,0,0,2,3,1,23,0002-00-0002-74.png,0003-00-0001-54.png
00000009,477,1,1440173243786,1440173244070,939,462,0,0,0,3,2,1,32,0003-00-0006-53.png,0002-00-0007-84.png
00000009,478,0,1440173245063,1440173246010,488,532,0,0,0,4,3,1,43,0004-00-0009-05.png,0003-00-0008-08.png
00000009,479,0,1440173248871,1440173249868,937,314,0,0,0,1,2,1,12,0001-00-0004-80.png,0002-00-0000-54.png
00000009,480,0,1440173253015,1440173253893,974,294,0,0,0,3,4,1,34,0003-00-0002-84.png,0004-00-0004-89.png
00000009,481,1,1440173256948,1440173257508,419,297,0,0,0,1,2,1,12,0001-00-0007-81.png,0002-00-0006-52.png
00000009,482,1,1440173276297,1440173277070,939,368,0,0,0,5,4,1,54,0005-00-0006-23.png,0004-00-0000-74.png
00000009,483,0,1440173277966,1440173278050,889,524,0,0,0,4,5,1,45,0004-00-0005-67.png,0005-00-0009-54.png
00000009,484,1,1440173281222,1440173281821,990,321,0,0,0,2,1,1,21,0002-00-0007-46.png,0001-00-0005-36.png
00000009,485,1,1440173283672,1440173284317,964,292,0,0,0,3,2,1,32,0003-00-0004-52.png,0002-00-0007-16.png
00000009,486,1,1440173285822,1440173285992,913,396,0,0,0,4,3,1,43,0004-00-0003-15.png,0003-00-0007-45.png
00000009,487,0,1440173286818,1440173286930,907,455,0,0,0,3,4,1,34,0003-00-0003-65.png,0004-00-0006-95.png
00000009,488,0,1440173290364,1440173290946,990,396,0,0,0,2,3,1,23,0002-00-0003-88.png,0003-00-0004-58.png
00000009,489,0,1440173294066,1440173294669,1143,306,0,0,0,1,2,1,12,0001-00-0005-18.png,0002-00-0008-52.png
00000009,490,0,1440173297685,1440173298465,376,432,0,0,0,4,3,1,43,0004-00-0005-95.png,0003-00-0009-01.png
00000009,491,0,1440173301859,1440173301887,890,411,0,0,0,4,5,1,45,0004-00-0007-13.png,0005-00-0008-04.png
00000009,492,0,1440173304752,1440173305466,935,297,0,0,0,3,4,1,34,0003-00-0005-04.png,0004-00-0003-47.png
00000009,493,1,1440173308455,1440173309040,932,311,0,0,0,2,1,1,21,0002-00-0003-91.png,0001-00-0007-81.png
00000009,494,1,1440173310056,1440173311199,939,343,0,0,0,3,2,1,32,0003-00-0003-23.png,0002-00-0007-21.png
00000009,495,0,1440173313000,1440173313327,964,446,0,0,0,2,3,1,23,0002-00-0007-16.png,0003-00-0009-22.png
00000009,496,0,1440173316268,1440173316913,475,268,0,0,0,5,4,1,54,0005-00-0002-05.png,0004-00-0008-61.png
00000009,497,0,1440173320194,1440173320726,964,320,0,0,0,3,4,1,34,0003-00-0008-74.png,0004-00-0004-48.png
00000009,498,1,1440173323962,1440173324524,964,401,0,0,0,5,4,1,54,0005-00-0007-64.png,0004-00-0003-10.png
00000009,499,0,1440173326176,1440173326378,927,436,0,0,0,1,2,1,12,0001-00-0009-19.png,0002-00-0008-42.png
00000009,500,1,1440173330145,1440173330737,990,374,0,0,0,2,1,1,21,0002-00-0004-91.png,0001-00-0007-78.png
00000009,501,1,1440173332467,1440173333152,972,403,0,0,0,4,3,1,43,0004-00-0001-72.png,0003-00-0000-33.png
00000009,502,1,1440173335099,1440173335617,1072,282,0,0,0,3,2,1,32,0003-00-0003-45.png,0002-00-0000-52.png
00000009,503,0,1440173337733,1440173338567,1092,253,0,0,0,2,3,1,23,0002-00-0004-34.png,0003-00-0004-07.png
00000009,504,0,1440173341778,1440173342385,940,335,0,0,0,4,5,1,45,0004-00-0003-66.png,0005-00-0006-89.png
00000009,505,1,1440173345528,1440173346767,427,239,0,0,0,4,5,1,45,0004-00-0006-50.png,0005-00-0007-35.png
00000009,506,1,1440173348362,1440173349281,462,268,0,0,0,3,4,1,34,0003-00-0002-17.png,0004-00-0001-54.png
00000009,507,1,1440173350863,1440173350960,907,418,0,0,0,5,4,1,54,0005-00-0005-99.png,0004-00-0002-08.png
00000009,508,1,1440173351807,1440173351878,881,441,0,0,0,4,3,1,43,0004-00-0004-42.png,0003-00-0006-19.png
00000009,509,0,1440173353097,1440173353168,879,443,0,0,0,1,2,1,12,0001-00-0004-08.png,0002-00-0003-24.png
00000009,510,1,1440173356359,1440173356860,860,302,0,0,0,3,2,1,32,0003-00-0004-66.png,0002-00-0004-63.png
00000009,511,0,1440173357784,1440173359000,416,411,0,0,0,2,1,1,21,0002-00-0001-02.png,0001-00-0005-79.png
00000009,512,0,1440173362210,1440173362744,1129,332,0,0,0,2,3,1,23,0002-00-0004-14.png,0003-00-0006-80.png
00000009,513,1,1440173365880,1440173366414,1129,281,0,0,0,5,4,1,54,0005-00-0004-26.png,0004-00-0005-79.png
00000009,514,0,1440173368140,1440173368801,1131,282,0,0,0,3,4,1,34,0003-00-0006-31.png,0004-00-0005-81.png
00000009,515,1,1440173371752,1440173372677,436,246,0,0,0,1,2,1,12,0001-00-0001-63.png,0002-00-0006-03.png
00000009,516,1,1440173374060,1440173374214,874,421,0,0,0,2,1,1,21,0002-00-0009-59.png,0001-00-0004-80.png
00000009,517,0,1440173375163,1440173376168,487,240,0,0,0,4,3,1,43,0004-00-0001-96.png,0003-00-0004-28.png
00000009,518,0,1440173379345,1440173379867,964,317,0,0,0,2,3,1,23,0002-00-0002-11.png,0003-00-0009-82.png
00000009,519,0,1440173382934,1440173383494,942,326,0,0,0,4,5,1,45,0004-00-0002-91.png,0005-00-0006-51.png
00000009,520,1,1440173386662,1440173387273,964,347,0,0,0,3,2,1,32,0003-00-0009-51.png,0002-00-0002-45.png
00000009,521,1,1440173388135,1440173389537,1102,279,0,0,0,3,2,1,32,0003-00-0005-56.png,0002-00-0005-92.png
00000009,522,1,1440173391163,1440173391746,968,330,0,0,0,5,4,1,54,0005-00-0003-62.png,0004-00-0003-22.png
00000009,523,1,1440173392567,1440173394265,1118,306,0,0,0,2,1,1,21,0002-00-0003-80.png,0001-00-0006-68.png
00000009,524,0,1440173395764,1440173395869,905,410,0,0,0,2,3,1,23,0002-00-0006-87.png,0003-00-0008-05.png
00000009,525,0,1440173398853,1440173398869,862,488,0,0,0,4,5,1,45,0004-00-0005-42.png,0005-00-0009-27.png
00000009,526,0,1440173401811,1440173402609,468,262,0,0,0,4,3,1,43,0004-00-0004-41.png,0003-00-0003-24.png
00000009,527,0,1440173405760,1440173406339,939,327,0,0,0,1,2,1,12,0001-00-0009-06.png,0002-00-0005-38.png
00000009,528,0,1440173409911,1440173410511,968,386,0,0,0,3,4,1,34,0003-00-0004-81.png,0004-00-0001-40.png
00000009,529,0,1440173413680,1440173414318,990,398,0,0,0,2,3,1,23,0002-00-0002-28.png,0003-00-0004-66.png
00000009,530,0,1440173417556,1440173417640,872,307,0,0,0,1,2,1,12,0001-00-0004-86.png,0002-00-0003-69.png
00000009,531,1,1440173420862,1440173421402,1092,279,0,0,0,3,2,1,32,0003-00-0002-38.png,0002-00-0006-71.png
00000009,532,1,1440173422284,1440173422571,896,461,0,0,0,2,1,1,21,0002-00-0007-36.png,0001-00-0009-44.png
00000009,533,1,1440173423539,1440173423662,862,410,0,0,0,5,4,1,54,0005-00-0008-18.png,0004-00-0005-36.png
00000009,534,0,1440173424500,1440173424558,868,452,0,0,0,4,5,1,45,0004-00-0008-78.png,0005-00-0007-59.png
00000009,535,0,1440173427847,1440173428677,375,376,0,0,0,4,3,1,43,0004-00-0005-94.png,0003-00-0001-82.png
00000009,536,0,1440173431708,1440173432208,937,304,0,0,0,3,4,1,34,0003-00-0001-91.png,0004-00-0004-41.png
00000009,537,0,1440173435178,1440173435206,866,343,0,0,0,4,5,1,45,0004-00-0004-22.png,0005-00-0002-10.png
00000009,538,0,1440173438484,1440173439108,1087,297,0,0,0,3,4,1,34,0003-00-0009-64.png,0004-00-0004-88.png
00000009,539,0,1440173442295,1440173443146,946,299,0,0,0,1,2,1,12,0001-00-0006-03.png,0002-00-0008-04.png
00000009,540,1,1440173446358,1440173446493,939,279,0,0,0,3,2,1,32,0003-00-0002-12.png,0002-00-0005-53.png
00000009,541,1,1440173447350,1440173448085,990,566,0,0,0,5,4,1,54,0005-00-0003-15.png,0004-00-0007-60.png
00000009,542,0,1440173449410,1440173449663,888,462,0,0,0,2,3,1,23,0002-00-0007-78.png,0003-00-0001-61.png
00000009,543,1,1440173452896,1440173453454,945,324,0,0,0,4,3,1,43,0004-00-0004-57.png,0003-00-0003-08.png
00000009,544,1,1440173454407,1440173454955,936,514,0,0,0,2,1,1,21,0002-00-0005-11.png,0001-00-0009-13.png
00000009,545,1,1440173456400,1440173456669,888,462,0,0,0,4,3,1,43,0004-00-0004-64.png,0003-00-0000-85.png
00000009,546,1,1440173457633,1440173457717,863,436,0,0,0,3,2,1,32,0003-00-0008-33.png,0002-00-0003-45.png
00000009,547,0,1440173459181,1440173459363,913,488,0,0,0,3,4,1,34,0003-00-0007-74.png,0004-00-0005-52.png
00000009,548,0,1440173462595,1440173462599,990,358,0,0,0,2,3,1,23,0002-00-0001-26.png,0003-00-0001-93.png
00000009,549,0,1440173465449,1440173466434,416,227,0,0,0,2,1,1,21,0002-00-0009-04.png,0001-00-0002-12.png
00000009,550,0,1440173469586,1440173470163,939,296,0,0,0,4,5,1,45,0004-00-0002-18.png,0005-00-0005-81.png
00000009,551,0,1440173473332,1440173474004,959,333,0,0,0,1,2,1,12,0001-00-0003-97.png,0002-00-0001-67.png
00000009,552,1,1440173477153,1440173478044,959,385,0,0,0,5,4,1,54,0005-00-0002-36.png,0004-00-0000-91.png
00000009,553,1,1440173479633,1440173479753,892,338,0,0,0,2,1,1,21,0002-00-0005-82.png,0001-00-0008-35.png
00000009,554,0,1440173480827,1440173480931,877,436,0,0,0,4,5,1,45,0004-00-0006-38.png,0005-00-0000-95.png
00000009,555,1,1440173484215,1440173485531,900,384,0,0,0,5,4,1,54,0005-00-0008-54.png,0004-00-0003-35.png
00000009,556,1,1440173487276,1440173487870,938,312,0,0,0,4,3,1,43,0004-00-0009-53.png,0003-00-0000-16.png
00000009,557,1,1440173489358,1440173489540,904,436,0,0,0,3,2,1,32,0003-00-0009-68.png,0002-00-0005-72.png
00000009,558,0,1440173490376,1440173490440,888,446,0,0,0,1,2,1,12,0001-00-0007-37.png,0002-00-0002-48.png
00000009,559,0,1440173493273,1440173493853,966,295,0,0,0,3,4,1,34,0003-00-0005-91.png,0004-00-0008-84.png
00000009,560,0,1440173496876,1440173497486,964,323,0,0,0,2,3,1,23,0002-00-0006-11.png,0003-00-0006-81.png
00000009,561,1,1440173500684,1440173501333,1067,279,0,0,0,3,2,1,32,0003-00-0001-81.png,0002-00-0009-07.png
00000009,562,0,1440173502949,1440173503592,1092,297,0,0,0,2,3,1,23,0002-00-0006-70.png,0003-00-0001-73.png
00000009,563,0,1440173506754,1440173507387,1107,298,0,0,0,4,5,1,45,0004-00-0006-07.png,0005-00-0001-32.png
00000009,564,1,1440173510265,1440173511071,962,279,0,0,0,2,1,1,21,0002-00-0001-86.png,0001-00-0008-19.png
00000009,565,1,1440173512508,1440173513749,1092,295,0,0,0,5,4,1,54,0005-00-0000-74.png,0004-00-0004-68.png
00000009,566,0,1440173514763,1440173516039,1067,279,0,0,0,1,2,1,12,0001-00-0006-56.png,0002-00-0000-80.png
00000009,567,0,1440173519443,1440173519522,992,308,0,0,0,3,4,1,34,0003-00-0003-25.png,0004-00-0007-78.png
00000009,568,1,1440173522676,1440173523302,990,375,0,0,0,4,3,1,43,0004-00-0006-51.png,0003-00-0000-12.png
00000009,569,0,1440173525091,1440173525849,938,297,0,0,0,3,4,1,34,0003-00-0001-62.png,0004-00-0004-54.png
00000009,570,0,1440173529045,1440173529695,987,395,0,0,0,4,5,1,45,0004-00-0006-05.png,0005-00-0006-66.png
00000009,571,1,1440173532852,1440173533462,1067,279,0,0,0,3,2,1,32,0003-00-0008-50.png,0002-00-0002-10.png
00000009,572,0,1440173535059,1440173535217,909,385,0,0,0,1,2,1,12,0001-00-0001-60.png,0002-00-0003-34.png
00000009,573,0,1440173538584,1440173539259,338,358,0,0,0,2,1,1,21,0002-00-0001-39.png,0001-00-0005-45.png
00000009,574,0,1440173542283,1440173543035,967,280,0,0,0,2,3,1,23,0002-00-0003-12.png,0003-00-0000-57.png
00000009,575,1,1440173546275,1440173546873,1078,253,0,0,0,5,4,1,54,0005-00-0003-55.png,0004-00-0005-69.png
00000009,576,1,1440173548428,1440173548559,862,358,0,0,0,4,3,1,43,0004-00-0008-71.png,0003-00-0001-76.png
00000009,577,0,1440173549647,1440173549783,862,426,0,0,0,2,3,1,23,0002-00-0004-54.png,0003-00-0005-80.png
00000009,578,0,1440173552973,1440173553033,950,332,0,0,0,3,4,1,34,0003-00-0001-96.png,0004-00-0003-86.png
00000009,579,0,1440173556621,1440173557253,990,396,0,0,0,4,5,1,45,0004-00-0005-71.png,0005-00-0008-93.png
00000009,580,0,1440173560777,1440173561352,935,305,0,0,0,1,2,1,12,0001-00-0004-67.png,0002-00-0001-76.png
00000009,581,1,1440173564395,1440173565050,951,424,0,0,0,2,1,1,21,0002-00-0007-38.png,0001-00-0000-24.png
00000009,582,1,1440173566519,1440173566655,862,358,0,0,0,5,4,1,54,0005-00-0002-92.png,0004-00-0007-09.png
00000009,583,1,1440173567820,1440173569079,910,337,0,0,0,4,3,1,43,0004-00-0003-45.png,0003-00-0001-94.png
00000009,584,1,1440173569971,1440173570131,863,433,0,0,0,3,2,1,32,0003-00-0005-48.png,0002-00-0008-04.png
00000009,585,0,1440173571529,1440173571637,862,450,0,0,0,2,3,1,23,0002-00-0007-26.png,0003-00-0007-25.png
00000009,586,0,1440173574837,1440173575462,463,253,0,0,0,5,4,1,54,0005-00-0003-41.png,0004-00-0004-57.png
00000009,587,0,1440173578694,1440173579287,1120,279,0,0,0,1,2,1,12,0001-00-0001-99.png,0002-00-0003-24.png
00000009,588,0,1440173582434,1440173583043,942,383,0,0,0,4,5,1,45,0004-00-0001-31.png,0005-00-0000-77.png
00000009,589,1,1440173590197,1440173590914,993,346,0,0,0,4,3,1,43,0004-00-0001-31.png,0003-00-0004-26.png
00000009,590,1,1440173591794,1440173592632,880,347,0,0,0,2,1,1,21,0002-00-0009-95.png,0001-00-0006-62.png
00000009,591,0,1440173593830,1440173594145,904,462,0,0,0,3,4,1,34,0003-00-0004-69.png,0004-00-0005-90.png
00000009,592,1,1440173597247,1440173597832,964,323,0,0,0,3,2,1,32,0003-00-0000-69.png,0002-00-0007-97.png
00000009,593,1,1440173599600,1440173600226,1068,231,0,0,0,4,3,1,43,0004-00-0001-58.png,0003-00-0002-43.png
00000009,594,0,1440173601547,1440173602949,912,321,0,0,0,1,2,1,12,0001-00-0008-06.png,0002-00-0009-03.png
00000009,595,0,1440173605828,1440173606627,1067,253,0,0,0,4,5,1,45,0004-00-0008-92.png,0005-00-0005-95.png
00000009,596,1,1440173609611,1440173610236,940,331,0,0,0,5,4,1,54,0005-00-0007-62.png,0004-00-0000-30.png
00000009,597,0,1440173611897,1440173612674,943,348,0,0,0,3,4,1,34,0003-00-0008-97.png,0004-00-0003-33.png
00000009,598,1,1440173615812,1440173616535,1092,279,0,0,0,2,1,1,21,0002-00-0003-01.png,0001-00-0002-35.png
00000009,599,0,1440173618263,1440173619289,941,344,0,0,0,2,3,1,23,0002-00-0005-22.png,0003-00-0001-56.png
00000009,600,1,1440173622115,1440173623013,990,412,0,0,0,3,2,1,32,0003-00-0005-05.png,0002-00-0003-26.png
00000009,601,1,1440173624594,1440173625165,1044,281,0,0,0,2,1,1,21,0002-00-0001-09.png,0001-00-0002-25.png
00000009,602,0,1440173626654,1440173626875,902,462,0,0,0,3,4,1,34,0003-00-0005-50.png,0004-00-0004-35.png
00000009,603,0,1440173630062,1440173630924,478,241,0,0,0,5,4,1,54,0005-00-0005-97.png,0004-00-0007-38.png
00000009,604,0,1440173634167,1440173634711,1109,279,0,0,0,4,5,1,45,0004-00-0009-16.png,0005-00-0009-44.png
00000009,605,0,1440173637933,1440173638549,988,306,0,0,0,1,2,1,12,0001-00-0007-09.png,0002-00-0004-86.png
00000009,606,1,1440173642220,1440173642793,1115,301,0,0,0,3,2,1,32,0003-00-0000-15.png,0002-00-0003-29.png
00000009,607,0,1440173644712,1440173645315,963,295,0,0,0,2,3,1,23,0002-00-0001-77.png,0003-00-0004-22.png
00000009,608,1,1440173648185,1440173648845,1074,290,0,0,0,4,3,1,43,0004-00-0008-00.png,0003-00-0003-81.png
00000009,609,0,1440173650523,1440173650966,943,443,0,0,0,1,2,1,12,0001-00-0005-40.png,0002-00-0001-39.png
00000009,610,0,1440173654131,1440173654728,939,301,0,0,0,4,5,1,45,0004-00-0003-61.png,0005-00-0002-17.png
00000009,611,1,1440173657921,1440173658511,1118,279,0,0,0,4,3,1,43,0004-00-0005-91.png,0003-00-0007-51.png
00000009,612,0,1440173659996,1440173660233,897,436,0,0,0,2,3,1,23,0002-00-0006-50.png,0003-00-0004-36.png
00000009,613,1,1440173663414,1440173663950,964,373,0,0,0,5,4,1,54,0005-00-0002-31.png,0004-00-0005-62.png
00000009,614,0,1440173665412,1440173665699,930,436,0,0,0,3,4,1,34,0003-00-0005-14.png,0004-00-0009-71.png
00000009,615,1,1440173668908,1440173669532,971,297,0,0,0,3,2,1,32,0003-00-0001-76.png,0002-00-0006-90.png
00000009,616,1,1440173671047,1440173671158,913,384,0,0,0,2,1,1,21,0002-00-0006-71.png,0001-00-0003-60.png
00000009,617,1,1440173672220,1440173672318,862,472,0,0,0,3,2,1,32,0003-00-0007-13.png,0002-00-0001-31.png
00000009,618,1,1440173673418,1440173674589,911,328,0,0,0,5,4,1,54,0005-00-0002-97.png,0004-00-0004-44.png
00000009,619,1,1440173676121,1440173676227,888,436,0,0,0,2,1,1,21,0002-00-0009-89.png,0001-00-0006-12.png
00000009,620,1,1440173677078,1440173678214,964,315,0,0,0,4,3,1,43,0004-00-0008-52.png,0003-00-0004-85.png
00000009,621,0,1440173679589,1440173679661,888,435,0,0,0,4,5,1,45,0004-00-0004-72.png,0005-00-0003-83.png
00000009,622,0,1440173682700,1440173683295,964,291,0,0,0,1,2,1,12,0001-00-0007-67.png,0002-00-0003-03.png
00000009,623,0,1440173686459,1440173686983,964,382,0,0,0,2,3,1,23,0002-00-0009-99.png,0003-00-0007-82.png
00000009,624,0,1440173690080,1440173690872,937,277,0,0,0,3,4,1,34,0003-00-0008-16.png,0004-00-0004-05.png
00000009,625,0,1440173694059,1440173694695,990,370,0,0,0,1,2,1,12,0001-00-0008-38.png,0002-00-0006-85.png
00000009,626,1,1440173697824,1440173698385,1108,279,0,0,0,4,3,1,43,0004-00-0000-43.png,0003-00-0009-10.png
00000009,627,1,1440173699220,1440173699429,939,488,0,0,0,2,1,1,21,0002-00-0006-26.png,0001-00-0005-32.png
00000009,628,0,1440173700808,1440173701178,888,474,0,0,0,4,5,1,45,0004-00-0007-10.png,0005-00-0000-07.png
00000009,629,0,1440173704282,1440173704819,962,298,0,0,0,3,4,1,34,0003-00-0003-24.png,0004-00-0007-12.png
00000009,630,1,1440173707920,1440173708465,1082,280,0,0,0,3,2,1,32,0003-00-0004-30.png,0002-00-0002-58.png
00000009,631,0,1440173710131,1440173710855,964,384,0,0,0,2,3,1,23,0002-00-0007-92.png,0003-00-0006-94.png
00000009,632,1,1440173713808,1440173713844,913,423,0,0,0,5,4,1,54,0005-00-0009-07.png,0004-00-0003-95.png
00000009,633,1,1440173714784,1440173714901,862,449,0,0,0,4,3,1,43,0004-00-0003-77.png,0003-00-0008-83.png
00000009,634,0,1440173716345,1440173716788,888,530,0,0,0,1,2,1,12,0001-00-0007-58.png,0002-00-0008-87.png
00000009,635,0,1440173719632,1440173719680,961,433,0,0,0,4,5,1,45,0004-00-0002-54.png,0005-00-0002-85.png
00000009,636,1,1440173722781,1440173723297,920,338,0,0,0,2,1,1,21,0002-00-0007-04.png,0001-00-0002-00.png
00000009,637,0,1440173724659,1440173724875,932,418,0,0,0,2,3,1,23,0002-00-0002-76.png,0003-00-0009-29.png
00000009,638,1,1440173727892,1440173728480,1042,276,0,0,0,5,4,1,54,0005-00-0008-15.png,0004-00-0001-45.png
00000009,639,1,1440173729849,1440173730104,913,462,0,0,0,3,2,1,32,0003-00-0006-11.png,0002-00-0005-40.png
00000009,640,0,1440173730946,1440173731042,862,453,0,0,0,3,4,1,34,0003-00-0008-21.png,0004-00-0000-84.png
00000009,641,0,1440173734261,1440173734820,960,299,0,0,0,2,3,1,23,0002-00-0001-29.png,0003-00-0006-34.png
00000009,642,0,1440173737819,1440173738356,942,312,0,0,0,1,2,1,12,0001-00-0004-41.png,0002-00-0009-78.png
00000009,643,1,1440173741380,1440173742141,442,246,0,0,0,4,5,1,45,0004-00-0004-49.png,0005-00-0002-11.png
00000009,644,1,1440173743586,1440173743747,913,421,0,0,0,4,3,1,43,0004-00-0004-56.png,0003-00-0000-20.png
00000009,645,1,1440173745182,1440173745361,862,462,0,0,0,3,2,1,32,0003-00-0009-50.png,0002-00-0007-38.png
00000009,646,1,1440173746222,1440173747343,1040,276,0,0,0,2,1,1,21,0002-00-0005-58.png,0001-00-0009-48.png
00000009,647,1,1440173748718,1440173748794,888,436,0,0,0,5,4,1,54,0005-00-0007-90.png,0004-00-0001-78.png
00000009,648,0,1440173750237,1440173751432,924,363,0,0,0,3,4,1,34,0003-00-0008-35.png,0004-00-0001-02.png
00000009,649,0,1440173754395,1440173755266,964,347,0,0,0,2,3,1,23,0002-00-0009-91.png,0003-00-0004-53.png
00000009,650,0,1440173758299,1440173758343,913,436,0,0,0,1,2,1,12,0001-00-0008-97.png,0002-00-0001-15.png
00000009,651,1,1440173761450,1440173761986,939,337,0,0,0,2,1,1,21,0002-00-0003-54.png,0001-00-0003-69.png
00000009,652,1,1440173763414,1440173763744,928,436,0,0,0,3,2,1,32,0003-00-0004-60.png,0002-00-0002-27.png
00000009,653,1,1440173764747,1440173764877,862,454,0,0,0,4,3,1,43,0004-00-0006-07.png,0003-00-0003-11.png
00000009,654,0,1440173766210,1440173767346,1038,267,0,0,0,4,5,1,45,0004-00-0005-70.png,0005-00-0001-44.png
00000009,655,1,1440173770306,1440173770342,934,501,0,0,0,5,4,1,54,0005-00-0006-79.png,0004-00-0009-20.png
00000009,656,1,1440173771347,1440173772705,380,414,0,0,0,3,4,1,34,0003-00-0006-43.png,0004-00-0004-92.png
00000009,657,0,1440173773564,1440173774332,432,424,0,0,0,5,4,1,54,0005-00-0005-10.png,0004-00-0007-14.png
00000009,658,1,1440173777911,1440173778549,990,394,0,0,0,3,2,1,32,0003-00-0009-44.png,0002-00-0006-27.png
00000009,659,0,1440173779983,1440173780138,888,421,0,0,0,2,3,1,23,0002-00-0001-14.png,0003-00-0006-24.png
00000009,660,0,1440173783291,1440173783906,965,305,0,0,0,1,2,1,12,0001-00-0005-40.png,0002-00-0002-49.png
00000009,661,0,1440173786739,1440173787443,455,281,0,0,0,2,1,1,21,0002-00-0005-52.png,0001-00-0006-94.png
00000009,662,0,1440173790632,1440173791169,960,306,0,0,0,4,5,1,45,0004-00-0006-29.png,0005-00-0000-35.png
00000009,663,1,1440173794373,1440173794909,994,308,0,0,0,4,3,1,43,0004-00-0009-31.png,0003-00-0007-43.png
00000009,664,0,1440173796431,1440173796793,908,438,0,0,0,3,4,1,34,0003-00-0000-32.png,0004-00-0006-78.png
00000009,665,0,1440173799968,1440173800514,964,398,0,0,0,4,5,1,45,0004-00-0006-95.png,0005-00-0001-35.png
00000009,666,1,1440173803695,1440173804218,965,297,0,0,0,3,2,1,32,0003-00-0003-14.png,0002-00-0009-47.png
00000009,667,0,1440173805692,1440173805799,873,405,0,0,0,2,3,1,23,0002-00-0003-06.png,0003-00-0003-25.png
00000009,668,0,1440173808965,1440173809592,964,374,0,0,0,1,2,1,12,0001-00-0002-59.png,0002-00-0003-34.png
00000009,669,1,1440173812696,1440173813246,1092,306,0,0,0,5,4,1,54,0005-00-0008-95.png,0004-00-0004-48.png
00000009,670,0,1440173814630,1440173814682,862,358,0,0,0,3,4,1,34,0003-00-0001-24.png,0004-00-0000-13.png
00000009,671,1,1440173817741,1440173818288,964,374,0,0,0,2,1,1,21,0002-00-0003-88.png,0001-00-0000-16.png
00000009,672,1,1440173819770,1440173819928,916,432,0,0,0,4,3,1,43,0004-00-0000-22.png,0003-00-0003-65.png
00000009,673,0,1440173821442,1440173821620,859,459,0,0,0,3,4,1,34,0003-00-0002-65.png,0004-00-0003-63.png
00000009,674,0,1440173824608,1440173825189,1106,299,0,0,0,1,2,1,12,0001-00-0007-56.png,0002-00-0006-58.png
00000009,675,1,1440173828078,1440173828623,964,395,0,0,0,2,1,1,21,0002-00-0004-26.png,0001-00-0001-50.png
00000009,676,0,1440173829517,1440173829749,910,514,0,0,0,4,5,1,45,0004-00-0008-71.png,0005-00-0003-75.png
00000009,677,0,1440173832977,1440173833544,964,393,0,0,0,2,3,1,23,0002-00-0000-04.png,0003-00-0007-55.png
00000009,678,1,1440173837073,1440173837634,1083,289,0,0,0,4,3,1,43,0004-00-0005-31.png,0003-00-0005-13.png
00000009,679,1,1440173838491,1440173838841,913,509,0,0,0,3,2,1,32,0003-00-0006-42.png,0002-00-0008-42.png
00000009,680,1,1440173840351,1440173840569,911,483,0,0,0,5,4,1,54,0005-00-0003-04.png,0004-00-0000-84.png
00000009,681,0,1440173841508,1440173842575,913,343,0,0,0,2,3,1,23,0002-00-0005-53.png,0003-00-0008-18.png
00000009,682,1,1440173845579,1440173846172,939,398,0,0,0,3,2,1,32,0003-00-0007-50.png,0002-00-0009-46.png
00000009,683,1,1440173847982,1440173848951,942,307,0,0,0,5,4,1,54,0005-00-0004-92.png,0004-00-0001-74.png
00000009,684,0,1440173850511,1440173850798,939,474,0,0,0,4,5,1,45,0004-00-0000-29.png,0005-00-0005-60.png
00000009,685,0,1440173853968,1440173854506,964,398,0,0,0,3,4,1,34,0003-00-0000-63.png,0004-00-0003-20.png
00000009,686,1,1440173857366,1440173857995,1067,279,0,0,0,2,1,1,21,0002-00-0006-49.png,0001-00-0007-36.png
00000009,687,0,1440173859739,1440173860019,974,410,0,0,0,1,2,1,12,0001-00-0002-44.png,0002-00-0006-38.png
00000009,688,0,1440173862958,1440173863578,450,262,0,0,0,4,3,1,43,0004-00-0004-28.png,0003-00-0009-31.png
00000009,689,1,1440173866742,1440173867342,964,397,0,0,0,2,1,1,21,0002-00-0005-28.png,0001-00-0001-56.png
00000009,690,1,1440173868816,1440173869018,913,426,0,0,0,4,3,1,43,0004-00-0009-99.png,0003-00-0007-68.png
00000009,691,0,1440173869930,1440173871342,1048,285,0,0,0,3,4,1,34,0003-00-0008-30.png,0004-00-0008-80.png
00000009,692,0,1440173874535,1440173875132,944,307,0,0,0,4,5,1,45,0004-00-0007-51.png,0005-00-0007-22.png
00000009,693,0,1440173878258,1440173878863,1085,265,0,0,0,2,3,1,23,0002-00-0007-95.png,0003-00-0003-91.png
00000009,694,1,1440173882074,1440173882977,1118,243,0,0,0,3,2,1,32,0003-00-0009-65.png,0002-00-0009-78.png
00000009,695,0,1440173884425,1440173884512,877,368,0,0,0,1,2,1,12,0001-00-0004-61.png,0002-00-0003-47.png
00000009,696,1,1440173887527,1440173888171,938,303,0,0,0,5,4,1,54,0005-00-0009-89.png,0004-00-0004-71.png
00000009,697,1,1440173889114,1440173890071,950,384,0,0,0,3,2,1,32,0003-00-0001-85.png,0002-00-0008-81.png
00000009,698,0,1440173891541,1440173891648,862,462,0,0,0,1,2,1,12,0001-00-0009-69.png,0002-00-0003-32.png
00000009,699,1,1440173895057,1440173895623,964,321,0,0,0,2,1,1,21,0002-00-0002-75.png,0001-00-0006-03.png
00000009,700,1,1440173897278,1440173897413,913,397,0,0,0,5,4,1,54,0005-00-0006-41.png,0004-00-0006-97.png
00000009,701,0,1440173898387,1440173899559,907,350,0,0,0,4,5,1,45,0004-00-0007-82.png,0005-00-0000-74.png
00000009,702,0,1440173902704,1440173903232,1095,278,0,0,0,2,3,1,23,0002-00-0004-04.png,0003-00-0007-26.png
00000009,703,0,1440173906401,1440173907299,958,392,0,0,0,3,4,1,34,0003-00-0006-79.png,0004-00-0005-92.png
00000009,704,1,1440173910883,1440173911519,950,384,0,0,0,4,3,1,43,0004-00-0006-17.png,0003-00-0009-35.png
00000009,705,0,1440173912909,1440173913165,989,487,0,0,0,4,5,1,45,0004-00-0008-09.png,0005-00-0001-26.png
00000009,706,1,1440173916646,1440173917214,1072,275,0,0,0,5,4,1,54,0005-00-0005-85.png,0004-00-0005-11.png
00000009,707,1,1440173918774,1440173918830,925,358,0,0,0,2,1,1,21,0002-00-0006-84.png,0001-00-0005-14.png
00000009,708,0,1440173919976,1440173920052,897,514,0,0,0,2,3,1,23,0002-00-0006-56.png,0003-00-0005-32.png
00000009,709,1,1440173923353,1440173923909,927,328,0,0,0,4,3,1,43,0004-00-0006-83.png,0003-00-0002-86.png
00000009,710,1,1440173925521,1440173925735,906,460,0,0,0,3,2,1,32,0003-00-0003-37.png,0002-00-0004-99.png
00000009,711,0,1440173926734,1440173926794,868,450,0,0,0,1,2,1,12,0001-00-0000-08.png,0002-00-0002-91.png
00000009,712,1,1440173929970,1440173930689,393,394,0,0,0,3,4,1,34,0003-00-0003-33.png,0004-00-0002-28.png
00000009,713,0,1440173932068,1440173932449,929,436,0,0,0,1,2,1,12,0001-00-0002-33.png,0002-00-0000-95.png
00000009,714,1,1440173935667,1440173936222,1046,252,0,0,0,4,3,1,43,0004-00-0006-95.png,0003-00-0009-17.png
00000009,715,0,1440173937593,1440173937859,925,436,0,0,0,4,5,1,45,0004-00-0007-70.png,0005-00-0005-28.png
00000009,716,0,1440173940994,1440173941569,1118,253,0,0,0,2,3,1,23,0002-00-0002-47.png,0003-00-0001-31.png
00000009,717,0,1440173944660,1440173945226,964,373,0,0,0,3,4,1,34,0003-00-0001-91.png,0004-00-0004-86.png
00000009,718,1,1440173948342,1440173948856,990,374,0,0,0,3,2,1,32,0003-00-0001-29.png,0002-00-0009-90.png
00000009,719,1,1440173950323,1440173950505,913,410,0,0,0,2,1,1,21,0002-00-0004-31.png,0001-00-0008-53.png
00000009,720,1,1440173951336,1440173951452,876,436,0,0,0,5,4,1,54,0005-00-0004-85.png,0004-00-0002-84.png
00000009,721,0,1440173952933,1440173953048,885,458,0,0,0,3,4,1,34,0003-00-0004-79.png,0004-00-0006-58.png
00000009,722,1,1440173956187,1440173956227,939,358,0,0,0,3,2,1,32,0003-00-0004-62.png,0002-00-0001-06.png
00000009,723,0,1440173957251,1440173957391,878,462,0,0,0,2,3,1,23,0002-00-0003-21.png,0003-00-0000-49.png
00000009,724,1,1440173961027,1440173961553,936,332,0,0,0,4,3,1,43,0004-00-0006-29.png,0003-00-0005-57.png
00000009,725,1,1440173962959,1440173963416,928,462,0,0,0,2,1,1,21,0002-00-0008-83.png,0001-00-0006-29.png
00000009,726,0,1440173964299,1440173964428,888,448,0,0,0,1,2,1,12,0001-00-0008-98.png,0002-00-0000-28.png
00000009,727,1,1440173967630,1440173968155,964,309,0,0,0,5,4,1,54,0005-00-0007-48.png,0004-00-0007-45.png
00000009,728,0,1440173969508,1440173969761,922,462,0,0,0,4,5,1,45,0004-00-0008-28.png,0005-00-0006-70.png
00000009,729,0,1440173972927,1440173973486,916,305,0,0,0,3,4,1,34,0003-00-0006-07.png,0004-00-0007-96.png
00000009,730,1,1440173976993,1440173977671,461,270,0,0,0,4,5,1,45,0004-00-0004-74.png,0005-00-0001-93.png
00000009,731,1,1440173979062,1440173979259,942,420,0,0,0,3,2,1,32,0003-00-0000-74.png,0002-00-0007-79.png
00000009,732,0,1440173980133,1440173981211,891,359,0,0,0,1,2,1,12,0001-00-0003-37.png,0002-00-0007-52.png
00000009,733,1,1440173984106,1440173984672,967,305,0,0,0,5,4,1,54,0005-00-0005-40.png,0004-00-0005-10.png
00000009,734,0,1440173986047,1440173986155,887,409,0,0,0,2,3,1,23,0002-00-0008-62.png,0003-00-0000-01.png
00000009,735,0,1440173989299,1440173990177,470,306,0,0,0,2,1,1,21,0002-00-0000-97.png,0001-00-0005-77.png
00000009,736,1,1440173993343,1440173993829,962,306,0,0,0,4,3,1,43,0004-00-0005-56.png,0003-00-0005-80.png
00000009,737,1,1440173995221,1440173995555,924,462,0,0,0,3,2,1,32,0003-00-0005-22.png,0002-00-0003-24.png
00000009,738,0,1440173996929,1440173997018,873,436,0,0,0,3,4,1,34,0003-00-0009-52.png,0004-00-0005-50.png
00000009,739,1,1440174000146,1440174000704,1045,279,0,0,0,4,3,1,43,0004-00-0000-76.png,0003-00-0008-33.png
00000009,740,0,1440174002022,1440174002235,922,462,0,0,0,4,5,1,45,0004-00-0004-63.png,0005-00-0006-89.png
00000009,741,1,1440174005410,1440174005955,1091,280,0,0,0,2,1,1,21,0002-00-0006-75.png,0001-00-0003-49.png
00000009,742,0,1440174006911,1440174008474,1051,297,0,0,0,2,3,1,23,0002-00-0004-53.png,0003-00-0001-34.png
00000009,743,1,1440174011465,1440174011505,913,358,0,0,0,5,4,1,54,0005-00-0000-66.png,0004-00-0003-70.png
00000009,744,0,1440174012360,1440174013511,1043,303,0,0,0,1,2,1,12,0001-00-0006-44.png,0002-00-0009-41.png
00000009,745,1,1440174016655,1440174017200,943,310,0,0,0,3,2,1,32,0003-00-0009-35.png,0002-00-0007-70.png
00000009,746,0,1440174018543,1440174018700,904,462,0,0,0,2,3,1,23,0002-00-0009-08.png,0003-00-0002-40.png
00000009,747,0,1440174021909,1440174022422,936,311,0,0,0,3,4,1,34,0003-00-0007-36.png,0004-00-0002-54.png
00000009,748,0,1440174025743,1440174026294,951,321,0,0,0,1,2,1,12,0001-00-0007-53.png,0002-00-0009-43.png
00000009,749,0,1440174029521,1440174030366,477,265,0,0,0,5,4,1,54,0005-00-0001-67.png,0004-00-0001-23.png
00000009,750,1,1440174033598,1440174034094,968,307,0,0,0,2,1,1,21,0002-00-0007-36.png,0001-00-0007-69.png
00000009,751,1,1440174035654,1440174036684,1080,279,0,0,0,4,3,1,43,0004-00-0000-45.png,0003-00-0007-76.png
00000009,752,0,1440174037559,1440174038171,936,514,0,0,0,4,5,1,45,0004-00-0003-12.png,0005-00-0002-77.png
00000009,753,0,1440174041369,1440174041983,951,303,0,0,0,1,2,1,12,0001-00-0009-28.png,0002-00-0000-83.png
00000009,754,1,1440174044990,1440174045026,897,358,0,0,0,3,2,1,32,0003-00-0004-39.png,0002-00-0007-73.png
00000009,755,0,1440174045981,1440174046162,862,488,0,0,0,3,4,1,34,0003-00-0002-92.png,0004-00-0003-35.png
00000009,756,1,1440174049435,1440174050029,934,323,0,0,0,2,1,1,21,0002-00-0003-58.png,0001-00-0007-37.png
00000009,757,1,1440174051435,1440174051574,924,410,0,0,0,5,4,1,54,0005-00-0007-76.png,0004-00-0006-27.png
00000009,758,1,1440174053071,1440174054052,1016,257,0,0,0,4,3,1,43,0004-00-0007-61.png,0003-00-0003-53.png
00000009,759,0,1440174055058,1440174055138,862,462,0,0,0,4,5,1,45,0004-00-0001-25.png,0005-00-0008-15.png
00000009,760,0,1440174058254,1440174058457,888,358,0,0,0,2,3,1,23,0002-00-0007-04.png,0003-00-0005-61.png
00000009,761,1,1440174061379,1440174061980,1026,279,0,0,0,3,2,1,32,0003-00-0002-16.png,0002-00-0009-62.png
00000009,762,1,1440174063431,1440174063672,906,417,0,0,0,5,4,1,54,0005-00-0008-21.png,0004-00-0000-59.png
00000009,763,0,1440174064559,1440174064639,862,462,0,0,0,1,2,1,12,0001-00-0008-54.png,0002-00-0000-43.png
00000009,764,1,1440174067758,1440174068258,968,296,0,0,0,2,1,1,21,0002-00-0005-67.png,0001-00-0006-60.png
00000009,765,0,1440174069641,1440174069947,874,488,0,0,0,4,5,1,45,0004-00-0000-76.png,0005-00-0005-18.png
00000009,766,1,1440174073165,1440174073681,962,305,0,0,0,4,3,1,43,0004-00-0001-15.png,0003-00-0002-84.png
00000009,767,0,1440174075075,1440174075514,948,462,0,0,0,2,3,1,23,0002-00-0003-91.png,0003-00-0008-96.png
00000009,768,0,1440174078750,1440174078790,945,348,0,0,0,3,4,1,34,0003-00-0002-66.png,0004-00-0006-57.png
00000009,769,1,1440174082301,1440174082891,939,343,0,0,0,4,3,1,43,0004-00-0009-20.png,0003-00-0005-44.png
00000009,770,0,1440174084394,1440174084557,913,395,0,0,0,3,4,1,34,0003-00-0002-00.png,0004-00-0001-27.png
00000009,771,0,1440174087663,1440174087774,888,306,0,0,0,2,3,1,23,0002-00-0003-70.png,0003-00-0006-27.png
00000009,772,0,1440174090954,1440174091470,947,411,0,0,0,1,2,1,12,0001-00-0007-07.png,0002-00-0003-12.png
00000009,773,1,1440174094623,1440174095167,964,321,0,0,0,5,4,1,54,0005-00-0006-27.png,0004-00-0000-50.png
00000009,774,1,1440174096292,1440174096607,889,511,0,0,0,3,2,1,32,0003-00-0008-93.png,0002-00-0007-22.png
00000009,775,0,1440174097928,1440174098067,885,469,0,0,0,4,5,1,45,0004-00-0001-34.png,0005-00-0005-73.png
00000009,776,1,1440174100929,1440174101452,941,296,0,0,0,2,1,1,21,0002-00-0002-21.png,0001-00-0000-75.png
00000009,777,1,1440174102923,1440174103095,888,410,0,0,0,5,4,1,54,0005-00-0006-09.png,0004-00-0002-45.png
00000009,778,0,1440174104002,1440174105285,1187,482,0,0,0,3,4,1,34,0003-00-0004-09.png,0004-00-0008-93.png
00000009,779,1,1440174108490,1440174108989,1073,282,0,0,0,2,1,1,21,0002-00-0006-62.png,0001-00-0007-53.png
00000009,780,1,1440174110320,1440174110522,906,467,0,0,0,3,2,1,32,0003-00-0003-46.png,0002-00-0007-90.png
00000009,781,0,1440174112090,1440174112358,913,488,0,0,0,1,2,1,12,0001-00-0007-77.png,0002-00-0005-87.png
00000009,782,1,1440174115253,1440174115321,889,439,0,0,0,4,3,1,43,0004-00-0002-38.png,0003-00-0003-75.png
00000009,783,0,1440174116185,1440174117347,1050,321,0,0,0,4,5,1,45,0004-00-0006-34.png,0005-00-0002-17.png
00000009,784,0,1440174120491,1440174120745,876,355,0,0,0,2,3,1,23,0002-00-0002-02.png,0003-00-0003-46.png
00000009,785,0,1440174123916,1440174124434,1079,253,0,0,0,1,2,1,12,0001-00-0001-82.png,0002-00-0006-49.png
00000009,786,0,1440174127426,1440174128155,964,291,0,0,0,2,3,1,23,0002-00-0007-74.png,0003-00-0002-67.png
00000009,787,1,1440174131273,1440174131912,1084,287,0,0,0,3,2,1,32,0003-00-0006-48.png,0002-00-0002-81.png
00000009,788,1,1440174133605,1440174134296,1097,262,0,0,0,4,3,1,43,0004-00-0000-61.png,0003-00-0005-83.png
00000009,789,1,1440174135783,1440174135988,929,488,0,0,0,5,4,1,54,0005-00-0003-96.png,0004-00-0004-24.png
00000009,790,0,1440174136865,1440174137024,879,462,0,0,0,3,4,1,34,0003-00-0004-27.png,0004-00-0003-74.png
00000009,791,1,1440174140392,1440174141072,1092,265,0,0,0,2,1,1,21,0002-00-0008-12.png,0001-00-0006-77.png
00000009,792,0,1440174142552,1440174142907,939,426,0,0,0,4,5,1,45,0004-00-0009-75.png,0005-00-0000-97.png
00000009,793,1,1440174146069,1440174146685,460,263,0,0,0,1,2,1,12,0001-00-0007-69.png,0002-00-0003-45.png
00000009,794,0,1440174148115,1440174148301,913,420,0,0,0,2,3,1,23,0002-00-0008-18.png,0003-00-0003-31.png
00000009,795,1,1440174151472,1440174151528,925,329,0,0,0,5,4,1,54,0005-00-0005-41.png,0004-00-0008-47.png
00000009,796,1,1440174152344,1440174153522,1027,279,0,0,0,2,1,1,21,0002-00-0000-95.png,0001-00-0006-94.png
00000009,797,1,1440174155004,1440174155135,913,462,0,0,0,3,2,1,32,0003-00-0004-45.png,0002-00-0003-90.png
00000009,798,0,1440174156267,1440174156347,879,462,0,0,0,4,5,1,45,0004-00-0009-12.png,0005-00-0006-10.png
00000009,799,0,1440174159473,1440174159501,890,361,0,0,0,3,4,1,34,0003-00-0004-32.png,0004-00-0005-51.png
00000009,800,1,1440174162682,1440174162980,877,353,0,0,0,4,3,1,43,0004-00-0002-17.png,0003-00-0003-61.png
00000009,801,1,1440174163927,1440174164215,886,486,0,0,0,2,1,1,21,0002-00-0004-94.png,0001-00-0009-30.png
00000009,802,0,1440174165509,1440174165713,888,478,0,0,0,1,2,1,12,0001-00-0009-61.png,0002-00-0004-94.png
00000009,803,1,1440174168875,1440174169449,936,302,0,0,0,4,3,1,43,0004-00-0000-32.png,0003-00-0008-84.png
00000009,804,0,1440174170645,1440174171377,978,369,0,0,0,4,5,1,45,0004-00-0003-74.png,0005-00-0004-49.png
00000009,805,0,1440174174587,1440174175329,939,264,0,0,0,2,3,1,23,0002-00-0000-99.png,0003-00-0007-28.png
00000009,806,0,1440174178670,1440174179266,1090,254,0,0,0,3,4,1,34,0003-00-0005-43.png,0004-00-0001-96.png
00000009,807,1,1440174182377,1440174182897,1094,280,0,0,0,5,4,1,54,0005-00-0001-14.png,0004-00-0007-68.png
00000009,808,1,1440174184387,1440174184533,913,384,0,0,0,3,2,1,32,0003-00-0002-28.png,0002-00-0003-45.png
00000009,809,1,1440174185668,1440174185782,888,462,0,0,0,3,2,1,32,0003-00-0004-68.png,0002-00-0002-68.png
00000009,810,1,1440174186780,1440174188155,478,239,0,0,0,1,2,1,12,0001-00-0005-58.png,0002-00-0005-45.png
00000009,811,1,1440174189462,1440174189743,888,436,0,0,0,5,4,1,54,0005-00-0005-79.png,0004-00-0002-48.png
00000009,812,0,1440174191335,1440174191443,888,445,0,0,0,2,3,1,23,0002-00-0002-47.png,0003-00-0009-67.png
00000009,813,0,1440174194462,1440174195098,1092,265,0,0,0,3,4,1,34,0003-00-0001-83.png,0004-00-0001-11.png
00000009,814,1,1440174198271,1440174198311,954,377,0,0,0,4,3,1,43,0004-00-0008-76.png,0003-00-0005-15.png
00000009,815,0,1440174199930,1440174199990,870,404,0,0,0,4,5,1,45,0004-00-0006-28.png,0005-00-0009-95.png
00000009,816,1,1440174203165,1440174203732,964,371,0,0,0,2,1,1,21,0002-00-0005-75.png,0001-00-0001-30.png
00000009,817,1,1440174205213,1440174205354,936,410,0,0,0,4,3,1,43,0004-00-0008-66.png,0003-00-0004-48.png
00000009,818,0,1440174206250,1440174206334,880,443,0,0,0,2,3,1,23,0002-00-0004-89.png,0003-00-0006-22.png
00000009,819,0,1440174209326,1440174209366,875,446,0,0,0,1,2,1,12,0001-00-0005-96.png,0002-00-0001-46.png
00000009,820,0,1440174212550,1440174212586,926,358,0,0,0,3,4,1,34,0003-00-0002-97.png,0004-00-0000-29.png
00000009,821,0,1440174215519,1440174215873,1017,388,0,0,0,4,5,1,45,0004-00-0001-36.png,0005-00-0001-70.png
00000009,822,1,1440174218866,1440174219617,914,321,0,0,0,5,4,1,54,0005-00-0004-98.png,0004-00-0004-85.png
00000009,823,0,1440174221558,1440174222268,457,239,0,0,0,2,1,1,21,0002-00-0006-39.png,0001-00-0002-36.png
00000009,824,1,1440174225178,1440174225709,938,315,0,0,0,3,2,1,32,0003-00-0005-70.png,0002-00-0003-43.png
00000009,825,1,1440174227024,1440174227245,913,436,0,0,0,5,4,1,54,0005-00-0003-35.png,0004-00-0002-73.png
00000009,826,1,1440174228650,1440174228749,877,462,0,0,0,3,2,1,32,0003-00-0005-62.png,0002-00-0004-05.png
00000009,827,0,1440174230851,1440174230990,937,408,0,0,0,3,4,1,34,0003-00-0001-74.png,0004-00-0009-26.png
00000009,828,1,1440174233850,1440174234461,945,291,0,0,0,2,1,1,21,0002-00-0002-20.png,0001-00-0000-44.png
00000009,829,0,1440174235981,1440174236072,910,408,0,0,0,2,3,1,23,0002-00-0004-94.png,0003-00-0004-35.png
00000009,830,0,1440174240571,1440174241184,915,346,0,0,0,4,5,1,45,0004-00-0007-92.png,0005-00-0007-80.png
00000009,831,0,1440174244308,1440174244348,896,347,0,0,0,1,2,1,12,0001-00-0005-67.png,0002-00-0009-57.png
00000009,832,1,1440174247370,1440174247924,932,334,0,0,0,4,3,1,43,0004-00-0005-53.png,0003-00-0005-45.png
00000009,833,0,1440174249925,1440174250576,935,298,0,0,0,1,2,1,12,0001-00-0006-36.png,0002-00-0003-39.png
00000009,834,0,1440174253430,1440174254075,962,363,0,0,0,4,5,1,45,0004-00-0008-06.png,0005-00-0009-69.png
00000009,835,1,1440174257259,1440174257792,944,328,0,0,0,5,4,1,54,0005-00-0002-56.png,0004-00-0006-33.png
00000009,836,0,1440174259335,1440174259427,888,384,0,0,0,3,4,1,34,0003-00-0009-84.png,0004-00-0004-86.png
00000009,837,1,1440174262606,1440174263229,979,391,0,0,0,2,1,1,21,0002-00-0001-79.png,0001-00-0001-41.png
00000009,838,1,1440174264611,1440174264781,913,394,0,0,0,3,2,1,32,0003-00-0008-20.png,0002-00-0002-03.png
00000009,839,0,1440174265605,1440174267103,470,247,0,0,0,4,3,1,43,0004-00-0005-45.png,0003-00-0008-28.png
00000009,840,0,1440174270036,1440174270147,927,436,0,0,0,2,3,1,23,0002-00-0002-21.png,0003-00-0007-28.png
00000009,841,1,1440174273276,1440174273819,990,399,0,0,0,3,2,1,32,0003-00-0000-19.png,0002-00-0001-58.png
00000009,842,1,1440174275335,1440174275497,960,409,0,0,0,4,3,1,43,0004-00-0007-16.png,0003-00-0006-85.png
00000009,843,0,1440174276398,1440174276470,862,447,0,0,0,1,2,1,12,0001-00-0004-76.png,0002-00-0008-75.png
00000009,844,1,1440174279778,1440174280302,1092,269,0,0,0,5,4,1,54,0005-00-0004-39.png,0004-00-0005-70.png
00000009,845,1,1440174281467,1440174281575,862,505,0,0,0,2,1,1,21,0002-00-0000-94.png,0001-00-0005-03.png
00000009,846,0,1440174282433,1440174282541,876,488,0,0,0,4,5,1,45,0004-00-0004-65.png,0005-00-0000-51.png
00000009,847,0,1440174285448,1440174285488,932,389,0,0,0,3,4,1,34,0003-00-0007-82.png,0004-00-0005-07.png
00000009,848,0,1440174288682,1440174289298,1092,279,0,0,0,2,3,1,23,0002-00-0003-87.png,0003-00-0007-79.png
00000009,849,0,1440174292468,1440174293090,326,382,0,0,0,3,2,1,32,0003-00-0000-30.png,0002-00-0005-45.png
00000009,850,1,1440174296313,1440174296333,964,356,0,0,0,4,3,1,43,0004-00-0005-34.png,0003-00-0003-66.png
00000009,851,0,1440174297282,1440174298345,892,350,0,0,0,3,4,1,34,0003-00-0009-45.png,0004-00-0008-40.png
00000009,852,0,1440174301557,1440174302170,434,241,0,0,0,2,1,1,21,0002-00-0007-68.png,0001-00-0009-90.png
00000009,853,0,1440174305128,1440174305653,962,327,0,0,0,2,3,1,23,0002-00-0002-61.png,0003-00-0009-16.png
00000009,854,0,1440174308925,1440174309439,939,291,0,0,0,4,5,1,45,0004-00-0002-96.png,0005-00-0001-72.png
00000009,855,1,1440174312322,1440174312364,918,330,0,0,0,5,4,1,54,0005-00-0000-88.png,0004-00-0007-83.png
00000009,856,0,1440174313298,1440174313429,882,403,0,0,0,1,2,1,12,0001-00-0009-56.png,0002-00-0008-61.png
00000009,857,1,1440174316936,1440174317487,424,279,0,0,0,2,3,1,23,0002-00-0005-87.png,0003-00-0008-37.png
00000009,858,0,1440174318358,1440174319833,912,352,0,0,0,3,4,1,34,0003-00-0002-92.png,0004-00-0000-49.png
00000009,859,1,1440174322789,1440174323900,1135,254,0,0,0,5,4,1,54,0005-00-0002-29.png,0004-00-0007-87.png
00000009,860,1,1440174324865,1440174325023,888,479,0,0,0,3,2,1,32,0003-00-0005-33.png,0002-00-0005-90.png
00000009,861,1,1440174326555,1440174326762,913,462,0,0,0,4,3,1,43,0004-00-0000-77.png,0003-00-0009-52.png
00000009,862,0,1440174327697,1440174329183,460,263,0,0,0,2,1,1,21,0002-00-0008-45.png,0001-00-0003-76.png
00000009,863,0,1440174332260,1440174332323,913,332,0,0,0,1,2,1,12,0001-00-0007-19.png,0002-00-0000-92.png
00000009,864,0,1440174335495,1440174336080,964,346,0,0,0,4,5,1,45,0004-00-0005-60.png,0005-00-0006-37.png
00000009,865,1,1440174339295,1440174339888,990,369,0,0,0,2,1,1,21,0002-00-0007-47.png,0001-00-0003-05.png
00000009,866,1,1440174340735,1440174341014,888,462,0,0,0,5,4,1,54,0005-00-0000-33.png,0004-00-0007-57.png
00000009,867,0,1440174341933,1440174342204,877,462,0,0,0,4,5,1,45,0004-00-0007-11.png,0005-00-0003-20.png
00000009,868,0,1440174345574,1440174345662,1016,301,0,0,0,3,4,1,34,0003-00-0009-97.png,0004-00-0001-71.png
00000009,869,1,1440174348958,1440174349495,966,308,0,0,0,4,3,1,43,0004-00-0004-47.png,0003-00-0006-50.png
00000009,870,0,1440174351090,1440174351910,943,301,0,0,0,2,3,1,23,0002-00-0005-44.png,0003-00-0007-57.png
00000009,871,0,1440174355050,1440174355605,990,423,0,0,0,1,2,1,12,0001-00-0002-27.png,0002-00-0004-33.png
00000009,872,1,1440174358821,1440174359366,936,322,0,0,0,3,2,1,32,0003-00-0007-63.png,0002-00-0007-77.png
00000009,873,1,1440174361203,1440174362157,959,301,0,0,0,5,4,1,54,0005-00-0008-16.png,0004-00-0002-44.png
00000009,874,0,1440174363690,1440174363986,929,410,0,0,0,4,5,1,45,0004-00-0006-79.png,0005-00-0003-00.png
00000009,875,1,1440174367189,1440174367766,1092,253,0,0,0,4,3,1,43,0004-00-0000-46.png,0003-00-0008-01.png
00000009,876,0,1440174369259,1440174369462,904,408,0,0,0,2,3,1,23,0002-00-0007-15.png,0003-00-0000-28.png
00000009,877,0,1440174372693,1440174373275,1090,276,0,0,0,3,4,1,34,0003-00-0005-30.png,0004-00-0002-67.png
00000009,878,0,1440174376443,1440174377095,456,279,0,0,0,3,2,1,32,0003-00-0004-79.png,0002-00-0002-67.png
00000009,879,1,1440174379988,1440174380560,965,324,0,0,0,2,1,1,21,0002-00-0003-72.png,0001-00-0001-26.png
00000009,880,0,1440174382156,1440174383084,899,385,0,0,0,1,2,1,12,0001-00-0002-54.png,0002-00-0003-10.png
00000009,881,0,1440174386286,1440174386810,965,329,0,0,0,2,3,1,23,0002-00-0008-06.png,0003-00-0008-58.png
00000009,882,1,1440174389656,1440174390207,967,293,0,0,0,4,3,1,43,0004-00-0004-16.png,0003-00-0000-90.png
00000009,883,1,1440174391087,1440174391311,862,445,0,0,0,5,4,1,54,0005-00-0009-90.png,0004-00-0002-43.png
00000009,884,0,1440174392171,1440174392325,871,436,0,0,0,1,2,1,12,0001-00-0002-45.png,0002-00-0008-42.png
00000009,885,0,1440174395361,1440174395381,871,358,0,0,0,3,4,1,34,0003-00-0003-25.png,0004-00-0003-84.png
00000009,886,1,1440174398536,1440174399054,964,314,0,0,0,3,2,1,32,0003-00-0008-66.png,0002-00-0000-45.png
00000009,887,0,1440174400657,1440174400906,888,410,0,0,0,4,5,1,45,0004-00-0007-33.png,0005-00-0009-05.png
00000009,888,1,1440174404105,1440174404161,967,336,0,0,0,2,1,1,21,0002-00-0008-29.png,0001-00-0004-26.png
00000009,889,1,1440174405018,1440174406306,885,349,0,0,0,5,4,1,54,0005-00-0007-08.png,0004-00-0009-26.png
00000009,890,1,1440174407775,1440174407972,964,425,0,0,0,4,3,1,43,0004-00-0002-87.png,0003-00-0001-26.png
00000009,891,0,1440174409583,1440174409930,880,522,0,0,0,2,3,1,23,0002-00-0000-87.png,0003-00-0002-54.png
00000009,892,0,1440174413069,1440174413650,1044,275,0,0,0,3,4,1,34,0003-00-0000-99.png,0004-00-0000-52.png
00000009,893,0,1440174416791,1440174417348,964,376,0,0,0,1,2,1,12,0001-00-0003-05.png,0002-00-0009-14.png
00000009,894,1,1440174420369,1440174420453,862,465,0,0,0,2,1,1,21,0002-00-0005-44.png,0001-00-0002-49.png
00000009,895,1,1440174421341,1440174421472,877,436,0,0,0,3,2,1,32,0003-00-0009-33.png,0002-00-0002-17.png
00000009,896,0,1440174422962,1440174423151,880,456,0,0,0,4,5,1,45,0004-00-0000-00.png,0005-00-0002-05.png
00000009,897,1,1440174426014,1440174426623,1067,279,0,0,0,3,2,1,32,0003-00-0009-83.png,0002-00-0003-49.png
00000009,898,0,1440174427922,1440174428103,939,473,0,0,0,2,3,1,23,0002-00-0002-92.png,0003-00-0009-84.png
00000009,899,1,1440174431029,1440174431578,945,334,0,0,0,2,1,1,21,0002-00-0001-99.png,0001-00-0007-06.png
00000009,900,0,1440174433478,1440174434108,1047,254,0,0,0,4,5,1,45,0004-00-0009-78.png,0005-00-0008-72.png
00000009,901,0,1440174437310,1440174438218,941,285,0,0,0,3,4,1,34,0003-00-0009-19.png,0004-00-0008-32.png
00000009,902,1,1440174441348,1440174441405,913,358,0,0,0,5,4,1,54,0005-00-0003-27.png,0004-00-0003-54.png
00000009,903,0,1440174442291,1440174443551,1041,279,0,0,0,1,2,1,12,0001-00-0009-34.png,0002-00-0005-10.png
00000009,904,1,1440174446565,1440174447185,966,288,0,0,0,4,3,1,43,0004-00-0009-02.png,0003-00-0009-84.png
00000009,905,1,1440174448842,1440174449035,944,409,0,0,0,4,3,1,43,0004-00-0007-26.png,0003-00-0009-70.png
00000009,906,1,1440174449959,1440174450048,862,462,0,0,0,2,1,1,21,0002-00-0000-14.png,0001-00-0009-54.png
00000009,907,0,1440174450975,1440174451859,474,528,0,0,0,3,2,1,32,0003-00-0007-25.png,0002-00-0005-72.png
00000009,908,1,1440174455060,1440174455652,1067,294,0,0,0,5,4,1,54,0005-00-0000-38.png,0004-00-0007-51.png
00000009,909,0,1440174457118,1440174457422,929,436,0,0,0,1,2,1,12,0001-00-0009-76.png,0002-00-0008-20.png
00000009,910,0,1440174460397,1440174460461,888,395,0,0,0,4,5,1,45,0004-00-0005-44.png,0005-00-0009-90.png
00000009,911,0,1440174463576,1440174464124,940,327,0,0,0,2,3,1,23,0002-00-0006-60.png,0003-00-0009-38.png
00000009,912,1,1440174467363,1440174468303,389,270,0,0,0,3,4,1,34,0003-00-0001-24.png,0004-00-0002-59.png
00000009,913,0,1440174469174,1440174469359,862,488,0,0,0,4,5,1,45,0004-00-0006-18.png,0005-00-0004-58.png
00000009,914,0,1440174473408,1440174473456,920,331,0,0,0,3,4,1,34,0003-00-0008-55.png,0004-00-0004-25.png
00000009,915,1,1440174476435,1440174476511,863,383,0,0,0,5,4,1,54,0005-00-0006-43.png,0004-00-0003-77.png
00000009,916,0,1440174477444,1440174477555,859,481,0,0,0,1,2,1,12,0001-00-0008-68.png,0002-00-0008-63.png
00000009,917,0,1440174480601,1440174481241,965,325,0,0,0,2,3,1,23,0002-00-0003-57.png,0003-00-0004-82.png
00000009,918,1,1440174484458,1440174484973,939,321,0,0,0,2,1,1,21,0002-00-0005-08.png,0001-00-0000-77.png
00000009,919,1,1440174486503,1440174486823,939,421,0,0,0,4,3,1,43,0004-00-0006-93.png,0003-00-0002-91.png
00000009,920,1,1440174487795,1440174487878,864,470,0,0,0,3,2,1,32,0003-00-0003-79.png,0002-00-0002-74.png
00000009,921,0,1440174489396,1440174489756,888,498,0,0,0,3,4,1,34,0003-00-0001-89.png,0004-00-0009-53.png
00000009,922,1,1440174493025,1440174493081,991,342,0,0,0,2,1,1,21,0002-00-0001-62.png,0001-00-0008-24.png
00000009,923,1,1440174493970,1440174495058,917,334,0,0,0,3,2,1,32,0003-00-0004-04.png,0002-00-0004-28.png
00000009,924,1,1440174496531,1440174497736,931,314,0,0,0,4,3,1,43,0004-00-0006-51.png,0003-00-0004-55.png
00000009,925,0,1440174499461,1440174499729,902,462,0,0,0,4,5,1,45,0004-00-0001-32.png,0005-00-0007-15.png
00000009,926,1,1440174502949,1440174503559,1093,278,0,0,0,5,4,1,54,0005-00-0004-47.png,0004-00-0005-36.png
00000009,927,0,1440174505009,1440174505120,888,445,0,0,0,2,3,1,23,0002-00-0002-41.png,0003-00-0002-10.png
00000009,928,1,1440174508051,1440174508702,495,222,0,0,0,1,2,1,12,0001-00-0009-09.png,0002-00-0003-95.png
00000009,929,0,1440174510147,1440174510391,955,429,0,0,0,1,2,1,12,0001-00-0005-40.png,0002-00-0008-67.png
00000009,930,0,1440174513751,1440174513811,969,345,0,0,0,2,3,1,23,0002-00-0003-64.png,0003-00-0008-97.png
00000009,931,0,1440174516894,1440174517462,1083,279,0,0,0,3,4,1,34,0003-00-0007-90.png,0004-00-0009-54.png
00000009,932,1,1440174520620,1440174521157,958,344,0,0,0,5,4,1,54,0005-00-0006-45.png,0004-00-0007-68.png
00000009,933,1,1440174521998,1440174522227,937,488,0,0,0,4,3,1,43,0004-00-0006-80.png,0003-00-0003-66.png
00000009,934,1,1440174523587,1440174524410,1047,244,0,0,0,2,1,1,21,0002-00-0008-74.png,0001-00-0008-92.png
00000009,935,1,1440174525837,1440174525940,909,437,0,0,0,3,2,1,32,0003-00-0006-52.png,0002-00-0006-56.png
00000009,936,0,1440174527436,1440174528319,908,350,0,0,0,4,5,1,45,0004-00-0000-38.png,0005-00-0009-64.png
00000009,937,0,1440174531455,1440174531543,913,394,0,0,0,2,3,1,23,0002-00-0005-55.png,0003-00-0000-89.png
00000009,938,1,1440174534707,1440174535253,939,399,0,0,0,2,1,1,21,0002-00-0005-18.png,0001-00-0009-60.png
00000009,939,1,1440174536336,1440174536474,905,482,0,0,0,5,4,1,54,0005-00-0000-00.png,0004-00-0008-03.png
00000009,940,1,1440174537458,1440174537534,880,444,0,0,0,4,3,1,43,0004-00-0004-14.png,0003-00-0004-93.png
00000009,941,1,1440174538805,1440174539971,470,246,0,0,0,1,2,1,12,0001-00-0007-92.png,0002-00-0007-89.png
