subject_id,trial,correct_response,stim_time,response_time,x_coord,y_coord,trial_timeout,timeout_time,interTrial_timeout,left_rank,right_rank,distance,joint_rank,left_image,right_image
00000009,1,0,1440086565775,1440086565787,453,420,0,0,0,5,4,1,54,0005-00-0003-85.png,0004-00-0005-35.png
00000009,2,0,1440086569107,1440086570528,1143,306,0,0,0,4,5,1,45,0004-00-0006-04.png,0005-00-0008-19.png
00000009,3,1,1440086573996,1440086574040,498,415,0,0,0,3,4,1,34,0003-00-0009-90.png,0004-00-0009-45.png
00000009,4,0,1440086576268,1440086577084,977,353,0,0,0,1,2,1,12,0001-00-0000-69.png,0002-00-0003-21.png
00000009,5,1,1440086580119,1440086581347,293,371,0,0,0,2,3,1,23,0002-00-0006-08.png,0003-00-0008-65.png
00000009,6,0,1440086583010,1440086584060,335,368,0,0,0,3,2,1,32,0003-00-0004-00.png,0002-00-0004-41.png
00000009,7,1,1440086587699,1440086588395,962,341,0,0,0,2,1,1,21,0002-00-0001-49.png,0001-00-0006-86.png
00000009,8,1,1440086589846,1440086590809,989,337,0,0,0,4,3,1,43,0004-00-0006-41.png,0003-00-0005-14.png
00000009,9,1,1440086591691,1440086593446,333,412,0,0,0,1,2,1,12,0001-00-0009-85.png,0002-00-0007-08.png
00000009,10,1,1440086594834,1440086596146,989,320,0,0,0,5,4,1,54,0005-00-0000-38.png,0004-00-0005-95.png
00000009,11,1,1440086597061,1440086598613,996,327,0,0,0,3,2,1,32,0003-00-0000-93.png,0002-00-0007-65.png
00000009,12,1,1440086599948,1440086601325,967,357,0,0,0,2,1,1,21,0002-00-0007-49.png,0001-00-0001-97.png
00000009,13,1,1440086602718,1440086603648,965,372,0,0,0,4,3,1,43,0004-00-0003-65.png,0003-00-0007-31.png
00000009,14,0,1440086604586,1440086604638,888,477,0,0,0,2,3,1,23,0002-00-0000-31.png,0003-00-0004-49.png
00000009,15,0,1440086607894,1440086608740,985,309,0,0,0,4,5,1,45,0004-00-0009-57.png,0005-00-0004-24.png
00000009,16,1,1440086611948,1440086612999,372,302,0,0,0,3,4,1,34,0003-00-0008-13.png,0004-00-0006-34.png
00000009,17,0,1440086614086,1440086615399,379,290,0,0,0,4,3,1,43,0004-00-0001-29.png,0003-00-0001-14.png
00000009,18,0,1440086619533,1440086620553,1048,351,0,0,0,1,2,1,12,0001-00-0003-45.png,0002-00-0001-86.png
00000009,19,0,1440086625058,1440086625774,249,354,0,0,0,3,2,1,32,0003-00-0000-65.png,0002-00-0007-02.png
00000009,20,1,1440086629133,1440086629744,1057,356,0,0,0,5,4,1,54,0005-00-0005-32.png,0004-00-0002-36.png
00000009,21,1,1440086630581,1440086632408,354,371,0,0,0,2,3,1,23,0002-00-0008-56.png,0003-00-0000-91.png
00000009,22,0,1440086633376,1440086634666,295,426,0,0,0,2,1,1,21,0002-00-0004-33.png,0001-00-0009-03.png
00000009,23,0,1440086637599,1440086638632,940,350,0,0,0,4,5,1,45,0004-00-0007-07.png,0005-00-0007-83.png
00000009,24,0,1440086642452,1440086643782,1047,335,0,0,0,3,4,1,34,0003-00-0004-96.png,0004-00-0006-28.png
00000009,25,1,1440086647503,1440086648744,410,302,0,0,0,2,3,1,23,0002-00-0005-91.png,0003-00-0007-71.png
00000009,26,1,1440086649614,1440086649642,874,475,0,0,0,4,3,1,43,0004-00-0007-49.png,0003-00-0008-25.png
00000009,27,1,1440086650534,1440086651803,962,327,0,0,0,5,4,1,54,0005-00-0004-70.png,0004-00-0008-25.png
00000009,28,0,1440086652761,1440086654119,418,265,0,0,0,2,1,1,21,0002-00-0008-87.png,0001-00-0007-79.png
00000009,29,0,1440086657313,1440086657325,964,306,0,0,0,1,2,1,12,0001-00-0000-87.png,0002-00-0004-64.png
00000009,30,0,1440086660506,1440086661333,456,280,0,0,0,3,2,1,32,0003-00-0002-53.png,0002-00-0000-83.png
00000009,31,0,1440086664735,1440086664750,893,350,0,0,0,4,5,1,45,0004-00-0002-56.png,0005-00-0006-84.png
00000009,32,0,1440086668413,1440086669176,961,356,0,0,0,3,4,1,34,0003-00-0000-54.png,0004-00-0006-40.png
00000009,33,1,1440086672328,1440086672952,956,389,0,0,0,5,4,1,54,0005-00-0001-67.png,0004-00-0003-76.png
00000009,34,0,1440086674695,1440086674767,888,449,0,0,0,1,2,1,12,0001-00-0009-56.png,0002-00-0003-77.png
00000009,35,1,1440086678013,1440086678798,1092,306,0,0,0,3,2,1,32,0003-00-0008-62.png,0002-00-0000-77.png
00000009,36,0,1440086680228,1440086680312,902,386,0,0,0,4,5,1,45,0004-00-0000-20.png,0005-00-0005-10.png
00000009,37,1,1440086683489,1440086684084,1072,275,0,0,0,2,1,1,21,0002-00-0003-07.png,0001-00-0009-74.png
00000009,38,0,1440086684959,1440086686422,396,271,0,0,0,4,3,1,43,0004-00-0005-52.png,0003-00-0000-14.png
00000009,39,1,1440086700079,1440086700249,457,407,0,0,0,2,3,1,23,0002-00-0007-57.png,0003-00-0005-80.png
00000009,40,0,1440086701943,1440086702847,960,299,0,0,0,3,4,1,34,0003-00-0002-14.png,0004-00-0007-71.png
00000009,41,1,1440086706091,1440086707228,459,280,0,0,0,3,4,1,34,0003-00-0005-03.png,0004-00-0006-65.png
00000009,42,1,1440086708144,1440086708455,897,462,0,0,0,5,4,1,54,0005-00-0005-43.png,0004-00-0009-69.png
00000009,43,0,1440086709805,1440086709829,902,293,0,0,0,2,3,1,23,0002-00-0004-47.png,0003-00-0008-13.png
00000009,44,1,1440086712835,1440086713797,339,401,0,0,0,1,2,1,12,0001-00-0000-02.png,0002-00-0002-23.png
00000009,45,1,1440086715122,1440086716399,945,345,0,0,0,2,1,1,21,0002-00-0004-37.png,0001-00-0005-89.png
00000009,46,0,1440086717276,1440086717927,939,472,0,0,0,4,5,1,45,0004-00-0007-71.png,0005-00-0006-10.png
00000009,47,1,1440086721491,1440086722008,993,313,0,0,0,3,2,1,32,0003-00-0001-90.png,0002-00-0007-87.png
00000009,48,1,1440086724001,1440086724585,1014,313,0,0,0,4,3,1,43,0004-00-0003-66.png,0003-00-0009-41.png
00000009,49,1,1440086725421,1440086727214,386,287,0,0,0,2,3,1,23,0002-00-0006-78.png,0003-00-0001-56.png
00000009,50,0,1440086728087,1440086729543,989,339,0,0,0,3,4,1,34,0003-00-0007-79.png,0004-00-0000-35.png
00000009,51,0,1440086732652,1440086733403,432,290,0,0,0,5,4,1,54,0005-00-0001-48.png,0004-00-0001-38.png
00000009,52,1,1440086736608,1440086737282,1082,306,0,0,0,3,2,1,32,0003-00-0006-11.png,0002-00-0000-87.png
00000009,53,1,1440086738146,1440086738299,890,433,0,0,0,4,3,1,43,0004-00-0008-62.png,0003-00-0001-97.png
00000009,54,1,1440086739158,1440086739284,913,426,0,0,0,2,1,1,21,0002-00-0003-88.png,0001-00-0009-88.png
00000009,55,1,1440086741597,1440086742693,447,291,0,0,0,4,5,1,45,0004-00-0007-80.png,0005-00-0003-82.png
00000009,56,0,1440086743594,1440086744858,1039,275,0,0,0,1,2,1,12,0001-00-0003-04.png,0002-00-0001-31.png
00000009,57,0,1440086748037,1440086748597,982,335,0,0,0,4,5,1,45,0004-00-0009-65.png,0005-00-0003-31.png
00000009,58,0,1440086751922,1440086752503,318,432,0,0,0,4,3,1,43,0004-00-0001-46.png,0003-00-0000-19.png
00000009,59,0,1440086755758,1440086756842,1129,291,0,0,0,1,2,1,12,0001-00-0006-39.png,0002-00-0002-92.png
00000009,60,1,1440086760101,1440086760165,869,292,0,0,0,5,4,1,54,0005-00-0004-86.png,0004-00-0008-55.png
00000009,61,1,1440086761153,1440086761217,880,417,0,0,0,2,1,1,21,0002-00-0009-57.png,0001-00-0003-16.png
00000009,62,1,1440086762372,1440086762462,857,462,0,0,0,3,2,1,32,0003-00-0000-20.png,0002-00-0009-94.png
00000009,63,0,1440086763549,1440086763720,881,455,0,0,0,3,4,1,34,0003-00-0008-55.png,0004-00-0002-52.png
00000009,64,0,1440086766908,1440086767488,1083,302,0,0,0,2,3,1,23,0002-00-0004-91.png,0003-00-0006-85.png
00000009,65,0,1440086770706,1440086771403,1081,263,0,0,0,3,4,1,34,0003-00-0002-08.png,0004-00-0009-30.png
00000009,66,1,1440086774542,1440086775734,1085,279,0,0,0,3,2,1,32,0003-00-0007-08.png,0002-00-0005-33.png
00000009,67,0,1440086776597,1440086776681,888,499,0,0,0,1,2,1,12,0001-00-0004-46.png,0002-00-0009-21.png
00000009,68,1,1440086780062,1440086780999,348,411,0,0,0,2,3,1,23,0002-00-0003-22.png,0003-00-0005-37.png
00000009,69,0,1440086781933,1440086781969,888,462,0,0,0,4,5,1,45,0004-00-0009-66.png,0005-00-0003-39.png
00000009,70,0,1440086785156,1440086785831,426,314,0,0,0,4,3,1,43,0004-00-0008-44.png,0003-00-0006-11.png
00000009,71,1,1440086789032,1440086789155,875,305,0,0,0,5,4,1,54,0005-00-0003-58.png,0004-00-0002-07.png
00000009,72,1,1440086790085,1440086790205,913,399,0,0,0,2,1,1,21,0002-00-0007-46.png,0001-00-0001-95.png
00000009,73,0,1440086791387,1440086792764,964,345,0,0,0,3,4,1,34,0003-00-0007-63.png,0004-00-0003-50.png
00000009,74,1,1440086796088,1440086797043,1110,309,0,0,0,5,4,1,54,0005-00-0008-31.png,0004-00-0006-73.png
00000009,75,0,1440086798044,1440086799382,433,336,0,0,0,3,2,1,32,0003-00-0004-87.png,0002-00-0005-32.png
00000009,76,0,1440086802577,1440086803222,966,349,0,0,0,4,5,1,45,0004-00-0003-04.png,0005-00-0000-19.png
00000009,77,0,1440086806433,1440086807456,1118,290,0,0,0,2,3,1,23,0002-00-0008-88.png,0003-00-0005-23.png
00000009,78,1,1440086810846,1440086811039,866,366,0,0,0,2,1,1,21,0002-00-0004-10.png,0001-00-0000-24.png
00000009,79,1,1440086812992,1440086813568,1008,348,0,0,0,4,3,1,43,0004-00-0003-55.png,0003-00-0007-99.png
00000009,80,0,1440086814514,1440086814731,888,523,0,0,0,1,2,1,12,0001-00-0000-85.png,0002-00-0007-24.png
00000009,81,1,1440086817946,1440086818793,988,323,0,0,0,3,2,1,32,0003-00-0007-83.png,0002-00-0006-16.png
00000009,82,0,1440086819619,1440086820826,962,393,0,0,0,1,2,1,12,0001-00-0009-20.png,0002-00-0007-22.png
00000009,83,1,1440086823995,1440086824567,994,319,0,0,0,2,1,1,21,0002-00-0002-45.png,0001-00-0001-31.png
00000009,84,1,1440086825419,1440086825499,898,463,0,0,0,4,3,1,43,0004-00-0002-38.png,0003-00-0000-70.png
00000009,85,0,1440086826652,1440086826732,888,499,0,0,0,3,4,1,34,0003-00-0000-84.png,0004-00-0009-50.png
00000009,86,0,1440086830722,1440086831721,928,332,0,0,0,4,5,1,45,0004-00-0000-35.png,0005-00-0001-12.png
00000009,87,1,1440086834927,1440086836044,448,340,0,0,0,2,3,1,23,0002-00-0001-76.png,0003-00-0001-65.png
00000009,88,1,1440086836996,1440086837056,886,488,0,0,0,5,4,1,54,0005-00-0008-41.png,0004-00-0002-36.png
00000009,89,0,1440086838158,1440086839434,966,339,0,0,0,4,5,1,45,0004-00-0003-10.png,0005-00-0003-19.png
00000009,90,1,1440086859087,1440086859091,864,437,0,0,0,4,3,1,43,0004-00-0008-08.png,0003-00-0000-17.png
00000009,91,0,1440086860969,1440086862129,402,301,0,0,0,5,4,1,54,0005-00-0005-58.png,0004-00-0005-96.png
00000009,92,0,1440086865471,1440086865515,914,337,0,0,0,3,4,1,34,0003-00-0000-25.png,0004-00-0008-41.png
00000009,93,0,1440086868680,1440086869276,954,349,0,0,0,1,2,1,12,0001-00-0001-79.png,0002-00-0007-44.png
00000009,94,1,1440086872467,1440086873035,968,321,0,0,0,2,1,1,21,0002-00-0008-02.png,0001-00-0004-33.png
00000009,95,0,1440086874017,1440086874359,939,488,0,0,0,2,3,1,23,0002-00-0002-69.png,0003-00-0006-57.png
00000009,96,1,1440086877760,1440086878498,987,350,0,0,0,3,2,1,32,0003-00-0005-76.png,0002-00-0003-30.png
00000009,97,0,1440086879353,1440086879679,888,514,0,0,0,2,3,1,23,0002-00-0003-95.png,0003-00-0008-91.png
00000009,98,1,1440086883029,1440086884102,939,371,0,0,0,5,4,1,54,0005-00-0005-04.png,0004-00-0005-33.png
00000009,99,1,1440086885535,1440086885935,862,436,0,0,0,3,2,1,32,0003-00-0000-78.png,0002-00-0006-18.png
00000009,100,1,1440086887166,1440086889003,466,277,0,0,0,1,2,1,12,0001-00-0005-64.png,0002-00-0005-18.png
00000009,101,0,1440086889844,1440086889961,910,485,0,0,0,3,4,1,34,0003-00-0009-41.png,0004-00-0002-48.png
00000009,102,0,1440086892812,1440086894332,1114,326,0,0,0,4,5,1,45,0004-00-0009-94.png,0005-00-0003-48.png
00000009,103,1,1440086897311,1440086898253,966,334,0,0,0,2,1,1,21,0002-00-0001-48.png,0001-00-0006-44.png
00000009,104,1,1440086899847,1440086900243,888,452,0,0,0,4,3,1,43,0004-00-0003-88.png,0003-00-0002-92.png
00000009,105,1,1440086901417,1440086901469,913,503,0,0,0,4,3,1,43,0004-00-0000-87.png,0003-00-0004-60.png
00000009,106,1,1440086902882,1440086902922,862,462,0,0,0,3,2,1,32,0003-00-0006-82.png,0002-00-0006-47.png
00000009,107,0,1440086904203,1440086905433,474,267,0,0,0,5,4,1,54,0005-00-0003-37.png,0004-00-0001-22.png
00000009,108,0,1440086908651,1440086909702,985,352,0,0,0,1,2,1,12,0001-00-0006-02.png,0002-00-0006-78.png
00000009,109,1,1440086919072,1440086921589,299,332,0,0,0,2,3,1,23,0002-00-0003-86.png,0003-00-0008-15.png
00000009,110,1,1440086923595,1440086924392,324,391,0,0,0,4,5,1,45,0004-00-0007-46.png,0005-00-0007-35.png
00000009,111,0,1440086925394,1440086927319,960,324,0,0,0,3,4,1,34,0003-00-0009-77.png,0004-00-0005-65.png
00000009,112,1,1440086930427,1440086931128,1024,339,0,0,0,2,1,1,21,0002-00-0006-07.png,0001-00-0001-09.png
00000009,113,0,1440086931977,1440086932605,937,484,0,0,0,2,3,1,23,0002-00-0006-67.png,0003-00-0008-74.png
00000009,114,0,1440086936064,1440086936116,862,283,0,0,0,4,5,1,45,0004-00-0007-59.png,0005-00-0009-76.png
00000009,115,0,1440086939271,1440086939890,482,275,0,0,0,4,3,1,43,0004-00-0000-36.png,0003-00-0008-70.png
00000009,116,1,1440086943069,1440086943632,960,306,0,0,0,2,1,1,21,0002-00-0002-44.png,0001-00-0001-55.png
00000009,117,1,1440086944549,1440086944902,867,514,0,0,0,5,4,1,54,0005-00-0000-07.png,0004-00-0002-59.png
00000009,118,1,1440086945987,1440086946563,913,531,0,0,0,3,2,1,32,0003-00-0003-90.png,0002-00-0003-44.png
00000009,119,0,1440086947521,1440086947597,897,462,0,0,0,3,4,1,34,0003-00-0005-91.png,0004-00-0000-57.png
00000009,120,0,1440086951207,1440086951853,988,329,0,0,0,1,2,1,12,0001-00-0008-34.png,0002-00-0005-88.png
00000009,121,1,1440086955720,1440086955927,945,328,0,0,0,4,3,1,43,0004-00-0003-32.png,0003-00-0005-51.png
00000009,122,0,1440086956971,1440086957027,923,436,0,0,0,3,4,1,34,0003-00-0001-60.png,0004-00-0000-54.png
00000009,123,0,1440086960626,1440086962291,1093,307,0,0,0,2,3,1,23,0002-00-0005-35.png,0003-00-0007-33.png
00000009,124,0,1440086965583,1440086966211,990,374,0,0,0,1,2,1,12,0001-00-0009-73.png,0002-00-0006-19.png
00000009,125,1,1440086969276,1440086970101,1130,322,0,0,0,3,2,1,32,0003-00-0004-96.png,0002-00-0005-74.png
00000009,126,1,1440086970993,1440086971157,889,450,0,0,0,5,4,1,54,0005-00-0006-15.png,0004-00-0007-18.png
00000009,127,1,1440086971991,1440086972055,862,474,0,0,0,2,1,1,21,0002-00-0005-19.png,0001-00-0007-35.png
00000009,128,0,1440086973458,1440086975154,1068,295,0,0,0,4,5,1,45,0004-00-0003-68.png,0005-00-0000-09.png
00000009,129,0,1440086978429,1440086979428,964,322,0,0,0,4,5,1,45,0004-00-0002-55.png,0005-00-0006-08.png
00000009,130,1,1440086982762,1440086983675,1013,337,0,0,0,4,3,1,43,0004-00-0009-18.png,0003-00-0005-09.png
00000009,131,0,1440086985167,1440086985242,862,424,0,0,0,3,4,1,34,0003-00-0007-40.png,0004-00-0006-19.png
00000009,132,0,1440086988204,1440086989121,315,358,0,0,0,5,4,1,54,0005-00-0009-84.png,0004-00-0001-71.png
00000009,133,1,1440086992374,1440086993078,1041,397,0,0,0,2,1,1,21,0002-00-0000-72.png,0001-00-0003-83.png
00000009,134,0,1440086995086,1440086996086,354,370,0,0,0,3,2,1,32,0003-00-0004-48.png,0002-00-0008-93.png
00000009,135,0,1440086999603,1440087000151,990,402,0,0,0,1,2,1,12,0001-00-0004-88.png,0002-00-0006-68.png
00000009,136,0,1440087003274,1440087004404,1169,358,0,0,0,2,3,1,23,0002-00-0008-86.png,0003-00-0000-56.png
00000009,137,0,1440087007637,1440087008581,964,367,0,0,0,4,5,1,45,0004-00-0007-10.png,0005-00-0006-01.png
00000009,138,1,1440087012044,1440087013778,990,373,0,0,0,5,4,1,54,0005-00-0008-47.png,0004-00-0003-41.png
00000009,139,1,1440087015323,1440087017475,966,376,0,0,0,4,3,1,43,0004-00-0004-51.png,0003-00-0002-68.png
00000009,140,1,1440087018961,1440087020466,990,335,0,0,0,2,1,1,21,0002-00-0002-36.png,0001-00-0008-17.png
00000009,141,0,1440087021862,1440087021946,869,390,0,0,0,3,4,1,34,0003-00-0003-59.png,0004-00-0007-14.png
00000009,142,1,1440087025142,1440087026124,427,279,0,0,0,1,2,1,12,0001-00-0000-54.png,0002-00-0003-95.png
00000009,143,1,1440087027558,1440087028758,966,390,0,0,0,3,2,1,32,0003-00-0005-68.png,0002-00-0007-25.png
00000009,144,0,1440087030003,1440087030966,970,353,0,0,0,2,3,1,23,0002-00-0005-85.png,0003-00-0006-00.png
00000009,145,0,1440087034147,1440087034930,995,322,0,0,0,4,5,1,45,0004-00-0001-43.png,0005-00-0001-06.png
00000009,146,0,1440087038141,1440087039182,990,400,0,0,0,2,3,1,23,0002-00-0005-34.png,0003-00-0009-48.png
00000009,147,0,1440087042218,1440087043414,429,293,0,0,0,2,1,1,21,0002-00-0005-98.png,0001-00-0005-57.png
00000009,148,1,1440087046711,1440087047762,990,410,0,0,0,4,3,1,43,0004-00-0004-99.png,0003-00-0001-62.png
00000009,149,0,1440087049245,1440087050550,944,337,0,0,0,1,2,1,12,0001-00-0006-67.png,0002-00-0000-59.png
00000009,150,1,1440087058501,1440087059835,382,359,0,0,0,3,4,1,34,0003-00-0001-80.png,0004-00-0004-27.png
00000009,151,0,1440087062504,1440087063268,453,292,0,0,0,3,2,1,32,0003-00-0004-10.png,0002-00-0001-29.png
00000009,152,0,1440087066475,1440087067283,309,332,0,0,0,5,4,1,54,0005-00-0006-90.png,0004-00-0006-08.png
00000009,153,0,1440087070614,1440087071283,350,344,0,0,0,4,3,1,43,0004-00-0008-82.png,0003-00-0003-51.png
00000009,154,1,1440087074520,1440087075133,914,301,0,0,0,5,4,1,54,0005-00-0007-63.png,0004-00-0000-24.png
00000009,155,1,1440087076915,1440087076959,912,307,0,0,0,2,1,1,21,0002-00-0002-58.png,0001-00-0004-73.png
00000009,156,0,1440087078159,1440087078243,913,506,0,0,0,3,4,1,34,0003-00-0007-23.png,0004-00-0006-61.png
00000009,157,0,1440087081446,1440087081470,867,305,0,0,0,2,3,1,23,0002-00-0004-22.png,0003-00-0004-77.png
00000009,158,0,1440087084398,1440087085122,989,327,0,0,0,4,5,1,45,0004-00-0003-61.png,0005-00-0008-50.png
00000009,159,0,1440087088898,1440087088974,913,279,0,0,0,1,2,1,12,0001-00-0005-73.png,0002-00-0005-76.png
00000009,160,1,1440087092201,1440087093302,996,351,0,0,0,3,2,1,32,0003-00-0004-22.png,0002-00-0000-92.png
00000009,161,1,1440087094242,1440087094475,964,505,0,0,0,5,4,1,54,0005-00-0004-45.png,0004-00-0005-84.png
00000009,162,1,1440087096007,1440087096434,913,451,0,0,0,4,3,1,43,0004-00-0000-03.png,0003-00-0007-65.png
00000009,163,0,1440087098353,1440087098445,888,436,0,0,0,4,5,1,45,0004-00-0004-55.png,0005-00-0004-39.png
00000009,164,1,1440087101671,1440087102399,382,380,0,0,0,3,4,1,34,0003-00-0009-52.png,0004-00-0002-58.png
00000009,165,1,1440087103257,1440087103424,868,470,0,0,0,2,1,1,21,0002-00-0004-92.png,0001-00-0009-88.png
00000009,166,1,1440087104733,1440087106172,454,265,0,0,0,1,2,1,12,0001-00-0008-57.png,0002-00-0002-75.png
00000009,167,1,1440087107097,1440087107181,862,514,0,0,0,3,2,1,32,0003-00-0009-16.png,0002-00-0000-75.png
00000009,168,0,1440087108763,1440087108972,862,498,0,0,0,2,3,1,23,0002-00-0008-37.png,0003-00-0004-49.png
00000009,169,0,1440087111867,1440087112542,476,284,0,0,0,5,4,1,54,0005-00-0009-53.png,0004-00-0000-70.png
00000009,170,0,1440087116112,1440087117087,406,258,0,0,0,4,3,1,43,0004-00-0003-75.png,0003-00-0005-97.png
00000009,171,0,1440087120336,1440087121039,939,400,0,0,0,4,5,1,45,0004-00-0003-66.png,0005-00-0004-37.png
00000009,172,0,1440087124739,1440087126317,1115,279,0,0,0,1,2,1,12,0001-00-0001-11.png,0002-00-0004-16.png
00000009,173,0,1440087132074,1440087132912,962,325,0,0,0,2,3,1,23,0002-00-0000-62.png,0003-00-0004-72.png
00000009,174,1,1440087136547,1440087136631,862,302,0,0,0,2,1,1,21,0002-00-0005-44.png,0001-00-0005-48.png
00000009,175,1,1440087137609,1440087137750,911,535,0,0,0,3,2,1,32,0003-00-0003-05.png,0002-00-0008-11.png
00000009,176,0,1440087139091,1440087139203,872,462,0,0,0,3,4,1,34,0003-00-0002-69.png,0004-00-0001-29.png
00000009,177,0,1440087143194,1440087143934,967,344,0,0,0,4,5,1,45,0004-00-0004-59.png,0005-00-0004-28.png
00000009,178,0,1440087150337,1440087150430,918,258,0,0,0,2,3,1,23,0002-00-0001-66.png,0003-00-0008-72.png
00000009,179,1,1440087154782,1440087155325,966,330,0,0,0,2,1,1,21,0002-00-0007-27.png,0001-00-0006-84.png
00000009,180,1,1440087156286,1440087156414,888,462,0,0,0,3,2,1,32,0003-00-0003-86.png,0002-00-0002-29.png
00000009,181,0,1440087157662,1440087157786,875,488,0,0,0,3,4,1,34,0003-00-0006-67.png,0004-00-0006-37.png
00000009,182,0,1440087161014,1440087162689,335,322,0,0,0,5,4,1,54,0005-00-0001-05.png,0004-00-0009-68.png
00000009,183,0,1440087165927,1440087166644,983,343,0,0,0,1,2,1,12,0001-00-0000-03.png,0002-00-0008-18.png
00000009,184,1,1440087170202,1440087171154,990,420,0,0,0,4,3,1,43,0004-00-0000-42.png,0003-00-0009-82.png
00000009,185,0,1440087172083,1440087172321,938,536,0,0,0,2,3,1,23,0002-00-0007-58.png,0003-00-0001-18.png
00000009,186,1,1440087175641,1440087175701,862,345,0,0,0,4,3,1,43,0004-00-0007-63.png,0003-00-0001-57.png
00000009,187,1,1440087177737,1440087177789,857,284,0,0,0,2,1,1,21,0002-00-0002-50.png,0001-00-0004-55.png
00000009,188,0,1440087179965,1440087181216,1143,291,0,0,0,1,2,1,12,0001-00-0004-56.png,0002-00-0009-43.png
00000009,189,0,1440087184504,1440087184516,859,307,0,0,0,4,5,1,45,0004-00-0005-45.png,0005-00-0002-63.png
00000009,190,1,1440087187793,1440087187825,898,351,0,0,0,5,4,1,54,0005-00-0009-15.png,0004-00-0000-19.png
00000009,191,1,1440087188847,1440087190376,990,395,0,0,0,3,2,1,32,0003-00-0009-08.png,0002-00-0002-55.png
00000009,192,0,1440087192789,1440087192813,867,271,0,0,0,3,4,1,34,0003-00-0008-50.png,0004-00-0001-44.png
00000009,193,1,1440087196016,1440087197122,994,316,0,0,0,5,4,1,54,0005-00-0002-84.png,0004-00-0008-26.png
00000009,194,1,1440087199182,1440087199206,866,263,0,0,0,4,3,1,43,0004-00-0005-08.png,0003-00-0006-79.png
00000009,195,0,1440087200136,1440087200228,913,514,0,0,0,4,5,1,45,0004-00-0008-95.png,0005-00-0006-98.png
00000009,196,0,1440087203366,1440087204390,982,309,0,0,0,2,3,1,23,0002-00-0006-09.png,0003-00-0002-76.png
00000009,197,1,1440087230568,1440087233424,1068,352,0,0,0,3,2,1,32,0003-00-0009-16.png,0002-00-0005-74.png
00000009,198,0,1440087235281,1440087235912,987,344,0,0,0,1,2,1,12,0001-00-0000-64.png,0002-00-0002-75.png
00000009,199,1,1440087238868,1440087239970,342,385,0,0,0,3,4,1,34,0003-00-0006-99.png,0004-00-0005-37.png
00000009,200,0,1440087241843,1440087242798,368,380,0,0,0,2,1,1,21,0002-00-0004-32.png,0001-00-0003-43.png
00000009,201,1,1440087245907,1440087246775,972,340,0,0,0,2,1,1,21,0002-00-0007-67.png,0001-00-0005-06.png
00000009,202,1,1440087248788,1440087249528,474,269,0,0,0,2,3,1,23,0002-00-0008-25.png,0003-00-0004-61.png
00000009,203,0,1440087250976,1440087251814,972,339,0,0,0,3,4,1,34,0003-00-0001-05.png,0004-00-0006-41.png
00000009,204,1,1440087254939,1440087255689,469,262,0,0,0,1,2,1,12,0001-00-0002-79.png,0002-00-0007-61.png
00000009,205,1,1440087257370,1440087257572,877,514,0,0,0,5,4,1,54,0005-00-0007-72.png,0004-00-0003-85.png
00000009,206,1,1440087258419,1440087260032,1068,275,0,0,0,3,2,1,32,0003-00-0007-43.png,0002-00-0002-77.png
00000009,207,0,1440087261497,1440087261686,886,443,0,0,0,4,5,1,45,0004-00-0003-71.png,0005-00-0004-55.png
00000009,208,0,1440087264874,1440087265767,362,381,0,0,0,4,3,1,43,0004-00-0008-34.png,0003-00-0000-04.png
00000009,209,1,1440087268940,1440087269862,1094,310,0,0,0,4,3,1,43,0004-00-0009-27.png,0003-00-0004-05.png
00000009,210,1,1440087271813,1440087272633,964,348,0,0,0,5,4,1,54,0005-00-0004-48.png,0004-00-0005-77.png
00000009,211,1,1440087274263,1440087274323,884,412,0,0,0,3,2,1,32,0003-00-0000-49.png,0002-00-0000-08.png
00000009,212,0,1440087275301,1440087276747,1014,410,0,0,0,1,2,1,12,0001-00-0001-33.png,0002-00-0000-52.png
00000009,213,0,1440087280011,1440087280604,962,367,0,0,0,2,3,1,23,0002-00-0004-85.png,0003-00-0006-32.png
00000009,214,0,1440087283748,1440087284465,432,292,0,0,0,2,1,1,21,0002-00-0008-01.png,0001-00-0003-58.png
00000009,215,0,1440087287613,1440087288366,983,305,0,0,0,3,4,1,34,0003-00-0005-63.png,0004-00-0002-16.png
00000009,216,1,1440087291887,1440087292908,438,280,0,0,0,4,5,1,45,0004-00-0003-09.png,0005-00-0007-73.png
00000009,217,1,1440087295077,1440087295866,495,265,0,0,0,1,2,1,12,0001-00-0001-62.png,0002-00-0003-18.png
00000009,218,1,1440087297449,1440087297529,862,446,0,0,0,4,3,1,43,0004-00-0001-13.png,0003-00-0004-23.png
00000009,219,0,1440087298741,1440087300200,946,336,0,0,0,4,5,1,45,0004-00-0002-20.png,0005-00-0000-18.png
00000009,220,1,1440087303356,1440087304328,453,257,0,0,0,2,3,1,23,0002-00-0004-48.png,0003-00-0002-61.png
00000009,221,0,1440087305932,1440087306350,862,472,0,0,0,3,4,1,34,0003-00-0004-27.png,0004-00-0007-94.png
00000009,222,1,1440087309777,1440087310370,985,338,0,0,0,2,1,1,21,0002-00-0000-98.png,0001-00-0007-92.png
00000009,223,1,1440087312242,1440087313606,971,337,0,0,0,3,2,1,32,0003-00-0005-60.png,0002-00-0007-34.png
00000009,224,1,1440087315411,1440087315808,938,444,0,0,0,5,4,1,54,0005-00-0003-40.png,0004-00-0000-38.png
00000009,225,0,1440087316913,1440087318279,458,281,0,0,0,5,4,1,54,0005-00-0002-38.png,0004-00-0007-31.png
00000009,226,0,1440087321523,1440087322339,946,333,0,0,0,4,5,1,45,0004-00-0006-33.png,0005-00-0004-48.png
00000009,227,1,1440087325564,1440087326101,1093,330,0,0,0,4,3,1,43,0004-00-0009-93.png,0003-00-0009-03.png
00000009,228,0,1440087327735,1440087327819,872,462,0,0,0,2,3,1,23,0002-00-0001-73.png,0003-00-0007-62.png
00000009,229,1,1440087331010,1440087332044,956,357,0,0,0,3,2,1,32,0003-00-0001-93.png,0002-00-0006-90.png
00000009,230,1,1440087333982,1440087334781,504,266,0,0,0,1,2,1,12,0001-00-0007-67.png,0002-00-0004-29.png
00000009,231,1,1440087335625,1440087336811,1067,288,0,0,0,2,1,1,21,0002-00-0008-42.png,0001-00-0008-26.png
00000009,232,0,1440087338726,1440087338770,868,426,0,0,0,3,4,1,34,0003-00-0007-18.png,0004-00-0002-54.png
00000009,233,0,1440087341878,1440087342565,384,368,0,0,0,4,3,1,43,0004-00-0009-59.png,0003-00-0000-08.png
00000009,234,1,1440087345789,1440087346945,361,384,0,0,0,3,4,1,34,0003-00-0005-97.png,0004-00-0009-89.png
00000009,235,1,1440087347960,1440087348036,875,462,0,0,0,3,2,1,32,0003-00-0008-98.png,0002-00-0003-72.png
00000009,236,0,1440087349440,1440087350658,959,340,0,0,0,4,5,1,45,0004-00-0009-95.png,0005-00-0003-17.png
00000009,237,1,1440087353823,1440087354912,479,264,0,0,0,1,2,1,12,0001-00-0005-42.png,0002-00-0000-10.png
00000009,238,0,1440087356576,1440087357959,1143,294,0,0,0,2,3,1,23,0002-00-0008-91.png,0003-00-0003-34.png
00000009,239,1,1440087361237,1440087362218,963,331,0,0,0,5,4,1,54,0005-00-0007-51.png,0004-00-0001-34.png
00000009,240,1,1440087363212,1440087363280,885,442,0,0,0,2,1,1,21,0002-00-0002-04.png,0001-00-0008-77.png
00000009,241,0,1440087365570,1440087366265,502,245,0,0,0,4,3,1,43,0004-00-0001-55.png,0003-00-0004-26.png
00000009,242,0,1440087369377,1440087369956,979,358,0,0,0,4,5,1,45,0004-00-0002-85.png,0005-00-0009-36.png
00000009,243,0,1440087387348,1440087387553,934,288,0,0,0,2,3,1,23,0002-00-0004-43.png,0003-00-0000-70.png
00000009,244,1,1440087391036,1440087391080,436,434,0,0,0,1,2,1,12,0001-00-0002-66.png,0002-00-0009-77.png
00000009,245,1,1440087393063,1440087393894,978,436,0,0,0,2,1,1,21,0002-00-0007-48.png,0001-00-0001-65.png
00000009,246,1,1440087395677,1440087396413,990,436,0,0,0,5,4,1,54,0005-00-0001-42.png,0004-00-0003-55.png
00000009,247,1,1440087397794,1440087398710,1042,310,0,0,0,3,2,1,32,0003-00-0008-99.png,0002-00-0002-03.png
00000009,248,0,1440087399664,1440087400651,964,357,0,0,0,3,4,1,34,0003-00-0000-97.png,0004-00-0005-07.png
00000009,249,0,1440087403882,1440087404747,399,416,0,0,0,5,4,1,54,0005-00-0005-14.png,0004-00-0007-80.png
00000009,250,0,1440087408008,1440087408124,875,301,0,0,0,2,3,1,23,0002-00-0001-23.png,0003-00-0000-00.png
00000009,251,0,1440087411309,1440087411933,969,302,0,0,0,4,5,1,45,0004-00-0007-60.png,0005-00-0006-96.png
00000009,252,1,1440087415201,1440087416520,391,253,0,0,0,1,2,1,12,0001-00-0001-51.png,0002-00-0005-12.png
00000009,253,1,1440087418077,1440087418639,444,260,0,0,0,3,4,1,34,0003-00-0006-67.png,0004-00-0002-23.png
00000009,254,1,1440087420076,1440087420950,943,341,0,0,0,4,3,1,43,0004-00-0006-28.png,0003-00-0007-39.png
00000009,255,1,1440087422329,1440087422694,866,460,0,0,0,3,2,1,32,0003-00-0009-77.png,0002-00-0000-84.png
00000009,256,0,1440087423721,1440087424882,441,295,0,0,0,2,1,1,21,0002-00-0002-47.png,0001-00-0005-37.png
00000009,257,1,1440087428060,1440087428746,967,342,0,0,0,4,3,1,43,0004-00-0002-96.png,0003-00-0003-44.png
00000009,258,0,1440087430281,1440087431215,489,254,0,0,0,3,2,1,32,0003-00-0002-29.png,0002-00-0006-99.png
00000009,259,0,1440087434474,1440087434478,864,316,0,0,0,3,4,1,34,0003-00-0001-83.png,0004-00-0009-38.png
00000009,260,1,1440087437962,1440087438581,409,350,0,0,0,2,3,1,23,0002-00-0008-95.png,0003-00-0007-46.png
00000009,261,1,1440087440108,1440087441195,1010,339,0,0,0,5,4,1,54,0005-00-0005-13.png,0004-00-0002-50.png
00000009,262,0,1440087442810,1440087442944,881,428,0,0,0,4,5,1,45,0004-00-0002-48.png,0005-00-0002-23.png
00000009,263,0,1440087446110,1440087446182,863,332,0,0,0,1,2,1,12,0001-00-0004-73.png,0002-00-0004-11.png
00000009,264,1,1440087449385,1440087450314,996,347,0,0,0,2,1,1,21,0002-00-0000-28.png,0001-00-0004-61.png
00000009,265,0,1440087451214,1440087451403,939,499,0,0,0,4,5,1,45,0004-00-0000-42.png,0005-00-0006-37.png
00000009,266,0,1440087454576,1440087454632,862,306,0,0,0,2,3,1,23,0002-00-0002-24.png,0003-00-0005-23.png
00000009,267,1,1440087458190,1440087459144,984,346,0,0,0,5,4,1,54,0005-00-0001-66.png,0004-00-0001-29.png
00000009,268,1,1440087460659,1440087460964,888,436,0,0,0,3,2,1,32,0003-00-0001-52.png,0002-00-0003-59.png
00000009,269,1,1440087461996,1440087462056,888,462,0,0,0,2,1,1,21,0002-00-0006-53.png,0001-00-0007-49.png
00000009,270,0,1440087462974,1440087464414,959,391,0,0,0,1,2,1,12,0001-00-0001-83.png,0002-00-0006-19.png
00000009,271,1,1440087467722,1440087468712,1092,271,0,0,0,4,3,1,43,0004-00-0009-76.png,0003-00-0004-45.png
00000009,272,0,1440087470055,1440087470326,913,427,0,0,0,3,4,1,34,0003-00-0008-11.png,0004-00-0004-60.png
00000009,273,1,1440087473289,1440087474184,1004,437,0,0,0,5,4,1,54,0005-00-0003-26.png,0004-00-0009-65.png
00000009,274,0,1440087475575,1440087475655,862,499,0,0,0,1,2,1,12,0001-00-0004-86.png,0002-00-0004-41.png
00000009,275,0,1440087478983,1440087479535,1118,279,0,0,0,3,4,1,34,0003-00-0002-34.png,0004-00-0006-62.png
00000009,276,0,1440087507101,1440087507169,945,351,0,0,0,2,3,1,23,0002-00-0006-20.png,0003-00-0007-74.png
00000009,277,0,1440087511952,1440087512591,1065,296,0,0,0,4,5,1,45,0004-00-0004-83.png,0005-00-0006-81.png
00000009,278,1,1440087515930,1440087516557,967,354,0,0,0,3,2,1,32,0003-00-0004-72.png,0002-00-0009-87.png
00000009,279,0,1440087517440,1440087518998,438,249,0,0,0,2,1,1,21,0002-00-0009-96.png,0001-00-0007-38.png
00000009,280,1,1440087522329,1440087522933,990,355,0,0,0,4,3,1,43,0004-00-0001-14.png,0003-00-0005-73.png
00000009,281,1,1440087524497,1440087525420,1090,303,0,0,0,5,4,1,54,0005-00-0003-13.png,0004-00-0006-28.png
00000009,282,1,1440087527703,1440087528660,443,266,0,0,0,4,5,1,45,0004-00-0009-52.png,0005-00-0007-00.png
00000009,283,1,1440087530007,1440087531317,960,340,0,0,0,3,2,1,32,0003-00-0007-55.png,0002-00-0009-98.png
00000009,284,0,1440087532665,1440087533489,911,324,0,0,0,3,4,1,34,0003-00-0000-38.png,0004-00-0005-82.png
00000009,285,1,1440087536660,1440087537336,465,278,0,0,0,2,3,1,23,0002-00-0005-61.png,0003-00-0002-11.png
00000009,286,1,1440087538787,1440087538989,862,436,0,0,0,4,3,1,43,0004-00-0007-94.png,0003-00-0004-71.png
00000009,287,1,1440087539977,1440087541229,494,305,0,0,0,1,2,1,12,0001-00-0007-44.png,0002-00-0009-12.png
00000009,288,1,1440087542323,1440087543824,1044,274,0,0,0,2,1,1,21,0002-00-0001-92.png,0001-00-0005-36.png
00000009,289,0,1440087545305,1440087545397,876,384,0,0,0,4,5,1,45,0004-00-0004-63.png,0005-00-0009-22.png
00000009,290,1,1440087548642,1440087549196,969,331,0,0,0,5,4,1,54,0005-00-0000-24.png,0004-00-0008-51.png
00000009,291,1,1440087550121,1440087551582,949,355,0,0,0,4,3,1,43,0004-00-0005-37.png,0003-00-0001-10.png
00000009,292,0,1440087553017,1440087553120,888,400,0,0,0,1,2,1,12,0001-00-0009-15.png,0002-00-0005-60.png
00000009,293,0,1440087556248,1440087556802,368,382,0,0,0,3,2,1,32,0003-00-0000-17.png,0002-00-0000-70.png
00000009,294,1,1440087560050,1440087560136,883,278,0,0,0,2,1,1,21,0002-00-0005-19.png,0001-00-0000-65.png
00000009,295,0,1440087561588,1440087562219,990,383,0,0,0,3,4,1,34,0003-00-0005-38.png,0004-00-0002-48.png
00000009,296,1,1440087565361,1440087566103,453,262,0,0,0,2,3,1,23,0002-00-0003-89.png,0003-00-0005-34.png
00000009,297,1,1440087567407,1440087567695,864,420,0,0,0,4,3,1,43,0004-00-0009-96.png,0003-00-0004-18.png
00000009,298,0,1440087568708,1440087568784,862,447,0,0,0,1,2,1,12,0001-00-0004-28.png,0002-00-0009-72.png
00000009,299,1,1440087571994,1440087572514,1001,384,0,0,0,5,4,1,54,0005-00-0009-40.png,0004-00-0009-57.png
00000009,300,0,1440087573886,1440087574009,888,436,0,0,0,2,3,1,23,0002-00-0006-88.png,0003-00-0007-94.png
00000009,301,1,1440087577176,1440087577847,1067,279,0,0,0,3,2,1,32,0003-00-0001-70.png,0002-00-0006-50.png
00000009,302,0,1440087578703,1440087578844,888,541,0,0,0,3,4,1,34,0003-00-0002-66.png,0004-00-0005-97.png
00000009,303,0,1440087582204,1440087582781,993,328,0,0,0,4,5,1,45,0004-00-0009-82.png,0005-00-0001-16.png
00000009,304,1,1440087586249,1440087586313,879,276,0,0,0,2,1,1,21,0002-00-0006-25.png,0001-00-0004-68.png
00000009,305,0,1440087587614,1440087588828,953,356,0,0,0,1,2,1,12,0001-00-0000-37.png,0002-00-0004-36.png
00000009,306,0,1440087592039,1440087592621,469,292,0,0,0,3,2,1,32,0003-00-0006-41.png,0002-00-0005-82.png
00000009,307,1,1440087595849,1440087596555,1092,322,0,0,0,5,4,1,54,0005-00-0002-56.png,0004-00-0008-12.png
00000009,308,1,1440087597589,1440087597685,873,514,0,0,0,4,3,1,43,0004-00-0009-56.png,0003-00-0004-89.png
00000009,309,0,1440087599248,1440087599284,868,403,0,0,0,3,4,1,34,0003-00-0007-58.png,0004-00-0007-51.png
00000009,310,0,1440087602468,1440087603229,428,303,0,0,0,2,1,1,21,0002-00-0006-90.png,0001-00-0006-77.png
00000009,311,0,1440087620251,1440087620255,862,306,0,0,0,4,5,1,45,0004-00-0002-95.png,0005-00-0004-40.png
00000009,312,1,1440087623872,1440087624861,292,366,0,0,0,2,3,1,23,0002-00-0003-05.png,0003-00-0006-96.png
00000009,313,1,1440087627082,1440087627915,460,266,0,0,0,2,3,1,23,0002-00-0003-44.png,0003-00-0001-60.png
00000009,314,0,1440087628737,1440087630093,964,351,0,0,0,1,2,1,12,0001-00-0000-50.png,0002-00-0003-88.png
00000009,315,0,1440087633481,1440087634301,983,302,0,0,0,3,4,1,34,0003-00-0001-33.png,0004-00-0007-24.png
00000009,316,0,1440087651538,1440087654047,954,383,0,0,0,4,5,1,45,0004-00-0009-21.png,0005-00-0001-43.png
00000009,317,1,1440087657763,1440087658434,1067,279,0,0,0,4,3,1,43,0004-00-0007-75.png,0003-00-0006-06.png
00000009,318,0,1440087660376,1440087660992,448,296,0,0,0,2,1,1,21,0002-00-0003-49.png,0001-00-0009-68.png
00000009,319,1,1440087664526,1440087665114,964,345,0,0,0,3,2,1,32,0003-00-0001-36.png,0002-00-0002-14.png
00000009,320,1,1440087667111,1440087667754,990,410,0,0,0,5,4,1,54,0005-00-0004-95.png,0004-00-0000-16.png
00000009,321,1,1440087669577,1440087670304,941,320,0,0,0,4,3,1,43,0004-00-0003-24.png,0003-00-0008-08.png
00000009,322,0,1440087672003,1440087672265,916,433,0,0,0,4,5,1,45,0004-00-0003-57.png,0005-00-0005-70.png
00000009,323,1,1440087675381,1440087675405,888,358,0,0,0,3,2,1,32,0003-00-0006-19.png,0002-00-0004-79.png
00000009,324,1,1440087677151,1440087677487,1016,375,0,0,0,5,4,1,54,0005-00-0007-56.png,0004-00-0005-61.png
00000009,325,0,1440087678317,1440087678577,941,480,0,0,0,2,3,1,23,0002-00-0007-38.png,0003-00-0003-91.png
00000009,326,0,1440087681835,1440087682444,960,326,0,0,0,1,2,1,12,0001-00-0001-00.png,0002-00-0003-86.png
00000009,327,1,1440087685958,1440087686038,862,318,0,0,0,2,1,1,21,0002-00-0006-92.png,0001-00-0006-81.png
00000009,328,1,1440087687453,1440087688929,425,276,0,0,0,3,4,1,34,0003-00-0003-38.png,0004-00-0008-98.png
00000009,329,1,1440087690663,1440087691901,477,286,0,0,0,3,4,1,34,0003-00-0000-21.png,0004-00-0000-76.png
00000009,330,1,1440087693549,1440087693857,888,479,0,0,0,3,2,1,32,0003-00-0005-96.png,0002-00-0006-97.png
00000009,331,1,1440087694765,1440087694813,879,462,0,0,0,4,3,1,43,0004-00-0003-85.png,0003-00-0001-06.png
00000009,332,1,1440087696336,1440087697373,1026,410,0,0,0,5,4,1,54,0005-00-0002-61.png,0004-00-0008-50.png
00000009,333,0,1440087698483,1440087698606,874,488,0,0,0,4,5,1,45,0004-00-0002-66.png,0005-00-0001-35.png
00000009,334,1,1440087701775,1440087702401,375,403,0,0,0,1,2,1,12,0001-00-0009-05.png,0002-00-0003-67.png
00000009,335,0,1440087703637,1440087703721,906,508,0,0,0,2,3,1,23,0002-00-0007-53.png,0003-00-0006-48.png
00000009,336,1,1440087706918,1440087707652,1096,312,0,0,0,2,1,1,21,0002-00-0008-74.png,0001-00-0004-81.png
00000009,337,0,1440087708680,1440087708813,921,541,0,0,0,2,3,1,23,0002-00-0008-44.png,0003-00-0005-90.png
00000009,338,0,1440087712201,1440087712916,487,255,0,0,0,5,4,1,54,0005-00-0008-24.png,0004-00-0003-21.png
00000009,339,0,1440087716251,1440087716747,996,316,0,0,0,1,2,1,12,0001-00-0000-37.png,0002-00-0002-69.png
00000009,340,1,1440087720249,1440087720271,939,332,0,0,0,3,2,1,32,0003-00-0002-22.png,0002-00-0000-58.png
00000009,341,1,1440087721187,1440087721267,880,482,0,0,0,4,3,1,43,0004-00-0008-71.png,0003-00-0007-79.png
00000009,342,0,1440087722784,1440087724091,975,300,0,0,0,4,5,1,45,0004-00-0006-21.png,0005-00-0003-50.png
00000009,343,0,1440087727683,1440087728228,1124,306,0,0,0,3,4,1,34,0003-00-0005-37.png,0004-00-0006-19.png
00000009,344,1,1440087746461,1440087746469,905,325,0,0,0,2,1,1,21,0002-00-0004-94.png,0001-00-0004-63.png
00000009,345,1,1440087747915,1440087749057,1058,308,0,0,0,2,1,1,21,0002-00-0000-52.png,0001-00-0007-41.png
00000009,346,0,1440087750461,1440087751549,440,272,0,0,0,5,4,1,54,0005-00-0002-47.png,0004-00-0007-24.png
00000009,347,1,1440087754662,1440087755413,966,388,0,0,0,4,3,1,43,0004-00-0002-16.png,0003-00-0007-67.png
00000009,348,1,1440087756254,1440087757377,439,277,0,0,0,4,5,1,45,0004-00-0007-63.png,0005-00-0008-68.png
00000009,349,0,1440087758884,1440087759678,922,385,0,0,0,1,2,1,12,0001-00-0003-46.png,0002-00-0009-34.png
00000009,350,0,1440087762662,1440087763272,1092,306,0,0,0,2,3,1,23,0002-00-0008-30.png,0003-00-0003-00.png
00000009,351,1,1440087766537,1440087766581,867,333,0,0,0,3,2,1,32,0003-00-0009-07.png,0002-00-0006-20.png
00000009,352,0,1440087768226,1440087768598,939,488,0,0,0,3,4,1,34,0003-00-0009-88.png,0004-00-0003-09.png
00000009,353,1,1440087771962,1440087772814,459,270,0,0,0,4,5,1,45,0004-00-0008-43.png,0005-00-0002-82.png
00000009,354,1,1440087774330,1440087774508,888,447,0,0,0,3,2,1,32,0003-00-0006-20.png,0002-00-0005-43.png
00000009,355,0,1440087776176,1440087776250,862,462,0,0,0,3,4,1,34,0003-00-0001-03.png,0004-00-0000-16.png
00000009,356,1,1440087815300,1440087815376,886,332,0,0,0,4,3,1,43,0004-00-0001-79.png,0003-00-0007-37.png
00000009,357,1,1440087816432,1440087816508,964,447,0,0,0,2,1,1,21,0002-00-0007-93.png,0001-00-0008-39.png
00000009,358,0,1440087817556,1440087817588,862,410,0,0,0,1,2,1,12,0001-00-0005-65.png,0002-00-0005-45.png
00000009,359,1,1440087820857,1440087821280,254,354,0,0,0,2,3,1,23,0002-00-0009-01.png,0003-00-0000-91.png
00000009,360,1,1440087822516,1440087823406,897,403,0,0,0,5,4,1,54,0005-00-0005-66.png,0004-00-0002-16.png
00000009,361,1,1440087824920,1440087825711,943,365,0,0,0,5,4,1,54,0005-00-0009-12.png,0004-00-0000-90.png
00000009,362,1,1440087827152,1440087828160,1070,277,0,0,0,2,1,1,21,0002-00-0002-93.png,0001-00-0001-87.png
00000009,363,0,1440087829530,1440087830749,469,261,0,0,0,3,2,1,32,0003-00-0008-64.png,0002-00-0002-32.png
00000009,364,0,1440087833923,1440087834659,976,384,0,0,0,2,3,1,23,0002-00-0005-83.png,0003-00-0004-14.png
00000009,365,1,1440087837938,1440087838026,886,283,0,0,0,4,3,1,43,0004-00-0008-42.png,0003-00-0006-90.png
00000009,366,1,1440087838927,1440087840574,389,259,0,0,0,1,2,1,12,0001-00-0007-77.png,0002-00-0006-91.png
00000009,367,0,1440087841924,1440087842903,937,346,0,0,0,3,4,1,34,0003-00-0002-95.png,0004-00-0004-94.png
00000009,368,1,1440087846077,1440087846851,455,263,0,0,0,4,5,1,45,0004-00-0000-75.png,0005-00-0002-81.png
00000009,369,0,1440087848383,1440087849066,467,306,0,0,0,3,2,1,32,0003-00-0009-09.png,0002-00-0005-47.png
00000009,370,1,1440087852742,1440087853319,968,357,0,0,0,2,1,1,21,0002-00-0004-10.png,0001-00-0009-00.png
00000009,371,0,1440087854704,1440087855724,939,390,0,0,0,4,5,1,45,0004-00-0003-00.png,0005-00-0003-25.png
00000009,372,1,1440087859412,1440087860259,441,266,0,0,0,3,4,1,34,0003-00-0006-60.png,0004-00-0001-94.png
00000009,373,0,1440087861699,1440087862001,862,472,0,0,0,2,3,1,23,0002-00-0007-17.png,0003-00-0007-91.png
00000009,374,1,1440087889962,1440087890856,934,346,0,0,0,4,3,1,43,0004-00-0008-71.png,0003-00-0009-24.png
00000009,375,1,1440087891829,1440087891946,888,436,0,0,0,5,4,1,54,0005-00-0004-35.png,0004-00-0002-42.png
00000009,376,0,1440087893093,1440087893453,888,384,0,0,0,1,2,1,12,0001-00-0001-36.png,0002-00-0005-89.png
00000009,377,0,1440087896909,1440087897025,945,306,0,0,0,2,3,1,23,0002-00-0008-21.png,0003-00-0001-57.png
00000009,378,0,1440087900031,1440087900750,407,428,0,0,0,3,2,1,32,0003-00-0004-77.png,0002-00-0009-41.png
00000009,379,1,1440087904036,1440087904652,968,339,0,0,0,4,3,1,43,0004-00-0006-92.png,0003-00-0007-52.png
00000009,380,1,1440087906371,1440087907034,453,279,0,0,0,4,5,1,45,0004-00-0005-91.png,0005-00-0002-95.png
00000009,381,0,1440087908440,1440087909551,962,325,0,0,0,1,2,1,12,0001-00-0006-87.png,0002-00-0003-85.png
00000009,382,1,1440087913457,1440087913493,862,348,0,0,0,2,1,1,21,0002-00-0004-56.png,0001-00-0003-80.png
00000009,383,0,1440087914865,1440087914941,512,535,0,0,0,5,4,1,54,0005-00-0002-52.png,0004-00-0006-38.png
00000009,384,0,1440087918493,1440087919035,989,354,0,0,0,3,4,1,34,0003-00-0004-90.png,0004-00-0006-41.png
00000009,385,1,1440087922172,1440087922770,511,240,0,0,0,1,2,1,12,0001-00-0004-45.png,0002-00-0009-42.png
00000009,386,0,1440087923761,1440087923895,888,514,0,0,0,3,4,1,34,0003-00-0003-91.png,0004-00-0004-56.png
00000009,387,1,1440087927311,1440087928100,941,363,0,0,0,3,2,1,32,0003-00-0004-98.png,0002-00-0003-33.png
00000009,388,0,1440087929401,1440087929485,862,453,0,0,0,2,3,1,23,0002-00-0006-40.png,0003-00-0007-12.png
00000009,389,0,1440087932747,1440087933617,930,355,0,0,0,4,5,1,45,0004-00-0004-61.png,0005-00-0002-77.png
00000009,390,0,1440087936883,1440087937735,408,269,0,0,0,5,4,1,54,0005-00-0001-25.png,0004-00-0005-50.png
00000009,391,1,1440087940997,1440087941105,866,307,0,0,0,2,1,1,21,0002-00-0008-38.png,0001-00-0001-46.png
00000009,392,0,1440087943132,1440087944203,464,250,0,0,0,4,3,1,43,0004-00-0006-14.png,0003-00-0004-47.png
00000009,393,0,1440087947566,1440087947638,874,279,0,0,0,3,4,1,34,0003-00-0008-80.png,0004-00-0009-30.png
00000009,394,0,1440087950825,1440087951521,1066,305,0,0,0,4,5,1,45,0004-00-0006-61.png,0005-00-0004-13.png
00000009,395,0,1440087954707,1440087955417,964,346,0,0,0,1,2,1,12,0001-00-0003-90.png,0002-00-0009-03.png
00000009,396,1,1440087958606,1440087959220,979,436,0,0,0,5,4,1,54,0005-00-0009-52.png,0004-00-0002-98.png
00000009,397,0,1440087960901,1440087961493,941,342,0,0,0,2,3,1,23,0002-00-0006-50.png,0003-00-0001-04.png
00000009,398,1,1440087965285,1440087965842,964,337,0,0,0,2,1,1,21,0002-00-0000-18.png,0001-00-0004-96.png
00000009,399,1,1440087966792,1440087966894,867,494,0,0,0,3,2,1,32,0003-00-0003-90.png,0002-00-0003-67.png
00000009,400,0,1440087968144,1440087969311,489,253,0,0,0,4,3,1,43,0004-00-0001-85.png,0003-00-0006-19.png
00000009,401,1,1440087972694,1440087973226,960,335,0,0,0,2,1,1,21,0002-00-0007-00.png,0001-00-0006-69.png
00000009,402,0,1440087974708,1440087974864,862,436,0,0,0,2,3,1,23,0002-00-0004-33.png,0003-00-0000-32.png
00000009,403,1,1440087978025,1440087978879,962,335,0,0,0,5,4,1,54,0005-00-0005-77.png,0004-00-0003-51.png
00000009,404,1,1440087980409,1440087981605,1063,307,0,0,0,3,2,1,32,0003-00-0006-49.png,0002-00-0002-74.png
00000009,405,0,1440087983085,1440087983233,862,420,0,0,0,4,5,1,45,0004-00-0001-40.png,0005-00-0009-86.png
00000009,406,1,1440087986840,1440087987367,293,352,0,0,0,1,2,1,12,0001-00-0005-53.png,0002-00-0001-73.png
00000009,407,0,1440087988596,1440087989472,1041,268,0,0,0,3,4,1,34,0003-00-0008-17.png,0004-00-0009-59.png
00000009,408,1,1440087992633,1440087993180,962,355,0,0,0,4,3,1,43,0004-00-0007-53.png,0003-00-0006-66.png
00000009,409,0,1440087994594,1440087995591,376,376,0,0,0,4,3,1,43,0004-00-0002-80.png,0003-00-0009-23.png
00000009,410,1,1440087998759,1440087999657,437,253,0,0,0,3,4,1,34,0003-00-0008-59.png,0004-00-0003-33.png
00000009,411,0,1440088001379,1440088002008,940,328,0,0,0,4,5,1,45,0004-00-0003-47.png,0005-00-0003-36.png
00000009,412,1,1440088011857,1440088011893,890,322,0,0,0,2,1,1,21,0002-00-0009-59.png,0001-00-0002-86.png
00000009,413,0,1440088012727,1440088013833,975,355,0,0,0,2,3,1,23,0002-00-0006-13.png,0003-00-0004-05.png
00000009,414,0,1440088017002,1440088017779,967,345,0,0,0,1,2,1,12,0001-00-0006-90.png,0002-00-0006-61.png
00000009,415,0,1440088021100,1440088022304,428,268,0,0,0,5,4,1,54,0005-00-0009-16.png,0004-00-0008-37.png
00000009,416,1,1440088069776,1440088069988,1042,295,0,0,0,3,2,1,32,0003-00-0003-78.png,0002-00-0003-17.png
00000009,417,1,1440088070848,1440088072429,449,263,0,0,0,2,3,1,23,0002-00-0004-78.png,0003-00-0008-88.png
00000009,418,1,1440088073843,1440088074634,989,233,0,0,0,4,3,1,43,0004-00-0009-66.png,0003-00-0000-98.png
00000009,419,1,1440088075988,1440088076243,862,462,0,0,0,2,1,1,21,0002-00-0004-99.png,0001-00-0005-68.png
00000009,420,1,1440088077669,1440088078540,453,230,0,0,0,4,5,1,45,0004-00-0004-28.png,0005-00-0001-11.png
00000009,421,1,1440088080421,1440088081003,936,330,0,0,0,3,2,1,32,0003-00-0004-51.png,0002-00-0007-17.png
00000009,422,1,1440088082315,1440088082959,1019,276,0,0,0,5,4,1,54,0005-00-0002-56.png,0004-00-0006-95.png
00000009,423,0,1440088084416,1440088084997,913,514,0,0,0,3,4,1,34,0003-00-0005-36.png,0004-00-0005-58.png
00000009,424,0,1440088087932,1440088087980,881,311,0,0,0,1,2,1,12,0001-00-0000-75.png,0002-00-0008-80.png
00000009,425,0,1440088095148,1440088095705,959,387,0,0,0,4,5,1,45,0004-00-0009-94.png,0005-00-0002-46.png
00000009,426,1,1440088098574,1440088099422,968,354,0,0,0,2,1,1,21,0002-00-0006-68.png,0001-00-0000-78.png
00000009,427,1,1440088101070,1440088101805,444,270,0,0,0,3,4,1,34,0003-00-0008-93.png,0004-00-0003-02.png
00000009,428,1,1440088103215,1440088103834,436,436,0,0,0,1,2,1,12,0001-00-0002-35.png,0002-00-0003-81.png
00000009,429,0,1440088105195,1440088106586,991,352,0,0,0,2,3,1,23,0002-00-0008-67.png,0003-00-0007-68.png
00000009,430,1,1440088110303,1440088110889,967,362,0,0,0,4,3,1,43,0004-00-0000-12.png,0003-00-0008-69.png
00000009,431,1,1440088112301,1440088112819,882,565,0,0,0,3,2,1,32,0003-00-0007-69.png,0002-00-0006-52.png
00000009,432,0,1440088113801,1440088115085,460,222,0,0,0,5,4,1,54,0005-00-0006-01.png,0004-00-0000-07.png
00000009,433,0,1440088118612,1440088119178,980,354,0,0,0,2,3,1,23,0002-00-0003-37.png,0003-00-0009-34.png
00000009,434,0,1440088122358,1440088122402,951,305,0,0,0,4,5,1,45,0004-00-0006-31.png,0005-00-0009-44.png
00000009,435,1,1440088125544,1440088126348,965,350,0,0,0,2,1,1,21,0002-00-0007-52.png,0001-00-0005-85.png
00000009,436,0,1440088127779,1440088128748,452,247,0,0,0,4,3,1,43,0004-00-0003-20.png,0003-00-0003-47.png
00000009,437,1,1440088132192,1440088132845,1065,302,0,0,0,3,2,1,32,0003-00-0008-75.png,0002-00-0007-48.png
00000009,438,1,1440088134171,1440088135215,439,267,0,0,0,3,4,1,34,0003-00-0002-09.png,0004-00-0003-02.png
00000009,439,1,1440088137083,1440088137978,938,345,0,0,0,5,4,1,54,0005-00-0009-05.png,0004-00-0001-26.png
00000009,440,1,1440088138821,1440088139844,446,262,0,0,0,1,2,1,12,0001-00-0008-33.png,0002-00-0003-44.png
00000009,441,1,1440088140790,1440088144147,1092,296,0,0,0,3,2,1,32,0003-00-0009-89.png,0002-00-0009-99.png
00000009,442,1,1440088145569,1440088146423,892,374,0,0,0,5,4,1,54,0005-00-0009-74.png,0004-00-0001-63.png
00000009,443,0,1440088147756,1440088148474,1017,281,0,0,0,4,5,1,45,0004-00-0000-28.png,0005-00-0008-21.png
00000009,444,0,1440088155264,1440088155268,913,347,0,0,0,1,2,1,12,0001-00-0001-54.png,0002-00-0008-28.png
00000009,445,1,1440088158273,1440088158349,860,391,0,0,0,2,1,1,21,0002-00-0004-45.png,0001-00-0008-40.png
00000009,446,0,1440088160090,1440088160841,941,357,0,0,0,3,4,1,34,0003-00-0007-56.png,0004-00-0006-77.png
00000009,447,1,1440088163897,1440088164699,967,367,0,0,0,4,3,1,43,0004-00-0005-99.png,0003-00-0005-93.png
00000009,448,0,1440088165963,1440088167010,1061,254,0,0,0,2,3,1,23,0002-00-0006-64.png,0003-00-0005-61.png
00000009,449,0,1440088170363,1440088171289,970,375,0,0,0,4,5,1,45,0004-00-0008-64.png,0005-00-0006-20.png
00000009,450,1,1440088174667,1440088174715,984,306,0,0,0,3,2,1,32,0003-00-0005-16.png,0002-00-0001-78.png
00000009,451,1,1440088175741,1440088176957,445,254,0,0,0,3,4,1,34,0003-00-0006-48.png,0004-00-0000-86.png
00000009,452,1,1440088178547,1440088179436,938,327,0,0,0,5,4,1,54,0005-00-0002-19.png,0004-00-0001-14.png
00000009,453,1,1440088181039,1440088181817,1066,278,0,0,0,2,1,1,21,0002-00-0009-99.png,0001-00-0001-46.png
00000009,454,0,1440088183019,1440088184218,958,334,0,0,0,1,2,1,12,0001-00-0008-50.png,0002-00-0007-89.png
00000009,455,1,1440088187281,1440088187885,486,254,0,0,0,2,3,1,23,0002-00-0001-94.png,0003-00-0001-30.png
00000009,456,0,1440088189277,1440088190117,450,290,0,0,0,4,3,1,43,0004-00-0006-63.png,0003-00-0009-03.png
00000009,457,0,1440088193389,1440088193428,956,306,0,0,0,2,3,1,23,0002-00-0003-44.png,0003-00-0004-49.png
00000009,458,1,1440088196593,1440088196649,964,332,0,0,0,2,1,1,21,0002-00-0003-13.png,0001-00-0003-28.png
00000009,459,0,1440088198259,1440088198932,1058,253,0,0,0,3,4,1,34,0003-00-0008-26.png,0004-00-0002-84.png
00000009,460,0,1440088202048,1440088202693,464,250,0,0,0,3,2,1,32,0003-00-0002-20.png,0002-00-0000-74.png
00000009,461,0,1440088206199,1440088206941,930,381,0,0,0,4,5,1,45,0004-00-0005-24.png,0005-00-0009-15.png
00000009,462,0,1440088209968,1440088210952,436,289,0,0,0,5,4,1,54,0005-00-0002-22.png,0004-00-0004-78.png
00000009,463,0,1440088214143,1440088214758,434,400,0,0,0,4,3,1,43,0004-00-0006-13.png,0003-00-0009-01.png
00000009,464,1,1440088217929,1440088218813,441,232,0,0,0,1,2,1,12,0001-00-0002-81.png,0002-00-0003-87.png
00000009,465,0,1440088219729,1440088219781,523,555,0,0,0,5,4,1,54,0005-00-0002-86.png,0004-00-0004-69.png
00000009,466,1,1440088223077,1440088223797,1091,280,0,0,0,4,3,1,43,0004-00-0004-86.png,0003-00-0007-26.png
00000009,467,1,1440088225242,1440088225344,862,384,0,0,0,3,2,1,32,0003-00-0008-71.png,0002-00-0005-99.png
00000009,468,1,1440088226257,1440088227665,459,288,0,0,0,2,3,1,23,0002-00-0005-13.png,0003-00-0009-16.png
00000009,469,0,1440088228988,1440088229259,898,488,0,0,0,4,5,1,45,0004-00-0004-59.png,0005-00-0009-71.png
00000009,470,0,1440088285013,1440088285041,938,327,0,0,0,1,2,1,12,0001-00-0004-50.png,0002-00-0003-25.png
00000009,471,1,1440088289864,1440088290554,957,312,0,0,0,2,1,1,21,0002-00-0007-66.png,0001-00-0000-30.png
00000009,472,0,1440088291821,1440088292664,931,365,0,0,0,3,4,1,34,0003-00-0006-05.png,0004-00-0001-99.png
00000009,473,0,1440088296204,1440088296806,964,344,0,0,0,4,5,1,45,0004-00-0005-40.png,0005-00-0001-00.png
00000009,474,0,1440088300288,1440088300325,862,306,0,0,0,1,2,1,12,0001-00-0004-21.png,0002-00-0001-72.png
00000009,475,1,1440088303600,1440088304170,1017,328,0,0,0,4,3,1,43,0004-00-0001-26.png,0003-00-0005-05.png
00000009,476,0,1440088305953,1440088306637,460,289,0,0,0,3,2,1,32,0003-00-0002-26.png,0002-00-0003-81.png
00000009,477,1,1440088346829,1440088347590,1095,352,0,0,0,5,4,1,54,0005-00-0007-85.png,0004-00-0004-62.png
00000009,478,0,1440088348456,1440088349268,1060,313,0,0,0,2,3,1,23,0002-00-0003-43.png,0003-00-0002-51.png
00000009,479,1,1440088352422,1440088352450,913,332,0,0,0,2,1,1,21,0002-00-0005-31.png,0001-00-0003-56.png
00000009,480,0,1440088353815,1440088353956,889,404,0,0,0,3,4,1,34,0003-00-0001-74.png,0004-00-0004-98.png
00000009,481,0,1440088357224,1440088357774,966,343,0,0,0,1,2,1,12,0001-00-0003-23.png,0002-00-0009-76.png
00000009,482,1,1440088361010,1440088361593,497,286,0,0,0,2,3,1,23,0002-00-0008-30.png,0003-00-0001-91.png
00000009,483,1,1440088362499,1440088363361,934,342,0,0,0,5,4,1,54,0005-00-0005-34.png,0004-00-0006-19.png
00000009,484,1,1440088364257,1440088364325,888,514,0,0,0,2,1,1,21,0002-00-0004-44.png,0001-00-0000-18.png
00000009,485,1,1440088365520,1440088366613,468,240,0,0,0,3,4,1,34,0003-00-0005-72.png,0004-00-0003-33.png
00000009,486,1,1440088367479,1440088367700,903,462,0,0,0,4,3,1,43,0004-00-0004-39.png,0003-00-0008-28.png
00000009,487,0,1440088368929,1440088369761,452,297,0,0,0,3,2,1,32,0003-00-0002-29.png,0002-00-0001-51.png
00000009,488,1,1440088372935,1440088373696,357,384,0,0,0,4,5,1,45,0004-00-0008-44.png,0005-00-0004-16.png
00000009,489,1,1440088374571,1440088375949,462,289,0,0,0,4,5,1,45,0004-00-0002-33.png,0005-00-0001-61.png
00000009,490,1,1440088378131,1440088378935,957,342,0,0,0,5,4,1,54,0005-00-0000-09.png,0004-00-0009-48.png
00000009,491,1,1440088380364,1440088380460,888,473,0,0,0,2,1,1,21,0002-00-0006-06.png,0001-00-0007-84.png
00000009,492,1,1440088382032,1440088382370,879,496,0,0,0,3,2,1,32,0003-00-0005-30.png,0002-00-0001-14.png
00000009,493,0,1440088383436,1440088383942,874,501,0,0,0,2,3,1,23,0002-00-0000-10.png,0003-00-0006-08.png
00000009,494,1,1440088386949,1440088387616,382,404,0,0,0,3,4,1,34,0003-00-0006-11.png,0004-00-0007-23.png
00000009,495,1,1440088388993,1440088389087,882,445,0,0,0,4,3,1,43,0004-00-0006-78.png,0003-00-0002-79.png
00000009,496,0,1440088390613,1440088390689,864,408,0,0,0,1,2,1,12,0001-00-0002-00.png,0002-00-0008-17.png
00000009,497,1,1440088393843,1440088394377,959,353,0,0,0,3,2,1,32,0003-00-0005-63.png,0002-00-0007-67.png
00000009,498,1,1440088395800,1440088396140,903,488,0,0,0,2,1,1,21,0002-00-0006-58.png,0001-00-0002-05.png
00000009,499,1,1440088397238,1440088398949,348,370,0,0,0,1,2,1,12,0001-00-0007-06.png,0002-00-0002-51.png
00000009,500,1,1440088400252,1440088401039,951,335,0,0,0,4,3,1,43,0004-00-0006-40.png,0003-00-0009-27.png
00000009,501,0,1440088402349,1440088402408,903,416,0,0,0,4,5,1,45,0004-00-0007-24.png,0005-00-0007-83.png
00000009,502,0,1440088405630,1440088406156,312,358,0,0,0,5,4,1,54,0005-00-0008-78.png,0004-00-0006-10.png
00000009,503,1,1440088410527,1440088411292,269,368,0,0,0,3,4,1,34,0003-00-0007-64.png,0004-00-0005-54.png
00000009,504,0,1440088412801,1440088413818,936,338,0,0,0,2,3,1,23,0002-00-0005-37.png,0003-00-0006-67.png
00000009,505,0,1440088417036,1440088417229,968,305,0,0,0,3,4,1,34,0003-00-0003-18.png,0004-00-0002-03.png
00000009,506,0,1440088420524,1440088421034,966,330,0,0,0,2,3,1,23,0002-00-0004-10.png,0003-00-0004-49.png
00000009,507,1,1440088424394,1440088425018,944,325,0,0,0,2,1,1,21,0002-00-0007-15.png,0001-00-0003-81.png
00000009,508,0,1440088426518,1440088426613,877,436,0,0,0,4,5,1,45,0004-00-0008-68.png,0005-00-0009-22.png
00000009,509,0,1440088429907,1440088429991,873,253,0,0,0,1,2,1,12,0001-00-0001-43.png,0002-00-0002-76.png
00000009,510,1,1440088433194,1440088433739,1094,279,0,0,0,4,3,1,43,0004-00-0001-50.png,0003-00-0008-16.png
00000009,511,1,1440088435174,1440088435670,913,514,0,0,0,3,2,1,32,0003-00-0006-08.png,0002-00-0007-97.png
00000009,512,1,1440088436973,1440088437054,862,473,0,0,0,5,4,1,54,0005-00-0003-08.png,0004-00-0005-82.png
00000009,513,0,1440088438340,1440088439294,942,338,0,0,0,1,2,1,12,0001-00-0005-00.png,0002-00-0006-49.png
00000009,514,1,1440088466410,1440088467041,1023,298,0,0,0,5,4,1,54,0005-00-0002-70.png,0004-00-0000-03.png
00000009,515,0,1440088468431,1440088469573,1038,276,0,0,0,4,5,1,45,0004-00-0008-15.png,0005-00-0005-76.png
00000009,516,0,1440088472744,1440088473227,1092,274,0,0,0,2,3,1,23,0002-00-0001-82.png,0003-00-0004-38.png
00000009,517,1,1440088476568,1440088477136,969,336,0,0,0,3,2,1,32,0003-00-0005-98.png,0002-00-0002-75.png
00000009,518,1,1440088478648,1440088479155,939,488,0,0,0,4,3,1,43,0004-00-0007-81.png,0003-00-0006-43.png
00000009,519,1,1440088480484,1440088481545,970,348,0,0,0,2,1,1,21,0002-00-0005-08.png,0001-00-0009-70.png
00000009,520,0,1440088483279,1440088483901,1072,280,0,0,0,3,4,1,34,0003-00-0009-26.png,0004-00-0000-19.png
00000009,521,0,1440088487104,1440088487670,971,347,0,0,0,2,3,1,23,0002-00-0005-34.png,0003-00-0001-61.png
00000009,522,1,1440088491416,1440088491984,459,260,0,0,0,1,2,1,12,0001-00-0000-81.png,0002-00-0006-59.png
00000009,523,1,1440088493394,1440088493772,888,478,0,0,0,4,3,1,43,0004-00-0003-54.png,0003-00-0009-93.png
00000009,524,0,1440088495172,1440088495405,862,488,0,0,0,3,4,1,34,0003-00-0008-37.png,0004-00-0005-98.png
00000009,525,1,1440088498592,1440088499173,987,335,0,0,0,2,1,1,21,0002-00-0000-54.png,0001-00-0003-74.png
00000009,526,1,1440088500518,1440088500566,860,436,0,0,0,3,2,1,32,0003-00-0000-19.png,0002-00-0002-96.png
00000009,527,0,1440088501434,1440088502617,897,382,0,0,0,4,5,1,45,0004-00-0001-98.png,0005-00-0001-75.png
00000009,528,0,1440088506045,1440088506584,376,396,0,0,0,5,4,1,54,0005-00-0004-03.png,0004-00-0009-45.png
00000009,529,0,1440088509474,1440088510418,1066,298,0,0,0,3,4,1,34,0003-00-0000-56.png,0004-00-0005-72.png
00000009,530,1,1440088513579,1440088514442,446,277,0,0,0,4,5,1,45,0004-00-0003-78.png,0005-00-0005-18.png
00000009,531,1,1440088515923,1440088516131,864,405,0,0,0,2,1,1,21,0002-00-0008-05.png,0001-00-0002-00.png
00000009,532,1,1440088517035,1440088518375,452,305,0,0,0,2,3,1,23,0002-00-0008-88.png,0003-00-0009-75.png
00000009,533,1,1440088519939,1440088520122,862,447,0,0,0,3,2,1,32,0003-00-0002-97.png,0002-00-0008-76.png
00000009,534,1,1440088521458,1440088522680,964,348,0,0,0,4,3,1,43,0004-00-0009-89.png,0003-00-0005-04.png
00000009,535,0,1440088523704,1440088524696,1042,281,0,0,0,1,2,1,12,0001-00-0001-59.png,0002-00-0002-45.png
00000009,536,1,1440088527915,1440088528639,968,307,0,0,0,5,4,1,54,0005-00-0008-45.png,0004-00-0002-91.png
00000009,537,0,1440088530395,1440088530522,862,472,0,0,0,1,2,1,12,0001-00-0002-69.png,0002-00-0004-31.png
00000009,538,1,1440088535169,1440088535757,1016,316,0,0,0,3,2,1,32,0003-00-0006-01.png,0002-00-0002-22.png
00000009,539,1,1440088536599,1440088537491,382,384,0,0,0,2,3,1,23,0002-00-0007-50.png,0003-00-0001-70.png
00000009,540,1,1440088538751,1440088539625,1110,319,0,0,0,5,4,1,54,0005-00-0009-16.png,0004-00-0001-30.png
00000009,541,1,1440088541045,1440088541118,862,436,0,0,0,2,1,1,21,0002-00-0006-19.png,0001-00-0006-49.png
00000009,542,1,1440088542091,1440088543179,433,415,0,0,0,4,5,1,45,0004-00-0009-88.png,0005-00-0007-23.png
00000009,543,0,1440088544731,1440088544878,862,427,0,0,0,3,4,1,34,0003-00-0003-21.png,0004-00-0008-58.png
00000009,544,1,1440088548448,1440088549034,1117,283,0,0,0,4,3,1,43,0004-00-0002-87.png,0003-00-0005-41.png
00000009,545,0,1440088550475,1440088550571,868,425,0,0,0,4,5,1,45,0004-00-0003-59.png,0005-00-0001-72.png
00000009,546,0,1440088553736,1440088554276,485,289,0,0,0,5,4,1,54,0005-00-0008-84.png,0004-00-0008-30.png
00000009,547,0,1440088612004,1440088628170,405,370,0,0,0,3,2,1,32,0003-00-0007-20.png,0002-00-0004-60.png
00000009,548,1,1440088631824,1440088632247,1016,309,0,0,0,2,1,1,21,0002-00-0008-16.png,0001-00-0009-96.png
00000009,549,1,1440088633072,1440088634291,470,262,0,0,0,2,3,1,23,0002-00-0009-83.png,0003-00-0008-61.png
00000009,550,0,1440088636991,1440088637605,1067,265,0,0,0,3,4,1,34,0003-00-0006-85.png,0004-00-0006-11.png
00000009,551,0,1440088640777,1440088640808,920,332,0,0,0,1,2,1,12,0001-00-0006-88.png,0002-00-0001-85.png
00000009,552,1,1440088679308,1440088679874,1118,270,0,0,0,4,3,1,43,0004-00-0004-73.png,0003-00-0009-89.png
00000009,553,0,1440088681612,1440088682333,401,449,0,0,0,2,1,1,21,0002-00-0002-21.png,0001-00-0002-84.png
00000009,554,1,1440088685183,1440088686029,939,360,0,0,0,4,3,1,43,0004-00-0004-35.png,0003-00-0008-59.png
00000009,555,0,1440088687356,1440088688300,935,358,0,0,0,4,5,1,45,0004-00-0004-78.png,0005-00-0005-46.png
00000009,556,0,1440088691154,1440088691797,453,263,0,0,0,3,2,1,32,0003-00-0008-53.png,0002-00-0000-54.png
00000009,557,0,1440088694972,1440088695438,966,337,0,0,0,2,3,1,23,0002-00-0001-23.png,0003-00-0009-81.png
00000009,558,0,1440088698520,1440088698616,969,309,0,0,0,1,2,1,12,0001-00-0001-12.png,0002-00-0001-35.png
00000009,559,0,1440088701779,1440088702569,943,327,0,0,0,3,4,1,34,0003-00-0005-79.png,0004-00-0002-35.png
00000009,560,0,1440088705854,1440088706732,422,272,0,0,0,5,4,1,54,0005-00-0009-88.png,0004-00-0007-62.png
00000009,561,1,1440088732278,1440088732282,899,376,0,0,0,4,3,1,43,0004-00-0004-34.png,0003-00-0000-72.png
00000009,562,1,1440088733119,1440088734332,481,296,0,0,0,1,2,1,12,0001-00-0000-45.png,0002-00-0002-69.png
00000009,563,1,1440088735165,1440088736388,969,394,0,0,0,3,2,1,32,0003-00-0007-62.png,0002-00-0004-83.png
00000009,564,0,1440088737742,1440088738453,967,366,0,0,0,2,3,1,23,0002-00-0007-75.png,0003-00-0001-46.png
00000009,565,1,1440088741645,1440088741661,913,306,0,0,0,2,1,1,21,0002-00-0000-76.png,0001-00-0007-37.png
00000009,566,0,1440088742988,1440088743322,879,462,0,0,0,3,4,1,34,0003-00-0008-92.png,0004-00-0003-76.png
00000009,567,0,1440088746655,1440088747150,1095,282,0,0,0,4,5,1,45,0004-00-0009-13.png,0005-00-0004-65.png
00000009,568,1,1440088750958,1440088750978,890,326,0,0,0,5,4,1,54,0005-00-0002-39.png,0004-00-0004-22.png
00000009,569,1,1440088752260,1440088753002,1067,279,0,0,0,2,1,1,21,0002-00-0009-72.png,0001-00-0000-96.png
00000009,570,0,1440088754265,1440088754596,913,462,0,0,0,1,2,1,12,0001-00-0009-37.png,0002-00-0004-36.png
00000009,571,0,1440088758303,1440088758349,910,333,0,0,0,3,4,1,34,0003-00-0002-40.png,0004-00-0001-03.png
00000009,572,1,1440088761492,1440088762012,984,317,0,0,0,5,4,1,54,0005-00-0005-93.png,0004-00-0000-17.png
00000009,573,1,1440088763559,1440088764613,1092,253,0,0,0,3,2,1,32,0003-00-0002-88.png,0002-00-0008-19.png
00000009,574,0,1440088766549,1440088767176,462,236,0,0,0,4,3,1,43,0004-00-0009-29.png,0003-00-0003-84.png
00000009,575,0,1440088773169,1440088773693,991,344,0,0,0,4,5,1,45,0004-00-0000-09.png,0005-00-0007-42.png
00000009,576,0,1440088776867,1440088777614,976,408,0,0,0,2,3,1,23,0002-00-0001-16.png,0003-00-0007-83.png
00000009,577,0,1440088780861,1440088781393,966,327,0,0,0,3,4,1,34,0003-00-0002-72.png,0004-00-0006-74.png
00000009,578,0,1440088784569,1440088784666,888,262,0,0,0,4,5,1,45,0004-00-0006-61.png,0005-00-0003-05.png
00000009,579,1,1440088787857,1440088787869,913,332,0,0,0,5,4,1,54,0005-00-0005-76.png,0004-00-0000-02.png
00000009,580,0,1440088789576,1440088789596,913,253,0,0,0,1,2,1,12,0001-00-0005-96.png,0002-00-0000-65.png
00000009,581,1,1440088792615,1440088793394,332,351,0,0,0,2,3,1,23,0002-00-0003-03.png,0003-00-0005-33.png
00000009,582,1,1440088794691,1440088795665,1071,281,0,0,0,2,1,1,21,0002-00-0006-89.png,0001-00-0004-91.png
00000009,583,1,1440088797191,1440088797952,943,321,0,0,0,4,3,1,43,0004-00-0006-78.png,0003-00-0007-02.png
00000009,584,0,1440088799174,1440088800297,478,265,0,0,0,3,2,1,32,0003-00-0001-31.png,0002-00-0001-14.png
00000009,585,0,1440088803540,1440088804090,1092,286,0,0,0,2,3,1,23,0002-00-0006-77.png,0003-00-0004-77.png
00000009,586,1,1440088807248,1440088807804,962,355,0,0,0,2,1,1,21,0002-00-0008-47.png,0001-00-0001-96.png
00000009,587,1,1440088808684,1440088809594,968,363,0,0,0,5,4,1,54,0005-00-0005-54.png,0004-00-0009-85.png
00000009,588,1,1440088811519,1440088812524,410,436,0,0,0,3,4,1,34,0003-00-0005-62.png,0004-00-0008-52.png
00000009,589,0,1440088813965,1440088814684,1034,279,0,0,0,1,2,1,12,0001-00-0005-45.png,0002-00-0002-66.png
00000009,590,0,1440088817851,1440088818543,1067,306,0,0,0,4,5,1,45,0004-00-0002-06.png,0005-00-0002-76.png
00000009,591,1,1440088821698,1440088822332,1067,292,0,0,0,4,3,1,43,0004-00-0007-00.png,0003-00-0002-60.png
00000009,592,0,1440088823851,1440088824570,401,462,0,0,0,3,2,1,32,0003-00-0006-97.png,0002-00-0001-36.png
00000009,593,1,1440088830086,1440088830670,479,257,0,0,0,1,2,1,12,0001-00-0009-83.png,0002-00-0006-89.png
00000009,594,0,1440088831911,1440088832666,936,349,0,0,0,2,3,1,23,0002-00-0009-14.png,0003-00-0001-18.png
00000009,595,1,1440088835841,1440088836417,462,271,0,0,0,4,5,1,45,0004-00-0008-97.png,0005-00-0008-57.png
00000009,596,0,1440088837847,1440088838646,469,283,0,0,0,5,4,1,54,0005-00-0002-38.png,0004-00-0005-60.png
00000009,597,1,1440088841812,1440088841908,868,296,0,0,0,3,2,1,32,0003-00-0001-34.png,0002-00-0004-36.png
00000009,598,1,1440088842925,1440088843919,937,345,0,0,0,2,1,1,21,0002-00-0008-05.png,0001-00-0002-90.png
00000009,599,0,1440088845559,1440088846737,354,385,0,0,0,4,3,1,43,0004-00-0003-89.png,0003-00-0004-33.png
00000009,600,0,1440088849882,1440088850419,1091,283,0,0,0,3,4,1,34,0003-00-0002-41.png,0004-00-0000-13.png
00000009,601,1,1440088872297,1440088872789,963,325,0,0,0,3,2,1,32,0003-00-0009-18.png,0002-00-0001-35.png
00000009,602,0,1440088874348,1440088875376,386,410,0,0,0,5,4,1,54,0005-00-0005-36.png,0004-00-0001-90.png
00000009,603,0,1440088878885,1440088879451,979,436,0,0,0,4,5,1,45,0004-00-0008-38.png,0005-00-0008-71.png
00000009,604,1,1440088882535,1440088883231,438,275,0,0,0,2,3,1,23,0002-00-0000-62.png,0003-00-0008-43.png
00000009,605,0,1440088885009,1440088885870,1067,277,0,0,0,3,4,1,34,0003-00-0001-62.png,0004-00-0001-06.png
00000009,606,1,1440088889172,1440088889689,954,384,0,0,0,2,1,1,21,0002-00-0000-26.png,0001-00-0000-78.png
00000009,607,1,1440088891059,1440088892183,964,335,0,0,0,4,3,1,43,0004-00-0007-05.png,0003-00-0008-54.png
00000009,608,0,1440088893487,1440088893967,862,501,0,0,0,1,2,1,12,0001-00-0007-47.png,0002-00-0008-96.png
00000009,609,0,1440088898028,1440088898064,859,330,0,0,0,2,3,1,23,0002-00-0006-16.png,0003-00-0000-02.png
00000009,610,0,1440088901110,1440088901723,475,290,0,0,0,3,2,1,32,0003-00-0007-50.png,0002-00-0007-04.png
00000009,611,1,1440088905074,1440088905591,960,372,0,0,0,2,1,1,21,0002-00-0008-72.png,0001-00-0000-96.png
00000009,612,1,1440088907201,1440088908211,958,324,0,0,0,5,4,1,54,0005-00-0008-89.png,0004-00-0007-64.png
00000009,613,0,1440088909538,1440088910740,925,338,0,0,0,4,5,1,45,0004-00-0005-09.png,0005-00-0003-61.png
00000009,614,0,1440088913920,1440088913936,913,316,0,0,0,1,2,1,12,0001-00-0003-85.png,0002-00-0000-74.png
00000009,615,1,1440088918005,1440088918898,428,227,0,0,0,3,4,1,34,0003-00-0008-52.png,0004-00-0003-24.png
00000009,616,0,1440088920738,1440088921412,452,257,0,0,0,4,3,1,43,0004-00-0009-79.png,0003-00-0004-57.png
00000009,617,0,1440088924305,1440088924838,1043,308,0,0,0,1,2,1,12,0001-00-0009-09.png,0002-00-0001-60.png
00000009,618,0,1440088927991,1440088928626,428,257,0,0,0,2,1,1,21,0002-00-0000-62.png,0001-00-0003-52.png
00000009,619,0,1440088931917,1440088931981,987,319,0,0,0,2,3,1,23,0002-00-0000-25.png,0003-00-0009-83.png
00000009,620,0,1440088935156,1440088935203,913,306,0,0,0,4,5,1,45,0004-00-0006-03.png,0005-00-0004-11.png
00000009,621,0,1440088938417,1440088938441,928,357,0,0,0,3,4,1,34,0003-00-0002-10.png,0004-00-0003-94.png
00000009,622,1,1440088941704,1440088941724,867,358,0,0,0,5,4,1,54,0005-00-0003-83.png,0004-00-0001-56.png
00000009,623,0,1440088942568,1440088943893,484,244,0,0,0,3,2,1,32,0003-00-0001-72.png,0002-00-0005-58.png
00000009,624,1,1440088947257,1440088947285,1009,309,0,0,0,4,3,1,43,0004-00-0005-54.png,0003-00-0005-90.png
00000009,625,0,1440088948132,1440088949624,955,351,0,0,0,1,2,1,12,0001-00-0008-42.png,0002-00-0001-22.png
00000009,626,0,1440088952897,1440088953971,1139,262,0,0,0,2,3,1,23,0002-00-0003-79.png,0003-00-0007-05.png
00000009,627,0,1440088998491,1440088999073,498,268,0,0,0,5,4,1,54,0005-00-0004-61.png,0004-00-0002-17.png
00000009,628,1,1440089001977,1440089001985,950,358,0,0,0,3,2,1,32,0003-00-0003-72.png,0002-00-0004-70.png
00000009,629,0,1440089002895,1440089004087,1033,278,0,0,0,4,5,1,45,0004-00-0009-39.png,0005-00-0006-15.png
00000009,630,1,1440089007303,1440089008678,393,254,0,0,0,3,4,1,34,0003-00-0000-64.png,0004-00-0002-95.png
00000009,631,0,1440089010745,1440089011430,469,234,0,0,0,4,3,1,43,0004-00-0006-46.png,0003-00-0005-99.png
00000009,632,1,1440089014711,1440089014811,868,253,0,0,0,2,1,1,21,0002-00-0005-46.png,0001-00-0004-75.png
00000009,633,1,1440089016460,1440089017034,921,367,0,0,0,2,1,1,21,0002-00-0003-43.png,0001-00-0002-19.png
00000009,634,0,1440089017888,1440089018870,1037,274,0,0,0,3,4,1,34,0003-00-0008-89.png,0004-00-0008-15.png
00000009,635,1,1440089022115,1440089022614,968,351,0,0,0,4,3,1,43,0004-00-0009-35.png,0003-00-0009-07.png
00000009,636,1,1440089024171,1440089024326,859,459,0,0,0,3,2,1,32,0003-00-0002-94.png,0002-00-0008-45.png
00000009,637,1,1440089025184,1440089026276,1072,310,0,0,0,5,4,1,54,0005-00-0002-94.png,0004-00-0004-63.png
00000009,638,0,1440089027720,1440089029185,976,308,0,0,0,2,3,1,23,0002-00-0000-71.png,0003-00-0008-36.png
00000009,639,1,1440089032350,1440089033005,457,258,0,0,0,1,2,1,12,0001-00-0002-73.png,0002-00-0008-80.png
00000009,640,0,1440089034395,1440089035479,951,343,0,0,0,4,5,1,45,0004-00-0002-72.png,0005-00-0002-66.png
00000009,641,1,1440089038582,1440089039445,1040,276,0,0,0,5,4,1,54,0005-00-0007-97.png,0004-00-0002-44.png
00000009,642,0,1440089041032,1440089042311,456,229,0,0,0,4,3,1,43,0004-00-0003-49.png,0003-00-0002-45.png
00000009,643,0,1440089045379,1440089046031,1063,291,0,0,0,4,5,1,45,0004-00-0005-11.png,0005-00-0000-50.png
00000009,644,0,1440089049186,1440089049897,453,264,0,0,0,3,2,1,32,0003-00-0005-20.png,0002-00-0001-08.png
00000009,645,0,1440089053206,1440089053695,955,355,0,0,0,1,2,1,12,0001-00-0004-53.png,0002-00-0003-72.png
00000009,646,0,1440089056907,1440089056927,896,334,0,0,0,3,4,1,34,0003-00-0004-70.png,0004-00-0005-55.png
00000009,647,1,1440089060117,1440089061168,961,344,0,0,0,2,1,1,21,0002-00-0006-67.png,0001-00-0007-33.png
00000009,648,1,1440089062931,1440089063584,478,265,0,0,0,2,3,1,23,0002-00-0000-62.png,0003-00-0003-12.png
00000009,649,1,1440089064958,1440089065985,1066,265,0,0,0,3,2,1,32,0003-00-0002-97.png,0002-00-0000-05.png
00000009,650,0,1440089067729,1440089068421,918,340,0,0,0,4,5,1,45,0004-00-0002-17.png,0005-00-0002-33.png
00000009,651,0,1440089071576,1440089071687,862,306,0,0,0,2,3,1,23,0002-00-0007-84.png,0003-00-0001-04.png
00000009,652,0,1440089075022,1440089075700,960,325,0,0,0,3,4,1,34,0003-00-0001-08.png,0004-00-0004-90.png
00000009,653,1,1440089079229,1440089079912,1072,277,0,0,0,5,4,1,54,0005-00-0000-67.png,0004-00-0000-50.png
00000009,654,0,1440089081483,1440089082596,965,339,0,0,0,1,2,1,12,0001-00-0006-63.png,0002-00-0004-05.png
00000009,655,0,1440089085955,1440089086613,488,253,0,0,0,4,3,1,43,0004-00-0009-54.png,0003-00-0004-89.png
00000009,656,0,1440089089779,1440089090380,486,279,0,0,0,2,1,1,21,0002-00-0007-94.png,0001-00-0000-11.png
00000009,657,1,1440089093934,1440089093946,939,279,0,0,0,2,1,1,21,0002-00-0000-89.png,0001-00-0008-16.png
00000009,658,0,1440089095199,1440089096368,1090,297,0,0,0,2,3,1,23,0002-00-0004-93.png,0003-00-0002-99.png
00000009,659,0,1440089099800,1440089099891,858,272,0,0,0,4,5,1,45,0004-00-0005-47.png,0005-00-0004-04.png
00000009,660,0,1440089103076,1440089103748,463,289,0,0,0,4,3,1,43,0004-00-0001-46.png,0003-00-0004-20.png
00000009,661,1,1440089106937,1440089107024,964,319,0,0,0,3,2,1,32,0003-00-0003-59.png,0002-00-0008-72.png
00000009,662,1,1440089107867,1440089109498,459,276,0,0,0,3,4,1,34,0003-00-0008-97.png,0004-00-0005-72.png
00000009,663,1,1440089111260,1440089112019,930,329,0,0,0,5,4,1,54,0005-00-0004-83.png,0004-00-0007-65.png
00000009,664,0,1440089113725,1440089114274,970,363,0,0,0,1,2,1,12,0001-00-0001-93.png,0002-00-0001-76.png
00000009,665,0,1440089117460,1440089118111,475,260,0,0,0,4,3,1,43,0004-00-0006-83.png,0003-00-0001-69.png
00000009,666,0,1440089121335,1440089121379,974,332,0,0,0,4,5,1,45,0004-00-0004-94.png,0005-00-0002-52.png
00000009,667,1,1440089124704,1440089125209,963,352,0,0,0,3,2,1,32,0003-00-0005-36.png,0002-00-0001-16.png
00000009,668,0,1440089126901,1440089127756,955,338,0,0,0,1,2,1,12,0001-00-0003-25.png,0002-00-0002-37.png
00000009,669,0,1440089131074,1440089131078,861,292,0,0,0,2,3,1,23,0002-00-0003-90.png,0003-00-0009-60.png
00000009,670,0,1440089134253,1440089135444,445,263,0,0,0,2,1,1,21,0002-00-0008-17.png,0001-00-0000-79.png
00000009,671,1,1440089138707,1440089139421,1119,280,0,0,0,5,4,1,54,0005-00-0005-75.png,0004-00-0005-18.png
00000009,672,0,1440089140566,1440089141876,1066,254,0,0,0,3,4,1,34,0003-00-0007-51.png,0004-00-0004-00.png
00000009,673,1,1440089179546,1440089180567,1019,303,0,0,0,4,3,1,43,0004-00-0005-49.png,0003-00-0008-20.png
00000009,674,0,1440089181621,1440089181689,870,481,0,0,0,2,3,1,23,0002-00-0001-11.png,0003-00-0002-69.png
00000009,675,0,1440089184861,1440089184889,913,317,0,0,0,4,5,1,45,0004-00-0007-36.png,0005-00-0005-91.png
00000009,676,0,1440089190162,1440089190200,904,332,0,0,0,1,2,1,12,0001-00-0005-96.png,0002-00-0003-71.png
00000009,677,1,1440089193382,1440089193426,964,306,0,0,0,2,1,1,21,0002-00-0000-10.png,0001-00-0006-50.png
00000009,678,1,1440089194252,1440089195898,1074,252,0,0,0,3,2,1,32,0003-00-0002-66.png,0002-00-0006-59.png
00000009,679,0,1440089197307,1440089198565,459,244,0,0,0,5,4,1,54,0005-00-0002-29.png,0004-00-0001-24.png
00000009,680,0,1440089201806,1440089202294,963,350,0,0,0,3,4,1,34,0003-00-0007-37.png,0004-00-0003-85.png
00000009,681,0,1440089205756,1440089205773,939,306,0,0,0,2,3,1,23,0002-00-0009-58.png,0003-00-0001-92.png
00000009,682,1,1440089209801,1440089209805,862,321,0,0,0,4,3,1,43,0004-00-0003-40.png,0003-00-0006-44.png
00000009,683,1,1440089210724,1440089211754,968,339,0,0,0,5,4,1,54,0005-00-0008-54.png,0004-00-0009-35.png
00000009,684,0,1440089212999,1440089214121,469,271,0,0,0,3,2,1,32,0003-00-0009-65.png,0002-00-0002-97.png
00000009,685,1,1440089217264,1440089217950,453,269,0,0,0,1,2,1,12,0001-00-0007-44.png,0002-00-0004-93.png
00000009,686,0,1440089219569,1440089220608,940,348,0,0,0,4,5,1,45,0004-00-0007-20.png,0005-00-0000-35.png
00000009,687,0,1440089224157,1440089224190,939,297,0,0,0,3,4,1,34,0003-00-0003-77.png,0004-00-0008-96.png
00000009,688,1,1440089227241,1440089227277,918,359,0,0,0,2,1,1,21,0002-00-0007-59.png,0001-00-0004-49.png
00000009,689,0,1440089228144,1440089229589,465,279,0,0,0,5,4,1,54,0005-00-0005-25.png,0004-00-0000-72.png
00000009,690,0,1440089232837,1440089232909,981,332,0,0,0,4,5,1,45,0004-00-0001-90.png,0005-00-0003-29.png
00000009,691,1,1440089236133,1440089236763,478,268,0,0,0,1,2,1,12,0001-00-0004-97.png,0002-00-0008-17.png
00000009,692,0,1440089238600,1440089239354,459,246,0,0,0,3,2,1,32,0003-00-0008-82.png,0002-00-0002-89.png
00000009,693,0,1440089243132,1440089243180,934,325,0,0,0,2,3,1,23,0002-00-0005-54.png,0003-00-0004-43.png
00000009,694,1,1440089246375,1440089246472,1018,310,0,0,0,2,1,1,21,0002-00-0005-33.png,0001-00-0007-80.png
00000009,695,0,1440089248092,1440089249204,994,348,0,0,0,3,4,1,34,0003-00-0000-79.png,0004-00-0005-98.png
00000009,696,1,1440089259124,1440089260031,970,337,0,0,0,4,3,1,43,0004-00-0008-33.png,0003-00-0009-18.png
00000009,697,0,1440089261978,1440089304005,312,358,0,0,0,5,4,1,54,0005-00-0002-91.png,0004-00-0007-14.png
00000009,698,1,1440089318352,1440089318913,319,319,0,0,0,1,2,1,12,0001-00-0001-90.png,0002-00-0003-47.png
00000009,699,1,1440089323503,1440089323507,891,306,0,0,0,3,2,1,32,0003-00-0004-91.png,0002-00-0007-74.png
00000009,700,1,1440089325162,1440089325234,913,323,0,0,0,2,1,1,21,0002-00-0009-45.png,0001-00-0005-96.png
00000009,701,0,1440089326595,1440089326631,938,286,0,0,0,4,5,1,45,0004-00-0006-51.png,0005-00-0007-89.png
00000009,702,1,1440089330321,1440089330377,934,307,0,0,0,4,3,1,43,0004-00-0003-24.png,0003-00-0000-90.png
00000009,703,0,1440089332175,1440089332279,964,346,0,0,0,2,3,1,23,0002-00-0001-57.png,0003-00-0003-01.png
00000009,704,0,1440089335872,1440089335962,938,334,0,0,0,3,4,1,34,0003-00-0005-39.png,0004-00-0003-86.png
00000009,705,1,1440089346537,1440089347157,1007,332,0,0,0,3,2,1,32,0003-00-0006-03.png,0002-00-0007-87.png
00000009,706,1,1440089348742,1440089349320,243,310,0,0,0,1,2,1,12,0001-00-0000-95.png,0002-00-0007-40.png
00000009,707,0,1440089352413,1440089352959,337,358,0,0,0,5,4,1,54,0005-00-0009-15.png,0004-00-0005-51.png
00000009,708,0,1440089365797,1440089366473,1016,348,0,0,0,2,3,1,23,0002-00-0005-70.png,0003-00-0003-98.png
00000009,709,0,1440089370442,1440089371195,389,319,0,0,0,2,1,1,21,0002-00-0005-46.png,0001-00-0007-17.png
00000009,710,0,1440089383275,1440089383972,975,306,0,0,0,4,5,1,45,0004-00-0005-62.png,0005-00-0007-89.png
00000009,711,0,1440089387929,1440089388024,974,336,0,0,0,3,4,1,34,0003-00-0002-96.png,0004-00-0004-23.png
00000009,712,0,1440089391673,1440089392408,325,318,0,0,0,4,3,1,43,0004-00-0006-87.png,0003-00-0006-58.png
00000009,713,1,1440089395906,1440089395958,990,333,0,0,0,4,3,1,43,0004-00-0000-93.png,0003-00-0009-78.png
00000009,714,0,1440089397439,1440089398522,943,382,0,0,0,3,4,1,34,0003-00-0004-75.png,0004-00-0003-76.png
00000009,715,1,1440089401800,1440089403010,466,247,0,0,0,2,3,1,23,0002-00-0002-82.png,0003-00-0009-05.png
00000009,716,1,1440089404796,1440089405658,934,380,0,0,0,3,2,1,32,0003-00-0000-16.png,0002-00-0000-88.png
00000009,717,1,1440089407051,1440089408096,472,259,0,0,0,1,2,1,12,0001-00-0007-43.png,0002-00-0001-06.png
00000009,718,0,1440089409470,1440089410249,918,344,0,0,0,4,5,1,45,0004-00-0005-67.png,0005-00-0003-39.png
00000009,719,1,1440089413422,1440089413991,961,360,0,0,0,2,1,1,21,0002-00-0005-23.png,0001-00-0007-41.png
00000009,720,1,1440089415399,1440089416022,885,520,0,0,0,5,4,1,54,0005-00-0004-86.png,0004-00-0009-62.png
00000009,721,1,1440089416858,1440089418078,935,384,0,0,0,2,1,1,21,0002-00-0009-31.png,0001-00-0005-20.png
00000009,722,1,1440089418948,1440089420527,438,274,0,0,0,3,4,1,34,0003-00-0008-81.png,0004-00-0007-76.png
00000009,723,1,1440089421978,1440089422898,991,346,0,0,0,4,3,1,43,0004-00-0006-34.png,0003-00-0000-25.png
00000009,724,1,1440089423743,1440089424868,462,273,0,0,0,4,5,1,45,0004-00-0009-51.png,0005-00-0007-90.png
00000009,725,1,1440089426547,1440089427207,402,397,0,0,0,1,2,1,12,0001-00-0004-22.png,0002-00-0000-29.png
00000009,726,0,1440089428666,1440089429168,910,540,0,0,0,2,3,1,23,0002-00-0005-62.png,0003-00-0009-57.png
00000009,727,1,1440089432409,1440089432992,1052,307,0,0,0,3,2,1,32,0003-00-0004-86.png,0002-00-0001-57.png
00000009,728,1,1440089434161,1440089434933,1035,287,0,0,0,5,4,1,54,0005-00-0007-14.png,0004-00-0006-91.png
00000009,729,0,1440089436693,1440089437222,484,260,0,0,0,4,3,1,43,0004-00-0007-60.png,0003-00-0003-98.png
00000009,730,0,1440089440452,1440089441133,862,384,0,0,0,1,2,1,12,0001-00-0001-41.png,0002-00-0000-81.png
00000009,731,0,1440089444548,1440089445060,326,348,0,0,0,5,4,1,54,0005-00-0008-55.png,0004-00-0007-02.png
00000009,732,1,1440089448431,1440089449069,334,351,0,0,0,3,4,1,34,0003-00-0000-98.png,0004-00-0003-67.png
00000009,733,0,1440089452843,1440089453487,898,310,0,0,0,2,3,1,23,0002-00-0007-66.png,0003-00-0008-86.png
00000009,734,1,1440089457209,1440089457791,1001,356,0,0,0,3,2,1,32,0003-00-0003-06.png,0002-00-0004-35.png
00000009,735,0,1440089458978,1440089459414,870,479,0,0,0,4,5,1,45,0004-00-0008-27.png,0005-00-0008-66.png
00000009,736,1,1440089462724,1440089463300,946,374,0,0,0,2,1,1,21,0002-00-0007-04.png,0001-00-0006-60.png
00000009,737,0,1440089464809,1440089465581,1038,279,0,0,0,3,4,1,34,0003-00-0002-09.png,0004-00-0001-42.png
00000009,738,1,1440089468937,1440089469516,940,381,0,0,0,2,1,1,21,0002-00-0002-43.png,0001-00-0009-39.png
00000009,739,0,1440089471049,1440089471441,861,441,0,0,0,2,3,1,23,0002-00-0008-67.png,0003-00-0001-61.png
00000009,740,1,1440089474686,1440089474746,966,330,0,0,0,3,2,1,32,0003-00-0007-71.png,0002-00-0003-35.png
00000009,741,0,1440089475686,1440089476758,919,383,0,0,0,4,5,1,45,0004-00-0002-79.png,0005-00-0005-94.png
00000009,742,0,1440089479993,1440089480580,958,348,0,0,0,1,2,1,12,0001-00-0006-59.png,0002-00-0004-18.png
00000009,743,1,1440089483803,1440089483823,941,308,0,0,0,5,4,1,54,0005-00-0009-20.png,0004-00-0003-58.png
00000009,744,0,1440089484957,1440089484981,523,551,0,0,0,4,3,1,43,0004-00-0009-57.png,0003-00-0001-67.png
00000009,745,1,1440089488277,1440089488899,423,275,0,0,0,4,5,1,45,0004-00-0006-62.png,0005-00-0008-45.png
00000009,746,0,1440089490682,1440089491512,1042,277,0,0,0,1,2,1,12,0001-00-0000-11.png,0002-00-0007-33.png
00000009,747,0,1440089494720,1440089495443,483,237,0,0,0,4,3,1,43,0004-00-0002-67.png,0003-00-0001-56.png
00000009,748,0,1440089498766,1440089499328,947,363,0,0,0,2,3,1,23,0002-00-0007-99.png,0003-00-0005-33.png
00000009,749,0,1440089502745,1440089503377,942,377,0,0,0,3,4,1,34,0003-00-0002-44.png,0004-00-0003-04.png
00000009,750,1,1440089506820,1440089507472,926,385,0,0,0,2,1,1,21,0002-00-0002-96.png,0001-00-0009-41.png
00000009,751,1,1440089508327,1440089509624,947,364,0,0,0,5,4,1,54,0005-00-0005-22.png,0004-00-0003-82.png
00000009,752,1,1440089511024,1440089511443,862,473,0,0,0,3,2,1,32,0003-00-0002-66.png,0002-00-0006-53.png
00000009,753,1,1440089513032,1440089514169,446,248,0,0,0,2,3,1,23,0002-00-0002-45.png,0003-00-0002-69.png
00000009,754,0,1440089515710,1440089516900,417,272,0,0,0,5,4,1,54,0005-00-0006-09.png,0004-00-0005-26.png
00000009,755,0,1440089520234,1440089520781,963,338,0,0,0,1,2,1,12,0001-00-0007-70.png,0002-00-0008-72.png
00000009,756,1,1440089524265,1440089524331,939,279,0,0,0,3,2,1,32,0003-00-0006-85.png,0002-00-0004-62.png
00000009,757,1,1440089526008,1440089526565,1066,303,0,0,0,2,1,1,21,0002-00-0005-48.png,0001-00-0008-31.png
00000009,758,0,1440089527709,1440089528707,964,424,0,0,0,4,5,1,45,0004-00-0003-24.png,0005-00-0006-33.png
00000009,759,0,1440089532031,1440089532619,942,358,0,0,0,3,4,1,34,0003-00-0003-21.png,0004-00-0003-73.png
00000009,760,0,1440089535494,1440089535602,492,399,0,0,0,4,3,1,43,0004-00-0004-33.png,0003-00-0007-39.png
00000009,761,0,1440089538810,1440089539583,439,238,0,0,0,4,3,1,43,0004-00-0003-19.png,0003-00-0002-14.png
00000009,762,0,1440089542935,1440089542991,884,284,0,0,0,3,4,1,34,0003-00-0003-93.png,0004-00-0009-00.png
00000009,763,0,1440089546287,1440089547074,922,361,0,0,0,4,5,1,45,0004-00-0001-04.png,0005-00-0009-47.png
00000009,764,1,1440089550602,1440089550714,879,252,0,0,0,5,4,1,54,0005-00-0000-49.png,0004-00-0007-66.png
00000009,765,1,1440089552568,1440089553401,337,396,0,0,0,2,3,1,23,0002-00-0009-58.png,0003-00-0007-44.png
00000009,766,1,1440089554789,1440089555264,888,499,0,0,0,2,1,1,21,0002-00-0007-32.png,0001-00-0001-34.png
00000009,767,1,1440089556122,1440089557245,897,357,0,0,0,3,2,1,32,0003-00-0001-27.png,0002-00-0006-84.png
00000009,768,1,1440089558737,1440089559455,437,259,0,0,0,1,2,1,12,0001-00-0008-90.png,0002-00-0000-60.png
00000009,769,1,1440089560986,1440089561991,416,267,0,0,0,2,3,1,23,0002-00-0001-91.png,0003-00-0006-94.png
00000009,770,1,1440089563982,1440089564576,991,305,0,0,0,4,3,1,43,0004-00-0002-81.png,0003-00-0001-59.png
00000009,771,1,1440089565446,1440089566369,450,284,0,0,0,4,5,1,45,0004-00-0009-08.png,0005-00-0007-41.png
00000009,772,1,1440089567232,1440089568220,922,339,0,0,0,3,2,1,32,0003-00-0009-53.png,0002-00-0001-56.png
00000009,773,1,1440089569584,1440089570021,878,541,0,0,0,2,1,1,21,0002-00-0003-09.png,0001-00-0008-42.png
00000009,774,0,1440089571374,1440089572294,877,391,0,0,0,3,4,1,34,0003-00-0004-44.png,0004-00-0001-90.png
00000009,775,1,1440089575788,1440089576487,964,384,0,0,0,5,4,1,54,0005-00-0001-61.png,0004-00-0009-02.png
00000009,776,1,1440089578210,1440089579003,299,395,0,0,0,1,2,1,12,0001-00-0004-36.png,0002-00-0009-53.png
00000009,777,1,1440089580668,1440089581218,298,349,0,0,0,4,5,1,45,0004-00-0003-60.png,0005-00-0002-64.png
00000009,778,1,1440089583054,1440089583587,297,349,0,0,0,1,2,1,12,0001-00-0005-50.png,0002-00-0003-45.png
00000009,779,0,1440089585468,1440089586008,295,334,0,0,0,2,1,1,21,0002-00-0009-21.png,0001-00-0003-79.png
00000009,780,1,1440089590149,1440089590197,904,386,0,0,0,3,2,1,32,0003-00-0005-74.png,0002-00-0000-21.png
00000009,781,0,1440089591957,1440089592703,962,376,0,0,0,3,4,1,34,0003-00-0008-51.png,0004-00-0002-71.png
00000009,782,1,1440089595943,1440089596787,946,375,0,0,0,5,4,1,54,0005-00-0008-14.png,0004-00-0008-14.png
00000009,783,1,1440089598171,1440089598849,362,462,0,0,0,2,3,1,23,0002-00-0002-97.png,0003-00-0002-47.png
00000009,784,0,1440089600199,1440089601093,450,252,0,0,0,4,3,1,43,0004-00-0006-71.png,0003-00-0003-78.png
00000009,785,1,1440089604624,1440089604692,921,307,0,0,0,2,1,1,21,0002-00-0003-35.png,0001-00-0006-21.png
00000009,786,0,1440089606238,1440089606262,897,279,0,0,0,2,3,1,23,0002-00-0004-42.png,0003-00-0006-56.png
00000009,787,1,1440089609697,1440089610560,964,343,0,0,0,3,2,1,32,0003-00-0007-80.png,0002-00-0004-09.png
00000009,788,0,1440089612038,1440089612955,998,297,0,0,0,4,5,1,45,0004-00-0001-71.png,0005-00-0009-17.png
00000009,789,1,1440089616266,1440089616991,930,363,0,0,0,4,3,1,43,0004-00-0000-33.png,0003-00-0002-25.png
00000009,790,1,1440089617823,1440089618752,425,300,0,0,0,1,2,1,12,0001-00-0003-27.png,0002-00-0001-18.png
00000009,791,0,1440089620668,1440089621361,1065,249,0,0,0,3,4,1,34,0003-00-0009-63.png,0004-00-0006-90.png
00000009,792,1,1440089624623,1440089625259,947,328,0,0,0,5,4,1,54,0005-00-0005-04.png,0004-00-0007-70.png
00000009,793,1,1440089626650,1440089627406,905,381,0,0,0,5,4,1,54,0005-00-0006-85.png,0004-00-0003-22.png
00000009,794,0,1440089628695,1440089628997,862,474,0,0,0,3,4,1,34,0003-00-0003-71.png,0004-00-0008-18.png
00000009,795,0,1440089632385,1440089632429,914,329,0,0,0,4,5,1,45,0004-00-0003-56.png,0005-00-0004-10.png
00000009,796,1,1440089635753,1440089635785,861,299,0,0,0,2,1,1,21,0002-00-0001-90.png,0001-00-0002-14.png
00000009,797,1,1440089636814,1440089637795,451,305,0,0,0,1,2,1,12,0001-00-0004-87.png,0002-00-0003-37.png
00000009,798,1,1440089639558,1440089640279,417,241,0,0,0,2,3,1,23,0002-00-0006-38.png,0003-00-0002-64.png
00000009,799,0,1440089641585,1440089642538,448,293,0,0,0,4,3,1,43,0004-00-0004-83.png,0003-00-0006-60.png
00000009,800,0,1440089646295,1440089647167,440,249,0,0,0,3,2,1,32,0003-00-0004-10.png,0002-00-0009-25.png
00000009,801,0,1440089650441,1440089651164,946,363,0,0,0,3,4,1,34,0003-00-0003-11.png,0004-00-0003-65.png
00000009,802,0,1440089654356,1440089654821,281,348,0,0,0,4,3,1,43,0004-00-0000-48.png,0003-00-0002-66.png
00000009,803,0,1440089658092,1440089658614,222,347,0,0,0,5,4,1,54,0005-00-0007-24.png,0004-00-0000-13.png
00000009,804,1,1440089661981,1440089662509,964,306,0,0,0,2,1,1,21,0002-00-0003-54.png,0001-00-0007-80.png
00000009,805,0,1440089663852,1440089664053,862,453,0,0,0,4,5,1,45,0004-00-0006-54.png,0005-00-0006-85.png
00000009,806,1,1440089667313,1440089668208,436,270,0,0,0,1,2,1,12,0001-00-0002-99.png,0002-00-0007-24.png
00000009,807,0,1440089670198,1440089670890,428,236,0,0,0,3,2,1,32,0003-00-0009-10.png,0002-00-0004-37.png
00000009,808,1,1440089674285,1440089674963,424,299,0,0,0,2,3,1,23,0002-00-0000-35.png,0003-00-0002-38.png
00000009,809,1,1440089677065,1440089677641,1046,251,0,0,0,4,3,1,43,0004-00-0009-39.png,0003-00-0005-62.png
00000009,810,0,1440089678881,1440089679793,1035,260,0,0,0,4,5,1,45,0004-00-0007-18.png,0005-00-0000-50.png
00000009,811,1,1440089683163,1440089683834,1066,290,0,0,0,3,2,1,32,0003-00-0003-84.png,0002-00-0007-53.png
00000009,812,1,1440089685545,1440089686321,1012,323,0,0,0,2,1,1,21,0002-00-0004-97.png,0001-00-0008-16.png
00000009,813,0,1440089687239,1440089688321,932,349,0,0,0,3,4,1,34,0003-00-0003-52.png,0004-00-0004-06.png
00000009,814,1,1440089691616,1440089692418,290,332,0,0,0,2,3,1,23,0002-00-0000-63.png,0003-00-0004-94.png
00000009,815,1,1440089694346,1440089694957,992,329,0,0,0,5,4,1,54,0005-00-0004-55.png,0004-00-0000-14.png
00000009,816,1,1440089696846,1440089697451,461,292,0,0,0,1,2,1,12,0001-00-0001-44.png,0002-00-0001-82.png
00000009,817,1,1440089698892,1440089699568,436,299,0,0,0,4,5,1,45,0004-00-0003-20.png,0005-00-0009-39.png
00000009,818,1,1440089701241,1440089701917,440,410,0,0,0,2,3,1,23,0002-00-0006-19.png,0003-00-0005-72.png
00000009,819,1,1440089703419,1440089704244,966,339,0,0,0,3,2,1,32,0003-00-0008-48.png,0002-00-0001-33.png
00000009,820,0,1440089705290,1440089706091,934,340,0,0,0,3,4,1,34,0003-00-0000-00.png,0004-00-0001-71.png
00000009,821,1,1440089709463,1440089710173,1049,282,0,0,0,4,3,1,43,0004-00-0005-38.png,0003-00-0008-89.png
00000009,822,1,1440089711631,1440089712407,453,293,0,0,0,1,2,1,12,0001-00-0003-47.png,0002-00-0001-59.png
00000009,823,1,1440089713756,1440089714490,919,345,0,0,0,2,1,1,21,0002-00-0008-54.png,0001-00-0000-78.png
00000009,824,0,1440089715884,1440089716735,491,279,0,0,0,5,4,1,54,0005-00-0005-93.png,0004-00-0008-98.png
00000009,825,1,1440089719987,1440089720044,942,313,0,0,0,5,4,1,54,0005-00-0006-53.png,0004-00-0006-09.png
00000009,826,0,1440089721427,1440089722371,1038,252,0,0,0,2,3,1,23,0002-00-0001-29.png,0003-00-0000-59.png
00000009,827,0,1440089725570,1440089725582,940,335,0,0,0,4,5,1,45,0004-00-0000-97.png,0005-00-0005-16.png
00000009,828,0,1440089728862,1440089729411,975,333,0,0,0,3,4,1,34,0003-00-0005-45.png,0004-00-0008-64.png
00000009,829,0,1440089732644,1440089733311,435,429,0,0,0,2,1,1,21,0002-00-0008-67.png,0001-00-0006-54.png
00000009,830,1,1440089736568,1440089737235,429,269,0,0,0,1,2,1,12,0001-00-0004-62.png,0002-00-0006-32.png
00000009,831,0,1440089738500,1440089739513,419,267,0,0,0,4,3,1,43,0004-00-0002-54.png,0003-00-0004-27.png
00000009,832,1,1440089743110,1440089745948,930,330,0,0,0,3,2,1,32,0003-00-0007-81.png,0002-00-0008-64.png
00000009,833,1,1440089747763,1440089748477,364,382,0,0,0,2,3,1,23,0002-00-0007-42.png,0003-00-0002-06.png
00000009,834,1,1440089749821,1440089750442,443,272,0,0,0,4,5,1,45,0004-00-0003-38.png,0005-00-0004-69.png
00000009,835,1,1440089752007,1440089752698,900,326,0,0,0,2,1,1,21,0002-00-0005-20.png,0001-00-0003-64.png
00000009,836,1,1440089753680,1440089754988,458,256,0,0,0,3,4,1,34,0003-00-0002-84.png,0004-00-0000-71.png
00000009,837,1,1440089756536,1440089757322,985,322,0,0,0,4,3,1,43,0004-00-0008-62.png,0003-00-0007-54.png
00000009,838,0,1440089758292,1440089759299,452,268,0,0,0,5,4,1,54,0005-00-0003-07.png,0004-00-0003-32.png
00000009,839,1,1440089762419,1440089762977,1045,283,0,0,0,3,2,1,32,0003-00-0008-58.png,0002-00-0006-19.png
00000009,840,1,1440089765090,1440089765669,478,279,0,0,0,1,2,1,12,0001-00-0004-50.png,0002-00-0002-07.png
00000009,841,1,1440089767841,1440089768645,1069,234,0,0,0,4,3,1,43,0004-00-0000-87.png,0003-00-0003-20.png
00000009,842,0,1440089770433,1440089771443,454,283,0,0,0,5,4,1,54,0005-00-0000-61.png,0004-00-0003-64.png
00000009,843,0,1440089774810,1440089775535,1067,302,0,0,0,1,2,1,12,0001-00-0004-21.png,0002-00-0003-96.png
00000009,844,1,1440089778755,1440089779410,1068,275,0,0,0,3,2,1,32,0003-00-0009-55.png,0002-00-0005-98.png
00000009,845,0,1440089780486,1440089781574,913,346,0,0,0,3,4,1,34,0003-00-0004-07.png,0004-00-0004-91.png
00000009,846,1,1440089784988,1440089785539,926,349,0,0,0,2,1,1,21,0002-00-0007-65.png,0001-00-0003-40.png
00000009,847,0,1440089786793,1440089787462,993,281,0,0,0,2,3,1,23,0002-00-0005-19.png,0003-00-0000-16.png
00000009,848,0,1440089790697,1440089791726,1045,288,0,0,0,4,5,1,45,0004-00-0002-01.png,0005-00-0001-27.png
00000009,849,0,1440089795184,1440089795940,953,342,0,0,0,3,4,1,34,0003-00-0005-62.png,0004-00-0007-93.png
00000009,850,0,1440089799271,1440089799904,507,233,0,0,0,4,3,1,43,0004-00-0002-88.png,0003-00-0007-86.png
00000009,851,1,1440089803194,1440089803230,966,335,0,0,0,5,4,1,54,0005-00-0007-16.png,0004-00-0001-41.png
00000009,852,1,1440089805102,1440089805923,1070,249,0,0,0,2,1,1,21,0002-00-0009-81.png,0001-00-0001-64.png
00000009,853,1,1440089806842,1440089808458,407,277,0,0,0,2,3,1,23,0002-00-0005-70.png,0003-00-0007-31.png
00000009,854,1,1440089810319,1440089811016,982,350,0,0,0,3,2,1,32,0003-00-0009-31.png,0002-00-0007-03.png
00000009,855,0,1440089812702,1440089813517,928,348,0,0,0,1,2,1,12,0001-00-0004-33.png,0002-00-0007-63.png
00000009,856,0,1440089816569,1440089817236,964,346,0,0,0,4,5,1,45,0004-00-0000-60.png,0005-00-0000-36.png
00000009,857,0,1440089820562,1440089821129,965,359,0,0,0,3,4,1,34,0003-00-0001-47.png,0004-00-0007-33.png
00000009,858,1,1440089826407,1440089826431,864,361,0,0,0,3,2,1,32,0003-00-0001-62.png,0002-00-0005-14.png
00000009,859,1,1440089827700,1440089828253,1044,282,0,0,0,4,3,1,43,0004-00-0009-73.png,0003-00-0007-42.png
00000009,860,0,1440089829160,1440089830229,913,358,0,0,0,2,3,1,23,0002-00-0002-81.png,0003-00-0006-48.png
00000009,861,1,1440089834068,1440089834781,913,323,0,0,0,2,1,1,21,0002-00-0004-97.png,0001-00-0006-80.png
00000009,862,0,1440089836615,1440089837725,1041,384,0,0,0,4,5,1,45,0004-00-0001-34.png,0005-00-0002-12.png
00000009,863,0,1440089841420,1440089842099,965,372,0,0,0,1,2,1,12,0001-00-0008-96.png,0002-00-0002-75.png
00000009,864,0,1440089845822,1440089849374,336,319,0,0,0,5,4,1,54,0005-00-0007-94.png,0004-00-0005-02.png
00000009,865,1,1440089852884,1440089853849,299,343,0,0,0,2,3,1,23,0002-00-0007-47.png,0003-00-0004-40.png
00000009,866,1,1440089856152,1440089857194,911,286,0,0,0,5,4,1,54,0005-00-0007-33.png,0004-00-0009-20.png
00000009,867,0,1440089859196,1440089860022,1026,392,0,0,0,3,4,1,34,0003-00-0005-90.png,0004-00-0002-10.png
00000009,868,0,1440089863239,1440089864080,1043,359,0,0,0,4,5,1,45,0004-00-0002-47.png,0005-00-0000-91.png
00000009,869,0,1440089867391,1440089867877,292,313,0,0,0,3,2,1,32,0003-00-0001-31.png,0002-00-0003-72.png
00000009,870,1,1440089871329,1440089872268,1067,332,0,0,0,2,1,1,21,0002-00-0002-68.png,0001-00-0002-99.png
00000009,871,0,1440089874292,1440089874970,309,332,0,0,0,4,3,1,43,0004-00-0006-15.png,0003-00-0001-23.png
00000009,872,1,1440089879462,1440089880075,376,332,0,0,0,1,2,1,12,0001-00-0002-66.png,0002-00-0006-25.png
00000009,873,0,1440089882115,1440089882670,305,325,0,0,0,2,1,1,21,0002-00-0004-50.png,0001-00-0008-10.png
00000009,874,1,1440089886007,1440089886799,282,320,0,0,0,4,5,1,45,0004-00-0005-44.png,0005-00-0006-24.png
00000009,875,0,1440089888581,1440089889244,991,359,0,0,0,2,3,1,23,0002-00-0002-07.png,0003-00-0007-98.png
00000009,876,1,1440089892803,1440089893614,330,350,0,0,0,3,4,1,34,0003-00-0008-32.png,0004-00-0002-49.png
00000009,877,1,1440089895329,1440089896330,332,353,0,0,0,1,2,1,12,0001-00-0005-28.png,0002-00-0009-27.png
00000009,878,1,1440089898260,1440089899520,1041,341,0,0,0,3,2,1,32,0003-00-0001-25.png,0002-00-0008-43.png
00000009,879,0,1440089901272,1440089902033,350,288,0,0,0,5,4,1,54,0005-00-0003-60.png,0004-00-0007-97.png
00000009,880,0,1440089905257,1440089905454,513,352,0,0,0,4,3,1,43,0004-00-0007-80.png,0003-00-0001-29.png
00000009,881,1,1440089908864,1440089909408,290,339,0,0,0,4,5,1,45,0004-00-0007-28.png,0005-00-0004-74.png
00000009,882,1,1440089911163,1440089911941,939,321,0,0,0,5,4,1,54,0005-00-0005-80.png,0004-00-0008-09.png
00000009,883,1,1440089914188,1440089915050,333,334,0,0,0,1,2,1,12,0001-00-0001-00.png,0002-00-0003-84.png
00000009,884,1,1440089917131,1440089917667,339,306,0,0,0,2,3,1,23,0002-00-0004-96.png,0003-00-0002-14.png
00000009,885,0,1440089919733,1440089920352,273,332,0,0,0,3,2,1,32,0003-00-0003-44.png,0002-00-0002-19.png
00000009,886,1,1440089923566,1440089924213,1041,345,0,0,0,2,1,1,21,0002-00-0002-45.png,0001-00-0003-03.png
00000009,887,1,1440089925845,1440089927149,1070,374,0,0,0,4,3,1,43,0004-00-0006-92.png,0003-00-0003-31.png
00000009,888,0,1440089929046,1440089929695,964,319,0,0,0,3,4,1,34,0003-00-0006-74.png,0004-00-0005-81.png
00000009,889,0,1440089933618,1440089933694,890,355,0,0,0,1,2,1,12,0001-00-0004-92.png,0002-00-0002-73.png
00000009,890,1,1440089937375,1440089937486,866,407,0,0,0,2,1,1,21,0002-00-0002-13.png,0001-00-0009-91.png
00000009,891,0,1440089939163,1440089939191,915,312,0,0,0,4,5,1,45,0004-00-0008-68.png,0005-00-0009-32.png
00000009,892,0,1440089942465,1440089943591,329,383,0,0,0,5,4,1,54,0005-00-0006-27.png,0004-00-0001-12.png
00000009,893,0,1440089946876,1440089947762,417,247,0,0,0,4,3,1,43,0004-00-0004-54.png,0003-00-0004-64.png
00000009,894,0,1440089951090,1440089951685,956,336,0,0,0,3,4,1,34,0003-00-0009-18.png,0004-00-0001-67.png
00000009,895,1,1440089954905,1440089955691,470,273,0,0,0,2,3,1,23,0002-00-0006-16.png,0003-00-0000-06.png
00000009,896,0,1440089957397,1440089958313,485,262,0,0,0,3,2,1,32,0003-00-0000-38.png,0002-00-0005-62.png
00000009,897,1,1440089961574,1440089961591,939,307,0,0,0,5,4,1,54,0005-00-0008-17.png,0004-00-0006-47.png
00000009,898,1,1440089963203,1440089963922,943,330,0,0,0,2,1,1,21,0002-00-0003-30.png,0001-00-0004-31.png
00000009,899,1,1440089965936,1440089966600,456,259,0,0,0,2,3,1,23,0002-00-0001-38.png,0003-00-0002-70.png
00000009,900,1,1440089967523,1440089968547,921,342,0,0,0,3,2,1,32,0003-00-0009-98.png,0002-00-0008-94.png
00000009,901,1,1440089969931,1440089970812,453,280,0,0,0,1,2,1,12,0001-00-0006-48.png,0002-00-0002-00.png
00000009,902,1,1440089972313,1440089973271,988,255,0,0,0,4,3,1,43,0004-00-0008-99.png,0003-00-0006-53.png
00000009,903,0,1440089974749,1440089975483,912,339,0,0,0,3,4,1,34,0003-00-0005-78.png,0004-00-0002-16.png
00000009,904,1,1440089978693,1440089979446,388,399,0,0,0,4,5,1,45,0004-00-0007-33.png,0005-00-0006-76.png
00000009,905,0,1440089981489,1440089982104,963,312,0,0,0,2,3,1,23,0002-00-0004-38.png,0003-00-0007-34.png
00000009,906,0,1440089985500,1440089985528,944,354,0,0,0,4,5,1,45,0004-00-0008-49.png,0005-00-0000-39.png
00000009,907,1,1440089988766,1440089990082,350,320,0,0,0,1,2,1,12,0001-00-0004-36.png,0002-00-0007-18.png
00000009,908,1,1440089992208,1440089992891,1016,374,0,0,0,5,4,1,54,0005-00-0005-44.png,0004-00-0003-37.png
00000009,909,0,1440089994717,1440089995268,325,332,0,0,0,2,1,1,21,0002-00-0009-04.png,0001-00-0008-57.png
00000009,910,1,1440090018410,1440090018957,1035,299,0,0,0,3,2,1,32,0003-00-0004-02.png,0002-00-0004-50.png
00000009,911,1,1440090022350,1440090023277,990,345,0,0,0,4,3,1,43,0004-00-0006-64.png,0003-00-0004-30.png
00000009,912,1,1440090025066,1440090025626,313,315,0,0,0,3,4,1,34,0003-00-0007-92.png,0004-00-0007-21.png
00000009,913,0,1440090027471,1440090028122,964,347,0,0,0,1,2,1,12,0001-00-0001-54.png,0002-00-0009-34.png
00000009,914,0,1440090031576,1440090032553,298,341,0,0,0,3,2,1,32,0003-00-0003-03.png,0002-00-0002-64.png
00000009,915,1,1440090035938,1440090036451,350,319,0,0,0,4,5,1,45,0004-00-0008-96.png,0005-00-0001-02.png
00000009,916,0,1440090038284,1440090038905,299,325,0,0,0,4,3,1,43,0004-00-0004-70.png,0003-00-0007-44.png
00000009,917,0,1440090041862,1440090042450,940,372,0,0,0,3,4,1,34,0003-00-0004-08.png,0004-00-0002-73.png
00000009,918,1,1440090047147,1440090047658,1039,300,0,0,0,2,1,1,21,0002-00-0000-10.png,0001-00-0002-67.png
00000009,919,1,1440090049444,1440090050250,940,345,0,0,0,5,4,1,54,0005-00-0002-02.png,0004-00-0006-72.png
00000009,920,1,1440090051317,1440090052236,478,239,0,0,0,2,3,1,23,0002-00-0001-19.png,0003-00-0008-44.png
00000009,921,0,1440090054111,1440090054626,944,326,0,0,0,3,4,1,34,0003-00-0006-82.png,0004-00-0000-55.png
00000009,922,0,1440090059768,1440090059852,942,302,0,0,0,2,3,1,23,0002-00-0009-65.png,0003-00-0001-81.png
00000009,923,0,1440090063106,1440090063830,1041,420,0,0,0,4,5,1,45,0004-00-0009-58.png,0005-00-0006-12.png
00000009,924,0,1440090067022,1440090067610,493,266,0,0,0,4,3,1,43,0004-00-0009-33.png,0003-00-0003-55.png
00000009,925,0,1440090070771,1440090071705,1064,259,0,0,0,1,2,1,12,0001-00-0008-79.png,0002-00-0007-32.png
00000009,926,0,1440090075144,1440090075939,362,361,0,0,0,3,2,1,32,0003-00-0009-71.png,0002-00-0001-12.png
00000009,927,1,1440090079090,1440090079691,989,305,0,0,0,5,4,1,54,0005-00-0002-84.png,0004-00-0001-43.png
00000009,928,0,1440090081507,1440090082245,482,259,0,0,0,2,1,1,21,0002-00-0005-71.png,0001-00-0006-75.png
00000009,929,0,1440090092892,1440090092900,918,340,0,0,0,4,5,1,45,0004-00-0008-80.png,0005-00-0000-06.png
00000009,930,0,1440090097625,1440090097709,987,304,0,0,0,1,2,1,12,0001-00-0009-99.png,0002-00-0009-87.png
00000009,931,1,1440090100953,1440090101687,936,366,0,0,0,2,1,1,21,0002-00-0007-46.png,0001-00-0005-53.png
00000009,932,0,1440090103427,1440090103475,894,317,0,0,0,3,4,1,34,0003-00-0005-19.png,0004-00-0000-55.png
00000009,933,1,1440090119257,1440090120245,492,313,0,0,0,2,3,1,23,0002-00-0006-69.png,0003-00-0001-12.png
00000009,934,1,1440090121944,1440090122419,934,391,0,0,0,3,2,1,32,0003-00-0004-57.png,0002-00-0008-89.png
00000009,935,1,1440090123791,1440090124404,1020,302,0,0,0,4,3,1,43,0004-00-0002-97.png,0003-00-0002-36.png
00000009,936,0,1440090126217,1440090126765,479,303,0,0,0,5,4,1,54,0005-00-0008-17.png,0004-00-0002-69.png
00000009,937,0,1440090131807,1440090132344,1036,278,0,0,0,3,4,1,34,0003-00-0001-31.png,0004-00-0007-11.png
00000009,938,1,1440090162539,1440090162599,1012,388,0,0,0,2,1,1,21,0002-00-0000-29.png,0001-00-0000-48.png
00000009,939,1,1440090163505,1440090164132,923,534,0,0,0,3,2,1,32,0003-00-0007-59.png,0002-00-0001-51.png
00000009,940,0,1440090164993,1440090165882,941,393,0,0,0,4,5,1,45,0004-00-0007-31.png,0005-00-0003-25.png
00000009,941,0,1440090193197,1440090193794,941,382,0,0,0,2,3,1,23,0002-00-0007-60.png,0003-00-0005-61.png
