subject_id,trial,correct_response,stim_time,response_time,x_coord,y_coord,trial_timeout,timeout_time,interTrial_timeout,left_rank,right_rank,distance,joint_rank,left_image,right_image
00000014,1,1,1438804229120,1438804230074,325,474,0,0,0,1,2,1,12,0001-00-0000-29.png,0002-00-0000-63.png
00000014,2,1,1438804231177,1438804231547,279,355,0,0,0,2,3,1,23,0002-00-0001-70.png,0003-00-0001-70.png
00000014,3,1,1438804281427,1438804281839,300,363,0,0,0,4,5,1,45,0004-00-0001-27.png,0005-00-0001-47.png
00000014,4,0,1438804283365,1438804283790,327,385,0,0,0,2,1,1,21,0002-00-0000-58.png,0001-00-0001-09.png
00000014,5,1,1438804286019,1438804286504,337,397,0,0,0,3,4,1,34,0003-00-0001-60.png,0004-00-0001-66.png
00000014,6,0,1438804288035,1438804288466,345,400,0,0,0,4,3,1,43,0004-00-0001-25.png,0003-00-0001-83.png
00000014,7,0,1438804290576,1438804290984,222,462,0,0,0,5,4,1,54,0005-00-0001-41.png,0004-00-0001-05.png
00000014,8,1,1438804292965,1438804293546,908,490,0,0,0,3,2,1,32,0003-00-0001-77.png,0002-00-0000-41.png
00000014,9,1,1438804294787,1438804295305,248,452,0,0,0,1,2,1,12,0001-00-0001-73.png,0002-00-0001-32.png
00000014,10,1,1438804296405,1438804296887,273,451,0,0,0,2,3,1,23,0002-00-0001-97.png,0003-00-0001-56.png
00000014,11,1,1438804298133,1438804298705,928,469,0,0,0,3,2,1,32,0003-00-0001-47.png,0002-00-0000-14.png
00000014,12,0,1438804300179,1438804300614,350,358,0,0,0,4,3,1,43,0004-00-0001-64.png,0003-00-0001-19.png
00000014,13,0,1438804302535,1438804303007,276,352,0,0,0,5,4,1,54,0005-00-0001-55.png,0004-00-0001-24.png
00000014,14,1,1438804305267,1438804305884,862,479,0,0,0,2,1,1,21,0002-00-0000-12.png,0001-00-0001-30.png
00000014,15,1,1438804306989,1438804307500,395,378,0,0,0,3,4,1,34,0003-00-0001-76.png,0004-00-0001-78.png
00000014,16,1,1438804308846,1438804308850,506,466,0,0,0,4,5,1,45,0004-00-0001-50.png,0005-00-0000-74.png
00000014,17,0,1438804309991,1438804310466,389,487,0,0,0,2,1,1,21,0002-00-0000-98.png,0001-00-0001-13.png
00000014,18,0,1438804320230,1438804320775,862,410,0,0,0,4,5,1,45,0004-00-0001-30.png,0005-00-0000-19.png
00000014,19,0,1438804324546,1438804325060,347,376,0,0,0,4,3,1,43,0004-00-0001-20.png,0003-00-0000-55.png
00000014,20,0,1438804329370,1438804329854,361,496,0,0,0,5,4,1,54,0005-00-0001-54.png,0004-00-0000-01.png
00000014,21,1,1438804333342,1438804333823,321,386,0,0,0,2,3,1,23,0002-00-0001-73.png,0003-00-0000-51.png
00000014,22,0,1438804335121,1438804335679,397,510,0,0,0,3,2,1,32,0003-00-0001-95.png,0002-00-0000-15.png
00000014,23,1,1438804337883,1438804338449,344,390,0,0,0,3,4,1,34,0003-00-0000-68.png,0004-00-0001-23.png
00000014,24,1,1438804339454,1438804339970,233,436,0,0,0,1,2,1,12,0001-00-0001-99.png,0002-00-0001-59.png
00000014,25,1,1438804340971,1438804341405,352,393,0,0,0,4,5,1,45,0004-00-0001-25.png,0005-00-0000-16.png
00000014,26,0,1438804342427,1438804342976,339,440,0,0,0,4,3,1,43,0004-00-0000-15.png,0003-00-0000-26.png
00000014,27,1,1438804346075,1438804346548,328,386,0,0,0,1,2,1,12,0001-00-0000-20.png,0002-00-0001-04.png
00000014,28,1,1438804347565,1438804348062,324,384,0,0,0,2,3,1,23,0002-00-0001-28.png,0003-00-0000-96.png
00000014,29,0,1438804349112,1438804349152,504,462,0,0,0,2,1,1,21,0002-00-0000-31.png,0001-00-0000-30.png
00000014,30,0,1438804351759,1438804352274,273,384,0,0,0,3,2,1,32,0003-00-0000-10.png,0002-00-0000-86.png
00000014,31,1,1438804354214,1438804354693,360,457,0,0,0,3,4,1,34,0003-00-0001-66.png,0004-00-0000-76.png
00000014,32,0,1438804355740,1438804356399,273,410,0,0,0,5,4,1,54,0005-00-0000-78.png,0004-00-0001-33.png
00000014,33,1,1438804361253,1438804361755,312,401,0,0,0,2,3,1,23,0002-00-0000-43.png,0003-00-0000-40.png
00000014,34,0,1438804363221,1438804363906,952,371,0,0,0,1,2,1,12,0001-00-0001-06.png,0002-00-0000-17.png
00000014,35,1,1438804365972,1438804366407,371,463,0,0,0,4,5,1,45,0004-00-0001-36.png,0005-00-0000-47.png
00000014,36,0,1438804367487,1438804368004,325,382,0,0,0,2,1,1,21,0002-00-0000-38.png,0001-00-0001-03.png
00000014,37,1,1438804370504,1438804370954,386,499,0,0,0,3,4,1,34,0003-00-0000-46.png,0004-00-0001-36.png
00000014,38,0,1438804371945,1438804372611,330,395,0,0,0,5,4,1,54,0005-00-0000-59.png,0004-00-0001-12.png
00000014,39,1,1438804374454,1438804375076,939,372,0,0,0,3,2,1,32,0003-00-0000-64.png,0002-00-0000-62.png
00000014,40,0,1438804376061,1438804376600,369,400,0,0,0,4,3,1,43,0004-00-0001-96.png,0003-00-0000-70.png
00000014,41,1,1438804378582,1438804379092,388,459,0,0,0,1,2,1,12,0001-00-0001-96.png,0002-00-0000-17.png
00000014,42,0,1438804380135,1438804380159,503,467,0,0,0,5,4,1,54,0005-00-0001-29.png,0004-00-0000-79.png
00000014,43,0,1438804382147,1438804382629,350,397,0,0,0,4,3,1,43,0004-00-0000-42.png,0003-00-0001-57.png
00000014,44,1,1438804384826,1438804385290,362,396,0,0,0,3,4,1,34,0003-00-0000-30.png,0004-00-0001-21.png
00000014,45,1,1438804386327,1438804386335,493,451,0,0,0,2,3,1,23,0002-00-0000-53.png,0003-00-0000-52.png
00000014,46,1,1438804388301,1438804388771,342,375,0,0,0,4,5,1,45,0004-00-0000-02.png,0005-00-0000-49.png
00000014,47,1,1438804389746,1438804390409,905,402,0,0,0,2,1,1,21,0002-00-0000-77.png,0001-00-0000-29.png
00000014,48,0,1438804391389,1438804392048,376,385,0,0,0,3,2,1,32,0003-00-0000-05.png,0002-00-0000-18.png
00000014,49,1,1438804395222,1438804395737,330,392,0,0,0,4,5,1,45,0004-00-0000-10.png,0005-00-0001-76.png
00000014,50,0,1438804396807,1438804397423,376,439,0,0,0,3,2,1,32,0003-00-0000-88.png,0002-00-0000-96.png
00000014,51,1,1438804401315,1438804401865,299,397,0,0,0,2,3,1,23,0002-00-0001-82.png,0003-00-0000-01.png
00000014,52,1,1438804402925,1438804402937,504,452,0,0,0,1,2,1,12,0001-00-0001-34.png,0002-00-0001-71.png
00000014,53,0,1438804403977,1438804404563,350,397,0,0,0,4,3,1,43,0004-00-0001-43.png,0003-00-0000-89.png
00000014,54,0,1438804406757,1438804407287,401,501,0,0,0,5,4,1,54,0005-00-0001-21.png,0004-00-0000-40.png
00000014,55,0,1438804409323,1438804409933,914,471,0,0,0,3,4,1,34,0003-00-0001-63.png,0004-00-0001-80.png
00000014,56,0,1438804412034,1438804412500,274,396,0,0,0,2,1,1,21,0002-00-0000-15.png,0001-00-0000-26.png
00000014,57,1,1438804414899,1438804415356,350,371,0,0,0,1,2,1,12,0001-00-0000-24.png,0002-00-0000-22.png
00000014,58,1,1438804416309,1438804416830,350,392,0,0,0,2,3,1,23,0002-00-0001-35.png,0003-00-0001-91.png
00000014,59,0,1438804421200,1438804421703,324,374,0,0,0,2,1,1,21,0002-00-0000-35.png,0001-00-0001-28.png
00000014,60,0,1438804423904,1438804424387,312,358,0,0,0,3,2,1,32,0003-00-0000-17.png,0002-00-0000-47.png
00000014,61,1,1438804433114,1438804433649,382,445,0,0,0,3,4,1,34,0003-00-0000-79.png,0004-00-0001-08.png
00000014,62,0,1438804434657,1438804435269,251,512,0,0,0,5,4,1,54,0005-00-0001-37.png,0004-00-0000-17.png
00000014,63,0,1438804437179,1438804437663,339,410,0,0,0,4,3,1,43,0004-00-0000-66.png,0003-00-0001-39.png
00000014,64,1,1438804445617,1438804446186,302,378,0,0,0,4,5,1,45,0004-00-0001-36.png,0005-00-0001-21.png
00000014,65,1,1438804447823,1438804448286,393,470,0,0,0,2,3,1,23,0002-00-0000-39.png,0003-00-0001-67.png
00000014,66,1,1438804449345,1438804450009,939,358,0,0,0,5,4,1,54,0005-00-0001-24.png,0004-00-0000-50.png
00000014,67,0,1438804451134,1438804451786,318,375,0,0,0,2,1,1,21,0002-00-0001-27.png,0001-00-0000-86.png
00000014,68,0,1438804454383,1438804454869,383,478,0,0,0,3,2,1,32,0003-00-0000-76.png,0002-00-0001-42.png
00000014,69,0,1438804456928,1438804457452,305,303,0,0,0,4,3,1,43,0004-00-0001-40.png,0003-00-0001-39.png
00000014,70,1,1438804459473,1438804459932,273,358,0,0,0,1,2,1,12,0001-00-0000-26.png,0002-00-0000-83.png
00000014,71,1,1438804462066,1438804462090,509,432,0,0,0,3,4,1,34,0003-00-0001-38.png,0004-00-0001-99.png
00000014,72,1,1438804463169,1438804463756,310,414,0,0,0,4,5,1,45,0004-00-0001-18.png,0005-00-0001-53.png
00000014,73,1,1438804464808,1438804465478,353,373,0,0,0,3,4,1,34,0003-00-0000-56.png,0004-00-0000-18.png
00000014,74,1,1438804466540,1438804466604,501,513,0,0,0,4,5,1,45,0004-00-0001-72.png,0005-00-0001-28.png
00000014,75,0,1438804467761,1438804468256,313,359,0,0,0,2,1,1,21,0002-00-0000-53.png,0001-00-0000-36.png
00000014,76,0,1438804470102,1438804470554,310,368,0,0,0,5,4,1,54,0005-00-0000-28.png,0004-00-0000-11.png
00000014,77,1,1438804473554,1438804474159,906,427,0,0,0,3,2,1,32,0003-00-0000-65.png,0002-00-0000-94.png
00000014,78,0,1438804475196,1438804475963,877,339,0,0,0,2,3,1,23,0002-00-0000-73.png,0003-00-0000-43.png
00000014,79,0,1438804477782,1438804478226,325,345,0,0,0,4,3,1,43,0004-00-0001-59.png,0003-00-0000-61.png
00000014,80,0,1438804480313,1438804480849,913,394,0,0,0,1,2,1,12,0001-00-0000-06.png,0002-00-0000-03.png
00000014,81,0,1438804482877,1438804483401,300,362,0,0,0,2,1,1,21,0002-00-0001-53.png,0001-00-0000-32.png
00000014,82,1,1438804485632,1438804486144,325,373,0,0,0,1,2,1,12,0001-00-0001-02.png,0002-00-0000-61.png
00000014,83,0,1438804487787,1438804488600,896,368,0,0,0,4,5,1,45,0004-00-0001-21.png,0005-00-0000-29.png
00000014,84,1,1438804498412,1438804498977,894,440,0,0,0,4,3,1,43,0004-00-0001-68.png,0003-00-0000-13.png
00000014,85,0,1438804499999,1438804500593,887,465,0,0,0,3,4,1,34,0003-00-0000-76.png,0004-00-0000-62.png
00000014,86,0,1438804512543,1438804512980,385,434,0,0,0,5,4,1,54,0005-00-0000-40.png,0004-00-0000-57.png
00000014,87,1,1438804517585,1438804518093,320,362,0,0,0,2,3,1,23,0002-00-0001-85.png,0003-00-0000-28.png
00000014,88,1,1438804519055,1438804519591,939,431,0,0,0,3,2,1,32,0003-00-0001-95.png,0002-00-0000-09.png
00000014,89,1,1438804520577,1438804521174,878,360,0,0,0,5,4,1,54,0005-00-0001-71.png,0004-00-0001-10.png
00000014,90,0,1438804522202,1438804522730,927,476,0,0,0,1,2,1,12,0001-00-0000-84.png,0002-00-0001-01.png
00000014,91,0,1438804524598,1438804525097,362,350,0,0,0,4,3,1,43,0004-00-0001-34.png,0003-00-0001-31.png
00000014,92,1,1438804526986,1438804527505,384,433,0,0,0,3,4,1,34,0003-00-0000-62.png,0004-00-0000-14.png
00000014,93,1,1438804528546,1438804529217,955,376,0,0,0,3,2,1,32,0003-00-0000-78.png,0002-00-0000-19.png
00000014,94,0,1438804530176,1438804530779,912,346,0,0,0,4,5,1,45,0004-00-0001-63.png,0005-00-0001-11.png
00000014,95,0,1438804532624,1438804533105,376,347,0,0,0,2,1,1,21,0002-00-0000-22.png,0001-00-0001-96.png
00000014,96,1,1438804535033,1438804535497,369,384,0,0,0,2,3,1,23,0002-00-0000-09.png,0003-00-0001-80.png
00000014,97,0,1438804536524,1438804537081,325,396,0,0,0,4,3,1,43,0004-00-0001-95.png,0003-00-0001-89.png
00000014,98,0,1438804539139,1438804539562,337,370,0,0,0,5,4,1,54,0005-00-0001-34.png,0004-00-0001-30.png
00000014,99,1,1438804541712,1438804542226,299,362,0,0,0,3,4,1,34,0003-00-0001-10.png,0004-00-0001-20.png
00000014,100,0,1438804543333,1438804544053,947,419,0,0,0,2,3,1,23,0002-00-0000-42.png,0003-00-0001-63.png
00000014,101,1,1438804546113,1438804546609,302,338,0,0,0,4,5,1,45,0004-00-0001-16.png,0005-00-0000-86.png
00000014,102,0,1438804548108,1438804548544,356,358,0,0,0,2,1,1,21,0002-00-0000-62.png,0001-00-0000-10.png
00000014,103,1,1438804550745,1438804551241,931,350,0,0,0,3,2,1,32,0003-00-0000-71.png,0002-00-0000-57.png
00000014,104,1,1438804552237,1438804552930,389,413,0,0,0,1,2,1,12,0001-00-0001-89.png,0002-00-0000-05.png
00000014,105,0,1438804553945,1438804553989,513,466,0,0,0,2,1,1,21,0002-00-0001-91.png,0001-00-0001-70.png
00000014,106,1,1438804556032,1438804556548,336,358,0,0,0,3,4,1,34,0003-00-0001-14.png,0004-00-0000-88.png
00000014,107,1,1438804557604,1438804558249,273,372,0,0,0,2,3,1,23,0002-00-0000-83.png,0003-00-0000-58.png
00000014,108,0,1438804559325,1438804559943,900,397,0,0,0,4,5,1,45,0004-00-0000-88.png,0005-00-0000-22.png
00000014,109,1,1438804561874,1438804562321,339,342,0,0,0,1,2,1,12,0001-00-0001-85.png,0002-00-0000-18.png
00000014,110,0,1438804563577,1438804563581,520,483,0,0,0,5,4,1,54,0005-00-0001-48.png,0004-00-0000-35.png
00000014,111,0,1438804565433,1438804565918,347,378,0,0,0,4,3,1,43,0004-00-0001-64.png,0003-00-0001-71.png
00000014,112,1,1438804579797,1438804580446,916,432,0,0,0,3,2,1,32,0003-00-0000-03.png,0002-00-0000-10.png
00000014,113,1,1438804581912,1438804582416,311,357,0,0,0,2,3,1,23,0002-00-0000-89.png,0003-00-0000-33.png
00000014,114,0,1438804583475,1438804583479,513,445,0,0,0,2,1,1,21,0002-00-0000-27.png,0001-00-0000-78.png
00000014,115,1,1438804585587,1438804586127,401,466,0,0,0,3,4,1,34,0003-00-0000-16.png,0004-00-0000-30.png
00000014,116,0,1438804587156,1438804587244,521,542,0,0,0,3,2,1,32,0003-00-0000-35.png,0002-00-0001-68.png
00000014,117,1,1438804589302,1438804589333,489,410,0,0,0,1,2,1,12,0001-00-0001-49.png,0002-00-0000-74.png
00000014,118,1,1438804590490,1438804591121,921,446,0,0,0,5,4,1,54,0005-00-0000-95.png,0004-00-0000-97.png
00000014,119,0,1438804592175,1438804592804,410,341,0,0,0,4,3,1,43,0004-00-0001-04.png,0003-00-0001-28.png
00000014,120,1,1438804594861,1438804595367,388,476,0,0,0,4,5,1,45,0004-00-0001-62.png,0005-00-0000-85.png
00000014,121,1,1438804596463,1438804596518,479,539,0,0,0,1,2,1,12,0001-00-0000-87.png,0002-00-0000-47.png
00000014,122,0,1438804597685,1438804598168,350,410,0,0,0,4,3,1,43,0004-00-0001-10.png,0003-00-0000-01.png
00000014,123,1,1438804607012,1438804607580,382,438,0,0,0,4,5,1,45,0004-00-0001-56.png,0005-00-0000-56.png
00000014,124,0,1438804608604,1438804608620,493,445,0,0,0,5,4,1,54,0005-00-0001-66.png,0004-00-0001-36.png
00000014,125,0,1438804610467,1438804611167,938,345,0,0,0,3,4,1,34,0003-00-0000-47.png,0004-00-0000-56.png
00000014,126,1,1438804619365,1438804619768,331,419,0,0,0,2,3,1,23,0002-00-0000-96.png,0003-00-0000-03.png
00000014,127,0,1438804620776,1438804620796,478,426,0,0,0,3,2,1,32,0003-00-0001-42.png,0002-00-0000-90.png
00000014,128,0,1438804632123,1438804632621,380,329,0,0,0,2,1,1,21,0002-00-0001-24.png,0001-00-0001-74.png
00000014,129,0,1438804634967,1438804635430,364,386,0,0,0,2,1,1,21,0002-00-0001-41.png,0001-00-0001-12.png
00000014,130,1,1438804638484,1438804638962,349,347,0,0,0,3,4,1,34,0003-00-0000-17.png,0004-00-0001-73.png
00000014,131,1,1438804639994,1438804640558,343,399,0,0,0,4,5,1,45,0004-00-0000-01.png,0005-00-0001-78.png
00000014,132,0,1438804641616,1438804642143,337,360,0,0,0,3,2,1,32,0003-00-0001-19.png,0002-00-0001-04.png
00000014,133,0,1438804644157,1438804644672,349,387,0,0,0,5,4,1,54,0005-00-0001-01.png,0004-00-0001-52.png
00000014,134,0,1438804646582,1438804647015,331,349,0,0,0,4,3,1,43,0004-00-0000-46.png,0003-00-0000-39.png
00000014,135,1,1438804649980,1438804650479,330,465,0,0,0,1,2,1,12,0001-00-0001-58.png,0002-00-0001-12.png
00000014,136,1,1438804651589,1438804652061,340,490,0,0,0,2,3,1,23,0002-00-0000-06.png,0003-00-0001-27.png
00000014,137,1,1438804653062,1438804653078,485,455,0,0,0,3,4,1,34,0003-00-0000-12.png,0004-00-0001-01.png
00000014,138,0,1438804654236,1438804654769,330,394,0,0,0,5,4,1,54,0005-00-0001-18.png,0004-00-0001-37.png
00000014,139,0,1438804656791,1438804657241,326,361,0,0,0,3,2,1,32,0003-00-0001-53.png,0002-00-0000-29.png
00000014,140,1,1438804659204,1438804659232,479,390,0,0,0,2,3,1,23,0002-00-0001-96.png,0003-00-0001-52.png
00000014,141,0,1438804660370,1438804660914,311,373,0,0,0,4,3,1,43,0004-00-0001-58.png,0003-00-0000-71.png
00000014,142,1,1438804667706,1438804668237,387,449,0,0,0,1,2,1,12,0001-00-0000-41.png,0002-00-0000-54.png
00000014,143,1,1438804669411,1438804669967,902,467,0,0,0,2,1,1,21,0002-00-0001-22.png,0001-00-0001-02.png
00000014,144,1,1438804671013,1438804671589,401,439,0,0,0,4,5,1,45,0004-00-0001-88.png,0005-00-0001-42.png
00000014,145,1,1438804672602,1438804672610,496,453,0,0,0,3,4,1,34,0003-00-0001-15.png,0004-00-0001-07.png
00000014,146,0,1438804673668,1438804674218,412,489,0,0,0,2,1,1,21,0002-00-0000-64.png,0001-00-0001-67.png
00000014,147,1,1438804676098,1438804676608,325,370,0,0,0,2,3,1,23,0002-00-0000-56.png,0003-00-0001-22.png
00000014,148,0,1438804677552,1438804677564,475,476,0,0,0,3,2,1,32,0003-00-0000-76.png,0002-00-0001-85.png
00000014,149,1,1438804679669,1438804680113,191,452,0,0,0,4,5,1,45,0004-00-0001-10.png,0005-00-0001-48.png
00000014,150,0,1438804681071,1438804681653,348,399,0,0,0,4,3,1,43,0004-00-0000-56.png,0003-00-0001-92.png
00000014,151,1,1438804683952,1438804683968,478,453,0,0,0,1,2,1,12,0001-00-0001-97.png,0002-00-0000-47.png
00000014,152,0,1438804684975,1438804684995,466,436,0,0,0,5,4,1,54,0005-00-0001-12.png,0004-00-0000-21.png
00000014,153,1,1438804687183,1438804687772,411,416,0,0,0,4,5,1,45,0004-00-0000-84.png,0005-00-0001-36.png
00000014,154,0,1438804688720,1438804689298,389,476,0,0,0,4,3,1,43,0004-00-0001-70.png,0003-00-0000-39.png
00000014,155,0,1438804691435,1438804691463,478,436,0,0,0,5,4,1,54,0005-00-0001-18.png,0004-00-0001-47.png
00000014,156,1,1438804694051,1438804694075,478,462,0,0,0,1,2,1,12,0001-00-0001-43.png,0002-00-0001-09.png
00000014,157,0,1438804695214,1438804695713,332,384,0,0,0,3,2,1,32,0003-00-0000-12.png,0002-00-0001-83.png
00000014,158,1,1438804697887,1438804697907,504,462,0,0,0,3,4,1,34,0003-00-0000-04.png,0004-00-0001-34.png
00000014,159,1,1438804699643,1438804699690,504,488,0,0,0,2,3,1,23,0002-00-0000-53.png,0003-00-0001-09.png
00000014,160,0,1438804700639,1438804700659,488,436,0,0,0,2,1,1,21,0002-00-0000-73.png,0001-00-0001-14.png
00000014,161,0,1438804702717,1438804703222,186,384,0,0,0,3,2,1,32,0003-00-0000-67.png,0002-00-0001-44.png
00000014,162,0,1438804711019,1438804711570,197,410,0,0,0,5,4,1,54,0005-00-0001-07.png,0004-00-0000-00.png
00000014,163,1,1438804713562,1438804713566,416,381,0,0,0,4,5,1,45,0004-00-0001-54.png,0005-00-0001-02.png
00000014,164,1,1438804714667,1438804715243,349,396,0,0,0,1,2,1,12,0001-00-0001-10.png,0002-00-0001-65.png
00000014,165,1,1438804716246,1438804716270,495,437,0,0,0,3,4,1,34,0003-00-0000-57.png,0004-00-0001-45.png
00000014,166,0,1438804717857,1438804718290,329,339,0,0,0,4,3,1,43,0004-00-0000-94.png,0003-00-0000-57.png
00000014,167,0,1438804720241,1438804720735,906,413,0,0,0,2,3,1,23,0002-00-0001-01.png,0003-00-0000-37.png
00000014,168,0,1438804722795,1438804723273,305,357,0,0,0,2,1,1,21,0002-00-0001-05.png,0001-00-0000-63.png
00000014,169,0,1438804725349,1438804725809,350,438,0,0,0,4,3,1,43,0004-00-0000-52.png,0003-00-0000-46.png
00000014,170,0,1438804733861,1438804734340,325,318,0,0,0,3,2,1,32,0003-00-0001-44.png,0002-00-0000-74.png
00000014,171,1,1438804736183,1438804736187,502,440,0,0,0,4,5,1,45,0004-00-0000-61.png,0005-00-0001-87.png
00000014,172,1,1438804737303,1438804737797,370,371,0,0,0,2,3,1,23,0002-00-0000-06.png,0003-00-0000-64.png
00000014,173,0,1438804738743,1438804739337,934,489,0,0,0,3,4,1,34,0003-00-0000-06.png,0004-00-0000-19.png
00000014,174,0,1438804741398,1438804741838,335,362,0,0,0,2,1,1,21,0002-00-0000-23.png,0001-00-0000-02.png
00000014,175,0,1438804744378,1438804744414,504,436,0,0,0,5,4,1,54,0005-00-0001-80.png,0004-00-0000-72.png
00000014,176,1,1438804746514,1438804747087,340,388,0,0,0,1,2,1,12,0001-00-0000-00.png,0002-00-0000-15.png
00000014,177,1,1438804748031,1438804748617,925,460,0,0,0,3,2,1,32,0003-00-0001-22.png,0002-00-0001-71.png
00000014,178,1,1438804749543,1438804749559,498,446,0,0,0,4,5,1,45,0004-00-0001-87.png,0005-00-0000-21.png
00000014,179,0,1438804750657,1438804751152,302,361,0,0,0,5,4,1,54,0005-00-0001-11.png,0004-00-0001-90.png
00000014,180,1,1438804753400,1438804753930,324,341,0,0,0,2,3,1,23,0002-00-0001-63.png,0003-00-0000-62.png
00000014,181,1,1438804754898,1438804756088,365,343,0,0,0,1,2,1,12,0001-00-0001-31.png,0002-00-0001-96.png
00000014,182,0,1438804757086,1438804757621,369,413,0,0,0,2,1,1,21,0002-00-0000-97.png,0001-00-0000-91.png
00000014,183,0,1438804759563,1438804760079,367,444,0,0,0,4,3,1,43,0004-00-0000-74.png,0003-00-0000-34.png
00000014,184,1,1438804762205,1438804762221,516,423,0,0,0,3,4,1,34,0003-00-0001-53.png,0004-00-0000-92.png
00000014,185,0,1438804763150,1438804763170,504,410,0,0,0,4,3,1,43,0004-00-0000-56.png,0003-00-0000-28.png
00000014,186,1,1438804765137,1438804765161,517,422,0,0,0,3,4,1,34,0003-00-0001-51.png,0004-00-0000-14.png
00000014,187,0,1438804766191,1438804766775,931,367,0,0,0,1,2,1,12,0001-00-0000-22.png,0002-00-0001-74.png
00000014,188,0,1438804768846,1438804769288,318,334,0,0,0,2,1,1,21,0002-00-0000-77.png,0001-00-0001-74.png
00000014,189,1,1438804771137,1438804771593,385,430,0,0,0,2,3,1,23,0002-00-0000-28.png,0003-00-0001-70.png
00000014,190,1,1438804772548,1438804773106,894,365,0,0,0,3,2,1,32,0003-00-0000-72.png,0002-00-0000-24.png
00000014,191,0,1438804774082,1438804774086,516,437,0,0,0,5,4,1,54,0005-00-0000-20.png,0004-00-0001-13.png
00000014,192,1,1438804776366,1438804776826,309,364,0,0,0,4,5,1,45,0004-00-0000-21.png,0005-00-0000-02.png
00000014,193,0,1438804778274,1438804778880,873,283,0,0,0,3,4,1,34,0003-00-0001-54.png,0004-00-0000-97.png
00000014,194,0,1438804782180,1438804782612,350,345,0,0,0,4,3,1,43,0004-00-0001-59.png,0003-00-0001-28.png
00000014,195,0,1438804784471,1438804785000,412,454,0,0,0,5,4,1,54,0005-00-0000-35.png,0004-00-0000-06.png
00000014,196,1,1438804787399,1438804787944,898,456,0,0,0,3,2,1,32,0003-00-0000-10.png,0002-00-0001-03.png
00000014,197,0,1438804788921,1438804789525,900,412,0,0,0,4,5,1,45,0004-00-0000-93.png,0005-00-0001-04.png
00000014,198,1,1438804791492,1438804791936,273,344,0,0,0,2,3,1,23,0002-00-0000-97.png,0003-00-0000-18.png
00000014,199,1,1438804792863,1438804792871,523,404,0,0,0,1,2,1,12,0001-00-0001-61.png,0002-00-0000-02.png
00000014,200,0,1438804793919,1438804794382,348,374,0,0,0,2,1,1,21,0002-00-0000-22.png,0001-00-0001-24.png
00000014,201,0,1438804796582,1438804797079,350,462,0,0,0,5,4,1,54,0005-00-0000-81.png,0004-00-0000-44.png
00000014,202,0,1438804798956,1438804799472,367,440,0,0,0,4,3,1,43,0004-00-0001-16.png,0003-00-0000-64.png
00000014,203,1,1438804801497,1438804802068,961,367,0,0,0,3,2,1,32,0003-00-0001-85.png,0002-00-0001-18.png
00000014,204,0,1438804803024,1438804803574,901,434,0,0,0,3,4,1,34,0003-00-0001-70.png,0004-00-0001-22.png
00000014,205,1,1438804805624,1438804806130,315,342,0,0,0,1,2,1,12,0001-00-0001-25.png,0002-00-0001-69.png
00000014,206,1,1438804807096,1438804807112,495,435,0,0,0,4,5,1,45,0004-00-0000-36.png,0005-00-0001-05.png
00000014,207,1,1438804808189,1438804808763,900,435,0,0,0,2,1,1,21,0002-00-0000-26.png,0001-00-0001-18.png
00000014,208,1,1438804809779,1438804809815,504,425,0,0,0,2,3,1,23,0002-00-0000-12.png,0003-00-0001-91.png
00000014,209,0,1438804810992,1438804811526,385,457,0,0,0,5,4,1,54,0005-00-0001-29.png,0004-00-0001-41.png
00000014,210,0,1438804813556,1438804814030,331,349,0,0,0,2,1,1,21,0002-00-0001-21.png,0001-00-0001-66.png
00000014,211,1,1438804816141,1438804816612,222,400,0,0,0,4,5,1,45,0004-00-0001-60.png,0005-00-0000-45.png
00000014,212,0,1438804818087,1438804818099,492,410,0,0,0,4,3,1,43,0004-00-0000-24.png,0003-00-0001-10.png
00000014,213,0,1438804820134,1438804820795,951,412,0,0,0,3,4,1,34,0003-00-0001-73.png,0004-00-0000-85.png
00000014,214,1,1438804822661,1438804822665,504,452,0,0,0,2,3,1,23,0002-00-0000-68.png,0003-00-0000-85.png
00000014,215,0,1438804823653,1438804823669,504,410,0,0,0,3,2,1,32,0003-00-0001-09.png,0002-00-0000-70.png
00000014,216,1,1438804825649,1438804826165,392,456,0,0,0,1,2,1,12,0001-00-0000-44.png,0002-00-0001-40.png
00000014,217,0,1438804827139,1438804827147,517,410,0,0,0,2,1,1,21,0002-00-0000-65.png,0001-00-0000-82.png
00000014,218,0,1438804829165,1438804829193,504,428,0,0,0,5,4,1,54,0005-00-0001-66.png,0004-00-0001-22.png
00000014,219,1,1438804831062,1438804831590,330,341,0,0,0,2,3,1,23,0002-00-0001-68.png,0003-00-0000-54.png
00000014,220,1,1438804832572,1438804832576,478,400,0,0,0,3,4,1,34,0003-00-0001-13.png,0004-00-0000-83.png
00000014,221,0,1438804833634,1438804833667,497,429,0,0,0,3,2,1,32,0003-00-0000-55.png,0002-00-0001-73.png
00000014,222,0,1438804835636,1438804835648,522,375,0,0,0,4,3,1,43,0004-00-0001-40.png,0003-00-0001-94.png
00000014,223,1,1438804837574,1438804838017,325,340,0,0,0,1,2,1,12,0001-00-0001-20.png,0002-00-0000-47.png
00000014,224,1,1438804839025,1438804839747,312,389,0,0,0,4,5,1,45,0004-00-0001-10.png,0005-00-0001-31.png
00000014,225,1,1438804840783,1438804841329,401,466,0,0,0,3,4,1,34,0003-00-0000-96.png,0004-00-0000-28.png
00000014,226,0,1438804842861,1438804843335,339,363,0,0,0,5,4,1,54,0005-00-0000-66.png,0004-00-0001-22.png
00000014,227,1,1438804845473,1438804845949,334,365,0,0,0,4,5,1,45,0004-00-0000-42.png,0005-00-0001-49.png
00000014,228,0,1438804846964,1438804847506,374,485,0,0,0,4,3,1,43,0004-00-0000-72.png,0003-00-0001-96.png
00000014,229,0,1438804849527,1438804849981,321,346,0,0,0,2,1,1,21,0002-00-0001-62.png,0001-00-0001-78.png
00000014,230,1,1438804851993,1438804852463,376,332,0,0,0,1,2,1,12,0001-00-0001-05.png,0002-00-0001-57.png
00000014,231,1,1438804853929,1438804854461,413,439,0,0,0,2,3,1,23,0002-00-0000-18.png,0003-00-0001-61.png
00000014,232,0,1438804855440,1438804855488,495,436,0,0,0,3,2,1,32,0003-00-0000-36.png,0002-00-0001-97.png
00000014,233,0,1438804857460,1438804857925,326,350,0,0,0,5,4,1,54,0005-00-0001-08.png,0004-00-0000-20.png
00000014,234,0,1438804859777,1438804860206,337,319,0,0,0,4,3,1,43,0004-00-0000-86.png,0003-00-0001-05.png
00000014,235,0,1438804866482,1438804866502,490,477,0,0,0,2,1,1,21,0002-00-0001-77.png,0001-00-0001-25.png
00000014,236,0,1438804868439,1438804868991,919,416,0,0,0,3,4,1,34,0003-00-0001-78.png,0004-00-0000-06.png
00000014,237,1,1438804871102,1438804871556,387,462,0,0,0,2,3,1,23,0002-00-0000-63.png,0003-00-0000-16.png
00000014,238,1,1438804872553,1438804872581,510,466,0,0,0,1,2,1,12,0001-00-0001-05.png,0002-00-0000-95.png
00000014,239,0,1438804873574,1438804874224,869,303,0,0,0,4,5,1,45,0004-00-0001-32.png,0005-00-0001-82.png
00000014,240,0,1438804876349,1438804876833,372,341,0,0,0,3,2,1,32,0003-00-0000-25.png,0002-00-0000-15.png
00000014,241,0,1438804878923,1438804879383,356,436,0,0,0,4,3,1,43,0004-00-0000-82.png,0003-00-0000-51.png
00000014,242,0,1438804881256,1438804882383,915,427,0,0,0,3,4,1,34,0003-00-0001-08.png,0004-00-0001-48.png
00000014,243,0,1438804887283,1438804887880,317,324,0,0,0,2,1,1,21,0002-00-0001-46.png,0001-00-0000-43.png
00000014,244,0,1438804889906,1438804890290,331,317,0,0,0,5,4,1,54,0005-00-0001-23.png,0004-00-0001-78.png
00000014,245,0,1438804892406,1438804892917,943,377,0,0,0,4,5,1,45,0004-00-0001-32.png,0005-00-0000-75.png
00000014,246,0,1438804897131,1438804897653,317,337,0,0,0,3,2,1,32,0003-00-0000-42.png,0002-00-0000-60.png
00000014,247,1,1438804899603,1438804899984,357,332,0,0,0,2,3,1,23,0002-00-0001-83.png,0003-00-0001-04.png
00000014,248,1,1438804900964,1438804901541,349,383,0,0,0,1,2,1,12,0001-00-0001-05.png,0002-00-0000-93.png
00000014,249,1,1438804902524,1438804902544,515,384,0,0,0,4,5,1,45,0004-00-0001-97.png,0005-00-0001-85.png
00000014,250,0,1438804903836,1438804904321,374,371,0,0,0,5,4,1,54,0005-00-0001-00.png,0004-00-0000-97.png
00000014,251,1,1438804906219,1438804906755,911,273,0,0,0,3,2,1,32,0003-00-0000-35.png,0002-00-0001-59.png
00000014,252,0,1438804907752,1438804908297,348,360,0,0,0,4,3,1,43,0004-00-0000-01.png,0003-00-0000-99.png
00000014,253,1,1438804910415,1438804910901,337,346,0,0,0,3,4,1,34,0003-00-0000-94.png,0004-00-0000-20.png
00000014,254,1,1438804911855,1438804911863,488,412,0,0,0,1,2,1,12,0001-00-0000-58.png,0002-00-0001-29.png
00000014,255,1,1438804912891,1438804913534,902,414,0,0,0,2,1,1,21,0002-00-0000-06.png,0001-00-0000-52.png
00000014,256,1,1438804914449,1438804914469,504,395,0,0,0,2,3,1,23,0002-00-0001-37.png,0003-00-0000-99.png
00000014,257,0,1438804915621,1438804915641,504,397,0,0,0,2,1,1,21,0002-00-0000-97.png,0001-00-0001-47.png
00000014,258,1,1438804917540,1438804917564,490,399,0,0,0,1,2,1,12,0001-00-0001-33.png,0002-00-0001-25.png
00000014,259,1,1438804918952,1438804919401,348,360,0,0,0,4,5,1,45,0004-00-0000-69.png,0005-00-0000-23.png
00000014,260,0,1438804920412,1438804920460,478,488,0,0,0,3,2,1,32,0003-00-0001-17.png,0002-00-0000-83.png
00000014,261,1,1438804923706,1438804924441,419,426,0,0,0,2,3,1,23,0002-00-0000-55.png,0003-00-0000-77.png
00000014,262,0,1438804925438,1438804926005,369,436,0,0,0,5,4,1,54,0005-00-0000-81.png,0004-00-0000-99.png
00000014,263,1,1438804927864,1438804928440,284,327,0,0,0,3,4,1,34,0003-00-0000-03.png,0004-00-0000-01.png
00000014,264,0,1438804929366,1438804929370,510,410,0,0,0,4,3,1,43,0004-00-0000-91.png,0003-00-0001-58.png
00000014,265,0,1438804931732,1438804932224,912,420,0,0,0,4,5,1,45,0004-00-0001-32.png,0005-00-0000-83.png
00000014,266,0,1438804934136,1438804934653,367,431,0,0,0,5,4,1,54,0005-00-0001-35.png,0004-00-0001-76.png
00000014,267,1,1438804936761,1438804937281,346,384,0,0,0,2,3,1,23,0002-00-0001-33.png,0003-00-0001-56.png
00000014,268,1,1438804938287,1438804938869,359,358,0,0,0,3,4,1,34,0003-00-0000-84.png,0004-00-0000-92.png
00000014,269,1,1438804940388,1438804940412,510,446,0,0,0,1,2,1,12,0001-00-0000-69.png,0002-00-0001-01.png
00000014,270,0,1438804941448,1438804942053,350,358,0,0,0,2,1,1,21,0002-00-0001-09.png,0001-00-0000-64.png
00000014,271,0,1438804944035,1438804944464,326,352,0,0,0,3,2,1,32,0003-00-0000-97.png,0002-00-0000-73.png
00000014,272,0,1438804946337,1438804946771,302,333,0,0,0,4,3,1,43,0004-00-0001-15.png,0003-00-0001-65.png
00000014,273,0,1438804948683,1438804949128,365,428,0,0,0,2,1,1,21,0002-00-0001-27.png,0001-00-0000-72.png
00000014,274,1,1438804951050,1438804951682,861,303,0,0,0,3,2,1,32,0003-00-0001-98.png,0002-00-0000-85.png
00000014,275,1,1438804952659,1438804952679,493,430,0,0,0,3,4,1,34,0003-00-0001-14.png,0004-00-0000-65.png
00000014,276,0,1438804953654,1438804953670,504,436,0,0,0,5,4,1,54,0005-00-0001-06.png,0004-00-0000-54.png
00000014,277,1,1438804955779,1438804956224,328,354,0,0,0,2,3,1,23,0002-00-0001-75.png,0003-00-0000-25.png
00000014,278,0,1438804957212,1438804957836,939,342,0,0,0,1,2,1,12,0001-00-0001-01.png,0002-00-0001-30.png
00000014,279,0,1438804959916,1438804960441,314,370,0,0,0,4,3,1,43,0004-00-0001-62.png,0003-00-0000-91.png
00000014,280,1,1438804965075,1438804965542,295,338,0,0,0,4,5,1,45,0004-00-0001-09.png,0005-00-0000-25.png
00000014,281,1,1438804966525,1438804967267,862,315,0,0,0,2,1,1,21,0002-00-0000-26.png,0001-00-0001-25.png
00000014,282,1,1438804968280,1438804968812,234,424,0,0,0,1,2,1,12,0001-00-0001-49.png,0002-00-0000-18.png
00000014,283,0,1438804969874,1438804969910,495,453,0,0,0,4,3,1,43,0004-00-0000-51.png,0003-00-0000-89.png
00000014,284,1,1438804971840,1438804972353,977,331,0,0,0,3,2,1,32,0003-00-0000-32.png,0002-00-0001-32.png
00000014,285,1,1438804973341,1438804973895,899,462,0,0,0,5,4,1,54,0005-00-0000-11.png,0004-00-0000-62.png
00000014,286,1,1438804974799,1438804974839,516,450,0,0,0,3,4,1,34,0003-00-0000-18.png,0004-00-0001-00.png
00000014,287,1,1438804975924,1438804976511,370,462,0,0,0,2,3,1,23,0002-00-0000-75.png,0003-00-0001-08.png
00000014,288,1,1438804977547,1438804978089,298,398,0,0,0,4,5,1,45,0004-00-0000-63.png,0005-00-0000-28.png
00000014,289,0,1438804979077,1438804979121,504,446,0,0,0,4,3,1,43,0004-00-0000-79.png,0003-00-0001-86.png
00000014,290,1,1438804981263,1438804981757,328,353,0,0,0,2,3,1,23,0002-00-0001-87.png,0003-00-0000-87.png
00000014,291,0,1438804983458,1438804983515,500,486,0,0,0,2,1,1,21,0002-00-0000-44.png,0001-00-0001-52.png
00000014,292,1,1438804985465,1438804986075,897,436,0,0,0,3,2,1,32,0003-00-0000-34.png,0002-00-0001-32.png
00000014,293,0,1438804987012,1438804987024,505,446,0,0,0,5,4,1,54,0005-00-0001-37.png,0004-00-0000-28.png
00000014,294,1,1438804989171,1438804989219,521,427,0,0,0,3,4,1,34,0003-00-0000-82.png,0004-00-0000-27.png
00000014,295,1,1438804990234,1438804990917,407,437,0,0,0,1,2,1,12,0001-00-0000-08.png,0002-00-0001-64.png
00000014,296,1,1438804991903,1438804992587,310,391,0,0,0,4,5,1,45,0004-00-0000-47.png,0005-00-0001-32.png
00000014,297,1,1438804993612,1438804993714,488,561,0,0,0,4,5,1,45,0004-00-0000-78.png,0005-00-0001-75.png
00000014,298,1,1438804994787,1438804995378,869,331,0,0,0,3,2,1,32,0003-00-0001-78.png,0002-00-0001-60.png
00000014,299,0,1438804996336,1438804996910,891,458,0,0,0,3,4,1,34,0003-00-0000-95.png,0004-00-0000-35.png
00000014,300,0,1438805003209,1438805003625,350,345,0,0,0,4,3,1,43,0004-00-0000-74.png,0003-00-0001-65.png
00000014,301,0,1438805006245,1438805006815,222,479,0,0,0,2,1,1,21,0002-00-0001-19.png,0001-00-0001-09.png
00000014,302,1,1438805010420,1438805011010,928,417,0,0,0,5,4,1,54,0005-00-0001-07.png,0004-00-0000-34.png
00000014,303,1,1438805012377,1438805012854,208,436,0,0,0,2,3,1,23,0002-00-0000-60.png,0003-00-0000-68.png
00000014,304,1,1438805013785,1438805013805,485,456,0,0,0,1,2,1,12,0001-00-0001-19.png,0002-00-0000-50.png
00000014,305,1,1438805014731,1438805015286,910,439,0,0,0,5,4,1,54,0005-00-0000-45.png,0004-00-0001-95.png
00000014,306,0,1438805016222,1438805016796,883,343,0,0,0,3,4,1,34,0003-00-0001-21.png,0004-00-0001-54.png
00000014,307,0,1438805018826,1438805019271,350,345,0,0,0,2,1,1,21,0002-00-0000-45.png,0001-00-0000-62.png
00000014,308,1,1438805021376,1438805021835,310,366,0,0,0,2,3,1,23,0002-00-0000-06.png,0003-00-0000-50.png
00000014,309,0,1438805022770,1438805022782,509,395,0,0,0,4,3,1,43,0004-00-0001-88.png,0003-00-0001-37.png
00000014,310,1,1438805024787,1438805025243,197,396,0,0,0,1,2,1,12,0001-00-0000-85.png,0002-00-0001-65.png
00000014,311,1,1438805027012,1438805027571,917,364,0,0,0,3,2,1,32,0003-00-0000-36.png,0002-00-0000-29.png
00000014,312,1,1438805028513,1438805028521,517,414,0,0,0,4,5,1,45,0004-00-0001-88.png,0005-00-0001-73.png
00000014,313,1,1438805029547,1438805030229,862,344,0,0,0,5,4,1,54,0005-00-0001-25.png,0004-00-0000-09.png
00000014,314,1,1438805031137,1438805031145,485,421,0,0,0,3,4,1,34,0003-00-0001-17.png,0004-00-0001-51.png
00000014,315,1,1438805032161,1438805032247,502,505,0,0,0,4,5,1,45,0004-00-0000-37.png,0005-00-0000-64.png
00000014,316,1,1438805033366,1438805033994,908,448,0,0,0,3,2,1,32,0003-00-0001-58.png,0002-00-0001-06.png
00000014,317,0,1438805035450,1438805036104,909,375,0,0,0,1,2,1,12,0001-00-0001-44.png,0002-00-0001-89.png
00000014,318,0,1438805040391,1438805040914,365,435,0,0,0,4,3,1,43,0004-00-0000-75.png,0003-00-0001-05.png
00000014,319,1,1438805043001,1438805043459,334,345,0,0,0,2,3,1,23,0002-00-0000-95.png,0003-00-0000-74.png
00000014,320,0,1438805044445,1438805044944,320,369,0,0,0,2,1,1,21,0002-00-0001-89.png,0001-00-0001-71.png
00000014,321,0,1438805046950,1438805047475,338,485,0,0,0,2,1,1,21,0002-00-0000-26.png,0001-00-0000-18.png
00000014,322,1,1438805050002,1438805050526,367,442,0,0,0,4,5,1,45,0004-00-0000-18.png,0005-00-0001-74.png
00000014,323,0,1438805051430,1438805052005,376,306,0,0,0,3,2,1,32,0003-00-0000-95.png,0002-00-0000-26.png
00000014,324,0,1438805053985,1438805054368,333,333,0,0,0,4,3,1,43,0004-00-0000-89.png,0003-00-0000-20.png
00000014,325,0,1438805056220,1438805056735,197,384,0,0,0,5,4,1,54,0005-00-0001-67.png,0004-00-0000-90.png
00000014,326,1,1438805062195,1438805062710,235,396,0,0,0,2,3,1,23,0002-00-0001-49.png,0003-00-0001-74.png
00000014,327,1,1438805063646,1438805063654,484,442,0,0,0,1,2,1,12,0001-00-0001-62.png,0002-00-0000-55.png
00000014,328,1,1438805064700,1438805065162,336,359,0,0,0,3,4,1,34,0003-00-0001-65.png,0004-00-0001-58.png
00000014,329,0,1438805066128,1438805066747,365,471,0,0,0,5,4,1,54,0005-00-0000-48.png,0004-00-0000-11.png
00000014,330,1,1438805068723,1438805068743,521,403,0,0,0,2,3,1,23,0002-00-0001-65.png,0003-00-0000-98.png
00000014,331,1,1438805069718,1438805069730,504,395,0,0,0,3,4,1,34,0003-00-0000-99.png,0004-00-0001-61.png
00000014,332,1,1438805070631,1438805071294,222,413,0,0,0,1,2,1,12,0001-00-0000-43.png,0002-00-0001-02.png
00000014,333,0,1438805072180,1438805072247,485,540,0,0,0,3,2,1,32,0003-00-0001-80.png,0002-00-0001-58.png
00000014,334,1,1438805074306,1438805074805,261,436,0,0,0,4,5,1,45,0004-00-0000-59.png,0005-00-0001-75.png
00000014,335,0,1438805075749,1438805075811,482,504,0,0,0,2,1,1,21,0002-00-0000-50.png,0001-00-0001-09.png
00000014,336,1,1438805078552,1438805079031,887,410,0,0,0,4,3,1,43,0004-00-0001-79.png,0003-00-0000-88.png
00000014,337,0,1438805080013,1438805080033,523,454,0,0,0,2,1,1,21,0002-00-0000-03.png,0001-00-0000-42.png
00000014,338,1,1438805081961,1438805081985,496,417,0,0,0,2,3,1,23,0002-00-0001-67.png,0003-00-0001-05.png
00000014,339,1,1438805083024,1438805083513,926,345,0,0,0,4,3,1,43,0004-00-0001-79.png,0003-00-0000-37.png
00000014,340,0,1438805084436,1438805085022,875,306,0,0,0,3,4,1,34,0003-00-0000-54.png,0004-00-0001-22.png
00000014,341,0,1438805087018,1438805087482,931,348,0,0,0,1,2,1,12,0001-00-0001-07.png,0002-00-0001-25.png
00000014,342,0,1438805089434,1438805089883,354,326,0,0,0,5,4,1,54,0005-00-0001-88.png,0004-00-0000-47.png
00000014,343,1,1438805091896,1438805092369,379,458,0,0,0,4,5,1,45,0004-00-0001-15.png,0005-00-0001-58.png
00000014,344,1,1438805093219,1438805093814,902,442,0,0,0,3,2,1,32,0003-00-0001-04.png,0002-00-0001-15.png
00000014,345,1,1438805094730,1438805095245,899,464,0,0,0,2,1,1,21,0002-00-0001-68.png,0001-00-0001-64.png
00000014,346,0,1438805096238,1438805096829,887,423,0,0,0,2,3,1,23,0002-00-0000-73.png,0003-00-0000-02.png
00000014,347,0,1438805098845,1438805099350,929,349,0,0,0,1,2,1,12,0001-00-0001-95.png,0002-00-0000-00.png
00000014,348,0,1438805101188,1438805101608,320,334,0,0,0,3,2,1,32,0003-00-0000-98.png,0002-00-0001-41.png
00000014,349,0,1438805103792,1438805104241,325,358,0,0,0,5,4,1,54,0005-00-0000-28.png,0004-00-0001-55.png
00000014,350,1,1438805106465,1438805106481,505,405,0,0,0,3,4,1,34,0003-00-0000-40.png,0004-00-0001-88.png
00000014,351,0,1438805107477,1438805108123,877,417,0,0,0,4,5,1,45,0004-00-0000-71.png,0005-00-0001-90.png
00000014,352,0,1438805110302,1438805110791,378,458,0,0,0,4,3,1,43,0004-00-0001-80.png,0003-00-0000-15.png
00000014,353,1,1438805112707,1438805113143,410,430,0,0,0,4,5,1,45,0004-00-0000-38.png,0005-00-0001-03.png
00000014,354,1,1438805114483,1438805114522,472,451,0,0,0,2,3,1,23,0002-00-0001-87.png,0003-00-0000-57.png
00000014,355,0,1438805115489,1438805115509,511,393,0,0,0,4,3,1,43,0004-00-0001-25.png,0003-00-0000-01.png
00000014,356,0,1438805117364,1438805117372,491,410,0,0,0,5,4,1,54,0005-00-0001-31.png,0004-00-0000-88.png
00000014,357,1,1438805119325,1438805119333,500,455,0,0,0,3,4,1,34,0003-00-0000-50.png,0004-00-0000-28.png
00000014,358,1,1438805120320,1438805120860,862,332,0,0,0,3,2,1,32,0003-00-0001-05.png,0002-00-0001-05.png
00000014,359,0,1438805121798,1438805121818,510,421,0,0,0,2,1,1,21,0002-00-0001-99.png,0001-00-0000-45.png
00000014,360,0,1438805123717,1438805124272,898,432,0,0,0,1,2,1,12,0001-00-0000-96.png,0002-00-0001-39.png
00000014,361,0,1438805126119,1438805126143,466,317,0,0,0,5,4,1,54,0005-00-0001-29.png,0004-00-0001-77.png
00000014,362,1,1438805128788,1438805129269,318,345,0,0,0,3,4,1,34,0003-00-0000-80.png,0004-00-0000-02.png
00000014,363,1,1438805130239,1438805130274,510,429,0,0,0,2,3,1,23,0002-00-0000-79.png,0003-00-0001-51.png
00000014,364,1,1438805131251,1438805131287,503,434,0,0,0,4,5,1,45,0004-00-0000-02.png,0005-00-0001-70.png
00000014,365,0,1438805132255,1438805132263,504,436,0,0,0,3,2,1,32,0003-00-0001-27.png,0002-00-0000-81.png
00000014,366,0,1438805137710,1438805138112,329,374,0,0,0,4,3,1,43,0004-00-0000-74.png,0003-00-0001-43.png
00000014,367,0,1438805140197,1438805140614,334,431,0,0,0,2,1,1,21,0002-00-0001-39.png,0001-00-0000-49.png
00000014,368,1,1438805147719,1438805148207,358,356,0,0,0,1,2,1,12,0001-00-0001-94.png,0002-00-0000-52.png
00000014,369,0,1438805152497,1438805152985,359,353,0,0,0,2,1,1,21,0002-00-0001-77.png,0001-00-0000-03.png
00000014,370,1,1438805154931,1438805155480,900,436,0,0,0,3,2,1,32,0003-00-0000-57.png,0002-00-0001-84.png
00000014,371,1,1438805156433,1438805157011,316,349,0,0,0,4,5,1,45,0004-00-0000-41.png,0005-00-0000-79.png
00000014,372,1,1438805157881,1438805158307,351,365,0,0,0,2,3,1,23,0002-00-0001-97.png,0003-00-0001-67.png
00000014,373,0,1438805159204,1438805182023,463,487,0,0,0,4,3,1,43,0004-00-0000-70.png,0003-00-0001-94.png
00000014,374,1,1438805184722,1438805185166,367,443,0,0,0,1,2,1,12,0001-00-0001-72.png,0002-00-0001-37.png
00000014,375,0,1438805186006,1438805186625,424,440,0,0,0,5,4,1,54,0005-00-0000-11.png,0004-00-0000-46.png
00000014,376,1,1438805188676,1438805188700,504,384,0,0,0,3,4,1,34,0003-00-0000-43.png,0004-00-0000-13.png
00000014,377,0,1438805189661,1438805189689,478,462,0,0,0,3,2,1,32,0003-00-0001-82.png,0002-00-0001-65.png
00000014,378,1,1438805191884,1438805192303,315,391,0,0,0,2,3,1,23,0002-00-0000-11.png,0003-00-0000-81.png
00000014,379,0,1438805193536,1438805193956,338,363,0,0,0,2,1,1,21,0002-00-0000-06.png,0001-00-0001-26.png
00000014,380,0,1438805196200,1438805196649,389,351,0,0,0,5,4,1,54,0005-00-0000-10.png,0004-00-0001-77.png
00000014,381,1,1438805198703,1438805199467,928,469,0,0,0,4,3,1,43,0004-00-0001-83.png,0003-00-0001-01.png
00000014,382,1,1438805200333,1438805200895,387,463,0,0,0,1,2,1,12,0001-00-0000-82.png,0002-00-0000-21.png
00000014,383,1,1438805201764,1438805202298,440,502,0,0,0,4,5,1,45,0004-00-0000-03.png,0005-00-0000-49.png
00000014,384,1,1438805203384,1438805203392,518,426,0,0,0,3,4,1,34,0003-00-0000-55.png,0004-00-0001-82.png
00000014,385,0,1438805204446,1438805205019,902,468,0,0,0,2,3,1,23,0002-00-0000-77.png,0003-00-0001-54.png
00000014,386,0,1438805208427,1438805208443,478,436,0,0,0,2,1,1,21,0002-00-0001-84.png,0001-00-0000-21.png
00000014,387,0,1438805211823,1438805212195,197,410,0,0,0,5,4,1,54,0005-00-0001-47.png,0004-00-0001-73.png
00000014,388,0,1438805217567,1438805217888,273,342,0,0,0,4,3,1,43,0004-00-0001-43.png,0003-00-0001-27.png
00000014,389,1,1438805220757,1438805221162,325,385,0,0,0,1,2,1,12,0001-00-0001-33.png,0002-00-0000-46.png
00000014,390,1,1438805222524,1438805222536,478,473,0,0,0,3,4,1,34,0003-00-0000-02.png,0004-00-0001-47.png
00000014,391,0,1438805223561,1438805224159,220,439,0,0,0,3,2,1,32,0003-00-0001-13.png,0002-00-0000-39.png
00000014,392,1,1438805226652,1438805227096,413,513,0,0,0,4,5,1,45,0004-00-0001-51.png,0005-00-0001-18.png
00000014,393,1,1438805227971,1438805227983,472,480,0,0,0,4,5,1,45,0004-00-0000-89.png,0005-00-0001-82.png
00000014,394,1,1438805228978,1438805230003,918,452,0,0,0,3,2,1,32,0003-00-0001-05.png,0002-00-0001-21.png
00000014,395,1,1438805230926,1438805231427,406,484,0,0,0,2,3,1,23,0002-00-0000-56.png,0003-00-0000-09.png
00000014,396,1,1438805232352,1438805232364,470,449,0,0,0,1,2,1,12,0001-00-0001-42.png,0002-00-0000-05.png
00000014,397,1,1438805233248,1438805233862,435,442,0,0,0,3,4,1,34,0003-00-0001-20.png,0004-00-0000-31.png
00000014,398,0,1438805234769,1438805234789,492,447,0,0,0,5,4,1,54,0005-00-0001-15.png,0004-00-0001-90.png
00000014,399,0,1438805236926,1438805236946,497,427,0,0,0,4,3,1,43,0004-00-0000-93.png,0003-00-0001-02.png
00000014,400,1,1438805239253,1438805239816,941,374,0,0,0,2,1,1,21,0002-00-0000-50.png,0001-00-0001-71.png
00000014,401,1,1438805240752,1438805241733,290,401,0,0,0,3,4,1,34,0003-00-0001-82.png,0004-00-0001-18.png
00000014,402,1,1438805242936,1438805242975,522,473,0,0,0,2,3,1,23,0002-00-0001-28.png,0003-00-0000-12.png
00000014,403,1,1438805243892,1438805244445,234,462,0,0,0,4,5,1,45,0004-00-0001-57.png,0005-00-0000-32.png
00000014,404,1,1438805245331,1438805245339,511,472,0,0,0,1,2,1,12,0001-00-0001-71.png,0002-00-0001-04.png
00000014,405,0,1438805246296,1438805246937,310,375,0,0,0,4,3,1,43,0004-00-0001-51.png,0003-00-0001-15.png
00000014,406,0,1438805248850,1438805248874,492,475,0,0,0,2,1,1,21,0002-00-0001-53.png,0001-00-0000-12.png
00000014,407,0,1438805251043,1438805251533,335,380,0,0,0,3,2,1,32,0003-00-0001-35.png,0002-00-0001-70.png
00000014,408,0,1438805253431,1438805253886,325,370,0,0,0,5,4,1,54,0005-00-0000-26.png,0004-00-0000-34.png
00000014,409,1,1438805256272,1438805256725,307,341,0,0,0,3,4,1,34,0003-00-0001-67.png,0004-00-0000-77.png
00000014,410,0,1438805257675,1438805258265,900,462,0,0,0,1,2,1,12,0001-00-0000-35.png,0002-00-0000-19.png
00000014,411,1,1438805260378,1438805260840,929,339,0,0,0,5,4,1,54,0005-00-0001-18.png,0004-00-0000-24.png
00000014,412,1,1438805261799,1438805262363,896,377,0,0,0,2,1,1,21,0002-00-0000-67.png,0001-00-0000-55.png
00000014,413,1,1438805263301,1438805263834,913,464,0,0,0,3,2,1,32,0003-00-0000-38.png,0002-00-0000-45.png
00000014,414,1,1438805264800,1438805264808,478,436,0,0,0,4,5,1,45,0004-00-0001-29.png,0005-00-0000-32.png
00000014,415,1,1438805265854,1438805266317,336,370,0,0,0,2,3,1,23,0002-00-0000-01.png,0003-00-0001-28.png
00000014,416,0,1438805267323,1438805267795,390,459,0,0,0,4,3,1,43,0004-00-0001-15.png,0003-00-0001-91.png
00000014,417,1,1438805270050,1438805270540,234,452,0,0,0,4,5,1,45,0004-00-0000-69.png,0005-00-0000-67.png
00000014,418,1,1438805271461,1438805271493,495,441,0,0,0,1,2,1,12,0001-00-0000-49.png,0002-00-0001-61.png
00000014,419,0,1438805272999,1438805273015,519,463,0,0,0,4,3,1,43,0004-00-0001-69.png,0003-00-0000-82.png
00000014,420,0,1438805274916,1438805275320,308,349,0,0,0,2,1,1,21,0002-00-0001-34.png,0001-00-0000-57.png
00000014,421,1,1438805277221,1438805277628,321,358,0,0,0,2,3,1,23,0002-00-0000-50.png,0003-00-0000-87.png
00000014,422,1,1438805278491,1438805279047,325,359,0,0,0,3,4,1,34,0003-00-0001-13.png,0004-00-0000-51.png
00000014,423,0,1438805279952,1438805280488,340,381,0,0,0,5,4,1,54,0005-00-0000-08.png,0004-00-0000-29.png
00000014,424,1,1438805282338,1438805283516,905,453,0,0,0,3,2,1,32,0003-00-0001-28.png,0002-00-0000-40.png
00000014,425,1,1438805284762,1438805285300,875,409,0,0,0,5,4,1,54,0005-00-0001-59.png,0004-00-0001-10.png
00000014,426,0,1438805286662,1438805287065,350,369,0,0,0,3,2,1,32,0003-00-0000-07.png,0002-00-0001-79.png
00000014,427,0,1438805288997,1438805289017,491,423,0,0,0,2,1,1,21,0002-00-0001-78.png,0001-00-0000-52.png
00000014,428,1,1438805291392,1438805291838,299,345,0,0,0,1,2,1,12,0001-00-0001-79.png,0002-00-0001-91.png
00000014,429,1,1438805293183,1438805293207,513,488,0,0,0,3,4,1,34,0003-00-0000-07.png,0004-00-0000-72.png
00000014,430,0,1438805294601,1438805295060,325,383,0,0,0,4,3,1,43,0004-00-0001-72.png,0003-00-0000-74.png
00000014,431,1,1438805297005,1438805297405,361,443,0,0,0,2,3,1,23,0002-00-0000-75.png,0003-00-0001-23.png
00000014,432,1,1438805298287,1438805298847,324,397,0,0,0,4,5,1,45,0004-00-0001-24.png,0005-00-0001-22.png
00000014,433,0,1438805299768,1438805299844,454,555,0,0,0,3,2,1,32,0003-00-0000-42.png,0002-00-0000-66.png
00000014,434,0,1438805302541,1438805302557,495,426,0,0,0,2,1,1,21,0002-00-0001-46.png,0001-00-0001-33.png
00000014,435,0,1438805304686,1438805305173,318,384,0,0,0,5,4,1,54,0005-00-0001-33.png,0004-00-0001-92.png
00000014,436,1,1438805309091,1438805309577,312,345,0,0,0,2,3,1,23,0002-00-0001-00.png,0003-00-0000-17.png
00000014,437,1,1438805310580,1438805310600,520,431,0,0,0,1,2,1,12,0001-00-0001-17.png,0002-00-0000-34.png
00000014,438,1,1438805311699,1438805312170,350,375,0,0,0,4,5,1,45,0004-00-0001-65.png,0005-00-0001-53.png
00000014,439,0,1438805313105,1438805313596,322,372,0,0,0,4,3,1,43,0004-00-0001-76.png,0003-00-0000-48.png
00000014,440,1,1438805315628,1438805316074,339,356,0,0,0,3,4,1,34,0003-00-0000-87.png,0004-00-0001-35.png
00000014,441,1,1438805316980,1438805317004,519,480,0,0,0,3,4,1,34,0003-00-0000-23.png,0004-00-0001-65.png
00000014,442,0,1438805318080,1438805318666,318,361,0,0,0,5,4,1,54,0005-00-0000-53.png,0004-00-0001-07.png
00000014,443,0,1438805320874,1438805321318,907,435,0,0,0,1,2,1,12,0001-00-0000-32.png,0002-00-0000-49.png
00000014,444,0,1438805323232,1438805323753,904,365,0,0,0,4,5,1,45,0004-00-0001-66.png,0005-00-0000-17.png
00000014,445,0,1438805326906,1438805327321,381,464,0,0,0,4,3,1,43,0004-00-0000-74.png,0003-00-0001-21.png
00000014,446,0,1438805329341,1438805329361,514,391,0,0,0,2,1,1,21,0002-00-0000-83.png,0001-00-0000-86.png
00000014,447,0,1438805331309,1438805331796,309,306,0,0,0,3,2,1,32,0003-00-0001-01.png,0002-00-0000-35.png
00000014,448,1,1438805333712,1438805334171,395,452,0,0,0,2,3,1,23,0002-00-0001-36.png,0003-00-0001-59.png
00000014,449,1,1438805335125,1438805335654,375,397,0,0,0,3,4,1,34,0003-00-0000-30.png,0004-00-0001-65.png
00000014,450,1,1438805336667,1438805336671,519,404,0,0,0,1,2,1,12,0001-00-0000-14.png,0002-00-0001-56.png
00000014,451,0,1438805337708,1438805338248,260,436,0,0,0,4,3,1,43,0004-00-0000-90.png,0003-00-0001-21.png
00000014,452,1,1438805340363,1438805340760,350,371,0,0,0,4,5,1,45,0004-00-0001-01.png,0005-00-0000-19.png
00000014,453,0,1438805341833,1438805342347,222,436,0,0,0,3,2,1,32,0003-00-0001-55.png,0002-00-0001-45.png
00000014,454,0,1438805344506,1438805345017,388,480,0,0,0,5,4,1,54,0005-00-0001-18.png,0004-00-0001-35.png
00000014,455,0,1438805347833,1438805348288,376,332,0,0,0,2,1,1,21,0002-00-0001-05.png,0001-00-0001-22.png
00000014,456,1,1438805350321,1438805350757,312,371,0,0,0,2,3,1,23,0002-00-0001-94.png,0003-00-0001-54.png
00000014,457,0,1438805351652,1438805351656,478,414,0,0,0,3,2,1,32,0003-00-0001-45.png,0002-00-0000-37.png
00000014,458,0,1438805353588,1438805354097,376,358,0,0,0,5,4,1,54,0005-00-0001-10.png,0004-00-0001-96.png
00000014,459,1,1438805356092,1438805356112,499,420,0,0,0,2,3,1,23,0002-00-0000-46.png,0003-00-0001-23.png
00000014,460,0,1438805357037,1438805357057,493,422,0,0,0,2,1,1,21,0002-00-0001-16.png,0001-00-0001-12.png
00000014,461,0,1438805359125,1438805360216,903,415,0,0,0,3,4,1,34,0003-00-0001-23.png,0004-00-0001-71.png
00000014,462,0,1438805363013,1438805363419,337,345,0,0,0,4,3,1,43,0004-00-0000-38.png,0003-00-0001-04.png
00000014,463,1,1438805365463,1438805365886,332,375,0,0,0,1,2,1,12,0001-00-0001-74.png,0002-00-0001-85.png
00000014,464,1,1438805366785,1438805366805,514,434,0,0,0,4,5,1,45,0004-00-0000-15.png,0005-00-0000-49.png
00000014,465,1,1438805367819,1438805368410,926,345,0,0,0,3,2,1,32,0003-00-0001-43.png,0002-00-0001-87.png
00000014,466,0,1438805369398,1438805369991,222,436,0,0,0,2,1,1,21,0002-00-0000-89.png,0001-00-0000-15.png
00000014,467,1,1438805372100,1438805372765,928,413,0,0,0,5,4,1,54,0005-00-0000-22.png,0004-00-0000-15.png
00000014,468,1,1438805374189,1438805374609,350,371,0,0,0,1,2,1,12,0001-00-0000-39.png,0002-00-0001-85.png
00000014,469,1,1438805375722,1438805376183,300,370,0,0,0,2,3,1,23,0002-00-0001-01.png,0003-00-0001-06.png
00000014,470,1,1438805377153,1438805377747,190,451,0,0,0,3,4,1,34,0003-00-0000-29.png,0004-00-0000-43.png
00000014,471,0,1438805378731,1438805378739,466,436,0,0,0,4,3,1,43,0004-00-0000-32.png,0003-00-0001-03.png
00000014,472,1,1438805380641,1438805381038,322,343,0,0,0,4,5,1,45,0004-00-0000-15.png,0005-00-0001-25.png
00000014,473,1,1438805381989,1438805382583,238,447,0,0,0,2,3,1,23,0002-00-0001-99.png,0003-00-0001-66.png
00000014,474,1,1438805383500,1438805383508,482,455,0,0,0,4,5,1,45,0004-00-0001-39.png,0005-00-0001-98.png
00000014,475,0,1438805385069,1438805385574,323,358,0,0,0,4,3,1,43,0004-00-0001-41.png,0003-00-0001-73.png
00000014,476,0,1438805387694,1438805387706,507,433,0,0,0,2,1,1,21,0002-00-0001-16.png,0001-00-0000-54.png
00000014,477,1,1438805390120,1438805390795,927,424,0,0,0,5,4,1,54,0005-00-0001-96.png,0004-00-0001-87.png
00000014,478,1,1438805391677,1438805391689,521,467,0,0,0,3,4,1,34,0003-00-0001-92.png,0004-00-0000-94.png
00000014,479,1,1438805392704,1438805392764,507,494,0,0,0,1,2,1,12,0001-00-0000-33.png,0002-00-0000-88.png
00000014,480,0,1438805393816,1438805393872,481,543,0,0,0,3,2,1,32,0003-00-0001-23.png,0002-00-0000-69.png
00000014,481,0,1438805400385,1438805400801,350,421,0,0,0,5,4,1,54,0005-00-0001-33.png,0004-00-0001-34.png
00000014,482,0,1438805402636,1438805403061,335,345,0,0,0,3,2,1,32,0003-00-0001-04.png,0002-00-0001-04.png
00000014,483,1,1438805405152,1438805405200,521,457,0,0,0,1,2,1,12,0001-00-0001-81.png,0002-00-0000-76.png
00000014,484,0,1438805406794,1438805406814,510,421,0,0,0,4,3,1,43,0004-00-0001-63.png,0003-00-0000-66.png
00000014,485,0,1438805412042,1438805412625,901,293,0,0,0,3,4,1,34,0003-00-0000-51.png,0004-00-0000-21.png
00000014,486,1,1438805414776,1438805415255,367,441,0,0,0,2,3,1,23,0002-00-0001-86.png,0003-00-0000-04.png
00000014,487,1,1438805416186,1438805416202,511,452,0,0,0,4,5,1,45,0004-00-0000-29.png,0005-00-0001-33.png
00000014,488,0,1438805417218,1438805417744,366,361,0,0,0,2,1,1,21,0002-00-0001-36.png,0001-00-0001-51.png
00000014,489,0,1438805420340,1438805420789,381,437,0,0,0,4,3,1,43,0004-00-0001-47.png,0003-00-0000-20.png
00000014,490,1,1438805422706,1438805423113,336,334,0,0,0,2,3,1,23,0002-00-0001-16.png,0003-00-0001-89.png
00000014,491,0,1438805424008,1438805424631,888,488,0,0,0,1,2,1,12,0001-00-0000-63.png,0002-00-0001-13.png
00000014,492,0,1438805426641,1438805427094,248,424,0,0,0,2,1,1,21,0002-00-0001-57.png,0001-00-0001-06.png
00000014,493,1,1438805429372,1438805429787,324,371,0,0,0,4,5,1,45,0004-00-0000-37.png,0005-00-0000-21.png
00000014,494,0,1438805430722,1438805431392,889,420,0,0,0,3,4,1,34,0003-00-0000-21.png,0004-00-0001-46.png
00000014,495,1,1438805433298,1438805433815,938,346,0,0,0,3,2,1,32,0003-00-0000-48.png,0002-00-0000-34.png
00000014,496,0,1438805435555,1438805436041,349,363,0,0,0,5,4,1,54,0005-00-0000-38.png,0004-00-0001-28.png
00000014,497,0,1438805438197,1438805438217,520,462,0,0,0,4,3,1,43,0004-00-0000-48.png,0003-00-0001-23.png
00000014,498,1,1438805440127,1438805440531,362,348,0,0,0,1,2,1,12,0001-00-0000-44.png,0002-00-0000-68.png
00000014,499,0,1438805441418,1438805441430,520,410,0,0,0,5,4,1,54,0005-00-0001-48.png,0004-00-0001-80.png
00000014,500,1,1438805443264,1438805443740,305,324,0,0,0,4,5,1,45,0004-00-0001-45.png,0005-00-0000-42.png
00000014,501,1,1438805444931,1438805445005,483,492,0,0,0,2,3,1,23,0002-00-0001-77.png,0003-00-0000-65.png
00000014,502,1,1438805446044,1438805446586,896,445,0,0,0,2,1,1,21,0002-00-0000-75.png,0001-00-0001-42.png
00000014,503,1,1438805447491,1438805447499,522,425,0,0,0,3,4,1,34,0003-00-0000-38.png,0004-00-0000-81.png
00000014,504,0,1438805448565,1438805448581,498,488,0,0,0,3,2,1,32,0003-00-0000-23.png,0002-00-0001-87.png
00000014,505,1,1438805450752,1438805451185,299,358,0,0,0,4,5,1,45,0004-00-0000-75.png,0005-00-0001-22.png
00000014,506,0,1438805452174,1438805452703,248,441,0,0,0,3,2,1,32,0003-00-0000-13.png,0002-00-0001-55.png
00000014,507,1,1438805454597,1438805454617,510,444,0,0,0,1,2,1,12,0001-00-0000-85.png,0002-00-0001-12.png
00000014,508,0,1438805455711,1438805455723,503,458,0,0,0,2,1,1,21,0002-00-0000-92.png,0001-00-0001-82.png
00000014,509,0,1438805457808,1438805458256,298,373,0,0,0,4,3,1,43,0004-00-0000-06.png,0003-00-0001-99.png
00000014,510,1,1438805461963,1438805462424,317,369,0,0,0,2,3,1,23,0002-00-0000-50.png,0003-00-0001-85.png
00000014,511,0,1438805463413,1438805463421,501,408,0,0,0,5,4,1,54,0005-00-0000-19.png,0004-00-0000-55.png
00000014,512,1,1438805465260,1438805465766,357,402,0,0,0,3,4,1,34,0003-00-0000-58.png,0004-00-0001-64.png
00000014,513,1,1438805466701,1438805467221,358,375,0,0,0,2,3,1,23,0002-00-0001-32.png,0003-00-0000-38.png
00000014,514,0,1438805468210,1438805468748,221,463,0,0,0,5,4,1,54,0005-00-0001-33.png,0004-00-0000-34.png
00000014,515,1,1438805470785,1438805471881,909,365,0,0,0,4,3,1,43,0004-00-0001-63.png,0003-00-0000-48.png
00000014,516,1,1438805476908,1438805477351,376,488,0,0,0,3,4,1,34,0003-00-0000-88.png,0004-00-0000-49.png
00000014,517,1,1438805478450,1438805478912,926,332,0,0,0,2,1,1,21,0002-00-0001-68.png,0001-00-0001-78.png
00000014,518,0,1438805479900,1438805480444,902,442,0,0,0,4,5,1,45,0004-00-0000-72.png,0005-00-0001-17.png
00000014,519,0,1438805482403,1438805482900,336,368,0,0,0,3,2,1,32,0003-00-0000-20.png,0002-00-0001-96.png
00000014,520,1,1438805488070,1438805488528,352,362,0,0,0,1,2,1,12,0001-00-0001-61.png,0002-00-0001-98.png
00000014,521,1,1438805489449,1438805489956,203,429,0,0,0,4,5,1,45,0004-00-0000-54.png,0005-00-0001-96.png
00000014,522,1,1438805490949,1438805491407,299,371,0,0,0,2,3,1,23,0002-00-0001-57.png,0003-00-0001-77.png
00000014,523,1,1438805492387,1438805492399,499,457,0,0,0,1,2,1,12,0001-00-0000-60.png,0002-00-0001-74.png
00000014,524,1,1438805493393,1438805493910,325,371,0,0,0,3,4,1,34,0003-00-0000-41.png,0004-00-0001-73.png
00000014,525,0,1438805494855,1438805494871,510,420,0,0,0,3,2,1,32,0003-00-0001-52.png,0002-00-0001-14.png
00000014,526,0,1438805497030,1438805497483,383,367,0,0,0,4,3,1,43,0004-00-0001-74.png,0003-00-0001-22.png
00000014,527,0,1438805499564,1438805500016,358,392,0,0,0,2,1,1,21,0002-00-0001-95.png,0001-00-0000-79.png
00000014,528,0,1438805503683,1438805504156,353,349,0,0,0,5,4,1,54,0005-00-0001-31.png,0004-00-0001-05.png
00000014,529,1,1438805508818,1438805509400,395,445,0,0,0,1,2,1,12,0001-00-0000-52.png,0002-00-0000-11.png
00000014,530,0,1438805510458,1438805510872,297,382,0,0,0,2,1,1,21,0002-00-0001-70.png,0001-00-0000-26.png
00000014,531,1,1438805514991,1438805516018,887,342,0,0,0,3,2,1,32,0003-00-0000-23.png,0002-00-0000-03.png
00000014,532,0,1438805517068,1438805517562,346,393,0,0,0,4,3,1,43,0004-00-0000-75.png,0003-00-0001-42.png
00000014,533,0,1438805519502,1438805520089,929,416,0,0,0,3,4,1,34,0003-00-0000-06.png,0004-00-0000-32.png
00000014,534,0,1438805522183,1438805522729,926,443,0,0,0,4,5,1,45,0004-00-0000-99.png,0005-00-0000-69.png
00000014,535,0,1438805525465,1438805525980,346,368,0,0,0,5,4,1,54,0005-00-0000-55.png,0004-00-0000-02.png
00000014,536,1,1438805534521,1438805534541,510,444,0,0,0,2,3,1,23,0002-00-0000-52.png,0003-00-0000-92.png
00000014,537,1,1438805535708,1438805536201,222,462,0,0,0,4,5,1,45,0004-00-0000-34.png,0005-00-0000-17.png
00000014,538,0,1438805537572,1438805538003,331,400,0,0,0,5,4,1,54,0005-00-0001-43.png,0004-00-0001-23.png
00000014,539,0,1438805547370,1438805547882,415,445,0,0,0,4,3,1,43,0004-00-0001-37.png,0003-00-0000-33.png
00000014,540,0,1438805627201,1438805627624,351,495,0,0,0,3,2,1,32,0003-00-0000-62.png,0002-00-0001-84.png
00000014,541,0,1438805629537,1438805629549,471,417,0,0,0,2,1,1,21,0002-00-0001-48.png,0001-00-0001-02.png
00000014,542,1,1438805631594,1438805632047,332,364,0,0,0,3,4,1,34,0003-00-0000-78.png,0004-00-0000-60.png
00000014,543,0,1438805633691,1438805634232,904,491,0,0,0,1,2,1,12,0001-00-0001-75.png,0002-00-0001-50.png
00000014,544,1,1438805636214,1438805636234,504,373,0,0,0,2,3,1,23,0002-00-0001-10.png,0003-00-0000-56.png
00000014,545,1,1438805637296,1438805637914,318,346,0,0,0,2,3,1,23,0002-00-0001-35.png,0003-00-0000-82.png
00000014,546,0,1438805638919,1438805638947,520,436,0,0,0,3,2,1,32,0003-00-0000-76.png,0002-00-0001-11.png
00000014,547,1,1438805641152,1438805641598,371,384,0,0,0,1,2,1,12,0001-00-0001-38.png,0002-00-0001-45.png
00000014,548,0,1438805642944,1438805643387,365,388,0,0,0,5,4,1,54,0005-00-0000-54.png,0004-00-0001-69.png
00000014,549,0,1438805645705,1438805646228,919,348,0,0,0,4,5,1,45,0004-00-0001-53.png,0005-00-0001-01.png
00000014,550,1,1438805648548,1438805649061,899,430,0,0,0,2,1,1,21,0002-00-0001-16.png,0001-00-0000-82.png
00000014,551,0,1438805650108,1438805650590,392,507,0,0,0,4,3,1,43,0004-00-0001-88.png,0003-00-0000-61.png
00000014,552,1,1438805652600,1438805652616,487,427,0,0,0,3,4,1,34,0003-00-0001-29.png,0004-00-0000-85.png
00000014,553,1,1438805653837,1438805653873,484,501,0,0,0,1,2,1,12,0001-00-0000-31.png,0002-00-0000-04.png
00000014,554,0,1438805655009,1438805655053,504,476,0,0,0,4,3,1,43,0004-00-0000-99.png,0003-00-0001-39.png
00000014,555,1,1438805657015,1438805657031,511,444,0,0,0,2,3,1,23,0002-00-0001-91.png,0003-00-0000-47.png
00000014,556,0,1438805658220,1438805658829,882,334,0,0,0,3,4,1,34,0003-00-0000-00.png,0004-00-0001-87.png
00000014,557,0,1438805660694,1438805661140,222,478,0,0,0,5,4,1,54,0005-00-0001-55.png,0004-00-0000-02.png
00000014,558,1,1438805663456,1438805663908,243,467,0,0,0,4,5,1,45,0004-00-0001-60.png,0005-00-0000-37.png
00000014,559,0,1438805665028,1438805665457,342,374,0,0,0,2,1,1,21,0002-00-0001-74.png,0001-00-0001-84.png
00000014,560,0,1438805668188,1438805668624,395,490,0,0,0,3,2,1,32,0003-00-0001-74.png,0002-00-0000-75.png
00000014,561,1,1438805670565,1438805670965,389,477,0,0,0,1,2,1,12,0001-00-0001-36.png,0002-00-0000-12.png
00000014,562,0,1438805672046,1438805672703,444,493,0,0,0,2,1,1,21,0002-00-0001-16.png,0001-00-0001-72.png
00000014,563,0,1438805674738,1438805675248,929,376,0,0,0,3,4,1,34,0003-00-0001-67.png,0004-00-0001-50.png
00000014,564,0,1438805677261,1438805677725,337,397,0,0,0,3,2,1,32,0003-00-0001-82.png,0002-00-0000-46.png
00000014,565,1,1438805680065,1438805680582,397,452,0,0,0,2,3,1,23,0002-00-0001-81.png,0003-00-0000-66.png
00000014,566,1,1438805681636,1438805682092,331,384,0,0,0,4,5,1,45,0004-00-0001-60.png,0005-00-0001-50.png
00000014,567,0,1438805683180,1438805683654,316,375,0,0,0,5,4,1,54,0005-00-0001-48.png,0004-00-0001-67.png
00000014,568,0,1438805685749,1438805686176,342,369,0,0,0,4,3,1,43,0004-00-0001-39.png,0003-00-0001-90.png
00000014,569,0,1438805688305,1438805688725,401,423,0,0,0,4,3,1,43,0004-00-0000-87.png,0003-00-0000-94.png
00000014,570,0,1438805690701,1438805691318,943,387,0,0,0,4,5,1,45,0004-00-0001-91.png,0005-00-0000-72.png
00000014,571,0,1438805693421,1438805693901,929,468,0,0,0,1,2,1,12,0001-00-0001-14.png,0002-00-0001-28.png
00000014,572,1,1438805702150,1438805702604,947,342,0,0,0,2,1,1,21,0002-00-0000-73.png,0001-00-0001-61.png
00000014,573,1,1438805703743,1438805704283,944,356,0,0,0,5,4,1,54,0005-00-0000-23.png,0004-00-0000-97.png
00000014,574,1,1438805705384,1438805705954,333,392,0,0,0,2,3,1,23,0002-00-0001-95.png,0003-00-0000-72.png
00000014,575,0,1438805707478,1438805707935,401,490,0,0,0,3,2,1,32,0003-00-0001-32.png,0002-00-0001-65.png
00000014,576,0,1438805710589,1438805711062,930,454,0,0,0,3,4,1,34,0003-00-0001-97.png,0004-00-0000-35.png
00000014,577,0,1438805713085,1438805713530,346,367,0,0,0,4,3,1,43,0004-00-0000-49.png,0003-00-0001-49.png
00000014,578,1,1438805721343,1438805721863,964,405,0,0,0,2,1,1,21,0002-00-0000-36.png,0001-00-0001-76.png
00000014,579,1,1438805722891,1438805723450,375,486,0,0,0,2,3,1,23,0002-00-0001-40.png,0003-00-0000-26.png
00000014,580,1,1438805724471,1438805724507,507,468,0,0,0,4,5,1,45,0004-00-0001-93.png,0005-00-0000-64.png
00000014,581,0,1438805726031,1438805726514,376,397,0,0,0,5,4,1,54,0005-00-0001-05.png,0004-00-0000-56.png
00000014,582,0,1438805730960,1438805731447,902,439,0,0,0,1,2,1,12,0001-00-0000-65.png,0002-00-0000-41.png
00000014,583,1,1438805733345,1438805733785,952,372,0,0,0,3,2,1,32,0003-00-0000-71.png,0002-00-0000-01.png
00000014,584,1,1438805734779,1438805735362,315,337,0,0,0,3,4,1,34,0003-00-0001-90.png,0004-00-0000-64.png
00000014,585,1,1438805736327,1438805736929,901,472,0,0,0,3,2,1,32,0003-00-0001-21.png,0002-00-0000-66.png
00000014,586,1,1438805737865,1438805737905,511,421,0,0,0,2,3,1,23,0002-00-0001-09.png,0003-00-0001-75.png
00000014,587,1,1438805738940,1438805739535,337,363,0,0,0,4,5,1,45,0004-00-0001-52.png,0005-00-0001-16.png
00000014,588,0,1438805740560,1438805740636,501,536,0,0,0,2,1,1,21,0002-00-0000-83.png,0001-00-0000-39.png
00000014,589,1,1438805742577,1438805743001,324,370,0,0,0,3,4,1,34,0003-00-0001-22.png,0004-00-0000-69.png
00000014,590,0,1438805744433,1438805744901,369,399,0,0,0,5,4,1,54,0005-00-0000-19.png,0004-00-0001-80.png
00000014,591,0,1438805746871,1438805747336,412,474,0,0,0,4,3,1,43,0004-00-0000-99.png,0003-00-0001-62.png
00000014,592,1,1438805749424,1438805749853,421,488,0,0,0,1,2,1,12,0001-00-0000-57.png,0002-00-0001-91.png
00000014,593,0,1438805751290,1438805751755,418,491,0,0,0,5,4,1,54,0005-00-0001-30.png,0004-00-0000-65.png
00000014,594,0,1438805753803,1438805754259,401,410,0,0,0,4,3,1,43,0004-00-0000-45.png,0003-00-0001-08.png
00000014,595,1,1438805757731,1438805758204,376,358,0,0,0,3,4,1,34,0003-00-0000-02.png,0004-00-0001-90.png
00000014,596,0,1438805759202,1438805759250,478,451,0,0,0,2,1,1,21,0002-00-0000-67.png,0001-00-0001-21.png
00000014,597,1,1438805761315,1438805761723,376,475,0,0,0,4,5,1,45,0004-00-0001-92.png,0005-00-0001-09.png
00000014,598,1,1438805762722,1438805762746,506,452,0,0,0,2,3,1,23,0002-00-0000-28.png,0003-00-0000-92.png
00000014,599,0,1438805763764,1438805764317,345,387,0,0,0,3,2,1,32,0003-00-0000-79.png,0002-00-0000-00.png
00000014,600,0,1438805766464,1438805767023,926,385,0,0,0,1,2,1,12,0001-00-0001-55.png,0002-00-0001-70.png
00000014,601,0,1438805768957,1438805769431,950,365,0,0,0,3,4,1,34,0003-00-0000-15.png,0004-00-0001-60.png
00000014,602,0,1438805771455,1438805771916,359,379,0,0,0,5,4,1,54,0005-00-0001-38.png,0004-00-0000-70.png
00000014,603,1,1438805773757,1438805774238,928,365,0,0,0,2,1,1,21,0002-00-0001-67.png,0001-00-0001-60.png
00000014,604,0,1438805775238,1438805775270,505,475,0,0,0,3,2,1,32,0003-00-0000-38.png,0002-00-0001-38.png
00000014,605,1,1438805777186,1438805777595,373,342,0,0,0,2,3,1,23,0002-00-0000-52.png,0003-00-0000-25.png
00000014,606,0,1438805778629,1438805779164,427,476,0,0,0,4,3,1,43,0004-00-0000-36.png,0003-00-0001-62.png
00000014,607,1,1438805781899,1438805782424,413,454,0,0,0,1,2,1,12,0001-00-0000-84.png,0002-00-0001-00.png
00000014,608,1,1438805783450,1438805783470,520,488,0,0,0,4,5,1,45,0004-00-0001-65.png,0005-00-0000-65.png
00000014,609,1,1438805784513,1438805784568,516,533,0,0,0,3,4,1,34,0003-00-0000-55.png,0004-00-0000-69.png
00000014,610,0,1438805785746,1438805786309,222,410,0,0,0,2,1,1,21,0002-00-0001-73.png,0001-00-0001-21.png
00000014,611,1,1438805788329,1438805788802,248,428,0,0,0,2,3,1,23,0002-00-0000-95.png,0003-00-0000-52.png
00000014,612,1,1438805790315,1438805790820,348,364,0,0,0,1,2,1,12,0001-00-0001-74.png,0002-00-0000-46.png
00000014,613,0,1438805791848,1438805791856,507,461,0,0,0,5,4,1,54,0005-00-0001-20.png,0004-00-0001-67.png
00000014,614,1,1438805793705,1438805794284,939,365,0,0,0,3,2,1,32,0003-00-0000-48.png,0002-00-0000-00.png
00000014,615,0,1438805795226,1438805795238,514,424,0,0,0,4,3,1,43,0004-00-0000-89.png,0003-00-0001-72.png
00000014,616,1,1438805797213,1438805797656,248,410,0,0,0,4,5,1,45,0004-00-0001-27.png,0005-00-0000-50.png
00000014,617,0,1438805799240,1438805799737,888,450,0,0,0,3,4,1,34,0003-00-0001-65.png,0004-00-0001-80.png
00000014,618,0,1438805803823,1438805804262,299,346,0,0,0,2,1,1,21,0002-00-0000-93.png,0001-00-0000-28.png
00000014,619,1,1438805806365,1438805806894,325,384,0,0,0,4,5,1,45,0004-00-0000-84.png,0005-00-0000-46.png
00000014,620,1,1438805807877,1438805808440,937,455,0,0,0,5,4,1,54,0005-00-0001-67.png,0004-00-0001-47.png
00000014,621,1,1438805809537,1438805809601,504,479,0,0,0,1,2,1,12,0001-00-0000-31.png,0002-00-0000-87.png
00000014,622,1,1438805811034,1438805811593,393,386,0,0,0,2,3,1,23,0002-00-0000-43.png,0003-00-0001-19.png
00000014,623,0,1438805812597,1438805812621,523,451,0,0,0,3,2,1,32,0003-00-0001-40.png,0002-00-0001-44.png
00000014,624,0,1438805814555,1438805815010,350,371,0,0,0,4,3,1,43,0004-00-0001-86.png,0003-00-0000-53.png
00000014,625,1,1438805817149,1438805817640,412,463,0,0,0,1,2,1,12,0001-00-0001-07.png,0002-00-0001-29.png
00000014,626,0,1438805818621,1438805819246,918,389,0,0,0,2,3,1,23,0002-00-0000-20.png,0003-00-0001-94.png
00000014,627,1,1438805821244,1438805821644,353,367,0,0,0,4,5,1,45,0004-00-0000-73.png,0005-00-0000-67.png
00000014,628,0,1438805822677,1438805823356,893,458,0,0,0,3,4,1,34,0003-00-0000-11.png,0004-00-0001-82.png
00000014,629,0,1438805825454,1438805825947,349,398,0,0,0,4,3,1,43,0004-00-0001-00.png,0003-00-0001-63.png
00000014,630,1,1438805828963,1438805829432,905,349,0,0,0,2,1,1,21,0002-00-0000-08.png,0001-00-0001-64.png
00000014,631,1,1438805830456,1438805831009,905,453,0,0,0,5,4,1,54,0005-00-0001-58.png,0004-00-0001-03.png
00000014,632,0,1438805831974,1438805831986,510,417,0,0,0,3,2,1,32,0003-00-0000-06.png,0002-00-0000-85.png
00000014,633,1,1438805834122,1438805834655,888,332,0,0,0,3,2,1,32,0003-00-0000-26.png,0002-00-0000-90.png
00000014,634,0,1438805836157,1438805836555,350,370,0,0,0,4,3,1,43,0004-00-0001-55.png,0003-00-0000-65.png
00000014,635,0,1438805838633,1438805839199,932,364,0,0,0,3,4,1,34,0003-00-0001-73.png,0004-00-0000-97.png
00000014,636,0,1438805841165,1438805841580,414,460,0,0,0,2,1,1,21,0002-00-0001-61.png,0001-00-0001-12.png
00000014,637,1,1438805843472,1438805844020,324,378,0,0,0,2,3,1,23,0002-00-0000-50.png,0003-00-0000-50.png
00000014,638,1,1438805845103,1438805845663,900,371,0,0,0,5,4,1,54,0005-00-0001-54.png,0004-00-0001-70.png
00000014,639,1,1438805846662,1438805846698,522,443,0,0,0,1,2,1,12,0001-00-0000-37.png,0002-00-0001-05.png
00000014,640,0,1438805847785,1438805848358,880,506,0,0,0,4,5,1,45,0004-00-0000-22.png,0005-00-0000-45.png
00000014,641,0,1438805850469,1438805851024,921,366,0,0,0,4,5,1,45,0004-00-0001-11.png,0005-00-0000-20.png
00000014,642,0,1438805852931,1438805852951,513,419,0,0,0,2,1,1,21,0002-00-0001-29.png,0001-00-0001-23.png
00000014,643,1,1438805855019,1438805855027,518,435,0,0,0,1,2,1,12,0001-00-0001-39.png,0002-00-0000-48.png
00000014,644,1,1438805856103,1438805856632,886,455,0,0,0,5,4,1,54,0005-00-0000-37.png,0004-00-0000-84.png
00000014,645,0,1438805857683,1438805858235,414,476,0,0,0,4,3,1,43,0004-00-0001-85.png,0003-00-0000-57.png
00000014,646,0,1438805860126,1438805860653,926,359,0,0,0,3,4,1,34,0003-00-0001-08.png,0004-00-0001-42.png
00000014,647,1,1438805862531,1438805862543,523,377,0,0,0,2,3,1,23,0002-00-0000-09.png,0003-00-0000-68.png
00000014,648,1,1438805864091,1438805864621,901,476,0,0,0,3,2,1,32,0003-00-0001-41.png,0002-00-0000-93.png
00000014,649,1,1438805865605,1438805865649,488,498,0,0,0,2,3,1,23,0002-00-0001-40.png,0003-00-0000-06.png
00000014,650,0,1438805866719,1438805866794,478,462,0,0,0,3,2,1,32,0003-00-0001-36.png,0002-00-0000-29.png
00000014,651,0,1438805868652,1438805869093,387,475,0,0,0,4,3,1,43,0004-00-0000-82.png,0003-00-0001-98.png
00000014,652,0,1438805871002,1438805871528,871,315,0,0,0,3,4,1,34,0003-00-0000-33.png,0004-00-0000-52.png
00000014,653,1,1438805873698,1438805874159,414,457,0,0,0,4,5,1,45,0004-00-0001-39.png,0005-00-0000-09.png
00000014,654,0,1438805875074,1438805875097,486,402,0,0,0,2,1,1,21,0002-00-0001-71.png,0001-00-0000-76.png
00000014,655,0,1438805877063,1438805877572,928,361,0,0,0,1,2,1,12,0001-00-0001-09.png,0002-00-0000-45.png
00000014,656,0,1438805879993,1438805880013,511,420,0,0,0,5,4,1,54,0005-00-0000-88.png,0004-00-0001-25.png
00000014,657,0,1438805881840,1438805882441,898,430,0,0,0,3,4,1,34,0003-00-0001-05.png,0004-00-0000-16.png
00000014,658,1,1438805884386,1438805884414,504,450,0,0,0,4,5,1,45,0004-00-0001-35.png,0005-00-0001-86.png
00000014,659,0,1438805885511,1438805885962,349,376,0,0,0,2,1,1,21,0002-00-0001-36.png,0001-00-0000-51.png
00000014,660,1,1438805887894,1438805888552,930,351,0,0,0,5,4,1,54,0005-00-0000-80.png,0004-00-0000-40.png
00000014,661,0,1438805889475,1438805890051,937,333,0,0,0,2,3,1,23,0002-00-0001-78.png,0003-00-0001-38.png
00000014,662,0,1438805892006,1438805892018,504,476,0,0,0,3,2,1,32,0003-00-0000-91.png,0002-00-0001-25.png
00000014,663,1,1438805894016,1438805894443,329,366,0,0,0,1,2,1,12,0001-00-0001-30.png,0002-00-0000-66.png
00000014,664,0,1438805895429,1438805895942,364,389,0,0,0,4,3,1,43,0004-00-0001-79.png,0003-00-0001-25.png
00000014,665,0,1438805897904,1438805898386,395,485,0,0,0,3,2,1,32,0003-00-0000-76.png,0002-00-0000-58.png
00000014,666,0,1438805900520,1438805900962,395,479,0,0,0,2,1,1,21,0002-00-0000-81.png,0001-00-0001-24.png
00000014,667,1,1438805902991,1438805903544,386,470,0,0,0,4,5,1,45,0004-00-0000-71.png,0005-00-0001-32.png
00000014,668,0,1438805904522,1438805905068,401,358,0,0,0,4,3,1,43,0004-00-0001-54.png,0003-00-0001-83.png
00000014,669,1,1438805907181,1438805907720,934,368,0,0,0,5,4,1,54,0005-00-0001-24.png,0004-00-0000-82.png
00000014,670,1,1438805908696,1438805908716,513,418,0,0,0,2,3,1,23,0002-00-0000-12.png,0003-00-0000-56.png
00000014,671,1,1438805909726,1438805909794,523,506,0,0,0,1,2,1,12,0001-00-0001-02.png,0002-00-0000-80.png
00000014,672,1,1438805911031,1438805911067,504,436,0,0,0,3,4,1,34,0003-00-0001-35.png,0004-00-0001-94.png
00000014,673,1,1438805912366,1438805912934,897,469,0,0,0,3,2,1,32,0003-00-0001-72.png,0002-00-0001-25.png
00000014,674,0,1438805913984,1438805914536,926,358,0,0,0,2,3,1,23,0002-00-0001-50.png,0003-00-0000-12.png
00000014,675,1,1438805916498,1438805916965,891,431,0,0,0,2,1,1,21,0002-00-0000-47.png,0001-00-0000-89.png
00000014,676,1,1438805917909,1438805917937,497,427,0,0,0,1,2,1,12,0001-00-0000-52.png,0002-00-0001-99.png
00000014,677,0,1438805918972,1438805919472,376,358,0,0,0,4,3,1,43,0004-00-0000-70.png,0003-00-0001-65.png
00000014,678,1,1438805921403,1438805921427,465,369,0,0,0,4,5,1,45,0004-00-0001-99.png,0005-00-0000-82.png
00000014,679,1,1438805922530,1438805923093,894,404,0,0,0,5,4,1,54,0005-00-0001-67.png,0004-00-0001-76.png
00000014,680,1,1438805924129,1438805924153,504,400,0,0,0,3,4,1,34,0003-00-0001-71.png,0004-00-0000-87.png
00000014,681,0,1438805925293,1438805925848,338,398,0,0,0,5,4,1,54,0005-00-0001-52.png,0004-00-0000-28.png
00000014,682,0,1438805927856,1438805928865,899,482,0,0,0,3,4,1,34,0003-00-0000-67.png,0004-00-0000-37.png
00000014,683,0,1438805930814,1438805930822,515,347,0,0,0,2,1,1,21,0002-00-0001-78.png,0001-00-0000-76.png
00000014,684,1,1438805932802,1438805932814,465,409,0,0,0,1,2,1,12,0001-00-0001-77.png,0002-00-0001-76.png
00000014,685,1,1438805933928,1438805934536,352,391,0,0,0,4,5,1,45,0004-00-0001-89.png,0005-00-0001-53.png
00000014,686,1,1438805935627,1438805935698,468,514,0,0,0,2,3,1,23,0002-00-0000-23.png,0003-00-0000-05.png
00000014,687,0,1438805936720,1438805937248,231,462,0,0,0,4,3,1,43,0004-00-0001-54.png,0003-00-0000-04.png
00000014,688,0,1438805939226,1438805939278,514,478,0,0,0,3,2,1,32,0003-00-0001-52.png,0002-00-0000-96.png
00000014,689,0,1438805941451,1438805941506,478,436,0,0,0,2,1,1,21,0002-00-0000-49.png,0001-00-0001-77.png
00000014,690,0,1438805943517,1438805944180,902,438,0,0,0,3,4,1,34,0003-00-0001-80.png,0004-00-0000-31.png
00000014,691,1,1438805946991,1438805947495,380,463,0,0,0,1,2,1,12,0001-00-0000-00.png,0002-00-0001-22.png
00000014,692,0,1438805948528,1438805949267,400,461,0,0,0,5,4,1,54,0005-00-0000-26.png,0004-00-0001-32.png
00000014,693,0,1438805951596,1438805951612,504,410,0,0,0,3,2,1,32,0003-00-0001-33.png,0002-00-0001-35.png
00000014,694,1,1438805953684,1438805953772,412,532,0,0,0,2,3,1,23,0002-00-0000-99.png,0003-00-0001-48.png
00000014,695,1,1438805954768,1438805955296,370,384,0,0,0,4,5,1,45,0004-00-0001-13.png,0005-00-0001-55.png
00000014,696,0,1438805956367,1438805956923,352,375,0,0,0,4,3,1,43,0004-00-0000-66.png,0003-00-0001-92.png
00000014,697,1,1438805959310,1438805959831,346,393,0,0,0,4,5,1,45,0004-00-0001-37.png,0005-00-0001-60.png
00000014,698,0,1438805960921,1438805960985,499,528,0,0,0,4,3,1,43,0004-00-0000-58.png,0003-00-0001-80.png
00000014,699,1,1438805962927,1438805963376,364,376,0,0,0,2,3,1,23,0002-00-0001-07.png,0003-00-0000-34.png
00000014,700,0,1438805964445,1438805964485,502,472,0,0,0,2,1,1,21,0002-00-0000-19.png,0001-00-0001-33.png
00000014,701,1,1438805966583,1438805967064,363,396,0,0,0,1,2,1,12,0001-00-0001-20.png,0002-00-0001-58.png
00000014,702,0,1438805968561,1438805969103,348,398,0,0,0,5,4,1,54,0005-00-0000-94.png,0004-00-0000-22.png
00000014,703,1,1438805971236,1438805971272,501,500,0,0,0,3,4,1,34,0003-00-0001-90.png,0004-00-0000-34.png
00000014,704,0,1438805972308,1438805972320,495,416,0,0,0,3,2,1,32,0003-00-0001-96.png,0002-00-0001-54.png
00000014,705,0,1438805974972,1438805975000,498,444,0,0,0,3,2,1,32,0003-00-0000-60.png,0002-00-0001-57.png
00000014,706,0,1438805977343,1438805977773,299,358,0,0,0,5,4,1,54,0005-00-0001-68.png,0004-00-0000-88.png
00000014,707,1,1438805985096,1438805985571,329,352,0,0,0,2,3,1,23,0002-00-0000-40.png,0003-00-0000-63.png
00000014,708,1,1438805986637,1438805987321,902,442,0,0,0,2,1,1,21,0002-00-0001-34.png,0001-00-0001-70.png
00000014,709,1,1438805988357,1438805988987,314,366,0,0,0,3,4,1,34,0003-00-0001-90.png,0004-00-0000-77.png
00000014,710,1,1438805990047,1438805990561,368,373,0,0,0,1,2,1,12,0001-00-0000-25.png,0002-00-0000-50.png
00000014,711,0,1438805991657,1438805992228,320,412,0,0,0,4,3,1,43,0004-00-0000-57.png,0003-00-0001-48.png
00000014,712,1,1438805994108,1438805994124,504,410,0,0,0,4,5,1,45,0004-00-0001-01.png,0005-00-0000-25.png
00000014,713,1,1438805995427,1438805995863,333,377,0,0,0,4,5,1,45,0004-00-0001-64.png,0005-00-0000-87.png
00000014,714,1,1438805998067,1438805998515,942,373,0,0,0,3,2,1,32,0003-00-0000-43.png,0002-00-0001-74.png
00000014,715,1,1438805999578,1438805999633,517,462,0,0,0,3,4,1,34,0003-00-0000-79.png,0004-00-0001-55.png
00000014,716,1,1438806000711,1438806000747,510,416,0,0,0,1,2,1,12,0001-00-0000-29.png,0002-00-0001-45.png
00000014,717,0,1438806001963,1438806002478,357,365,0,0,0,2,1,1,21,0002-00-0001-00.png,0001-00-0001-87.png
00000014,718,0,1438806004398,1438806004820,388,473,0,0,0,5,4,1,54,0005-00-0001-78.png,0004-00-0000-60.png
00000014,719,0,1438806006691,1438806006703,459,417,0,0,0,4,3,1,43,0004-00-0000-88.png,0003-00-0000-00.png
00000014,720,0,1438806018495,1438806018991,948,413,0,0,0,2,3,1,23,0002-00-0000-77.png,0003-00-0000-45.png
00000014,721,1,1438806021145,1438806021576,315,390,0,0,0,4,5,1,45,0004-00-0000-56.png,0005-00-0001-29.png
00000014,722,0,1438806023041,1438806023482,350,384,0,0,0,2,1,1,21,0002-00-0000-81.png,0001-00-0000-65.png
00000014,723,1,1438806025569,1438806026422,986,405,0,0,0,4,3,1,43,0004-00-0001-45.png,0003-00-0000-27.png
00000014,724,1,1438806027407,1438806027921,894,300,0,0,0,3,2,1,32,0003-00-0000-55.png,0002-00-0000-63.png
00000014,725,1,1438806028888,1438806028900,523,399,0,0,0,2,3,1,23,0002-00-0000-29.png,0003-00-0001-50.png
00000014,726,0,1438806029852,1438806030578,328,315,0,0,0,5,4,1,54,0005-00-0000-80.png,0004-00-0000-60.png
00000014,727,0,1438806032635,1438806033235,937,386,0,0,0,1,2,1,12,0001-00-0000-68.png,0002-00-0000-23.png
00000014,728,0,1438806035298,1438806035772,963,371,0,0,0,3,4,1,34,0003-00-0001-98.png,0004-00-0001-64.png
00000014,729,1,1438806039113,1438806039597,222,462,0,0,0,4,5,1,45,0004-00-0001-10.png,0005-00-0000-02.png
00000014,730,1,1438806040605,1438806041248,325,371,0,0,0,3,4,1,34,0003-00-0001-41.png,0004-00-0001-41.png
00000014,731,1,1438806042317,1438806042791,964,332,0,0,0,5,4,1,54,0005-00-0001-03.png,0004-00-0000-48.png
00000014,732,0,1438806043805,1438806044371,319,394,0,0,0,2,1,1,21,0002-00-0001-27.png,0001-00-0000-93.png
00000014,733,1,1438806046525,1438806047120,952,357,0,0,0,4,3,1,43,0004-00-0001-19.png,0003-00-0001-35.png
00000014,734,0,1438806048476,1438806048492,519,436,0,0,0,3,2,1,32,0003-00-0001-16.png,0002-00-0000-74.png
00000014,735,0,1438806050493,1438806050949,931,341,0,0,0,2,3,1,23,0002-00-0001-22.png,0003-00-0000-18.png
00000014,736,1,1438806052936,1438806053520,379,451,0,0,0,1,2,1,12,0001-00-0001-09.png,0002-00-0001-54.png
00000014,737,0,1438806054428,1438806054988,317,413,0,0,0,2,1,1,21,0002-00-0000-35.png,0001-00-0000-31.png
00000014,738,1,1438806057030,1438806057525,916,436,0,0,0,3,2,1,32,0003-00-0000-40.png,0002-00-0001-73.png
00000014,739,1,1438806058512,1438806058532,481,491,0,0,0,2,3,1,23,0002-00-0000-74.png,0003-00-0000-53.png
00000014,740,1,1438806059556,1438806059568,520,426,0,0,0,3,4,1,34,0003-00-0000-82.png,0004-00-0001-40.png
00000014,741,0,1438806060759,1438806061301,324,397,0,0,0,5,4,1,54,0005-00-0001-13.png,0004-00-0000-67.png
00000014,742,0,1438806064903,1438806065410,323,367,0,0,0,4,3,1,43,0004-00-0000-98.png,0003-00-0001-65.png
00000014,743,1,1438806068152,1438806068605,328,334,0,0,0,1,2,1,12,0001-00-0000-03.png,0002-00-0000-80.png
00000014,744,0,1438806069777,1438806070254,897,457,0,0,0,4,5,1,45,0004-00-0001-16.png,0005-00-0000-69.png
00000014,745,1,1438806072198,1438806072218,465,384,0,0,0,4,5,1,45,0004-00-0001-32.png,0005-00-0001-72.png
00000014,746,0,1438806073658,1438806073697,518,462,0,0,0,3,2,1,32,0003-00-0001-51.png,0002-00-0000-54.png
00000014,747,0,1438806080560,1438806081101,391,436,0,0,0,2,1,1,21,0002-00-0001-58.png,0001-00-0001-79.png
00000014,748,0,1438806083086,1438806083719,903,455,0,0,0,1,2,1,12,0001-00-0001-72.png,0002-00-0001-45.png
00000014,749,0,1438806085749,1438806086145,352,352,0,0,0,5,4,1,54,0005-00-0001-85.png,0004-00-0000-71.png
00000014,750,1,1438806087990,1438806088022,464,371,0,0,0,2,3,1,23,0002-00-0001-91.png,0003-00-0001-48.png
00000014,751,1,1438806089476,1438806089932,376,332,0,0,0,3,4,1,34,0003-00-0001-27.png,0004-00-0001-43.png
00000014,752,0,1438806090896,1438806091422,340,362,0,0,0,4,3,1,43,0004-00-0001-51.png,0003-00-0001-37.png
00000014,753,0,1438806093330,1438806093768,413,464,0,0,0,3,2,1,32,0003-00-0001-94.png,0002-00-0001-83.png
00000014,754,1,1438806096194,1438806096230,517,436,0,0,0,2,3,1,23,0002-00-0001-14.png,0003-00-0000-33.png
00000014,755,1,1438806097206,1438806097262,514,480,0,0,0,4,5,1,45,0004-00-0000-14.png,0005-00-0001-20.png
00000014,756,0,1438806098189,1438806098763,230,461,0,0,0,5,4,1,54,0005-00-0000-27.png,0004-00-0000-93.png
00000014,757,0,1438806100742,1438806101219,266,452,0,0,0,2,1,1,21,0002-00-0001-52.png,0001-00-0001-57.png
00000014,758,1,1438806104301,1438806104815,873,359,0,0,0,4,3,1,43,0004-00-0000-91.png,0003-00-0000-79.png
00000014,759,1,1438806105703,1438806105723,504,448,0,0,0,1,2,1,12,0001-00-0000-66.png,0002-00-0001-05.png
00000014,760,0,1438806106709,1438806107238,868,342,0,0,0,3,4,1,34,0003-00-0000-54.png,0004-00-0000-59.png
00000014,761,0,1438806109174,1438806109610,350,360,0,0,0,5,4,1,54,0005-00-0000-09.png,0004-00-0000-29.png
00000014,762,0,1438806117479,1438806117992,345,436,0,0,0,4,3,1,43,0004-00-0001-91.png,0003-00-0001-84.png
00000014,763,1,1438806120159,1438806120638,935,372,0,0,0,2,1,1,21,0002-00-0000-61.png,0001-00-0001-92.png
00000014,764,1,1438806121572,1438806121604,519,456,0,0,0,3,4,1,34,0003-00-0001-97.png,0004-00-0000-73.png
00000014,765,1,1438806122487,1438806123081,895,472,0,0,0,3,2,1,32,0003-00-0001-45.png,0002-00-0001-86.png
00000014,766,0,1438806123967,1438806124534,912,398,0,0,0,1,2,1,12,0001-00-0001-23.png,0002-00-0001-06.png
00000014,767,1,1438806126597,1438806127203,291,343,0,0,0,2,3,1,23,0002-00-0000-96.png,0003-00-0001-50.png
00000014,768,0,1438806128240,1438806128905,892,386,0,0,0,4,5,1,45,0004-00-0001-05.png,0005-00-0001-15.png
00000014,769,0,1438806131079,1438806131585,915,402,0,0,0,3,4,1,34,0003-00-0001-98.png,0004-00-0001-12.png
00000014,770,1,1438806133917,1438806134415,392,496,0,0,0,4,5,1,45,0004-00-0001-74.png,0005-00-0000-49.png
00000014,771,0,1438806135356,1438806135384,522,458,0,0,0,2,1,1,21,0002-00-0000-52.png,0001-00-0001-87.png
00000014,772,0,1438806137334,1438806137927,233,418,0,0,0,3,2,1,32,0003-00-0001-39.png,0002-00-0000-18.png
00000014,773,0,1438806140143,1438806140625,872,481,0,0,0,1,2,1,12,0001-00-0001-75.png,0002-00-0000-00.png
00000014,774,0,1438806144676,1438806145171,250,452,0,0,0,5,4,1,54,0005-00-0000-05.png,0004-00-0001-13.png
00000014,775,0,1438806147081,1438806147101,521,410,0,0,0,4,3,1,43,0004-00-0000-67.png,0003-00-0000-69.png
00000014,776,0,1438806149497,1438806149973,926,345,0,0,0,2,3,1,23,0002-00-0000-05.png,0003-00-0001-36.png
00000014,777,1,1438806151853,1438806152332,413,435,0,0,0,4,5,1,45,0004-00-0001-13.png,0005-00-0001-03.png
00000014,778,1,1438806153286,1438806153875,882,463,0,0,0,2,1,1,21,0002-00-0001-82.png,0001-00-0000-92.png
00000014,779,1,1438806154865,1438806154885,493,384,0,0,0,2,3,1,23,0002-00-0001-96.png,0003-00-0000-90.png
00000014,780,0,1438806155917,1438806156471,386,374,0,0,0,3,2,1,32,0003-00-0001-46.png,0002-00-0001-16.png
00000014,781,1,1438806158592,1438806159086,913,358,0,0,0,5,4,1,54,0005-00-0000-75.png,0004-00-0001-60.png
00000014,782,1,1438806160151,1438806160163,469,534,0,0,0,3,4,1,34,0003-00-0000-96.png,0004-00-0000-87.png
00000014,783,0,1438806161212,1438806161791,346,387,0,0,0,4,3,1,43,0004-00-0000-51.png,0003-00-0001-08.png
00000014,784,0,1438806163719,1438806164299,925,346,0,0,0,1,2,1,12,0001-00-0000-57.png,0002-00-0000-44.png
00000014,785,0,1438806166342,1438806166354,473,417,0,0,0,5,4,1,54,0005-00-0000-62.png,0004-00-0001-49.png
00000014,786,0,1438806168280,1438806168304,510,473,0,0,0,4,3,1,43,0004-00-0001-27.png,0003-00-0000-42.png
00000014,787,0,1438806170201,1438806170729,929,350,0,0,0,4,5,1,45,0004-00-0001-23.png,0005-00-0000-29.png
00000014,788,1,1438806173056,1438806173477,401,486,0,0,0,3,4,1,34,0003-00-0001-51.png,0004-00-0000-38.png
00000014,789,0,1438806174504,1438806175129,958,408,0,0,0,1,2,1,12,0001-00-0000-62.png,0002-00-0000-63.png
00000014,790,1,1438806177187,1438806177660,313,372,0,0,0,2,3,1,23,0002-00-0001-90.png,0003-00-0000-09.png
00000014,791,1,1438806178670,1438806179229,909,448,0,0,0,3,2,1,32,0003-00-0000-47.png,0002-00-0000-19.png
00000014,792,1,1438806180181,1438806180745,926,360,0,0,0,2,1,1,21,0002-00-0000-21.png,0001-00-0001-47.png
00000014,793,1,1438806181750,1438806182341,392,363,0,0,0,2,3,1,23,0002-00-0000-95.png,0003-00-0000-36.png
00000014,794,0,1438806183828,1438806184425,386,463,0,0,0,5,4,1,54,0005-00-0000-62.png,0004-00-0000-64.png
00000014,795,1,1438806186449,1438806186461,519,370,0,0,0,1,2,1,12,0001-00-0000-96.png,0002-00-0001-33.png
00000014,796,0,1438806187435,1438806187451,523,451,0,0,0,3,2,1,32,0003-00-0000-50.png,0002-00-0000-24.png
00000014,797,1,1438806189340,1438806189772,913,319,0,0,0,2,1,1,21,0002-00-0000-50.png,0001-00-0000-50.png
00000014,798,1,1438806190743,1438806191320,359,400,0,0,0,3,4,1,34,0003-00-0000-61.png,0004-00-0000-61.png
00000014,799,1,1438806192302,1438806192810,383,393,0,0,0,4,5,1,45,0004-00-0000-85.png,0005-00-0001-00.png
00000014,800,0,1438806193803,1438806194356,255,469,0,0,0,4,3,1,43,0004-00-0001-60.png,0003-00-0001-35.png
00000014,801,0,1438806196377,1438806196925,919,393,0,0,0,1,2,1,12,0001-00-0001-33.png,0002-00-0000-34.png
00000014,802,0,1438806200531,1438806200998,376,371,0,0,0,2,1,1,21,0002-00-0001-36.png,0001-00-0000-17.png
00000014,803,0,1438806202837,1438806202860,486,366,0,0,0,4,3,1,43,0004-00-0000-45.png,0003-00-0000-66.png
00000014,804,1,1438806205014,1438806205026,517,436,0,0,0,2,3,1,23,0002-00-0000-71.png,0003-00-0000-63.png
00000014,805,0,1438806206158,1438806206723,318,382,0,0,0,5,4,1,54,0005-00-0001-99.png,0004-00-0001-97.png
00000014,806,1,1438806208859,1438806208906,500,508,0,0,0,4,5,1,45,0004-00-0000-57.png,0005-00-0001-76.png
00000014,807,1,1438806209884,1438806209932,519,473,0,0,0,3,4,1,34,0003-00-0000-20.png,0004-00-0001-17.png
00000014,808,0,1438806211505,1438806211950,318,410,0,0,0,3,2,1,32,0003-00-0000-09.png,0002-00-0000-15.png
00000014,809,0,1438806213978,1438806214435,876,335,0,0,0,4,5,1,45,0004-00-0001-76.png,0005-00-0001-61.png
00000014,810,0,1438806216561,1438806216581,511,394,0,0,0,4,3,1,43,0004-00-0001-13.png,0003-00-0000-09.png
00000014,811,1,1438806218755,1438806219389,913,410,0,0,0,2,1,1,21,0002-00-0001-56.png,0001-00-0000-42.png
00000014,812,0,1438806220904,1438806220932,510,533,0,0,0,3,2,1,32,0003-00-0000-40.png,0002-00-0001-67.png
00000014,813,1,1438806222941,1438806223504,348,360,0,0,0,2,3,1,23,0002-00-0000-18.png,0003-00-0000-65.png
00000014,814,1,1438806224454,1438806225081,913,384,0,0,0,5,4,1,54,0005-00-0001-03.png,0004-00-0001-85.png
00000014,815,1,1438806226122,1438806226697,320,382,0,0,0,1,2,1,12,0001-00-0001-51.png,0002-00-0000-02.png
00000014,816,0,1438806229289,1438806229955,912,438,0,0,0,3,4,1,34,0003-00-0000-31.png,0004-00-0001-18.png
00000014,817,1,1438806232072,1438806232573,356,375,0,0,0,2,3,1,23,0002-00-0000-63.png,0003-00-0000-19.png
00000014,818,0,1438806233515,1438806233583,520,483,0,0,0,5,4,1,54,0005-00-0000-93.png,0004-00-0000-87.png
00000014,819,0,1438806235571,1438806236154,916,433,0,0,0,1,2,1,12,0001-00-0001-28.png,0002-00-0001-62.png
00000014,820,0,1438806238082,1438806238102,493,422,0,0,0,2,1,1,21,0002-00-0000-52.png,0001-00-0001-14.png
00000014,821,0,1438806240151,1438806240180,522,402,0,0,0,4,3,1,43,0004-00-0000-31.png,0003-00-0001-15.png
00000014,822,0,1438806250475,1438806250998,913,377,0,0,0,3,4,1,34,0003-00-0001-89.png,0004-00-0000-55.png
00000014,823,1,1438806253023,1438806253480,414,410,0,0,0,4,5,1,45,0004-00-0000-48.png,0005-00-0001-44.png
00000014,824,1,1438806254438,1438806254954,931,443,0,0,0,3,2,1,32,0003-00-0000-97.png,0002-00-0000-43.png
00000014,825,0,1438806255987,1438806257186,880,273,0,0,0,1,2,1,12,0001-00-0001-87.png,0002-00-0001-31.png
00000014,826,0,1438806259365,1438806259852,376,371,0,0,0,5,4,1,54,0005-00-0001-56.png,0004-00-0000-22.png
00000014,827,1,1438806267393,1438806267941,317,322,0,0,0,2,3,1,23,0002-00-0001-50.png,0003-00-0001-18.png
00000014,828,0,1438806268939,1438806268951,487,418,0,0,0,3,2,1,32,0003-00-0000-05.png,0002-00-0000-54.png
00000014,829,0,1438806270855,1438806271299,338,344,0,0,0,2,1,1,21,0002-00-0001-17.png,0001-00-0000-10.png
00000014,830,1,1438806273378,1438806273895,321,369,0,0,0,4,5,1,45,0004-00-0000-12.png,0005-00-0001-76.png
00000014,831,1,1438806274822,1438806275374,350,376,0,0,0,3,4,1,34,0003-00-0000-35.png,0004-00-0001-44.png
00000014,832,0,1438806276331,1438806276347,504,400,0,0,0,4,3,1,43,0004-00-0001-95.png,0003-00-0000-10.png
00000014,833,0,1438806278466,1438806278947,323,376,0,0,0,4,3,1,43,0004-00-0001-10.png,0003-00-0000-10.png
00000014,834,1,1438806280844,1438806281301,314,387,0,0,0,1,2,1,12,0001-00-0000-38.png,0002-00-0001-03.png
00000014,835,0,1438806282205,1438806282826,883,461,0,0,0,3,4,1,34,0003-00-0001-34.png,0004-00-0001-37.png
00000014,836,0,1438806284818,1438806285322,354,366,0,0,0,3,2,1,32,0003-00-0001-57.png,0002-00-0001-36.png
00000014,837,1,1438806287282,1438806287769,387,464,0,0,0,2,3,1,23,0002-00-0001-15.png,0003-00-0000-90.png
00000014,838,1,1438806289497,1438806289517,520,429,0,0,0,4,5,1,45,0004-00-0000-98.png,0005-00-0000-41.png
00000014,839,0,1438806290602,1438806291124,355,404,0,0,0,5,4,1,54,0005-00-0000-26.png,0004-00-0000-83.png
00000014,840,0,1438806293224,1438806293252,489,452,0,0,0,2,1,1,21,0002-00-0000-06.png,0001-00-0000-44.png
00000014,841,1,1438806296211,1438806296673,927,357,0,0,0,2,1,1,21,0002-00-0001-33.png,0001-00-0001-91.png
00000014,842,1,1438806297638,1438806298196,919,456,0,0,0,5,4,1,54,0005-00-0001-41.png,0004-00-0000-59.png
00000014,843,1,1438806299169,1438806299185,523,443,0,0,0,3,4,1,34,0003-00-0000-71.png,0004-00-0001-09.png
00000014,844,0,1438806300182,1438806300737,944,378,0,0,0,1,2,1,12,0001-00-0001-18.png,0002-00-0001-84.png
00000014,845,0,1438806302893,1438806302917,519,423,0,0,0,3,2,1,32,0003-00-0000-21.png,0002-00-0001-99.png
00000014,846,1,1438806305141,1438806305721,340,482,0,0,0,4,5,1,45,0004-00-0000-59.png,0005-00-0001-11.png
00000014,847,0,1438806306978,1438806306990,504,446,0,0,0,4,3,1,43,0004-00-0000-80.png,0003-00-0000-57.png
00000014,848,1,1438806308896,1438806309462,332,341,0,0,0,2,3,1,23,0002-00-0000-15.png,0003-00-0001-39.png
00000014,849,0,1438806310386,1438806310406,490,435,0,0,0,4,3,1,43,0004-00-0000-44.png,0003-00-0000-99.png
00000014,850,0,1438806312501,1438806312553,496,428,0,0,0,3,2,1,32,0003-00-0001-78.png,0002-00-0001-72.png
00000014,851,1,1438806324198,1438806324703,377,360,0,0,0,1,2,1,12,0001-00-0001-65.png,0002-00-0000-47.png
00000014,852,1,1438806325627,1438806325639,485,439,0,0,0,3,4,1,34,0003-00-0000-73.png,0004-00-0000-94.png
00000014,853,0,1438806326680,1438806327250,399,468,0,0,0,2,1,1,21,0002-00-0001-23.png,0001-00-0000-50.png
00000014,854,0,1438806329083,1438806329545,344,386,0,0,0,5,4,1,54,0005-00-0001-41.png,0004-00-0001-95.png
00000014,855,1,1438806331486,1438806331933,362,449,0,0,0,4,5,1,45,0004-00-0001-49.png,0005-00-0000-63.png
00000014,856,1,1438806332830,1438806332846,490,412,0,0,0,2,3,1,23,0002-00-0001-35.png,0003-00-0000-68.png
00000014,857,1,1438806333777,1438806334309,340,396,0,0,0,3,4,1,34,0003-00-0000-05.png,0004-00-0000-01.png
00000014,858,1,1438806335248,1438806336110,894,379,0,0,0,2,1,1,21,0002-00-0001-16.png,0001-00-0001-86.png
00000014,859,1,1438806337026,1438806337046,460,443,0,0,0,1,2,1,12,0001-00-0000-01.png,0002-00-0001-61.png
00000014,860,1,1438806337975,1438806338453,322,389,0,0,0,4,5,1,45,0004-00-0001-79.png,0005-00-0000-59.png
00000014,861,0,1438806339360,1438806339382,504,436,0,0,0,3,2,1,32,0003-00-0001-52.png,0002-00-0001-06.png
00000014,862,0,1438806341308,1438806341772,325,345,0,0,0,5,4,1,54,0005-00-0001-42.png,0004-00-0001-98.png
00000014,863,0,1438806347356,1438806347364,523,536,0,0,0,4,3,1,43,0004-00-0000-53.png,0003-00-0000-19.png
00000014,864,1,1438806349673,1438806350142,342,376,0,0,0,2,3,1,23,0002-00-0001-32.png,0003-00-0000-39.png
00000014,865,1,1438806351056,1438806351585,425,470,0,0,0,1,2,1,12,0001-00-0000-12.png,0002-00-0001-30.png
00000014,866,1,1438806352497,1438806352986,360,373,0,0,0,2,3,1,23,0002-00-0001-28.png,0003-00-0000-36.png
00000014,867,0,1438806353978,1438806354552,412,455,0,0,0,3,2,1,32,0003-00-0001-61.png,0002-00-0001-12.png
00000014,868,0,1438806356671,1438806356715,502,502,0,0,0,2,1,1,21,0002-00-0000-09.png,0001-00-0000-02.png
00000014,869,0,1438806358832,1438806359268,332,369,0,0,0,5,4,1,54,0005-00-0000-21.png,0004-00-0001-04.png
00000014,870,1,1438806361403,1438806361868,310,371,0,0,0,3,4,1,34,0003-00-0000-07.png,0004-00-0000-61.png
00000014,871,1,1438806363239,1438806363267,516,462,0,0,0,4,5,1,45,0004-00-0000-56.png,0005-00-0000-77.png
00000014,872,1,1438806364212,1438806364855,934,364,0,0,0,4,3,1,43,0004-00-0001-96.png,0003-00-0001-18.png
00000014,873,1,1438806365781,1438806366263,380,392,0,0,0,2,3,1,23,0002-00-0001-94.png,0003-00-0001-97.png
00000014,874,0,1438806367161,1438806367169,490,435,0,0,0,4,3,1,43,0004-00-0001-42.png,0003-00-0000-52.png
00000014,875,0,1438806374270,1438806374748,897,459,0,0,0,4,5,1,45,0004-00-0000-69.png,0005-00-0001-51.png
00000014,876,1,1438806376815,1438806377439,299,348,0,0,0,1,2,1,12,0001-00-0000-61.png,0002-00-0001-88.png
00000014,877,0,1438806379201,1438806379716,387,466,0,0,0,3,2,1,32,0003-00-0001-11.png,0002-00-0000-36.png
00000014,878,0,1438806381550,1438806382012,222,449,0,0,0,5,4,1,54,0005-00-0000-86.png,0004-00-0000-53.png
00000014,879,0,1438806383920,1438806383940,485,445,0,0,0,2,1,1,21,0002-00-0001-44.png,0001-00-0001-63.png
00000014,880,0,1438806385975,1438806386403,893,443,0,0,0,3,4,1,34,0003-00-0000-21.png,0004-00-0000-14.png
00000014,881,1,1438806388451,1438806388946,375,461,0,0,0,4,5,1,45,0004-00-0000-44.png,0005-00-0001-66.png
00000014,882,0,1438806389923,1438806390567,898,439,0,0,0,3,4,1,34,0003-00-0000-59.png,0004-00-0000-03.png
00000014,883,0,1438806392414,1438806392438,510,380,0,0,0,3,2,1,32,0003-00-0001-52.png,0002-00-0001-81.png
00000014,884,1,1438806394321,1438806394770,312,355,0,0,0,1,2,1,12,0001-00-0001-09.png,0002-00-0001-58.png
00000014,885,1,1438806395688,1438806396167,337,359,0,0,0,2,3,1,23,0002-00-0001-28.png,0003-00-0000-67.png
00000014,886,0,1438806397642,1438806398101,315,388,0,0,0,4,3,1,43,0004-00-0000-14.png,0003-00-0001-41.png
00000014,887,0,1438806400972,1438806401415,321,372,0,0,0,5,4,1,54,0005-00-0000-53.png,0004-00-0000-56.png
00000014,888,0,1438806403593,1438806404119,324,352,0,0,0,2,1,1,21,0002-00-0000-94.png,0001-00-0001-38.png
00000014,889,1,1438806406276,1438806406747,324,372,0,0,0,2,3,1,23,0002-00-0001-69.png,0003-00-0000-70.png
00000014,890,1,1438806408148,1438806408188,520,436,0,0,0,4,5,1,45,0004-00-0000-64.png,0005-00-0001-27.png
00000014,891,0,1438806409271,1438806409948,898,431,0,0,0,3,4,1,34,0003-00-0001-43.png,0004-00-0001-44.png
00000014,892,1,1438806411827,1438806412351,917,346,0,0,0,4,3,1,43,0004-00-0000-91.png,0003-00-0000-85.png
00000014,893,1,1438806413306,1438806413872,912,450,0,0,0,5,4,1,54,0005-00-0001-44.png,0004-00-0000-16.png
00000014,894,1,1438806414763,1438806415330,926,461,0,0,0,2,1,1,21,0002-00-0001-11.png,0001-00-0000-48.png
00000014,895,0,1438806416303,1438806416315,523,443,0,0,0,3,2,1,32,0003-00-0001-74.png,0002-00-0001-78.png
00000014,896,0,1438806418362,1438806419076,926,398,0,0,0,1,2,1,12,0001-00-0001-17.png,0002-00-0001-64.png
00000014,897,0,1438806421375,1438806421907,893,382,0,0,0,2,3,1,23,0002-00-0000-87.png,0003-00-0001-77.png
00000014,898,1,1438806423857,1438806424336,324,397,0,0,0,3,4,1,34,0003-00-0001-91.png,0004-00-0001-43.png
00000014,899,0,1438806425229,1438806425777,342,380,0,0,0,2,1,1,21,0002-00-0001-17.png,0001-00-0000-57.png
00000014,900,1,1438806427753,1438806428187,340,364,0,0,0,4,5,1,45,0004-00-0000-23.png,0005-00-0000-65.png
00000014,901,0,1438806429086,1438806429116,515,448,0,0,0,4,3,1,43,0004-00-0001-66.png,0003-00-0001-18.png
00000014,902,1,1438806431004,1438806431472,912,455,0,0,0,3,2,1,32,0003-00-0000-52.png,0002-00-0001-58.png
00000014,903,0,1438806432406,1438806432422,504,425,0,0,0,5,4,1,54,0005-00-0001-76.png,0004-00-0001-62.png
00000014,904,1,1438806434434,1438806434927,345,395,0,0,0,1,2,1,12,0001-00-0001-90.png,0002-00-0001-01.png
00000014,905,1,1438806435905,1438806436438,873,458,0,0,0,3,2,1,32,0003-00-0001-47.png,0002-00-0001-84.png
00000014,906,0,1438806437395,1438806437889,353,381,0,0,0,4,3,1,43,0004-00-0000-35.png,0003-00-0000-41.png
00000014,907,0,1438806440169,1438806440650,927,358,0,0,0,1,2,1,12,0001-00-0000-02.png,0002-00-0001-79.png
00000014,908,1,1438806443148,1438806443564,315,365,0,0,0,3,4,1,34,0003-00-0000-77.png,0004-00-0001-23.png
00000014,909,1,1438806444490,1438806445102,901,434,0,0,0,5,4,1,54,0005-00-0000-24.png,0004-00-0000-16.png
00000014,910,0,1438806446011,1438806446585,393,464,0,0,0,2,1,1,21,0002-00-0000-91.png,0001-00-0001-13.png
00000014,911,1,1438806448425,1438806448870,326,330,0,0,0,2,3,1,23,0002-00-0000-19.png,0003-00-0000-70.png
00000014,912,0,1438806449804,1438806450357,896,446,0,0,0,4,5,1,45,0004-00-0000-60.png,0005-00-0000-83.png
00000014,913,1,1438806452487,1438806452916,364,367,0,0,0,3,4,1,34,0003-00-0001-93.png,0004-00-0001-68.png
00000014,914,0,1438806453852,1438806454424,337,382,0,0,0,4,3,1,43,0004-00-0001-62.png,0003-00-0001-01.png
00000014,915,1,1438806456423,1438806456439,504,410,0,0,0,4,5,1,45,0004-00-0001-78.png,0005-00-0000-68.png
00000014,916,1,1438806457396,1438806457971,255,471,0,0,0,2,3,1,23,0002-00-0000-61.png,0003-00-0001-33.png
00000014,917,0,1438806458930,1438806459631,326,369,0,0,0,3,2,1,32,0003-00-0000-71.png,0002-00-0001-02.png
00000014,918,0,1438806461728,1438806462169,336,406,0,0,0,5,4,1,54,0005-00-0001-48.png,0004-00-0001-88.png
00000014,919,1,1438806464294,1438806464741,355,386,0,0,0,1,2,1,12,0001-00-0001-33.png,0002-00-0001-56.png
00000014,920,1,1438806465836,1438806466373,902,414,0,0,0,2,1,1,21,0002-00-0001-09.png,0001-00-0000-29.png
00000014,921,1,1438806467346,1438806467421,490,513,0,0,0,3,4,1,34,0003-00-0001-05.png,0004-00-0001-73.png
00000014,922,0,1438806468639,1438806468730,515,558,0,0,0,2,1,1,21,0002-00-0000-35.png,0001-00-0001-92.png
00000014,923,1,1438806470746,1438806471190,299,397,0,0,0,2,3,1,23,0002-00-0000-90.png,0003-00-0000-28.png
00000014,924,1,1438806472156,1438806472726,862,332,0,0,0,5,4,1,54,0005-00-0001-15.png,0004-00-0001-62.png
00000014,925,0,1438806473718,1438806473734,502,418,0,0,0,3,2,1,32,0003-00-0000-84.png,0002-00-0001-57.png
00000014,926,0,1438806475684,1438806476143,349,348,0,0,0,4,3,1,43,0004-00-0001-47.png,0003-00-0001-52.png
00000014,927,1,1438806478386,1438806478406,510,419,0,0,0,1,2,1,12,0001-00-0001-64.png,0002-00-0000-27.png
00000014,928,1,1438806479343,1438806479347,497,418,0,0,0,4,5,1,45,0004-00-0000-95.png,0005-00-0001-14.png
00000014,929,1,1438806480822,1438806481308,356,389,0,0,0,1,2,1,12,0001-00-0000-36.png,0002-00-0001-80.png
00000014,930,1,1438806482255,1438806482793,900,396,0,0,0,5,4,1,54,0005-00-0000-22.png,0004-00-0001-92.png
00000014,931,0,1438806483734,1438806483750,522,417,0,0,0,3,2,1,32,0003-00-0001-00.png,0002-00-0000-03.png
00000014,932,1,1438806485898,1438806486353,344,387,0,0,0,4,5,1,45,0004-00-0001-33.png,0005-00-0000-17.png
00000014,933,1,1438806487291,1438806487821,401,384,0,0,0,3,4,1,34,0003-00-0000-88.png,0004-00-0000-59.png
00000014,934,0,1438806488823,1438806489344,368,381,0,0,0,4,3,1,43,0004-00-0001-20.png,0003-00-0000-18.png
00000014,935,1,1438806491788,1438806492365,322,376,0,0,0,2,3,1,23,0002-00-0001-42.png,0003-00-0000-89.png
00000014,936,0,1438806493813,1438806494298,355,370,0,0,0,2,1,1,21,0002-00-0000-93.png,0001-00-0001-67.png
00000014,937,0,1438806496214,1438806496238,523,480,0,0,0,3,2,1,32,0003-00-0000-93.png,0002-00-0000-96.png
00000014,938,0,1438806498268,1438806498320,521,436,0,0,0,5,4,1,54,0005-00-0000-01.png,0004-00-0001-88.png
00000014,939,1,1438806500420,1438806500970,906,453,0,0,0,2,1,1,21,0002-00-0000-42.png,0001-00-0000-69.png
00000014,940,0,1438806501908,1438806502527,898,458,0,0,0,2,3,1,23,0002-00-0000-05.png,0003-00-0000-89.png
00000014,941,1,1438806504609,1438806505102,347,391,0,0,0,4,5,1,45,0004-00-0000-42.png,0005-00-0001-60.png
00000014,942,1,1438806506031,1438806506099,518,488,0,0,0,1,2,1,12,0001-00-0000-91.png,0002-00-0000-75.png
