subject_id,trial,correct_response,stim_time,response_time,x_coord,y_coord,trial_timeout,timeout_time,interTrial_timeout,left_rank,right_rank,distance,joint_rank,left_image,right_image
00000014,1,0,1438097811892,1438097824884,1040,412,0,0,0,4,5,1,45,0004-00-0000-83.png,0005-00-0000-81.png
00000014,2,1,1438097826252,1438097826787,304,350,0,0,0,3,4,1,34,0003-00-0000-54.png,0004-00-0000-25.png
00000014,3,1,1438097828761,1438097829259,322,361,0,0,0,1,2,1,12,0001-00-0000-53.png,0002-00-0001-69.png
00000014,4,0,1438097830812,1438097831266,351,413,0,0,0,4,3,1,43,0004-00-0000-20.png,0003-00-0001-35.png
00000014,5,0,1438097832719,1438097833208,319,411,0,0,0,2,1,1,21,0002-00-0001-14.png,0001-00-0000-92.png
00000014,6,0,1438097834081,1438097834733,328,427,0,0,0,3,2,1,32,0003-00-0001-20.png,0002-00-0000-61.png
00000014,7,1,1438097836031,1438097836876,304,379,0,0,0,2,3,1,23,0002-00-0000-80.png,0003-00-0000-98.png
00000014,8,0,1438097837909,1438097838423,329,460,0,0,0,5,4,1,54,0005-00-0000-51.png,0004-00-0001-54.png
00000014,9,0,1438097839339,1438097840042,293,444,0,0,0,5,4,1,54,0005-00-0000-59.png,0004-00-0001-58.png
00000014,10,0,1438097841713,1438097842338,309,398,0,0,0,3,2,1,32,0003-00-0000-31.png,0002-00-0000-51.png
00000014,11,0,1438097843394,1438097844172,900,371,0,0,0,2,3,1,23,0002-00-0001-66.png,0003-00-0000-35.png
00000014,12,0,1438097845274,1438097845995,296,398,0,0,0,4,3,1,43,0004-00-0000-66.png,0003-00-0000-85.png
00000014,13,0,1438097846958,1438097847620,324,401,0,0,0,2,1,1,21,0002-00-0001-52.png,0001-00-0001-70.png
00000014,14,1,1438097848700,1438097848791,489,427,0,0,0,4,5,1,45,0004-00-0001-85.png,0005-00-0000-42.png
00000014,15,1,1438097850002,1438097850467,360,449,0,0,0,1,2,1,12,0001-00-0000-48.png,0002-00-0001-23.png
00000014,16,0,1438097851376,1438097852060,955,350,0,0,0,3,4,1,34,0003-00-0000-89.png,0004-00-0000-37.png
00000014,17,1,1438097853166,1438097853766,350,398,0,0,0,4,5,1,45,0004-00-0000-88.png,0005-00-0000-89.png
00000014,18,1,1438097854983,1438097855499,299,393,0,0,0,1,2,1,12,0001-00-0000-54.png,0002-00-0000-46.png
00000014,19,0,1438097856964,1438097857548,261,397,0,0,0,5,4,1,54,0005-00-0000-65.png,0004-00-0000-38.png
00000014,20,0,1438097858540,1438097859348,946,464,0,0,0,2,3,1,23,0002-00-0001-69.png,0003-00-0001-76.png
00000014,21,0,1438097860419,1438097860491,439,358,0,0,0,3,2,1,32,0003-00-0001-98.png,0002-00-0000-81.png
00000014,22,0,1438097861562,1438097862214,345,426,0,0,0,2,1,1,21,0002-00-0000-87.png,0001-00-0000-73.png
00000014,23,0,1438097863293,1438097864036,358,521,0,0,0,4,3,1,43,0004-00-0001-29.png,0003-00-0000-97.png
00000014,24,1,1438097865249,1438097865908,304,435,0,0,0,3,4,1,34,0003-00-0000-35.png,0004-00-0001-87.png
00000014,25,0,1438097867295,1438097867780,325,409,0,0,0,3,2,1,32,0003-00-0000-01.png,0002-00-0001-35.png
00000014,26,1,1438097868631,1438097868978,500,415,0,0,0,2,3,1,23,0002-00-0001-58.png,0003-00-0000-43.png
00000014,27,1,1438097870429,1438097870983,318,397,0,0,0,4,5,1,45,0004-00-0001-41.png,0005-00-0001-10.png
00000014,28,0,1438097872270,1438097872782,325,400,0,0,0,4,3,1,43,0004-00-0000-21.png,0003-00-0000-76.png
00000014,29,0,1438097873734,1438097873810,490,427,0,0,0,2,1,1,21,0002-00-0000-83.png,0001-00-0000-86.png
00000014,30,0,1438097874800,1438097874883,504,426,0,0,0,5,4,1,54,0005-00-0000-29.png,0004-00-0000-37.png
00000014,31,1,1438097876232,1438097876826,318,409,0,0,0,3,4,1,34,0003-00-0001-17.png,0004-00-0001-43.png
00000014,32,1,1438097878034,1438097878616,248,453,0,0,0,1,2,1,12,0001-00-0001-34.png,0002-00-0000-56.png
00000014,33,0,1438097880178,1438097880677,326,389,0,0,0,4,3,1,43,0004-00-0001-52.png,0003-00-0001-48.png
00000014,34,0,1438097881702,1438097882435,952,396,0,0,0,2,3,1,23,0002-00-0001-29.png,0003-00-0001-11.png
00000014,35,0,1438097883885,1438097884001,460,377,0,0,0,3,2,1,32,0003-00-0001-77.png,0002-00-0001-34.png
00000014,36,0,1438097885153,1438097885880,365,414,0,0,0,5,4,1,54,0005-00-0000-38.png,0004-00-0000-10.png
00000014,37,0,1438097886839,1438097887463,342,427,0,0,0,2,1,1,21,0002-00-0001-46.png,0001-00-0000-78.png
00000014,38,1,1438097888318,1438097888751,489,436,0,0,0,1,2,1,12,0001-00-0001-11.png,0002-00-0000-95.png
00000014,39,1,1438097890078,1438097890170,504,477,0,0,0,3,4,1,34,0003-00-0001-85.png,0004-00-0001-42.png
00000014,40,1,1438097891619,1438097892381,335,414,0,0,0,4,5,1,45,0004-00-0001-60.png,0005-00-0001-97.png
00000014,41,0,1438097893629,1438097893680,504,462,0,0,0,5,4,1,54,0005-00-0001-18.png,0004-00-0000-74.png
00000014,42,0,1438097894580,1438097894664,467,436,0,0,0,4,3,1,43,0004-00-0000-73.png,0003-00-0001-99.png
00000014,43,0,1438097895613,1438097896250,967,408,0,0,0,2,3,1,23,0002-00-0001-24.png,0003-00-0001-55.png
00000014,44,1,1438097897146,1438097897814,294,384,0,0,0,3,4,1,34,0003-00-0000-17.png,0004-00-0001-12.png
00000014,45,1,1438097899033,1438097899914,869,317,0,0,0,2,1,1,21,0002-00-0000-42.png,0001-00-0000-26.png
00000014,46,0,1438097901201,1438097901859,951,344,0,0,0,4,5,1,45,0004-00-0000-22.png,0005-00-0001-61.png
00000014,47,0,1438097902769,1438097902885,496,427,0,0,0,3,2,1,32,0003-00-0000-28.png,0002-00-0001-53.png
00000014,48,1,1438097903928,1438097903991,474,442,0,0,0,1,2,1,12,0001-00-0000-56.png,0002-00-0001-00.png
00000014,49,0,1438097905431,1438097906082,945,410,0,0,0,2,3,1,23,0002-00-0001-78.png,0003-00-0000-58.png
00000014,50,0,1438097906914,1438097907026,478,410,0,0,0,4,3,1,43,0004-00-0001-21.png,0003-00-0001-25.png
00000014,51,0,1438097908073,1438097908156,457,400,0,0,0,3,2,1,32,0003-00-0001-65.png,0002-00-0001-99.png
00000014,52,1,1438097909481,1438097909537,501,415,0,0,0,4,5,1,45,0004-00-0000-39.png,0005-00-0000-35.png
00000014,53,0,1438097911001,1438097911044,509,471,0,0,0,5,4,1,54,0005-00-0001-70.png,0004-00-0000-30.png
00000014,54,0,1438097912024,1438097912116,496,429,0,0,0,2,1,1,21,0002-00-0000-62.png,0001-00-0001-07.png
00000014,55,1,1438097913523,1438097913628,519,436,0,0,0,1,2,1,12,0001-00-0001-96.png,0002-00-0000-03.png
00000014,56,0,1438097914997,1438097915659,951,409,0,0,0,3,4,1,34,0003-00-0000-11.png,0004-00-0000-78.png
00000014,57,0,1438097920870,1438097920926,501,408,0,0,0,2,1,1,21,0002-00-0001-52.png,0001-00-0001-06.png
00000014,58,1,1438097921854,1438097922968,981,427,0,0,0,3,2,1,32,0003-00-0000-48.png,0002-00-0000-98.png
00000014,59,0,1438097924254,1438097925010,952,462,0,0,0,1,2,1,12,0001-00-0001-28.png,0002-00-0001-75.png
00000014,60,1,1438097927642,1438097928299,325,436,0,0,0,2,3,1,23,0002-00-0001-97.png,0003-00-0001-50.png
00000014,61,0,1438097930088,1438097930898,217,480,0,0,0,4,3,1,43,0004-00-0001-91.png,0003-00-0001-23.png
00000014,62,0,1438097931848,1438097931948,494,389,0,0,0,5,4,1,54,0005-00-0001-95.png,0004-00-0001-02.png
00000014,63,1,1438097932938,1438097933010,475,310,0,0,0,3,4,1,34,0003-00-0001-68.png,0004-00-0000-90.png
00000014,64,1,1438097934086,1438097934786,301,384,0,0,0,4,5,1,45,0004-00-0000-10.png,0005-00-0000-96.png
00000014,65,0,1438097935909,1438097935968,500,409,0,0,0,2,1,1,21,0002-00-0001-97.png,0001-00-0000-45.png
00000014,66,0,1438097936922,1438097937644,273,373,0,0,0,5,4,1,54,0005-00-0001-38.png,0004-00-0001-85.png
00000014,67,1,1438097938494,1438097939216,301,377,0,0,0,2,3,1,23,0002-00-0000-22.png,0003-00-0001-48.png
00000014,68,1,1438097940282,1438097940987,273,397,0,0,0,4,5,1,45,0004-00-0000-27.png,0005-00-0001-13.png
00000014,69,0,1438097942289,1438097942370,504,451,0,0,0,3,2,1,32,0003-00-0000-87.png,0002-00-0000-23.png
00000014,70,0,1438097943396,1438097943985,337,495,0,0,0,4,3,1,43,0004-00-0001-74.png,0003-00-0001-04.png
00000014,71,1,1438097944993,1438097945109,495,475,0,0,0,3,4,1,34,0003-00-0001-45.png,0004-00-0000-79.png
00000014,72,1,1438097946748,1438097946840,453,436,0,0,0,1,2,1,12,0001-00-0001-22.png,0002-00-0001-60.png
00000014,73,0,1438097948361,1438097949076,891,457,0,0,0,4,5,1,45,0004-00-0000-61.png,0005-00-0001-44.png
00000014,74,0,1438097950070,1438097950134,453,427,0,0,0,2,1,1,21,0002-00-0001-68.png,0001-00-0000-58.png
00000014,75,1,1438097951003,1438097951072,522,402,0,0,0,3,4,1,34,0003-00-0001-76.png,0004-00-0001-07.png
00000014,76,0,1438097952324,1438097952423,523,426,0,0,0,5,4,1,54,0005-00-0000-74.png,0004-00-0000-95.png
00000014,77,1,1438097953400,1438097954094,325,371,0,0,0,2,3,1,23,0002-00-0001-87.png,0003-00-0001-64.png
00000014,78,0,1438097955338,1438097955432,514,432,0,0,0,4,3,1,43,0004-00-0000-17.png,0003-00-0000-52.png
00000014,79,0,1438097956283,1438097956621,504,478,0,0,0,3,2,1,32,0003-00-0000-64.png,0002-00-0000-96.png
00000014,80,0,1438097957559,1438097958376,925,488,0,0,0,1,2,1,12,0001-00-0001-89.png,0002-00-0000-84.png
00000014,81,1,1438097961777,1438097962492,292,426,0,0,0,3,4,1,34,0003-00-0001-93.png,0004-00-0001-24.png
00000014,82,0,1438097963662,1438097963756,504,410,0,0,0,4,3,1,43,0004-00-0000-44.png,0003-00-0000-06.png
00000014,83,0,1438097964598,1438097965256,927,357,0,0,0,4,5,1,45,0004-00-0001-36.png,0005-00-0001-43.png
00000014,84,1,1438097966266,1438097967414,949,497,0,0,0,2,1,1,21,0002-00-0000-75.png,0001-00-0001-36.png
00000014,85,1,1438097968659,1438097969448,919,343,0,0,0,3,2,1,32,0003-00-0000-63.png,0002-00-0001-18.png
00000014,86,1,1438097970712,1438097971457,317,374,0,0,0,2,3,1,23,0002-00-0001-57.png,0003-00-0000-60.png
00000014,87,1,1438097972585,1438097972657,453,423,0,0,0,1,2,1,12,0001-00-0001-93.png,0002-00-0000-23.png
00000014,88,0,1438097973964,1438097974036,504,436,0,0,0,5,4,1,54,0005-00-0001-89.png,0004-00-0001-95.png
00000014,89,1,1438097975166,1438097975247,468,384,0,0,0,2,3,1,23,0002-00-0000-74.png,0003-00-0000-87.png
00000014,90,1,1438097976657,1438097976706,506,414,0,0,0,4,5,1,45,0004-00-0000-68.png,0005-00-0001-49.png
00000014,91,1,1438097977999,1438097978656,338,417,0,0,0,1,2,1,12,0001-00-0000-49.png,0002-00-0000-97.png
00000014,92,0,1438097985520,1438097986075,280,375,0,0,0,4,3,1,43,0004-00-0001-91.png,0003-00-0001-48.png
00000014,93,1,1438097986993,1438097987750,314,382,0,0,0,3,4,1,34,0003-00-0001-83.png,0004-00-0000-65.png
00000014,94,0,1438097988914,1438097988990,511,427,0,0,0,3,2,1,32,0003-00-0000-38.png,0002-00-0001-81.png
00000014,95,0,1438097989960,1438097990559,331,374,0,0,0,2,1,1,21,0002-00-0001-48.png,0001-00-0000-50.png
00000014,96,0,1438097991913,1438097991980,481,423,0,0,0,5,4,1,54,0005-00-0000-70.png,0004-00-0001-02.png
00000014,97,0,1438097992886,1438097993610,222,421,0,0,0,3,2,1,32,0003-00-0000-90.png,0002-00-0000-13.png
00000014,98,1,1438097994498,1438097994578,488,441,0,0,0,4,5,1,45,0004-00-0000-63.png,0005-00-0001-85.png
00000014,99,1,1438097996061,1438097996677,358,368,0,0,0,3,4,1,34,0003-00-0001-56.png,0004-00-0000-59.png
00000014,100,0,1438097997866,1438097998589,299,384,0,0,0,2,1,1,21,0002-00-0000-87.png,0001-00-0000-94.png
00000014,101,0,1438098002373,1438098002468,478,436,0,0,0,4,3,1,43,0004-00-0001-20.png,0003-00-0000-03.png
00000014,102,0,1438098003492,1438098003560,515,411,0,0,0,5,4,1,54,0005-00-0001-30.png,0004-00-0001-49.png
00000014,103,1,1438098004514,1438098004582,511,445,0,0,0,1,2,1,12,0001-00-0000-85.png,0002-00-0000-61.png
00000014,104,1,1438098005799,1438098006485,316,391,0,0,0,2,3,1,23,0002-00-0001-59.png,0003-00-0001-39.png
00000014,105,1,1438098007629,1438098007721,497,403,0,0,0,4,5,1,45,0004-00-0001-68.png,0005-00-0001-15.png
00000014,106,0,1438098009039,1438098009123,491,436,0,0,0,2,1,1,21,0002-00-0000-71.png,0001-00-0001-18.png
00000014,107,1,1438098010012,1438098010328,478,400,0,0,0,3,4,1,34,0003-00-0001-01.png,0004-00-0000-69.png
00000014,108,1,1438098011445,1438098011533,504,454,0,0,0,2,3,1,23,0002-00-0001-89.png,0003-00-0001-98.png
00000014,109,0,1438098012796,1438098012896,478,462,0,0,0,4,3,1,43,0004-00-0000-58.png,0003-00-0001-19.png
00000014,110,0,1438098013848,1438098014011,478,426,0,0,0,3,2,1,32,0003-00-0000-00.png,0002-00-0001-55.png
00000014,111,1,1438098014861,1438098014917,504,410,0,0,0,1,2,1,12,0001-00-0001-95.png,0002-00-0001-01.png
00000014,112,0,1438098016161,1438098016214,493,470,0,0,0,5,4,1,54,0005-00-0000-01.png,0004-00-0001-24.png
00000014,113,0,1438098017237,1438098017262,453,422,0,0,0,3,2,1,32,0003-00-0000-36.png,0002-00-0000-08.png
00000014,114,0,1438098018170,1438098018906,947,382,0,0,0,1,2,1,12,0001-00-0001-03.png,0002-00-0001-88.png
00000014,115,1,1438098019770,1438098019802,493,398,0,0,0,4,5,1,45,0004-00-0001-94.png,0005-00-0000-70.png
00000014,116,0,1438098020905,1438098020980,511,444,0,0,0,4,3,1,43,0004-00-0000-83.png,0003-00-0000-36.png
00000014,117,0,1438098021898,1438098022799,977,345,0,0,0,2,3,1,23,0002-00-0000-47.png,0003-00-0000-64.png
00000014,118,0,1438098024005,1438098024782,236,510,0,0,0,5,4,1,54,0005-00-0001-46.png,0004-00-0001-84.png
00000014,119,1,1438098025707,1438098026551,395,485,0,0,0,3,4,1,34,0003-00-0000-34.png,0004-00-0001-13.png
00000014,120,0,1438098027903,1438098028495,293,400,0,0,0,2,1,1,21,0002-00-0000-83.png,0001-00-0000-43.png
00000014,121,1,1438098029392,1438098029412,487,398,0,0,0,1,2,1,12,0001-00-0000-31.png,0002-00-0001-98.png
00000014,122,1,1438098030534,1438098031195,296,414,0,0,0,4,5,1,45,0004-00-0000-18.png,0005-00-0001-05.png
00000014,123,0,1438098032266,1438098032342,501,411,0,0,0,4,3,1,43,0004-00-0001-53.png,0003-00-0001-38.png
00000014,124,1,1438098033248,1438098033280,519,414,0,0,0,2,3,1,23,0002-00-0001-18.png,0003-00-0000-81.png
00000014,125,0,1438098034391,1438098034495,520,436,0,0,0,5,4,1,54,0005-00-0000-10.png,0004-00-0000-35.png
00000014,126,0,1438098035643,1438098035739,471,400,0,0,0,3,2,1,32,0003-00-0001-14.png,0002-00-0001-60.png
00000014,127,1,1438098037054,1438098037106,439,397,0,0,0,3,4,1,34,0003-00-0001-32.png,0004-00-0000-69.png
00000014,128,0,1438098038161,1438098038979,266,362,0,0,0,2,1,1,21,0002-00-0000-36.png,0001-00-0001-68.png
00000014,129,0,1438098039897,1438098039957,462,443,0,0,0,5,4,1,54,0005-00-0000-78.png,0004-00-0000-95.png
00000014,130,1,1438098041052,1438098041123,516,390,0,0,0,4,5,1,45,0004-00-0000-40.png,0005-00-0001-32.png
00000014,131,0,1438098042245,1438098043118,958,450,0,0,0,2,3,1,23,0002-00-0001-83.png,0003-00-0000-09.png
00000014,132,1,1438098044023,1438098044043,511,418,0,0,0,1,2,1,12,0001-00-0000-10.png,0002-00-0001-36.png
00000014,133,0,1438098045086,1438098045875,354,458,0,0,0,4,3,1,43,0004-00-0000-14.png,0003-00-0001-77.png
00000014,134,1,1438098047056,1438098047084,453,398,0,0,0,3,4,1,34,0003-00-0001-44.png,0004-00-0000-65.png
00000014,135,0,1438098048108,1438098048702,325,370,0,0,0,2,1,1,21,0002-00-0000-25.png,0001-00-0000-07.png
00000014,136,0,1438098049598,1438098049670,439,420,0,0,0,3,2,1,32,0003-00-0001-33.png,0002-00-0001-13.png
00000014,137,1,1438098050523,1438098051263,279,430,0,0,0,4,5,1,45,0004-00-0000-59.png,0005-00-0000-75.png
00000014,138,1,1438098052263,1438098052323,518,396,0,0,0,3,4,1,34,0003-00-0001-80.png,0004-00-0001-45.png
00000014,139,0,1438098053582,1438098054334,387,502,0,0,0,3,2,1,32,0003-00-0001-07.png,0002-00-0000-61.png
00000014,140,0,1438098055340,1438098055396,478,469,0,0,0,5,4,1,54,0005-00-0001-41.png,0004-00-0000-89.png
00000014,141,1,1438098056441,1438098056497,471,364,0,0,0,2,3,1,23,0002-00-0001-16.png,0003-00-0000-38.png
00000014,142,0,1438098057952,1438098058019,497,484,0,0,0,2,1,1,21,0002-00-0000-46.png,0001-00-0000-83.png
00000014,143,0,1438098059029,1438098059109,508,442,0,0,0,4,3,1,43,0004-00-0000-71.png,0003-00-0000-47.png
00000014,144,1,1438098060166,1438098060868,339,490,0,0,0,1,2,1,12,0001-00-0001-27.png,0002-00-0001-00.png
00000014,145,0,1438098061862,1438098062656,342,474,0,0,0,2,1,1,21,0002-00-0000-58.png,0001-00-0001-34.png
00000014,146,1,1438098064028,1438098064076,478,415,0,0,0,1,2,1,12,0001-00-0000-57.png,0002-00-0001-65.png
00000014,147,0,1438098065133,1438098065982,977,360,0,0,0,2,3,1,23,0002-00-0001-67.png,0003-00-0001-32.png
00000014,148,1,1438098066930,1438098067002,504,396,0,0,0,4,5,1,45,0004-00-0000-35.png,0005-00-0000-37.png
00000014,149,1,1438098068054,1438098068747,944,358,0,0,0,5,4,1,54,0005-00-0000-50.png,0004-00-0000-40.png
00000014,150,0,1438098069876,1438098070588,938,345,0,0,0,3,4,1,34,0003-00-0000-68.png,0004-00-0000-57.png
00000014,151,0,1438098071511,1438098071563,502,426,0,0,0,4,3,1,43,0004-00-0001-84.png,0003-00-0000-64.png
00000014,152,0,1438098072535,1438098072559,513,366,0,0,0,3,2,1,32,0003-00-0001-11.png,0002-00-0001-50.png
00000014,153,0,1438098073405,1438098074065,350,466,0,0,0,5,4,1,54,0005-00-0000-06.png,0004-00-0000-52.png
00000014,154,1,1438098075228,1438098076083,902,440,0,0,0,4,3,1,43,0004-00-0001-32.png,0003-00-0000-04.png
00000014,155,1,1438098077150,1438098077252,509,472,0,0,0,1,2,1,12,0001-00-0000-21.png,0002-00-0000-91.png
00000014,156,0,1438098078263,1438098079116,954,390,0,0,0,3,4,1,34,0003-00-0000-76.png,0004-00-0001-90.png
00000014,157,0,1438098079978,1438098080030,523,401,0,0,0,2,1,1,21,0002-00-0000-26.png,0001-00-0000-63.png
00000014,158,0,1438098081003,1438098081839,972,368,0,0,0,4,5,1,45,0004-00-0000-59.png,0005-00-0001-56.png
00000014,159,1,1438098082881,1438098084033,989,491,0,0,0,3,2,1,32,0003-00-0000-31.png,0002-00-0000-66.png
00000014,160,1,1438098085058,1438098085094,523,391,0,0,0,2,3,1,23,0002-00-0000-97.png,0003-00-0000-83.png
00000014,161,0,1438098086179,1438098086819,355,384,0,0,0,5,4,1,54,0005-00-0000-67.png,0004-00-0000-31.png
00000014,162,0,1438098087769,1438098088668,938,449,0,0,0,1,2,1,12,0001-00-0000-23.png,0002-00-0001-54.png
00000014,163,0,1438098089687,1438098089787,486,387,0,0,0,2,1,1,21,0002-00-0001-38.png,0001-00-0001-22.png
00000014,164,0,1438098090799,1438098090887,504,428,0,0,0,4,3,1,43,0004-00-0000-68.png,0003-00-0001-05.png
00000014,165,0,1438098094807,1438098094881,477,422,0,0,0,3,2,1,32,0003-00-0001-64.png,0002-00-0001-69.png
00000014,166,1,1438098095927,1438098096023,521,455,0,0,0,4,5,1,45,0004-00-0001-79.png,0005-00-0000-56.png
00000014,167,0,1438098097053,1438098097845,928,309,0,0,0,2,3,1,23,0002-00-0001-15.png,0003-00-0000-09.png
00000014,168,1,1438098098781,1438098098829,513,373,0,0,0,3,4,1,34,0003-00-0001-49.png,0004-00-0000-05.png
00000014,169,1,1438098099872,1438098100692,939,382,0,0,0,5,4,1,54,0005-00-0000-65.png,0004-00-0000-86.png
00000014,170,1,1438098101764,1438098102442,931,350,0,0,0,3,2,1,32,0003-00-0000-92.png,0002-00-0001-47.png
00000014,171,1,1438098103426,1438098103525,520,410,0,0,0,1,2,1,12,0001-00-0000-73.png,0002-00-0000-12.png
00000014,172,1,1438098104766,1438098105427,930,349,0,0,0,4,3,1,43,0004-00-0000-11.png,0003-00-0001-76.png
00000014,173,1,1438098118177,1438098118235,478,423,0,0,0,3,4,1,34,0003-00-0001-99.png,0004-00-0000-22.png
00000014,174,0,1438098119261,1438098120061,273,422,0,0,0,2,1,1,21,0002-00-0001-73.png,0001-00-0001-85.png
00000014,175,1,1438098121191,1438098121271,506,491,0,0,0,4,5,1,45,0004-00-0001-23.png,0005-00-0000-06.png
00000014,176,1,1438098122479,1438098123162,277,401,0,0,0,2,3,1,23,0002-00-0001-02.png,0003-00-0001-34.png
00000014,177,1,1438098124268,1438098124867,245,384,0,0,0,3,4,1,34,0003-00-0000-30.png,0004-00-0000-88.png
00000014,178,0,1438098125927,1438098126700,939,475,0,0,0,1,2,1,12,0001-00-0001-69.png,0002-00-0000-25.png
00000014,179,1,1438098127597,1438098128315,283,367,0,0,0,2,3,1,23,0002-00-0001-61.png,0003-00-0001-84.png
00000014,180,0,1438098129299,1438098129330,489,390,0,0,0,5,4,1,54,0005-00-0000-53.png,0004-00-0001-65.png
00000014,181,0,1438098130263,1438098130307,504,384,0,0,0,3,2,1,32,0003-00-0001-65.png,0002-00-0001-26.png
00000014,182,0,1438098131307,1438098131450,436,340,0,0,0,4,3,1,43,0004-00-0000-23.png,0003-00-0000-82.png
00000014,183,0,1438098132847,1438098132895,494,402,0,0,0,2,1,1,21,0002-00-0000-27.png,0001-00-0001-56.png
00000014,184,1,1438098133871,1438098134588,363,515,0,0,0,4,5,1,45,0004-00-0001-81.png,0005-00-0001-60.png
00000014,185,1,1438098135599,1438098136256,372,478,0,0,0,2,3,1,23,0002-00-0000-13.png,0003-00-0001-90.png
00000014,186,0,1438098137641,1438098137697,494,410,0,0,0,3,2,1,32,0003-00-0000-13.png,0002-00-0001-04.png
00000014,187,0,1438098138741,1438098138842,479,408,0,0,0,5,4,1,54,0005-00-0001-17.png,0004-00-0001-57.png
00000014,188,1,1438098139854,1438098139914,478,395,0,0,0,3,4,1,34,0003-00-0000-24.png,0004-00-0000-78.png
00000014,189,0,1438098141115,1438098141176,523,404,0,0,0,4,3,1,43,0004-00-0000-58.png,0003-00-0000-17.png
00000014,190,1,1438098142028,1438098142117,504,450,0,0,0,1,2,1,12,0001-00-0001-40.png,0002-00-0001-35.png
00000014,191,0,1438098143227,1438098143277,518,421,0,0,0,2,1,1,21,0002-00-0001-56.png,0001-00-0000-32.png
00000014,192,1,1438098144297,1438098144381,472,375,0,0,0,4,5,1,45,0004-00-0001-96.png,0005-00-0000-12.png
00000014,193,1,1438098145502,1438098145585,502,463,0,0,0,3,4,1,34,0003-00-0001-15.png,0004-00-0001-08.png
00000014,194,0,1438098146774,1438098147483,325,371,0,0,0,3,2,1,32,0003-00-0001-06.png,0002-00-0000-30.png
00000014,195,1,1438098148353,1438098148401,504,423,0,0,0,1,2,1,12,0001-00-0000-32.png,0002-00-0001-02.png
00000014,196,1,1438098149489,1438098150117,263,389,0,0,0,4,5,1,45,0004-00-0001-08.png,0005-00-0001-04.png
00000014,197,0,1438098151197,1438098151322,499,531,0,0,0,4,3,1,43,0004-00-0000-29.png,0003-00-0001-08.png
00000014,198,0,1438098152300,1438098152368,467,394,0,0,0,5,4,1,54,0005-00-0001-79.png,0004-00-0000-95.png
00000014,199,1,1438098153847,1438098153927,493,378,0,0,0,2,3,1,23,0002-00-0001-83.png,0003-00-0000-59.png
00000014,200,0,1438098155131,1438098155203,518,412,0,0,0,2,1,1,21,0002-00-0001-89.png,0001-00-0001-22.png
00000014,201,1,1438098156134,1438098156186,518,442,0,0,0,1,2,1,12,0001-00-0001-91.png,0002-00-0000-15.png
00000014,202,0,1438098157291,1438098157411,507,504,0,0,0,4,3,1,43,0004-00-0000-94.png,0003-00-0000-07.png
00000014,203,1,1438098158249,1438098158836,281,354,0,0,0,3,4,1,34,0003-00-0001-64.png,0004-00-0001-36.png
00000014,204,0,1438098159988,1438098160756,248,383,0,0,0,3,2,1,32,0003-00-0000-71.png,0002-00-0000-30.png
00000014,205,1,1438098161780,1438098162092,478,410,0,0,0,4,5,1,45,0004-00-0000-10.png,0005-00-0001-54.png
00000014,206,0,1438098163243,1438098163895,366,494,0,0,0,2,1,1,21,0002-00-0000-33.png,0001-00-0001-87.png
00000014,207,0,1438098164770,1438098164862,464,414,0,0,0,5,4,1,54,0005-00-0000-80.png,0004-00-0000-56.png
00000014,208,1,1438098165843,1438098166441,335,468,0,0,0,2,3,1,23,0002-00-0001-40.png,0003-00-0001-23.png
00000014,209,1,1438098167475,1438098167570,504,414,0,0,0,4,5,1,45,0004-00-0000-85.png,0005-00-0000-23.png
00000014,210,0,1438098168969,1438098169121,478,502,0,0,0,5,4,1,54,0005-00-0001-53.png,0004-00-0001-59.png
00000014,211,1,1438098170683,1438098170791,486,365,0,0,0,3,4,1,34,0003-00-0001-63.png,0004-00-0000-03.png
00000014,212,1,1438098172128,1438098172901,936,438,0,0,0,2,1,1,21,0002-00-0001-22.png,0001-00-0000-13.png
00000014,213,1,1438098174147,1438098175000,390,517,0,0,0,1,2,1,12,0001-00-0000-96.png,0002-00-0001-54.png
00000014,214,1,1438098176084,1438098176890,968,335,0,0,0,3,2,1,32,0003-00-0000-40.png,0002-00-0000-22.png
00000014,215,1,1438098178179,1438098178879,286,360,0,0,0,2,3,1,23,0002-00-0000-19.png,0003-00-0001-19.png
00000014,216,0,1438098179910,1438098179998,494,457,0,0,0,4,3,1,43,0004-00-0001-44.png,0003-00-0001-89.png
00000014,217,1,1438098181031,1438098181722,334,388,0,0,0,4,5,1,45,0004-00-0001-33.png,0005-00-0001-48.png
00000014,218,0,1438098182840,1438098182931,478,400,0,0,0,3,2,1,32,0003-00-0000-78.png,0002-00-0001-01.png
00000014,219,1,1438098183941,1438098184016,478,437,0,0,0,3,4,1,34,0003-00-0000-43.png,0004-00-0001-59.png
00000014,220,1,1438098185119,1438098185960,950,431,0,0,0,4,3,1,43,0004-00-0000-93.png,0003-00-0000-90.png
00000014,221,0,1438098187053,1438098187859,882,419,0,0,0,1,2,1,12,0001-00-0001-70.png,0002-00-0000-86.png
00000014,222,0,1438098188730,1438098188802,442,403,0,0,0,2,1,1,21,0002-00-0001-50.png,0001-00-0000-37.png
00000014,223,1,1438098189667,1438098190576,364,488,0,0,0,2,3,1,23,0002-00-0000-29.png,0003-00-0001-95.png
00000014,224,0,1438098191651,1438098191768,492,488,0,0,0,5,4,1,54,0005-00-0001-33.png,0004-00-0000-57.png
00000014,225,1,1438098192745,1438098192801,519,405,0,0,0,3,4,1,34,0003-00-0001-92.png,0004-00-0001-75.png
00000014,226,0,1438098193907,1438098194715,284,371,0,0,0,3,2,1,32,0003-00-0001-18.png,0002-00-0000-59.png
00000014,227,1,1438098195619,1438098195675,401,375,0,0,0,4,5,1,45,0004-00-0001-85.png,0005-00-0001-54.png
00000014,228,0,1438098197002,1438098197080,501,508,0,0,0,4,3,1,43,0004-00-0001-12.png,0003-00-0001-42.png
00000014,229,1,1438098197944,1438098198024,515,399,0,0,0,2,3,1,23,0002-00-0001-80.png,0003-00-0000-55.png
00000014,230,0,1438098199274,1438098199376,509,429,0,0,0,5,4,1,54,0005-00-0000-44.png,0004-00-0001-60.png
00000014,231,0,1438098200211,1438098200279,518,446,0,0,0,2,1,1,21,0002-00-0001-12.png,0001-00-0001-12.png
00000014,232,1,1438098201352,1438098201396,513,400,0,0,0,1,2,1,12,0001-00-0000-04.png,0002-00-0001-29.png
00000014,233,0,1438098202425,1438098203139,248,371,0,0,0,3,2,1,32,0003-00-0000-23.png,0002-00-0000-60.png
00000014,234,1,1438098204184,1438098204224,470,443,0,0,0,4,5,1,45,0004-00-0001-37.png,0005-00-0001-72.png
00000014,235,1,1438098205201,1438098205846,331,389,0,0,0,1,2,1,12,0001-00-0000-60.png,0002-00-0001-79.png
00000014,236,0,1438098206912,1438098206960,504,440,0,0,0,5,4,1,54,0005-00-0000-31.png,0004-00-0001-39.png
00000014,237,1,1438098207864,1438098208601,979,343,0,0,0,4,3,1,43,0004-00-0000-89.png,0003-00-0000-93.png
00000014,238,1,1438098209619,1438098210328,319,462,0,0,0,2,3,1,23,0002-00-0000-20.png,0003-00-0000-75.png
00000014,239,1,1438098211932,1438098211984,504,402,0,0,0,3,4,1,34,0003-00-0000-12.png,0004-00-0001-68.png
00000014,240,0,1438098213032,1438098213804,262,364,0,0,0,2,1,1,21,0002-00-0000-59.png,0001-00-0001-56.png
00000014,241,0,1438098214767,1438098214816,444,425,0,0,0,3,2,1,32,0003-00-0001-65.png,0002-00-0000-18.png
00000014,242,0,1438098215811,1438098215863,523,400,0,0,0,2,1,1,21,0002-00-0001-47.png,0001-00-0001-64.png
00000014,243,1,1438098216924,1438098216972,512,410,0,0,0,1,2,1,12,0001-00-0001-86.png,0002-00-0000-07.png
00000014,244,1,1438098218039,1438098218742,342,459,0,0,0,4,5,1,45,0004-00-0000-76.png,0005-00-0001-01.png
00000014,245,1,1438098220342,1438098220981,266,382,0,0,0,2,3,1,23,0002-00-0000-11.png,0003-00-0001-77.png
00000014,246,0,1438098222518,1438098222570,484,392,0,0,0,5,4,1,54,0005-00-0001-76.png,0004-00-0000-99.png
00000014,247,0,1438098223969,1438098224056,485,373,0,0,0,4,3,1,43,0004-00-0000-22.png,0003-00-0000-99.png
00000014,248,1,1438098225400,1438098225492,476,413,0,0,0,3,4,1,34,0003-00-0001-44.png,0004-00-0001-93.png
00000014,249,0,1438098227164,1438098227914,952,336,0,0,0,1,2,1,12,0001-00-0001-12.png,0002-00-0001-60.png
00000014,250,0,1438098228757,1438098228835,510,443,0,0,0,3,2,1,32,0003-00-0000-76.png,0002-00-0000-21.png
00000014,251,1,1438098229852,1438098229931,516,395,0,0,0,3,4,1,34,0003-00-0000-04.png,0004-00-0001-49.png
00000014,252,1,1438098231193,1438098231859,294,353,0,0,0,2,3,1,23,0002-00-0000-94.png,0003-00-0001-86.png
00000014,253,0,1438098232861,1438098232978,491,410,0,0,0,5,4,1,54,0005-00-0000-17.png,0004-00-0000-21.png
00000014,254,1,1438098233898,1438098233950,513,410,0,0,0,4,5,1,45,0004-00-0000-90.png,0005-00-0000-42.png
00000014,255,1,1438098235052,1438098235765,937,367,0,0,0,2,1,1,21,0002-00-0000-65.png,0001-00-0001-36.png
00000014,256,0,1438098236828,1438098237494,324,462,0,0,0,4,3,1,43,0004-00-0001-21.png,0003-00-0000-86.png
00000014,257,1,1438098238411,1438098239246,951,345,0,0,0,4,3,1,43,0004-00-0001-11.png,0003-00-0000-61.png
00000014,258,1,1438098246111,1438098246736,334,369,0,0,0,1,2,1,12,0001-00-0000-06.png,0002-00-0001-33.png
00000014,259,0,1438098248477,1438098249157,974,354,0,0,0,2,3,1,23,0002-00-0001-20.png,0003-00-0001-44.png
00000014,260,0,1438098250016,1438098250096,504,446,0,0,0,2,1,1,21,0002-00-0000-38.png,0001-00-0001-50.png
00000014,261,1,1438098250924,1438098251629,291,402,0,0,0,4,5,1,45,0004-00-0001-49.png,0005-00-0001-06.png
00000014,262,1,1438098252581,1438098252629,504,425,0,0,0,3,4,1,34,0003-00-0001-00.png,0004-00-0001-86.png
00000014,263,0,1438098253743,1438098253854,514,541,0,0,0,3,2,1,32,0003-00-0001-37.png,0002-00-0001-91.png
00000014,264,0,1438098254757,1438098254845,472,375,0,0,0,5,4,1,54,0005-00-0000-96.png,0004-00-0001-11.png
00000014,265,0,1438098255792,1438098256583,906,323,0,0,0,1,2,1,12,0001-00-0001-55.png,0002-00-0000-78.png
00000014,266,1,1438098258186,1438098258270,513,449,0,0,0,3,4,1,34,0003-00-0001-64.png,0004-00-0000-37.png
00000014,267,1,1438098260093,1438098260105,453,423,0,0,0,4,5,1,45,0004-00-0001-45.png,0005-00-0000-82.png
00000014,268,0,1438098261198,1438098261242,513,384,0,0,0,3,2,1,32,0003-00-0001-66.png,0002-00-0001-31.png
00000014,269,0,1438098262231,1438098262300,456,408,0,0,0,4,3,1,43,0004-00-0000-97.png,0003-00-0001-92.png
00000014,270,1,1438098263207,1438098263964,286,346,0,0,0,2,3,1,23,0002-00-0001-75.png,0003-00-0000-95.png
00000014,271,0,1438098265006,1438098265094,512,436,0,0,0,5,4,1,54,0005-00-0001-46.png,0004-00-0001-40.png
00000014,272,0,1438098265978,1438098266058,501,464,0,0,0,2,1,1,21,0002-00-0001-31.png,0001-00-0001-18.png
00000014,273,1,1438098266930,1438098267018,489,416,0,0,0,1,2,1,12,0001-00-0000-95.png,0002-00-0000-04.png
00000014,274,0,1438098268242,1438098268345,495,454,0,0,0,4,3,1,43,0004-00-0001-92.png,0003-00-0000-76.png
00000014,275,1,1438098269386,1438098269482,459,377,0,0,0,4,5,1,45,0004-00-0000-80.png,0005-00-0000-08.png
00000014,276,1,1438098270679,1438098271451,931,409,0,0,0,2,1,1,21,0002-00-0001-37.png,0001-00-0000-05.png
00000014,277,0,1438098272640,1438098272736,496,468,0,0,0,5,4,1,54,0005-00-0000-55.png,0004-00-0001-52.png
00000014,278,0,1438098273817,1438098274616,974,437,0,0,0,2,3,1,23,0002-00-0000-61.png,0003-00-0001-84.png
00000014,279,0,1438098275518,1438098276169,269,401,0,0,0,3,2,1,32,0003-00-0001-10.png,0002-00-0000-94.png
00000014,280,1,1438098277554,1438098277578,470,364,0,0,0,3,4,1,34,0003-00-0001-64.png,0004-00-0001-94.png
00000014,281,0,1438098279027,1438098279120,504,449,0,0,0,4,3,1,43,0004-00-0000-31.png,0003-00-0000-99.png
00000014,282,1,1438098280116,1438098280147,446,404,0,0,0,2,3,1,23,0002-00-0000-00.png,0003-00-0001-20.png
00000014,283,1,1438098281290,1438098282001,338,460,0,0,0,3,4,1,34,0003-00-0000-41.png,0004-00-0000-91.png
00000014,284,1,1438098283577,1438098283649,491,423,0,0,0,4,5,1,45,0004-00-0000-01.png,0005-00-0000-80.png
00000014,285,0,1438098284700,1438098284768,504,421,0,0,0,5,4,1,54,0005-00-0001-00.png,0004-00-0000-78.png
00000014,286,0,1438098285675,1438098285751,489,450,0,0,0,3,2,1,32,0003-00-0000-26.png,0002-00-0000-86.png
00000014,287,0,1438098286929,1438098286982,513,384,0,0,0,2,1,1,21,0002-00-0000-58.png,0001-00-0000-40.png
00000014,288,1,1438098287970,1438098288088,482,387,0,0,0,1,2,1,12,0001-00-0001-92.png,0002-00-0000-36.png
00000014,289,1,1438098289073,1438098289192,504,504,0,0,0,2,3,1,23,0002-00-0001-48.png,0003-00-0000-54.png
00000014,290,0,1438098290245,1438098290306,512,443,0,0,0,4,3,1,43,0004-00-0001-57.png,0003-00-0000-83.png
00000014,291,0,1438098291219,1438098291271,499,463,0,0,0,5,4,1,54,0005-00-0001-95.png,0004-00-0000-61.png
00000014,292,1,1438098292162,1438098292419,504,410,0,0,0,3,4,1,34,0003-00-0001-43.png,0004-00-0001-71.png
00000014,293,1,1438098293408,1438098294057,267,409,0,0,0,1,2,1,12,0001-00-0000-20.png,0002-00-0000-25.png
00000014,294,1,1438098295077,1438098295152,478,410,0,0,0,4,5,1,45,0004-00-0000-44.png,0005-00-0001-60.png
00000014,295,0,1438098296340,1438098296436,514,462,0,0,0,2,1,1,21,0002-00-0001-45.png,0001-00-0000-20.png
00000014,296,0,1438098297320,1438098297368,465,422,0,0,0,3,2,1,32,0003-00-0000-50.png,0002-00-0001-99.png
00000014,297,1,1438098298203,1438098298956,289,420,0,0,0,2,3,1,23,0002-00-0000-72.png,0003-00-0000-15.png
00000014,298,1,1438098300016,1438098300866,978,425,0,0,0,4,3,1,43,0004-00-0000-41.png,0003-00-0000-62.png
00000014,299,0,1438098301942,1438098302856,939,370,0,0,0,4,5,1,45,0004-00-0000-01.png,0005-00-0001-52.png
00000014,300,1,1438098304141,1438098305102,952,345,0,0,0,5,4,1,54,0005-00-0001-80.png,0004-00-0000-73.png
00000014,301,1,1438098306109,1438098306819,288,360,0,0,0,3,4,1,34,0003-00-0001-53.png,0004-00-0001-06.png
00000014,302,1,1438098307891,1438098308541,348,384,0,0,0,1,2,1,12,0001-00-0001-09.png,0002-00-0001-15.png
00000014,303,0,1438098309602,1438098309702,495,446,0,0,0,2,1,1,21,0002-00-0000-34.png,0001-00-0001-99.png
00000014,304,0,1438098310578,1438098310642,473,401,0,0,0,3,2,1,32,0003-00-0001-17.png,0002-00-0001-38.png
00000014,305,1,1438098311515,1438098311559,495,385,0,0,0,2,3,1,23,0002-00-0001-73.png,0003-00-0000-75.png
00000014,306,0,1438098312617,1438098312674,504,451,0,0,0,3,2,1,32,0003-00-0000-45.png,0002-00-0001-06.png
00000014,307,1,1438098314404,1438098314484,504,436,0,0,0,4,5,1,45,0004-00-0000-70.png,0005-00-0001-20.png
00000014,308,0,1438098315569,1438098316203,292,390,0,0,0,4,3,1,43,0004-00-0000-17.png,0003-00-0001-23.png
00000014,309,0,1438098317034,1438098317118,465,425,0,0,0,2,1,1,21,0002-00-0001-48.png,0001-00-0000-18.png
00000014,310,1,1438098322799,1438098322883,513,400,0,0,0,1,2,1,12,0001-00-0000-20.png,0002-00-0000-99.png
00000014,311,1,1438098323813,1438098324395,957,324,0,0,0,5,4,1,54,0005-00-0001-52.png,0004-00-0000-85.png
00000014,312,0,1438098325386,1438098326259,939,397,0,0,0,3,4,1,34,0003-00-0001-65.png,0004-00-0001-06.png
00000014,313,1,1438098327348,1438098328046,960,362,0,0,0,3,2,1,32,0003-00-0000-59.png,0002-00-0001-25.png
00000014,314,0,1438098329102,1438098329887,930,428,0,0,0,1,2,1,12,0001-00-0001-85.png,0002-00-0001-95.png
00000014,315,0,1438098330810,1438098331740,942,464,0,0,0,2,3,1,23,0002-00-0001-82.png,0003-00-0001-38.png
00000014,316,0,1438098332768,1438098332811,462,414,0,0,0,4,3,1,43,0004-00-0001-65.png,0003-00-0000-30.png
00000014,317,1,1438098333880,1438098333900,491,411,0,0,0,4,5,1,45,0004-00-0000-77.png,0005-00-0001-12.png
00000014,318,0,1438098334937,1438098335676,963,366,0,0,0,3,4,1,34,0003-00-0001-81.png,0004-00-0001-18.png
00000014,319,0,1438098337199,1438098337256,504,369,0,0,0,2,1,1,21,0002-00-0000-74.png,0001-00-0000-68.png
00000014,320,0,1438098339455,1438098340248,349,459,0,0,0,5,4,1,54,0005-00-0001-65.png,0004-00-0000-72.png
00000014,321,1,1438098341185,1438098341283,428,366,0,0,0,1,2,1,12,0001-00-0001-78.png,0002-00-0001-87.png
00000014,322,1,1438098342264,1438098342371,498,400,0,0,0,2,3,1,23,0002-00-0001-65.png,0003-00-0001-60.png
00000014,323,0,1438098343472,1438098344181,916,461,0,0,0,3,4,1,34,0003-00-0001-49.png,0004-00-0000-97.png
00000014,324,1,1438098345018,1438098345947,977,360,0,0,0,3,2,1,32,0003-00-0001-01.png,0002-00-0000-75.png
00000014,325,0,1438098346878,1438098346998,523,403,0,0,0,4,3,1,43,0004-00-0001-73.png,0003-00-0001-26.png
00000014,326,1,1438098348379,1438098348459,520,384,0,0,0,4,5,1,45,0004-00-0001-82.png,0005-00-0000-35.png
00000014,327,0,1438098349524,1438098350134,282,396,0,0,0,2,1,1,21,0002-00-0001-07.png,0001-00-0000-03.png
00000014,328,0,1438098351032,1438098351104,495,410,0,0,0,5,4,1,54,0005-00-0001-23.png,0004-00-0001-83.png
00000014,329,1,1438098352011,1438098352705,316,441,0,0,0,4,5,1,45,0004-00-0001-92.png,0005-00-0001-94.png
00000014,330,0,1438098353684,1438098353799,507,479,0,0,0,4,3,1,43,0004-00-0000-85.png,0003-00-0001-09.png
00000014,331,0,1438098354729,1438098354801,458,382,0,0,0,3,2,1,32,0003-00-0000-13.png,0002-00-0000-38.png
00000014,332,1,1438098355768,1438098355812,437,345,0,0,0,2,3,1,23,0002-00-0000-40.png,0003-00-0001-85.png
00000014,333,0,1438098356927,1438098357639,288,389,0,0,0,2,1,1,21,0002-00-0000-78.png,0001-00-0000-86.png
00000014,334,1,1438098359062,1438098359110,506,408,0,0,0,1,2,1,12,0001-00-0001-63.png,0002-00-0001-93.png
00000014,335,0,1438098360039,1438098360873,260,370,0,0,0,5,4,1,54,0005-00-0000-41.png,0004-00-0000-13.png
00000014,336,1,1438098361814,1438098361910,510,417,0,0,0,3,4,1,34,0003-00-0000-08.png,0004-00-0000-62.png
00000014,337,0,1438098363007,1438098363035,478,399,0,0,0,5,4,1,54,0005-00-0001-65.png,0004-00-0000-37.png
00000014,338,1,1438098363974,1438098363998,492,418,0,0,0,4,5,1,45,0004-00-0000-44.png,0005-00-0001-20.png
00000014,339,0,1438098365125,1438098365942,972,368,0,0,0,2,3,1,23,0002-00-0000-77.png,0003-00-0001-87.png
00000014,340,0,1438098366931,1438098366982,486,430,0,0,0,4,3,1,43,0004-00-0000-97.png,0003-00-0001-82.png
00000014,341,1,1438098367874,1438098367978,497,418,0,0,0,1,2,1,12,0001-00-0001-90.png,0002-00-0001-10.png
00000014,342,1,1438098368971,1438098369664,925,387,0,0,0,2,1,1,21,0002-00-0001-09.png,0001-00-0001-45.png
00000014,343,1,1438098370760,1438098371380,284,379,0,0,0,3,4,1,34,0003-00-0001-59.png,0004-00-0001-64.png
00000014,344,0,1438098372478,1438098372526,514,438,0,0,0,3,2,1,32,0003-00-0001-05.png,0002-00-0001-93.png
00000014,345,1,1438098373553,1438098374203,273,371,0,0,0,1,2,1,12,0001-00-0001-44.png,0002-00-0001-68.png
00000014,346,0,1438098375202,1438098375831,268,385,0,0,0,2,1,1,21,0002-00-0001-25.png,0001-00-0001-06.png
00000014,347,0,1438098376863,1438098376955,460,448,0,0,0,5,4,1,54,0005-00-0001-93.png,0004-00-0000-61.png
00000014,348,0,1438098377865,1438098378606,321,386,0,0,0,3,2,1,32,0003-00-0001-45.png,0002-00-0001-88.png
00000014,349,1,1438098379960,1438098380672,338,488,0,0,0,4,5,1,45,0004-00-0000-19.png,0005-00-0001-90.png
00000014,350,0,1438098381671,1438098382350,264,388,0,0,0,4,3,1,43,0004-00-0000-97.png,0003-00-0000-79.png
00000014,351,1,1438098383269,1438098383864,299,387,0,0,0,2,3,1,23,0002-00-0000-30.png,0003-00-0000-34.png
00000014,352,1,1438098384830,1438098384911,478,419,0,0,0,3,4,1,34,0003-00-0001-89.png,0004-00-0000-46.png
00000014,353,0,1438098386053,1438098386654,316,391,0,0,0,4,3,1,43,0004-00-0000-87.png,0003-00-0001-47.png
00000014,354,1,1438098387557,1438098387612,436,404,0,0,0,4,5,1,45,0004-00-0001-48.png,0005-00-0001-10.png
00000014,355,1,1438098388806,1438098389474,263,394,0,0,0,3,4,1,34,0003-00-0001-22.png,0004-00-0000-78.png
00000014,356,1,1438098390504,1438098391407,947,387,0,0,0,3,2,1,32,0003-00-0001-12.png,0002-00-0000-45.png
00000014,357,1,1438098392401,1438098392525,510,498,0,0,0,1,2,1,12,0001-00-0001-88.png,0002-00-0000-82.png
00000014,358,0,1438098393600,1438098393702,504,484,0,0,0,2,1,1,21,0002-00-0001-34.png,0001-00-0001-67.png
00000014,359,1,1438098394668,1438098395426,953,425,0,0,0,5,4,1,54,0005-00-0000-69.png,0004-00-0000-06.png
00000014,360,1,1438098396437,1438098396574,518,541,0,0,0,2,3,1,23,0002-00-0001-80.png,0003-00-0000-80.png
00000014,361,1,1438098397591,1438098397654,512,436,0,0,0,2,3,1,23,0002-00-0000-30.png,0003-00-0000-01.png
00000014,362,1,1438098398714,1438098399447,921,446,0,0,0,3,2,1,32,0003-00-0000-80.png,0002-00-0001-20.png
00000014,363,1,1438098400541,1438098401318,299,343,0,0,0,4,5,1,45,0004-00-0001-56.png,0005-00-0000-63.png
00000014,364,0,1438098402349,1438098402426,511,366,0,0,0,5,4,1,54,0005-00-0001-07.png,0004-00-0001-97.png
00000014,365,1,1438098403542,1438098403626,523,426,0,0,0,3,4,1,34,0003-00-0000-05.png,0004-00-0000-27.png
00000014,366,1,1438098404713,1438098405369,330,332,0,0,0,1,2,1,12,0001-00-0000-91.png,0002-00-0001-02.png
00000014,367,0,1438098406353,1438098406413,488,410,0,0,0,4,3,1,43,0004-00-0001-64.png,0003-00-0001-05.png
00000014,368,1,1438098407508,1438098408455,975,417,0,0,0,2,1,1,21,0002-00-0001-56.png,0001-00-0000-77.png
00000014,369,1,1438098409492,1438098410312,980,354,0,0,0,5,4,1,54,0005-00-0001-35.png,0004-00-0000-55.png
00000014,370,0,1438098411335,1438098411439,515,483,0,0,0,2,1,1,21,0002-00-0000-93.png,0001-00-0000-35.png
00000014,371,0,1438098412394,1438098412414,466,398,0,0,0,4,3,1,43,0004-00-0001-59.png,0003-00-0001-54.png
00000014,372,0,1438098413407,1438098413983,289,389,0,0,0,3,2,1,32,0003-00-0000-53.png,0002-00-0001-54.png
00000014,373,1,1438098414986,1438098415074,484,368,0,0,0,3,4,1,34,0003-00-0000-85.png,0004-00-0001-33.png
00000014,374,1,1438098416020,1438098416080,522,403,0,0,0,2,3,1,23,0002-00-0000-25.png,0003-00-0001-87.png
00000014,375,1,1438098417164,1438098417793,298,360,0,0,0,4,5,1,45,0004-00-0000-50.png,0005-00-0001-84.png
00000014,376,1,1438098418764,1438098418804,490,398,0,0,0,1,2,1,12,0001-00-0001-59.png,0002-00-0001-58.png
00000014,377,1,1438098420020,1438098420670,270,388,0,0,0,1,2,1,12,0001-00-0000-87.png,0002-00-0000-08.png
00000014,378,1,1438098421762,1438098421826,507,438,0,0,0,4,5,1,45,0004-00-0001-22.png,0005-00-0001-82.png
00000014,379,0,1438098422955,1438098422977,510,418,0,0,0,4,3,1,43,0004-00-0001-43.png,0003-00-0000-98.png
00000014,380,0,1438098423868,1438098423925,488,417,0,0,0,2,1,1,21,0002-00-0001-74.png,0001-00-0001-28.png
00000014,381,1,1438098424792,1438098425090,485,394,0,0,0,2,3,1,23,0002-00-0000-71.png,0003-00-0000-61.png
00000014,382,1,1438098426526,1438098427441,952,361,0,0,0,5,4,1,54,0005-00-0000-52.png,0004-00-0000-14.png
00000014,383,0,1438098428487,1438098429301,950,344,0,0,0,3,4,1,34,0003-00-0001-78.png,0004-00-0000-63.png
00000014,384,0,1438098430262,1438098430330,445,377,0,0,0,3,2,1,32,0003-00-0000-88.png,0002-00-0001-31.png
00000014,385,0,1438098431627,1438098431718,506,412,0,0,0,2,1,1,21,0002-00-0000-38.png,0001-00-0000-36.png
00000014,386,0,1438098432726,1438098432858,473,330,0,0,0,5,4,1,54,0005-00-0000-30.png,0004-00-0000-11.png
00000014,387,1,1438098433889,1438098433949,511,418,0,0,0,3,4,1,34,0003-00-0000-20.png,0004-00-0001-55.png
00000014,388,0,1438098435014,1438098435710,905,350,0,0,0,1,2,1,12,0001-00-0001-72.png,0002-00-0001-95.png
00000014,389,1,1438098436767,1438098436818,519,406,0,0,0,2,3,1,23,0002-00-0000-62.png,0003-00-0001-79.png
00000014,390,1,1438098437868,1438098438609,877,368,0,0,0,3,2,1,32,0003-00-0001-89.png,0002-00-0000-07.png
00000014,391,1,1438098439625,1438098439767,518,488,0,0,0,4,5,1,45,0004-00-0000-62.png,0005-00-0001-68.png
00000014,392,1,1438098440889,1438098441654,912,429,0,0,0,4,3,1,43,0004-00-0001-16.png,0003-00-0001-55.png
00000014,393,0,1438098442681,1438098443314,266,349,0,0,0,4,3,1,43,0004-00-0001-07.png,0003-00-0001-08.png
00000014,394,1,1438098444285,1438098444333,459,393,0,0,0,2,3,1,23,0002-00-0000-05.png,0003-00-0000-68.png
00000014,395,1,1438098445402,1438098446007,267,357,0,0,0,3,4,1,34,0003-00-0000-90.png,0004-00-0000-29.png
00000014,396,0,1438098447680,1438098447716,478,396,0,0,0,3,2,1,32,0003-00-0001-53.png,0002-00-0000-31.png
00000014,397,0,1438098448604,1438098448861,513,401,0,0,0,5,4,1,54,0005-00-0000-21.png,0004-00-0001-54.png
00000014,398,1,1438098449906,1438098450663,341,468,0,0,0,4,5,1,45,0004-00-0001-42.png,0005-00-0001-67.png
00000014,399,1,1438098451586,1438098451646,514,410,0,0,0,1,2,1,12,0001-00-0001-85.png,0002-00-0001-77.png
00000014,400,0,1438098452778,1438098453444,292,391,0,0,0,2,1,1,21,0002-00-0001-41.png,0001-00-0001-09.png
