subject_id,trial,correct_response,stim_time,response_time,x_coord,y_coord,trial_timeout,timeout_time,interTrial_timeout,left_rank,right_rank,distance,joint_rank,left_image,right_image
00000009,1,0,1440693904872,1440693905245,1045,464,0,0,0,2,3,1,23,0002-00-0002-09.png,0003-00-0006-96.png
00000009,2,1,1440693908856,1440693908932,970,226,0,0,0,2,1,1,21,0002-00-0001-11.png,0001-00-0008-37.png
00000009,3,0,1440693910039,1440693910063,862,372,0,0,0,3,4,1,34,0003-00-0009-22.png,0004-00-0005-95.png
00000009,4,1,1440693913258,1440693913790,950,361,0,0,0,3,2,1,32,0003-00-0008-60.png,0002-00-0002-20.png
00000009,5,1,1440693914648,1440693914810,888,420,0,0,0,5,4,1,54,0005-00-0007-31.png,0004-00-0009-32.png
00000009,6,1,1440693915892,1440693917074,904,330,0,0,0,4,3,1,43,0004-00-0002-86.png,0003-00-0002-88.png
00000009,7,0,1440693918436,1440693918568,900,410,0,0,0,4,5,1,45,0004-00-0004-91.png,0005-00-0001-22.png
00000009,8,0,1440693921725,1440693921749,915,306,0,0,0,1,2,1,12,0001-00-0001-53.png,0002-00-0000-91.png
00000009,9,1,1440693924866,1440693925349,931,330,0,0,0,2,1,1,21,0002-00-0002-31.png,0001-00-0005-81.png
00000009,10,0,1440693926236,1440693926484,964,410,0,0,0,2,3,1,23,0002-00-0004-35.png,0003-00-0007-55.png
00000009,11,1,1440693929366,1440693930039,246,360,0,0,0,1,2,1,12,0001-00-0004-82.png,0002-00-0001-25.png
00000009,12,0,1440693930998,1440693931133,913,436,0,0,0,3,4,1,34,0003-00-0003-13.png,0004-00-0009-80.png
00000009,13,1,1440693934275,1440693934758,952,366,0,0,0,5,4,1,54,0005-00-0007-58.png,0004-00-0006-06.png
00000009,14,1,1440693935606,1440693936586,902,374,0,0,0,3,2,1,32,0003-00-0000-40.png,0002-00-0004-81.png
00000009,15,1,1440693937614,1440693937714,938,465,0,0,0,4,3,1,43,0004-00-0002-14.png,0003-00-0005-06.png
00000009,16,1,1440693938786,1440693939857,334,429,0,0,0,4,5,1,45,0004-00-0005-20.png,0005-00-0004-52.png
00000009,17,0,1440693941659,1440693942144,1015,278,0,0,0,1,2,1,12,0001-00-0005-92.png,0002-00-0005-54.png
00000009,18,0,1440693945236,1440693945760,917,343,0,0,0,3,4,1,34,0003-00-0006-40.png,0004-00-0000-66.png
00000009,19,0,1440693948923,1440693949415,908,352,0,0,0,4,5,1,45,0004-00-0002-24.png,0005-00-0000-54.png
00000009,20,1,1440693952331,1440693952532,913,410,0,0,0,4,3,1,43,0004-00-0002-97.png,0003-00-0002-89.png
00000009,21,0,1440693953555,1440693953639,935,377,0,0,0,2,3,1,23,0002-00-0005-43.png,0003-00-0005-79.png
00000009,22,1,1440693956793,1440693957306,914,336,0,0,0,5,4,1,54,0005-00-0004-38.png,0004-00-0005-24.png
00000009,23,0,1440693958201,1440693959196,323,372,0,0,0,3,2,1,32,0003-00-0005-84.png,0002-00-0003-65.png
00000009,24,1,1440693962438,1440693962934,918,365,0,0,0,2,1,1,21,0002-00-0005-69.png,0001-00-0006-69.png
00000009,25,1,1440693963807,1440693964661,343,354,0,0,0,1,2,1,12,0001-00-0005-07.png,0002-00-0000-73.png
00000009,26,0,1440693965638,1440693965694,862,384,0,0,0,3,4,1,34,0003-00-0006-08.png,0004-00-0005-06.png
00000009,27,1,1440693969075,1440693969703,312,373,0,0,0,4,5,1,45,0004-00-0009-62.png,0005-00-0005-02.png
00000009,28,1,1440693971409,1440693971916,956,368,0,0,0,3,2,1,32,0003-00-0009-44.png,0002-00-0001-26.png
00000009,29,1,1440693973287,1440693973611,936,484,0,0,0,2,1,1,21,0002-00-0000-24.png,0001-00-0001-51.png
00000009,30,1,1440693974540,1440693976068,332,349,0,0,0,2,3,1,23,0002-00-0008-30.png,0003-00-0002-57.png
00000009,31,0,1440693976976,1440693977840,323,380,0,0,0,4,3,1,43,0004-00-0000-58.png,0003-00-0001-65.png
00000009,32,1,1440693980830,1440693980898,971,405,0,0,0,5,4,1,54,0005-00-0008-13.png,0004-00-0008-08.png
00000009,33,1,1440693981805,1440693981909,888,436,0,0,0,5,4,1,54,0005-00-0001-78.png,0004-00-0006-67.png
00000009,34,1,1440693983096,1440693984010,948,337,0,0,0,3,2,1,32,0003-00-0006-73.png,0002-00-0005-51.png
00000009,35,1,1440693985432,1440693986133,345,369,0,0,0,4,5,1,45,0004-00-0008-00.png,0005-00-0008-85.png
00000009,36,1,1440693987539,1440693987615,868,429,0,0,0,2,1,1,21,0002-00-0008-84.png,0001-00-0006-07.png
00000009,37,0,1440693988673,1440693989433,373,388,0,0,0,4,3,1,43,0004-00-0000-87.png,0003-00-0000-40.png
00000009,38,0,1440693992686,1440693993162,946,353,0,0,0,3,4,1,34,0003-00-0002-34.png,0004-00-0003-63.png
00000009,39,0,1440693996302,1440693996775,939,372,0,0,0,1,2,1,12,0001-00-0007-66.png,0002-00-0001-17.png
00000009,40,1,1440693999920,1440694000418,378,410,0,0,0,2,3,1,23,0002-00-0002-79.png,0003-00-0003-95.png
00000009,41,1,1440694001269,1440694001373,888,375,0,0,0,5,4,1,54,0005-00-0007-63.png,0004-00-0000-71.png
00000009,42,1,1440694002575,1440694003324,368,384,0,0,0,1,2,1,12,0001-00-0002-80.png,0002-00-0000-57.png
00000009,43,1,1440694004168,1440694005029,391,294,0,0,0,3,4,1,34,0003-00-0006-75.png,0004-00-0006-53.png
00000009,44,0,1440694005887,1440694006003,862,401,0,0,0,4,5,1,45,0004-00-0004-77.png,0005-00-0006-82.png
00000009,45,1,1440694008993,1440694008997,921,392,0,0,0,2,1,1,21,0002-00-0009-66.png,0001-00-0002-35.png
00000009,46,1,1440694009884,1440694009972,903,417,0,0,0,4,3,1,43,0004-00-0007-11.png,0003-00-0006-42.png
00000009,47,0,1440694011400,1440694012244,364,366,0,0,0,3,2,1,32,0003-00-0001-57.png,0002-00-0006-02.png
00000009,48,0,1440694015283,1440694015771,937,326,0,0,0,2,3,1,23,0002-00-0004-11.png,0003-00-0006-52.png
00000009,49,0,1440694018832,1440694019417,337,360,0,0,0,5,4,1,54,0005-00-0008-06.png,0004-00-0008-11.png
00000009,50,1,1440694022405,1440694022919,1050,278,0,0,0,2,1,1,21,0002-00-0004-17.png,0001-00-0008-70.png
00000009,51,0,1440694025139,1440694025168,868,305,0,0,0,2,3,1,23,0002-00-0009-53.png,0003-00-0004-30.png
00000009,52,0,1440694028311,1440694028327,966,342,0,0,0,3,4,1,34,0003-00-0007-89.png,0004-00-0007-95.png
00000009,53,0,1440694031393,1440694031417,941,357,0,0,0,4,5,1,45,0004-00-0008-93.png,0005-00-0007-38.png
00000009,54,1,1440694034514,1440694035108,333,377,0,0,0,1,2,1,12,0001-00-0009-22.png,0002-00-0009-89.png
00000009,55,1,1440694037037,1440694037532,923,361,0,0,0,3,2,1,32,0003-00-0003-22.png,0002-00-0001-83.png
00000009,56,1,1440694038365,1440694039359,1026,275,0,0,0,4,3,1,43,0004-00-0007-90.png,0003-00-0001-19.png
00000009,57,1,1440694040295,1440694040343,905,367,0,0,0,4,3,1,43,0004-00-0004-91.png,0003-00-0008-55.png
00000009,58,1,1440694041567,1440694042648,351,331,0,0,0,4,5,1,45,0004-00-0004-19.png,0005-00-0002-76.png
00000009,59,1,1440694044032,1440694044108,892,401,0,0,0,3,2,1,32,0003-00-0005-20.png,0002-00-0009-08.png
00000009,60,1,1440694045091,1440694046258,364,391,0,0,0,3,4,1,34,0003-00-0007-00.png,0004-00-0000-92.png
00000009,61,0,1440694047142,1440694047210,862,384,0,0,0,1,2,1,12,0001-00-0009-65.png,0002-00-0007-76.png
00000009,62,1,1440694050089,1440694050101,900,302,0,0,0,5,4,1,54,0005-00-0006-83.png,0004-00-0007-87.png
00000009,63,0,1440694051027,1440694051131,929,459,0,0,0,2,3,1,23,0002-00-0007-60.png,0003-00-0009-44.png
00000009,64,1,1440694054281,1440694054313,946,294,0,0,0,2,1,1,21,0002-00-0005-88.png,0001-00-0006-36.png
00000009,65,0,1440694055222,1440694056112,1001,250,0,0,0,3,4,1,34,0003-00-0008-89.png,0004-00-0003-44.png
00000009,66,1,1440694059128,1440694059160,873,435,0,0,0,2,1,1,21,0002-00-0005-18.png,0001-00-0001-08.png
00000009,67,0,1440694059998,1440694060066,889,396,0,0,0,1,2,1,12,0001-00-0005-24.png,0002-00-0002-71.png
00000009,68,1,1440694063202,1440694063977,413,256,0,0,0,4,5,1,45,0004-00-0000-01.png,0005-00-0004-70.png
00000009,69,0,1440694064807,1440694064923,913,395,0,0,0,2,3,1,23,0002-00-0005-35.png,0003-00-0000-13.png
00000009,70,1,1440694068090,1440694068386,1032,334,0,0,0,5,4,1,54,0005-00-0002-89.png,0004-00-0000-17.png
00000009,71,1,1440694069332,1440694069416,888,421,0,0,0,3,2,1,32,0003-00-0003-88.png,0002-00-0000-30.png
00000009,72,1,1440694070275,1440694071576,893,365,0,0,0,4,3,1,43,0004-00-0007-79.png,0003-00-0008-09.png
00000009,73,1,1440694072969,1440694073835,469,248,0,0,0,1,2,1,12,0001-00-0009-41.png,0002-00-0006-56.png
00000009,74,0,1440694074671,1440694075473,377,339,0,0,0,5,4,1,54,0005-00-0002-84.png,0004-00-0002-63.png
00000009,75,0,1440694078583,1440694078695,956,287,0,0,0,4,5,1,45,0004-00-0000-89.png,0005-00-0006-18.png
00000009,76,1,1440694081865,1440694082370,923,366,0,0,0,4,3,1,43,0004-00-0006-18.png,0003-00-0008-16.png
00000009,77,0,1440694083876,1440694083927,919,329,0,0,0,2,3,1,23,0002-00-0004-14.png,0003-00-0001-50.png
00000009,78,0,1440694086783,1440694086787,518,505,0,0,0,2,1,1,21,0002-00-0003-20.png,0001-00-0005-57.png
00000009,79,1,1440694089955,1440694090437,957,348,0,0,0,3,2,1,32,0003-00-0000-70.png,0002-00-0005-31.png
00000009,80,0,1440694092047,1440694092643,910,379,0,0,0,3,4,1,34,0003-00-0003-21.png,0004-00-0004-51.png
00000009,81,1,1440694096125,1440694096133,960,296,0,0,0,4,3,1,43,0004-00-0000-91.png,0003-00-0004-02.png
00000009,82,1,1440694096987,1440694097095,862,384,0,0,0,5,4,1,54,0005-00-0003-35.png,0004-00-0009-43.png
00000009,83,1,1440694097920,1440694098956,392,347,0,0,0,3,4,1,34,0003-00-0004-59.png,0004-00-0003-94.png
00000009,84,0,1440694099836,1440694101472,324,386,0,0,0,3,2,1,32,0003-00-0008-32.png,0002-00-0004-51.png
00000009,85,1,1440694104431,1440694104467,949,392,0,0,0,2,1,1,21,0002-00-0003-00.png,0001-00-0005-50.png
00000009,86,1,1440694105293,1440694106097,434,265,0,0,0,1,2,1,12,0001-00-0009-32.png,0002-00-0003-08.png
00000009,87,0,1440694106942,1440694107618,913,541,0,0,0,2,3,1,23,0002-00-0001-48.png,0003-00-0003-89.png
00000009,88,1,1440694110842,1440694111536,387,266,0,0,0,4,5,1,45,0004-00-0001-96.png,0005-00-0005-39.png
00000009,89,0,1440694112363,1440694113180,430,255,0,0,0,2,1,1,21,0002-00-0002-48.png,0001-00-0001-06.png
00000009,90,1,1440694116388,1440694116408,936,328,0,0,0,4,3,1,43,0004-00-0001-88.png,0003-00-0002-56.png
00000009,91,0,1440694117247,1440694117484,959,461,0,0,0,3,4,1,34,0003-00-0006-15.png,0004-00-0004-79.png
00000009,92,0,1440694120592,1440694121160,1089,231,0,0,0,1,2,1,12,0001-00-0003-04.png,0002-00-0000-99.png
00000009,93,1,1440694124328,1440694124933,329,393,0,0,0,4,5,1,45,0004-00-0000-81.png,0005-00-0005-24.png
00000009,94,1,1440694126543,1440694127165,306,399,0,0,0,2,3,1,23,0002-00-0008-98.png,0003-00-0004-77.png
00000009,95,1,1440694128054,1440694128138,888,422,0,0,0,3,2,1,32,0003-00-0007-43.png,0002-00-0001-85.png
00000009,96,1,1440694129130,1440694130246,869,348,0,0,0,5,4,1,54,0005-00-0006-32.png,0004-00-0001-81.png
00000009,97,1,1440694131670,1440694131843,939,426,0,0,0,4,3,1,43,0004-00-0006-72.png,0003-00-0003-65.png
00000009,98,1,1440694132804,1440694133954,461,248,0,0,0,2,3,1,23,0002-00-0003-03.png,0003-00-0001-01.png
00000009,99,1,1440694135269,1440694135345,890,429,0,0,0,5,4,1,54,0005-00-0000-12.png,0004-00-0002-53.png
00000009,100,1,1440694136311,1440694137471,375,335,0,0,0,3,4,1,34,0003-00-0004-62.png,0004-00-0007-41.png
00000009,101,0,1440694138354,1440694139278,359,384,0,0,0,2,1,1,21,0002-00-0006-84.png,0001-00-0005-83.png
00000009,102,0,1440694142122,1440694142150,904,416,0,0,0,1,2,1,12,0001-00-0007-73.png,0002-00-0007-99.png
00000009,103,0,1440694145175,1440694145834,435,285,0,0,0,3,2,1,32,0003-00-0003-56.png,0002-00-0005-46.png
00000009,104,0,1440694148772,1440694148889,984,407,0,0,0,4,5,1,45,0004-00-0000-68.png,0005-00-0006-08.png
00000009,105,0,1440694151766,1440694151790,933,359,0,0,0,2,3,1,23,0002-00-0009-27.png,0003-00-0008-21.png
00000009,106,1,1440694154646,1440694155583,1067,270,0,0,0,2,1,1,21,0002-00-0008-47.png,0001-00-0003-07.png
00000009,107,1,1440694157180,1440694157972,1064,271,0,0,0,5,4,1,54,0005-00-0000-14.png,0004-00-0008-37.png
00000009,108,0,1440694159467,1440694159543,891,362,0,0,0,3,4,1,34,0003-00-0001-08.png,0004-00-0002-15.png
00000009,109,0,1440694162419,1440694163061,409,259,0,0,0,4,3,1,43,0004-00-0001-45.png,0003-00-0000-82.png
00000009,110,1,1440694165989,1440694166618,443,267,0,0,0,1,2,1,12,0001-00-0004-23.png,0002-00-0002-70.png
00000009,111,0,1440694167473,1440694167581,913,395,0,0,0,4,5,1,45,0004-00-0008-59.png,0005-00-0000-15.png
00000009,112,1,1440694170662,1440694171217,947,313,0,0,0,3,2,1,32,0003-00-0005-20.png,0002-00-0008-57.png
00000009,113,0,1440694173140,1440694173727,435,265,0,0,0,4,3,1,43,0004-00-0008-09.png,0003-00-0009-15.png
00000009,114,0,1440694176700,1440694177242,946,308,0,0,0,4,5,1,45,0004-00-0005-28.png,0005-00-0006-13.png
00000009,115,0,1440694180116,1440694180152,889,435,0,0,0,2,3,1,23,0002-00-0005-58.png,0003-00-0002-20.png
00000009,116,1,1440694183317,1440694183821,957,352,0,0,0,2,1,1,21,0002-00-0004-58.png,0001-00-0005-77.png
00000009,117,0,1440694185374,1440694185919,944,343,0,0,0,1,2,1,12,0001-00-0008-63.png,0002-00-0007-53.png
00000009,118,1,1440694189040,1440694189562,958,310,0,0,0,3,2,1,32,0003-00-0009-46.png,0002-00-0000-77.png
00000009,119,1,1440694191266,1440694191978,411,261,0,0,0,3,4,1,34,0003-00-0001-32.png,0004-00-0002-66.png
00000009,120,1,1440694193521,1440694193617,886,383,0,0,0,5,4,1,54,0005-00-0006-13.png,0004-00-0002-72.png
00000009,121,0,1440694194632,1440694194707,875,411,0,0,0,1,2,1,12,0001-00-0003-32.png,0002-00-0006-70.png
00000009,122,1,1440694197884,1440694197920,989,329,0,0,0,5,4,1,54,0005-00-0003-25.png,0004-00-0005-10.png
00000009,123,0,1440694198787,1440694198873,888,436,0,0,0,3,4,1,34,0003-00-0002-29.png,0004-00-0009-46.png
00000009,124,1,1440694201879,1440694202418,1039,272,0,0,0,4,3,1,43,0004-00-0006-27.png,0003-00-0009-52.png
00000009,125,0,1440694203873,1440694204161,979,390,0,0,0,4,5,1,45,0004-00-0004-45.png,0005-00-0009-48.png
00000009,126,0,1440694207208,1440694207741,941,330,0,0,0,2,3,1,23,0002-00-0001-90.png,0003-00-0009-85.png
00000009,127,1,1440694210886,1440694211429,896,327,0,0,0,3,2,1,32,0003-00-0005-11.png,0002-00-0002-73.png
00000009,128,0,1440694213069,1440694213628,357,342,0,0,0,2,1,1,21,0002-00-0000-14.png,0001-00-0003-82.png
00000009,129,1,1440694216795,1440694217321,941,338,0,0,0,2,1,1,21,0002-00-0001-01.png,0001-00-0003-59.png
00000009,130,0,1440694218693,1440694218769,917,388,0,0,0,1,2,1,12,0001-00-0009-72.png,0002-00-0008-25.png
00000009,131,1,1440694221774,1440694222335,343,379,0,0,0,2,3,1,23,0002-00-0005-00.png,0003-00-0008-37.png
00000009,132,0,1440694223161,1440694223249,913,384,0,0,0,4,5,1,45,0004-00-0002-34.png,0005-00-0007-40.png
00000009,133,0,1440694226414,1440694226934,1087,257,0,0,0,3,4,1,34,0003-00-0004-49.png,0004-00-0003-03.png
00000009,134,1,1440694230022,1440694230515,951,344,0,0,0,4,3,1,43,0004-00-0009-52.png,0003-00-0004-51.png
00000009,135,1,1440694231910,1440694232021,939,391,0,0,0,5,4,1,54,0005-00-0000-57.png,0004-00-0002-47.png
00000009,136,1,1440694233133,1440694233197,888,397,0,0,0,3,2,1,32,0003-00-0006-41.png,0002-00-0001-40.png
00000009,137,1,1440694234464,1440694234520,913,437,0,0,0,3,2,1,32,0003-00-0006-90.png,0002-00-0004-07.png
00000009,138,1,1440694235757,1440694235813,902,409,0,0,0,5,4,1,54,0005-00-0006-35.png,0004-00-0005-79.png
00000009,139,0,1440694237056,1440694237116,897,436,0,0,0,4,5,1,45,0004-00-0008-19.png,0005-00-0005-66.png
00000009,140,1,1440694240188,1440694240208,903,379,0,0,0,2,1,1,21,0002-00-0008-71.png,0001-00-0009-31.png
00000009,141,0,1440694241037,1440694241105,888,462,0,0,0,2,3,1,23,0002-00-0002-46.png,0003-00-0000-37.png
00000009,142,0,1440694244222,1440694244266,903,352,0,0,0,1,2,1,12,0001-00-0002-43.png,0002-00-0007-92.png
00000009,143,1,1440694247372,1440694247472,927,301,0,0,0,4,3,1,43,0004-00-0000-14.png,0003-00-0002-94.png
00000009,144,0,1440694248387,1440694248474,895,412,0,0,0,3,4,1,34,0003-00-0008-18.png,0004-00-0009-99.png
00000009,145,1,1440694251455,1440694251467,492,523,0,0,0,3,4,1,34,0003-00-0009-80.png,0004-00-0002-06.png
00000009,146,0,1440694252326,1440694252409,888,420,0,0,0,4,5,1,45,0004-00-0004-61.png,0005-00-0005-83.png
00000009,147,0,1440694255639,1440694256277,429,251,0,0,0,2,1,1,21,0002-00-0004-03.png,0001-00-0003-69.png
00000009,148,1,1440694259407,1440694259970,349,364,0,0,0,2,3,1,23,0002-00-0009-48.png,0003-00-0000-82.png
00000009,149,1,1440694260823,1440694260891,913,394,0,0,0,5,4,1,54,0005-00-0002-45.png,0004-00-0007-19.png
00000009,150,1,1440694261809,1440694261897,895,430,0,0,0,3,2,1,32,0003-00-0001-78.png,0002-00-0009-87.png
00000009,151,1,1440694263060,1440694263116,873,384,0,0,0,4,3,1,43,0004-00-0000-20.png,0003-00-0008-90.png
00000009,152,0,1440694264453,1440694264501,888,369,0,0,0,1,2,1,12,0001-00-0005-47.png,0002-00-0002-96.png
00000009,153,0,1440694267385,1440694267389,866,435,0,0,0,2,3,1,23,0002-00-0002-83.png,0003-00-0009-08.png
00000009,154,1,1440694270575,1440694271301,447,274,0,0,0,4,5,1,45,0004-00-0008-67.png,0005-00-0007-66.png
00000009,155,1,1440694272142,1440694272276,939,399,0,0,0,5,4,1,54,0005-00-0006-44.png,0004-00-0001-49.png
00000009,156,0,1440694273562,1440694273639,897,388,0,0,0,1,2,1,12,0001-00-0006-47.png,0002-00-0002-74.png
00000009,157,1,1440694276538,1440694276550,870,273,0,0,0,2,1,1,21,0002-00-0004-41.png,0001-00-0004-89.png
00000009,158,1,1440694277641,1440694277725,954,425,0,0,0,4,3,1,43,0004-00-0005-78.png,0003-00-0006-53.png
00000009,159,1,1440694279855,1440694280482,350,342,0,0,0,3,4,1,34,0003-00-0003-80.png,0004-00-0000-95.png
00000009,160,1,1440694281314,1440694281392,924,405,0,0,0,3,2,1,32,0003-00-0005-91.png,0002-00-0006-14.png
00000009,161,1,1440694282749,1440694284043,1055,264,0,0,0,4,3,1,43,0004-00-0004-26.png,0003-00-0008-63.png
00000009,162,1,1440694285581,1440694285697,911,386,0,0,0,2,1,1,21,0002-00-0009-03.png,0001-00-0009-16.png
00000009,163,0,1440694286662,1440694286718,873,393,0,0,0,2,3,1,23,0002-00-0002-34.png,0003-00-0002-81.png
00000009,164,0,1440694289843,1440694289879,939,332,0,0,0,3,4,1,34,0003-00-0007-31.png,0004-00-0004-52.png
00000009,165,1,1440694292844,1440694293370,915,337,0,0,0,5,4,1,54,0005-00-0005-73.png,0004-00-0008-59.png
00000009,166,1,1440694294961,1440694295549,467,249,0,0,0,1,2,1,12,0001-00-0007-60.png,0002-00-0008-67.png
00000009,167,0,1440694296432,1440694296508,889,457,0,0,0,4,5,1,45,0004-00-0000-74.png,0005-00-0005-90.png
00000009,168,0,1440694299572,1440694300182,342,340,0,0,0,3,2,1,32,0003-00-0004-62.png,0002-00-0005-99.png
00000009,169,1,1440694303305,1440694303827,1085,271,0,0,0,5,4,1,54,0005-00-0002-94.png,0004-00-0008-00.png
00000009,170,0,1440694305244,1440694305356,921,364,0,0,0,2,3,1,23,0002-00-0007-46.png,0003-00-0002-37.png
00000009,171,0,1440694308376,1440694308979,1092,282,0,0,0,3,4,1,34,0003-00-0007-64.png,0004-00-0002-79.png
00000009,172,1,1440694312472,1440694312952,932,349,0,0,0,3,2,1,32,0003-00-0002-52.png,0002-00-0007-25.png
00000009,173,1,1440694314319,1440694314423,940,376,0,0,0,2,1,1,21,0002-00-0001-68.png,0001-00-0001-81.png
00000009,174,1,1440694315562,1440694315630,906,418,0,0,0,4,3,1,43,0004-00-0001-70.png,0003-00-0009-71.png
00000009,175,0,1440694316683,1440694316719,862,368,0,0,0,4,5,1,45,0004-00-0005-00.png,0005-00-0009-52.png
00000009,176,1,1440694319680,1440694320273,457,253,0,0,0,1,2,1,12,0001-00-0000-49.png,0002-00-0003-81.png
00000009,177,0,1440694321583,1440694321729,913,394,0,0,0,1,2,1,12,0001-00-0009-50.png,0002-00-0005-20.png
00000009,178,0,1440694324904,1440694325424,916,323,0,0,0,3,4,1,34,0003-00-0004-49.png,0004-00-0006-28.png
00000009,179,1,1440694328400,1440694328963,943,338,0,0,0,2,1,1,21,0002-00-0002-57.png,0001-00-0005-10.png
00000009,180,1,1440694330397,1440694330599,964,358,0,0,0,5,4,1,54,0005-00-0003-10.png,0004-00-0001-55.png
00000009,181,0,1440694331730,1440694331806,913,395,0,0,0,2,3,1,23,0002-00-0000-46.png,0003-00-0007-40.png
00000009,182,1,1440694334799,1440694334823,861,415,0,0,0,4,3,1,43,0004-00-0002-85.png,0003-00-0006-10.png
00000009,183,1,1440694335680,1440694335824,892,425,0,0,0,3,2,1,32,0003-00-0000-07.png,0002-00-0006-68.png
00000009,184,0,1440694337226,1440694337309,862,422,0,0,0,4,5,1,45,0004-00-0009-72.png,0005-00-0005-62.png
00000009,185,0,1440694340290,1440694340907,476,260,0,0,0,2,1,1,21,0002-00-0005-96.png,0001-00-0008-37.png
00000009,186,0,1440694344032,1440694344068,946,361,0,0,0,4,5,1,45,0004-00-0007-74.png,0005-00-0006-14.png
00000009,187,1,1440694346892,1440694347417,886,345,0,0,0,3,2,1,32,0003-00-0008-89.png,0002-00-0003-27.png
00000009,188,0,1440694348931,1440694349065,913,377,0,0,0,3,4,1,34,0003-00-0007-67.png,0004-00-0007-28.png
00000009,189,1,1440694352180,1440694352700,938,334,0,0,0,4,3,1,43,0004-00-0004-70.png,0003-00-0005-49.png
00000009,190,1,1440694353525,1440694354571,347,385,0,0,0,2,3,1,23,0002-00-0008-02.png,0003-00-0001-05.png
00000009,191,1,1440694355409,1440694355477,918,426,0,0,0,5,4,1,54,0005-00-0007-61.png,0004-00-0009-82.png
00000009,192,0,1440694357020,1440694357115,901,440,0,0,0,1,2,1,12,0001-00-0002-36.png,0002-00-0007-52.png
00000009,193,1,1440694360210,1440694361187,456,253,0,0,0,2,3,1,23,0002-00-0009-22.png,0003-00-0005-24.png
00000009,194,0,1440694362682,1440694363260,892,340,0,0,0,3,4,1,34,0003-00-0003-53.png,0004-00-0005-12.png
00000009,195,1,1440694366162,1440694366186,890,415,0,0,0,4,3,1,43,0004-00-0009-78.png,0003-00-0009-95.png
00000009,196,1,1440694367921,1440694368436,918,339,0,0,0,2,1,1,21,0002-00-0007-83.png,0001-00-0002-52.png
00000009,197,1,1440694370017,1440694370150,917,403,0,0,0,5,4,1,54,0005-00-0008-81.png,0004-00-0009-65.png
00000009,198,1,1440694371330,1440694371386,878,392,0,0,0,3,2,1,32,0003-00-0002-19.png,0002-00-0008-38.png
00000009,199,0,1440694372620,1440694372668,873,435,0,0,0,1,2,1,12,0001-00-0004-71.png,0002-00-0007-60.png
00000009,200,1,1440694375821,1440694376496,346,353,0,0,0,4,5,1,45,0004-00-0005-35.png,0005-00-0000-08.png
00000009,201,0,1440694377987,1440694378100,995,332,0,0,0,4,5,1,45,0004-00-0001-53.png,0005-00-0009-58.png
00000009,202,0,1440694381237,1440694381293,977,368,0,0,0,2,3,1,23,0002-00-0006-29.png,0003-00-0006-35.png
00000009,203,1,1440694384406,1440694385020,394,347,0,0,0,1,2,1,12,0001-00-0002-07.png,0002-00-0006-46.png
00000009,204,0,1440694386543,1440694387198,368,347,0,0,0,4,3,1,43,0004-00-0008-02.png,0003-00-0000-13.png
00000009,205,0,1440694390091,1440694390595,908,321,0,0,0,3,4,1,34,0003-00-0007-33.png,0004-00-0006-96.png
00000009,206,1,1440694393559,1440694393583,859,413,0,0,0,5,4,1,54,0005-00-0008-20.png,0004-00-0009-98.png
00000009,207,1,1440694394422,1440694394550,939,436,0,0,0,3,2,1,32,0003-00-0009-79.png,0002-00-0001-78.png
00000009,208,1,1440694396114,1440694396166,895,382,0,0,0,2,1,1,21,0002-00-0008-68.png,0001-00-0001-55.png
00000009,209,0,1440694397136,1440694397212,888,394,0,0,0,1,2,1,12,0001-00-0006-56.png,0002-00-0009-43.png
00000009,210,1,1440694400374,1440694400402,936,322,0,0,0,5,4,1,54,0005-00-0007-44.png,0004-00-0008-18.png
00000009,211,1,1440694401236,1440694401304,903,416,0,0,0,3,2,1,32,0003-00-0003-11.png,0002-00-0005-95.png
00000009,212,1,1440694402771,1440694402872,871,410,0,0,0,4,3,1,43,0004-00-0001-37.png,0003-00-0004-65.png
00000009,213,0,1440694403746,1440694403817,877,442,0,0,0,2,3,1,23,0002-00-0006-74.png,0003-00-0009-66.png
00000009,214,1,1440694406835,1440694406891,911,410,0,0,0,2,1,1,21,0002-00-0005-45.png,0001-00-0006-39.png
00000009,215,0,1440694408338,1440694408547,976,384,0,0,0,4,5,1,45,0004-00-0001-71.png,0005-00-0007-41.png
00000009,216,0,1440694411625,1440694411633,873,376,0,0,0,3,4,1,34,0003-00-0002-64.png,0004-00-0004-71.png
00000009,217,1,1440694414619,1440694415245,362,407,0,0,0,1,2,1,12,0001-00-0004-04.png,0002-00-0005-71.png
00000009,218,0,1440694416979,1440694417631,935,322,0,0,0,3,4,1,34,0003-00-0008-49.png,0004-00-0005-28.png
00000009,219,1,1440694420528,1440694421250,349,399,0,0,0,4,5,1,45,0004-00-0006-02.png,0005-00-0008-51.png
00000009,220,1,1440694422665,1440694422761,909,356,0,0,0,5,4,1,54,0005-00-0009-44.png,0004-00-0007-90.png
00000009,221,0,1440694423918,1440694424018,899,403,0,0,0,2,3,1,23,0002-00-0000-20.png,0003-00-0002-43.png
00000009,222,1,1440694426937,1440694427592,917,313,0,0,0,3,2,1,32,0003-00-0002-58.png,0002-00-0002-17.png
00000009,223,1,1440694428995,1440694429242,960,378,0,0,0,2,1,1,21,0002-00-0003-81.png,0001-00-0003-95.png
00000009,224,0,1440694430157,1440694431907,334,343,0,0,0,4,3,1,43,0004-00-0006-86.png,0003-00-0005-85.png
00000009,225,1,1440694434968,1440694435016,945,411,0,0,0,3,2,1,32,0003-00-0006-81.png,0002-00-0001-17.png
00000009,226,0,1440694436385,1440694436493,942,389,0,0,0,4,5,1,45,0004-00-0009-48.png,0005-00-0004-78.png
00000009,227,1,1440694439327,1440694439979,431,299,0,0,0,2,3,1,23,0002-00-0002-94.png,0003-00-0003-89.png
00000009,228,0,1440694440818,1440694441980,881,375,0,0,0,1,2,1,12,0001-00-0007-78.png,0002-00-0001-02.png
00000009,229,0,1440694445134,1440694445158,951,332,0,0,0,3,4,1,34,0003-00-0007-31.png,0004-00-0004-52.png
00000009,230,0,1440694448253,1440694448865,369,360,0,0,0,5,4,1,54,0005-00-0002-83.png,0004-00-0002-28.png
00000009,231,0,1440694452041,1440694452735,370,401,0,0,0,4,3,1,43,0004-00-0005-32.png,0003-00-0005-42.png
00000009,232,0,1440694455757,1440694456577,404,283,0,0,0,2,1,1,21,0002-00-0008-18.png,0001-00-0006-56.png
00000009,233,1,1440694459773,1440694459809,957,331,0,0,0,5,4,1,54,0005-00-0002-90.png,0004-00-0002-05.png
00000009,234,1,1440694461324,1440694461658,959,381,0,0,0,3,2,1,32,0003-00-0005-41.png,0002-00-0000-61.png
00000009,235,1,1440694462676,1440694462748,908,387,0,0,0,4,3,1,43,0004-00-0001-65.png,0003-00-0009-88.png
00000009,236,0,1440694463856,1440694463922,888,384,0,0,0,2,3,1,23,0002-00-0007-74.png,0003-00-0003-13.png
00000009,237,1,1440694467106,1440694467142,926,328,0,0,0,2,1,1,21,0002-00-0001-16.png,0001-00-0007-34.png
00000009,238,0,1440694468008,1440694468076,888,410,0,0,0,4,5,1,45,0004-00-0002-75.png,0005-00-0005-28.png
00000009,239,0,1440694471211,1440694471287,981,352,0,0,0,3,4,1,34,0003-00-0002-47.png,0004-00-0006-71.png
00000009,240,0,1440694474432,1440694474468,959,355,0,0,0,1,2,1,12,0001-00-0004-34.png,0002-00-0007-58.png
00000009,241,0,1440694477629,1440694477657,952,355,0,0,0,1,2,1,12,0001-00-0006-98.png,0002-00-0006-05.png
00000009,242,1,1440694480736,1440694481334,371,355,0,0,0,2,3,1,23,0002-00-0003-84.png,0003-00-0009-02.png
00000009,243,0,1440694482164,1440694482256,963,380,0,0,0,4,5,1,45,0004-00-0006-62.png,0005-00-0005-71.png
00000009,244,1,1440694485401,1440694486040,955,343,0,0,0,3,2,1,32,0003-00-0008-56.png,0002-00-0003-41.png
00000009,245,0,1440694487408,1440694487472,947,375,0,0,0,3,4,1,34,0003-00-0003-84.png,0004-00-0002-61.png
00000009,246,1,1440694490617,1440694491502,955,306,0,0,0,5,4,1,54,0005-00-0000-69.png,0004-00-0006-05.png
00000009,247,1,1440694492972,1440694493084,962,355,0,0,0,4,3,1,43,0004-00-0007-83.png,0003-00-0009-55.png
00000009,248,1,1440694494066,1440694494162,907,418,0,0,0,2,1,1,21,0002-00-0004-47.png,0001-00-0009-41.png
00000009,249,0,1440694495277,1440694495333,940,326,0,0,0,1,2,1,12,0001-00-0009-72.png,0002-00-0007-55.png
00000009,250,1,1440694498478,1440694499140,446,257,0,0,0,4,5,1,45,0004-00-0009-85.png,0005-00-0002-57.png
00000009,251,1,1440694500663,1440694500747,897,384,0,0,0,5,4,1,54,0005-00-0001-84.png,0004-00-0004-23.png
00000009,252,0,1440694501866,1440694501931,880,394,0,0,0,3,4,1,34,0003-00-0002-23.png,0004-00-0008-25.png
00000009,253,1,1440694505102,1440694505689,935,326,0,0,0,2,1,1,21,0002-00-0004-27.png,0001-00-0004-42.png
00000009,254,1,1440694507142,1440694507275,933,381,0,0,0,3,2,1,32,0003-00-0002-76.png,0002-00-0006-31.png
00000009,255,1,1440694508149,1440694508235,913,410,0,0,0,4,3,1,43,0004-00-0004-99.png,0003-00-0007-01.png
00000009,256,0,1440694509497,1440694509537,916,417,0,0,0,2,3,1,23,0002-00-0009-49.png,0003-00-0006-06.png
00000009,257,1,1440694512667,1440694513239,468,264,0,0,0,2,3,1,23,0002-00-0003-43.png,0003-00-0001-45.png
00000009,258,1,1440694514634,1440694514730,901,371,0,0,0,2,1,1,21,0002-00-0005-17.png,0001-00-0005-74.png
00000009,259,1,1440694515916,1440694516004,894,402,0,0,0,3,2,1,32,0003-00-0001-72.png,0002-00-0000-21.png
00000009,260,1,1440694517091,1440694517119,895,438,0,0,0,4,3,1,43,0004-00-0008-93.png,0003-00-0005-38.png
00000009,261,1,1440694518681,1440694519584,357,351,0,0,0,3,4,1,34,0003-00-0001-46.png,0004-00-0001-16.png
00000009,262,1,1440694521005,1440694521081,899,395,0,0,0,5,4,1,54,0005-00-0000-70.png,0004-00-0007-09.png
00000009,263,0,1440694522155,1440694522223,908,444,0,0,0,4,5,1,45,0004-00-0000-12.png,0005-00-0007-25.png
00000009,264,0,1440694525098,1440694525162,919,462,0,0,0,1,2,1,12,0001-00-0004-38.png,0002-00-0003-09.png
00000009,265,1,1440694528091,1440694528596,922,333,0,0,0,5,4,1,54,0005-00-0005-62.png,0004-00-0007-07.png
00000009,266,1,1440694530019,1440694530176,979,362,0,0,0,3,2,1,32,0003-00-0002-89.png,0002-00-0005-54.png
00000009,267,0,1440694531318,1440694532299,381,345,0,0,0,2,1,1,21,0002-00-0000-26.png,0001-00-0003-60.png
00000009,268,0,1440694535551,1440694536063,940,298,0,0,0,4,5,1,45,0004-00-0004-02.png,0005-00-0005-48.png
00000009,269,1,1440694539143,1440694539769,471,271,0,0,0,1,2,1,12,0001-00-0004-95.png,0002-00-0008-01.png
00000009,270,0,1440694540633,1440694540745,979,436,0,0,0,3,4,1,34,0003-00-0004-36.png,0004-00-0007-15.png
00000009,271,1,1440694543913,1440694544467,942,323,0,0,0,4,3,1,43,0004-00-0005-58.png,0003-00-0005-13.png
00000009,272,0,1440694545373,1440694545473,954,436,0,0,0,2,3,1,23,0002-00-0002-18.png,0003-00-0006-99.png
00000009,273,1,1440694548603,1440694548647,991,308,0,0,0,2,1,1,21,0002-00-0005-24.png,0001-00-0007-17.png
00000009,274,0,1440694549557,1440694549613,931,417,0,0,0,1,2,1,12,0001-00-0009-97.png,0002-00-0008-65.png
00000009,275,0,1440694552762,1440694553390,392,385,0,0,0,4,3,1,43,0004-00-0000-16.png,0003-00-0002-12.png
00000009,276,1,1440694556533,1440694556557,942,362,0,0,0,3,2,1,32,0003-00-0001-10.png,0002-00-0005-58.png
00000009,277,1,1440694557453,1440694559099,345,337,0,0,0,4,5,1,45,0004-00-0005-67.png,0005-00-0007-22.png
00000009,278,0,1440694560617,1440694560721,914,385,0,0,0,3,4,1,34,0003-00-0002-62.png,0004-00-0002-27.png
00000009,279,0,1440694563795,1440694564509,494,251,0,0,0,5,4,1,54,0005-00-0007-50.png,0004-00-0000-43.png
00000009,280,0,1440694567593,1440694568174,933,351,0,0,0,2,3,1,23,0002-00-0009-57.png,0003-00-0005-04.png
00000009,281,0,1440694571220,1440694571851,334,365,0,0,0,3,2,1,32,0003-00-0004-09.png,0002-00-0009-86.png
00000009,282,1,1440694574985,1440694575483,947,334,0,0,0,4,3,1,43,0004-00-0006-78.png,0003-00-0002-87.png
00000009,283,0,1440694576961,1440694577037,924,368,0,0,0,3,4,1,34,0003-00-0009-00.png,0004-00-0004-87.png
00000009,284,0,1440694579861,1440694579929,990,436,0,0,0,1,2,1,12,0001-00-0003-61.png,0002-00-0008-50.png
00000009,285,1,1440694583101,1440694583738,479,271,0,0,0,4,5,1,45,0004-00-0007-05.png,0005-00-0000-16.png
00000009,286,1,1440694585489,1440694586029,940,322,0,0,0,5,4,1,54,0005-00-0002-93.png,0004-00-0005-60.png
00000009,287,0,1440694587536,1440694587592,902,355,0,0,0,2,3,1,23,0002-00-0005-51.png,0003-00-0002-75.png
00000009,288,1,1440694590557,1440694590569,862,322,0,0,0,2,1,1,21,0002-00-0004-33.png,0001-00-0003-81.png
00000009,289,1,1440694591397,1440694591501,920,400,0,0,0,4,3,1,43,0004-00-0009-56.png,0003-00-0006-31.png
00000009,290,1,1440694593051,1440694593127,881,420,0,0,0,5,4,1,54,0005-00-0008-66.png,0004-00-0003-35.png
00000009,291,0,1440694594123,1440694594159,891,421,0,0,0,4,5,1,45,0004-00-0002-84.png,0005-00-0003-48.png
00000009,292,0,1440694597283,1440694597907,489,235,0,0,0,2,1,1,21,0002-00-0000-09.png,0001-00-0009-72.png
00000009,293,0,1440694601011,1440694601035,898,381,0,0,0,1,2,1,12,0001-00-0002-22.png,0002-00-0007-14.png
00000009,294,1,1440694604180,1440694604708,1090,283,0,0,0,3,2,1,32,0003-00-0004-66.png,0002-00-0009-97.png
00000009,295,0,1440694606209,1440694606905,930,329,0,0,0,2,3,1,23,0002-00-0000-28.png,0003-00-0003-24.png
00000009,296,0,1440694609816,1440694610398,1066,271,0,0,0,3,4,1,34,0003-00-0009-51.png,0004-00-0009-31.png
00000009,297,1,1440694613422,1440694613998,1090,280,0,0,0,5,4,1,54,0005-00-0009-13.png,0004-00-0008-15.png
00000009,298,0,1440694615471,1440694615675,938,378,0,0,0,2,3,1,23,0002-00-0004-68.png,0003-00-0000-85.png
00000009,299,0,1440694618796,1440694618856,939,335,0,0,0,3,4,1,34,0003-00-0008-79.png,0004-00-0001-10.png
00000009,300,1,1440694621695,1440694622344,473,269,0,0,0,4,5,1,45,0004-00-0003-14.png,0005-00-0004-49.png
00000009,301,1,1440694623867,1440694623968,939,358,0,0,0,4,3,1,43,0004-00-0006-84.png,0003-00-0001-43.png
00000009,302,1,1440694625078,1440694625130,881,365,0,0,0,3,2,1,32,0003-00-0008-41.png,0002-00-0009-75.png
00000009,303,0,1440694626342,1440694626398,913,395,0,0,0,1,2,1,12,0001-00-0009-75.png,0002-00-0001-18.png
00000009,304,1,1440694629249,1440694630180,922,301,0,0,0,2,1,1,21,0002-00-0009-31.png,0001-00-0005-98.png
00000009,305,0,1440694631449,1440694631580,939,426,0,0,0,2,3,1,23,0002-00-0005-51.png,0003-00-0006-32.png
00000009,306,1,1440694634705,1440694635284,361,372,0,0,0,1,2,1,12,0001-00-0001-90.png,0002-00-0008-55.png
00000009,307,1,1440694636636,1440694636746,945,361,0,0,0,2,1,1,21,0002-00-0004-35.png,0001-00-0008-20.png
00000009,308,1,1440694637977,1440694638061,904,418,0,0,0,5,4,1,54,0005-00-0001-99.png,0004-00-0007-55.png
00000009,309,1,1440694639180,1440694639236,928,428,0,0,0,3,2,1,32,0003-00-0006-61.png,0002-00-0007-03.png
00000009,310,0,1440694640671,1440694640739,922,410,0,0,0,4,5,1,45,0004-00-0001-89.png,0005-00-0005-30.png
00000009,311,1,1440694643852,1440694643888,944,347,0,0,0,4,3,1,43,0004-00-0003-84.png,0003-00-0005-88.png
00000009,312,0,1440694644702,1440694644807,913,445,0,0,0,3,4,1,34,0003-00-0007-79.png,0004-00-0001-65.png
00000009,313,1,1440694648003,1440694648099,956,294,0,0,0,3,2,1,32,0003-00-0004-54.png,0002-00-0001-60.png
00000009,314,1,1440694648943,1440694649019,950,410,0,0,0,2,1,1,21,0002-00-0007-78.png,0001-00-0003-58.png
00000009,315,0,1440694650540,1440694650596,862,398,0,0,0,4,5,1,45,0004-00-0001-04.png,0005-00-0009-30.png
00000009,316,1,1440694653758,1440694654303,1140,255,0,0,0,5,4,1,54,0005-00-0009-04.png,0004-00-0009-15.png
00000009,317,0,1440694655567,1440694655663,940,409,0,0,0,1,2,1,12,0001-00-0005-66.png,0002-00-0002-33.png
00000009,318,0,1440694658490,1440694659101,900,324,0,0,0,3,4,1,34,0003-00-0002-69.png,0004-00-0005-48.png
00000009,319,1,1440694662086,1440694662612,948,326,0,0,0,4,3,1,43,0004-00-0006-57.png,0003-00-0002-85.png
00000009,320,0,1440694664003,1440694664079,944,364,0,0,0,2,3,1,23,0002-00-0006-88.png,0003-00-0009-86.png
00000009,321,1,1440694666915,1440694667891,416,258,0,0,0,3,4,1,34,0003-00-0002-91.png,0004-00-0000-82.png
00000009,322,1,1440694668731,1440694668824,924,436,0,0,0,2,1,1,21,0002-00-0004-48.png,0001-00-0007-15.png
00000009,323,1,1440694670105,1440694670180,905,418,0,0,0,3,2,1,32,0003-00-0004-09.png,0002-00-0009-56.png
00000009,324,1,1440694671376,1440694671444,920,399,0,0,0,4,3,1,43,0004-00-0009-81.png,0003-00-0002-70.png
00000009,325,0,1440694672580,1440694672644,888,409,0,0,0,2,3,1,23,0002-00-0003-04.png,0003-00-0002-10.png
00000009,326,1,1440694675790,1440694676525,354,363,0,0,0,4,5,1,45,0004-00-0008-96.png,0005-00-0003-57.png
00000009,327,0,1440694677345,1440694677433,913,392,0,0,0,1,2,1,12,0001-00-0005-56.png,0002-00-0009-98.png
00000009,328,0,1440694680579,1440694681143,509,286,0,0,0,5,4,1,54,0005-00-0007-91.png,0004-00-0000-36.png
00000009,329,1,1440694684012,1440694684052,902,435,0,0,0,4,3,1,43,0004-00-0008-95.png,0003-00-0000-57.png
00000009,330,1,1440694684912,1440694684996,956,443,0,0,0,2,1,1,21,0002-00-0008-95.png,0001-00-0001-72.png
00000009,331,0,1440694686552,1440694686646,888,436,0,0,0,2,3,1,23,0002-00-0006-25.png,0003-00-0006-81.png
00000009,332,1,1440694690059,1440694690594,964,343,0,0,0,3,2,1,32,0003-00-0000-54.png,0002-00-0001-94.png
00000009,333,0,1440694691938,1440694692315,964,408,0,0,0,4,5,1,45,0004-00-0006-13.png,0005-00-0000-02.png
00000009,334,0,1440694695494,1440694695542,1003,342,0,0,0,3,4,1,34,0003-00-0005-98.png,0004-00-0003-28.png
00000009,335,1,1440694698646,1440694699161,957,349,0,0,0,5,4,1,54,0005-00-0005-18.png,0004-00-0005-25.png
00000009,336,0,1440694700624,1440694700789,962,338,0,0,0,1,2,1,12,0001-00-0000-25.png,0002-00-0003-83.png
00000009,337,0,1440694703923,1440694704450,948,321,0,0,0,1,2,1,12,0001-00-0007-89.png,0002-00-0002-16.png
00000009,338,1,1440694707539,1440694708076,981,299,0,0,0,5,4,1,54,0005-00-0002-01.png,0004-00-0002-68.png
00000009,339,1,1440694709457,1440694709580,970,355,0,0,0,2,1,1,21,0002-00-0007-40.png,0001-00-0002-09.png
00000009,340,0,1440694710717,1440694710791,904,384,0,0,0,3,4,1,34,0003-00-0002-94.png,0004-00-0002-79.png
00000009,341,1,1440694713986,1440694714546,485,231,0,0,0,2,3,1,23,0002-00-0000-16.png,0003-00-0001-30.png
00000009,342,1,1440694715365,1440694715429,943,359,0,0,0,4,3,1,43,0004-00-0003-41.png,0003-00-0002-50.png
00000009,343,1,1440694717208,1440694717304,904,384,0,0,0,3,2,1,32,0003-00-0000-96.png,0002-00-0004-21.png
00000009,344,0,1440694718148,1440694718207,917,392,0,0,0,4,5,1,45,0004-00-0007-89.png,0005-00-0002-33.png
00000009,345,1,1440694721403,1440694721989,455,240,0,0,0,3,4,1,34,0003-00-0004-85.png,0004-00-0000-17.png
00000009,346,0,1440694723310,1440694723433,972,353,0,0,0,1,2,1,12,0001-00-0004-17.png,0002-00-0006-21.png
00000009,347,0,1440694726540,1440694726556,939,353,0,0,0,2,3,1,23,0002-00-0000-01.png,0003-00-0003-61.png
00000009,348,1,1440694729430,1440694729470,860,449,0,0,0,3,2,1,32,0003-00-0006-19.png,0002-00-0000-41.png
00000009,349,1,1440694730852,1440694730956,939,358,0,0,0,4,3,1,43,0004-00-0000-71.png,0003-00-0007-05.png
00000009,350,0,1440694732231,1440694732339,924,410,0,0,0,4,5,1,45,0004-00-0003-40.png,0005-00-0006-08.png
00000009,351,1,1440694735489,1440694736001,943,358,0,0,0,2,1,1,21,0002-00-0009-71.png,0001-00-0005-93.png
00000009,352,1,1440694737432,1440694737582,959,349,0,0,0,5,4,1,54,0005-00-0005-29.png,0004-00-0008-10.png
00000009,353,0,1440694738684,1440694738774,925,410,0,0,0,3,4,1,34,0003-00-0006-10.png,0004-00-0006-27.png
00000009,354,1,1440694741833,1440694742336,964,336,0,0,0,5,4,1,54,0005-00-0005-58.png,0004-00-0005-17.png
00000009,355,0,1440694743780,1440694743855,938,354,0,0,0,2,3,1,23,0002-00-0006-25.png,0003-00-0002-57.png
00000009,356,1,1440694746861,1440694747352,384,412,0,0,0,1,2,1,12,0001-00-0006-47.png,0002-00-0003-86.png
00000009,357,1,1440694748886,1440694748914,910,308,0,0,0,4,3,1,43,0004-00-0004-39.png,0003-00-0002-54.png
00000009,358,0,1440694749892,1440694749986,888,436,0,0,0,4,5,1,45,0004-00-0006-81.png,0005-00-0004-56.png
00000009,359,1,1440694753138,1440694753739,904,288,0,0,0,2,1,1,21,0002-00-0002-38.png,0001-00-0004-21.png
00000009,360,1,1440694755048,1440694756005,880,329,0,0,0,3,2,1,32,0003-00-0006-93.png,0002-00-0008-72.png
00000009,361,1,1440694757435,1440694757467,923,359,0,0,0,2,1,1,21,0002-00-0006-44.png,0001-00-0001-95.png
00000009,362,0,1440694758485,1440694758537,893,416,0,0,0,1,2,1,12,0001-00-0003-10.png,0002-00-0002-59.png
00000009,363,1,1440694761589,1440694762152,1093,254,0,0,0,3,2,1,32,0003-00-0007-10.png,0002-00-0007-47.png
00000009,364,0,1440694763478,1440694763546,938,345,0,0,0,3,4,1,34,0003-00-0006-33.png,0004-00-0003-51.png
00000009,365,0,1440694766644,1440694767208,982,313,0,0,0,2,3,1,23,0002-00-0008-23.png,0003-00-0003-05.png
00000009,366,1,1440694770339,1440694770391,989,335,0,0,0,5,4,1,54,0005-00-0005-98.png,0004-00-0000-93.png
00000009,367,0,1440694771734,1440694771809,940,331,0,0,0,4,5,1,45,0004-00-0007-39.png,0005-00-0009-05.png
00000009,368,1,1440694774945,1440694774971,958,378,0,0,0,4,3,1,43,0004-00-0007-63.png,0003-00-0003-67.png
00000009,369,1,1440694775828,1440694775876,964,424,0,0,0,4,3,1,43,0004-00-0003-22.png,0003-00-0005-54.png
00000009,370,0,1440694777229,1440694777285,881,421,0,0,0,3,4,1,34,0003-00-0006-29.png,0004-00-0001-74.png
00000009,371,0,1440694780410,1440694780931,1041,262,0,0,0,4,5,1,45,0004-00-0009-99.png,0005-00-0002-33.png
00000009,372,0,1440694784175,1440694784203,918,354,0,0,0,1,2,1,12,0001-00-0008-07.png,0002-00-0001-77.png
00000009,373,0,1440694787312,1440694788019,966,331,0,0,0,2,3,1,23,0002-00-0002-66.png,0003-00-0009-63.png
00000009,374,1,1440694791082,1440694791099,915,396,0,0,0,3,2,1,32,0003-00-0001-55.png,0002-00-0003-26.png
00000009,375,1,1440694792485,1440694792583,913,343,0,0,0,5,4,1,54,0005-00-0002-48.png,0004-00-0000-91.png
00000009,376,1,1440694793696,1440694793764,913,397,0,0,0,2,1,1,21,0002-00-0005-12.png,0001-00-0002-91.png
00000009,377,0,1440694794878,1440694794942,913,397,0,0,0,3,4,1,34,0003-00-0004-67.png,0004-00-0000-34.png
00000009,378,0,1440694798089,1440694798754,1079,237,0,0,0,1,2,1,12,0001-00-0006-41.png,0002-00-0006-20.png
00000009,379,0,1440694801914,1440694801934,915,329,0,0,0,2,3,1,23,0002-00-0000-57.png,0003-00-0004-96.png
00000009,380,0,1440694805137,1440694805701,365,386,0,0,0,4,3,1,43,0004-00-0001-08.png,0003-00-0001-74.png
00000009,381,0,1440694808852,1440694809488,459,291,0,0,0,2,1,1,21,0002-00-0005-51.png,0001-00-0007-18.png
00000009,382,1,1440694812643,1440694812703,1034,364,0,0,0,5,4,1,54,0005-00-0009-24.png,0004-00-0000-73.png
00000009,383,0,1440694813538,1440694813798,964,436,0,0,0,4,5,1,45,0004-00-0003-35.png,0005-00-0009-13.png
00000009,384,0,1440694816949,1440694817671,394,320,0,0,0,3,2,1,32,0003-00-0005-97.png,0002-00-0009-02.png
00000009,385,0,1440694820657,1440694821208,930,347,0,0,0,2,3,1,23,0002-00-0003-89.png,0003-00-0003-12.png
00000009,386,1,1440694824342,1440694824895,1150,269,0,0,0,2,1,1,21,0002-00-0008-88.png,0001-00-0002-67.png
00000009,387,0,1440694826341,1440694826417,930,313,0,0,0,3,4,1,34,0003-00-0002-30.png,0004-00-0009-97.png
00000009,388,1,1440694829907,1440694830504,946,279,0,0,0,5,4,1,54,0005-00-0007-44.png,0004-00-0001-94.png
00000009,389,1,1440694831815,1440694833172,365,350,0,0,0,4,5,1,45,0004-00-0004-97.png,0005-00-0009-51.png
00000009,390,1,1440694834027,1440694835565,436,241,0,0,0,1,2,1,12,0001-00-0003-74.png,0002-00-0007-68.png
00000009,391,1,1440694836403,1440694836565,924,488,0,0,0,4,3,1,43,0004-00-0008-37.png,0003-00-0000-68.png
00000009,392,0,1440694838034,1440694838921,356,378,0,0,0,3,2,1,32,0003-00-0000-49.png,0002-00-0004-25.png
00000009,393,0,1440694842419,1440694842433,862,358,0,0,0,2,3,1,23,0002-00-0007-41.png,0003-00-0007-14.png
00000009,394,1,1440694845390,1440694845887,946,353,0,0,0,4,3,1,43,0004-00-0003-83.png,0003-00-0006-01.png
00000009,395,1,1440694847415,1440694847941,906,358,0,0,0,2,1,1,21,0002-00-0006-28.png,0001-00-0004-34.png
00000009,396,0,1440694849357,1440694849440,939,402,0,0,0,3,4,1,34,0003-00-0007-79.png,0004-00-0003-06.png
00000009,397,0,1440694852363,1440694853119,1069,288,0,0,0,4,5,1,45,0004-00-0009-67.png,0005-00-0009-62.png
00000009,398,0,1440694856313,1440694856836,930,356,0,0,0,1,2,1,12,0001-00-0003-77.png,0002-00-0003-54.png
00000009,399,1,1440694859940,1440694860493,952,284,0,0,0,5,4,1,54,0005-00-0004-89.png,0004-00-0004-32.png
00000009,400,1,1440694862185,1440694862676,965,302,0,0,0,3,2,1,32,0003-00-0006-87.png,0002-00-0005-99.png
00000009,401,1,1440694863531,1440694864857,936,303,0,0,0,5,4,1,54,0005-00-0001-79.png,0004-00-0008-58.png
00000009,402,0,1440694865751,1440694866824,488,262,0,0,0,3,2,1,32,0003-00-0008-05.png,0002-00-0004-43.png
00000009,403,0,1440694869937,1440694870403,943,352,0,0,0,2,3,1,23,0002-00-0003-11.png,0003-00-0003-05.png
00000009,404,0,1440694873512,1440694874140,967,327,0,0,0,4,5,1,45,0004-00-0002-26.png,0005-00-0009-64.png
00000009,405,0,1440694877021,1440694877813,941,324,0,0,0,3,4,1,34,0003-00-0005-82.png,0004-00-0001-68.png
00000009,406,1,1440694880958,1440694880978,927,326,0,0,0,2,1,1,21,0002-00-0004-01.png,0001-00-0007-13.png
00000009,407,1,1440694881921,1440694882036,1037,386,0,0,0,4,3,1,43,0004-00-0004-65.png,0003-00-0001-60.png
00000009,408,0,1440694883560,1440694883628,901,390,0,0,0,1,2,1,12,0001-00-0003-50.png,0002-00-0000-58.png
00000009,409,1,1440694886513,1440694887046,962,298,0,0,0,3,2,1,32,0003-00-0000-61.png,0002-00-0004-88.png
00000009,410,0,1440694888598,1440694889244,937,341,0,0,0,3,4,1,34,0003-00-0000-54.png,0004-00-0002-09.png
00000009,411,0,1440694892392,1440694892432,950,338,0,0,0,4,5,1,45,0004-00-0006-35.png,0005-00-0000-92.png
00000009,412,1,1440694895642,1440694896309,454,274,0,0,0,2,3,1,23,0002-00-0008-20.png,0003-00-0003-07.png
00000009,413,1,1440694897968,1440694898832,934,327,0,0,0,5,4,1,54,0005-00-0005-65.png,0004-00-0004-59.png
00000009,414,0,1440694899645,1440694899733,950,384,0,0,0,1,2,1,12,0001-00-0009-98.png,0002-00-0004-47.png
00000009,415,1,1440694902650,1440694903432,1067,257,0,0,0,4,3,1,43,0004-00-0001-73.png,0003-00-0006-15.png
00000009,416,1,1440694904865,1440694905032,954,385,0,0,0,2,1,1,21,0002-00-0002-80.png,0001-00-0009-09.png
00000009,417,0,1440694906138,1440694906198,931,390,0,0,0,3,4,1,34,0003-00-0004-25.png,0004-00-0000-24.png
00000009,418,1,1440694909365,1440694909971,1058,282,0,0,0,3,2,1,32,0003-00-0008-41.png,0002-00-0003-31.png
00000009,419,1,1440694911395,1440694911485,931,370,0,0,0,2,1,1,21,0002-00-0000-28.png,0001-00-0007-55.png
00000009,420,1,1440694912606,1440694912698,897,410,0,0,0,5,4,1,54,0005-00-0008-37.png,0004-00-0004-89.png
00000009,421,0,1440694913887,1440694913937,913,396,0,0,0,4,5,1,45,0004-00-0000-23.png,0005-00-0002-63.png
00000009,422,1,1440694917475,1440694918101,465,270,0,0,0,1,2,1,12,0001-00-0007-35.png,0002-00-0009-02.png
00000009,423,0,1440694919504,1440694919616,930,384,0,0,0,2,3,1,23,0002-00-0005-57.png,0003-00-0007-85.png
00000009,424,0,1440694922749,1440694923374,473,266,0,0,0,4,3,1,43,0004-00-0009-30.png,0003-00-0007-02.png
00000009,425,1,1440694926369,1440694927189,354,387,0,0,0,2,3,1,23,0002-00-0001-05.png,0003-00-0007-14.png
00000009,426,1,1440694928056,1440694928147,912,408,0,0,0,5,4,1,54,0005-00-0000-94.png,0004-00-0009-79.png
00000009,427,1,1440694929747,1440694929795,911,408,0,0,0,2,1,1,21,0002-00-0009-89.png,0001-00-0002-11.png
00000009,428,1,1440694930683,1440694930751,905,432,0,0,0,4,3,1,43,0004-00-0002-41.png,0003-00-0000-55.png
00000009,429,1,1440694932004,1440694932060,921,417,0,0,0,3,2,1,32,0003-00-0005-74.png,0002-00-0006-57.png
00000009,430,0,1440694933603,1440694933659,890,400,0,0,0,3,4,1,34,0003-00-0000-33.png,0004-00-0005-48.png
00000009,431,0,1440694936634,1440694937236,930,316,0,0,0,1,2,1,12,0001-00-0007-24.png,0002-00-0001-87.png
00000009,432,1,1440694940075,1440694940716,345,400,0,0,0,4,5,1,45,0004-00-0008-51.png,0005-00-0008-87.png
00000009,433,0,1440694942328,1440694942858,969,329,0,0,0,3,4,1,34,0003-00-0004-88.png,0004-00-0007-83.png
00000009,434,1,1440694945926,1440694946462,917,329,0,0,0,4,3,1,43,0004-00-0004-99.png,0003-00-0008-64.png
00000009,435,1,1440694947893,1440694948188,977,384,0,0,0,2,1,1,21,0002-00-0005-01.png,0001-00-0001-15.png
00000009,436,0,1440694949254,1440694949318,939,394,0,0,0,2,3,1,23,0002-00-0004-60.png,0003-00-0005-98.png
00000009,437,0,1440694952206,1440694952214,501,469,0,0,0,5,4,1,54,0005-00-0002-41.png,0004-00-0002-11.png
00000009,438,1,1440694955187,1440694955832,380,368,0,0,0,4,5,1,45,0004-00-0006-73.png,0005-00-0004-86.png
00000009,439,1,1440694957394,1440694957993,947,325,0,0,0,3,2,1,32,0003-00-0005-90.png,0002-00-0003-38.png
00000009,440,0,1440694959446,1440694959534,909,387,0,0,0,1,2,1,12,0001-00-0005-29.png,0002-00-0000-74.png
00000009,441,0,1440694962770,1440694963474,468,259,0,0,0,4,3,1,43,0004-00-0000-54.png,0003-00-0005-52.png
00000009,442,1,1440694966314,1440694966833,930,353,0,0,0,5,4,1,54,0005-00-0001-10.png,0004-00-0003-13.png
00000009,443,0,1440694968197,1440694968417,968,380,0,0,0,1,2,1,12,0001-00-0008-35.png,0002-00-0002-08.png
00000009,444,0,1440694971514,1440694972043,949,320,0,0,0,3,4,1,34,0003-00-0001-22.png,0004-00-0004-33.png
00000009,445,0,1440694975048,1440694975875,1092,289,0,0,0,4,5,1,45,0004-00-0000-99.png,0005-00-0008-97.png
00000009,446,0,1440694978950,1440694979176,913,423,0,0,0,2,3,1,23,0002-00-0003-84.png,0003-00-0006-64.png
00000009,447,1,1440694982392,1440694983065,913,358,0,0,0,3,2,1,32,0003-00-0008-79.png,0002-00-0002-33.png
00000009,448,1,1440694984660,1440694985199,975,413,0,0,0,2,1,1,21,0002-00-0001-90.png,0001-00-0006-60.png
00000009,449,1,1440694986089,1440694989464,435,351,0,0,0,3,4,1,34,0003-00-0009-37.png,0004-00-0003-88.png
00000009,450,1,1440694990333,1440694990405,921,429,0,0,0,5,4,1,54,0005-00-0009-40.png,0004-00-0000-13.png
00000009,451,0,1440694992064,1440694992160,920,425,0,0,0,4,5,1,45,0004-00-0002-90.png,0005-00-0007-77.png
00000009,452,1,1440694995217,1440694995802,916,331,0,0,0,3,2,1,32,0003-00-0003-20.png,0002-00-0002-88.png
00000009,453,0,1440694997105,1440694997244,957,390,0,0,0,2,3,1,23,0002-00-0007-73.png,0003-00-0004-68.png
00000009,454,1,1440695000628,1440695000899,1029,251,0,0,0,2,1,1,21,0002-00-0002-41.png,0001-00-0007-58.png
00000009,455,0,1440695001743,1440695002017,964,410,0,0,0,1,2,1,12,0001-00-0000-34.png,0002-00-0008-26.png
00000009,456,1,1440695010438,1440695010957,948,358,0,0,0,4,3,1,43,0004-00-0009-73.png,0003-00-0002-23.png
00000009,457,0,1440695011869,1440695011950,949,377,0,0,0,3,4,1,34,0003-00-0008-95.png,0004-00-0008-20.png
00000009,458,0,1440695015171,1440695015835,922,365,0,0,0,2,3,1,23,0002-00-0005-34.png,0003-00-0004-28.png
00000009,459,1,1440695018849,1440695018905,866,421,0,0,0,5,4,1,54,0005-00-0005-85.png,0004-00-0008-54.png
00000009,460,1,1440695019782,1440695020469,974,514,0,0,0,4,3,1,43,0004-00-0000-59.png,0003-00-0008-85.png
00000009,461,1,1440695021473,1440695021555,919,453,0,0,0,2,1,1,21,0002-00-0006-12.png,0001-00-0001-09.png
00000009,462,0,1440695022874,1440695023004,913,419,0,0,0,4,5,1,45,0004-00-0004-24.png,0005-00-0006-79.png
00000009,463,1,1440695025903,1440695026400,922,338,0,0,0,3,2,1,32,0003-00-0006-88.png,0002-00-0000-45.png
00000009,464,0,1440695027729,1440695027749,893,351,0,0,0,1,2,1,12,0001-00-0000-21.png,0002-00-0008-99.png
00000009,465,1,1440695030642,1440695030670,865,478,0,0,0,2,1,1,21,0002-00-0004-83.png,0001-00-0005-48.png
00000009,466,0,1440695031525,1440695031593,940,443,0,0,0,1,2,1,12,0001-00-0006-33.png,0002-00-0004-25.png
00000009,467,1,1440695034749,1440695034785,993,331,0,0,0,3,2,1,32,0003-00-0003-54.png,0002-00-0001-07.png
00000009,468,0,1440695036160,1440695036322,1041,358,0,0,0,2,3,1,23,0002-00-0008-58.png,0003-00-0001-68.png
00000009,469,1,1440695039446,1440695040013,958,313,0,0,0,4,3,1,43,0004-00-0007-60.png,0003-00-0004-21.png
00000009,470,1,1440695041436,1440695042113,943,340,0,0,0,5,4,1,54,0005-00-0004-70.png,0004-00-0007-51.png
00000009,471,0,1440695042936,1440695043051,939,451,0,0,0,3,4,1,34,0003-00-0009-52.png,0004-00-0002-21.png
00000009,472,0,1440695046195,1440695046768,1072,279,0,0,0,4,5,1,45,0004-00-0004-55.png,0005-00-0009-95.png
00000009,473,1,1440695049951,1440695050418,1095,274,0,0,0,3,2,1,32,0003-00-0005-88.png,0002-00-0004-20.png
00000009,474,1,1440695051729,1440695051855,913,374,0,0,0,5,4,1,54,0005-00-0007-45.png,0004-00-0005-16.png
00000009,475,1,1440695052854,1440695052912,913,410,0,0,0,2,1,1,21,0002-00-0005-61.png,0001-00-0004-71.png
00000009,476,0,1440695053997,1440695054053,911,412,0,0,0,1,2,1,12,0001-00-0004-32.png,0002-00-0006-25.png
00000009,477,0,1440695057267,1440695057989,952,333,0,0,0,2,3,1,23,0002-00-0005-75.png,0003-00-0006-22.png
00000009,478,1,1440695061173,1440695061217,902,332,0,0,0,4,3,1,43,0004-00-0009-17.png,0003-00-0007-24.png
00000009,479,0,1440695062162,1440695062273,939,410,0,0,0,3,4,1,34,0003-00-0001-45.png,0004-00-0008-27.png
00000009,480,0,1440695065406,1440695065454,949,329,0,0,0,4,5,1,45,0004-00-0001-93.png,0005-00-0007-62.png
00000009,481,1,1440695068529,1440695069028,928,335,0,0,0,4,3,1,43,0004-00-0004-08.png,0003-00-0000-67.png
00000009,482,1,1440695069923,1440695071268,336,372,0,0,0,1,2,1,12,0001-00-0005-50.png,0002-00-0009-81.png
00000009,483,1,1440695072142,1440695072320,888,446,0,0,0,5,4,1,54,0005-00-0005-19.png,0004-00-0002-63.png
00000009,484,0,1440695073154,1440695073221,881,417,0,0,0,2,3,1,23,0002-00-0002-52.png,0003-00-0004-92.png
00000009,485,1,1440695076662,1440695077321,361,375,0,0,0,4,5,1,45,0004-00-0007-07.png,0005-00-0006-33.png
00000009,486,0,1440695078752,1440695079586,1067,277,0,0,0,3,4,1,34,0003-00-0000-30.png,0004-00-0002-44.png
00000009,487,1,1440695082664,1440695082716,958,351,0,0,0,3,2,1,32,0003-00-0004-98.png,0002-00-0002-71.png
00000009,488,1,1440695084096,1440695084429,1021,390,0,0,0,2,1,1,21,0002-00-0001-45.png,0001-00-0003-92.png
00000009,489,1,1440695085987,1440695086071,898,410,0,0,0,5,4,1,54,0005-00-0004-66.png,0004-00-0000-30.png
00000009,490,1,1440695086960,1440695087994,364,411,0,0,0,3,4,1,34,0003-00-0009-01.png,0004-00-0006-82.png
00000009,491,0,1440695088924,1440695089645,510,353,0,0,0,4,3,1,43,0004-00-0005-94.png,0003-00-0005-10.png
00000009,492,1,1440695092583,1440695093109,1057,269,0,0,0,3,2,1,32,0003-00-0007-96.png,0002-00-0002-42.png
00000009,493,1,1440695094485,1440695094565,927,379,0,0,0,2,1,1,21,0002-00-0001-63.png,0001-00-0000-95.png
00000009,494,0,1440695095644,1440695095723,884,419,0,0,0,1,2,1,12,0001-00-0009-05.png,0002-00-0008-47.png
00000009,495,1,1440695098717,1440695099362,462,279,0,0,0,4,5,1,45,0004-00-0006-44.png,0005-00-0005-13.png
00000009,496,0,1440695100683,1440695100791,929,365,0,0,0,2,3,1,23,0002-00-0009-06.png,0003-00-0003-50.png
00000009,497,1,1440695103664,1440695103732,873,438,0,0,0,3,2,1,32,0003-00-0004-17.png,0002-00-0001-59.png
00000009,498,1,1440695104547,1440695104661,939,396,0,0,0,4,3,1,43,0004-00-0008-09.png,0003-00-0006-44.png
00000009,499,0,1440695106071,1440695106145,906,442,0,0,0,2,3,1,23,0002-00-0006-83.png,0003-00-0005-04.png
00000009,500,1,1440695109458,1440695109973,1103,279,0,0,0,2,1,1,21,0002-00-0009-74.png,0001-00-0005-77.png
00000009,501,0,1440695111367,1440695111673,974,356,0,0,0,3,4,1,34,0003-00-0004-65.png,0004-00-0005-15.png
00000009,502,0,1440695114824,1440695114860,901,369,0,0,0,4,5,1,45,0004-00-0002-42.png,0005-00-0002-64.png
00000009,503,0,1440695118430,1440695119106,872,335,0,0,0,1,2,1,12,0001-00-0003-46.png,0002-00-0003-87.png
00000009,504,1,1440695122301,1440695122817,961,358,0,0,0,5,4,1,54,0005-00-0007-92.png,0004-00-0000-26.png
00000009,505,0,1440695124046,1440695124130,935,335,0,0,0,1,2,1,12,0001-00-0004-54.png,0002-00-0005-26.png
00000009,506,0,1440695127277,1440695127772,944,354,0,0,0,3,4,1,34,0003-00-0005-57.png,0004-00-0001-03.png
00000009,507,1,1440695130933,1440695131440,906,331,0,0,0,2,1,1,21,0002-00-0005-25.png,0001-00-0003-22.png
00000009,508,0,1440695132903,1440695133017,943,303,0,0,0,4,5,1,45,0004-00-0000-19.png,0005-00-0003-91.png
00000009,509,1,1440695136082,1440695136640,936,343,0,0,0,5,4,1,54,0005-00-0008-17.png,0004-00-0000-37.png
00000009,510,1,1440695138090,1440695138114,913,306,0,0,0,3,2,1,32,0003-00-0000-50.png,0002-00-0000-09.png
00000009,511,1,1440695138992,1440695139068,896,384,0,0,0,4,3,1,43,0004-00-0007-90.png,0003-00-0004-75.png
00000009,512,0,1440695140366,1440695140426,910,381,0,0,0,2,3,1,23,0002-00-0007-07.png,0003-00-0008-82.png
00000009,513,0,1440695143970,1440695144486,931,329,0,0,0,1,2,1,12,0001-00-0005-17.png,0002-00-0002-57.png
00000009,514,1,1440695147607,1440695148111,924,300,0,0,0,3,2,1,32,0003-00-0001-97.png,0002-00-0009-68.png
00000009,515,0,1440695149519,1440695149677,953,358,0,0,0,2,3,1,23,0002-00-0005-24.png,0003-00-0003-56.png
00000009,516,0,1440695152568,1440695153133,479,243,0,0,0,2,1,1,21,0002-00-0001-48.png,0001-00-0005-55.png
00000009,517,1,1440695156078,1440695156130,901,445,0,0,0,4,3,1,43,0004-00-0005-53.png,0003-00-0009-14.png
00000009,518,0,1440695156951,1440695157007,913,410,0,0,0,3,4,1,34,0003-00-0000-92.png,0004-00-0002-89.png
00000009,519,1,1440695159879,1440695160527,1067,268,0,0,0,5,4,1,54,0005-00-0009-39.png,0004-00-0009-34.png
00000009,520,0,1440695161861,1440695161954,913,332,0,0,0,4,5,1,45,0004-00-0003-71.png,0005-00-0004-59.png
00000009,521,1,1440695165138,1440695165674,941,342,0,0,0,3,2,1,32,0003-00-0007-23.png,0002-00-0005-63.png
00000009,522,0,1440695167098,1440695167244,959,347,0,0,0,4,5,1,45,0004-00-0007-43.png,0005-00-0008-14.png
00000009,523,0,1440695170557,1440695171014,956,333,0,0,0,3,4,1,34,0003-00-0009-56.png,0004-00-0009-65.png
00000009,524,1,1440695174033,1440695174598,969,381,0,0,0,5,4,1,54,0005-00-0002-13.png,0004-00-0003-41.png
00000009,525,0,1440695175949,1440695176997,438,268,0,0,0,4,3,1,43,0004-00-0006-83.png,0003-00-0003-85.png
00000009,526,0,1440695180525,1440695181064,943,326,0,0,0,1,2,1,12,0001-00-0003-28.png,0002-00-0008-78.png
00000009,527,1,1440695184466,1440695184996,1087,284,0,0,0,2,1,1,21,0002-00-0007-79.png,0001-00-0003-07.png
00000009,528,1,1440695185825,1440695186976,394,378,0,0,0,2,3,1,23,0002-00-0000-48.png,0003-00-0008-17.png
00000009,529,0,1440695188445,1440695188533,917,356,0,0,0,1,2,1,12,0001-00-0002-02.png,0002-00-0006-97.png
00000009,530,0,1440695191821,1440695192376,1116,254,0,0,0,2,3,1,23,0002-00-0009-99.png,0003-00-0004-52.png
00000009,531,1,1440695195516,1440695195568,972,356,0,0,0,4,3,1,43,0004-00-0003-55.png,0003-00-0007-47.png
00000009,532,0,1440695196485,1440695196585,936,422,0,0,0,4,5,1,45,0004-00-0007-14.png,0005-00-0007-28.png
00000009,533,1,1440695200202,1440695200774,1052,275,0,0,0,2,1,1,21,0002-00-0000-27.png,0001-00-0007-85.png
00000009,534,1,1440695202275,1440695202422,986,335,0,0,0,5,4,1,54,0005-00-0007-42.png,0004-00-0003-64.png
00000009,535,0,1440695203266,1440695203346,926,410,0,0,0,3,4,1,34,0003-00-0001-67.png,0004-00-0009-16.png
00000009,536,1,1440695206479,1440695206967,1064,277,0,0,0,3,2,1,32,0003-00-0002-70.png,0002-00-0008-30.png
00000009,537,0,1440695208288,1440695209114,345,378,0,0,0,3,2,1,32,0003-00-0006-90.png,0002-00-0002-49.png
00000009,538,1,1440695212195,1440695212243,920,391,0,0,0,4,3,1,43,0004-00-0003-35.png,0003-00-0002-49.png
00000009,539,0,1440695213567,1440695213663,913,369,0,0,0,1,2,1,12,0001-00-0002-35.png,0002-00-0001-68.png
00000009,540,1,1440695216822,1440695217430,463,272,0,0,0,4,5,1,45,0004-00-0005-99.png,0005-00-0008-77.png
00000009,541,1,1440695218752,1440695218887,964,332,0,0,0,2,1,1,21,0002-00-0000-71.png,0001-00-0003-00.png
00000009,542,0,1440695219957,1440695220025,919,402,0,0,0,3,4,1,34,0003-00-0004-73.png,0004-00-0004-96.png
00000009,543,1,1440695223107,1440695223156,964,358,0,0,0,5,4,1,54,0005-00-0007-60.png,0004-00-0002-90.png
00000009,544,0,1440695224530,1440695224692,989,380,0,0,0,2,3,1,23,0002-00-0006-22.png,0003-00-0000-97.png
00000009,545,1,1440695227544,1440695228238,1077,281,0,0,0,5,4,1,54,0005-00-0009-34.png,0004-00-0007-55.png
00000009,546,0,1440695230451,1440695230997,358,394,0,0,0,4,3,1,43,0004-00-0003-71.png,0003-00-0000-57.png
00000009,547,0,1440695234135,1440695234187,963,357,0,0,0,4,5,1,45,0004-00-0000-56.png,0005-00-0008-48.png
00000009,548,1,1440695237277,1440695237760,949,328,0,0,0,3,2,1,32,0003-00-0007-90.png,0002-00-0002-00.png
00000009,549,0,1440695239812,1440695240374,1091,263,0,0,0,2,3,1,23,0002-00-0002-10.png,0003-00-0007-79.png
00000009,550,0,1440695243778,1440695244273,923,347,0,0,0,3,4,1,34,0003-00-0008-17.png,0004-00-0006-80.png
00000009,551,1,1440695247454,1440695248121,499,273,0,0,0,1,2,1,12,0001-00-0007-51.png,0002-00-0001-67.png
00000009,552,1,1440695248980,1440695249159,939,400,0,0,0,2,1,1,21,0002-00-0007-46.png,0001-00-0008-51.png
00000009,553,1,1440695250176,1440695250260,932,395,0,0,0,4,3,1,43,0004-00-0001-55.png,0003-00-0002-54.png
00000009,554,0,1440695251390,1440695251446,888,370,0,0,0,1,2,1,12,0001-00-0006-86.png,0002-00-0002-19.png
00000009,555,1,1440695254366,1440695254849,913,322,0,0,0,2,1,1,21,0002-00-0003-66.png,0001-00-0004-02.png
00000009,556,0,1440695256175,1440695256399,967,379,0,0,0,3,4,1,34,0003-00-0006-08.png,0004-00-0004-99.png
00000009,557,1,1440695259527,1440695260378,472,285,0,0,0,2,3,1,23,0002-00-0002-54.png,0003-00-0008-15.png
00000009,558,1,1440695261870,1440695261986,924,358,0,0,0,5,4,1,54,0005-00-0009-56.png,0004-00-0002-99.png
00000009,559,0,1440695262886,1440695262972,922,410,0,0,0,4,5,1,45,0004-00-0009-18.png,0005-00-0009-61.png
00000009,560,1,1440695266195,1440695266385,888,410,0,0,0,3,2,1,32,0003-00-0008-42.png,0002-00-0004-55.png
00000009,561,0,1440695267812,1440695267935,940,370,0,0,0,3,4,1,34,0003-00-0002-00.png,0004-00-0002-45.png
00000009,562,1,1440695271005,1440695271482,968,301,0,0,0,3,2,1,32,0003-00-0003-60.png,0002-00-0007-14.png
00000009,563,0,1440695272784,1440695272972,994,384,0,0,0,2,3,1,23,0002-00-0006-52.png,0003-00-0000-79.png
00000009,564,1,1440695276108,1440695276654,368,366,0,0,0,4,5,1,45,0004-00-0000-12.png,0005-00-0007-45.png
00000009,565,1,1440695277921,1440695277997,939,414,0,0,0,4,3,1,43,0004-00-0001-01.png,0003-00-0007-46.png
00000009,566,1,1440695279101,1440695279209,923,436,0,0,0,5,4,1,54,0005-00-0001-06.png,0004-00-0003-21.png
00000009,567,1,1440695280291,1440695280371,907,391,0,0,0,2,1,1,21,0002-00-0008-21.png,0001-00-0005-16.png
00000009,568,0,1440695281648,1440695281721,895,419,0,0,0,1,2,1,12,0001-00-0004-29.png,0002-00-0002-57.png
00000009,569,0,1440695284852,1440695285421,401,289,0,0,0,2,1,1,21,0002-00-0000-53.png,0001-00-0008-37.png
00000009,570,0,1440695288524,1440695288560,948,362,0,0,0,3,4,1,34,0003-00-0004-51.png,0004-00-0007-27.png
00000009,571,1,1440695291681,1440695291701,893,353,0,0,0,5,4,1,54,0005-00-0009-28.png,0004-00-0002-40.png
00000009,572,1,1440695292526,1440695292769,955,436,0,0,0,3,2,1,32,0003-00-0007-66.png,0002-00-0006-11.png
00000009,573,0,1440695293606,1440695293694,954,436,0,0,0,2,3,1,23,0002-00-0002-15.png,0003-00-0001-05.png
00000009,574,0,1440695296581,1440695297151,928,306,0,0,0,1,2,1,12,0001-00-0005-73.png,0002-00-0007-66.png
00000009,575,1,1440695300270,1440695300864,344,377,0,0,0,4,5,1,45,0004-00-0005-75.png,0005-00-0003-14.png
00000009,576,1,1440695302294,1440695302417,967,395,0,0,0,4,3,1,43,0004-00-0001-04.png,0003-00-0009-72.png
00000009,577,0,1440695303368,1440695303436,913,358,0,0,0,2,3,1,23,0002-00-0003-67.png,0003-00-0001-26.png
00000009,578,1,1440695306637,1440695307254,352,340,0,0,0,4,5,1,45,0004-00-0000-31.png,0005-00-0006-40.png
00000009,579,1,1440695308556,1440695308634,933,366,0,0,0,2,1,1,21,0002-00-0000-60.png,0001-00-0000-02.png
00000009,580,1,1440695309666,1440695309734,888,395,0,0,0,5,4,1,54,0005-00-0008-05.png,0004-00-0008-66.png
00000009,581,0,1440695310712,1440695310759,880,397,0,0,0,1,2,1,12,0001-00-0005-66.png,0002-00-0008-23.png
00000009,582,1,1440695313950,1440695314550,494,269,0,0,0,3,4,1,34,0003-00-0006-01.png,0004-00-0009-51.png
00000009,583,1,1440695315850,1440695315982,939,374,0,0,0,4,3,1,43,0004-00-0009-92.png,0003-00-0002-83.png
00000009,584,1,1440695317201,1440695317276,955,384,0,0,0,3,2,1,32,0003-00-0002-34.png,0002-00-0006-97.png
00000009,585,1,1440695318196,1440695318290,920,428,0,0,0,2,1,1,21,0002-00-0003-95.png,0001-00-0004-50.png
00000009,586,0,1440695319475,1440695319523,921,410,0,0,0,1,2,1,12,0001-00-0006-02.png,0002-00-0001-60.png
00000009,587,0,1440695322685,1440695323338,1093,283,0,0,0,3,4,1,34,0003-00-0007-13.png,0004-00-0007-27.png
00000009,588,0,1440695326443,1440695327058,964,395,0,0,0,2,3,1,23,0002-00-0008-19.png,0003-00-0006-14.png
00000009,589,1,1440695330246,1440695330723,1061,280,0,0,0,3,2,1,32,0003-00-0006-48.png,0002-00-0002-10.png
00000009,590,1,1440695332138,1440695332444,1017,336,0,0,0,4,3,1,43,0004-00-0000-15.png,0003-00-0009-52.png
00000009,591,0,1440695333319,1440695333403,878,358,0,0,0,4,5,1,45,0004-00-0003-88.png,0005-00-0009-77.png
00000009,592,0,1440695336423,1440695337054,365,321,0,0,0,5,4,1,54,0005-00-0008-76.png,0004-00-0005-71.png
00000009,593,0,1440695339989,1440695340528,912,314,0,0,0,4,5,1,45,0004-00-0006-16.png,0005-00-0001-40.png
00000009,594,1,1440695343564,1440695344382,1087,310,0,0,0,5,4,1,54,0005-00-0001-34.png,0004-00-0001-98.png
00000009,595,0,1440695345801,1440695345927,934,358,0,0,0,1,2,1,12,0001-00-0001-07.png,0002-00-0001-92.png
00000009,596,0,1440695348875,1440695349532,446,293,0,0,0,2,1,1,21,0002-00-0006-43.png,0001-00-0008-21.png
00000009,597,1,1440695353013,1440695353053,969,359,0,0,0,3,2,1,32,0003-00-0002-52.png,0002-00-0004-42.png
00000009,598,0,1440695353901,1440695354063,903,462,0,0,0,3,4,1,34,0003-00-0008-34.png,0004-00-0005-07.png
00000009,599,0,1440695357200,1440695357785,461,254,0,0,0,4,3,1,43,0004-00-0005-07.png,0003-00-0005-85.png
00000009,600,1,1440695360808,1440695361404,336,361,0,0,0,2,3,1,23,0002-00-0003-42.png,0003-00-0004-59.png
00000009,601,1,1440695362243,1440695362354,934,400,0,0,0,3,2,1,32,0003-00-0009-73.png,0002-00-0008-68.png
00000009,602,1,1440695363389,1440695363468,896,384,0,0,0,4,3,1,43,0004-00-0001-00.png,0003-00-0004-96.png
00000009,603,1,1440695364583,1440695364651,888,410,0,0,0,2,1,1,21,0002-00-0007-34.png,0001-00-0007-77.png
00000009,604,0,1440695365814,1440695365850,892,417,0,0,0,1,2,1,12,0001-00-0005-23.png,0002-00-0008-02.png
00000009,605,1,1440695368903,1440695368915,947,436,0,0,0,5,4,1,54,0005-00-0008-09.png,0004-00-0006-82.png
00000009,606,0,1440695369779,1440695370012,964,451,0,0,0,4,5,1,45,0004-00-0004-12.png,0005-00-0006-41.png
00000009,607,1,1440695373081,1440695373711,358,355,0,0,0,2,3,1,23,0002-00-0002-27.png,0003-00-0006-35.png
00000009,608,0,1440695375108,1440695375209,948,349,0,0,0,3,4,1,34,0003-00-0002-74.png,0004-00-0009-33.png
00000009,609,1,1440695378388,1440695378408,934,356,0,0,0,5,4,1,54,0005-00-0006-58.png,0004-00-0000-67.png
00000009,610,0,1440695379238,1440695380113,940,462,0,0,0,1,2,1,12,0001-00-0002-40.png,0002-00-0009-62.png
00000009,611,0,1440695383248,1440695383762,1118,257,0,0,0,2,3,1,23,0002-00-0008-53.png,0003-00-0008-82.png
00000009,612,1,1440695387858,1440695388401,891,334,0,0,0,2,1,1,21,0002-00-0001-75.png,0001-00-0001-59.png
00000009,613,0,1440695389893,1440695390282,956,407,0,0,0,3,4,1,34,0003-00-0008-13.png,0004-00-0007-45.png
00000009,614,1,1440695393132,1440695393706,462,280,0,0,0,4,5,1,45,0004-00-0009-75.png,0005-00-0000-92.png
00000009,615,1,1440695395163,1440695395290,961,361,0,0,0,3,2,1,32,0003-00-0009-56.png,0002-00-0002-03.png
00000009,616,1,1440695396153,1440695396257,904,432,0,0,0,4,3,1,43,0004-00-0008-33.png,0003-00-0008-34.png
00000009,617,1,1440695397316,1440695398467,885,310,0,0,0,3,2,1,32,0003-00-0007-09.png,0002-00-0005-24.png
00000009,618,1,1440695399283,1440695399372,939,488,0,0,0,4,3,1,43,0004-00-0007-17.png,0003-00-0008-69.png
00000009,619,0,1440695400817,1440695400873,913,427,0,0,0,1,2,1,12,0001-00-0000-06.png,0002-00-0008-80.png
00000009,620,0,1440695403838,1440695404122,925,325,0,0,0,3,4,1,34,0003-00-0001-47.png,0004-00-0007-90.png
00000009,621,1,1440695407177,1440695407830,462,283,0,0,0,4,5,1,45,0004-00-0003-28.png,0005-00-0003-94.png
00000009,622,1,1440695409153,1440695409245,935,359,0,0,0,2,1,1,21,0002-00-0002-47.png,0001-00-0000-44.png
00000009,623,0,1440695410256,1440695410336,917,427,0,0,0,2,3,1,23,0002-00-0001-37.png,0003-00-0004-26.png
00000009,624,1,1440695413225,1440695413257,935,384,0,0,0,5,4,1,54,0005-00-0004-61.png,0004-00-0004-23.png
00000009,625,1,1440695414092,1440695414255,964,445,0,0,0,3,2,1,32,0003-00-0005-43.png,0002-00-0000-67.png
00000009,626,1,1440695415731,1440695415838,913,436,0,0,0,2,1,1,21,0002-00-0006-43.png,0001-00-0004-26.png
00000009,627,1,1440695416682,1440695416766,917,413,0,0,0,4,3,1,43,0004-00-0000-76.png,0003-00-0006-89.png
00000009,628,0,1440695418236,1440695418280,936,446,0,0,0,4,5,1,45,0004-00-0006-32.png,0005-00-0008-78.png
00000009,629,1,1440695421124,1440695421673,372,426,0,0,0,1,2,1,12,0001-00-0002-11.png,0002-00-0006-60.png
00000009,630,0,1440695423034,1440695423122,913,358,0,0,0,2,3,1,23,0002-00-0003-94.png,0003-00-0006-34.png
00000009,631,1,1440695426110,1440695426702,478,297,0,0,0,3,4,1,34,0003-00-0008-36.png,0004-00-0001-76.png
00000009,632,1,1440695428183,1440695428320,1000,384,0,0,0,5,4,1,54,0005-00-0004-00.png,0004-00-0004-12.png
00000009,633,1,1440695429173,1440695430235,311,385,0,0,0,1,2,1,12,0001-00-0003-81.png,0002-00-0009-08.png
00000009,634,0,1440695431091,1440695431123,873,445,0,0,0,3,4,1,34,0003-00-0004-19.png,0004-00-0005-32.png
00000009,635,0,1440695434236,1440695434817,480,237,0,0,0,4,3,1,43,0004-00-0005-23.png,0003-00-0003-79.png
00000009,636,0,1440695437721,1440695438579,481,261,0,0,0,5,4,1,54,0005-00-0002-62.png,0004-00-0008-22.png
00000009,637,1,1440695441677,1440695442175,1068,277,0,0,0,3,2,1,32,0003-00-0001-44.png,0002-00-0003-46.png
00000009,638,0,1440695443624,1440695443788,964,384,0,0,0,4,5,1,45,0004-00-0001-88.png,0005-00-0006-61.png
00000009,639,1,1440695446816,1440695447422,479,245,0,0,0,2,3,1,23,0002-00-0000-01.png,0003-00-0002-96.png
00000009,640,1,1440695448753,1440695448818,913,332,0,0,0,2,1,1,21,0002-00-0000-91.png,0001-00-0008-60.png
00000009,641,0,1440695449756,1440695449803,888,436,0,0,0,1,2,1,12,0001-00-0003-78.png,0002-00-0004-20.png
00000009,642,1,1440695453003,1440695453521,386,356,0,0,0,2,3,1,23,0002-00-0008-20.png,0003-00-0004-50.png
00000009,643,0,1440695455033,1440695455272,1001,383,0,0,0,4,5,1,45,0004-00-0003-86.png,0005-00-0007-37.png
00000009,644,1,1440695458340,1440695458850,1070,285,0,0,0,5,4,1,54,0005-00-0004-19.png,0004-00-0001-74.png
00000009,645,1,1440695460151,1440695460241,924,410,0,0,0,2,1,1,21,0002-00-0002-71.png,0001-00-0000-51.png
00000009,646,1,1440695461270,1440695461362,902,410,0,0,0,4,3,1,43,0004-00-0003-73.png,0003-00-0001-79.png
00000009,647,0,1440695462884,1440695462984,904,488,0,0,0,3,4,1,34,0003-00-0002-40.png,0004-00-0001-07.png
00000009,648,1,1440695466487,1440695467006,933,367,0,0,0,3,2,1,32,0003-00-0009-37.png,0002-00-0000-44.png
00000009,649,1,1440695468340,1440695468436,950,358,0,0,0,5,4,1,54,0005-00-0008-73.png,0004-00-0008-56.png
00000009,650,0,1440695469909,1440695469984,898,410,0,0,0,3,4,1,34,0003-00-0003-60.png,0004-00-0003-08.png
00000009,651,0,1440695472900,1440695473432,458,266,0,0,0,2,1,1,21,0002-00-0000-44.png,0001-00-0003-61.png
00000009,652,0,1440695476586,1440695476626,964,356,0,0,0,2,3,1,23,0002-00-0000-21.png,0003-00-0009-35.png
00000009,653,1,1440695479699,1440695480282,486,285,0,0,0,1,2,1,12,0001-00-0002-77.png,0002-00-0008-38.png
00000009,654,1,1440695481644,1440695481728,937,348,0,0,0,3,2,1,32,0003-00-0002-51.png,0002-00-0007-55.png
00000009,655,0,1440695482698,1440695482774,925,423,0,0,0,4,5,1,45,0004-00-0002-80.png,0005-00-0003-27.png
00000009,656,0,1440695486513,1440695487107,427,323,0,0,0,4,3,1,43,0004-00-0002-50.png,0003-00-0001-66.png
00000009,657,1,1440695490181,1440695490675,1092,253,0,0,0,2,1,1,21,0002-00-0003-64.png,0001-00-0002-86.png
00000009,658,0,1440695492068,1440695492211,936,359,0,0,0,3,4,1,34,0003-00-0000-74.png,0004-00-0004-88.png
00000009,659,1,1440695495299,1440695495327,908,348,0,0,0,4,3,1,43,0004-00-0002-25.png,0003-00-0007-75.png
00000009,660,0,1440695496172,1440695496244,913,436,0,0,0,4,5,1,45,0004-00-0008-63.png,0005-00-0009-73.png
00000009,661,1,1440695499514,1440695499786,884,306,0,0,0,3,2,1,32,0003-00-0000-61.png,0002-00-0005-86.png
00000009,662,0,1440695500623,1440695500773,931,391,0,0,0,2,3,1,23,0002-00-0002-27.png,0003-00-0001-24.png
00000009,663,1,1440695503933,1440695504549,1049,265,0,0,0,5,4,1,54,0005-00-0005-88.png,0004-00-0009-27.png
00000009,664,0,1440695506023,1440695506031,903,332,0,0,0,1,2,1,12,0001-00-0001-05.png,0002-00-0003-53.png
00000009,665,0,1440695511469,1440695511553,865,275,0,0,0,1,2,1,12,0001-00-0005-02.png,0002-00-0001-46.png
00000009,666,0,1440695516019,1440695516514,937,332,0,0,0,3,4,1,34,0003-00-0000-37.png,0004-00-0007-73.png
00000009,667,0,1440695519529,1440695520073,427,315,0,0,0,3,2,1,32,0003-00-0003-03.png,0002-00-0008-61.png
00000009,668,1,1440695523137,1440695523744,505,252,0,0,0,2,3,1,23,0002-00-0001-79.png,0003-00-0006-31.png
00000009,669,0,1440695524594,1440695524775,955,410,0,0,0,4,5,1,45,0004-00-0007-05.png,0005-00-0002-11.png
00000009,670,1,1440695528474,1440695529005,1073,270,0,0,0,2,1,1,21,0002-00-0007-84.png,0001-00-0008-60.png
00000009,671,1,1440695530421,1440695530735,959,339,0,0,0,5,4,1,54,0005-00-0005-78.png,0004-00-0003-09.png
00000009,672,1,1440695531920,1440695532035,939,393,0,0,0,4,3,1,43,0004-00-0004-41.png,0003-00-0007-96.png
00000009,673,0,1440695533048,1440695533121,913,397,0,0,0,2,3,1,23,0002-00-0009-33.png,0003-00-0003-51.png
00000009,674,1,1440695536811,1440695537400,455,241,0,0,0,4,5,1,45,0004-00-0002-54.png,0005-00-0005-86.png
00000009,675,1,1440695538827,1440695538982,982,378,0,0,0,3,2,1,32,0003-00-0005-38.png,0002-00-0009-92.png
00000009,676,1,1440695540000,1440695540098,928,436,0,0,0,4,3,1,43,0004-00-0005-43.png,0003-00-0002-21.png
00000009,677,1,1440695541063,1440695541111,893,429,0,0,0,5,4,1,54,0005-00-0002-75.png,0004-00-0007-54.png
00000009,678,1,1440695541975,1440695542035,874,396,0,0,0,2,1,1,21,0002-00-0007-38.png,0001-00-0005-66.png
00000009,679,0,1440695543209,1440695543293,926,449,0,0,0,1,2,1,12,0001-00-0005-20.png,0002-00-0007-91.png
00000009,680,0,1440695546400,1440695546625,899,410,0,0,0,3,4,1,34,0003-00-0009-50.png,0004-00-0005-07.png
00000009,681,0,1440695549712,1440695550285,370,371,0,0,0,4,3,1,43,0004-00-0003-56.png,0003-00-0001-27.png
00000009,682,1,1440695553452,1440695553981,1106,284,0,0,0,2,1,1,21,0002-00-0009-42.png,0001-00-0000-97.png
00000009,683,0,1440695555649,1440695555689,966,301,0,0,0,1,2,1,12,0001-00-0007-80.png,0002-00-0009-07.png
00000009,684,0,1440695559418,1440695560067,1042,290,0,0,0,2,3,1,23,0002-00-0002-39.png,0003-00-0003-04.png
00000009,685,0,1440695563283,1440695563865,955,332,0,0,0,3,4,1,34,0003-00-0002-32.png,0004-00-0007-16.png
00000009,686,0,1440695567012,1440695567639,395,368,0,0,0,5,4,1,54,0005-00-0004-62.png,0004-00-0000-28.png
00000009,687,1,1440695570747,1440695571382,464,296,0,0,0,4,5,1,45,0004-00-0001-94.png,0005-00-0002-01.png
00000009,688,1,1440695572244,1440695573500,899,363,0,0,0,3,2,1,32,0003-00-0003-59.png,0002-00-0008-58.png
00000009,689,1,1440695574852,1440695574936,907,394,0,0,0,5,4,1,54,0005-00-0003-52.png,0004-00-0001-64.png
00000009,690,0,1440695575843,1440695575920,905,416,0,0,0,4,5,1,45,0004-00-0002-14.png,0005-00-0008-54.png
00000009,691,1,1440695579322,1440695579859,932,320,0,0,0,3,2,1,32,0003-00-0003-95.png,0002-00-0002-37.png
00000009,692,0,1440695581432,1440695581483,939,332,0,0,0,2,3,1,23,0002-00-0001-59.png,0003-00-0006-89.png
00000009,693,1,1440695584325,1440695585281,436,293,0,0,0,3,4,1,34,0003-00-0001-22.png,0004-00-0006-69.png
00000009,694,0,1440695586846,1440695587440,510,248,0,0,0,2,1,1,21,0002-00-0005-20.png,0001-00-0004-27.png
00000009,695,0,1440695590523,1440695591126,895,343,0,0,0,1,2,1,12,0001-00-0004-69.png,0002-00-0002-51.png
00000009,696,0,1440695594181,1440695594842,473,271,0,0,0,4,3,1,43,0004-00-0002-09.png,0003-00-0007-84.png
00000009,697,1,1440695598046,1440695598625,923,347,0,0,0,4,3,1,43,0004-00-0001-40.png,0003-00-0009-62.png
00000009,698,1,1440695600084,1440695600210,946,358,0,0,0,5,4,1,54,0005-00-0000-02.png,0004-00-0008-93.png
00000009,699,0,1440695601376,1440695601498,902,384,0,0,0,3,4,1,34,0003-00-0005-50.png,0004-00-0002-14.png
00000009,700,1,1440695604962,1440695604998,921,335,0,0,0,3,2,1,32,0003-00-0005-53.png,0002-00-0003-11.png
00000009,701,0,1440695605969,1440695606113,939,453,0,0,0,2,3,1,23,0002-00-0009-82.png,0003-00-0003-52.png
00000009,702,0,1440695609246,1440695609741,917,332,0,0,0,1,2,1,12,0001-00-0008-97.png,0002-00-0006-84.png
00000009,703,0,1440695612662,1440695613173,933,340,0,0,0,4,5,1,45,0004-00-0001-03.png,0005-00-0000-71.png
00000009,704,1,1440695616312,1440695616819,960,313,0,0,0,2,1,1,21,0002-00-0003-10.png,0001-00-0008-15.png
00000009,705,1,1440695618171,1440695618384,947,351,0,0,0,3,2,1,32,0003-00-0005-89.png,0002-00-0000-53.png
00000009,706,0,1440695619381,1440695619457,913,371,0,0,0,4,5,1,45,0004-00-0008-30.png,0005-00-0003-33.png
00000009,707,1,1440695622331,1440695622351,906,398,0,0,0,4,3,1,43,0004-00-0001-12.png,0003-00-0000-94.png
00000009,708,1,1440695623205,1440695623293,939,395,0,0,0,2,1,1,21,0002-00-0002-86.png,0001-00-0000-31.png
00000009,709,0,1440695624190,1440695624258,902,417,0,0,0,3,4,1,34,0003-00-0004-43.png,0004-00-0003-99.png
00000009,710,1,1440695627487,1440695628356,369,387,0,0,0,1,2,1,12,0001-00-0005-26.png,0002-00-0001-19.png
00000009,711,0,1440695629212,1440695629457,981,384,0,0,0,2,3,1,23,0002-00-0005-47.png,0003-00-0003-71.png
00000009,712,1,1440695632477,1440695632505,861,435,0,0,0,5,4,1,54,0005-00-0003-87.png,0004-00-0003-53.png
00000009,713,1,1440695633950,1440695634190,939,369,0,0,0,4,3,1,43,0004-00-0007-13.png,0003-00-0000-03.png
00000009,714,0,1440695635311,1440695635379,957,391,0,0,0,3,4,1,34,0003-00-0003-90.png,0004-00-0006-76.png
00000009,715,1,1440695641513,1440695642075,1076,285,0,0,0,5,4,1,54,0005-00-0006-98.png,0004-00-0009-24.png
00000009,716,1,1440695643370,1440695643923,1016,410,0,0,0,3,2,1,32,0003-00-0008-33.png,0002-00-0001-56.png
00000009,717,1,1440695645259,1440695645753,1000,410,0,0,0,2,1,1,21,0002-00-0007-84.png,0001-00-0007-72.png
00000009,718,0,1440695646639,1440695646711,862,410,0,0,0,1,2,1,12,0001-00-0004-83.png,0002-00-0002-02.png
00000009,719,1,1440695649780,1440695650305,383,383,0,0,0,2,3,1,23,0002-00-0004-23.png,0003-00-0000-14.png
00000009,720,0,1440695651609,1440695651880,1001,358,0,0,0,4,5,1,45,0004-00-0005-06.png,0005-00-0009-19.png
00000009,721,0,1440695654978,1440695655265,953,325,0,0,0,3,4,1,34,0003-00-0005-17.png,0004-00-0002-34.png
00000009,722,0,1440695658254,1440695658833,927,357,0,0,0,2,3,1,23,0002-00-0001-36.png,0003-00-0007-86.png
00000009,723,0,1440695661785,1440695661813,491,514,0,0,0,4,3,1,43,0004-00-0003-12.png,0003-00-0009-77.png
00000009,724,1,1440695665022,1440695665271,925,332,0,0,0,5,4,1,54,0005-00-0005-53.png,0004-00-0006-28.png
00000009,725,0,1440695666772,1440695667074,1013,354,0,0,0,1,2,1,12,0001-00-0003-30.png,0002-00-0002-47.png
00000009,726,1,1440695670273,1440695670839,486,294,0,0,0,4,5,1,45,0004-00-0007-28.png,0005-00-0000-19.png
00000009,727,1,1440695672200,1440695672276,913,318,0,0,0,3,2,1,32,0003-00-0009-68.png,0002-00-0001-04.png
00000009,728,1,1440695673394,1440695673533,888,446,0,0,0,2,1,1,21,0002-00-0004-64.png,0001-00-0002-38.png
00000009,729,0,1440695674546,1440695675506,463,251,0,0,0,5,4,1,54,0005-00-0001-79.png,0004-00-0003-23.png
00000009,730,0,1440695678676,1440695679237,947,321,0,0,0,3,4,1,34,0003-00-0005-44.png,0004-00-0007-22.png
00000009,731,1,1440695682387,1440695683071,370,383,0,0,0,1,2,1,12,0001-00-0009-00.png,0002-00-0009-12.png
00000009,732,0,1440695683919,1440695684031,964,384,0,0,0,4,5,1,45,0004-00-0002-55.png,0005-00-0002-16.png
00000009,733,1,1440695687025,1440695687630,481,259,0,0,0,2,3,1,23,0002-00-0002-87.png,0003-00-0007-37.png
00000009,734,1,1440695688945,1440695689033,913,358,0,0,0,2,1,1,21,0002-00-0002-01.png,0001-00-0004-41.png
00000009,735,1,1440695690058,1440695690106,903,404,0,0,0,3,2,1,32,0003-00-0007-49.png,0002-00-0000-90.png
00000009,736,1,1440695691311,1440695691391,898,403,0,0,0,4,3,1,43,0004-00-0006-79.png,0003-00-0004-93.png
00000009,737,0,1440695692591,1440695692671,934,425,0,0,0,3,4,1,34,0003-00-0007-86.png,0004-00-0003-42.png
00000009,738,0,1440695696047,1440695696754,427,292,0,0,0,5,4,1,54,0005-00-0006-40.png,0004-00-0006-61.png
00000009,739,1,1440695699837,1440695700370,1041,279,0,0,0,3,2,1,32,0003-00-0008-09.png,0002-00-0000-39.png
00000009,740,1,1440695701885,1440695702070,948,363,0,0,0,4,3,1,43,0004-00-0003-86.png,0003-00-0009-18.png
00000009,741,0,1440695702931,1440695703031,931,432,0,0,0,2,3,1,23,0002-00-0009-66.png,0003-00-0001-42.png
00000009,742,0,1440695706641,1440695707258,1078,278,0,0,0,1,2,1,12,0001-00-0005-93.png,0002-00-0005-52.png
00000009,743,0,1440695710417,1440695710995,495,292,0,0,0,2,1,1,21,0002-00-0003-12.png,0001-00-0007-20.png
00000009,744,1,1440695714117,1440695714751,339,385,0,0,0,4,5,1,45,0004-00-0000-85.png,0005-00-0008-23.png
00000009,745,1,1440695716182,1440695716538,978,442,0,0,0,5,4,1,54,0005-00-0004-48.png,0004-00-0006-80.png
00000009,746,0,1440695717615,1440695717710,953,416,0,0,0,3,4,1,34,0003-00-0002-32.png,0004-00-0003-42.png
00000009,747,1,1440695720554,1440695720602,862,424,0,0,0,2,1,1,21,0002-00-0000-47.png,0001-00-0001-80.png
00000009,748,0,1440695721482,1440695721629,983,407,0,0,0,1,2,1,12,0001-00-0006-01.png,0002-00-0000-97.png
00000009,749,1,1440695724682,1440695724899,901,433,0,0,0,4,3,1,43,0004-00-0006-91.png,0003-00-0003-51.png
00000009,750,1,1440695725743,1440695725838,939,436,0,0,0,3,2,1,32,0003-00-0009-14.png,0002-00-0008-65.png
00000009,751,1,1440695727256,1440695728246,381,383,0,0,0,2,3,1,23,0002-00-0009-66.png,0003-00-0009-25.png
00000009,752,0,1440695729667,1440695729774,913,410,0,0,0,4,5,1,45,0004-00-0009-54.png,0005-00-0002-59.png
00000009,753,1,1440695732856,1440695733460,451,270,0,0,0,3,4,1,34,0003-00-0000-37.png,0004-00-0009-28.png
00000009,754,1,1440695734767,1440695734871,942,386,0,0,0,5,4,1,54,0005-00-0007-49.png,0004-00-0001-10.png
00000009,755,0,1440695735759,1440695735838,925,410,0,0,0,2,3,1,23,0002-00-0005-73.png,0003-00-0000-24.png
00000009,756,0,1440695739047,1440695739636,469,273,0,0,0,4,3,1,43,0004-00-0004-88.png,0003-00-0003-12.png
00000009,757,1,1440695742795,1440695743482,470,295,0,0,0,4,5,1,45,0004-00-0008-56.png,0005-00-0006-75.png
00000009,758,0,1440695744896,1440695744989,974,393,0,0,0,1,2,1,12,0001-00-0004-17.png,0002-00-0005-56.png
00000009,759,0,1440695748112,1440695748850,453,268,0,0,0,2,1,1,21,0002-00-0004-44.png,0001-00-0004-54.png
00000009,760,1,1440695751959,1440695752451,961,306,0,0,0,3,2,1,32,0003-00-0006-46.png,0002-00-0007-31.png
00000009,761,1,1440695753769,1440695753982,966,380,0,0,0,4,3,1,43,0004-00-0005-34.png,0003-00-0000-61.png
00000009,762,0,1440695755140,1440695755283,939,420,0,0,0,3,4,1,34,0003-00-0000-86.png,0004-00-0003-70.png
00000009,763,1,1440695758386,1440695759043,485,256,0,0,0,4,5,1,45,0004-00-0002-45.png,0005-00-0005-12.png
00000009,764,1,1440695760370,1440695760467,925,365,0,0,0,3,2,1,32,0003-00-0006-02.png,0002-00-0008-08.png
00000009,765,0,1440695761390,1440695761458,906,443,0,0,0,1,2,1,12,0001-00-0002-59.png,0002-00-0009-15.png
00000009,766,1,1440695764465,1440695765070,386,420,0,0,0,2,3,1,23,0002-00-0004-17.png,0003-00-0002-30.png
00000009,767,1,1440695766385,1440695766515,1013,387,0,0,0,5,4,1,54,0005-00-0003-17.png,0004-00-0006-89.png
00000009,768,1,1440695768073,1440695768192,923,445,0,0,0,2,1,1,21,0002-00-0005-90.png,0001-00-0002-06.png
00000009,769,1,1440695769207,1440695769263,913,358,0,0,0,5,4,1,54,0005-00-0000-34.png,0004-00-0000-63.png
00000009,770,1,1440695770353,1440695770401,903,410,0,0,0,2,1,1,21,0002-00-0000-95.png,0001-00-0006-28.png
00000009,771,0,1440695771695,1440695771767,910,409,0,0,0,4,5,1,45,0004-00-0006-68.png,0005-00-0000-59.png
00000009,772,0,1440695774921,1440695775017,940,298,0,0,0,2,3,1,23,0002-00-0008-34.png,0003-00-0002-62.png
00000009,773,0,1440695778182,1440695778675,1085,271,0,0,0,1,2,1,12,0001-00-0000-02.png,0002-00-0008-24.png
00000009,774,1,1440695781752,1440695781796,958,382,0,0,0,4,3,1,43,0004-00-0008-87.png,0003-00-0003-01.png
00000009,775,0,1440695782755,1440695782871,955,436,0,0,0,3,4,1,34,0003-00-0003-13.png,0004-00-0004-40.png
00000009,776,1,1440695786014,1440695786560,1131,286,0,0,0,3,2,1,32,0003-00-0009-60.png,0002-00-0000-87.png
00000009,777,1,1440695788022,1440695788129,962,353,0,0,0,2,1,1,21,0002-00-0009-05.png,0001-00-0005-22.png
00000009,778,0,1440695788969,1440695789032,913,423,0,0,0,2,3,1,23,0002-00-0006-84.png,0003-00-0008-82.png
00000009,779,1,1440695791903,1440695791911,493,370,0,0,0,4,5,1,45,0004-00-0008-71.png,0005-00-0003-49.png
00000009,780,0,1440695792840,1440695792888,915,438,0,0,0,3,4,1,34,0003-00-0007-18.png,0004-00-0004-64.png
00000009,781,1,1440695795962,1440695796518,1066,272,0,0,0,3,2,1,32,0003-00-0005-20.png,0002-00-0006-65.png
00000009,782,1,1440695797909,1440695798001,947,368,0,0,0,4,3,1,43,0004-00-0001-78.png,0003-00-0001-12.png
00000009,783,1,1440695799029,1440695799112,922,428,0,0,0,5,4,1,54,0005-00-0007-79.png,0004-00-0002-42.png
00000009,784,0,1440695800263,1440695800335,946,430,0,0,0,1,2,1,12,0001-00-0008-31.png,0002-00-0007-75.png
00000009,785,0,1440695803414,1440695803945,389,344,0,0,0,2,1,1,21,0002-00-0007-54.png,0001-00-0009-92.png
00000009,786,0,1440695807111,1440695807119,950,355,0,0,0,1,2,1,12,0001-00-0001-88.png,0002-00-0000-85.png
00000009,787,1,1440695810039,1440695810685,1099,271,0,0,0,5,4,1,54,0005-00-0007-45.png,0004-00-0008-22.png
00000009,788,0,1440695812109,1440695812239,963,354,0,0,0,3,4,1,34,0003-00-0006-34.png,0004-00-0008-65.png
00000009,789,1,1440695815387,1440695815969,479,305,0,0,0,2,3,1,23,0002-00-0006-69.png,0003-00-0007-79.png
00000009,790,0,1440695817271,1440695817419,942,364,0,0,0,4,5,1,45,0004-00-0001-38.png,0005-00-0000-45.png
00000009,791,0,1440695820485,1440695821074,373,331,0,0,0,3,2,1,32,0003-00-0003-69.png,0002-00-0000-51.png
00000009,792,1,1440695824171,1440695824676,963,343,0,0,0,4,3,1,43,0004-00-0002-38.png,0003-00-0005-21.png
00000009,793,0,1440695826167,1440695826353,996,355,0,0,0,1,2,1,12,0001-00-0006-41.png,0002-00-0004-85.png
00000009,794,1,1440695829339,1440695829914,485,299,0,0,0,4,5,1,45,0004-00-0005-62.png,0005-00-0000-88.png
00000009,795,1,1440695831285,1440695831416,962,351,0,0,0,4,3,1,43,0004-00-0009-81.png,0003-00-0007-89.png
00000009,796,0,1440695832266,1440695833449,368,353,0,0,0,5,4,1,54,0005-00-0006-51.png,0004-00-0008-47.png
00000009,797,1,1440695836583,1440695836611,968,351,0,0,0,2,1,1,21,0002-00-0002-11.png,0001-00-0007-84.png
00000009,798,0,1440695838090,1440695838335,987,381,0,0,0,3,4,1,34,0003-00-0008-86.png,0004-00-0008-62.png
00000009,799,1,1440695841481,1440695842030,1092,279,0,0,0,3,2,1,32,0003-00-0000-91.png,0002-00-0003-51.png
00000009,800,0,1440695843341,1440695843468,988,361,0,0,0,2,3,1,23,0002-00-0001-70.png,0003-00-0007-86.png
00000009,801,1,1440695846579,1440695847171,484,279,0,0,0,3,4,1,34,0003-00-0008-60.png,0004-00-0009-60.png
00000009,802,0,1440695848486,1440695848644,979,332,0,0,0,1,2,1,12,0001-00-0002-81.png,0002-00-0007-86.png
00000009,803,1,1440695851498,1440695851995,1077,253,0,0,0,3,2,1,32,0003-00-0006-34.png,0002-00-0001-29.png
00000009,804,1,1440695853257,1440695853401,974,408,0,0,0,4,3,1,43,0004-00-0003-41.png,0003-00-0001-28.png
00000009,805,1,1440695854418,1440695854498,939,421,0,0,0,2,1,1,21,0002-00-0006-74.png,0001-00-0005-96.png
00000009,806,1,1440695855720,1440695856666,494,273,0,0,0,4,5,1,45,0004-00-0006-55.png,0005-00-0009-49.png
00000009,807,1,1440695857592,1440695857628,907,417,0,0,0,5,4,1,54,0005-00-0008-62.png,0004-00-0003-65.png
00000009,808,0,1440695858831,1440695858871,893,412,0,0,0,2,3,1,23,0002-00-0005-48.png,0003-00-0000-11.png
00000009,809,1,1440695862267,1440695862787,937,327,0,0,0,5,4,1,54,0005-00-0003-48.png,0004-00-0003-54.png
00000009,810,0,1440695864120,1440695864384,994,421,0,0,0,2,3,1,23,0002-00-0004-78.png,0003-00-0008-31.png
00000009,811,0,1440695877089,1440695877116,971,310,0,0,0,4,5,1,45,0004-00-0002-08.png,0005-00-0001-92.png
00000009,812,0,1440695880201,1440695880784,1111,304,0,0,0,1,2,1,12,0001-00-0004-24.png,0002-00-0006-33.png
00000009,813,1,1440695883881,1440695884429,1052,303,0,0,0,2,1,1,21,0002-00-0004-57.png,0001-00-0003-79.png
00000009,814,1,1440695885820,1440695886091,1025,332,0,0,0,3,2,1,32,0003-00-0006-21.png,0002-00-0003-44.png
00000009,815,0,1440695886969,1440695887023,895,348,0,0,0,3,4,1,34,0003-00-0007-09.png,0004-00-0009-23.png
00000009,816,1,1440695890051,1440695890236,874,450,0,0,0,4,3,1,43,0004-00-0000-92.png,0003-00-0008-16.png
00000009,817,1,1440695891124,1440695891144,873,400,0,0,0,3,2,1,32,0003-00-0009-61.png,0002-00-0004-09.png
00000009,818,0,1440695892773,1440695893272,382,348,0,0,0,4,3,1,43,0004-00-0007-63.png,0003-00-0009-01.png
00000009,819,1,1440695896224,1440695896777,442,331,0,0,0,1,2,1,12,0001-00-0000-97.png,0002-00-0007-05.png
00000009,820,1,1440695897601,1440695899091,436,284,0,0,0,4,5,1,45,0004-00-0002-94.png,0005-00-0005-22.png
00000009,821,0,1440695899948,1440695900008,931,416,0,0,0,3,4,1,34,0003-00-0003-93.png,0004-00-0004-36.png
00000009,822,1,1440695903353,1440695903931,437,284,0,0,0,2,3,1,23,0002-00-0007-40.png,0003-00-0007-41.png
00000009,823,1,1440695904776,1440695904901,948,384,0,0,0,5,4,1,54,0005-00-0000-69.png,0004-00-0008-91.png
00000009,824,1,1440695905760,1440695905838,913,400,0,0,0,2,1,1,21,0002-00-0007-65.png,0001-00-0004-04.png
00000009,825,1,1440695906942,1440695906962,895,366,0,0,0,3,2,1,32,0003-00-0009-47.png,0002-00-0000-03.png
00000009,826,1,1440695908972,1440695909004,902,488,0,0,0,2,1,1,21,0002-00-0005-76.png,0001-00-0000-96.png
00000009,827,1,1440695910142,1440695910710,368,368,0,0,0,1,2,1,12,0001-00-0006-89.png,0002-00-0008-63.png
00000009,828,0,1440695912213,1440695912885,1092,309,0,0,0,3,4,1,34,0003-00-0007-55.png,0004-00-0001-30.png
00000009,829,0,1440695916469,1440695917056,900,332,0,0,0,2,3,1,23,0002-00-0007-61.png,0003-00-0005-14.png
00000009,830,1,1440695921040,1440695921623,344,353,0,0,0,4,5,1,45,0004-00-0009-71.png,0005-00-0006-46.png
00000009,831,0,1440695923111,1440695923696,494,261,0,0,0,4,3,1,43,0004-00-0001-65.png,0003-00-0000-39.png
00000009,832,1,1440695927208,1440695927733,913,305,0,0,0,5,4,1,54,0005-00-0003-69.png,0004-00-0003-14.png
00000009,833,1,1440695929183,1440695929739,910,366,0,0,0,3,2,1,32,0003-00-0000-22.png,0002-00-0001-98.png
00000009,834,0,1440695931055,1440695931139,966,405,0,0,0,4,5,1,45,0004-00-0007-83.png,0005-00-0004-13.png
00000009,835,0,1440695934266,1440695934807,1095,287,0,0,0,1,2,1,12,0001-00-0007-99.png,0002-00-0006-12.png
00000009,836,0,1440695937930,1440695938468,1067,316,0,0,0,3,4,1,34,0003-00-0008-57.png,0004-00-0004-61.png
00000009,837,1,1440695941573,1440695942177,475,293,0,0,0,2,3,1,23,0002-00-0005-13.png,0003-00-0008-69.png
00000009,838,0,1440695943842,1440695944385,460,262,0,0,0,2,1,1,21,0002-00-0001-36.png,0001-00-0005-73.png
00000009,839,1,1440695947422,1440695948089,1092,268,0,0,0,5,4,1,54,0005-00-0007-65.png,0004-00-0000-72.png
00000009,840,1,1440695949540,1440695949706,964,349,0,0,0,4,3,1,43,0004-00-0005-10.png,0003-00-0002-62.png
00000009,841,0,1440695950611,1440695950659,918,402,0,0,0,2,3,1,23,0002-00-0008-23.png,0003-00-0003-69.png
00000009,842,1,1440695953783,1440695954253,922,342,0,0,0,3,2,1,32,0003-00-0006-62.png,0002-00-0008-17.png
00000009,843,0,1440695955569,1440695955677,939,374,0,0,0,1,2,1,12,0001-00-0002-98.png,0002-00-0009-39.png
00000009,844,1,1440695958679,1440695959217,338,351,0,0,0,4,5,1,45,0004-00-0002-40.png,0005-00-0002-59.png
00000009,845,1,1440695960036,1440695960237,964,425,0,0,0,4,3,1,43,0004-00-0009-12.png,0003-00-0007-46.png
00000009,846,0,1440695961305,1440695961436,939,421,0,0,0,3,4,1,34,0003-00-0007-65.png,0004-00-0004-93.png
00000009,847,1,1440695964806,1440695964832,868,366,0,0,0,2,1,1,21,0002-00-0001-18.png,0001-00-0005-79.png
00000009,848,1,1440695965743,1440695965822,931,418,0,0,0,5,4,1,54,0005-00-0005-83.png,0004-00-0001-79.png
00000009,849,0,1440695967178,1440695967274,925,413,0,0,0,3,4,1,34,0003-00-0006-40.png,0004-00-0003-67.png
00000009,850,1,1440695970476,1440695971152,347,378,0,0,0,1,2,1,12,0001-00-0002-55.png,0002-00-0007-77.png
00000009,851,1,1440695972504,1440695972737,961,376,0,0,0,4,3,1,43,0004-00-0000-38.png,0003-00-0007-77.png
00000009,852,0,1440695973584,1440695973680,913,446,0,0,0,2,3,1,23,0002-00-0007-90.png,0003-00-0009-29.png
00000009,853,1,1440695976740,1440695977395,459,269,0,0,0,4,5,1,45,0004-00-0006-50.png,0005-00-0005-08.png
00000009,854,1,1440695978237,1440695978446,964,400,0,0,0,5,4,1,54,0005-00-0000-94.png,0004-00-0009-76.png
00000009,855,1,1440695979427,1440695979507,939,436,0,0,0,3,2,1,32,0003-00-0002-53.png,0002-00-0004-89.png
00000009,856,1,1440695980642,1440695980690,922,410,0,0,0,2,1,1,21,0002-00-0003-91.png,0001-00-0000-26.png
00000009,857,0,1440695981882,1440695982969,359,337,0,0,0,3,2,1,32,0003-00-0005-62.png,0002-00-0001-99.png
00000009,858,1,1440695986120,1440695986737,505,290,0,0,0,4,5,1,45,0004-00-0001-36.png,0005-00-0009-55.png
00000009,859,0,1440695987597,1440695987677,1001,410,0,0,0,1,2,1,12,0001-00-0008-47.png,0002-00-0006-05.png
00000009,860,1,1440695990598,1440695990618,913,462,0,0,0,2,1,1,21,0002-00-0006-95.png,0001-00-0004-47.png
00000009,861,0,1440695991595,1440695991647,939,425,0,0,0,2,3,1,23,0002-00-0000-09.png,0003-00-0002-13.png
00000009,862,1,1440695994677,1440695994717,880,481,0,0,0,5,4,1,54,0005-00-0007-52.png,0004-00-0001-82.png
00000009,863,1,1440695995547,1440695995615,939,422,0,0,0,4,3,1,43,0004-00-0009-80.png,0003-00-0002-31.png
00000009,864,0,1440695996911,1440695997030,880,444,0,0,0,3,4,1,34,0003-00-0001-47.png,0004-00-0007-13.png
00000009,865,0,1440695999963,1440696000479,401,404,0,0,0,3,2,1,32,0003-00-0007-66.png,0002-00-0000-47.png
00000009,866,1,1440696003388,1440696003978,473,286,0,0,0,2,3,1,23,0002-00-0004-53.png,0003-00-0008-94.png
00000009,867,1,1440696005564,1440696006173,916,306,0,0,0,5,4,1,54,0005-00-0005-98.png,0004-00-0007-32.png
00000009,868,1,1440696007571,1440696007643,974,410,0,0,0,2,1,1,21,0002-00-0003-61.png,0001-00-0000-61.png
00000009,869,1,1440696010084,1440696010641,466,269,0,0,0,4,5,1,45,0004-00-0006-75.png,0005-00-0004-82.png
00000009,870,0,1440696011470,1440696011538,939,422,0,0,0,3,4,1,34,0003-00-0006-13.png,0004-00-0009-41.png
00000009,871,0,1440696014718,1440696015381,476,273,0,0,0,4,3,1,43,0004-00-0007-58.png,0003-00-0006-70.png
00000009,872,1,1440696018206,1440696018768,487,295,0,0,0,1,2,1,12,0001-00-0001-83.png,0002-00-0007-39.png
00000009,873,0,1440696020331,1440696020907,488,267,0,0,0,5,4,1,54,0005-00-0001-22.png,0004-00-0007-30.png
00000009,874,1,1440696023961,1440696024487,936,274,0,0,0,3,2,1,32,0003-00-0001-34.png,0002-00-0004-57.png
00000009,875,1,1440696025928,1440696026046,955,383,0,0,0,4,3,1,43,0004-00-0005-15.png,0003-00-0005-71.png
00000009,876,0,1440696027088,1440696027177,902,436,0,0,0,1,2,1,12,0001-00-0008-17.png,0002-00-0007-67.png
00000009,877,1,1440696030023,1440696030601,480,275,0,0,0,3,4,1,34,0003-00-0009-68.png,0004-00-0003-97.png
00000009,878,0,1440696031947,1440696032027,941,358,0,0,0,4,5,1,45,0004-00-0003-72.png,0005-00-0000-44.png
00000009,879,0,1440696035065,1440696035617,942,314,0,0,0,2,3,1,23,0002-00-0004-79.png,0003-00-0005-22.png
00000009,880,0,1440696038610,1440696039299,438,290,0,0,0,2,1,1,21,0002-00-0003-17.png,0001-00-0000-09.png
00000009,881,0,1440696042435,1440696042734,955,348,0,0,0,1,2,1,12,0001-00-0000-27.png,0002-00-0008-86.png
00000009,882,0,1440696045889,1440696046196,1063,360,0,0,0,4,5,1,45,0004-00-0000-65.png,0005-00-0000-70.png
00000009,883,1,1440696049248,1440696049766,948,304,0,0,0,4,3,1,43,0004-00-0005-39.png,0003-00-0001-26.png
00000009,884,1,1440696051435,1440696052014,476,267,0,0,0,3,4,1,34,0003-00-0007-84.png,0004-00-0001-28.png
00000009,885,1,1440696052838,1440696052950,939,421,0,0,0,2,1,1,21,0002-00-0007-69.png,0001-00-0004-48.png
00000009,886,1,1440696054428,1440696054515,923,400,0,0,0,3,2,1,32,0003-00-0005-28.png,0002-00-0006-41.png
00000009,887,1,1440696055551,1440696055630,921,374,0,0,0,5,4,1,54,0005-00-0006-32.png,0004-00-0000-58.png
00000009,888,0,1440696056861,1440696057511,945,479,0,0,0,2,3,1,23,0002-00-0005-54.png,0003-00-0001-68.png
00000009,889,0,1440696060736,1440696061327,1041,280,0,0,0,1,2,1,12,0001-00-0009-57.png,0002-00-0002-99.png
00000009,890,1,1440696064494,1440696065061,968,335,0,0,0,3,2,1,32,0003-00-0008-21.png,0002-00-0002-09.png
00000009,891,0,1440696066576,1440696066924,1007,381,0,0,0,2,3,1,23,0002-00-0004-17.png,0003-00-0009-52.png
00000009,892,1,1440696070033,1440696070763,935,347,0,0,0,2,1,1,21,0002-00-0006-63.png,0001-00-0006-38.png
00000009,893,1,1440696072228,1440696072384,939,352,0,0,0,4,3,1,43,0004-00-0001-20.png,0003-00-0000-84.png
00000009,894,0,1440696073557,1440696073625,913,399,0,0,0,4,5,1,45,0004-00-0003-47.png,0005-00-0007-93.png
00000009,895,0,1440696076816,1440696077365,929,310,0,0,0,3,4,1,34,0003-00-0009-28.png,0004-00-0000-40.png
00000009,896,0,1440696080457,1440696081530,421,298,0,0,0,5,4,1,54,0005-00-0007-19.png,0004-00-0008-33.png
00000009,897,0,1440696085004,1440696085543,1094,279,0,0,0,4,5,1,45,0004-00-0005-76.png,0005-00-0006-74.png
00000009,898,1,1440696088626,1440696089163,938,289,0,0,0,5,4,1,54,0005-00-0000-12.png,0004-00-0009-59.png
00000009,899,0,1440696090035,1440696090133,950,417,0,0,0,1,2,1,12,0001-00-0004-05.png,0002-00-0002-64.png
00000009,900,1,1440696093664,1440696094214,925,299,0,0,0,4,3,1,43,0004-00-0002-89.png,0003-00-0005-16.png
00000009,901,1,1440696095578,1440696095683,982,389,0,0,0,3,2,1,32,0003-00-0007-88.png,0002-00-0002-06.png
00000009,902,1,1440696096659,1440696096759,939,419,0,0,0,2,1,1,21,0002-00-0001-76.png,0001-00-0004-62.png
00000009,903,0,1440696097984,1440696098046,958,383,0,0,0,2,3,1,23,0002-00-0006-69.png,0003-00-0000-94.png
00000009,904,0,1440696102028,1440696102576,1099,283,0,0,0,3,4,1,34,0003-00-0003-81.png,0004-00-0000-70.png
00000009,905,1,1440696105659,1440696106218,451,282,0,0,0,3,4,1,34,0003-00-0008-77.png,0004-00-0006-52.png
00000009,906,1,1440696107573,1440696107625,940,331,0,0,0,5,4,1,54,0005-00-0008-61.png,0004-00-0001-45.png
00000009,907,0,1440696108516,1440696108604,888,397,0,0,0,4,5,1,45,0004-00-0008-31.png,0005-00-0005-14.png
00000009,908,1,1440696111741,1440696112412,1058,281,0,0,0,4,3,1,43,0004-00-0007-85.png,0003-00-0000-72.png
00000009,909,1,1440696113336,1440696113699,990,446,0,0,0,2,1,1,21,0002-00-0007-55.png,0001-00-0007-37.png
00000009,910,0,1440696115286,1440696115374,946,411,0,0,0,1,2,1,12,0001-00-0001-46.png,0002-00-0006-45.png
00000009,911,0,1440696118545,1440696119124,458,295,0,0,0,3,2,1,32,0003-00-0002-92.png,0002-00-0001-13.png
00000009,912,0,1440696122822,1440696123354,1063,302,0,0,0,2,3,1,23,0002-00-0003-85.png,0003-00-0003-24.png
00000009,913,1,1440696126336,1440696126403,870,410,0,0,0,4,3,1,43,0004-00-0008-90.png,0003-00-0002-31.png
00000009,914,1,1440696127231,1440696127462,928,436,0,0,0,3,2,1,32,0003-00-0002-65.png,0002-00-0002-87.png
00000009,915,1,1440696128289,1440696128386,941,436,0,0,0,2,1,1,21,0002-00-0002-37.png,0001-00-0007-64.png
00000009,916,0,1440696129717,1440696129785,923,377,0,0,0,3,4,1,34,0003-00-0000-63.png,0004-00-0003-05.png
00000009,917,1,1440696132947,1440696133467,1092,279,0,0,0,5,4,1,54,0005-00-0002-32.png,0004-00-0000-24.png
00000009,918,0,1440696134914,1440696135048,962,384,0,0,0,2,3,1,23,0002-00-0007-70.png,0003-00-0003-96.png
00000009,919,1,1440696138155,1440696138749,417,306,0,0,0,4,5,1,45,0004-00-0006-24.png,0005-00-0000-80.png
00000009,920,0,1440696140139,1440696140273,958,356,0,0,0,1,2,1,12,0001-00-0002-47.png,0002-00-0002-90.png
00000009,921,1,1440696143428,1440696143735,980,339,0,0,0,2,1,1,21,0002-00-0008-29.png,0001-00-0003-52.png
00000009,922,1,1440696144568,1440696144640,913,358,0,0,0,3,2,1,32,0003-00-0003-50.png,0002-00-0006-62.png
00000009,923,1,1440696146024,1440696146084,883,426,0,0,0,4,3,1,43,0004-00-0008-12.png,0003-00-0002-47.png
00000009,924,0,1440696147155,1440696147242,904,459,0,0,0,1,2,1,12,0001-00-0005-70.png,0002-00-0008-75.png
00000009,925,1,1440696150319,1440696150903,441,243,0,0,0,4,5,1,45,0004-00-0000-22.png,0005-00-0006-98.png
00000009,926,0,1440696152222,1440696152306,942,375,0,0,0,2,3,1,23,0002-00-0008-23.png,0003-00-0003-32.png
00000009,927,0,1440696155482,1440696155747,1003,331,0,0,0,3,4,1,34,0003-00-0003-64.png,0004-00-0007-43.png
00000009,928,1,1440696158780,1440696159313,893,296,0,0,0,5,4,1,54,0005-00-0008-61.png,0004-00-0008-24.png
00000009,929,0,1440696160624,1440696160755,973,330,0,0,0,1,2,1,12,0001-00-0005-45.png,0002-00-0009-80.png
00000009,930,1,1440696163883,1440696164540,459,270,0,0,0,4,5,1,45,0004-00-0006-93.png,0005-00-0000-65.png
00000009,931,1,1440696165977,1440696166158,1011,386,0,0,0,2,1,1,21,0002-00-0005-85.png,0001-00-0004-71.png
00000009,932,0,1440696167087,1440696167163,952,426,0,0,0,3,4,1,34,0003-00-0001-97.png,0004-00-0003-31.png
00000009,933,0,1440696170279,1440696170319,945,369,0,0,0,2,3,1,23,0002-00-0001-01.png,0003-00-0003-72.png
00000009,934,1,1440696173429,1440696174018,928,317,0,0,0,3,2,1,32,0003-00-0007-58.png,0002-00-0000-49.png
00000009,935,1,1440696175408,1440696175562,960,364,0,0,0,4,3,1,43,0004-00-0008-86.png,0003-00-0008-84.png
00000009,936,1,1440696176679,1440696176723,913,384,0,0,0,5,4,1,54,0005-00-0004-23.png,0004-00-0000-88.png
00000009,937,1,1440696177582,1440696177642,922,440,0,0,0,2,1,1,21,0002-00-0009-49.png,0001-00-0005-49.png
00000009,938,0,1440696179107,1440696179210,921,427,0,0,0,3,4,1,34,0003-00-0004-30.png,0004-00-0007-31.png
00000009,939,0,1440696182317,1440696182911,466,279,0,0,0,5,4,1,54,0005-00-0004-84.png,0004-00-0006-65.png
00000009,940,0,1440696186110,1440696186162,944,354,0,0,0,1,2,1,12,0001-00-0001-31.png,0002-00-0000-84.png
00000009,941,0,1440696189293,1440696189897,934,317,0,0,0,2,3,1,23,0002-00-0006-97.png,0003-00-0008-15.png
