subject_id,trial,correct_response,stim_time,response_time,x_coord,y_coord,trial_timeout,timeout_time,interTrial_timeout,left_rank,right_rank,distance,joint_rank,left_image,right_image
00000014,1,0,1441895426655,1441895427487,301,394,0,0,0,4,3,1,43,0004-00-0006-34.png,0003-00-0004-91.png
00000014,2,1,1441895430663,1441895431115,328,394,0,0,0,4,5,1,45,0004-00-0009-99.png,0005-00-0002-40.png
00000014,3,1,1441895432610,1441895433053,888,369,0,0,0,5,4,1,54,0005-00-0009-23.png,0004-00-0003-66.png
00000014,4,0,1441895433998,1441895434483,905,393,0,0,0,3,4,1,34,0003-00-0008-02.png,0004-00-0002-57.png
00000014,5,0,1441895439066,1441895439472,356,377,0,0,0,3,2,1,32,0003-00-0007-74.png,0002-00-0005-61.png
00000014,6,1,1441895442516,1441895443079,902,477,0,0,0,2,1,1,21,0002-00-0006-09.png,0001-00-0009-30.png
00000014,7,1,1441895444263,1441895444708,299,410,0,0,0,2,3,1,23,0002-00-0001-66.png,0003-00-0004-19.png
00000014,8,1,1441895445883,1441895446342,350,476,0,0,0,1,2,1,12,0001-00-0009-11.png,0002-00-0009-83.png
00000014,9,1,1441895447503,1441895447988,912,482,0,0,0,4,3,1,43,0004-00-0003-03.png,0003-00-0001-35.png
00000014,10,0,1441895448874,1441895449406,951,385,0,0,0,3,4,1,34,0003-00-0007-17.png,0004-00-0000-87.png
00000014,11,0,1441895453527,1441895453942,384,420,0,0,0,2,1,1,21,0002-00-0001-95.png,0001-00-0000-37.png
00000014,12,0,1441895456905,1441895457392,339,392,0,0,0,5,4,1,54,0005-00-0003-66.png,0004-00-0006-32.png
00000014,13,1,1441895461845,1441895462278,360,413,0,0,0,2,3,1,23,0002-00-0002-70.png,0003-00-0006-91.png
00000014,14,0,1441895463673,1441895464147,343,444,0,0,0,3,2,1,32,0003-00-0001-61.png,0002-00-0000-60.png
00000014,15,1,1441895467131,1441895467139,514,414,0,0,0,1,2,1,12,0001-00-0008-58.png,0002-00-0007-52.png
00000014,16,0,1441895468086,1441895468598,931,401,0,0,0,4,5,1,45,0004-00-0005-65.png,0005-00-0006-65.png
00000014,17,0,1441895471923,1441895472390,928,468,0,0,0,3,4,1,34,0003-00-0005-00.png,0004-00-0002-92.png
00000014,18,0,1441895475532,1441895476078,928,390,0,0,0,4,5,1,45,0004-00-0009-72.png,0005-00-0006-91.png
00000014,19,1,1441895479605,1441895480049,366,430,0,0,0,1,2,1,12,0001-00-0002-29.png,0002-00-0009-40.png
00000014,20,1,1441895481030,1441895481510,338,417,0,0,0,2,3,1,23,0002-00-0007-30.png,0003-00-0003-92.png
00000014,21,0,1441895482806,1441895483293,374,444,0,0,0,4,3,1,43,0004-00-0003-95.png,0003-00-0009-03.png
00000014,22,0,1441895486255,1441895486279,520,477,0,0,0,3,2,1,32,0003-00-0001-80.png,0002-00-0007-04.png
00000014,23,0,1441895489464,1441895489876,354,401,0,0,0,5,4,1,54,0005-00-0002-36.png,0004-00-0001-66.png
00000014,24,0,1441895492993,1441895493411,376,396,0,0,0,2,1,1,21,0002-00-0001-19.png,0001-00-0001-89.png
00000014,25,0,1441895496564,1441895497017,350,422,0,0,0,5,4,1,54,0005-00-0002-76.png,0004-00-0000-67.png
00000014,26,1,1441895499884,1441895499917,513,413,0,0,0,3,4,1,34,0003-00-0000-26.png,0004-00-0006-66.png
00000014,27,0,1441895500831,1441895501326,926,488,0,0,0,1,2,1,12,0001-00-0003-74.png,0002-00-0000-94.png
00000014,28,1,1441895504255,1441895504271,489,426,0,0,0,2,3,1,23,0002-00-0004-91.png,0003-00-0006-88.png
00000014,29,1,1441895505188,1441895505744,913,410,0,0,0,3,2,1,32,0003-00-0007-83.png,0002-00-0008-25.png
00000014,30,1,1441895506618,1441895507153,947,420,0,0,0,2,1,1,21,0002-00-0004-63.png,0001-00-0000-61.png
00000014,31,1,1441895508160,1441895508684,347,434,0,0,0,4,5,1,45,0004-00-0009-90.png,0005-00-0000-42.png
00000014,32,1,1441895509591,1441895510123,926,384,0,0,0,4,3,1,43,0004-00-0002-61.png,0003-00-0004-93.png
00000014,33,1,1441895511057,1441895511565,301,410,0,0,0,4,5,1,45,0004-00-0006-12.png,0005-00-0006-59.png
00000014,34,1,1441895512503,1441895513013,345,428,0,0,0,1,2,1,12,0001-00-0001-19.png,0002-00-0008-90.png
00000014,35,0,1441895513923,1441895514444,886,398,0,0,0,2,3,1,23,0002-00-0007-05.png,0003-00-0002-47.png
00000014,36,0,1441895518307,1441895518839,297,414,0,0,0,2,1,1,21,0002-00-0009-60.png,0001-00-0004-30.png
00000014,37,1,1441895521694,1441895521722,470,465,0,0,0,3,4,1,34,0003-00-0007-01.png,0004-00-0005-71.png
00000014,38,1,1441895522658,1441895523203,873,359,0,0,0,5,4,1,54,0005-00-0006-16.png,0004-00-0008-76.png
00000014,39,1,1441895524188,1441895524727,906,366,0,0,0,4,3,1,43,0004-00-0007-13.png,0003-00-0009-94.png
00000014,40,1,1441895525720,1441895526264,874,357,0,0,0,3,2,1,32,0003-00-0002-67.png,0002-00-0004-03.png
00000014,41,1,1441895527259,1441895527797,904,323,0,0,0,4,3,1,43,0004-00-0005-82.png,0003-00-0004-35.png
00000014,42,0,1441895528731,1441895529241,415,397,0,0,0,2,1,1,21,0002-00-0006-86.png,0001-00-0000-34.png
00000014,43,0,1441895532235,1441895532700,921,419,0,0,0,4,5,1,45,0004-00-0003-52.png,0005-00-0003-37.png
00000014,44,1,1441895535731,1441895536228,376,384,0,0,0,1,2,1,12,0001-00-0006-38.png,0002-00-0007-71.png
00000014,45,0,1441895537187,1441895537687,341,415,0,0,0,3,2,1,32,0003-00-0001-07.png,0002-00-0001-41.png
00000014,46,0,1441895540644,1441895541182,927,346,0,0,0,3,4,1,34,0003-00-0000-64.png,0004-00-0009-71.png
00000014,47,1,1441895544324,1441895544763,319,406,0,0,0,2,3,1,23,0002-00-0004-19.png,0003-00-0005-13.png
00000014,48,1,1441895545805,1441895546366,877,357,0,0,0,5,4,1,54,0005-00-0009-97.png,0004-00-0002-47.png
00000014,49,0,1441895547374,1441895547901,887,372,0,0,0,3,4,1,34,0003-00-0002-25.png,0004-00-0003-95.png
00000014,50,1,1441895550924,1441895551422,878,466,0,0,0,2,1,1,21,0002-00-0006-95.png,0001-00-0007-52.png
00000014,51,1,1441895552422,1441895552913,294,420,0,0,0,1,2,1,12,0001-00-0002-66.png,0002-00-0009-46.png
00000014,52,0,1441895553854,1441895554337,343,401,0,0,0,4,3,1,43,0004-00-0006-84.png,0003-00-0005-38.png
00000014,53,0,1441895557474,1441895557904,340,386,0,0,0,5,4,1,54,0005-00-0000-50.png,0004-00-0001-24.png
00000014,54,1,1441895561012,1441895561530,930,402,0,0,0,3,2,1,32,0003-00-0009-53.png,0002-00-0005-06.png
00000014,55,0,1441895562529,1441895563105,877,364,0,0,0,2,3,1,23,0002-00-0004-61.png,0003-00-0001-74.png
00000014,56,1,1441895566188,1441895566673,320,371,0,0,0,4,5,1,45,0004-00-0008-99.png,0005-00-0005-02.png
00000014,57,0,1441895567690,1441895568174,401,398,0,0,0,3,2,1,32,0003-00-0008-28.png,0002-00-0003-56.png
00000014,58,0,1441895572031,1441895572436,356,410,0,0,0,5,4,1,54,0005-00-0004-19.png,0004-00-0003-35.png
00000014,59,1,1441895575520,1441895575536,515,445,0,0,0,2,3,1,23,0002-00-0006-65.png,0003-00-0007-53.png
00000014,60,1,1441895576494,1441895576997,927,331,0,0,0,4,3,1,43,0004-00-0007-84.png,0003-00-0004-51.png
00000014,61,1,1441895578095,1441895578607,904,368,0,0,0,2,1,1,21,0002-00-0009-77.png,0001-00-0009-39.png
00000014,62,1,1441895579584,1441895580110,411,435,0,0,0,3,4,1,34,0003-00-0007-13.png,0004-00-0002-79.png
00000014,63,1,1441895581186,1441895581661,384,535,0,0,0,4,5,1,45,0004-00-0004-01.png,0005-00-0001-89.png
00000014,64,0,1441895582676,1441895583172,870,472,0,0,0,1,2,1,12,0001-00-0003-84.png,0002-00-0007-11.png
00000014,65,1,1441895586093,1441895586113,508,412,0,0,0,1,2,1,12,0001-00-0004-40.png,0002-00-0009-66.png
00000014,66,0,1441895587139,1441895587637,880,349,0,0,0,4,5,1,45,0004-00-0003-93.png,0005-00-0007-43.png
00000014,67,1,1441895590764,1441895591317,875,502,0,0,0,2,1,1,21,0002-00-0002-77.png,0001-00-0007-37.png
00000014,68,1,1441895592315,1441895592853,922,394,0,0,0,3,2,1,32,0003-00-0008-87.png,0002-00-0008-94.png
00000014,69,0,1441895593824,1441895594316,905,375,0,0,0,3,4,1,34,0003-00-0004-70.png,0004-00-0005-95.png
00000014,70,1,1441895597414,1441895597922,344,383,0,0,0,2,3,1,23,0002-00-0007-90.png,0003-00-0007-84.png
00000014,71,1,1441895598945,1441895599494,871,458,0,0,0,4,3,1,43,0004-00-0000-48.png,0003-00-0005-38.png
00000014,72,1,1441895600515,1441895601045,937,398,0,0,0,5,4,1,54,0005-00-0007-80.png,0004-00-0004-38.png
00000014,73,1,1441895602075,1441895602609,340,390,0,0,0,4,5,1,45,0004-00-0005-55.png,0005-00-0001-32.png
00000014,74,0,1441895603695,1441895604189,457,430,0,0,0,3,2,1,32,0003-00-0008-95.png,0002-00-0001-69.png
00000014,75,1,1441895607349,1441895607822,882,423,0,0,0,2,1,1,21,0002-00-0006-59.png,0001-00-0002-23.png
00000014,76,1,1441895608863,1441895609396,925,386,0,0,0,5,4,1,54,0005-00-0005-93.png,0004-00-0002-07.png
00000014,77,1,1441895610445,1441895610916,320,423,0,0,0,1,2,1,12,0001-00-0000-45.png,0002-00-0002-25.png
00000014,78,1,1441895612047,1441895612549,356,418,0,0,0,3,4,1,34,0003-00-0001-26.png,0004-00-0008-17.png
00000014,79,1,1441895613610,1441895614108,324,387,0,0,0,2,3,1,23,0002-00-0001-71.png,0003-00-0000-38.png
00000014,80,1,1441895615312,1441895615818,888,397,0,0,0,4,3,1,43,0004-00-0005-72.png,0003-00-0003-40.png
00000014,81,0,1441895616886,1441895617459,418,507,0,0,0,4,3,1,43,0004-00-0006-36.png,0003-00-0002-76.png
00000014,82,1,1441895620395,1441895620909,427,436,0,0,0,3,4,1,34,0003-00-0000-25.png,0004-00-0005-02.png
00000014,83,1,1441895621913,1441895622429,364,417,0,0,0,2,3,1,23,0002-00-0002-33.png,0003-00-0007-34.png
00000014,84,1,1441895623415,1441895623978,951,385,0,0,0,5,4,1,54,0005-00-0008-82.png,0004-00-0007-11.png
00000014,85,1,1441895625013,1441895625528,860,509,0,0,0,3,2,1,32,0003-00-0003-81.png,0002-00-0006-69.png
00000014,86,0,1441895626607,1441895627141,325,423,0,0,0,2,1,1,21,0002-00-0003-54.png,0001-00-0000-64.png
00000014,87,1,1441895630326,1441895630869,412,528,0,0,0,1,2,1,12,0001-00-0002-32.png,0002-00-0002-02.png
00000014,88,0,1441895631854,1441895632368,904,401,0,0,0,4,5,1,45,0004-00-0002-60.png,0005-00-0001-60.png
00000014,89,0,1441895635392,1441895635400,511,418,0,0,0,4,3,1,43,0004-00-0003-73.png,0003-00-0008-99.png
00000014,90,0,1441895638493,1441895638992,332,393,0,0,0,2,1,1,21,0002-00-0005-55.png,0001-00-0004-01.png
00000014,91,1,1441895641853,1441895641877,518,451,0,0,0,4,5,1,45,0004-00-0007-65.png,0005-00-0004-91.png
00000014,92,0,1441895642897,1441895643431,899,370,0,0,0,3,4,1,34,0003-00-0007-66.png,0004-00-0005-79.png
00000014,93,0,1441895646553,1441895647048,273,388,0,0,0,3,2,1,32,0003-00-0009-29.png,0002-00-0006-67.png
00000014,94,1,1441895650080,1441895650096,453,410,0,0,0,2,3,1,23,0002-00-0004-48.png,0003-00-0009-90.png
00000014,95,1,1441895651065,1441895651620,878,401,0,0,0,5,4,1,54,0005-00-0004-85.png,0004-00-0005-96.png
00000014,96,0,1441895652642,1441895653166,930,375,0,0,0,1,2,1,12,0001-00-0003-37.png,0002-00-0005-43.png
00000014,97,0,1441895656122,1441895656629,444,428,0,0,0,3,2,1,32,0003-00-0007-71.png,0002-00-0002-76.png
00000014,98,0,1441895659564,1441895660120,916,431,0,0,0,2,3,1,23,0002-00-0007-51.png,0003-00-0000-26.png
00000014,99,0,1441895663381,1441895663405,520,430,0,0,0,4,3,1,43,0004-00-0007-99.png,0003-00-0007-05.png
00000014,100,1,1441895666239,1441895666713,307,397,0,0,0,1,2,1,12,0001-00-0003-99.png,0002-00-0001-03.png
00000014,101,0,1441895667673,1441895668204,905,392,0,0,0,4,5,1,45,0004-00-0008-27.png,0005-00-0009-78.png
00000014,102,1,1441895671092,1441895671665,923,405,0,0,0,5,4,1,54,0005-00-0005-48.png,0004-00-0005-10.png
00000014,103,0,1441895672573,1441895673140,875,391,0,0,0,3,4,1,34,0003-00-0008-29.png,0004-00-0003-45.png
00000014,104,0,1441895680438,1441895680920,392,496,0,0,0,2,1,1,21,0002-00-0005-73.png,0001-00-0008-54.png
00000014,105,1,1441895684008,1441895684595,878,441,0,0,0,4,3,1,43,0004-00-0007-90.png,0003-00-0005-36.png
00000014,106,1,1441895685476,1441895686024,928,419,0,0,0,3,2,1,32,0003-00-0001-98.png,0002-00-0004-15.png
00000014,107,1,1441895686909,1441895687469,360,393,0,0,0,1,2,1,12,0001-00-0000-27.png,0002-00-0008-04.png
00000014,108,0,1441895688327,1441895688882,900,475,0,0,0,2,3,1,23,0002-00-0007-92.png,0003-00-0007-31.png
00000014,109,1,1441895691747,1441895692222,369,411,0,0,0,4,5,1,45,0004-00-0006-82.png,0005-00-0002-11.png
00000014,110,1,1441895693179,1441895693708,925,410,0,0,0,2,1,1,21,0002-00-0006-58.png,0001-00-0000-77.png
00000014,111,1,1441895694659,1441895695202,934,363,0,0,0,5,4,1,54,0005-00-0003-43.png,0004-00-0000-18.png
00000014,112,0,1441895696201,1441895696733,898,482,0,0,0,3,4,1,34,0003-00-0000-32.png,0004-00-0003-71.png
00000014,113,1,1441895699569,1441895700036,944,366,0,0,0,3,2,1,32,0003-00-0005-88.png,0002-00-0005-91.png
00000014,114,1,1441895700967,1441895701544,902,391,0,0,0,5,4,1,54,0005-00-0007-23.png,0004-00-0006-69.png
00000014,115,1,1441895702471,1441895702992,875,371,0,0,0,4,3,1,43,0004-00-0005-21.png,0003-00-0000-88.png
00000014,116,1,1441895703962,1441895704445,314,423,0,0,0,1,2,1,12,0001-00-0003-50.png,0002-00-0006-89.png
00000014,117,1,1441895705392,1441895705930,365,405,0,0,0,3,4,1,34,0003-00-0004-15.png,0004-00-0007-98.png
00000014,118,1,1441895706863,1441895707464,409,393,0,0,0,4,5,1,45,0004-00-0006-25.png,0005-00-0006-79.png
00000014,119,0,1441895711623,1441895712250,877,516,0,0,0,2,3,1,23,0002-00-0005-84.png,0003-00-0007-02.png
00000014,120,1,1441895715220,1441895715744,890,443,0,0,0,2,1,1,21,0002-00-0001-38.png,0001-00-0004-34.png
00000014,121,1,1441895716590,1441895717124,350,410,0,0,0,4,5,1,45,0004-00-0003-99.png,0005-00-0009-33.png
00000014,122,1,1441895718042,1441895718591,889,440,0,0,0,3,2,1,32,0003-00-0004-44.png,0002-00-0003-65.png
00000014,123,0,1441895719614,1441895720129,451,563,0,0,0,4,3,1,43,0004-00-0007-12.png,0003-00-0007-71.png
00000014,124,0,1441895723857,1441895724280,350,397,0,0,0,2,1,1,21,0002-00-0003-63.png,0001-00-0009-86.png
00000014,125,1,1441895727116,1441895727620,359,375,0,0,0,1,2,1,12,0001-00-0009-55.png,0002-00-0003-99.png
00000014,126,1,1441895728598,1441895729141,422,516,0,0,0,3,4,1,34,0003-00-0000-75.png,0004-00-0000-86.png
00000014,127,1,1441895730097,1441895730622,374,402,0,0,0,2,3,1,23,0002-00-0001-69.png,0003-00-0000-70.png
00000014,128,0,1441895731557,1441895732461,386,407,0,0,0,5,4,1,54,0005-00-0007-72.png,0004-00-0009-28.png
00000014,129,1,1441895735413,1441895735900,324,414,0,0,0,1,2,1,12,0001-00-0001-27.png,0002-00-0002-95.png
00000014,130,0,1441895736876,1441895737357,315,416,0,0,0,2,1,1,21,0002-00-0004-24.png,0001-00-0006-34.png
00000014,131,0,1441895741061,1441895741545,376,358,0,0,0,4,3,1,43,0004-00-0006-46.png,0003-00-0007-47.png
00000014,132,1,1441895745036,1441895745570,361,359,0,0,0,4,5,1,45,0004-00-0002-63.png,0005-00-0004-32.png
00000014,133,0,1441895746717,1441895747313,926,385,0,0,0,2,3,1,23,0002-00-0008-79.png,0003-00-0006-99.png
00000014,134,0,1441895750800,1441895751293,314,389,0,0,0,3,2,1,32,0003-00-0003-58.png,0002-00-0003-04.png
00000014,135,1,1441895754387,1441895754875,927,477,0,0,0,5,4,1,54,0005-00-0007-43.png,0004-00-0003-54.png
00000014,136,0,1441895755908,1441895756403,913,371,0,0,0,3,4,1,34,0003-00-0001-63.png,0004-00-0001-18.png
00000014,137,1,1441895759406,1441895759422,504,420,0,0,0,4,5,1,45,0004-00-0009-39.png,0005-00-0005-40.png
00000014,138,1,1441895760396,1441895760919,878,442,0,0,0,3,2,1,32,0003-00-0009-64.png,0002-00-0006-09.png
00000014,139,1,1441895761992,1441895762509,893,487,0,0,0,5,4,1,54,0005-00-0000-46.png,0004-00-0000-58.png
00000014,140,0,1441895763540,1441895764056,316,401,0,0,0,2,1,1,21,0002-00-0007-33.png,0001-00-0007-58.png
00000014,141,1,1441895767070,1441895767086,507,417,0,0,0,2,3,1,23,0002-00-0006-53.png,0003-00-0005-82.png
00000014,142,1,1441895768024,1441895768546,875,410,0,0,0,4,3,1,43,0004-00-0001-04.png,0003-00-0000-57.png
00000014,143,1,1441895769566,1441895770031,376,410,0,0,0,1,2,1,12,0001-00-0004-15.png,0002-00-0002-78.png
00000014,144,0,1441895771045,1441895771605,872,484,0,0,0,3,4,1,34,0003-00-0002-88.png,0004-00-0004-18.png
00000014,145,1,1441895775071,1441895775584,355,371,0,0,0,3,4,1,34,0003-00-0006-61.png,0004-00-0009-38.png
00000014,146,1,1441895776667,1441895777154,904,479,0,0,0,2,1,1,21,0002-00-0003-20.png,0001-00-0001-50.png
00000014,147,1,1441895778232,1441895778753,349,403,0,0,0,4,5,1,45,0004-00-0004-53.png,0005-00-0001-38.png
00000014,148,1,1441895779813,1441895780336,901,382,0,0,0,4,3,1,43,0004-00-0007-36.png,0003-00-0001-43.png
00000014,149,1,1441895781342,1441895781911,439,503,0,0,0,2,3,1,23,0002-00-0001-24.png,0003-00-0006-84.png
00000014,150,1,1441895782973,1441895783515,369,388,0,0,0,1,2,1,12,0001-00-0009-63.png,0002-00-0003-79.png
00000014,151,0,1441895784554,1441895785109,458,400,0,0,0,3,2,1,32,0003-00-0006-05.png,0002-00-0006-54.png
00000014,152,0,1441895788247,1441895788760,386,397,0,0,0,5,4,1,54,0005-00-0003-54.png,0004-00-0004-04.png
00000014,153,0,1441895791617,1441895791625,482,413,0,0,0,5,4,1,54,0005-00-0004-72.png,0004-00-0002-51.png
00000014,154,1,1441895794611,1441895794655,459,461,0,0,0,2,3,1,23,0002-00-0001-12.png,0003-00-0003-30.png
00000014,155,1,1441895795675,1441895796201,886,397,0,0,0,3,2,1,32,0003-00-0003-71.png,0002-00-0003-14.png
00000014,156,0,1441895797275,1441895797832,389,502,0,0,0,2,1,1,21,0002-00-0005-62.png,0001-00-0001-09.png
00000014,157,1,1441895801032,1441895801559,870,446,0,0,0,4,3,1,43,0004-00-0006-66.png,0003-00-0004-61.png
00000014,158,1,1441895802572,1441895803062,324,410,0,0,0,1,2,1,12,0001-00-0001-33.png,0002-00-0008-27.png
00000014,159,0,1441895804272,1441895804740,922,393,0,0,0,3,4,1,34,0003-00-0003-02.png,0004-00-0002-29.png
00000014,160,0,1441895807781,1441895808399,877,441,0,0,0,4,5,1,45,0004-00-0008-85.png,0005-00-0009-11.png
00000014,161,1,1441895811437,1441895811930,401,487,0,0,0,2,3,1,23,0002-00-0009-05.png,0003-00-0009-39.png
00000014,162,0,1441895812948,1441895813500,329,416,0,0,0,4,3,1,43,0004-00-0007-07.png,0003-00-0003-55.png
00000014,163,0,1441895816405,1441895816978,445,501,0,0,0,3,2,1,32,0003-00-0005-27.png,0002-00-0000-50.png
00000014,164,1,1441895819955,1441895819967,477,413,0,0,0,4,5,1,45,0004-00-0008-42.png,0005-00-0008-49.png
00000014,165,0,1441895820888,1441895821471,877,414,0,0,0,3,4,1,34,0003-00-0002-31.png,0004-00-0006-51.png
00000014,166,1,1441895824544,1441895825126,918,388,0,0,0,2,1,1,21,0002-00-0008-03.png,0001-00-0001-45.png
00000014,167,1,1441895826127,1441895826670,903,389,0,0,0,5,4,1,54,0005-00-0004-35.png,0004-00-0004-13.png
00000014,168,0,1441895827647,1441895828142,904,389,0,0,0,1,2,1,12,0001-00-0009-90.png,0002-00-0009-10.png
00000014,169,1,1441895831642,1441895832102,957,376,0,0,0,5,4,1,54,0005-00-0001-94.png,0004-00-0000-44.png
00000014,170,1,1441895833070,1441895833528,861,371,0,0,0,2,1,1,21,0002-00-0006-35.png,0001-00-0008-28.png
00000014,171,1,1441895834614,1441895835113,388,528,0,0,0,3,4,1,34,0003-00-0003-71.png,0004-00-0000-91.png
00000014,172,1,1441895836104,1441895836619,897,419,0,0,0,3,2,1,32,0003-00-0004-07.png,0002-00-0009-84.png
00000014,173,0,1441895837675,1441895838169,378,414,0,0,0,4,3,1,43,0004-00-0006-01.png,0003-00-0003-61.png
00000014,174,1,1441895841011,1441895841451,393,537,0,0,0,1,2,1,12,0001-00-0008-03.png,0002-00-0007-79.png
00000014,175,0,1441895842446,1441895842964,904,402,0,0,0,2,3,1,23,0002-00-0000-07.png,0003-00-0003-82.png
00000014,176,1,1441895845924,1441895845948,493,423,0,0,0,4,5,1,45,0004-00-0009-68.png,0005-00-0002-86.png
00000014,177,0,1441895846996,1441895847528,315,421,0,0,0,5,4,1,54,0005-00-0003-29.png,0004-00-0009-37.png
00000014,178,0,1441895850417,1441895850884,349,402,0,0,0,3,2,1,32,0003-00-0003-04.png,0002-00-0001-35.png
00000014,179,0,1441895854155,1441895854618,952,371,0,0,0,3,4,1,34,0003-00-0006-96.png,0004-00-0006-43.png
00000014,180,1,1441895857482,1441895857965,333,377,0,0,0,4,5,1,45,0004-00-0008-68.png,0005-00-0004-90.png
00000014,181,1,1441895859082,1441895860023,376,371,0,0,0,1,2,1,12,0001-00-0001-04.png,0002-00-0008-86.png
00000014,182,1,1441895861107,1441895861622,937,398,0,0,0,4,3,1,43,0004-00-0001-00.png,0003-00-0009-40.png
00000014,183,1,1441895862661,1441895863183,344,410,0,0,0,2,3,1,23,0002-00-0005-11.png,0003-00-0006-51.png
00000014,184,1,1441895864211,1441895864747,890,508,0,0,0,2,1,1,21,0002-00-0002-23.png,0001-00-0009-65.png
00000014,185,1,1441895865731,1441895866323,405,414,0,0,0,2,3,1,23,0002-00-0006-49.png,0003-00-0005-56.png
00000014,186,1,1441895867358,1441895867878,887,398,0,0,0,3,2,1,32,0003-00-0001-08.png,0002-00-0002-14.png
00000014,187,1,1441895868943,1441895869464,886,482,0,0,0,4,3,1,43,0004-00-0002-08.png,0003-00-0002-46.png
00000014,188,1,1441895870623,1441895871095,888,436,0,0,0,2,1,1,21,0002-00-0006-77.png,0001-00-0002-15.png
00000014,189,1,1441895872092,1441895872641,374,411,0,0,0,1,2,1,12,0001-00-0006-04.png,0002-00-0001-46.png
00000014,190,0,1441895873685,1441895874804,420,409,0,0,0,5,4,1,54,0005-00-0000-03.png,0004-00-0004-11.png
00000014,191,1,1441895877627,1441895878156,365,415,0,0,0,4,5,1,45,0004-00-0007-90.png,0005-00-0004-81.png
00000014,192,0,1441895879130,1441895879657,917,418,0,0,0,3,4,1,34,0003-00-0008-00.png,0004-00-0001-64.png
00000014,193,1,1441895882773,1441895883291,906,393,0,0,0,4,3,1,43,0004-00-0005-25.png,0003-00-0009-64.png
00000014,194,1,1441895884248,1441895884771,888,424,0,0,0,2,1,1,21,0002-00-0008-38.png,0001-00-0008-08.png
00000014,195,0,1441895885789,1441895886303,903,413,0,0,0,2,3,1,23,0002-00-0005-12.png,0003-00-0003-07.png
00000014,196,0,1441895889377,1441895889413,504,496,0,0,0,3,2,1,32,0003-00-0000-89.png,0002-00-0002-05.png
00000014,197,1,1441895892320,1441895892324,522,381,0,0,0,3,4,1,34,0003-00-0005-40.png,0004-00-0001-73.png
00000014,198,1,1441895893691,1441895894166,879,401,0,0,0,5,4,1,54,0005-00-0004-05.png,0004-00-0000-52.png
00000014,199,0,1441895895212,1441895895718,879,401,0,0,0,4,5,1,45,0004-00-0003-91.png,0005-00-0003-49.png
00000014,200,1,1441895898689,1441895899176,334,400,0,0,0,1,2,1,12,0001-00-0001-71.png,0002-00-0001-69.png
00000014,201,1,1441895900141,1441895900654,914,397,0,0,0,5,4,1,54,0005-00-0006-56.png,0004-00-0008-23.png
00000014,202,0,1441895901651,1441895902219,913,397,0,0,0,4,5,1,45,0004-00-0007-01.png,0005-00-0005-81.png
00000014,203,1,1441895905279,1441895905765,382,411,0,0,0,1,2,1,12,0001-00-0005-96.png,0002-00-0009-42.png
00000014,204,1,1441895906689,1441895907248,881,488,0,0,0,4,3,1,43,0004-00-0002-01.png,0003-00-0002-80.png
00000014,205,1,1441895908221,1441895908780,880,427,0,0,0,2,1,1,21,0002-00-0008-30.png,0001-00-0002-08.png
00000014,206,1,1441895909731,1441895910283,886,424,0,0,0,3,2,1,32,0003-00-0009-78.png,0002-00-0008-05.png
00000014,207,1,1441895911264,1441895911811,362,420,0,0,0,3,4,1,34,0003-00-0007-00.png,0004-00-0008-59.png
00000014,208,0,1441895912795,1441895913349,874,489,0,0,0,2,3,1,23,0002-00-0003-00.png,0003-00-0002-05.png
00000014,209,0,1441895916419,1441895916902,350,427,0,0,0,5,4,1,54,0005-00-0001-09.png,0004-00-0005-00.png
00000014,210,1,1441895919849,1441895920361,873,534,0,0,0,2,1,1,21,0002-00-0005-17.png,0001-00-0001-69.png
00000014,211,0,1441895921340,1441895921870,911,398,0,0,0,3,4,1,34,0003-00-0004-54.png,0004-00-0001-83.png
00000014,212,1,1441895924896,1441895925393,318,395,0,0,0,1,2,1,12,0001-00-0006-64.png,0002-00-0000-22.png
00000014,213,1,1441895926349,1441895926898,897,380,0,0,0,4,3,1,43,0004-00-0004-43.png,0003-00-0005-89.png
00000014,214,0,1441895927918,1441895928466,875,397,0,0,0,4,5,1,45,0004-00-0004-46.png,0005-00-0005-98.png
00000014,215,1,1441895931355,1441895931371,478,421,0,0,0,2,3,1,23,0002-00-0007-11.png,0003-00-0002-61.png
00000014,216,1,1441895932393,1441895932899,876,398,0,0,0,3,2,1,32,0003-00-0006-12.png,0002-00-0002-81.png
00000014,217,0,1441895933951,1441895934401,344,403,0,0,0,4,3,1,43,0004-00-0000-52.png,0003-00-0000-35.png
00000014,218,0,1441895937838,1441895938340,875,410,0,0,0,1,2,1,12,0001-00-0006-30.png,0002-00-0007-29.png
00000014,219,1,1441895941203,1441895941215,486,393,0,0,0,2,3,1,23,0002-00-0006-86.png,0003-00-0008-82.png
00000014,220,0,1441895942250,1441895942753,893,364,0,0,0,3,4,1,34,0003-00-0006-34.png,0004-00-0005-91.png
00000014,221,0,1441895945679,1441895946186,394,445,0,0,0,5,4,1,54,0005-00-0003-42.png,0004-00-0009-21.png
00000014,222,0,1441895949128,1441895949677,914,501,0,0,0,4,5,1,45,0004-00-0007-63.png,0005-00-0001-95.png
00000014,223,0,1441895952645,1441895952661,504,370,0,0,0,3,2,1,32,0003-00-0004-90.png,0002-00-0007-59.png
00000014,224,0,1441895955606,1441895956102,414,396,0,0,0,2,1,1,21,0002-00-0004-54.png,0001-00-0001-41.png
00000014,225,1,1441895959633,1441895959637,516,401,0,0,0,4,5,1,45,0004-00-0006-55.png,0005-00-0003-61.png
00000014,226,1,1441895960577,1441895961048,901,371,0,0,0,4,3,1,43,0004-00-0001-55.png,0003-00-0004-59.png
00000014,227,0,1441895962047,1441895962577,877,444,0,0,0,1,2,1,12,0001-00-0003-63.png,0002-00-0008-44.png
00000014,228,1,1441895965452,1441895965472,519,371,0,0,0,3,4,1,34,0003-00-0006-33.png,0004-00-0007-97.png
00000014,229,0,1441895966381,1441895966401,504,462,0,0,0,5,4,1,54,0005-00-0008-89.png,0004-00-0003-47.png
00000014,230,1,1441895969431,1441895969938,345,406,0,0,0,2,3,1,23,0002-00-0001-70.png,0003-00-0003-27.png
00000014,231,1,1441895970973,1441895971499,896,497,0,0,0,2,1,1,21,0002-00-0006-06.png,0001-00-0002-33.png
00000014,232,0,1441895972523,1441895973035,376,384,0,0,0,3,2,1,32,0003-00-0009-36.png,0002-00-0009-86.png
00000014,233,0,1441895976162,1441895976599,417,403,0,0,0,2,1,1,21,0002-00-0008-27.png,0001-00-0001-15.png
00000014,234,1,1441895979541,1441895980233,875,372,0,0,0,5,4,1,54,0005-00-0009-84.png,0004-00-0004-19.png
00000014,235,0,1441895981301,1441895981801,319,395,0,0,0,4,3,1,43,0004-00-0002-08.png,0003-00-0007-88.png
00000014,236,0,1441895984669,1441895985211,926,409,0,0,0,4,5,1,45,0004-00-0004-86.png,0005-00-0001-62.png
00000014,237,1,1441895988266,1441895988706,444,402,0,0,0,1,2,1,12,0001-00-0006-87.png,0002-00-0004-97.png
00000014,238,0,1441895989718,1441895990329,899,481,0,0,0,3,4,1,34,0003-00-0001-75.png,0004-00-0005-18.png
00000014,239,0,1441895993246,1441895993807,415,528,0,0,0,3,2,1,32,0003-00-0000-11.png,0002-00-0004-90.png
00000014,240,0,1441895997490,1441895997941,951,448,0,0,0,2,3,1,23,0002-00-0003-14.png,0003-00-0002-49.png
00000014,241,0,1441896000919,1441896001461,978,423,0,0,0,3,4,1,34,0003-00-0001-16.png,0004-00-0003-45.png
00000014,242,0,1441896004881,1441896005946,940,411,0,0,0,1,2,1,12,0001-00-0004-00.png,0002-00-0001-27.png
00000014,243,0,1441896008869,1441896009352,355,415,0,0,0,3,2,1,32,0003-00-0001-25.png,0002-00-0009-93.png
00000014,244,0,1441896012508,1441896013124,897,457,0,0,0,4,5,1,45,0004-00-0003-18.png,0005-00-0000-81.png
00000014,245,1,1441896016332,1441896016824,934,429,0,0,0,2,1,1,21,0002-00-0004-82.png,0001-00-0002-82.png
00000014,246,1,1441896018450,1441896018970,930,455,0,0,0,4,3,1,43,0004-00-0004-57.png,0003-00-0004-18.png
00000014,247,1,1441896020210,1441896020757,900,360,0,0,0,5,4,1,54,0005-00-0003-02.png,0004-00-0005-21.png
00000014,248,1,1441896021851,1441896022301,395,464,0,0,0,2,3,1,23,0002-00-0009-10.png,0003-00-0003-71.png
00000014,249,0,1441896023351,1441896023822,337,418,0,0,0,5,4,1,54,0005-00-0005-57.png,0004-00-0005-21.png
00000014,250,1,1441896026966,1441896027427,338,423,0,0,0,2,3,1,23,0002-00-0001-06.png,0003-00-0006-26.png
00000014,251,1,1441896028419,1441896028980,319,422,0,0,0,4,5,1,45,0004-00-0004-94.png,0005-00-0001-01.png
00000014,252,1,1441896029958,1441896030511,912,424,0,0,0,4,3,1,43,0004-00-0009-42.png,0003-00-0004-76.png
00000014,253,0,1441896031530,1441896032044,864,502,0,0,0,3,4,1,34,0003-00-0008-74.png,0004-00-0004-47.png
00000014,254,1,1441896034957,1441896034973,510,394,0,0,0,1,2,1,12,0001-00-0006-65.png,0002-00-0001-07.png
00000014,255,1,1441896035971,1441896036510,879,401,0,0,0,3,2,1,32,0003-00-0007-65.png,0002-00-0001-29.png
00000014,256,1,1441896037500,1441896038056,900,411,0,0,0,2,1,1,21,0002-00-0008-21.png,0001-00-0003-25.png
00000014,257,1,1441896039053,1441896040202,416,387,0,0,0,2,3,1,23,0002-00-0004-56.png,0003-00-0001-91.png
00000014,258,1,1441896041219,1441896041765,913,423,0,0,0,3,2,1,32,0003-00-0000-43.png,0002-00-0000-45.png
00000014,259,1,1441896042750,1441896043273,404,544,0,0,0,4,5,1,45,0004-00-0008-93.png,0005-00-0007-15.png
00000014,260,1,1441896044220,1441896044768,901,411,0,0,0,2,1,1,21,0002-00-0000-92.png,0001-00-0002-63.png
00000014,261,0,1441896045717,1441896045743,504,462,0,0,0,5,4,1,54,0005-00-0009-44.png,0004-00-0004-36.png
00000014,262,1,1441896048662,1441896048718,478,384,0,0,0,3,4,1,34,0003-00-0001-23.png,0004-00-0000-79.png
00000014,263,0,1441896049653,1441896054038,407,472,0,0,0,4,3,1,43,0004-00-0007-00.png,0003-00-0008-64.png
00000014,264,0,1441896057332,1441896057824,884,483,0,0,0,1,2,1,12,0001-00-0004-44.png,0002-00-0002-42.png
00000014,265,0,1441896060748,1441896060756,517,396,0,0,0,5,4,1,54,0005-00-0005-85.png,0004-00-0009-58.png
00000014,266,1,1441896063849,1441896064367,890,496,0,0,0,2,1,1,21,0002-00-0005-10.png,0001-00-0003-38.png
00000014,267,1,1441896065449,1441896065964,319,420,0,0,0,4,5,1,45,0004-00-0000-65.png,0005-00-0006-54.png
00000014,268,0,1441896066969,1441896067498,901,384,0,0,0,2,3,1,23,0002-00-0002-18.png,0003-00-0000-35.png
00000014,269,0,1441896070429,1441896070949,358,428,0,0,0,3,2,1,32,0003-00-0008-77.png,0002-00-0006-27.png
00000014,270,0,1441896073909,1441896074432,399,405,0,0,0,4,3,1,43,0004-00-0000-44.png,0003-00-0008-44.png
00000014,271,1,1441896077523,1441896078019,312,371,0,0,0,3,4,1,34,0003-00-0006-98.png,0004-00-0002-45.png
00000014,272,0,1441896079127,1441896079641,888,502,0,0,0,1,2,1,12,0001-00-0000-07.png,0002-00-0002-52.png
00000014,273,1,1441896086011,1441896086500,405,501,0,0,0,4,5,1,45,0004-00-0006-62.png,0005-00-0003-63.png
00000014,274,0,1441896087595,1441896088134,876,414,0,0,0,1,2,1,12,0001-00-0007-25.png,0002-00-0009-56.png
00000014,275,1,1441896091163,1441896091663,877,412,0,0,0,3,2,1,32,0003-00-0002-89.png,0002-00-0005-94.png
00000014,276,0,1441896092683,1441896093253,363,440,0,0,0,5,4,1,54,0005-00-0005-48.png,0004-00-0006-00.png
00000014,277,0,1441896096229,1441896096245,523,409,0,0,0,2,1,1,21,0002-00-0000-88.png,0001-00-0003-61.png
00000014,278,1,1441896099192,1441896099200,511,414,0,0,0,3,4,1,34,0003-00-0000-41.png,0004-00-0005-35.png
00000014,279,1,1441896100135,1441896100797,900,387,0,0,0,4,3,1,43,0004-00-0004-47.png,0003-00-0006-87.png
00000014,280,1,1441896101755,1441896102285,348,423,0,0,0,2,3,1,23,0002-00-0000-19.png,0003-00-0002-69.png
00000014,281,1,1441896103327,1441896103853,905,414,0,0,0,5,4,1,54,0005-00-0008-23.png,0004-00-0000-37.png
00000014,282,1,1441896104816,1441896105460,915,401,0,0,0,3,2,1,32,0003-00-0000-45.png,0002-00-0003-52.png
00000014,283,1,1441896106476,1441896107104,882,366,0,0,0,4,3,1,43,0004-00-0004-28.png,0003-00-0009-77.png
00000014,284,0,1441896108135,1441896108623,879,428,0,0,0,2,3,1,23,0002-00-0000-60.png,0003-00-0009-29.png
00000014,285,1,1441896111946,1441896112470,319,419,0,0,0,3,4,1,34,0003-00-0007-06.png,0004-00-0006-21.png
00000014,286,0,1441896113513,1441896114027,886,398,0,0,0,4,5,1,45,0004-00-0001-16.png,0005-00-0006-93.png
00000014,287,1,1441896117944,1441896118447,311,370,0,0,0,1,2,1,12,0001-00-0009-94.png,0002-00-0004-72.png
00000014,288,1,1441896119463,1441896119997,903,438,0,0,0,2,1,1,21,0002-00-0002-61.png,0001-00-0007-65.png
00000014,289,0,1441896120952,1441896121510,359,397,0,0,0,2,1,1,21,0002-00-0002-16.png,0001-00-0000-53.png
00000014,290,0,1441896124374,1441896124963,926,476,0,0,0,3,4,1,34,0003-00-0003-26.png,0004-00-0003-13.png
00000014,291,1,1441896127830,1441896128386,387,470,0,0,0,1,2,1,12,0001-00-0009-35.png,0002-00-0006-85.png
00000014,292,0,1441896129802,1441896129818,522,423,0,0,0,4,3,1,43,0004-00-0003-85.png,0003-00-0007-59.png
00000014,293,0,1441896132793,1441896133256,344,398,0,0,0,3,2,1,32,0003-00-0000-27.png,0002-00-0008-94.png
00000014,294,0,1441896136831,1441896137347,376,423,0,0,0,5,4,1,54,0005-00-0000-06.png,0004-00-0003-54.png
00000014,295,1,1441896140400,1441896140993,299,357,0,0,0,4,5,1,45,0004-00-0006-99.png,0005-00-0002-40.png
00000014,296,1,1441896142066,1441896142670,391,496,0,0,0,2,3,1,23,0002-00-0000-02.png,0003-00-0003-31.png
00000014,297,1,1441896143747,1441896144256,887,502,0,0,0,4,3,1,43,0004-00-0007-71.png,0003-00-0000-88.png
00000014,298,0,1441896145256,1441896145771,414,423,0,0,0,3,2,1,32,0003-00-0000-37.png,0002-00-0009-64.png
00000014,299,1,1441896148879,1441896149344,388,414,0,0,0,3,4,1,34,0003-00-0006-07.png,0004-00-0002-63.png
00000014,300,1,1441896150364,1441896150908,886,424,0,0,0,5,4,1,54,0005-00-0002-46.png,0004-00-0004-79.png
00000014,301,1,1441896151925,1441896152414,376,436,0,0,0,2,3,1,23,0002-00-0006-49.png,0003-00-0006-17.png
00000014,302,1,1441896153517,1441896154011,875,397,0,0,0,2,1,1,21,0002-00-0005-50.png,0001-00-0001-77.png
00000014,303,1,1441896155017,1441896155558,340,415,0,0,0,1,2,1,12,0001-00-0009-52.png,0002-00-0005-83.png
00000014,304,1,1441896156578,1441896157623,401,436,0,0,0,4,5,1,45,0004-00-0008-73.png,0005-00-0005-10.png
00000014,305,1,1441896158713,1441896159270,434,547,0,0,0,4,5,1,45,0004-00-0006-92.png,0005-00-0000-63.png
00000014,306,1,1441896160296,1441896160803,345,414,0,0,0,1,2,1,12,0001-00-0008-78.png,0002-00-0004-83.png
00000014,307,1,1441896161886,1441896162416,877,445,0,0,0,4,3,1,43,0004-00-0003-99.png,0003-00-0006-28.png
00000014,308,0,1441896163476,1441896164011,367,428,0,0,0,3,2,1,32,0003-00-0007-42.png,0002-00-0005-70.png
00000014,309,1,1441896166935,1441896166947,509,437,0,0,0,3,4,1,34,0003-00-0007-90.png,0004-00-0005-75.png
00000014,310,1,1441896167965,1441896168479,312,423,0,0,0,2,3,1,23,0002-00-0005-95.png,0003-00-0007-36.png
00000014,311,0,1441896169555,1441896170108,312,397,0,0,0,5,4,1,54,0005-00-0004-47.png,0004-00-0000-83.png
00000014,312,0,1441896172944,1441896172968,521,448,0,0,0,2,1,1,21,0002-00-0002-28.png,0001-00-0002-19.png
00000014,313,1,1441896176049,1441896176103,503,566,0,0,0,4,5,1,45,0004-00-0003-60.png,0005-00-0002-07.png
00000014,314,1,1441896177122,1441896177626,319,400,0,0,0,1,2,1,12,0001-00-0001-73.png,0002-00-0003-54.png
00000014,315,1,1441896178725,1441896179287,901,423,0,0,0,4,3,1,43,0004-00-0009-05.png,0003-00-0003-04.png
00000014,316,0,1441896180312,1441896180926,874,423,0,0,0,3,4,1,34,0003-00-0009-62.png,0004-00-0001-38.png
00000014,317,1,1441896184807,1441896185349,401,410,0,0,0,2,3,1,23,0002-00-0003-78.png,0003-00-0000-43.png
00000014,318,0,1441896186457,1441896186917,376,436,0,0,0,3,2,1,32,0003-00-0001-84.png,0002-00-0007-18.png
00000014,319,0,1441896189885,1441896189897,512,365,0,0,0,5,4,1,54,0005-00-0008-71.png,0004-00-0006-48.png
00000014,320,0,1441896192807,1441896192823,494,403,0,0,0,2,1,1,21,0002-00-0006-64.png,0001-00-0006-11.png
00000014,321,1,1441896196336,1441896196944,863,449,0,0,0,5,4,1,54,0005-00-0002-27.png,0004-00-0008-17.png
00000014,322,1,1441896197934,1441896198446,358,419,0,0,0,2,3,1,23,0002-00-0007-26.png,0003-00-0005-58.png
00000014,323,0,1441896199438,1441896208648,388,563,0,0,0,3,2,1,32,0003-00-0009-50.png,0002-00-0001-56.png
00000014,324,1,1441896213318,1441896213760,388,411,0,0,0,1,2,1,12,0001-00-0003-94.png,0002-00-0005-31.png
00000014,325,0,1441896214647,1441896215182,900,502,0,0,0,3,4,1,34,0003-00-0004-01.png,0004-00-0004-69.png
00000014,326,1,1441896218672,1441896219222,922,446,0,0,0,2,1,1,21,0002-00-0005-55.png,0001-00-0004-20.png
00000014,327,1,1441896220183,1441896220766,933,428,0,0,0,4,3,1,43,0004-00-0001-57.png,0003-00-0006-41.png
00000014,328,1,1441896221743,1441896222314,460,419,0,0,0,4,5,1,45,0004-00-0002-19.png,0005-00-0004-99.png
00000014,329,1,1441896223434,1441896223964,900,476,0,0,0,4,3,1,43,0004-00-0005-38.png,0003-00-0003-87.png
00000014,330,1,1441896225052,1441896225594,900,411,0,0,0,5,4,1,54,0005-00-0008-25.png,0004-00-0007-75.png
00000014,331,1,1441896226554,1441896227139,411,411,0,0,0,1,2,1,12,0001-00-0009-80.png,0002-00-0006-43.png
00000014,332,1,1441896228163,1441896228749,485,438,0,0,0,4,5,1,45,0004-00-0000-21.png,0005-00-0007-01.png
00000014,333,0,1441896229843,1441896230369,908,500,0,0,0,3,4,1,34,0003-00-0001-84.png,0004-00-0009-30.png
00000014,334,0,1441896234146,1441896235090,335,395,0,0,0,2,1,1,21,0002-00-0007-24.png,0001-00-0000-98.png
00000014,335,1,1441896238886,1441896239368,355,395,0,0,0,2,3,1,23,0002-00-0008-21.png,0003-00-0001-01.png
00000014,336,1,1441896240376,1441896240883,885,432,0,0,0,3,2,1,32,0003-00-0006-89.png,0002-00-0005-78.png
00000014,337,1,1441896241797,1441896242323,412,432,0,0,0,1,2,1,12,0001-00-0004-12.png,0002-00-0005-53.png
00000014,338,1,1441896243278,1441896243818,913,421,0,0,0,5,4,1,54,0005-00-0002-59.png,0004-00-0005-18.png
00000014,339,1,1441896244799,1441896245309,443,535,0,0,0,3,4,1,34,0003-00-0009-91.png,0004-00-0004-09.png
00000014,340,1,1441896246290,1441896246817,878,417,0,0,0,3,2,1,32,0003-00-0008-09.png,0002-00-0003-47.png
00000014,341,0,1441896247782,1441896248348,368,414,0,0,0,2,1,1,21,0002-00-0008-88.png,0001-00-0004-10.png
00000014,342,1,1441896251283,1441896251813,420,391,0,0,0,2,3,1,23,0002-00-0007-63.png,0003-00-0008-10.png
00000014,343,1,1441896252799,1441896253301,369,410,0,0,0,4,5,1,45,0004-00-0004-82.png,0005-00-0001-50.png
00000014,344,0,1441896254235,1441896255186,427,449,0,0,0,4,3,1,43,0004-00-0009-81.png,0003-00-0008-70.png
00000014,345,1,1441896258136,1441896258584,375,396,0,0,0,4,5,1,45,0004-00-0008-99.png,0005-00-0001-38.png
00000014,346,1,1441896259516,1441896260102,415,413,0,0,0,3,4,1,34,0003-00-0003-66.png,0004-00-0007-32.png
00000014,347,0,1441896261039,1441896261963,438,501,0,0,0,3,2,1,32,0003-00-0008-58.png,0002-00-0002-78.png
00000014,348,1,1441896264829,1441896265367,954,427,0,0,0,2,1,1,21,0002-00-0004-95.png,0001-00-0006-52.png
00000014,349,1,1441896266304,1441896266849,428,455,0,0,0,2,3,1,23,0002-00-0003-67.png,0003-00-0000-20.png
00000014,350,0,1441896267804,1441896268315,358,428,0,0,0,5,4,1,54,0005-00-0006-17.png,0004-00-0008-66.png
00000014,351,1,1441896271334,1441896271899,876,492,0,0,0,4,3,1,43,0004-00-0009-32.png,0003-00-0005-42.png
00000014,352,0,1441896272946,1441896273476,877,415,0,0,0,1,2,1,12,0001-00-0008-07.png,0002-00-0009-39.png
00000014,353,0,1441896276430,1441896276446,469,376,0,0,0,5,4,1,54,0005-00-0003-67.png,0004-00-0001-38.png
00000014,354,1,1441896279336,1441896279898,355,391,0,0,0,3,4,1,34,0003-00-0000-72.png,0004-00-0001-34.png
00000014,355,1,1441896280905,1441896281460,248,498,0,0,0,1,2,1,12,0001-00-0006-29.png,0002-00-0007-02.png
00000014,356,0,1441896282454,1441896282974,879,401,0,0,0,2,3,1,23,0002-00-0003-67.png,0003-00-0001-07.png
00000014,357,1,1441896286580,1441896287161,857,422,0,0,0,4,3,1,43,0004-00-0008-98.png,0003-00-0004-87.png
00000014,358,1,1441896288158,1441896288641,410,523,0,0,0,4,5,1,45,0004-00-0008-80.png,0005-00-0006-07.png
00000014,359,1,1441896289616,1441896290159,864,444,0,0,0,2,1,1,21,0002-00-0003-07.png,0001-00-0009-32.png
00000014,360,1,1441896291229,1441896291767,861,507,0,0,0,3,2,1,32,0003-00-0004-63.png,0002-00-0007-19.png
00000014,361,1,1441896292696,1441896292716,453,462,0,0,0,1,2,1,12,0001-00-0000-11.png,0002-00-0004-83.png
00000014,362,1,1441896293954,1441896294455,869,524,0,0,0,5,4,1,54,0005-00-0000-82.png,0004-00-0001-35.png
00000014,363,0,1441896295486,1441896296057,395,392,0,0,0,3,2,1,32,0003-00-0009-46.png,0002-00-0003-31.png
00000014,364,1,1441896298921,1441896299391,332,418,0,0,0,3,4,1,34,0003-00-0002-70.png,0004-00-0006-90.png
00000014,365,1,1441896300482,1441896301007,901,410,0,0,0,2,1,1,21,0002-00-0002-16.png,0001-00-0009-98.png
00000014,366,1,1441896301984,1441896302525,417,519,0,0,0,4,5,1,45,0004-00-0006-16.png,0005-00-0009-76.png
00000014,367,1,1441896303534,1441896304029,878,440,0,0,0,4,3,1,43,0004-00-0002-53.png,0003-00-0000-06.png
00000014,368,1,1441896305044,1441896305575,363,410,0,0,0,2,3,1,23,0002-00-0005-79.png,0003-00-0002-70.png
00000014,369,1,1441896306617,1441896307138,875,417,0,0,0,5,4,1,54,0005-00-0007-10.png,0004-00-0009-19.png
00000014,370,0,1441896308126,1441896308687,877,416,0,0,0,3,4,1,34,0003-00-0001-89.png,0004-00-0000-03.png
00000014,371,1,1441896311594,1441896312105,877,546,0,0,0,2,1,1,21,0002-00-0005-50.png,0001-00-0008-94.png
00000014,372,1,1441896313065,1441896313559,339,419,0,0,0,1,2,1,12,0001-00-0002-82.png,0002-00-0006-65.png
00000014,373,0,1441896314596,1441896315088,344,421,0,0,0,3,2,1,32,0003-00-0009-27.png,0002-00-0001-90.png
00000014,374,1,1441896317952,1441896318440,937,425,0,0,0,4,3,1,43,0004-00-0009-28.png,0003-00-0009-07.png
00000014,375,1,1441896319396,1441896319424,478,509,0,0,0,4,5,1,45,0004-00-0005-52.png,0005-00-0008-09.png
00000014,376,1,1441896320616,1441896321582,414,423,0,0,0,2,3,1,23,0002-00-0003-27.png,0003-00-0009-24.png
00000014,377,0,1441896322596,1441896323151,337,442,0,0,0,3,2,1,32,0003-00-0003-72.png,0002-00-0001-92.png
00000014,378,0,1441896326432,1441896326978,337,425,0,0,0,5,4,1,54,0005-00-0002-55.png,0004-00-0003-44.png
00000014,379,1,1441896329836,1441896329848,510,413,0,0,0,3,4,1,34,0003-00-0003-91.png,0004-00-0004-80.png
00000014,380,0,1441896330866,1441896331362,862,409,0,0,0,2,3,1,23,0002-00-0005-57.png,0003-00-0009-01.png
00000014,381,0,1441896334331,1441896334838,419,387,0,0,0,2,1,1,21,0002-00-0008-66.png,0001-00-0005-38.png
00000014,382,1,1441896337955,1441896338465,423,429,0,0,0,1,2,1,12,0001-00-0004-13.png,0002-00-0001-67.png
00000014,383,0,1441896339523,1441896340041,385,502,0,0,0,4,3,1,43,0004-00-0008-76.png,0003-00-0008-23.png
00000014,384,1,1441896343309,1441896343795,360,427,0,0,0,4,5,1,45,0004-00-0002-42.png,0005-00-0000-66.png
00000014,385,1,1441896344851,1441896345391,875,397,0,0,0,2,1,1,21,0002-00-0004-66.png,0001-00-0006-49.png
00000014,386,1,1441896346380,1441896346831,356,421,0,0,0,1,2,1,12,0001-00-0005-92.png,0002-00-0005-66.png
00000014,387,1,1441896347881,1441896348379,421,444,0,0,0,2,3,1,23,0002-00-0000-00.png,0003-00-0008-59.png
00000014,388,0,1441896349371,1441896349908,877,442,0,0,0,4,5,1,45,0004-00-0009-78.png,0005-00-0009-04.png
00000014,389,0,1441896353050,1441896353493,901,450,0,0,0,3,4,1,34,0003-00-0009-18.png,0004-00-0006-56.png
00000014,390,0,1441896356416,1441896356428,516,384,0,0,0,3,2,1,32,0003-00-0001-30.png,0002-00-0007-47.png
00000014,391,0,1441896359540,1441896360107,425,531,0,0,0,5,4,1,54,0005-00-0007-92.png,0004-00-0003-41.png
00000014,392,0,1441896363107,1441896363612,421,415,0,0,0,4,3,1,43,0004-00-0009-77.png,0003-00-0004-19.png
00000014,393,1,1441896366443,1441896366922,413,372,0,0,0,3,4,1,34,0003-00-0001-36.png,0004-00-0007-88.png
00000014,394,0,1441896367926,1441896368461,902,411,0,0,0,1,2,1,12,0001-00-0005-81.png,0002-00-0003-08.png
00000014,395,0,1441896371413,1441896371437,504,450,0,0,0,2,1,1,21,0002-00-0000-92.png,0001-00-0007-71.png
00000014,396,0,1441896374377,1441896374385,519,412,0,0,0,3,2,1,32,0003-00-0002-25.png,0002-00-0009-16.png
00000014,397,0,1441896377415,1441896377949,904,402,0,0,0,4,5,1,45,0004-00-0008-87.png,0005-00-0009-37.png
00000014,398,1,1441896381054,1441896381567,419,407,0,0,0,2,3,1,23,0002-00-0001-61.png,0003-00-0008-30.png
00000014,399,1,1441896382596,1441896383108,884,419,0,0,0,4,3,1,43,0004-00-0003-97.png,0003-00-0009-10.png
00000014,400,1,1441896384096,1441896384625,912,398,0,0,0,5,4,1,54,0005-00-0002-42.png,0004-00-0005-03.png
00000014,401,1,1441896385638,1441896386171,899,437,0,0,0,2,1,1,21,0002-00-0004-92.png,0001-00-0006-76.png
00000014,402,0,1441896387177,1441896387707,378,405,0,0,0,3,2,1,32,0003-00-0002-42.png,0002-00-0007-06.png
00000014,403,0,1441896391610,1441896392123,316,401,0,0,0,4,3,1,43,0004-00-0001-44.png,0003-00-0005-52.png
00000014,404,1,1441896395229,1441896395707,429,444,0,0,0,3,4,1,34,0003-00-0002-25.png,0004-00-0001-69.png
00000014,405,1,1441896396648,1441896397193,392,449,0,0,0,1,2,1,12,0001-00-0009-74.png,0002-00-0000-71.png
00000014,406,1,1441896398179,1441896398730,341,418,0,0,0,4,5,1,45,0004-00-0004-34.png,0005-00-0003-50.png
00000014,407,1,1441896399730,1441896400261,902,416,0,0,0,5,4,1,54,0005-00-0007-60.png,0004-00-0005-44.png
00000014,408,0,1441896401210,1441896401797,902,415,0,0,0,2,3,1,23,0002-00-0005-30.png,0003-00-0009-28.png
00000014,409,0,1441896404887,1441896405360,902,430,0,0,0,2,3,1,23,0002-00-0002-00.png,0003-00-0006-28.png
00000014,410,0,1441896408497,1441896409043,396,537,0,0,0,2,1,1,21,0002-00-0004-52.png,0001-00-0001-13.png
00000014,411,1,1441896412100,1441896412619,376,416,0,0,0,3,4,1,34,0003-00-0003-72.png,0004-00-0007-48.png
00000014,412,0,1441896413635,1441896414125,375,419,0,0,0,4,3,1,43,0004-00-0007-88.png,0003-00-0003-03.png
00000014,413,0,1441896417272,1441896417283,523,416,0,0,0,3,2,1,32,0003-00-0005-95.png,0002-00-0002-33.png
00000014,414,1,1441896420739,1441896421201,392,429,0,0,0,4,5,1,45,0004-00-0001-04.png,0005-00-0001-33.png
00000014,415,1,1441896422130,1441896422150,504,436,0,0,0,1,2,1,12,0001-00-0003-42.png,0002-00-0004-80.png
00000014,416,1,1441896423254,1441896423721,875,503,0,0,0,5,4,1,54,0005-00-0004-93.png,0004-00-0005-79.png
00000014,417,0,1441896424675,1441896424691,504,428,0,0,0,3,2,1,32,0003-00-0003-65.png,0002-00-0007-11.png
00000014,418,1,1441896427545,1441896428016,438,515,0,0,0,3,4,1,34,0003-00-0008-33.png,0004-00-0001-13.png
00000014,419,0,1441896428978,1441896429494,420,428,0,0,0,4,3,1,43,0004-00-0009-69.png,0003-00-0008-32.png
00000014,420,1,1441896433103,1441896433545,905,427,0,0,0,5,4,1,54,0005-00-0006-08.png,0004-00-0009-44.png
00000014,421,1,1441896434564,1441896435094,348,420,0,0,0,2,3,1,23,0002-00-0006-44.png,0003-00-0005-64.png
00000014,422,1,1441896436044,1441896436594,323,448,0,0,0,1,2,1,12,0001-00-0004-87.png,0002-00-0009-54.png
00000014,423,0,1441896437585,1441896438601,465,517,0,0,0,2,1,1,21,0002-00-0003-28.png,0001-00-0003-75.png
00000014,424,1,1441896443051,1441896443562,306,427,0,0,0,4,5,1,45,0004-00-0002-17.png,0005-00-0000-85.png
00000014,425,1,1441896444542,1441896445045,440,528,0,0,0,4,5,1,45,0004-00-0003-44.png,0005-00-0007-10.png
00000014,426,1,1441896446001,1441896446515,376,498,0,0,0,1,2,1,12,0001-00-0009-60.png,0002-00-0005-21.png
00000014,427,1,1441896447473,1441896448410,905,532,0,0,0,5,4,1,54,0005-00-0006-49.png,0004-00-0001-74.png
00000014,428,1,1441896449348,1441896449906,904,420,0,0,0,3,2,1,32,0003-00-0005-34.png,0002-00-0009-52.png
00000014,429,1,1441896450850,1441896451353,415,419,0,0,0,3,4,1,34,0003-00-0009-39.png,0004-00-0000-10.png
00000014,430,1,1441896452341,1441896452896,862,519,0,0,0,2,1,1,21,0002-00-0003-96.png,0001-00-0006-51.png
00000014,431,0,1441896453832,1441896454367,367,427,0,0,0,4,3,1,43,0004-00-0008-05.png,0003-00-0005-23.png
00000014,432,1,1441896458180,1441896458650,340,412,0,0,0,2,3,1,23,0002-00-0007-33.png,0003-00-0002-82.png
00000014,433,1,1441896459556,1441896460124,878,428,0,0,0,3,2,1,32,0003-00-0008-35.png,0002-00-0003-92.png
00000014,434,1,1441896461066,1441896461591,387,417,0,0,0,3,4,1,34,0003-00-0000-81.png,0004-00-0007-32.png
00000014,435,1,1441896462577,1441896463119,879,453,0,0,0,2,1,1,21,0002-00-0005-09.png,0001-00-0000-00.png
00000014,436,1,1441896464087,1441896464589,866,536,0,0,0,4,3,1,43,0004-00-0005-98.png,0003-00-0003-57.png
00000014,437,1,1441896465548,1441896466072,879,427,0,0,0,5,4,1,54,0005-00-0005-52.png,0004-00-0002-18.png
00000014,438,0,1441896467048,1441896467615,875,437,0,0,0,4,5,1,45,0004-00-0000-38.png,0005-00-0005-95.png
00000014,439,1,1441896470533,1441896471038,401,410,0,0,0,2,3,1,23,0002-00-0001-64.png,0003-00-0009-68.png
00000014,440,0,1441896472027,1441896472574,879,428,0,0,0,1,2,1,12,0001-00-0002-88.png,0002-00-0009-62.png
00000014,441,1,1441896475774,1441896476288,434,443,0,0,0,3,4,1,34,0003-00-0000-03.png,0004-00-0006-27.png
00000014,442,1,1441896477199,1441896477723,902,412,0,0,0,5,4,1,54,0005-00-0006-54.png,0004-00-0009-93.png
00000014,443,0,1441896478622,1441896478645,507,441,0,0,0,4,3,1,43,0004-00-0007-98.png,0003-00-0001-85.png
00000014,444,1,1441896481717,1441896482202,355,399,0,0,0,2,3,1,23,0002-00-0004-79.png,0003-00-0003-57.png
00000014,445,1,1441896483237,1441896483755,877,416,0,0,0,3,2,1,32,0003-00-0004-37.png,0002-00-0007-07.png
00000014,446,1,1441896484768,1441896485334,395,402,0,0,0,4,5,1,45,0004-00-0000-84.png,0005-00-0001-88.png
00000014,447,0,1441896486268,1441896486832,880,389,0,0,0,1,2,1,12,0001-00-0008-98.png,0002-00-0006-21.png
00000014,448,0,1441896489736,1441896490227,414,423,0,0,0,2,1,1,21,0002-00-0006-21.png,0001-00-0005-66.png
00000014,449,1,1441896493115,1441896493606,931,376,0,0,0,2,1,1,21,0002-00-0002-33.png,0001-00-0003-06.png
00000014,450,0,1441896494548,1441896495070,378,425,0,0,0,3,2,1,32,0003-00-0003-78.png,0002-00-0002-19.png
00000014,451,1,1441896498048,1441896498052,498,412,0,0,0,2,3,1,23,0002-00-0007-85.png,0003-00-0004-12.png
00000014,452,1,1441896499059,1441896499605,248,488,0,0,0,4,5,1,45,0004-00-0003-01.png,0005-00-0001-64.png
00000014,453,0,1441896500529,1441896501059,376,423,0,0,0,5,4,1,54,0005-00-0003-19.png,0004-00-0008-32.png
00000014,454,1,1441896504256,1441896504767,427,410,0,0,0,1,2,1,12,0001-00-0000-85.png,0002-00-0001-51.png
00000014,455,1,1441896505677,1441896506222,379,429,0,0,0,3,4,1,34,0003-00-0007-62.png,0004-00-0000-53.png
00000014,456,1,1441896507199,1441896507799,870,445,0,0,0,4,3,1,43,0004-00-0007-87.png,0003-00-0008-27.png
00000014,457,1,1441896508838,1441896509362,445,454,0,0,0,2,3,1,23,0002-00-0004-05.png,0003-00-0003-65.png
00000014,458,1,1441896510268,1441896511297,394,444,0,0,0,4,5,1,45,0004-00-0007-60.png,0005-00-0003-77.png
00000014,459,1,1441896512276,1441896512784,857,514,0,0,0,2,1,1,21,0002-00-0006-26.png,0001-00-0008-91.png
00000014,460,1,1441896513786,1441896514315,888,450,0,0,0,4,3,1,43,0004-00-0001-93.png,0003-00-0004-94.png
00000014,461,1,1441896515318,1441896515880,886,424,0,0,0,3,2,1,32,0003-00-0004-16.png,0002-00-0004-99.png
00000014,462,1,1441896516797,1441896517350,416,528,0,0,0,1,2,1,12,0001-00-0003-34.png,0002-00-0006-48.png
00000014,463,0,1441896518477,1441896519011,893,417,0,0,0,3,4,1,34,0003-00-0009-43.png,0004-00-0009-34.png
00000014,464,0,1441896521976,1441896522393,388,424,0,0,0,5,4,1,54,0005-00-0007-67.png,0004-00-0000-86.png
00000014,465,0,1441896525303,1441896525819,401,384,0,0,0,5,4,1,54,0005-00-0009-95.png,0004-00-0006-60.png
00000014,466,1,1441896528900,1441896529430,905,415,0,0,0,3,2,1,32,0003-00-0009-81.png,0002-00-0002-35.png
00000014,467,1,1441896530406,1441896530939,885,486,0,0,0,4,3,1,43,0004-00-0006-91.png,0003-00-0008-25.png
00000014,468,1,1441896532073,1441896533023,316,406,0,0,0,4,5,1,45,0004-00-0006-54.png,0005-00-0009-39.png
00000014,469,1,1441896534000,1441896534491,446,446,0,0,0,3,4,1,34,0003-00-0000-37.png,0004-00-0008-47.png
00000014,470,1,1441896535449,1441896535963,383,392,0,0,0,1,2,1,12,0001-00-0005-33.png,0002-00-0006-28.png
00000014,471,0,1441896536991,1441896537513,439,544,0,0,0,2,1,1,21,0002-00-0007-76.png,0001-00-0000-69.png
00000014,472,1,1441896540359,1441896540807,392,403,0,0,0,2,3,1,23,0002-00-0001-89.png,0003-00-0007-30.png
00000014,473,1,1441896541724,1441896542238,876,434,0,0,0,3,2,1,32,0003-00-0003-01.png,0002-00-0006-01.png
00000014,474,1,1441896543184,1441896543688,325,410,0,0,0,1,2,1,12,0001-00-0001-48.png,0002-00-0006-52.png
00000014,475,0,1441896544624,1441896545229,860,403,0,0,0,2,3,1,23,0002-00-0002-60.png,0003-00-0005-03.png
00000014,476,1,1441896548131,1441896548143,515,384,0,0,0,3,4,1,34,0003-00-0005-85.png,0004-00-0006-56.png
00000014,477,0,1441896549131,1441896549641,344,435,0,0,0,2,1,1,21,0002-00-0001-97.png,0001-00-0001-96.png
00000014,478,1,1441896552753,1441896553234,875,397,0,0,0,5,4,1,54,0005-00-0000-98.png,0004-00-0000-19.png
00000014,479,1,1441896554275,1441896554796,902,416,0,0,0,4,3,1,43,0004-00-0003-49.png,0003-00-0008-87.png
00000014,480,1,1441896555722,1441896556237,369,419,0,0,0,4,5,1,45,0004-00-0006-23.png,0005-00-0008-42.png
00000014,481,0,1441896557226,1441896557753,887,424,0,0,0,3,4,1,34,0003-00-0001-23.png,0004-00-0007-46.png
00000014,482,0,1441896561131,1441896561577,339,415,0,0,0,4,3,1,43,0004-00-0007-00.png,0003-00-0004-06.png
00000014,483,0,1441896564530,1441896564968,393,401,0,0,0,2,1,1,21,0002-00-0003-74.png,0001-00-0003-63.png
00000014,484,1,1441896568376,1441896568875,299,371,0,0,0,2,3,1,23,0002-00-0001-26.png,0003-00-0000-38.png
00000014,485,0,1441896570065,1441896570538,858,485,0,0,0,4,5,1,45,0004-00-0001-79.png,0005-00-0005-62.png
00000014,486,0,1441896573563,1441896573571,522,428,0,0,0,3,2,1,32,0003-00-0006-46.png,0002-00-0006-68.png
00000014,487,0,1441896576696,1441896577701,920,501,0,0,0,1,2,1,12,0001-00-0009-10.png,0002-00-0004-70.png
00000014,488,0,1441896581525,1441896581906,330,397,0,0,0,5,4,1,54,0005-00-0006-10.png,0004-00-0005-24.png
00000014,489,1,1441896584770,1441896584794,504,453,0,0,0,1,2,1,12,0001-00-0007-41.png,0002-00-0003-26.png
00000014,490,0,1441896585879,1441896586423,297,413,0,0,0,5,4,1,54,0005-00-0005-64.png,0004-00-0008-43.png
00000014,491,1,1441896589275,1441896589792,922,420,0,0,0,4,3,1,43,0004-00-0001-40.png,0003-00-0001-35.png
00000014,492,1,1441896590689,1441896590705,504,449,0,0,0,3,4,1,34,0003-00-0001-40.png,0004-00-0006-74.png
00000014,493,1,1441896591798,1441896592300,881,418,0,0,0,2,1,1,21,0002-00-0005-18.png,0001-00-0000-94.png
00000014,494,0,1441896593257,1441896593798,892,399,0,0,0,2,3,1,23,0002-00-0001-84.png,0003-00-0005-45.png
00000014,495,0,1441896596681,1441896597176,337,423,0,0,0,3,2,1,32,0003-00-0000-94.png,0002-00-0009-02.png
00000014,496,1,1441896599994,1441896600437,362,420,0,0,0,4,5,1,45,0004-00-0008-98.png,0005-00-0008-11.png
00000014,497,0,1441896601412,1441896601932,364,396,0,0,0,3,2,1,32,0003-00-0001-81.png,0002-00-0003-88.png
00000014,498,1,1441896604778,1441896605294,427,410,0,0,0,1,2,1,12,0001-00-0007-55.png,0002-00-0001-22.png
00000014,499,0,1441896606301,1441896606834,900,410,0,0,0,3,4,1,34,0003-00-0007-19.png,0004-00-0001-41.png
00000014,500,0,1441896609850,1441896609858,518,419,0,0,0,2,1,1,21,0002-00-0006-40.png,0001-00-0008-69.png
00000014,501,1,1441896612970,1441896613440,340,378,0,0,0,4,5,1,45,0004-00-0007-45.png,0005-00-0007-71.png
00000014,502,0,1441896614462,1441896614976,897,420,0,0,0,2,3,1,23,0002-00-0000-06.png,0003-00-0008-27.png
00000014,503,0,1441896618707,1441896618711,494,462,0,0,0,4,3,1,43,0004-00-0005-36.png,0003-00-0006-70.png
00000014,504,0,1441896622598,1441896623149,339,438,0,0,0,5,4,1,54,0005-00-0008-42.png,0004-00-0001-26.png
00000014,505,1,1441896626246,1441896626696,896,393,0,0,0,2,1,1,21,0002-00-0004-89.png,0001-00-0002-35.png
00000014,506,0,1441896627638,1441896628251,345,421,0,0,0,4,3,1,43,0004-00-0009-43.png,0003-00-0007-13.png
00000014,507,0,1441896631376,1441896631951,919,402,0,0,0,3,4,1,34,0003-00-0009-37.png,0004-00-0007-86.png
00000014,508,0,1441896634909,1441896635439,415,493,0,0,0,3,2,1,32,0003-00-0009-03.png,0002-00-0008-55.png
00000014,509,1,1441896638399,1441896638872,900,449,0,0,0,5,4,1,54,0005-00-0003-37.png,0004-00-0003-71.png
00000014,510,1,1441896639882,1441896640360,405,407,0,0,0,1,2,1,12,0001-00-0000-12.png,0002-00-0008-53.png
00000014,511,1,1441896641333,1441896641856,380,425,0,0,0,4,5,1,45,0004-00-0000-49.png,0005-00-0003-31.png
00000014,512,1,1441896642952,1441896643443,393,443,0,0,0,2,3,1,23,0002-00-0003-53.png,0003-00-0007-66.png
00000014,513,1,1441896644434,1441896644931,382,405,0,0,0,1,2,1,12,0001-00-0001-78.png,0002-00-0002-50.png
00000014,514,1,1441896645914,1441896646428,902,416,0,0,0,2,1,1,21,0002-00-0009-93.png,0001-00-0006-11.png
00000014,515,0,1441896647387,1441896647901,925,436,0,0,0,2,3,1,23,0002-00-0007-82.png,0003-00-0002-46.png
00000014,516,1,1441896650907,1441896651376,337,423,0,0,0,3,4,1,34,0003-00-0009-13.png,0004-00-0009-04.png
00000014,517,0,1441896652357,1441896652815,401,449,0,0,0,4,3,1,43,0004-00-0008-01.png,0003-00-0003-14.png
00000014,518,0,1441896655953,1441896656408,350,437,0,0,0,5,4,1,54,0005-00-0001-01.png,0004-00-0004-85.png
00000014,519,1,1441896659380,1441896659863,904,427,0,0,0,3,2,1,32,0003-00-0002-95.png,0002-00-0000-03.png
00000014,520,0,1441896660927,1441896661428,874,413,0,0,0,4,5,1,45,0004-00-0000-28.png,0005-00-0001-59.png
00000014,521,0,1441896666617,1441896667096,334,423,0,0,0,3,2,1,32,0003-00-0007-11.png,0002-00-0000-20.png
00000014,522,1,1441896671547,1441896672077,901,424,0,0,0,2,1,1,21,0002-00-0009-72.png,0001-00-0003-73.png
00000014,523,1,1441896672987,1441896673512,391,534,0,0,0,4,5,1,45,0004-00-0009-91.png,0005-00-0000-71.png
00000014,524,0,1441896674438,1441896674980,889,431,0,0,0,3,4,1,34,0003-00-0009-46.png,0004-00-0002-50.png
00000014,525,1,1441896685134,1441896685774,882,474,0,0,0,4,3,1,43,0004-00-0004-71.png,0003-00-0006-56.png
00000014,526,1,1441896686687,1441896687170,365,423,0,0,0,1,2,1,12,0001-00-0000-81.png,0002-00-0002-15.png
00000014,527,1,1441896688119,1441896688653,875,443,0,0,0,5,4,1,54,0005-00-0001-23.png,0004-00-0005-99.png
00000014,528,1,1441896689505,1441896689996,401,433,0,0,0,2,3,1,23,0002-00-0004-48.png,0003-00-0005-72.png
00000014,529,1,1441896690940,1441896691463,422,444,0,0,0,1,2,1,12,0001-00-0000-13.png,0002-00-0007-74.png
00000014,530,0,1441896692392,1441896692962,401,401,0,0,0,2,1,1,21,0002-00-0001-61.png,0001-00-0002-36.png
00000014,531,1,1441896697499,1441896697955,865,504,0,0,0,5,4,1,54,0005-00-0005-69.png,0004-00-0000-97.png
00000014,532,1,1441896698950,1441896699434,438,410,0,0,0,2,3,1,23,0002-00-0006-55.png,0003-00-0006-85.png
00000014,533,1,1441896700532,1441896700556,479,509,0,0,0,3,4,1,34,0003-00-0000-46.png,0004-00-0009-66.png
00000014,534,0,1441896701775,1441896702864,463,512,0,0,0,3,2,1,32,0003-00-0004-98.png,0002-00-0008-30.png
00000014,535,0,1441896705732,1441896706190,440,404,0,0,0,4,3,1,43,0004-00-0006-91.png,0003-00-0006-20.png
00000014,536,1,1441896709124,1441896709148,480,419,0,0,0,4,5,1,45,0004-00-0009-75.png,0005-00-0008-81.png
00000014,537,0,1441896710069,1441896710576,900,410,0,0,0,3,4,1,34,0003-00-0006-44.png,0004-00-0006-17.png
00000014,538,0,1441896713618,1441896713626,496,435,0,0,0,2,1,1,21,0002-00-0003-50.png,0001-00-0004-64.png
00000014,539,1,1441896721555,1441896722155,870,498,0,0,0,3,2,1,32,0003-00-0001-02.png,0002-00-0007-21.png
00000014,540,1,1441896723138,1441896723601,427,410,0,0,0,1,2,1,12,0001-00-0002-33.png,0002-00-0001-37.png
00000014,541,1,1441896724598,1441896725128,876,436,0,0,0,5,4,1,54,0005-00-0009-09.png,0004-00-0007-36.png
00000014,542,1,1441896725984,1441896726525,403,439,0,0,0,4,5,1,45,0004-00-0008-52.png,0005-00-0003-87.png
00000014,543,0,1441896727400,1441896727943,917,484,0,0,0,2,3,1,23,0002-00-0006-79.png,0003-00-0003-86.png
00000014,544,1,1441896731000,1441896731490,861,425,0,0,0,4,3,1,43,0004-00-0001-24.png,0003-00-0001-35.png
00000014,545,1,1441896732451,1441896732973,405,427,0,0,0,2,3,1,23,0002-00-0006-90.png,0003-00-0000-09.png
00000014,546,0,1441896733997,1441896734542,286,498,0,0,0,4,3,1,43,0004-00-0004-51.png,0003-00-0006-60.png
00000014,547,1,1441896737637,1441896738205,905,402,0,0,0,5,4,1,54,0005-00-0009-49.png,0004-00-0008-01.png
00000014,548,1,1441896739256,1441896739769,892,429,0,0,0,2,1,1,21,0002-00-0004-00.png,0001-00-0008-75.png
00000014,549,1,1441896740708,1441896741234,340,419,0,0,0,3,4,1,34,0003-00-0007-24.png,0004-00-0000-15.png
00000014,550,1,1441896742299,1441896742843,228,504,0,0,0,1,2,1,12,0001-00-0002-80.png,0002-00-0006-88.png
00000014,551,1,1441896743811,1441896744380,367,441,0,0,0,4,5,1,45,0004-00-0008-94.png,0005-00-0008-14.png
00000014,552,0,1441896745825,1441896746352,468,522,0,0,0,3,2,1,32,0003-00-0001-29.png,0002-00-0000-42.png
00000014,553,0,1441896749354,1441896749866,391,377,0,0,0,4,3,1,43,0004-00-0002-97.png,0003-00-0007-25.png
00000014,554,1,1441896752970,1441896753417,401,398,0,0,0,4,5,1,45,0004-00-0003-97.png,0005-00-0000-99.png
00000014,555,1,1441896754383,1441896755422,903,429,0,0,0,5,4,1,54,0005-00-0001-90.png,0004-00-0005-90.png
00000014,556,1,1441896756341,1441896756883,401,462,0,0,0,3,4,1,34,0003-00-0007-28.png,0004-00-0002-49.png
00000014,557,1,1441896757842,1441896758431,902,439,0,0,0,3,2,1,32,0003-00-0008-18.png,0002-00-0008-93.png
00000014,558,0,1441896759454,1441896759974,864,437,0,0,0,1,2,1,12,0001-00-0000-24.png,0002-00-0005-86.png
00000014,559,0,1441896762937,1441896763486,900,423,0,0,0,2,3,1,23,0002-00-0003-65.png,0003-00-0005-65.png
00000014,560,1,1441896766676,1441896767618,902,417,0,0,0,2,1,1,21,0002-00-0000-12.png,0001-00-0000-24.png
00000014,561,1,1441896768544,1441896769518,453,384,0,0,0,3,4,1,34,0003-00-0008-86.png,0004-00-0007-13.png
00000014,562,1,1441896770454,1441896770992,875,450,0,0,0,2,1,1,21,0002-00-0007-60.png,0001-00-0003-80.png
00000014,563,1,1441896771933,1441896772490,875,410,0,0,0,5,4,1,54,0005-00-0003-15.png,0004-00-0008-18.png
00000014,564,0,1441896773420,1441896773424,504,473,0,0,0,3,2,1,32,0003-00-0008-24.png,0002-00-0009-68.png
00000014,565,0,1441896776892,1441896777507,458,520,0,0,0,4,3,1,43,0004-00-0004-56.png,0003-00-0009-20.png
00000014,566,1,1441896796868,1441896800862,457,475,0,0,0,4,5,1,45,0004-00-0003-80.png,0005-00-0004-38.png
00000014,567,1,1441896801867,1441896819248,288,361,0,0,0,2,3,1,23,0002-00-0008-86.png,0003-00-0007-75.png
00000014,568,0,1441896820178,1441896820730,901,434,0,0,0,1,2,1,12,0001-00-0006-21.png,0002-00-0007-17.png
00000014,569,1,1441896827358,1441896827821,338,392,0,0,0,1,2,1,12,0001-00-0001-24.png,0002-00-0007-74.png
00000014,570,1,1441896828720,1441896829265,900,540,0,0,0,2,1,1,21,0002-00-0005-72.png,0001-00-0001-64.png
00000014,571,1,1441896830152,1441896830724,328,442,0,0,0,4,5,1,45,0004-00-0001-78.png,0005-00-0007-61.png
00000014,572,0,1441896832071,1441896832612,453,423,0,0,0,3,2,1,32,0003-00-0000-97.png,0002-00-0006-74.png
00000014,573,1,1441896835534,1441896836633,949,551,0,0,0,5,4,1,54,0005-00-0006-48.png,0004-00-0002-53.png
00000014,574,1,1441896837555,1441896838109,453,423,0,0,0,3,4,1,34,0003-00-0000-35.png,0004-00-0002-94.png
00000014,575,1,1441896839010,1441896839598,862,487,0,0,0,4,3,1,43,0004-00-0005-41.png,0003-00-0002-34.png
00000014,576,1,1441896840534,1441896840546,504,452,0,0,0,2,3,1,23,0002-00-0000-69.png,0003-00-0000-68.png
00000014,577,1,1441896841527,1441896842125,368,416,0,0,0,2,3,1,23,0002-00-0001-66.png,0003-00-0006-35.png
00000014,578,1,1441896843020,1441896844129,389,398,0,0,0,4,5,1,45,0004-00-0006-09.png,0005-00-0002-29.png
00000014,579,0,1441896845107,1441896845115,468,462,0,0,0,3,2,1,32,0003-00-0003-05.png,0002-00-0003-64.png
00000014,580,0,1441896848220,1441896848799,443,531,0,0,0,5,4,1,54,0005-00-0005-62.png,0004-00-0004-34.png
00000014,581,0,1441896865593,1441896866041,874,502,0,0,0,1,2,1,12,0001-00-0008-09.png,0002-00-0005-78.png
00000014,582,1,1441896869041,1441896869539,890,515,0,0,0,2,1,1,21,0002-00-0008-99.png,0001-00-0000-85.png
00000014,583,0,1441896870824,1441896871890,392,442,0,0,0,4,3,1,43,0004-00-0004-35.png,0003-00-0004-96.png
00000014,584,0,1441896878100,1441896878511,898,509,0,0,0,3,4,1,34,0003-00-0001-84.png,0004-00-0000-44.png
00000014,585,1,1441896887119,1441896887587,906,505,0,0,0,4,3,1,43,0004-00-0005-25.png,0003-00-0004-49.png
00000014,586,0,1441896888843,1441896889335,908,444,0,0,0,3,4,1,34,0003-00-0000-14.png,0004-00-0008-79.png
00000014,587,0,1441896894776,1441896895242,358,462,0,0,0,5,4,1,54,0005-00-0009-31.png,0004-00-0003-16.png
00000014,588,1,1441896898452,1441896898904,390,421,0,0,0,4,5,1,45,0004-00-0001-96.png,0005-00-0009-97.png
00000014,589,0,1441896899903,1441896900417,926,437,0,0,0,2,3,1,23,0002-00-0002-74.png,0003-00-0001-36.png
00000014,590,1,1441896903371,1441896903834,392,418,0,0,0,1,2,1,12,0001-00-0009-67.png,0002-00-0009-17.png
00000014,591,0,1441896904717,1441896904728,478,473,0,0,0,3,2,1,32,0003-00-0007-25.png,0002-00-0004-96.png
00000014,592,1,1441896907981,1441896908525,880,500,0,0,0,2,1,1,21,0002-00-0007-59.png,0001-00-0007-83.png
00000014,593,1,1441896909749,1441896910236,886,515,0,0,0,4,3,1,43,0004-00-0006-88.png,0003-00-0002-97.png
00000014,594,1,1441896911101,1441896911670,394,433,0,0,0,2,3,1,23,0002-00-0001-54.png,0003-00-0007-41.png
00000014,595,0,1441896912539,1441896913124,902,519,0,0,0,1,2,1,12,0001-00-0007-63.png,0002-00-0003-55.png
00000014,596,1,1441896916390,1441896916858,900,425,0,0,0,2,1,1,21,0002-00-0004-41.png,0001-00-0008-26.png
00000014,597,0,1441896917698,1441896918236,875,528,0,0,0,4,5,1,45,0004-00-0006-03.png,0005-00-0000-71.png
00000014,598,0,1441896922293,1441896922952,877,384,0,0,0,3,4,1,34,0003-00-0002-78.png,0004-00-0009-64.png
00000014,599,1,1441896925979,1441896926463,875,415,0,0,0,3,2,1,32,0003-00-0005-75.png,0002-00-0000-15.png
00000014,600,1,1441896927304,1441896927834,875,411,0,0,0,5,4,1,54,0005-00-0000-20.png,0004-00-0003-71.png
00000014,601,1,1441896928661,1441896929267,470,384,0,0,0,4,5,1,45,0004-00-0007-54.png,0005-00-0003-11.png
00000014,602,0,1441896930132,1441896930180,492,462,0,0,0,2,1,1,21,0002-00-0003-60.png,0001-00-0006-04.png
00000014,603,1,1441896933015,1441896933464,350,384,0,0,0,2,3,1,23,0002-00-0001-32.png,0003-00-0003-71.png
00000014,604,0,1441896934335,1441896934343,443,422,0,0,0,4,3,1,43,0004-00-0004-40.png,0003-00-0002-32.png
00000014,605,1,1441896937387,1441896937802,334,400,0,0,0,1,2,1,12,0001-00-0008-08.png,0002-00-0002-35.png
00000014,606,0,1441896938656,1441896938684,478,451,0,0,0,5,4,1,54,0005-00-0009-10.png,0004-00-0008-25.png
00000014,607,1,1441896941728,1441896942178,901,410,0,0,0,3,2,1,32,0003-00-0006-74.png,0002-00-0002-05.png
00000014,608,1,1441896943081,1441896943089,483,444,0,0,0,3,4,1,34,0003-00-0002-03.png,0004-00-0004-63.png
00000014,609,0,1441896944105,1441896944815,276,460,0,0,0,2,1,1,21,0002-00-0004-47.png,0001-00-0006-91.png
00000014,610,1,1441896947933,1441896948446,321,378,0,0,0,1,2,1,12,0001-00-0000-22.png,0002-00-0008-78.png
00000014,611,0,1441896949299,1441896950250,893,453,0,0,0,3,4,1,34,0003-00-0008-03.png,0004-00-0001-15.png
00000014,612,0,1441896953278,1441896953722,312,423,0,0,0,5,4,1,54,0005-00-0006-81.png,0004-00-0007-80.png
00000014,613,1,1441896956906,1441896957338,340,416,0,0,0,2,3,1,23,0002-00-0001-37.png,0003-00-0008-45.png
00000014,614,0,1441896958304,1441896958818,379,426,0,0,0,4,3,1,43,0004-00-0008-92.png,0003-00-0007-58.png
00000014,615,0,1441896961663,1441896962129,411,427,0,0,0,3,2,1,32,0003-00-0006-72.png,0002-00-0006-89.png
00000014,616,1,1441896965225,1441896965679,325,397,0,0,0,4,5,1,45,0004-00-0000-75.png,0005-00-0006-22.png
00000014,617,1,1441896966580,1441896967092,904,401,0,0,0,3,2,1,32,0003-00-0009-41.png,0002-00-0005-22.png
00000014,618,1,1441896967996,1441896968508,863,489,0,0,0,4,3,1,43,0004-00-0008-87.png,0003-00-0008-25.png
00000014,619,0,1441896969395,1441896969946,371,393,0,0,0,2,1,1,21,0002-00-0004-80.png,0001-00-0006-77.png
00000014,620,0,1441896972916,1441896973368,401,423,0,0,0,5,4,1,54,0005-00-0009-10.png,0004-00-0009-74.png
00000014,621,1,1441896976584,1441896977032,453,514,0,0,0,3,4,1,34,0003-00-0005-32.png,0004-00-0007-98.png
00000014,622,1,1441896977925,1441896977933,495,439,0,0,0,2,3,1,23,0002-00-0007-33.png,0003-00-0006-11.png
00000014,623,0,1441896978928,1441896979469,874,489,0,0,0,1,2,1,12,0001-00-0000-63.png,0002-00-0000-32.png
00000014,624,1,1441896982413,1441896982920,298,504,0,0,0,4,5,1,45,0004-00-0001-76.png,0005-00-0000-33.png
00000014,625,1,1441896983815,1441896983835,504,448,0,0,0,1,2,1,12,0001-00-0003-17.png,0002-00-0004-58.png
00000014,626,1,1441896984862,1441896985346,903,418,0,0,0,2,1,1,21,0002-00-0003-96.png,0001-00-0004-27.png
00000014,627,1,1441896986251,1441896986776,874,514,0,0,0,5,4,1,54,0005-00-0008-76.png,0004-00-0001-79.png
00000014,628,0,1441896988151,1441896988616,879,374,0,0,0,3,4,1,34,0003-00-0005-18.png,0004-00-0006-07.png
00000014,629,1,1441896992056,1441896992515,900,489,0,0,0,4,3,1,43,0004-00-0006-22.png,0003-00-0007-01.png
00000014,630,1,1441896993358,1441896993386,504,452,0,0,0,2,3,1,23,0002-00-0001-16.png,0003-00-0005-12.png
00000014,631,1,1441896994471,1441896995412,363,405,0,0,0,4,5,1,45,0004-00-0005-54.png,0005-00-0004-01.png
00000014,632,1,1441896996299,1441896996812,926,423,0,0,0,3,2,1,32,0003-00-0002-84.png,0002-00-0001-46.png
00000014,633,1,1441896997648,1441896998721,427,401,0,0,0,3,4,1,34,0003-00-0002-45.png,0004-00-0002-00.png
00000014,634,1,1441896999570,1441896999598,504,475,0,0,0,2,3,1,23,0002-00-0008-13.png,0003-00-0006-22.png
00000014,635,0,1441897000592,1441897001667,412,405,0,0,0,4,3,1,43,0004-00-0004-80.png,0003-00-0003-42.png
00000014,636,1,1441897008469,1441897008953,354,415,0,0,0,1,2,1,12,0001-00-0004-89.png,0002-00-0000-19.png
00000014,637,0,1441897009865,1441897010365,913,410,0,0,0,4,5,1,45,0004-00-0009-37.png,0005-00-0007-54.png
00000014,638,1,1441897017920,1441897018384,875,528,0,0,0,3,2,1,32,0003-00-0004-21.png,0002-00-0007-01.png
00000014,639,0,1441897019221,1441897019289,452,543,0,0,0,2,1,1,21,0002-00-0009-61.png,0001-00-0009-56.png
00000014,640,0,1441897022280,1441897022299,494,458,0,0,0,5,4,1,54,0005-00-0007-96.png,0004-00-0000-35.png
00000014,641,0,1441897026140,1441897026677,256,507,0,0,0,5,4,1,54,0005-00-0008-34.png,0004-00-0002-23.png
00000014,642,1,1441897031727,1441897032246,318,373,0,0,0,4,5,1,45,0004-00-0008-93.png,0005-00-0002-95.png
00000014,643,0,1441897033214,1441897034235,973,420,0,0,0,1,2,1,12,0001-00-0001-24.png,0002-00-0002-01.png
00000014,644,1,1441897038191,1441897038611,394,505,0,0,0,2,3,1,23,0002-00-0007-20.png,0003-00-0002-69.png
00000014,645,1,1441897039507,1441897040021,430,527,0,0,0,3,4,1,34,0003-00-0006-88.png,0004-00-0006-88.png
00000014,646,0,1441897040911,1441897041459,390,387,0,0,0,2,1,1,21,0002-00-0000-62.png,0001-00-0000-44.png
00000014,647,0,1441897044575,1441897044989,377,416,0,0,0,3,2,1,32,0003-00-0006-73.png,0002-00-0003-27.png
00000014,648,0,1441897051448,1441897051921,410,393,0,0,0,4,3,1,43,0004-00-0009-12.png,0003-00-0004-82.png
00000014,649,1,1441897057939,1441897058425,434,391,0,0,0,1,2,1,12,0001-00-0002-94.png,0002-00-0001-48.png
00000014,650,1,1441897059364,1441897059895,421,566,0,0,0,3,4,1,34,0003-00-0005-61.png,0004-00-0006-22.png
00000014,651,0,1441897060751,1441897060779,504,472,0,0,0,5,4,1,54,0005-00-0007-37.png,0004-00-0004-26.png
00000014,652,1,1441897064340,1441897064836,438,560,0,0,0,2,3,1,23,0002-00-0006-10.png,0003-00-0003-26.png
00000014,653,1,1441897065742,1441897066659,382,385,0,0,0,4,5,1,45,0004-00-0002-44.png,0005-00-0006-04.png
00000014,654,0,1441897067568,1441897067572,504,474,0,0,0,4,3,1,43,0004-00-0007-03.png,0003-00-0007-03.png
00000014,655,1,1441897070410,1441897070987,921,472,0,0,0,2,1,1,21,0002-00-0008-46.png,0001-00-0006-16.png
00000014,656,0,1441897072289,1441897072752,370,416,0,0,0,3,2,1,32,0003-00-0009-48.png,0002-00-0007-72.png
00000014,657,1,1441897075670,1441897076161,413,528,0,0,0,1,2,1,12,0001-00-0008-72.png,0002-00-0009-01.png
00000014,658,1,1441897077027,1441897077575,930,401,0,0,0,5,4,1,54,0005-00-0009-16.png,0004-00-0006-17.png
00000014,659,1,1441897078439,1441897079489,334,427,0,0,0,2,3,1,23,0002-00-0006-32.png,0003-00-0001-53.png
00000014,660,0,1441897080460,1441897080978,875,397,0,0,0,4,5,1,45,0004-00-0007-05.png,0005-00-0007-12.png
00000014,661,0,1441897086184,1441897086647,306,441,0,0,0,4,3,1,43,0004-00-0005-91.png,0003-00-0005-84.png
00000014,662,0,1441897092837,1441897093228,348,397,0,0,0,2,1,1,21,0002-00-0006-90.png,0001-00-0000-06.png
00000014,663,1,1441897096087,1441897096535,342,394,0,0,0,3,4,1,34,0003-00-0007-37.png,0004-00-0007-82.png
00000014,664,1,1441897097442,1441897097992,891,489,0,0,0,3,2,1,32,0003-00-0008-97.png,0002-00-0002-68.png
00000014,665,1,1441897099223,1441897100183,444,404,0,0,0,3,4,1,34,0003-00-0006-26.png,0004-00-0005-78.png
00000014,666,1,1441897101361,1441897101382,504,410,0,0,0,4,5,1,45,0004-00-0002-32.png,0005-00-0005-86.png
00000014,667,0,1441897102249,1441897102768,368,443,0,0,0,2,1,1,21,0002-00-0001-39.png,0001-00-0004-13.png
00000014,668,1,1441897109817,1441897110346,390,425,0,0,0,2,3,1,23,0002-00-0009-09.png,0003-00-0009-10.png
00000014,669,1,1441897111239,1441897111798,396,538,0,0,0,1,2,1,12,0001-00-0007-62.png,0002-00-0006-39.png
00000014,670,0,1441897112692,1441897113209,354,451,0,0,0,5,4,1,54,0005-00-0008-04.png,0004-00-0006-40.png
00000014,671,1,1441897118718,1441897119171,900,435,0,0,0,4,3,1,43,0004-00-0009-28.png,0003-00-0003-33.png
00000014,672,1,1441897120075,1441897120598,891,484,0,0,0,3,2,1,32,0003-00-0006-55.png,0002-00-0005-66.png
00000014,673,0,1441897121486,1441897122009,928,414,0,0,0,2,3,1,23,0002-00-0008-54.png,0003-00-0001-61.png
00000014,674,1,1441897125612,1441897126123,909,491,0,0,0,2,1,1,21,0002-00-0004-19.png,0001-00-0003-46.png
00000014,675,0,1441897126991,1441897127015,504,436,0,0,0,3,2,1,32,0003-00-0009-04.png,0002-00-0001-81.png
00000014,676,1,1441897145836,1441897146256,928,443,0,0,0,4,3,1,43,0004-00-0003-93.png,0003-00-0003-70.png
00000014,677,0,1441897147218,1441897147226,478,448,0,0,0,5,4,1,54,0005-00-0000-79.png,0004-00-0007-43.png
00000014,678,1,1441897150556,1441897151022,343,425,0,0,0,4,5,1,45,0004-00-0005-29.png,0005-00-0008-00.png
00000014,679,1,1441897151973,1441897152502,405,498,0,0,0,1,2,1,12,0001-00-0002-07.png,0002-00-0008-72.png
00000014,680,1,1441897153387,1441897153407,484,472,0,0,0,3,4,1,34,0003-00-0003-49.png,0004-00-0006-57.png
00000014,681,0,1441897154465,1441897154947,875,410,0,0,0,2,3,1,23,0002-00-0005-10.png,0003-00-0005-95.png
00000014,682,0,1441897158100,1441897158599,341,414,0,0,0,5,4,1,54,0005-00-0005-56.png,0004-00-0008-28.png
00000014,683,0,1441897161421,1441897161813,376,395,0,0,0,4,3,1,43,0004-00-0007-59.png,0003-00-0003-92.png
00000014,684,1,1441897164855,1441897165303,905,402,0,0,0,2,1,1,21,0002-00-0001-13.png,0001-00-0002-88.png
00000014,685,0,1441897166283,1441897166876,876,447,0,0,0,4,5,1,45,0004-00-0002-09.png,0005-00-0006-53.png
00000014,686,1,1441897178710,1441897179229,299,423,0,0,0,1,2,1,12,0001-00-0002-87.png,0002-00-0006-53.png
00000014,687,0,1441897180184,1441897180200,502,425,0,0,0,3,2,1,32,0003-00-0006-97.png,0002-00-0008-46.png
00000014,688,1,1441897183186,1441897183693,376,413,0,0,0,3,4,1,34,0003-00-0009-86.png,0004-00-0006-83.png
00000014,689,0,1441897184609,1441897185134,899,490,0,0,0,2,3,1,23,0002-00-0008-14.png,0003-00-0006-99.png
00000014,690,1,1441897188271,1441897188754,321,386,0,0,0,1,2,1,12,0001-00-0007-95.png,0002-00-0004-53.png
00000014,691,0,1441897189693,1441897189713,494,462,0,0,0,3,2,1,32,0003-00-0002-69.png,0002-00-0006-78.png
00000014,692,1,1441897192676,1441897193196,273,396,0,0,0,4,5,1,45,0004-00-0004-89.png,0005-00-0003-17.png
00000014,693,1,1441897194079,1441897194653,904,427,0,0,0,4,3,1,43,0004-00-0007-94.png,0003-00-0004-58.png
00000014,694,1,1441897195676,1441897196159,369,391,0,0,0,3,4,1,34,0003-00-0001-65.png,0004-00-0009-35.png
00000014,695,0,1441897197038,1441897197608,467,521,0,0,0,5,4,1,54,0005-00-0006-20.png,0004-00-0008-64.png
00000014,696,0,1441897200536,1441897200544,521,417,0,0,0,2,1,1,21,0002-00-0007-12.png,0001-00-0005-16.png
00000014,697,1,1441897203374,1441897203774,376,396,0,0,0,2,3,1,23,0002-00-0006-16.png,0003-00-0009-94.png
00000014,698,1,1441897204677,1441897204705,495,436,0,0,0,1,2,1,12,0001-00-0004-15.png,0002-00-0003-93.png
00000014,699,0,1441897205763,1441897206214,363,449,0,0,0,4,3,1,43,0004-00-0002-03.png,0003-00-0002-03.png
00000014,700,0,1441897209741,1441897210174,363,417,0,0,0,5,4,1,54,0005-00-0001-98.png,0004-00-0001-17.png
00000014,701,1,1441897213309,1441897213740,328,409,0,0,0,4,5,1,45,0004-00-0004-56.png,0005-00-0001-28.png
00000014,702,0,1441897214691,1441897215233,869,506,0,0,0,3,4,1,34,0003-00-0001-33.png,0004-00-0007-75.png
00000014,703,0,1441897218326,1441897218832,440,516,0,0,0,2,1,1,21,0002-00-0006-71.png,0001-00-0001-32.png
00000014,704,0,1441897222359,1441897222867,322,427,0,0,0,3,2,1,32,0003-00-0009-61.png,0002-00-0009-70.png
00000014,705,0,1441897225972,1441897226452,267,505,0,0,0,5,4,1,54,0005-00-0009-32.png,0004-00-0007-37.png
00000014,706,0,1441897230789,1441897231252,374,404,0,0,0,3,2,1,32,0003-00-0003-28.png,0002-00-0002-89.png
00000014,707,1,1441897234495,1441897234997,386,397,0,0,0,1,2,1,12,0001-00-0005-96.png,0002-00-0005-51.png
00000014,708,1,1441897236010,1441897236512,477,541,0,0,0,2,3,1,23,0002-00-0007-15.png,0003-00-0004-45.png
00000014,709,0,1441897237376,1441897237433,504,488,0,0,0,2,1,1,21,0002-00-0003-95.png,0001-00-0007-18.png
00000014,710,1,1441897240696,1441897241255,867,428,0,0,0,4,3,1,43,0004-00-0009-17.png,0003-00-0009-52.png
00000014,711,0,1441897242124,1441897242648,885,425,0,0,0,3,4,1,34,0003-00-0004-69.png,0004-00-0009-40.png
00000014,712,1,1441897245508,1441897246027,404,410,0,0,0,4,5,1,45,0004-00-0007-43.png,0005-00-0006-58.png
00000014,713,1,1441897246998,1441897247018,504,452,0,0,0,4,5,1,45,0004-00-0001-72.png,0005-00-0005-54.png
00000014,714,0,1441897247981,1441897248505,443,546,0,0,0,5,4,1,54,0005-00-0004-62.png,0004-00-0006-88.png
00000014,715,1,1441897251578,1441897251594,504,462,0,0,0,1,2,1,12,0001-00-0009-19.png,0002-00-0005-29.png
00000014,716,0,1441897252488,1441897253049,422,388,0,0,0,2,1,1,21,0002-00-0008-40.png,0001-00-0007-45.png
00000014,717,0,1441897255969,1441897256468,259,488,0,0,0,3,2,1,32,0003-00-0000-90.png,0002-00-0003-31.png
00000014,718,1,1441897259598,1441897260356,441,496,0,0,0,3,4,1,34,0003-00-0005-56.png,0004-00-0001-95.png
00000014,719,0,1441897261358,1441897261374,504,486,0,0,0,4,3,1,43,0004-00-0002-42.png,0003-00-0007-37.png
00000014,720,1,1441897264390,1441897264868,410,495,0,0,0,2,3,1,23,0002-00-0002-76.png,0003-00-0000-03.png
00000014,721,0,1441897265791,1441897265799,478,451,0,0,0,2,1,1,21,0002-00-0007-43.png,0001-00-0005-42.png
00000014,722,0,1441897268951,1441897269496,899,435,0,0,0,3,4,1,34,0003-00-0006-06.png,0004-00-0008-78.png
00000014,723,1,1441897272366,1441897272871,906,488,0,0,0,5,4,1,54,0005-00-0001-06.png,0004-00-0005-12.png
00000014,724,1,1441897273771,1441897274282,874,516,0,0,0,3,2,1,32,0003-00-0004-49.png,0002-00-0002-93.png
00000014,725,1,1441897275637,1441897276490,341,397,0,0,0,2,3,1,23,0002-00-0000-53.png,0003-00-0003-02.png
00000014,726,1,1441897277398,1441897277925,401,410,0,0,0,1,2,1,12,0001-00-0008-78.png,0002-00-0001-41.png
00000014,727,1,1441897278859,1441897279429,409,400,0,0,0,4,5,1,45,0004-00-0008-06.png,0005-00-0001-97.png
00000014,728,0,1441897280365,1441897280898,349,410,0,0,0,4,3,1,43,0004-00-0003-36.png,0003-00-0007-52.png
00000014,729,1,1441897284057,1441897284502,371,427,0,0,0,4,5,1,45,0004-00-0008-51.png,0005-00-0000-63.png
00000014,730,0,1441897285368,1441897285896,872,536,0,0,0,2,3,1,23,0002-00-0008-20.png,0003-00-0004-62.png
00000014,731,0,1441897289077,1441897289539,416,540,0,0,0,2,1,1,21,0002-00-0009-56.png,0001-00-0009-95.png
00000014,732,1,1441897292424,1441897292903,432,488,0,0,0,3,4,1,34,0003-00-0000-80.png,0004-00-0006-45.png
00000014,733,0,1441897293785,1441897293813,504,476,0,0,0,4,3,1,43,0004-00-0005-40.png,0003-00-0009-01.png
00000014,734,1,1441897297531,1441897297989,889,396,0,0,0,5,4,1,54,0005-00-0001-28.png,0004-00-0000-66.png
00000014,735,0,1441897298944,1441897299935,363,383,0,0,0,3,2,1,32,0003-00-0000-51.png,0002-00-0006-50.png
00000014,736,1,1441897303109,1441897303620,386,468,0,0,0,1,2,1,12,0001-00-0008-26.png,0002-00-0004-99.png
00000014,737,0,1441897304508,1441897304553,504,488,0,0,0,3,2,1,32,0003-00-0007-68.png,0002-00-0008-84.png
00000014,738,0,1441897307460,1441897307480,517,451,0,0,0,2,1,1,21,0002-00-0001-04.png,0001-00-0005-68.png
00000014,739,1,1441897310372,1441897310400,466,480,0,0,0,4,5,1,45,0004-00-0003-91.png,0005-00-0002-52.png
00000014,740,0,1441897311348,1441897312317,443,530,0,0,0,5,4,1,54,0005-00-0007-19.png,0004-00-0000-79.png
00000014,741,1,1441897315180,1441897315648,415,528,0,0,0,1,2,1,12,0001-00-0004-27.png,0002-00-0001-95.png
00000014,742,0,1441897316620,1441897317101,875,410,0,0,0,3,4,1,34,0003-00-0002-47.png,0004-00-0003-61.png
00000014,743,1,1441897320262,1441897320274,478,450,0,0,0,2,3,1,23,0002-00-0001-44.png,0003-00-0008-79.png
00000014,744,1,1441897321187,1441897321713,867,404,0,0,0,4,3,1,43,0004-00-0006-82.png,0003-00-0007-92.png
00000014,745,1,1441897322624,1441897323171,358,375,0,0,0,2,3,1,23,0002-00-0002-81.png,0003-00-0005-06.png
00000014,746,1,1441897324136,1441897324688,858,465,0,0,0,2,1,1,21,0002-00-0001-21.png,0001-00-0006-16.png
00000014,747,1,1441897325587,1441897326120,359,415,0,0,0,1,2,1,12,0001-00-0009-73.png,0002-00-0002-38.png
00000014,748,1,1441897327024,1441897327545,875,410,0,0,0,3,2,1,32,0003-00-0004-63.png,0002-00-0001-18.png
00000014,749,0,1441897328458,1441897329004,427,410,0,0,0,4,3,1,43,0004-00-0002-56.png,0003-00-0008-96.png
00000014,750,0,1441897331967,1441897332461,900,515,0,0,0,3,4,1,34,0003-00-0008-27.png,0004-00-0000-70.png
00000014,751,0,1441897335452,1441897335936,416,539,0,0,0,5,4,1,54,0005-00-0009-23.png,0004-00-0003-79.png
00000014,752,1,1441897338844,1441897338856,501,426,0,0,0,4,5,1,45,0004-00-0000-70.png,0005-00-0001-67.png
00000014,753,0,1441897339805,1441897340326,888,423,0,0,0,1,2,1,12,0001-00-0002-39.png,0002-00-0003-70.png
00000014,754,1,1441897343217,1441897343673,338,418,0,0,0,3,4,1,34,0003-00-0007-80.png,0004-00-0002-23.png
00000014,755,1,1441897344549,1441897345278,887,450,0,0,0,3,2,1,32,0003-00-0007-84.png,0002-00-0007-41.png
00000014,756,0,1441897346189,1441897346718,261,502,0,0,0,2,1,1,21,0002-00-0007-30.png,0001-00-0004-04.png
00000014,757,0,1441897349554,1441897349582,503,429,0,0,0,5,4,1,54,0005-00-0003-23.png,0004-00-0000-14.png
00000014,758,1,1441897352573,1441897353046,925,412,0,0,0,4,3,1,43,0004-00-0003-28.png,0003-00-0001-59.png
00000014,759,1,1441897353907,1441897354432,345,413,0,0,0,4,5,1,45,0004-00-0008-88.png,0005-00-0002-19.png
00000014,760,0,1441897355383,1441897355924,875,391,0,0,0,2,3,1,23,0002-00-0001-09.png,0003-00-0005-99.png
00000014,761,0,1441897359397,1441897359900,248,500,0,0,0,3,2,1,32,0003-00-0002-08.png,0002-00-0007-70.png
00000014,762,1,1441897363232,1441897363726,887,424,0,0,0,5,4,1,54,0005-00-0000-42.png,0004-00-0001-54.png
00000014,763,1,1441897364693,1441897365216,345,446,0,0,0,4,5,1,45,0004-00-0005-06.png,0005-00-0003-74.png
00000014,764,1,1441897366180,1441897366697,928,410,0,0,0,2,1,1,21,0002-00-0000-13.png,0001-00-0002-21.png
00000014,765,1,1441897367626,1441897368149,376,410,0,0,0,3,4,1,34,0003-00-0000-95.png,0004-00-0003-57.png
00000014,766,1,1441897369105,1441897369555,349,429,0,0,0,2,3,1,23,0002-00-0001-32.png,0003-00-0005-91.png
00000014,767,0,1441897370505,1441897370529,504,488,0,0,0,4,3,1,43,0004-00-0002-68.png,0003-00-0002-01.png
00000014,768,1,1441897373358,1441897373860,290,401,0,0,0,1,2,1,12,0001-00-0004-40.png,0002-00-0009-54.png
00000014,769,1,1441897374870,1441897375409,862,487,0,0,0,5,4,1,54,0005-00-0007-31.png,0004-00-0003-89.png
00000014,770,0,1441897376320,1441897376846,873,516,0,0,0,3,4,1,34,0003-00-0008-07.png,0004-00-0007-44.png
00000014,771,0,1441897379897,1441897380376,453,449,0,0,0,4,3,1,43,0004-00-0002-35.png,0003-00-0001-05.png
00000014,772,1,1441897383858,1441897384335,350,436,0,0,0,1,2,1,12,0001-00-0006-09.png,0002-00-0004-59.png
00000014,773,0,1441897385315,1441897385830,876,392,0,0,0,2,3,1,23,0002-00-0001-96.png,0003-00-0002-88.png
00000014,774,0,1441897388972,1441897389432,893,431,0,0,0,4,5,1,45,0004-00-0005-72.png,0005-00-0008-86.png
00000014,775,1,1441897392425,1441897392920,882,539,0,0,0,2,1,1,21,0002-00-0005-19.png,0001-00-0008-78.png
00000014,776,0,1441897393843,1441897394303,375,447,0,0,0,3,2,1,32,0003-00-0002-90.png,0002-00-0007-73.png
00000014,777,0,1441897397279,1441897397799,376,423,0,0,0,4,3,1,43,0004-00-0008-23.png,0003-00-0004-45.png
00000014,778,1,1441897400752,1441897401243,350,413,0,0,0,4,5,1,45,0004-00-0002-56.png,0005-00-0004-77.png
00000014,779,1,1441897402202,1441897402736,923,387,0,0,0,2,1,1,21,0002-00-0002-73.png,0001-00-0001-55.png
00000014,780,1,1441897403684,1441897403708,478,449,0,0,0,1,2,1,12,0001-00-0000-65.png,0002-00-0004-32.png
00000014,781,1,1441897404767,1441897405298,892,495,0,0,0,5,4,1,54,0005-00-0008-12.png,0004-00-0001-81.png
00000014,782,1,1441897406216,1441897406715,410,486,0,0,0,2,3,1,23,0002-00-0002-52.png,0003-00-0005-72.png
00000014,783,1,1441897407653,1441897408154,401,427,0,0,0,3,4,1,34,0003-00-0000-26.png,0004-00-0008-43.png
00000014,784,0,1441897409063,1441897410105,401,358,0,0,0,3,2,1,32,0003-00-0002-58.png,0002-00-0006-14.png
00000014,785,1,1441897413228,1441897413719,381,473,0,0,0,1,2,1,12,0001-00-0002-38.png,0002-00-0001-28.png
00000014,786,1,1441897414714,1441897415249,357,446,0,0,0,2,3,1,23,0002-00-0008-45.png,0003-00-0005-79.png
00000014,787,1,1441897416169,1441897416734,900,423,0,0,0,2,1,1,21,0002-00-0001-69.png,0001-00-0000-44.png
00000014,788,0,1441897417568,1441897417596,504,450,0,0,0,3,2,1,32,0003-00-0007-79.png,0002-00-0008-63.png
00000014,789,0,1441897420918,1441897421406,441,540,0,0,0,5,4,1,54,0005-00-0002-15.png,0004-00-0001-35.png
00000014,790,1,1441897424237,1441897424713,361,387,0,0,0,4,5,1,45,0004-00-0009-32.png,0005-00-0001-37.png
00000014,791,1,1441897425632,1441897426185,930,401,0,0,0,4,3,1,43,0004-00-0008-70.png,0003-00-0005-00.png
00000014,792,1,1441897427094,1441897427114,475,471,0,0,0,3,4,1,34,0003-00-0001-03.png,0004-00-0002-35.png
00000014,793,1,1441897428212,1441897428655,874,488,0,0,0,4,3,1,43,0004-00-0008-06.png,0003-00-0003-77.png
00000014,794,1,1441897429526,1441897430552,926,386,0,0,0,2,1,1,21,0002-00-0009-75.png,0001-00-0002-67.png
00000014,795,1,1441897431447,1441897431467,478,454,0,0,0,3,4,1,34,0003-00-0009-08.png,0004-00-0002-52.png
00000014,796,0,1441897432661,1441897433181,880,504,0,0,0,2,3,1,23,0002-00-0008-70.png,0003-00-0001-43.png
00000014,797,0,1441897436626,1441897437172,390,394,0,0,0,5,4,1,54,0005-00-0004-26.png,0004-00-0009-48.png
00000014,798,1,1441897440182,1441897440198,506,458,0,0,0,1,2,1,12,0001-00-0006-21.png,0002-00-0004-12.png
00000014,799,0,1441897441157,1441897441651,881,392,0,0,0,4,5,1,45,0004-00-0004-56.png,0005-00-0008-31.png
00000014,800,1,1441897444564,1441897445073,900,391,0,0,0,3,2,1,32,0003-00-0000-63.png,0002-00-0007-27.png
00000014,801,1,1441897445957,1441897446557,376,424,0,0,0,4,5,1,45,0004-00-0005-49.png,0005-00-0009-17.png
00000014,802,0,1441897447436,1441897447456,461,469,0,0,0,4,3,1,43,0004-00-0000-16.png,0003-00-0002-13.png
00000014,803,1,1441897450368,1441897450913,955,416,0,0,0,3,2,1,32,0003-00-0001-80.png,0002-00-0001-34.png
00000014,804,1,1441897451744,1441897452347,908,420,0,0,0,2,1,1,21,0002-00-0003-13.png,0001-00-0003-79.png
00000014,805,1,1441897453179,1441897453751,383,419,0,0,0,1,2,1,12,0001-00-0008-63.png,0002-00-0006-81.png
00000014,806,1,1441897454693,1441897455232,409,419,0,0,0,2,3,1,23,0002-00-0008-15.png,0003-00-0007-05.png
00000014,807,1,1441897456122,1441897456639,925,411,0,0,0,5,4,1,54,0005-00-0009-49.png,0004-00-0007-44.png
00000014,808,1,1441897457545,1441897458044,401,384,0,0,0,3,4,1,34,0003-00-0002-56.png,0004-00-0005-38.png
00000014,809,1,1441897458976,1441897459508,894,509,0,0,0,5,4,1,54,0005-00-0008-42.png,0004-00-0004-92.png
00000014,810,1,1441897460444,1441897460927,886,536,0,0,0,3,2,1,32,0003-00-0000-11.png,0002-00-0005-02.png
00000014,811,1,1441897462238,1441897462718,358,422,0,0,0,2,3,1,23,0002-00-0000-12.png,0003-00-0004-32.png
00000014,812,0,1441897463745,1441897464216,395,429,0,0,0,2,1,1,21,0002-00-0008-84.png,0001-00-0005-38.png
00000014,813,0,1441897467716,1441897468175,898,483,0,0,0,3,4,1,34,0003-00-0001-79.png,0004-00-0004-92.png
00000014,814,1,1441897471284,1441897471781,350,308,0,0,0,1,2,1,12,0001-00-0006-60.png,0002-00-0007-30.png
00000014,815,0,1441897472647,1441897472675,469,462,0,0,0,4,3,1,43,0004-00-0001-79.png,0003-00-0007-72.png
00000014,816,1,1441897476097,1441897476561,411,522,0,0,0,4,5,1,45,0004-00-0002-83.png,0005-00-0006-23.png
00000014,817,1,1441897477392,1441897477911,378,436,0,0,0,4,5,1,45,0004-00-0001-17.png,0005-00-0005-87.png
00000014,818,1,1441897478757,1441897479298,415,538,0,0,0,1,2,1,12,0001-00-0003-06.png,0002-00-0008-97.png
00000014,819,0,1441897480191,1441897480203,478,462,0,0,0,3,2,1,32,0003-00-0001-14.png,0002-00-0006-96.png
00000014,820,1,1441897483143,1441897483672,889,423,0,0,0,2,1,1,21,0002-00-0005-86.png,0001-00-0004-78.png
00000014,821,1,1441897484897,1441897485343,397,419,0,0,0,2,3,1,23,0002-00-0009-02.png,0003-00-0008-06.png
00000014,822,1,1441897486221,1441897487183,895,510,0,0,0,5,4,1,54,0005-00-0002-36.png,0004-00-0001-98.png
00000014,823,0,1441897488417,1441897489264,348,404,0,0,0,4,3,1,43,0004-00-0000-44.png,0003-00-0009-04.png
00000014,824,1,1441897492434,1441897492944,300,355,0,0,0,3,4,1,34,0003-00-0006-75.png,0004-00-0009-23.png
00000014,825,0,1441897493886,1441897494400,882,477,0,0,0,1,2,1,12,0001-00-0005-47.png,0002-00-0001-94.png
00000014,826,0,1441897499053,1441897499586,888,502,0,0,0,3,4,1,34,0003-00-0002-52.png,0004-00-0009-58.png
00000014,827,0,1441897502527,1441897503033,334,403,0,0,0,4,3,1,43,0004-00-0009-48.png,0003-00-0003-87.png
00000014,828,0,1441897508444,1441897508940,349,456,0,0,0,3,2,1,32,0003-00-0000-65.png,0002-00-0001-82.png
00000014,829,1,1441897512327,1441897512794,346,454,0,0,0,4,5,1,45,0004-00-0004-83.png,0005-00-0003-94.png
00000014,830,0,1441897514000,1441897514437,365,419,0,0,0,2,1,1,21,0002-00-0009-82.png,0001-00-0003-72.png
00000014,831,1,1441897517466,1441897517917,898,462,0,0,0,5,4,1,54,0005-00-0002-22.png,0004-00-0001-15.png
00000014,832,0,1441897518856,1441897519375,902,428,0,0,0,2,3,1,23,0002-00-0002-80.png,0003-00-0001-25.png
00000014,833,1,1441897522314,1441897522823,930,436,0,0,0,5,4,1,54,0005-00-0009-36.png,0004-00-0001-41.png
00000014,834,1,1441897524006,1441897524440,453,410,0,0,0,2,3,1,23,0002-00-0003-07.png,0003-00-0006-57.png
00000014,835,0,1441897525597,1441897526459,898,410,0,0,0,3,4,1,34,0003-00-0007-72.png,0004-00-0009-14.png
00000014,836,0,1441897530168,1441897530733,431,519,0,0,0,4,3,1,43,0004-00-0007-95.png,0003-00-0008-19.png
00000014,837,1,1441897596941,1441897597205,464,462,0,0,0,4,5,1,45,0004-00-0009-38.png,0005-00-0007-48.png
00000014,838,0,1441897598166,1441897599101,427,396,0,0,0,3,2,1,32,0003-00-0000-64.png,0002-00-0008-47.png
00000014,839,1,1441897611014,1441897611478,273,449,0,0,0,1,2,1,12,0001-00-0003-45.png,0002-00-0004-14.png
00000014,840,0,1441897612679,1441897613287,445,419,0,0,0,2,1,1,21,0002-00-0004-01.png,0001-00-0000-67.png
00000014,841,0,1441897624410,1441897705161,415,462,0,0,0,3,2,1,32,0003-00-0000-78.png,0002-00-0006-84.png
00000014,842,1,1441897708551,1441897708968,444,542,0,0,0,1,2,1,12,0001-00-0003-35.png,0002-00-0003-09.png
00000014,843,1,1441897710184,1441897710737,380,488,0,0,0,3,4,1,34,0003-00-0003-43.png,0004-00-0004-66.png
00000014,844,0,1441897711579,1441897712198,415,445,0,0,0,2,1,1,21,0002-00-0003-40.png,0001-00-0002-56.png
00000014,845,1,1441897718616,1441897730554,428,541,0,0,0,2,3,1,23,0002-00-0002-49.png,0003-00-0004-99.png
00000014,846,1,1441897737988,1441897738560,898,503,0,0,0,5,4,1,54,0005-00-0001-96.png,0004-00-0002-26.png
00000014,847,1,1441897739801,1441897740317,367,470,0,0,0,4,5,1,45,0004-00-0000-65.png,0005-00-0004-14.png
00000014,848,0,1441897741211,1441897741843,464,517,0,0,0,4,3,1,43,0004-00-0001-93.png,0003-00-0003-25.png
00000014,849,1,1441897747524,1441897747972,439,488,0,0,0,4,5,1,45,0004-00-0009-01.png,0005-00-0009-29.png
00000014,850,0,1441897749205,1441897750123,317,409,0,0,0,5,4,1,54,0005-00-0008-05.png,0004-00-0002-53.png
00000014,851,1,1441897753814,1441897754295,368,418,0,0,0,1,2,1,12,0001-00-0001-47.png,0002-00-0007-67.png
00000014,852,0,1441897755455,1441897755975,878,506,0,0,0,2,3,1,23,0002-00-0002-54.png,0003-00-0008-06.png
00000014,853,1,1441897759526,1441897759988,906,495,0,0,0,3,2,1,32,0003-00-0002-35.png,0002-00-0003-69.png
00000014,854,0,1441897761036,1441897761942,417,374,0,0,0,4,3,1,43,0004-00-0009-74.png,0003-00-0005-45.png
00000014,855,1,1441897765736,1441897766163,486,340,0,0,0,3,4,1,34,0003-00-0009-88.png,0004-00-0006-59.png
00000014,856,0,1441897767284,1441897767304,522,454,0,0,0,2,1,1,21,0002-00-0006-92.png,0001-00-0005-99.png
00000014,857,1,1441897772098,1441897772546,406,480,0,0,0,4,5,1,45,0004-00-0008-09.png,0005-00-0002-09.png
00000014,858,1,1441897773862,1441897774338,390,436,0,0,0,2,3,1,23,0002-00-0006-97.png,0003-00-0005-68.png
00000014,859,1,1441897782823,1441897783209,876,422,0,0,0,3,2,1,32,0003-00-0003-63.png,0002-00-0004-03.png
00000014,860,1,1441897784214,1441897784719,412,518,0,0,0,3,4,1,34,0003-00-0000-80.png,0004-00-0000-88.png
00000014,861,0,1441897785589,1441897785625,494,462,0,0,0,5,4,1,54,0005-00-0006-51.png,0004-00-0009-33.png
00000014,862,1,1441897788534,1441897788910,358,419,0,0,0,1,2,1,12,0001-00-0008-13.png,0002-00-0000-88.png
00000014,863,1,1441897789891,1441897790350,875,437,0,0,0,2,1,1,21,0002-00-0006-95.png,0001-00-0002-58.png
00000014,864,0,1441897791216,1441897791699,350,435,0,0,0,4,3,1,43,0004-00-0004-61.png,0003-00-0002-97.png
00000014,865,1,1441897801100,1441897801575,339,394,0,0,0,3,4,1,34,0003-00-0002-87.png,0004-00-0008-18.png
00000014,866,0,1441897802643,1441897803150,474,492,0,0,0,3,2,1,32,0003-00-0004-82.png,0002-00-0005-83.png
00000014,867,1,1441897806806,1441897807300,921,451,0,0,0,2,1,1,21,0002-00-0007-45.png,0001-00-0007-64.png
00000014,868,0,1441897808125,1441897808748,913,410,0,0,0,2,3,1,23,0002-00-0006-81.png,0003-00-0000-98.png
00000014,869,0,1441897811856,1441897812267,335,428,0,0,0,5,4,1,54,0005-00-0003-52.png,0004-00-0007-32.png
00000014,870,1,1441897815517,1441897816060,891,429,0,0,0,4,3,1,43,0004-00-0009-07.png,0003-00-0007-00.png
00000014,871,1,1441897817011,1441897817542,248,525,0,0,0,1,2,1,12,0001-00-0008-22.png,0002-00-0006-06.png
00000014,872,1,1441897819152,1441897819584,317,438,0,0,0,4,5,1,45,0004-00-0007-38.png,0005-00-0006-49.png
00000014,873,0,1441897820429,1441897820959,387,433,0,0,0,5,4,1,54,0005-00-0007-05.png,0004-00-0004-04.png
00000014,874,0,1441897824181,1441897824707,315,431,0,0,0,2,1,1,21,0002-00-0009-96.png,0001-00-0009-17.png
00000014,875,1,1441897830788,1441897831235,389,420,0,0,0,4,5,1,45,0004-00-0001-72.png,0005-00-0009-02.png
00000014,876,0,1441897832656,1441897833108,362,398,0,0,0,4,3,1,43,0004-00-0007-26.png,0003-00-0008-29.png
00000014,877,1,1441897836741,1441897837630,427,384,0,0,0,1,2,1,12,0001-00-0005-06.png,0002-00-0007-42.png
00000014,878,1,1441897838482,1441897839410,427,358,0,0,0,2,3,1,23,0002-00-0009-98.png,0003-00-0006-68.png
00000014,879,0,1441897840288,1441897840862,429,440,0,0,0,3,2,1,32,0003-00-0009-74.png,0002-00-0004-05.png
00000014,880,1,1441897844035,1441897844806,427,358,0,0,0,3,4,1,34,0003-00-0001-71.png,0004-00-0002-51.png
00000014,881,0,1441897845744,1441897846226,904,480,0,0,0,2,3,1,23,0002-00-0009-67.png,0003-00-0000-37.png
00000014,882,0,1441897849351,1441897849795,374,396,0,0,0,5,4,1,54,0005-00-0001-35.png,0004-00-0005-26.png
00000014,883,0,1441897852638,1441897853111,355,399,0,0,0,4,3,1,43,0004-00-0004-22.png,0003-00-0006-24.png
00000014,884,0,1441897856110,1441897856511,368,406,0,0,0,2,1,1,21,0002-00-0003-27.png,0001-00-0006-02.png
00000014,885,0,1441897861269,1441897861784,340,400,0,0,0,3,2,1,32,0003-00-0004-91.png,0002-00-0009-63.png
00000014,886,1,1441897869808,1441897870252,341,394,0,0,0,4,5,1,45,0004-00-0007-71.png,0005-00-0008-87.png
00000014,887,1,1441897871186,1441897871210,478,473,0,0,0,1,2,1,12,0001-00-0009-25.png,0002-00-0009-35.png
00000014,888,1,1441897872057,1441897872622,391,403,0,0,0,3,4,1,34,0003-00-0004-24.png,0004-00-0006-51.png
00000014,889,1,1441897873775,1441897873795,504,422,0,0,0,3,4,1,34,0003-00-0009-01.png,0004-00-0008-60.png
00000014,890,1,1441897874659,1441897875158,384,392,0,0,0,1,2,1,12,0001-00-0005-00.png,0002-00-0001-93.png
00000014,891,0,1441897875996,1441897876032,479,487,0,0,0,3,2,1,32,0003-00-0003-87.png,0002-00-0008-00.png
00000014,892,0,1441897878870,1441897879362,310,397,0,0,0,5,4,1,54,0005-00-0003-31.png,0004-00-0005-71.png
00000014,893,1,1441897882991,1441897883456,912,410,0,0,0,2,1,1,21,0002-00-0004-96.png,0001-00-0007-43.png
00000014,894,1,1441897884957,1441897885409,308,426,0,0,0,4,5,1,45,0004-00-0008-62.png,0005-00-0004-98.png
00000014,895,0,1441897886359,1441897886881,367,406,0,0,0,4,3,1,43,0004-00-0001-02.png,0003-00-0008-86.png
00000014,896,1,1441897889808,1441897890362,312,410,0,0,0,2,3,1,23,0002-00-0001-09.png,0003-00-0001-86.png
00000014,897,1,1441897891442,1441897891470,478,486,0,0,0,4,5,1,45,0004-00-0008-74.png,0005-00-0006-28.png
00000014,898,1,1441897892801,1441897893210,900,464,0,0,0,2,1,1,21,0002-00-0003-69.png,0001-00-0001-84.png
00000014,899,1,1441897894167,1441897894744,355,442,0,0,0,1,2,1,12,0001-00-0008-97.png,0002-00-0005-81.png
00000014,900,1,1441897896305,1441897897873,908,526,0,0,0,3,2,1,32,0003-00-0008-38.png,0002-00-0003-50.png
00000014,901,1,1441897898780,1441897899332,862,436,0,0,0,4,3,1,43,0004-00-0001-28.png,0003-00-0007-53.png
00000014,902,1,1441897900208,1441897900777,873,484,0,0,0,5,4,1,54,0005-00-0006-17.png,0004-00-0006-41.png
00000014,903,1,1441897901639,1441897901667,521,532,0,0,0,3,4,1,34,0003-00-0007-38.png,0004-00-0003-55.png
00000014,904,0,1441897902605,1441897903088,900,488,0,0,0,2,3,1,23,0002-00-0001-15.png,0003-00-0001-44.png
00000014,905,0,1441897905964,1441897906410,379,399,0,0,0,3,2,1,32,0003-00-0000-50.png,0002-00-0002-39.png
00000014,906,1,1441897909563,1441897910047,442,508,0,0,0,2,3,1,23,0002-00-0006-34.png,0003-00-0003-57.png
00000014,907,1,1441897911590,1441897912041,421,512,0,0,0,3,4,1,34,0003-00-0007-68.png,0004-00-0004-32.png
00000014,908,1,1441897912910,1441897913425,372,440,0,0,0,1,2,1,12,0001-00-0005-00.png,0002-00-0006-16.png
00000014,909,0,1441897914649,1441897915749,422,506,0,0,0,5,4,1,54,0005-00-0007-64.png,0004-00-0007-77.png
00000014,910,0,1441897919916,1441897920372,401,422,0,0,0,2,1,1,21,0002-00-0008-87.png,0001-00-0003-15.png
00000014,911,0,1441897923383,1441897923806,427,447,0,0,0,4,3,1,43,0004-00-0002-48.png,0003-00-0003-88.png
00000014,912,1,1441897927818,1441897928312,433,544,0,0,0,4,5,1,45,0004-00-0003-87.png,0005-00-0009-80.png
00000014,913,0,1441897929260,1441897929308,504,514,0,0,0,3,2,1,32,0003-00-0001-29.png,0002-00-0007-89.png
00000014,914,1,1441897932180,1441897932236,522,541,0,0,0,1,2,1,12,0001-00-0006-39.png,0002-00-0006-52.png
00000014,915,1,1441897933325,1441897933839,401,409,0,0,0,3,4,1,34,0003-00-0005-29.png,0004-00-0003-46.png
00000014,916,1,1441897935044,1441897935465,427,410,0,0,0,2,3,1,23,0002-00-0000-71.png,0003-00-0004-65.png
00000014,917,1,1441897936354,1441897936362,500,455,0,0,0,4,5,1,45,0004-00-0005-47.png,0005-00-0003-38.png
00000014,918,0,1441897937260,1441897937826,370,399,0,0,0,5,4,1,54,0005-00-0003-47.png,0004-00-0004-72.png
00000014,919,0,1441897940789,1441897940797,464,503,0,0,0,4,3,1,43,0004-00-0000-30.png,0003-00-0005-80.png
00000014,920,0,1441897948399,1441897948805,368,402,0,0,0,2,1,1,21,0002-00-0002-67.png,0001-00-0004-84.png
00000014,921,1,1441897952963,1441897953446,273,462,0,0,0,4,5,1,45,0004-00-0002-72.png,0005-00-0000-54.png
00000014,922,1,1441897954514,1441897954534,497,426,0,0,0,2,3,1,23,0002-00-0008-67.png,0003-00-0009-22.png
00000014,923,1,1441897955448,1441897955951,879,415,0,0,0,4,3,1,43,0004-00-0009-25.png,0003-00-0007-09.png
00000014,924,0,1441897956795,1441897956823,510,443,0,0,0,5,4,1,54,0005-00-0005-76.png,0004-00-0000-72.png
00000014,925,0,1441897959799,1441897960265,353,394,0,0,0,3,2,1,32,0003-00-0006-88.png,0002-00-0006-21.png
00000014,926,0,1441897963736,1441897964260,865,362,0,0,0,1,2,1,12,0001-00-0003-68.png,0002-00-0003-56.png
00000014,927,0,1441897967344,1441897967806,360,405,0,0,0,2,1,1,21,0002-00-0009-47.png,0001-00-0006-81.png
00000014,928,1,1441897970901,1441897971365,353,426,0,0,0,3,4,1,34,0003-00-0001-59.png,0004-00-0004-04.png
00000014,929,0,1441897973355,1441897973789,340,416,0,0,0,3,2,1,32,0003-00-0009-57.png,0002-00-0007-96.png
00000014,930,1,1441897976714,1441897977248,932,450,0,0,0,5,4,1,54,0005-00-0003-26.png,0004-00-0008-08.png
00000014,931,0,1441897978114,1441897978602,389,397,0,0,0,2,1,1,21,0002-00-0002-10.png,0001-00-0003-13.png
00000014,932,1,1441897986742,1441897987161,340,415,0,0,0,1,2,1,12,0001-00-0000-88.png,0002-00-0002-12.png
00000014,933,0,1441897988145,1441897988636,366,444,0,0,0,4,3,1,43,0004-00-0004-87.png,0003-00-0005-84.png
00000014,934,0,1441897991663,1441897992178,899,462,0,0,0,4,5,1,45,0004-00-0001-10.png,0005-00-0005-44.png
00000014,935,1,1441897999902,1441898000317,308,401,0,0,0,2,3,1,23,0002-00-0007-82.png,0003-00-0001-99.png
00000014,936,1,1441898001215,1441898001748,387,403,0,0,0,3,4,1,34,0003-00-0009-22.png,0004-00-0002-63.png
00000014,937,1,1441898002974,1441898003479,410,509,0,0,0,1,2,1,12,0001-00-0004-52.png,0002-00-0008-58.png
00000014,938,0,1441898004322,1441898004876,412,396,0,0,0,3,2,1,32,0003-00-0003-14.png,0002-00-0002-14.png
00000014,939,1,1441898010859,1441898011341,895,467,0,0,0,4,3,1,43,0004-00-0007-37.png,0003-00-0008-01.png
00000014,940,1,1441898012484,1441898012512,504,410,0,0,0,4,5,1,45,0004-00-0005-34.png,0005-00-0009-94.png
00000014,941,1,1441898013432,1441898013898,346,429,0,0,0,2,3,1,23,0002-00-0001-33.png,0003-00-0005-90.png
00000014,942,1,1441898015077,1441898015516,376,384,0,0,0,3,4,1,34,0003-00-0002-63.png,0004-00-0001-30.png
