subject_id,trial,correct_response,stim_time,response_time,x_coord,y_coord,trial_timeout,timeout_time,interTrial_timeout,left_rank,right_rank,distance,joint_rank,left_image,right_image
00000009,1,1,1442243278999,1442243279954,960,392,0,0,0,3,2,1,32,0003-00-0002-87.png,0002-00-0003-87.png
00000009,2,1,1442243280947,1442243280987,926,248,0,0,0,5,4,1,54,0005-00-0006-47.png,0004-00-0000-51.png
00000009,3,0,1442243283170,1442243283696,971,421,0,0,0,1,2,1,12,0001-00-0006-04.png,0002-00-0001-50.png
00000009,4,1,1442243286919,1442243287568,1137,244,0,0,0,2,1,1,21,0002-00-0004-99.png,0001-00-0006-43.png
00000009,5,0,1442243288730,1442243288823,862,375,0,0,0,2,3,1,23,0002-00-0003-30.png,0003-00-0004-06.png
00000009,6,1,1442243292014,1442243292528,958,385,0,0,0,4,3,1,43,0004-00-0005-81.png,0003-00-0004-41.png
00000009,7,0,1442243293527,1442243293693,913,447,0,0,0,3,4,1,34,0003-00-0008-69.png,0004-00-0008-98.png
00000009,8,0,1442243296856,1442243297381,978,378,0,0,0,4,5,1,45,0004-00-0006-42.png,0005-00-0001-60.png
00000009,9,0,1442243300544,1442243301045,972,376,0,0,0,1,2,1,12,0001-00-0003-05.png,0002-00-0005-02.png
00000009,10,1,1442243304326,1442243304592,1036,248,0,0,0,2,1,1,21,0002-00-0001-57.png,0001-00-0008-75.png
00000009,11,0,1442243305691,1442243305790,976,384,0,0,0,2,3,1,23,0002-00-0000-67.png,0003-00-0008-86.png
00000009,12,0,1442243308981,1442243309511,322,390,0,0,0,4,3,1,43,0004-00-0001-42.png,0003-00-0004-56.png
00000009,13,1,1442243312706,1442243312742,902,270,0,0,0,5,4,1,54,0005-00-0002-24.png,0004-00-0009-84.png
00000009,14,0,1442243313889,1442243313925,906,411,0,0,0,3,4,1,34,0003-00-0009-45.png,0004-00-0000-59.png
00000009,15,1,1442243319037,1442243319543,988,354,0,0,0,3,2,1,32,0003-00-0000-03.png,0002-00-0003-91.png
00000009,16,0,1442243320487,1442243320575,958,419,0,0,0,4,5,1,45,0004-00-0009-52.png,0005-00-0009-45.png
00000009,17,0,1442243324359,1442243324453,917,280,0,0,0,1,2,1,12,0001-00-0006-40.png,0002-00-0001-22.png
00000009,18,0,1442243327641,1442243328281,363,371,0,0,0,4,3,1,43,0004-00-0005-01.png,0003-00-0009-97.png
00000009,19,1,1442243331447,1442243331931,987,321,0,0,0,5,4,1,54,0005-00-0009-98.png,0004-00-0005-66.png
00000009,20,0,1442243332900,1442243332976,939,462,0,0,0,4,5,1,45,0004-00-0008-09.png,0005-00-0003-39.png
00000009,21,1,1442243335972,1442243336497,976,349,0,0,0,3,2,1,32,0003-00-0008-30.png,0002-00-0003-26.png
00000009,22,0,1442243337359,1442243337438,946,426,0,0,0,3,4,1,34,0003-00-0001-27.png,0004-00-0007-37.png
00000009,23,1,1442243340775,1442243341390,482,242,0,0,0,2,3,1,23,0002-00-0002-13.png,0003-00-0002-68.png
00000009,24,1,1442243342290,1442243342366,888,448,0,0,0,2,1,1,21,0002-00-0007-24.png,0001-00-0002-00.png
00000009,25,1,1442243343699,1442243343768,893,415,0,0,0,4,3,1,43,0004-00-0002-35.png,0003-00-0006-38.png
00000009,26,1,1442243345170,1442243345210,889,443,0,0,0,2,1,1,21,0002-00-0004-01.png,0001-00-0003-38.png
00000009,27,0,1442243346483,1442243346519,875,410,0,0,0,3,4,1,34,0003-00-0008-09.png,0004-00-0005-70.png
00000009,28,0,1442243349654,1442243350433,1133,279,0,0,0,1,2,1,12,0001-00-0000-35.png,0002-00-0008-73.png
00000009,29,1,1442243353580,1442243354062,966,331,0,0,0,3,2,1,32,0003-00-0004-84.png,0002-00-0008-72.png
00000009,30,0,1442243354918,1442243354998,916,470,0,0,0,2,3,1,23,0002-00-0005-34.png,0003-00-0009-85.png
00000009,31,1,1442243357980,1442243358795,964,396,0,0,0,5,4,1,54,0005-00-0003-55.png,0004-00-0001-35.png
00000009,32,0,1442243359625,1442243359884,939,427,0,0,0,4,5,1,45,0004-00-0006-37.png,0005-00-0001-58.png
00000009,33,1,1442243363081,1442243363154,907,270,0,0,0,2,1,1,21,0002-00-0005-49.png,0001-00-0002-02.png
00000009,34,0,1442243364129,1442243365074,402,353,0,0,0,5,4,1,54,0005-00-0008-64.png,0004-00-0007-92.png
00000009,35,1,1442243368139,1442243369033,955,326,0,0,0,4,3,1,43,0004-00-0007-21.png,0003-00-0007-94.png
00000009,36,1,1442243369959,1442243370023,914,484,0,0,0,3,2,1,32,0003-00-0006-34.png,0002-00-0000-82.png
00000009,37,0,1442243371230,1442243371318,893,453,0,0,0,3,4,1,34,0003-00-0005-92.png,0004-00-0004-97.png
00000009,38,1,1442243374194,1442243375206,286,362,0,0,0,1,2,1,12,0001-00-0002-49.png,0002-00-0006-20.png
00000009,39,0,1442243376206,1442243376288,859,470,0,0,0,2,3,1,23,0002-00-0005-61.png,0003-00-0000-10.png
00000009,40,1,1442243379544,1442243380137,339,392,0,0,0,4,5,1,45,0004-00-0006-62.png,0005-00-0008-60.png
00000009,41,1,1442243381034,1442243381208,879,436,0,0,0,4,3,1,43,0004-00-0004-88.png,0003-00-0002-81.png
00000009,42,1,1442243382454,1442243382514,862,424,0,0,0,2,1,1,21,0002-00-0005-28.png,0001-00-0003-40.png
00000009,43,0,1442243383957,1442243384740,423,287,0,0,0,5,4,1,54,0005-00-0006-76.png,0004-00-0002-08.png
00000009,44,0,1442243388119,1442243388734,1096,306,0,0,0,1,2,1,12,0001-00-0007-20.png,0002-00-0007-01.png
00000009,45,0,1442243391821,1442243392303,947,360,0,0,0,3,4,1,34,0003-00-0007-04.png,0004-00-0005-37.png
00000009,46,1,1442243395944,1442243396528,964,306,0,0,0,3,2,1,32,0003-00-0004-27.png,0002-00-0002-41.png
00000009,47,0,1442243397368,1442243397500,963,462,0,0,0,2,3,1,23,0002-00-0007-83.png,0003-00-0008-17.png
00000009,48,0,1442243400574,1442243401205,964,436,0,0,0,4,5,1,45,0004-00-0009-98.png,0005-00-0002-82.png
00000009,49,1,1442243406151,1442243406175,939,306,0,0,0,2,1,1,21,0002-00-0007-03.png,0001-00-0008-79.png
00000009,50,1,1442243407252,1442243407277,871,410,0,0,0,3,2,1,32,0003-00-0007-39.png,0002-00-0008-83.png
00000009,51,0,1442243408444,1442243408480,862,421,0,0,0,3,4,1,34,0003-00-0000-24.png,0004-00-0002-25.png
00000009,52,0,1442243411556,1442243412157,323,389,0,0,0,5,4,1,54,0005-00-0003-49.png,0004-00-0004-57.png
00000009,53,0,1442243415052,1442243415559,967,308,0,0,0,1,2,1,12,0001-00-0000-29.png,0002-00-0003-75.png
00000009,54,1,1442243418642,1442243419276,486,302,0,0,0,2,3,1,23,0002-00-0009-01.png,0003-00-0004-65.png
00000009,55,1,1442243420221,1442243420297,929,463,0,0,0,4,3,1,43,0004-00-0000-83.png,0003-00-0004-59.png
00000009,56,0,1442243421362,1442243421422,926,424,0,0,0,4,5,1,45,0004-00-0009-69.png,0005-00-0001-08.png
00000009,57,0,1442243424585,1442243425196,1163,300,0,0,0,2,3,1,23,0002-00-0000-82.png,0003-00-0009-79.png
00000009,58,1,1442243428633,1442243429244,478,284,0,0,0,1,2,1,12,0001-00-0006-41.png,0002-00-0003-57.png
00000009,59,0,1442243431042,1442243431638,1072,305,0,0,0,3,4,1,34,0003-00-0007-68.png,0004-00-0006-78.png
00000009,60,1,1442243434897,1442243434945,874,284,0,0,0,2,1,1,21,0002-00-0000-24.png,0001-00-0008-03.png
00000009,61,1,1442243435996,1442243436060,914,429,0,0,0,4,3,1,43,0004-00-0001-91.png,0003-00-0009-05.png
00000009,62,1,1442243437235,1442243437259,871,414,0,0,0,3,2,1,32,0003-00-0007-09.png,0002-00-0002-61.png
00000009,63,1,1442243438684,1442243438712,903,396,0,0,0,5,4,1,54,0005-00-0008-81.png,0004-00-0008-66.png
00000009,64,0,1442243440004,1442243440088,907,417,0,0,0,4,5,1,45,0004-00-0006-84.png,0005-00-0007-67.png
00000009,65,1,1442243443592,1442243443837,976,301,0,0,0,5,4,1,54,0005-00-0002-14.png,0004-00-0004-82.png
00000009,66,0,1442243444869,1442243444945,950,436,0,0,0,2,3,1,23,0002-00-0001-09.png,0003-00-0001-10.png
00000009,67,1,1442243448046,1442243448807,351,415,0,0,0,4,5,1,45,0004-00-0009-72.png,0005-00-0002-51.png
00000009,68,1,1442243449684,1442243449790,939,462,0,0,0,4,3,1,43,0004-00-0008-65.png,0003-00-0009-19.png
00000009,69,0,1442243450771,1442243450831,923,438,0,0,0,1,2,1,12,0001-00-0004-29.png,0002-00-0009-90.png
00000009,70,0,1442243454019,1442243454558,939,321,0,0,0,3,4,1,34,0003-00-0007-56.png,0004-00-0009-33.png
00000009,71,1,1442243457806,1442243457818,862,306,0,0,0,2,1,1,21,0002-00-0007-14.png,0001-00-0003-04.png
00000009,72,1,1442243458842,1442243458906,918,449,0,0,0,3,2,1,32,0003-00-0006-02.png,0002-00-0008-67.png
00000009,73,0,1442243459961,1442243460959,403,385,0,0,0,2,1,1,21,0002-00-0001-07.png,0001-00-0004-86.png
00000009,74,0,1442243464341,1442243464860,914,348,0,0,0,1,2,1,12,0001-00-0006-76.png,0002-00-0002-77.png
00000009,75,1,1442243467744,1442243467752,457,424,0,0,0,3,4,1,34,0003-00-0008-84.png,0004-00-0005-97.png
00000009,76,0,1442243468911,1442243468973,957,479,0,0,0,4,5,1,45,0004-00-0000-41.png,0005-00-0001-36.png
00000009,77,1,1442243472435,1442243473042,327,377,0,0,0,2,3,1,23,0002-00-0007-29.png,0003-00-0004-38.png
00000009,78,1,1442243474759,1442243475779,909,349,0,0,0,4,3,1,43,0004-00-0003-97.png,0003-00-0009-08.png
00000009,79,0,1442243476808,1442243477771,427,308,0,0,0,5,4,1,54,0005-00-0005-62.png,0004-00-0001-01.png
00000009,80,1,1442243481170,1442243481782,1083,324,0,0,0,3,2,1,32,0003-00-0006-48.png,0002-00-0000-51.png
00000009,81,0,1442243483442,1442243484035,489,282,0,0,0,2,1,1,21,0002-00-0005-62.png,0001-00-0002-88.png
00000009,82,1,1442243487173,1442243488096,946,401,0,0,0,5,4,1,54,0005-00-0004-35.png,0004-00-0003-26.png
00000009,83,1,1442243489050,1442243489114,939,488,0,0,0,3,2,1,32,0003-00-0006-38.png,0002-00-0002-63.png
00000009,84,0,1442243490112,1442243490176,920,452,0,0,0,2,3,1,23,0002-00-0009-02.png,0003-00-0004-05.png
00000009,85,1,1442243493303,1442243493999,457,281,0,0,0,4,5,1,45,0004-00-0008-69.png,0005-00-0001-12.png
00000009,86,0,1442243494892,1442243494980,939,497,0,0,0,3,4,1,34,0003-00-0007-83.png,0004-00-0009-53.png
00000009,87,1,1442243498124,1442243498665,965,334,0,0,0,4,3,1,43,0004-00-0003-76.png,0003-00-0004-07.png
00000009,88,0,1442243499654,1442243499694,952,480,0,0,0,1,2,1,12,0001-00-0004-29.png,0002-00-0002-61.png
00000009,89,0,1442243502854,1442243503479,362,379,0,0,0,4,3,1,43,0004-00-0000-33.png,0003-00-0005-66.png
00000009,90,1,1442243506640,1442243507221,430,317,0,0,0,2,3,1,23,0002-00-0007-88.png,0003-00-0002-97.png
00000009,91,1,1442243508191,1442243508238,881,470,0,0,0,3,2,1,32,0003-00-0006-28.png,0002-00-0003-57.png
00000009,92,1,1442243509438,1442243510968,913,368,0,0,0,2,1,1,21,0002-00-0001-37.png,0001-00-0008-51.png
00000009,93,1,1442243511965,1442243512887,374,395,0,0,0,3,4,1,34,0003-00-0001-89.png,0004-00-0006-94.png
00000009,94,0,1442243513955,1442243514003,918,445,0,0,0,1,2,1,12,0001-00-0005-43.png,0002-00-0001-65.png
00000009,95,1,1442243516999,1442243517788,328,352,0,0,0,4,5,1,45,0004-00-0002-47.png,0005-00-0002-97.png
00000009,96,1,1442243518762,1442243518834,921,426,0,0,0,5,4,1,54,0005-00-0000-09.png,0004-00-0005-83.png
00000009,97,0,1442243520063,1442243520103,907,423,0,0,0,2,3,1,23,0002-00-0002-54.png,0003-00-0003-91.png
00000009,98,1,1442243523664,1442243524207,431,329,0,0,0,3,4,1,34,0003-00-0008-95.png,0004-00-0004-99.png
00000009,99,1,1442243525164,1442243525212,929,417,0,0,0,3,2,1,32,0003-00-0006-55.png,0002-00-0006-96.png
00000009,100,1,1442243526345,1442243526405,919,424,0,0,0,2,1,1,21,0002-00-0009-40.png,0001-00-0005-25.png
00000009,101,1,1442243527776,1442243527816,921,452,0,0,0,4,3,1,43,0004-00-0004-93.png,0003-00-0005-74.png
00000009,102,1,1442243528998,1442243529026,893,420,0,0,0,5,4,1,54,0005-00-0006-76.png,0004-00-0005-98.png
00000009,103,0,1442243530796,1442243530835,862,426,0,0,0,4,5,1,45,0004-00-0001-27.png,0005-00-0000-86.png
00000009,104,0,1442243533717,1442243533757,874,385,0,0,0,1,2,1,12,0001-00-0006-09.png,0002-00-0008-05.png
00000009,105,1,1442243536920,1442243536980,875,279,0,0,0,2,1,1,21,0002-00-0001-08.png,0001-00-0002-86.png
00000009,106,0,1442243538033,1442243538093,960,460,0,0,0,1,2,1,12,0001-00-0000-53.png,0002-00-0000-57.png
00000009,107,0,1442243540943,1442243541651,388,414,0,0,0,5,4,1,54,0005-00-0006-20.png,0004-00-0002-64.png
00000009,108,0,1442243544722,1442243545309,993,312,0,0,0,2,3,1,23,0002-00-0009-49.png,0003-00-0007-41.png
00000009,109,1,1442243548249,1442243548253,495,477,0,0,0,4,5,1,45,0004-00-0006-44.png,0005-00-0005-80.png
00000009,110,0,1442243549311,1442243549371,997,434,0,0,0,3,4,1,34,0003-00-0009-38.png,0004-00-0003-74.png
00000009,111,1,1442243552513,1442243552645,998,227,0,0,0,3,2,1,32,0003-00-0007-17.png,0002-00-0009-97.png
00000009,112,1,1442243553661,1442243553734,959,463,0,0,0,4,3,1,43,0004-00-0009-78.png,0003-00-0005-47.png
00000009,113,0,1442243554796,1442243554832,888,421,0,0,0,3,4,1,34,0003-00-0003-19.png,0004-00-0004-14.png
00000009,114,0,1442243557810,1442243558365,478,285,0,0,0,4,3,1,43,0004-00-0005-52.png,0003-00-0009-24.png
00000009,115,1,1442243561223,1442243561997,454,272,0,0,0,4,5,1,45,0004-00-0003-61.png,0005-00-0008-66.png
00000009,116,1,1442243563650,1442243564313,476,270,0,0,0,2,3,1,23,0002-00-0005-48.png,0003-00-0007-42.png
00000009,117,0,1442243565540,1442243565596,925,384,0,0,0,1,2,1,12,0001-00-0002-64.png,0002-00-0001-62.png
00000009,118,0,1442243568770,1442243569398,456,283,0,0,0,2,1,1,21,0002-00-0004-50.png,0001-00-0009-84.png
00000009,119,1,1442243574235,1442243574786,957,390,0,0,0,3,2,1,32,0003-00-0003-07.png,0002-00-0001-45.png
00000009,120,1,1442243575757,1442243575825,929,436,0,0,0,5,4,1,54,0005-00-0007-30.png,0004-00-0006-56.png
00000009,121,1,1442243576966,1442243577002,915,402,0,0,0,4,3,1,43,0004-00-0007-38.png,0003-00-0007-08.png
00000009,122,1,1442243578546,1442243578598,889,443,0,0,0,5,4,1,54,0005-00-0007-34.png,0004-00-0008-61.png
00000009,123,0,1442243579897,1442243579925,888,410,0,0,0,2,3,1,23,0002-00-0000-45.png,0003-00-0005-82.png
00000009,124,1,1442243583077,1442243583594,1143,306,0,0,0,3,2,1,32,0003-00-0002-68.png,0002-00-0001-22.png
00000009,125,0,1442243584437,1442243584509,931,444,0,0,0,1,2,1,12,0001-00-0004-25.png,0002-00-0007-06.png
00000009,126,1,1442243587609,1442243588142,458,269,0,0,0,4,5,1,45,0004-00-0006-62.png,0005-00-0009-70.png
00000009,127,1,1442243589480,1442243589647,980,358,0,0,0,2,1,1,21,0002-00-0009-98.png,0001-00-0007-76.png
00000009,128,0,1442243590659,1442243591306,981,486,0,0,0,3,4,1,34,0003-00-0000-25.png,0004-00-0009-81.png
00000009,129,0,1442243594369,1442243594883,918,333,0,0,0,3,4,1,34,0003-00-0007-55.png,0004-00-0004-86.png
00000009,130,1,1442243597955,1442243598570,350,413,0,0,0,1,2,1,12,0001-00-0000-17.png,0002-00-0009-55.png
00000009,131,1,1442243599408,1442243599492,923,436,0,0,0,2,1,1,21,0002-00-0009-19.png,0001-00-0009-05.png
00000009,132,1,1442243600358,1442243600410,890,428,0,0,0,3,2,1,32,0003-00-0009-24.png,0002-00-0006-32.png
00000009,133,1,1442243601451,1442243601491,869,443,0,0,0,5,4,1,54,0005-00-0004-76.png,0004-00-0004-81.png
00000009,134,0,1442243602614,1442243602654,862,398,0,0,0,2,3,1,23,0002-00-0006-16.png,0003-00-0000-47.png
00000009,135,0,1442243609525,1442243610082,964,401,0,0,0,4,5,1,45,0004-00-0008-53.png,0005-00-0006-08.png
00000009,136,1,1442243613148,1442243613399,956,341,0,0,0,4,3,1,43,0004-00-0005-88.png,0003-00-0000-66.png
00000009,137,0,1442243614395,1442243614475,957,417,0,0,0,4,5,1,45,0004-00-0007-78.png,0005-00-0003-44.png
00000009,138,0,1442243617617,1442243617673,872,323,0,0,0,1,2,1,12,0001-00-0004-85.png,0002-00-0009-06.png
00000009,139,0,1442243620854,1442243620954,941,281,0,0,0,2,3,1,23,0002-00-0006-82.png,0003-00-0005-67.png
00000009,140,1,1442243624206,1442243624767,480,272,0,0,0,3,4,1,34,0003-00-0004-42.png,0004-00-0002-39.png
00000009,141,1,1442243625685,1442243625792,913,419,0,0,0,5,4,1,54,0005-00-0006-27.png,0004-00-0007-39.png
00000009,142,1,1442243626709,1442243626785,896,428,0,0,0,3,2,1,32,0003-00-0008-62.png,0002-00-0004-13.png
00000009,143,1,1442243627881,1442243627909,885,427,0,0,0,2,1,1,21,0002-00-0002-80.png,0001-00-0003-17.png
00000009,144,1,1442243629066,1442243629110,899,416,0,0,0,4,3,1,43,0004-00-0003-31.png,0003-00-0009-22.png
00000009,145,0,1442243630255,1442243630339,880,444,0,0,0,4,5,1,45,0004-00-0000-46.png,0005-00-0007-06.png
00000009,146,1,1442243633713,1442243634566,350,368,0,0,0,2,3,1,23,0002-00-0006-40.png,0003-00-0006-12.png
00000009,147,1,1442243636218,1442243636769,990,347,0,0,0,3,2,1,32,0003-00-0008-27.png,0002-00-0007-85.png
00000009,148,1,1442243637640,1442243637700,888,449,0,0,0,2,1,1,21,0002-00-0005-16.png,0001-00-0000-54.png
00000009,149,1,1442243638644,1442243638725,893,421,0,0,0,5,4,1,54,0005-00-0003-13.png,0004-00-0000-47.png
00000009,150,0,1442243639916,1442243639980,881,418,0,0,0,1,2,1,12,0001-00-0002-69.png,0002-00-0001-32.png
00000009,151,1,1442243643096,1442243643303,1051,255,0,0,0,4,3,1,43,0004-00-0008-69.png,0003-00-0006-05.png
00000009,152,1,1442243644229,1442243645125,358,397,0,0,0,3,4,1,34,0003-00-0005-20.png,0004-00-0002-04.png
00000009,153,0,1442243646048,1442243646100,898,430,0,0,0,4,5,1,45,0004-00-0003-48.png,0005-00-0009-50.png
00000009,154,0,1442243649314,1442243649437,888,315,0,0,0,2,3,1,23,0002-00-0006-26.png,0003-00-0008-12.png
00000009,155,0,1442243652956,1442243653601,964,399,0,0,0,3,4,1,34,0003-00-0000-56.png,0004-00-0004-09.png
00000009,156,1,1442243656554,1442243657248,1153,306,0,0,0,4,3,1,43,0004-00-0009-10.png,0003-00-0002-80.png
00000009,157,1,1442243658123,1442243658211,913,427,0,0,0,2,1,1,21,0002-00-0003-51.png,0001-00-0008-23.png
00000009,158,1,1442243659112,1442243659224,913,426,0,0,0,3,2,1,32,0003-00-0008-40.png,0002-00-0007-25.png
00000009,159,0,1442243660429,1442243660485,895,417,0,0,0,1,2,1,12,0001-00-0004-71.png,0002-00-0000-85.png
00000009,160,0,1442243663618,1442243664282,452,305,0,0,0,5,4,1,54,0005-00-0004-22.png,0004-00-0004-77.png
00000009,161,0,1442243667429,1442243668079,354,387,0,0,0,2,1,1,21,0002-00-0009-70.png,0001-00-0001-15.png
00000009,162,1,1442243670914,1442243671476,990,384,0,0,0,3,2,1,32,0003-00-0005-93.png,0002-00-0000-58.png
00000009,163,0,1442243672999,1442243673802,966,323,0,0,0,3,4,1,34,0003-00-0001-57.png,0004-00-0003-75.png
00000009,164,0,1442243676639,1442243677181,470,277,0,0,0,5,4,1,54,0005-00-0003-12.png,0004-00-0008-98.png
00000009,165,0,1442243680244,1442243680419,1067,306,0,0,0,4,5,1,45,0004-00-0000-76.png,0005-00-0001-17.png
00000009,166,0,1442243683574,1442243683642,862,304,0,0,0,1,2,1,12,0001-00-0009-91.png,0002-00-0006-77.png
00000009,167,1,1442243686784,1442243686820,915,334,0,0,0,4,3,1,43,0004-00-0003-15.png,0003-00-0002-22.png
00000009,168,0,1442243687787,1442243687854,964,410,0,0,0,2,3,1,23,0002-00-0008-88.png,0003-00-0002-23.png
00000009,169,1,1442243690958,1442243691601,943,336,0,0,0,2,1,1,21,0002-00-0006-83.png,0001-00-0002-70.png
00000009,170,1,1442243692465,1442243692505,946,401,0,0,0,3,2,1,32,0003-00-0004-10.png,0002-00-0003-86.png
00000009,171,1,1442243693390,1442243693458,903,416,0,0,0,5,4,1,54,0005-00-0002-33.png,0004-00-0000-45.png
00000009,172,0,1442243694634,1442243695588,936,351,0,0,0,1,2,1,12,0001-00-0001-22.png,0002-00-0006-66.png
00000009,173,0,1442243698748,1442243698761,857,317,0,0,0,4,5,1,45,0004-00-0001-51.png,0005-00-0006-81.png
00000009,174,0,1442243701849,1442243701873,863,314,0,0,0,2,3,1,23,0002-00-0004-33.png,0003-00-0006-89.png
00000009,175,0,1442243704900,1442243705446,365,383,0,0,0,4,3,1,43,0004-00-0008-76.png,0003-00-0000-16.png
00000009,176,0,1442243708527,1442243709152,954,406,0,0,0,3,4,1,34,0003-00-0006-70.png,0004-00-0007-12.png
00000009,177,1,1442243712113,1442243712956,478,294,0,0,0,4,5,1,45,0004-00-0005-59.png,0005-00-0005-04.png
00000009,178,0,1442243713887,1442243713953,929,462,0,0,0,1,2,1,12,0001-00-0005-95.png,0002-00-0009-10.png
00000009,179,0,1442243717046,1442243717687,363,388,0,0,0,4,3,1,43,0004-00-0004-22.png,0003-00-0004-53.png
00000009,180,1,1442243720802,1442243721392,473,303,0,0,0,2,3,1,23,0002-00-0004-14.png,0003-00-0000-99.png
00000009,181,1,1442243722271,1442243722355,998,429,0,0,0,5,4,1,54,0005-00-0001-90.png,0004-00-0008-16.png
00000009,182,1,1442243723333,1442243723385,907,445,0,0,0,2,1,1,21,0002-00-0001-03.png,0001-00-0002-06.png
00000009,183,0,1442243724585,1442243724629,902,434,0,0,0,3,4,1,34,0003-00-0007-64.png,0004-00-0009-47.png
00000009,184,1,1442243727676,1442243728221,990,316,0,0,0,3,2,1,32,0003-00-0003-15.png,0002-00-0000-60.png
00000009,185,1,1442243729035,1442243730141,1092,293,0,0,0,3,2,1,32,0003-00-0007-38.png,0002-00-0002-76.png
00000009,186,0,1442243731145,1442243732116,944,329,0,0,0,3,4,1,34,0003-00-0006-24.png,0004-00-0005-29.png
00000009,187,1,1442243735521,1442243736088,1143,279,0,0,0,2,1,1,21,0002-00-0008-71.png,0001-00-0009-42.png
00000009,188,0,1442243737538,1442243737770,1009,384,0,0,0,2,3,1,23,0002-00-0000-79.png,0003-00-0004-50.png
00000009,189,1,1442243741209,1442243741237,970,331,0,0,0,4,3,1,43,0004-00-0008-72.png,0003-00-0009-24.png
00000009,190,0,1442243742195,1442243742263,939,477,0,0,0,1,2,1,12,0001-00-0000-64.png,0002-00-0009-71.png
00000009,191,1,1442243745416,1442243746132,468,277,0,0,0,4,5,1,45,0004-00-0003-59.png,0005-00-0007-65.png
00000009,192,1,1442243746960,1442243747044,928,384,0,0,0,5,4,1,54,0005-00-0006-40.png,0004-00-0001-73.png
00000009,193,1,1442243747889,1442243747957,888,436,0,0,0,4,3,1,43,0004-00-0000-94.png,0003-00-0007-69.png
00000009,194,0,1442243749164,1442243749224,898,443,0,0,0,2,3,1,23,0002-00-0004-87.png,0003-00-0003-91.png
00000009,195,0,1442243752203,1442243752749,990,332,0,0,0,3,4,1,34,0003-00-0000-50.png,0004-00-0000-90.png
00000009,196,1,1442243755857,1442243756409,1143,279,0,0,0,3,2,1,32,0003-00-0006-77.png,0002-00-0007-48.png
00000009,197,1,1442243757867,1442243758444,453,436,0,0,0,1,2,1,12,0001-00-0002-94.png,0002-00-0009-32.png
00000009,198,0,1442243759418,1442243759498,913,424,0,0,0,4,5,1,45,0004-00-0005-13.png,0005-00-0002-70.png
00000009,199,0,1442243762666,1442243763214,478,266,0,0,0,5,4,1,54,0005-00-0002-89.png,0004-00-0005-81.png
00000009,200,1,1442243766352,1442243766968,960,310,0,0,0,2,1,1,21,0002-00-0001-30.png,0001-00-0003-21.png
00000009,201,0,1442243768388,1442243769074,376,398,0,0,0,2,1,1,21,0002-00-0003-20.png,0001-00-0004-03.png
00000009,202,0,1442243771919,1442243772535,1103,306,0,0,0,4,5,1,45,0004-00-0004-24.png,0005-00-0009-79.png
00000009,203,0,1442243776970,1442243777026,912,254,0,0,0,3,4,1,34,0003-00-0003-30.png,0004-00-0001-07.png
00000009,204,1,1442243779938,1442243780559,495,242,0,0,0,1,2,1,12,0001-00-0002-32.png,0002-00-0003-71.png
00000009,205,1,1442243781418,1442243781490,955,462,0,0,0,3,2,1,32,0003-00-0001-75.png,0002-00-0002-34.png
00000009,206,1,1442243782471,1442243782514,923,441,0,0,0,4,3,1,43,0004-00-0007-59.png,0003-00-0008-62.png
00000009,207,0,1442243783695,1442243783751,925,428,0,0,0,2,3,1,23,0002-00-0000-90.png,0003-00-0004-27.png
00000009,208,1,1442243786884,1442243787783,964,395,0,0,0,5,4,1,54,0005-00-0003-40.png,0004-00-0001-23.png
00000009,209,0,1442243789786,1442243790335,944,355,0,0,0,1,2,1,12,0001-00-0006-98.png,0002-00-0008-30.png
00000009,210,1,1442243793742,1442243794314,990,394,0,0,0,5,4,1,54,0005-00-0009-03.png,0004-00-0007-11.png
00000009,211,1,1442243798097,1442243798664,956,412,0,0,0,4,3,1,43,0004-00-0003-61.png,0003-00-0003-57.png
00000009,212,1,1442243799566,1442243800351,376,382,0,0,0,4,5,1,45,0004-00-0004-69.png,0005-00-0000-94.png
00000009,213,1,1442243801463,1442243801519,1018,368,0,0,0,2,1,1,21,0002-00-0001-56.png,0001-00-0004-12.png
00000009,214,1,1442243803557,1442243804093,461,299,0,0,0,2,3,1,23,0002-00-0006-96.png,0003-00-0006-40.png
00000009,215,0,1442243805072,1442243805128,987,422,0,0,0,3,4,1,34,0003-00-0009-99.png,0004-00-0002-88.png
00000009,216,1,1442243807967,1442243808560,989,419,0,0,0,3,2,1,32,0003-00-0001-18.png,0002-00-0006-85.png
00000009,217,1,1442243809410,1442243809482,913,453,0,0,0,3,2,1,32,0003-00-0005-99.png,0002-00-0007-52.png
00000009,218,0,1442243810477,1442243811488,480,261,0,0,0,4,3,1,43,0004-00-0002-41.png,0003-00-0001-61.png
00000009,219,1,1442243814648,1442243815284,452,293,0,0,0,1,2,1,12,0001-00-0002-24.png,0002-00-0007-04.png
00000009,220,0,1442243816171,1442243816258,939,453,0,0,0,4,5,1,45,0004-00-0007-94.png,0005-00-0001-07.png
00000009,221,1,1442243819443,1442243819994,331,389,0,0,0,2,3,1,23,0002-00-0007-78.png,0003-00-0004-39.png
00000009,222,0,1442243820875,1442243820983,956,443,0,0,0,3,4,1,34,0003-00-0004-90.png,0004-00-0007-84.png
00000009,223,0,1442243824108,1442243824685,342,367,0,0,0,2,1,1,21,0002-00-0005-84.png,0001-00-0002-87.png
00000009,224,1,1442243827710,1442243827884,862,452,0,0,0,5,4,1,54,0005-00-0001-90.png,0004-00-0006-51.png
00000009,225,0,1442243828972,1442243829008,969,428,0,0,0,3,4,1,34,0003-00-0006-41.png,0004-00-0005-08.png
00000009,226,1,1442243832132,1442243832656,991,341,0,0,0,2,1,1,21,0002-00-0008-46.png,0001-00-0005-89.png
00000009,227,1,1442243833573,1442243833740,964,453,0,0,0,3,2,1,32,0003-00-0001-23.png,0002-00-0008-84.png
00000009,228,0,1442243834747,1442243834799,951,360,0,0,0,1,2,1,12,0001-00-0004-39.png,0002-00-0008-37.png
00000009,229,0,1442243837955,1442243838568,450,305,0,0,0,4,3,1,43,0004-00-0006-63.png,0003-00-0008-60.png
00000009,230,1,1442243841720,1442243842347,939,401,0,0,0,5,4,1,54,0005-00-0003-21.png,0004-00-0000-89.png
00000009,231,0,1442243843254,1442243843338,950,442,0,0,0,2,3,1,23,0002-00-0000-47.png,0003-00-0002-67.png
00000009,232,0,1442243846878,1442243847047,863,299,0,0,0,4,5,1,45,0004-00-0002-08.png,0005-00-0008-02.png
00000009,233,0,1442243850221,1442243850245,862,294,0,0,0,2,3,1,23,0002-00-0001-59.png,0003-00-0004-05.png
00000009,234,1,1442243853268,1442243853946,990,318,0,0,0,5,4,1,54,0005-00-0003-68.png,0004-00-0006-61.png
00000009,235,1,1442243854822,1442243854906,984,403,0,0,0,3,2,1,32,0003-00-0005-23.png,0002-00-0004-24.png
00000009,236,0,1442243855782,1442243855842,914,416,0,0,0,1,2,1,12,0001-00-0009-97.png,0002-00-0005-14.png
00000009,237,1,1442243869089,1442243869113,989,401,0,0,0,2,1,1,21,0002-00-0001-79.png,0001-00-0005-39.png
00000009,238,0,1442243870717,1442243871397,992,351,0,0,0,3,4,1,34,0003-00-0001-66.png,0004-00-0001-89.png
00000009,239,1,1442243874601,1442243875248,975,404,0,0,0,4,3,1,43,0004-00-0007-67.png,0003-00-0002-13.png
00000009,240,0,1442243876147,1442243876231,916,441,0,0,0,4,5,1,45,0004-00-0001-59.png,0005-00-0006-70.png
00000009,241,1,1442243879143,1442243879705,959,326,0,0,0,2,1,1,21,0002-00-0009-58.png,0001-00-0008-71.png
00000009,242,0,1442243881043,1442243881475,1059,433,0,0,0,1,2,1,12,0001-00-0001-80.png,0002-00-0006-30.png
00000009,243,0,1442243884327,1442243884857,939,344,0,0,0,4,5,1,45,0004-00-0009-18.png,0005-00-0007-38.png
00000009,244,1,1442243888059,1442243888591,945,344,0,0,0,3,2,1,32,0003-00-0000-22.png,0002-00-0005-59.png
00000009,245,0,1442243889893,1442243889953,914,334,0,0,0,2,3,1,23,0002-00-0004-91.png,0003-00-0004-52.png
00000009,246,1,1442243893066,1442243893240,888,410,0,0,0,4,3,1,43,0004-00-0000-22.png,0003-00-0007-05.png
00000009,247,0,1442243894220,1442243894308,936,446,0,0,0,3,4,1,34,0003-00-0008-69.png,0004-00-0003-05.png
00000009,248,1,1442243899925,1442243900009,933,254,0,0,0,5,4,1,54,0005-00-0001-23.png,0004-00-0003-41.png
00000009,249,1,1442243900977,1442243901045,879,436,0,0,0,4,3,1,43,0004-00-0004-49.png,0003-00-0002-48.png
00000009,250,1,1442243902068,1442243902128,939,410,0,0,0,2,1,1,21,0002-00-0001-30.png,0001-00-0007-23.png
00000009,251,0,1442243903103,1442243903139,915,417,0,0,0,4,5,1,45,0004-00-0001-85.png,0005-00-0004-66.png
00000009,252,0,1442243906393,1442243906991,990,316,0,0,0,1,2,1,12,0001-00-0000-24.png,0002-00-0004-57.png
00000009,253,1,1442243910338,1442243911114,976,412,0,0,0,5,4,1,54,0005-00-0004-34.png,0004-00-0008-70.png
00000009,254,0,1442243911965,1442243912037,938,414,0,0,0,2,3,1,23,0002-00-0003-58.png,0003-00-0000-96.png
00000009,255,1,1442243915148,1442243915692,1124,300,0,0,0,3,2,1,32,0003-00-0006-19.png,0002-00-0001-83.png
00000009,256,0,1442243916579,1442243916676,964,427,0,0,0,3,4,1,34,0003-00-0008-09.png,0004-00-0001-15.png
00000009,257,0,1442243919828,1442243920014,1041,290,0,0,0,2,3,1,23,0002-00-0004-34.png,0003-00-0000-27.png
00000009,258,0,1442243922909,1442243923768,348,357,0,0,0,4,3,1,43,0004-00-0007-52.png,0003-00-0001-83.png
00000009,259,1,1442243926982,1442243927685,430,301,0,0,0,4,5,1,45,0004-00-0008-65.png,0005-00-0008-66.png
00000009,260,1,1442243928594,1442243928650,956,390,0,0,0,3,2,1,32,0003-00-0007-75.png,0002-00-0004-49.png
00000009,261,1,1442243929666,1442243930547,478,240,0,0,0,3,4,1,34,0003-00-0007-64.png,0004-00-0008-01.png
00000009,262,0,1442243931462,1442243931518,939,409,0,0,0,1,2,1,12,0001-00-0007-99.png,0002-00-0004-23.png
00000009,263,1,1442243934468,1442243935017,1118,306,0,0,0,5,4,1,54,0005-00-0003-97.png,0004-00-0008-71.png
00000009,264,1,1442243935841,1442243935917,964,436,0,0,0,2,1,1,21,0002-00-0001-11.png,0001-00-0006-78.png
00000009,265,1,1442243936773,1442243936820,911,412,0,0,0,5,4,1,54,0005-00-0003-33.png,0004-00-0001-02.png
00000009,266,0,1442243937951,1442243937991,903,400,0,0,0,3,4,1,34,0003-00-0002-15.png,0004-00-0006-27.png
00000009,267,0,1442243940951,1442243941482,349,374,0,0,0,4,3,1,43,0004-00-0008-93.png,0003-00-0000-77.png
00000009,268,1,1442243944318,1442243944944,961,323,0,0,0,2,1,1,21,0002-00-0001-04.png,0001-00-0003-25.png
00000009,269,1,1442243946420,1442243947129,499,272,0,0,0,1,2,1,12,0001-00-0002-75.png,0002-00-0009-34.png
00000009,270,0,1442243948047,1442243948114,881,417,0,0,0,4,5,1,45,0004-00-0006-37.png,0005-00-0000-18.png
00000009,271,0,1442243951317,1442243951468,888,426,0,0,0,2,3,1,23,0002-00-0003-08.png,0003-00-0003-36.png
00000009,272,1,1442243954609,1442243954633,968,364,0,0,0,3,2,1,32,0003-00-0002-69.png,0002-00-0007-98.png
00000009,273,1,1442243955613,1442243955654,913,395,0,0,0,4,3,1,43,0004-00-0001-89.png,0003-00-0004-95.png
00000009,274,1,1442243956703,1442243956763,912,442,0,0,0,3,2,1,32,0003-00-0004-33.png,0002-00-0005-52.png
00000009,275,1,1442243957817,1442243958772,1051,284,0,0,0,2,1,1,21,0002-00-0000-26.png,0001-00-0008-45.png
00000009,276,0,1442243960262,1442243960270,864,384,0,0,0,2,3,1,23,0002-00-0003-24.png,0003-00-0001-23.png
00000009,277,1,1442243963374,1442243964102,463,294,0,0,0,4,5,1,45,0004-00-0007-45.png,0005-00-0008-11.png
00000009,278,0,1442243964927,1442243964999,888,477,0,0,0,1,2,1,12,0001-00-0006-98.png,0002-00-0004-35.png
00000009,279,0,1442243968084,1442243968576,937,328,0,0,0,3,4,1,34,0003-00-0007-74.png,0004-00-0008-86.png
00000009,280,1,1442243971642,1442243971658,960,490,0,0,0,5,4,1,54,0005-00-0003-46.png,0004-00-0006-08.png
00000009,281,0,1442243972613,1442243972670,898,410,0,0,0,1,2,1,12,0001-00-0000-04.png,0002-00-0001-33.png
00000009,282,1,1442243975726,1442243975766,862,393,0,0,0,2,1,1,21,0002-00-0006-95.png,0001-00-0002-07.png
00000009,283,1,1442243976776,1442243976800,957,443,0,0,0,4,3,1,43,0004-00-0009-52.png,0003-00-0002-82.png
00000009,284,0,1442243977723,1442243977779,902,435,0,0,0,4,5,1,45,0004-00-0003-25.png,0005-00-0007-35.png
00000009,285,1,1442243981624,1442243982185,976,327,0,0,0,3,2,1,32,0003-00-0002-56.png,0002-00-0000-01.png
00000009,286,1,1442243983526,1442243983643,990,410,0,0,0,5,4,1,54,0005-00-0003-57.png,0004-00-0002-77.png
00000009,287,1,1442243984517,1442243985514,465,281,0,0,0,3,4,1,34,0003-00-0003-00.png,0004-00-0004-46.png
00000009,288,0,1442243986395,1442243986447,955,446,0,0,0,2,3,1,23,0002-00-0002-75.png,0003-00-0001-78.png
00000009,289,1,1442243990025,1442243990565,994,310,0,0,0,4,3,1,43,0004-00-0002-33.png,0003-00-0001-74.png
00000009,290,1,1442243991932,1442243992126,988,383,0,0,0,3,2,1,32,0003-00-0003-80.png,0002-00-0007-51.png
00000009,291,0,1442243993186,1442243993254,947,401,0,0,0,3,4,1,34,0003-00-0000-78.png,0004-00-0001-18.png
00000009,292,1,1442243996481,1442243997035,427,304,0,0,0,4,5,1,45,0004-00-0009-43.png,0005-00-0002-33.png
00000009,293,1,1442243997857,1442243998597,477,296,0,0,0,2,3,1,23,0002-00-0006-71.png,0003-00-0007-25.png
00000009,294,1,1442244000349,1442244000409,977,385,0,0,0,2,1,1,21,0002-00-0000-78.png,0001-00-0002-43.png
00000009,295,0,1442244001354,1442244001374,901,436,0,0,0,1,2,1,12,0001-00-0008-72.png,0002-00-0001-15.png
00000009,296,1,1442244004492,1442244005206,964,375,0,0,0,5,4,1,54,0005-00-0008-33.png,0004-00-0003-84.png
00000009,297,1,1442244007173,1442244007817,939,356,0,0,0,5,4,1,54,0005-00-0003-70.png,0004-00-0004-18.png
00000009,298,1,1442244008648,1442244008724,925,436,0,0,0,3,2,1,32,0003-00-0001-52.png,0002-00-0006-78.png
00000009,299,0,1442244009599,1442244009647,913,422,0,0,0,2,3,1,23,0002-00-0002-31.png,0003-00-0004-84.png
00000009,300,0,1442244012798,1442244013317,460,290,0,0,0,4,3,1,43,0004-00-0008-86.png,0003-00-0008-29.png
00000009,301,0,1442244016365,1442244016882,964,346,0,0,0,1,2,1,12,0001-00-0002-11.png,0002-00-0002-49.png
00000009,302,0,1442244020066,1442244020624,1120,330,0,0,0,3,4,1,34,0003-00-0000-76.png,0004-00-0004-77.png
00000009,303,0,1442244023801,1442244023849,987,352,0,0,0,4,5,1,45,0004-00-0000-48.png,0005-00-0005-41.png
00000009,304,1,1442244027041,1442244027635,990,398,0,0,0,2,1,1,21,0002-00-0007-44.png,0001-00-0009-11.png
00000009,305,0,1442244028552,1442244028620,950,423,0,0,0,4,5,1,45,0004-00-0009-80.png,0005-00-0000-99.png
00000009,306,1,1442244031572,1442244032122,1127,306,0,0,0,3,2,1,32,0003-00-0008-72.png,0002-00-0004-44.png
00000009,307,1,1442244032958,1442244033010,922,404,0,0,0,5,4,1,54,0005-00-0007-81.png,0004-00-0006-38.png
00000009,308,1,1442244034473,1442244034533,913,387,0,0,0,4,3,1,43,0004-00-0003-24.png,0003-00-0004-33.png
00000009,309,0,1442244035627,1442244035694,929,436,0,0,0,1,2,1,12,0001-00-0001-27.png,0002-00-0003-77.png
00000009,310,1,1442244038525,1442244039308,352,376,0,0,0,2,3,1,23,0002-00-0004-41.png,0003-00-0004-63.png
00000009,311,0,1442244040154,1442244040242,962,421,0,0,0,3,4,1,34,0003-00-0002-61.png,0004-00-0004-78.png
00000009,312,1,1442244043403,1442244043453,862,321,0,0,0,2,1,1,21,0002-00-0008-71.png,0001-00-0006-26.png
00000009,313,1,1442244044361,1442244044433,935,427,0,0,0,2,1,1,21,0002-00-0009-09.png,0001-00-0008-26.png
00000009,314,1,1442244045282,1442244045326,881,404,0,0,0,3,2,1,32,0003-00-0006-06.png,0002-00-0009-34.png
00000009,315,1,1442244046483,1442244046535,919,426,0,0,0,5,4,1,54,0005-00-0004-05.png,0004-00-0001-59.png
00000009,316,0,1442244047737,1442244047765,921,433,0,0,0,3,4,1,34,0003-00-0004-08.png,0004-00-0006-05.png
00000009,317,1,1442244051526,1442244051550,876,358,0,0,0,4,3,1,43,0004-00-0007-68.png,0003-00-0006-97.png
00000009,318,0,1442244052481,1442244052509,888,358,0,0,0,4,5,1,45,0004-00-0003-81.png,0005-00-0008-76.png
00000009,319,1,1442244055965,1442244056553,482,328,0,0,0,1,2,1,12,0001-00-0007-60.png,0002-00-0009-67.png
00000009,320,0,1442244057892,1442244057983,932,387,0,0,0,2,3,1,23,0002-00-0002-78.png,0003-00-0007-04.png
00000009,321,0,1442244061095,1442244061649,509,290,0,0,0,5,4,1,54,0005-00-0009-45.png,0004-00-0003-44.png
00000009,322,1,1442244064793,1442244065402,377,404,0,0,0,1,2,1,12,0001-00-0005-64.png,0002-00-0005-67.png
00000009,323,1,1442244066839,1442244066887,913,332,0,0,0,2,1,1,21,0002-00-0000-63.png,0001-00-0001-43.png
00000009,324,1,1442244067891,1442244068218,956,486,0,0,0,3,2,1,32,0003-00-0009-34.png,0002-00-0004-73.png
00000009,325,1,1442244069400,1442244069452,932,425,0,0,0,4,3,1,43,0004-00-0000-18.png,0003-00-0007-25.png
00000009,326,0,1442244070455,1442244070483,891,427,0,0,0,2,3,1,23,0002-00-0001-24.png,0003-00-0000-53.png
00000009,327,0,1442244073390,1442244073414,910,431,0,0,0,4,5,1,45,0004-00-0007-55.png,0005-00-0000-23.png
00000009,328,1,1442244076566,1442244077179,382,382,0,0,0,3,4,1,34,0003-00-0003-96.png,0004-00-0005-20.png
00000009,329,1,1442244078573,1442244078606,921,361,0,0,0,2,1,1,21,0002-00-0007-41.png,0001-00-0000-48.png
00000009,330,1,1442244079559,1442244079615,922,429,0,0,0,5,4,1,54,0005-00-0002-71.png,0004-00-0005-55.png
00000009,331,0,1442244080604,1442244080648,918,427,0,0,0,1,2,1,12,0001-00-0001-52.png,0002-00-0006-37.png
00000009,332,0,1442244084081,1442244084743,478,251,0,0,0,4,3,1,43,0004-00-0001-34.png,0003-00-0009-31.png
00000009,333,0,1442244087747,1442244088332,964,397,0,0,0,2,3,1,23,0002-00-0000-89.png,0003-00-0004-48.png
00000009,334,1,1442244091197,1442244091759,1092,279,0,0,0,3,2,1,32,0003-00-0004-17.png,0002-00-0004-18.png
00000009,335,0,1442244093102,1442244093182,932,391,0,0,0,3,4,1,34,0003-00-0005-75.png,0004-00-0004-13.png
00000009,336,1,1442244096275,1442244096916,476,283,0,0,0,4,5,1,45,0004-00-0004-54.png,0005-00-0002-03.png
00000009,337,0,1442244098309,1442244098436,913,393,0,0,0,2,3,1,23,0002-00-0004-79.png,0003-00-0006-26.png
00000009,338,1,1442244101650,1442244102222,964,320,0,0,0,3,2,1,32,0003-00-0005-45.png,0002-00-0009-85.png
00000009,339,0,1442244103480,1442244103528,930,362,0,0,0,3,4,1,34,0003-00-0001-62.png,0004-00-0007-21.png
00000009,340,1,1442244106612,1442244107163,992,334,0,0,0,5,4,1,54,0005-00-0004-30.png,0004-00-0005-83.png
00000009,341,1,1442244108016,1442244108896,956,338,0,0,0,2,1,1,21,0002-00-0004-42.png,0001-00-0008-95.png
00000009,342,0,1442244109747,1442244110887,1094,280,0,0,0,4,5,1,45,0004-00-0003-47.png,0005-00-0005-84.png
00000009,343,1,1442244114839,1442244114865,898,279,0,0,0,4,3,1,43,0004-00-0005-74.png,0003-00-0004-39.png
00000009,344,0,1442244116832,1442244127969,1018,357,0,0,0,1,2,1,12,0001-00-0009-65.png,0002-00-0004-36.png
00000009,345,0,1442244135758,1442244136238,926,365,0,0,0,1,2,1,12,0001-00-0008-86.png,0002-00-0000-89.png
00000009,346,1,1442244141725,1442244142306,927,393,0,0,0,3,2,1,32,0003-00-0005-09.png,0002-00-0007-81.png
00000009,347,1,1442244143195,1442244143243,913,410,0,0,0,2,1,1,21,0002-00-0008-14.png,0001-00-0003-97.png
00000009,348,1,1442244144558,1442244145170,373,391,0,0,0,4,5,1,45,0004-00-0009-24.png,0005-00-0000-55.png
00000009,349,1,1442244146098,1442244146162,937,372,0,0,0,4,3,1,43,0004-00-0003-61.png,0003-00-0005-29.png
00000009,350,1,1442244147419,1442244147515,957,369,0,0,0,5,4,1,54,0005-00-0008-34.png,0004-00-0001-56.png
00000009,351,0,1442244148910,1442244148954,913,349,0,0,0,3,4,1,34,0003-00-0003-21.png,0004-00-0005-30.png
00000009,352,0,1442244152103,1442244152167,921,305,0,0,0,2,3,1,23,0002-00-0001-97.png,0003-00-0003-97.png
00000009,353,0,1442244155439,1442244155974,948,382,0,0,0,3,4,1,34,0003-00-0007-86.png,0004-00-0005-00.png
00000009,354,1,1442244159020,1442244159574,345,384,0,0,0,4,5,1,45,0004-00-0007-08.png,0005-00-0001-64.png
00000009,355,1,1442244163559,1442244163575,917,354,0,0,0,4,3,1,43,0004-00-0009-10.png,0003-00-0006-54.png
00000009,356,0,1442244164533,1442244164628,884,429,0,0,0,2,3,1,23,0002-00-0008-49.png,0003-00-0008-13.png
00000009,357,1,1442244167753,1442244168316,975,410,0,0,0,5,4,1,54,0005-00-0005-77.png,0004-00-0001-45.png
00000009,358,1,1442244169567,1442244169832,968,384,0,0,0,3,2,1,32,0003-00-0008-05.png,0002-00-0008-62.png
00000009,359,0,1442244170873,1442244170921,948,410,0,0,0,1,2,1,12,0001-00-0003-51.png,0002-00-0008-61.png
00000009,360,1,1442244173964,1442244174479,977,355,0,0,0,2,1,1,21,0002-00-0006-43.png,0001-00-0008-60.png
00000009,361,0,1442244175764,1442244175902,970,386,0,0,0,2,3,1,23,0002-00-0007-97.png,0003-00-0001-11.png
00000009,362,0,1442244178981,1442244179527,1128,306,0,0,0,3,4,1,34,0003-00-0003-54.png,0004-00-0004-98.png
00000009,363,1,1442244182705,1442244182929,932,431,0,0,0,5,4,1,54,0005-00-0001-07.png,0004-00-0009-07.png
00000009,364,0,1442244183850,1442244183986,962,472,0,0,0,4,5,1,45,0004-00-0002-02.png,0005-00-0000-88.png
00000009,365,1,1442244188086,1442244188664,348,420,0,0,0,1,2,1,12,0001-00-0003-54.png,0002-00-0006-59.png
00000009,366,1,1442244189488,1442244190579,960,330,0,0,0,3,2,1,32,0003-00-0007-79.png,0002-00-0002-17.png
00000009,367,1,1442244191953,1442244192079,940,401,0,0,0,4,3,1,43,0004-00-0002-21.png,0003-00-0001-26.png
00000009,368,1,1442244192963,1442244193019,888,447,0,0,0,2,1,1,21,0002-00-0003-83.png,0001-00-0001-60.png
00000009,369,0,1442244194217,1442244194249,904,420,0,0,0,3,4,1,34,0003-00-0003-01.png,0004-00-0000-03.png
00000009,370,1,1442244197375,1442244197928,971,426,0,0,0,3,2,1,32,0003-00-0008-94.png,0002-00-0002-46.png
00000009,371,1,1442244199303,1442244199590,1031,384,0,0,0,5,4,1,54,0005-00-0009-50.png,0004-00-0001-02.png
00000009,372,1,1442244200658,1442244200726,942,414,0,0,0,2,1,1,21,0002-00-0001-57.png,0001-00-0007-93.png
00000009,373,0,1442244202821,1442244205721,373,395,0,0,0,4,3,1,43,0004-00-0008-07.png,0003-00-0002-37.png
00000009,374,0,1442244208855,1442244209461,988,303,0,0,0,2,3,1,23,0002-00-0003-98.png,0003-00-0004-62.png
00000009,375,0,1442244213817,1442244214334,1118,306,0,0,0,1,2,1,12,0001-00-0000-19.png,0002-00-0004-04.png
00000009,376,1,1442244218190,1442244218744,470,280,0,0,0,4,5,1,45,0004-00-0000-85.png,0005-00-0007-35.png
00000009,377,1,1442244219575,1442244220434,372,405,0,0,0,1,2,1,12,0001-00-0009-83.png,0002-00-0009-94.png
00000009,378,0,1442244221294,1442244221358,913,428,0,0,0,3,4,1,34,0003-00-0005-92.png,0004-00-0006-77.png
00000009,379,1,1442244224249,1442244224277,925,282,0,0,0,2,1,1,21,0002-00-0007-71.png,0001-00-0004-89.png
00000009,380,1,1442244225266,1442244225342,968,426,0,0,0,3,2,1,32,0003-00-0001-34.png,0002-00-0000-09.png
00000009,381,0,1442244226772,1442244226812,898,439,0,0,0,2,3,1,23,0002-00-0009-21.png,0003-00-0009-52.png
00000009,382,0,1442244229715,1442244230394,482,296,0,0,0,4,3,1,43,0004-00-0000-39.png,0003-00-0001-72.png
00000009,383,1,1442244233374,1442244233978,429,300,0,0,0,4,5,1,45,0004-00-0007-82.png,0005-00-0006-02.png
00000009,384,0,1442244235517,1442244236092,471,269,0,0,0,5,4,1,54,0005-00-0004-41.png,0004-00-0000-01.png
00000009,385,1,1442244239207,1442244239940,470,280,0,0,0,1,2,1,12,0001-00-0003-67.png,0002-00-0007-09.png
00000009,386,0,1442244241273,1442244241362,926,358,0,0,0,2,3,1,23,0002-00-0001-21.png,0003-00-0006-52.png
00000009,387,0,1442244244541,1442244245092,1127,287,0,0,0,4,5,1,45,0004-00-0008-81.png,0005-00-0005-97.png
00000009,388,1,1442244248111,1442244248680,368,421,0,0,0,3,4,1,34,0003-00-0003-56.png,0004-00-0007-40.png
00000009,389,1,1442244249541,1442244249601,964,419,0,0,0,3,2,1,32,0003-00-0004-61.png,0002-00-0000-69.png
00000009,390,1,1442244250602,1442244250634,892,427,0,0,0,4,3,1,43,0004-00-0004-17.png,0003-00-0002-36.png
00000009,391,1,1442244251626,1442244251657,889,440,0,0,0,5,4,1,54,0005-00-0008-06.png,0004-00-0001-96.png
00000009,392,1,1442244253027,1442244253059,862,358,0,0,0,2,1,1,21,0002-00-0008-98.png,0001-00-0007-64.png
00000009,393,0,1442244254244,1442244254280,919,398,0,0,0,4,5,1,45,0004-00-0001-10.png,0005-00-0000-81.png
00000009,394,1,1442244257891,1442244258405,958,417,0,0,0,3,2,1,32,0003-00-0000-48.png,0002-00-0003-58.png
00000009,395,1,1442244259736,1442244259963,983,411,0,0,0,5,4,1,54,0005-00-0006-22.png,0004-00-0001-52.png
00000009,396,0,1442244260950,1442244260986,888,436,0,0,0,3,4,1,34,0003-00-0007-51.png,0004-00-0000-34.png
00000009,397,0,1442244264270,1442244264818,393,408,0,0,0,4,3,1,43,0004-00-0009-42.png,0003-00-0005-78.png
00000009,398,0,1442244268136,1442244268140,862,384,0,0,0,1,2,1,12,0001-00-0007-51.png,0002-00-0001-02.png
00000009,399,0,1442244271168,1442244271224,913,384,0,0,0,2,3,1,23,0002-00-0000-02.png,0003-00-0008-23.png
00000009,400,1,1442244274255,1442244274295,1016,384,0,0,0,2,1,1,21,0002-00-0007-28.png,0001-00-0009-00.png
00000009,401,0,1442244275231,1442244275291,894,394,0,0,0,3,4,1,34,0003-00-0000-94.png,0004-00-0007-63.png
00000009,402,0,1442244278448,1442244278985,448,287,0,0,0,4,3,1,43,0004-00-0000-58.png,0003-00-0001-19.png
00000009,403,1,1442244282149,1442244282429,1001,358,0,0,0,3,2,1,32,0003-00-0003-12.png,0002-00-0002-15.png
00000009,404,1,1442244283368,1442244283428,963,447,0,0,0,5,4,1,54,0005-00-0000-16.png,0004-00-0004-78.png
00000009,405,1,1442244284264,1442244284288,920,401,0,0,0,2,1,1,21,0002-00-0000-73.png,0001-00-0001-38.png
00000009,406,0,1442244285220,1442244285248,906,445,0,0,0,4,5,1,45,0004-00-0002-33.png,0005-00-0000-27.png
00000009,407,1,1442244288509,1442244289073,423,293,0,0,0,1,2,1,12,0001-00-0004-90.png,0002-00-0008-68.png
00000009,408,0,1442244290437,1442244290536,964,358,0,0,0,2,3,1,23,0002-00-0004-64.png,0003-00-0006-01.png
00000009,409,0,1442244293573,1442244294124,1118,296,0,0,0,2,3,1,23,0002-00-0003-90.png,0003-00-0005-16.png
00000009,410,1,1442244297563,1442244297834,933,276,0,0,0,2,1,1,21,0002-00-0008-88.png,0001-00-0008-12.png
00000009,411,0,1442244299298,1442244299322,884,366,0,0,0,3,4,1,34,0003-00-0005-74.png,0004-00-0004-41.png
00000009,412,1,1442244304578,1442244304606,915,386,0,0,0,3,2,1,32,0003-00-0002-64.png,0002-00-0001-98.png
00000009,413,1,1442244305648,1442244305668,871,410,0,0,0,5,4,1,54,0005-00-0002-09.png,0004-00-0006-62.png
00000009,414,0,1442244307112,1442244307168,947,349,0,0,0,1,2,1,12,0001-00-0007-87.png,0002-00-0001-65.png
00000009,415,1,1442244310321,1442244310406,1005,296,0,0,0,4,3,1,43,0004-00-0005-88.png,0003-00-0006-33.png
00000009,416,0,1442244311352,1442244311464,939,425,0,0,0,4,5,1,45,0004-00-0000-80.png,0005-00-0008-22.png
00000009,417,1,1442244314829,1442244315506,491,283,0,0,0,1,2,1,12,0001-00-0002-31.png,0002-00-0009-56.png
00000009,418,1,1442244316858,1442244316938,925,333,0,0,0,5,4,1,54,0005-00-0003-05.png,0004-00-0003-51.png
00000009,419,1,1442244318427,1442244318545,966,383,0,0,0,2,1,1,21,0002-00-0006-93.png,0001-00-0005-89.png
00000009,420,1,1442244319966,1442244319998,913,392,0,0,0,3,2,1,32,0003-00-0007-86.png,0002-00-0002-13.png
00000009,421,1,1442244321657,1442244321713,913,397,0,0,0,4,3,1,43,0004-00-0006-49.png,0003-00-0001-17.png
00000009,422,0,1442244322690,1442244322734,935,444,0,0,0,3,4,1,34,0003-00-0006-93.png,0004-00-0006-78.png
00000009,423,1,1442244327234,1442244327725,308,415,0,0,0,2,3,1,23,0002-00-0003-57.png,0003-00-0004-46.png
00000009,424,0,1442244329000,1442244329020,982,403,0,0,0,4,5,1,45,0004-00-0009-57.png,0005-00-0006-39.png
00000009,425,1,1442244332200,1442244332814,372,380,0,0,0,2,3,1,23,0002-00-0008-35.png,0003-00-0002-08.png
00000009,426,0,1442244333710,1442244333795,987,406,0,0,0,1,2,1,12,0001-00-0008-83.png,0002-00-0002-06.png
00000009,427,0,1442244337518,1442244338073,977,329,0,0,0,4,5,1,45,0004-00-0001-12.png,0005-00-0003-03.png
00000009,428,1,1442244341058,1442244341562,345,429,0,0,0,3,4,1,34,0003-00-0008-60.png,0004-00-0005-28.png
00000009,429,1,1442244342385,1442244342465,939,384,0,0,0,5,4,1,54,0005-00-0005-13.png,0004-00-0002-59.png
00000009,430,1,1442244343996,1442244344036,913,374,0,0,0,2,1,1,21,0002-00-0001-00.png,0001-00-0001-26.png
00000009,431,1,1442244344869,1442244344921,913,410,0,0,0,4,3,1,43,0004-00-0001-82.png,0003-00-0006-97.png
00000009,432,1,1442244346114,1442244346150,916,404,0,0,0,3,2,1,32,0003-00-0001-78.png,0002-00-0005-15.png
00000009,433,0,1442244347226,1442244347246,924,408,0,0,0,1,2,1,12,0001-00-0005-75.png,0002-00-0002-13.png
00000009,434,0,1442244351015,1442244351493,1018,347,0,0,0,3,4,1,34,0003-00-0004-67.png,0004-00-0004-33.png
00000009,435,1,1442244354372,1442244355906,870,378,0,0,0,3,2,1,32,0003-00-0000-45.png,0002-00-0004-16.png
00000009,436,1,1442244357048,1442244357116,913,319,0,0,0,2,1,1,21,0002-00-0001-25.png,0001-00-0004-07.png
00000009,437,1,1442244358359,1442244358447,960,390,0,0,0,4,3,1,43,0004-00-0005-47.png,0003-00-0009-66.png
00000009,438,0,1442244359333,1442244359353,923,397,0,0,0,2,3,1,23,0002-00-0000-83.png,0003-00-0001-28.png
00000009,439,1,1442244381510,1442244382336,1148,354,0,0,0,5,4,1,54,0005-00-0003-74.png,0004-00-0003-76.png
00000009,440,0,1442244383151,1442244383240,862,384,0,0,0,4,5,1,45,0004-00-0005-21.png,0005-00-0004-09.png
00000009,441,0,1442244386441,1442244386948,1088,306,0,0,0,3,4,1,34,0003-00-0005-17.png,0004-00-0004-43.png
00000009,442,0,1442244394326,1442244394394,887,385,0,0,0,1,2,1,12,0001-00-0005-57.png,0002-00-0007-64.png
00000009,443,1,1442244397453,1442244397481,857,315,0,0,0,3,2,1,32,0003-00-0007-27.png,0002-00-0005-19.png
00000009,444,0,1442244398389,1442244398437,885,356,0,0,0,2,3,1,23,0002-00-0001-15.png,0003-00-0009-41.png
00000009,445,1,1442244407316,1442244407838,941,403,0,0,0,2,1,1,21,0002-00-0003-27.png,0001-00-0008-12.png
00000009,446,1,1442244409109,1442244409322,936,362,0,0,0,4,3,1,43,0004-00-0008-06.png,0003-00-0007-76.png
00000009,447,0,1442244410284,1442244410320,880,390,0,0,0,4,5,1,45,0004-00-0001-59.png,0005-00-0005-29.png
00000009,448,1,1442244413479,1442244414017,945,348,0,0,0,5,4,1,54,0005-00-0006-39.png,0004-00-0007-29.png
00000009,449,0,1442244415392,1442244415499,939,378,0,0,0,3,4,1,34,0003-00-0009-96.png,0004-00-0008-50.png
00000009,450,0,1442244418656,1442244419210,1116,303,0,0,0,1,2,1,12,0001-00-0006-05.png,0002-00-0000-78.png
00000009,451,1,1442244422408,1442244422555,990,279,0,0,0,4,3,1,43,0004-00-0006-41.png,0003-00-0005-27.png
00000009,452,0,1442244423994,1442244424127,967,379,0,0,0,4,5,1,45,0004-00-0009-38.png,0005-00-0004-77.png
00000009,453,0,1442244427084,1442244427717,473,297,0,0,0,2,1,1,21,0002-00-0008-94.png,0001-00-0008-35.png
00000009,454,0,1442244430695,1442244430755,937,481,0,0,0,2,3,1,23,0002-00-0001-26.png,0003-00-0007-47.png
00000009,455,1,1442244433945,1442244434479,962,356,0,0,0,5,4,1,54,0005-00-0000-23.png,0004-00-0008-42.png
00000009,456,1,1442244435842,1442244435898,888,410,0,0,0,3,2,1,32,0003-00-0005-57.png,0002-00-0001-15.png
00000009,457,0,1442244436784,1442244436836,913,423,0,0,0,3,4,1,34,0003-00-0000-31.png,0004-00-0008-57.png
00000009,458,1,1442244439992,1442244440036,925,354,0,0,0,2,1,1,21,0002-00-0002-63.png,0001-00-0003-66.png
00000009,459,0,1442244440907,1442244440931,888,446,0,0,0,4,5,1,45,0004-00-0000-21.png,0005-00-0006-69.png
00000009,460,0,1442244444100,1442244444827,342,387,0,0,0,4,3,1,43,0004-00-0006-10.png,0003-00-0005-43.png
00000009,461,1,1442244447665,1442244448251,977,410,0,0,0,3,2,1,32,0003-00-0008-57.png,0002-00-0007-00.png
00000009,462,1,1442244449653,1442244449681,870,391,0,0,0,5,4,1,54,0005-00-0008-05.png,0004-00-0007-82.png
00000009,463,0,1442244450588,1442244450608,861,410,0,0,0,2,3,1,23,0002-00-0009-71.png,0003-00-0002-08.png
00000009,464,0,1442244453857,1442244454374,991,331,0,0,0,1,2,1,12,0001-00-0007-47.png,0002-00-0009-21.png
00000009,465,1,1442244457474,1442244458097,472,292,0,0,0,4,5,1,45,0004-00-0001-77.png,0005-00-0009-34.png
00000009,466,1,1442244458914,1442244458998,930,418,0,0,0,2,1,1,21,0002-00-0005-71.png,0001-00-0007-03.png
00000009,467,1,1442244459855,1442244459907,898,410,0,0,0,4,3,1,43,0004-00-0003-51.png,0003-00-0001-46.png
00000009,468,0,1442244460994,1442244461062,909,456,0,0,0,1,2,1,12,0001-00-0004-74.png,0002-00-0004-13.png
00000009,469,1,1442244466171,1442244466691,475,281,0,0,0,2,3,1,23,0002-00-0002-41.png,0003-00-0009-49.png
00000009,470,1,1442244467582,1442244467642,896,410,0,0,0,3,2,1,32,0003-00-0000-16.png,0002-00-0007-86.png
00000009,471,1,1442244468485,1442244468533,888,422,0,0,0,5,4,1,54,0005-00-0006-03.png,0004-00-0008-86.png
00000009,472,0,1442244469543,1442244469607,918,440,0,0,0,3,4,1,34,0003-00-0007-33.png,0004-00-0001-38.png
00000009,473,0,1442244472728,1442244473386,489,257,0,0,0,5,4,1,54,0005-00-0008-23.png,0004-00-0001-40.png
00000009,474,1,1442244476566,1442244477136,961,338,0,0,0,2,1,1,21,0002-00-0002-58.png,0001-00-0004-90.png
00000009,475,1,1442244478511,1442244478583,898,365,0,0,0,3,2,1,32,0003-00-0002-64.png,0002-00-0002-59.png
00000009,476,0,1442244479556,1442244479604,914,424,0,0,0,2,3,1,23,0002-00-0004-60.png,0003-00-0001-69.png
00000009,477,0,1442244482637,1442244482685,911,389,0,0,0,1,2,1,12,0001-00-0004-55.png,0002-00-0004-77.png
00000009,478,0,1442244488309,1442244488361,888,365,0,0,0,3,4,1,34,0003-00-0003-20.png,0004-00-0004-68.png
00000009,479,1,1442244493293,1442244493955,461,255,0,0,0,4,5,1,45,0004-00-0006-42.png,0005-00-0001-36.png
00000009,480,1,1442244494790,1442244494826,923,384,0,0,0,4,3,1,43,0004-00-0005-11.png,0003-00-0009-35.png
00000009,481,0,1442244496289,1442244496329,888,410,0,0,0,2,3,1,23,0002-00-0006-85.png,0003-00-0006-81.png
00000009,482,1,1442244500526,1442244501077,939,349,0,0,0,4,3,1,43,0004-00-0000-77.png,0003-00-0004-09.png
00000009,483,0,1442244501955,1442244502043,971,402,0,0,0,4,5,1,45,0004-00-0009-20.png,0005-00-0008-93.png
00000009,484,0,1442244505814,1442244506381,1092,279,0,0,0,1,2,1,12,0001-00-0000-11.png,0002-00-0008-10.png
00000009,485,0,1442244509597,1442244510207,429,279,0,0,0,5,4,1,54,0005-00-0008-17.png,0004-00-0001-96.png
00000009,486,0,1442244513148,1442244513928,913,323,0,0,0,3,4,1,34,0003-00-0003-22.png,0004-00-0001-82.png
00000009,487,1,1442244517072,1442244517148,888,262,0,0,0,2,1,1,21,0002-00-0001-91.png,0001-00-0008-77.png
00000009,488,1,1442244518067,1442244518107,864,411,0,0,0,3,2,1,32,0003-00-0009-43.png,0002-00-0008-20.png
00000009,489,0,1442244519062,1442244519126,872,403,0,0,0,1,2,1,12,0001-00-0004-22.png,0002-00-0002-18.png
00000009,490,0,1442244522748,1442244523071,929,313,0,0,0,4,5,1,45,0004-00-0001-62.png,0005-00-0007-27.png
00000009,491,1,1442244525989,1442244526623,504,297,0,0,0,2,3,1,23,0002-00-0000-22.png,0003-00-0007-07.png
00000009,492,1,1442244527461,1442244527505,906,420,0,0,0,3,2,1,32,0003-00-0005-93.png,0002-00-0009-66.png
00000009,493,1,1442244528381,1442244528425,862,395,0,0,0,5,4,1,54,0005-00-0007-08.png,0004-00-0008-87.png
00000009,494,1,1442244529368,1442244529424,888,410,0,0,0,4,3,1,43,0004-00-0009-70.png,0003-00-0003-53.png
00000009,495,0,1442244530645,1442244530701,901,395,0,0,0,3,4,1,34,0003-00-0002-86.png,0004-00-0007-43.png
00000009,496,1,1442244533810,1442244534395,1064,305,0,0,0,2,1,1,21,0002-00-0002-99.png,0001-00-0009-78.png
00000009,497,0,1442244535697,1442244535749,872,389,0,0,0,2,3,1,23,0002-00-0008-80.png,0003-00-0009-96.png
00000009,498,1,1442244538656,1442244538804,873,300,0,0,0,4,3,1,43,0004-00-0008-35.png,0003-00-0008-32.png
00000009,499,0,1442244539708,1442244539760,888,446,0,0,0,4,5,1,45,0004-00-0002-89.png,0005-00-0000-49.png
00000009,500,1,1442244542862,1442244543383,968,337,0,0,0,3,2,1,32,0003-00-0009-89.png,0002-00-0002-75.png
00000009,501,0,1442244544719,1442244544805,930,391,0,0,0,3,4,1,34,0003-00-0001-05.png,0004-00-0002-28.png
00000009,502,0,1442244547743,1442244548326,1077,274,0,0,0,1,2,1,12,0001-00-0006-57.png,0002-00-0008-20.png
00000009,503,0,1442244551321,1442244552014,376,369,0,0,0,2,1,1,21,0002-00-0007-93.png,0001-00-0007-43.png
00000009,504,1,1442244555132,1442244555758,1104,332,0,0,0,5,4,1,54,0005-00-0009-98.png,0004-00-0004-46.png
00000009,505,0,1442244556614,1442244556691,924,423,0,0,0,2,3,1,23,0002-00-0007-29.png,0003-00-0009-88.png
00000009,506,1,1442244561230,1442244561256,858,464,0,0,0,5,4,1,54,0005-00-0008-59.png,0004-00-0007-98.png
00000009,507,0,1442244562347,1442244563097,365,411,0,0,0,4,3,1,43,0004-00-0007-12.png,0003-00-0001-63.png
00000009,508,1,1442244566335,1442244566883,939,361,0,0,0,3,2,1,32,0003-00-0002-34.png,0002-00-0009-37.png
00000009,509,1,1442244568350,1442244568904,959,488,0,0,0,2,1,1,21,0002-00-0007-13.png,0001-00-0009-53.png
00000009,510,0,1442244569781,1442244569853,919,451,0,0,0,1,2,1,12,0001-00-0002-97.png,0002-00-0005-79.png
00000009,511,1,1442244572877,1442244572881,510,452,0,0,0,4,5,1,45,0004-00-0009-19.png,0005-00-0009-30.png
00000009,512,0,1442244573900,1442244573920,875,413,0,0,0,3,4,1,34,0003-00-0003-38.png,0004-00-0009-64.png
00000009,513,0,1442244577095,1442244577253,862,315,0,0,0,3,4,1,34,0003-00-0007-75.png,0004-00-0001-28.png
00000009,514,0,1442244581781,1442244581805,931,332,0,0,0,2,3,1,23,0002-00-0002-42.png,0003-00-0000-45.png
00000009,515,1,1442244585000,1442244585556,1066,284,0,0,0,2,1,1,21,0002-00-0007-93.png,0001-00-0000-80.png
00000009,516,1,1442244586888,1442244586896,866,383,0,0,0,3,2,1,32,0003-00-0005-28.png,0002-00-0009-52.png
00000009,517,0,1442244587748,1442244587800,879,436,0,0,0,4,5,1,45,0004-00-0002-60.png,0005-00-0003-94.png
00000009,518,1,1442244591589,1442244592171,464,262,0,0,0,1,2,1,12,0001-00-0004-35.png,0002-00-0008-59.png
00000009,519,1,1442244593434,1442244593486,918,370,0,0,0,4,3,1,43,0004-00-0008-38.png,0003-00-0007-90.png
00000009,520,1,1442244594338,1442244594398,887,421,0,0,0,5,4,1,54,0005-00-0008-19.png,0004-00-0002-24.png
00000009,521,1,1442244595471,1442244595503,912,419,0,0,0,5,4,1,54,0005-00-0002-34.png,0004-00-0005-11.png
00000009,522,0,1442244596625,1442244596665,933,449,0,0,0,4,5,1,45,0004-00-0007-64.png,0005-00-0008-16.png
00000009,523,1,1442244599622,1442244600194,1094,302,0,0,0,3,2,1,32,0003-00-0003-32.png,0002-00-0006-76.png
00000009,524,1,1442244601576,1442244601660,913,384,0,0,0,2,1,1,21,0002-00-0004-61.png,0001-00-0009-54.png
00000009,525,1,1442244602559,1442244603464,939,487,0,0,0,4,3,1,43,0004-00-0002-27.png,0003-00-0006-63.png
00000009,526,0,1442244604428,1442244604456,915,446,0,0,0,3,4,1,34,0003-00-0006-95.png,0004-00-0002-04.png
00000009,527,1,1442244607390,1442244608055,477,307,0,0,0,2,3,1,23,0002-00-0007-22.png,0003-00-0009-32.png
00000009,528,1,1442244609436,1442244610195,466,273,0,0,0,1,2,1,12,0001-00-0000-77.png,0002-00-0003-19.png
00000009,529,1,1442244611116,1442244611172,923,410,0,0,0,2,1,1,21,0002-00-0002-00.png,0001-00-0007-59.png
00000009,530,1,1442244612206,1442244612270,931,443,0,0,0,3,2,1,32,0003-00-0005-53.png,0002-00-0005-40.png
00000009,531,0,1442244613392,1442244613428,954,434,0,0,0,4,5,1,45,0004-00-0008-42.png,0005-00-0003-05.png
00000009,532,0,1442244616922,1442244617502,1042,306,0,0,0,3,4,1,34,0003-00-0003-67.png,0004-00-0002-91.png
00000009,533,0,1442244621074,1442244621654,1067,305,0,0,0,1,2,1,12,0001-00-0009-07.png,0002-00-0004-72.png
00000009,534,1,1442244624827,1442244624964,913,294,0,0,0,5,4,1,54,0005-00-0009-76.png,0004-00-0007-75.png
00000009,535,1,1442244625982,1442244626038,942,412,0,0,0,4,3,1,43,0004-00-0008-06.png,0003-00-0002-47.png
00000009,536,0,1442244626872,1442244626904,888,393,0,0,0,2,3,1,23,0002-00-0001-91.png,0003-00-0006-74.png
00000009,537,0,1442244630165,1442244630711,937,328,0,0,0,3,4,1,34,0003-00-0002-70.png,0004-00-0006-78.png
00000009,538,0,1442244633941,1442244634588,466,294,0,0,0,5,4,1,54,0005-00-0000-54.png,0004-00-0003-36.png
00000009,539,0,1442244637648,1442244638294,970,332,0,0,0,1,2,1,12,0001-00-0009-14.png,0002-00-0007-38.png
00000009,540,1,1442244641296,1442244641864,968,353,0,0,0,3,2,1,32,0003-00-0000-84.png,0002-00-0000-18.png
00000009,541,0,1442244643381,1442244644271,483,240,0,0,0,4,3,1,43,0004-00-0002-65.png,0003-00-0002-63.png
00000009,542,1,1442244647251,1442244647887,375,387,0,0,0,4,5,1,45,0004-00-0004-17.png,0005-00-0009-63.png
00000009,543,1,1442244648792,1442244648820,921,412,0,0,0,2,1,1,21,0002-00-0006-96.png,0001-00-0008-68.png
00000009,544,0,1442244649773,1442244649793,864,422,0,0,0,2,3,1,23,0002-00-0005-53.png,0003-00-0002-18.png
00000009,545,1,1442244653235,1442244653331,913,268,0,0,0,3,2,1,32,0003-00-0007-35.png,0002-00-0003-32.png
00000009,546,1,1442244654770,1442244654822,934,386,0,0,0,5,4,1,54,0005-00-0003-30.png,0004-00-0002-27.png
00000009,547,0,1442244655846,1442244655886,945,414,0,0,0,3,4,1,34,0003-00-0001-04.png,0004-00-0009-77.png
00000009,548,0,1442244659017,1442244659565,480,281,0,0,0,2,1,1,21,0002-00-0006-93.png,0001-00-0001-19.png
00000009,549,0,1442244662583,1442244662619,888,423,0,0,0,2,3,1,23,0002-00-0000-82.png,0003-00-0009-59.png
00000009,550,1,1442244666040,1442244666688,462,310,0,0,0,1,2,1,12,0001-00-0001-96.png,0002-00-0003-37.png
00000009,551,1,1442244667532,1442244667588,955,392,0,0,0,4,3,1,43,0004-00-0002-17.png,0003-00-0001-63.png
00000009,552,0,1442244668527,1442244668563,874,400,0,0,0,4,5,1,45,0004-00-0006-82.png,0005-00-0000-27.png
00000009,553,0,1442244671717,1442244672337,468,287,0,0,0,5,4,1,54,0005-00-0001-47.png,0004-00-0003-47.png
00000009,554,0,1442244675390,1442244675930,989,306,0,0,0,3,4,1,34,0003-00-0009-75.png,0004-00-0004-52.png
00000009,555,1,1442244679148,1442244679722,338,388,0,0,0,1,2,1,12,0001-00-0002-05.png,0002-00-0002-74.png
00000009,556,0,1442244680560,1442244680600,926,422,0,0,0,4,5,1,45,0004-00-0005-22.png,0005-00-0001-70.png
00000009,557,1,1442244683791,1442244684414,1105,327,0,0,0,2,1,1,21,0002-00-0004-86.png,0001-00-0001-98.png
00000009,558,1,1442244685277,1442244686320,1092,295,0,0,0,4,3,1,43,0004-00-0009-18.png,0003-00-0005-62.png
00000009,559,1,1442244688114,1442244688170,919,369,0,0,0,3,2,1,32,0003-00-0000-04.png,0002-00-0008-74.png
00000009,560,0,1442244689234,1442244689254,939,374,0,0,0,2,3,1,23,0002-00-0004-42.png,0003-00-0003-85.png
00000009,561,0,1442244692411,1442244692463,929,334,0,0,0,4,5,1,45,0004-00-0000-78.png,0005-00-0007-38.png
00000009,562,0,1442244695635,1442244696266,478,263,0,0,0,2,1,1,21,0002-00-0009-77.png,0001-00-0009-81.png
00000009,563,0,1442244699428,1442244699452,928,360,0,0,0,2,3,1,23,0002-00-0005-97.png,0003-00-0001-12.png
00000009,564,1,1442244702609,1442244703224,1110,312,0,0,0,3,2,1,32,0003-00-0008-55.png,0002-00-0002-91.png
00000009,565,1,1442244704142,1442244704190,915,438,0,0,0,5,4,1,54,0005-00-0008-85.png,0004-00-0006-78.png
00000009,566,0,1442244705262,1442244705294,868,375,0,0,0,3,4,1,34,0003-00-0002-78.png,0004-00-0009-72.png
00000009,567,0,1442244708416,1442244708456,941,333,0,0,0,1,2,1,12,0001-00-0009-60.png,0002-00-0007-35.png
00000009,568,1,1442244711617,1442244711665,944,346,0,0,0,4,3,1,43,0004-00-0004-58.png,0003-00-0004-48.png
00000009,569,1,1442244712540,1442244712628,933,420,0,0,0,3,2,1,32,0003-00-0008-39.png,0002-00-0002-67.png
00000009,570,0,1442244714329,1442244714387,888,397,0,0,0,1,2,1,12,0001-00-0007-24.png,0002-00-0005-53.png
00000009,571,1,1442244717245,1442244717872,461,276,0,0,0,2,3,1,23,0002-00-0006-83.png,0003-00-0007-62.png
00000009,572,1,1442244719284,1442244719385,939,422,0,0,0,2,1,1,21,0002-00-0005-67.png,0001-00-0005-49.png
00000009,573,1,1442244720326,1442244720390,909,440,0,0,0,4,3,1,43,0004-00-0000-06.png,0003-00-0007-37.png
00000009,574,0,1442244721550,1442244721627,888,424,0,0,0,4,5,1,45,0004-00-0002-43.png,0005-00-0002-75.png
00000009,575,1,1442244725118,1442244725781,964,400,0,0,0,5,4,1,54,0005-00-0007-00.png,0004-00-0005-43.png
00000009,576,0,1442244727144,1442244727256,928,410,0,0,0,3,4,1,34,0003-00-0000-49.png,0004-00-0004-84.png
00000009,577,0,1442244730116,1442244730736,964,421,0,0,0,3,4,1,34,0003-00-0004-03.png,0004-00-0002-14.png
00000009,578,1,1442244733824,1442244734485,946,365,0,0,0,5,4,1,54,0005-00-0004-21.png,0004-00-0001-67.png
00000009,579,0,1442244735308,1442244735448,914,424,0,0,0,4,5,1,45,0004-00-0001-87.png,0005-00-0007-65.png
00000009,580,0,1442244738567,1442244738619,985,384,0,0,0,2,3,1,23,0002-00-0001-10.png,0003-00-0003-51.png
00000009,581,0,1442244741533,1442244742133,393,408,0,0,0,3,2,1,32,0003-00-0009-72.png,0002-00-0008-06.png
00000009,582,0,1442244745314,1442244745346,943,365,0,0,0,1,2,1,12,0001-00-0001-81.png,0002-00-0008-89.png
00000009,583,1,1442244748232,1442244749175,921,349,0,0,0,4,3,1,43,0004-00-0008-44.png,0003-00-0009-92.png
00000009,584,1,1442244750105,1442244750165,964,384,0,0,0,2,1,1,21,0002-00-0009-13.png,0001-00-0008-77.png
00000009,585,0,1442244751064,1442244751156,916,400,0,0,0,4,5,1,45,0004-00-0002-57.png,0005-00-0004-85.png
00000009,586,1,1442244754515,1442244755121,479,277,0,0,0,1,2,1,12,0001-00-0008-32.png,0002-00-0009-08.png
00000009,587,0,1442244755960,1442244756024,923,384,0,0,0,3,4,1,34,0003-00-0001-17.png,0004-00-0000-14.png
00000009,588,0,1442244759167,1442244759746,363,373,0,0,0,4,3,1,43,0004-00-0003-24.png,0003-00-0002-52.png
00000009,589,1,1442244762811,1442244763505,931,414,0,0,0,2,1,1,21,0002-00-0006-79.png,0001-00-0004-18.png
00000009,590,1,1442244764970,1442244765109,967,382,0,0,0,5,4,1,54,0005-00-0009-47.png,0004-00-0002-58.png
00000009,591,1,1442244765962,1442244766022,922,416,0,0,0,3,2,1,32,0003-00-0008-48.png,0002-00-0001-57.png
00000009,592,0,1442244767125,1442244767173,913,393,0,0,0,2,3,1,23,0002-00-0000-88.png,0003-00-0004-47.png
00000009,593,0,1442244770024,1442244771239,424,270,0,0,0,5,4,1,54,0005-00-0004-44.png,0004-00-0002-61.png
00000009,594,0,1442244774176,1442244774806,457,269,0,0,0,4,3,1,43,0004-00-0000-15.png,0003-00-0004-88.png
00000009,595,1,1442244778364,1442244778950,1091,303,0,0,0,3,2,1,32,0003-00-0008-05.png,0002-00-0008-89.png
00000009,596,0,1442244780262,1442244780310,873,384,0,0,0,1,2,1,12,0001-00-0008-80.png,0002-00-0007-07.png
00000009,597,1,1442244783436,1442244784040,964,423,0,0,0,2,1,1,21,0002-00-0004-81.png,0001-00-0006-89.png
00000009,598,0,1442244784887,1442244785897,929,322,0,0,0,2,3,1,23,0002-00-0002-50.png,0003-00-0008-60.png
00000009,599,0,1442244789049,1442244789117,960,336,0,0,0,3,4,1,34,0003-00-0007-15.png,0004-00-0008-91.png
00000009,600,0,1442244792289,1442244793067,1118,306,0,0,0,4,5,1,45,0004-00-0009-22.png,0005-00-0005-30.png
00000009,601,1,1442244796085,1442244796620,458,305,0,0,0,3,4,1,34,0003-00-0007-88.png,0004-00-0000-63.png
00000009,602,1,1442244797495,1442244797547,898,410,0,0,0,5,4,1,54,0005-00-0000-81.png,0004-00-0003-70.png
00000009,603,1,1442244798529,1442244798569,871,410,0,0,0,4,3,1,43,0004-00-0002-90.png,0003-00-0001-75.png
00000009,604,0,1442244799680,1442244799720,926,415,0,0,0,4,5,1,45,0004-00-0002-02.png,0005-00-0009-89.png
00000009,605,1,1442244802932,1442244803665,1143,315,0,0,0,3,2,1,32,0003-00-0002-56.png,0002-00-0008-80.png
00000009,606,0,1442244805096,1442244805160,889,420,0,0,0,1,2,1,12,0001-00-0005-26.png,0002-00-0005-66.png
00000009,607,1,1442244808099,1442244808741,952,358,0,0,0,2,1,1,21,0002-00-0009-62.png,0001-00-0009-39.png
00000009,608,0,1442244810052,1442244810096,913,384,0,0,0,2,3,1,23,0002-00-0004-16.png,0003-00-0006-77.png
00000009,609,1,1442244819639,1442244819663,965,354,0,0,0,4,3,1,43,0004-00-0003-69.png,0003-00-0004-60.png
00000009,610,1,1442244821144,1442244821184,912,357,0,0,0,2,1,1,21,0002-00-0001-60.png,0001-00-0002-03.png
00000009,611,0,1442244822215,1442244822285,913,424,0,0,0,4,5,1,45,0004-00-0004-69.png,0005-00-0008-61.png
00000009,612,0,1442244825489,1442244826103,449,301,0,0,0,3,2,1,32,0003-00-0006-91.png,0002-00-0009-25.png
00000009,613,1,1442244829311,1442244829836,360,372,0,0,0,1,2,1,12,0001-00-0000-80.png,0002-00-0008-27.png
00000009,614,1,1442244830770,1442244830878,955,436,0,0,0,5,4,1,54,0005-00-0000-42.png,0004-00-0000-91.png
00000009,615,0,1442244832579,1442244832627,968,408,0,0,0,3,4,1,34,0003-00-0007-47.png,0004-00-0002-27.png
00000009,616,0,1442244835523,1442244836189,964,321,0,0,0,2,3,1,23,0002-00-0003-72.png,0003-00-0002-86.png
00000009,617,0,1442244839170,1442244839800,920,344,0,0,0,4,5,1,45,0004-00-0008-66.png,0005-00-0003-10.png
00000009,618,1,1442244842877,1442244843439,939,349,0,0,0,2,1,1,21,0002-00-0004-08.png,0001-00-0000-38.png
00000009,619,1,1442244844783,1442244844843,939,400,0,0,0,5,4,1,54,0005-00-0008-06.png,0004-00-0006-39.png
00000009,620,1,1442244845748,1442244845812,928,423,0,0,0,3,2,1,32,0003-00-0003-87.png,0002-00-0008-00.png
00000009,621,1,1442244846959,1442244847947,357,375,0,0,0,2,3,1,23,0002-00-0008-72.png,0003-00-0008-50.png
00000009,622,1,1442244849030,1442244849090,957,403,0,0,0,4,3,1,43,0004-00-0008-61.png,0003-00-0008-10.png
00000009,623,0,1442244850108,1442244850172,935,451,0,0,0,3,4,1,34,0003-00-0005-71.png,0004-00-0006-75.png
00000009,624,1,1442244853377,1442244853966,462,309,0,0,0,1,2,1,12,0001-00-0009-39.png,0002-00-0003-28.png
00000009,625,1,1442244854870,1442244854930,925,436,0,0,0,4,3,1,43,0004-00-0004-37.png,0003-00-0007-50.png
00000009,626,0,1442244855825,1442244855893,941,444,0,0,0,1,2,1,12,0001-00-0009-79.png,0002-00-0007-31.png
00000009,627,1,1442244858897,1442244859482,965,330,0,0,0,5,4,1,54,0005-00-0008-17.png,0004-00-0009-72.png
00000009,628,0,1442244860306,1442244860386,964,436,0,0,0,4,5,1,45,0004-00-0003-54.png,0005-00-0008-92.png
00000009,629,0,1442244863717,1442244864309,988,341,0,0,0,2,3,1,23,0002-00-0008-83.png,0003-00-0003-96.png
00000009,630,0,1442244867472,1442244868026,990,342,0,0,0,3,4,1,34,0003-00-0004-71.png,0004-00-0006-69.png
00000009,631,1,1442244871608,1442244872200,929,425,0,0,0,2,1,1,21,0002-00-0002-20.png,0001-00-0006-91.png
00000009,632,1,1442244873086,1442244873190,1005,410,0,0,0,3,2,1,32,0003-00-0001-32.png,0002-00-0007-24.png
00000009,633,1,1442244874048,1442244875472,1094,330,0,0,0,4,3,1,43,0004-00-0009-38.png,0003-00-0007-98.png
00000009,634,0,1442244876344,1442244876408,958,366,0,0,0,3,4,1,34,0003-00-0008-79.png,0004-00-0003-27.png
00000009,635,0,1442244879934,1442244880476,1118,315,0,0,0,2,3,1,23,0002-00-0003-11.png,0003-00-0003-75.png
00000009,636,1,1442244883683,1442244884282,451,339,0,0,0,1,2,1,12,0001-00-0001-57.png,0002-00-0005-82.png
00000009,637,1,1442244885753,1442244885785,924,365,0,0,0,3,2,1,32,0003-00-0005-12.png,0002-00-0009-56.png
00000009,638,1,1442244888298,1442244888330,892,315,0,0,0,5,4,1,54,0005-00-0003-50.png,0004-00-0004-85.png
00000009,639,0,1442244889347,1442244889423,939,395,0,0,0,4,5,1,45,0004-00-0006-31.png,0005-00-0003-56.png
00000009,640,0,1442244892523,1442244893138,467,289,0,0,0,2,1,1,21,0002-00-0009-78.png,0001-00-0004-93.png
00000009,641,0,1442244896329,1442244897147,921,390,0,0,0,4,5,1,45,0004-00-0003-25.png,0005-00-0005-97.png
00000009,642,0,1442244900365,1442244900401,910,311,0,0,0,1,2,1,12,0001-00-0001-74.png,0002-00-0005-72.png
00000009,643,1,1442244903308,1442244903447,968,522,0,0,0,4,3,1,43,0004-00-0008-01.png,0003-00-0004-75.png
00000009,644,0,1442244905185,1442244905947,939,410,0,0,0,3,4,1,34,0003-00-0009-54.png,0004-00-0003-67.png
00000009,645,1,1442244909020,1442244909737,913,373,0,0,0,2,1,1,21,0002-00-0003-75.png,0001-00-0002-70.png
00000009,646,1,1442244910688,1442244910740,1002,465,0,0,0,5,4,1,54,0005-00-0001-34.png,0004-00-0003-55.png
00000009,647,0,1442244912695,1442244913297,457,274,0,0,0,3,2,1,32,0003-00-0004-39.png,0002-00-0001-37.png
00000009,648,0,1442244916395,1442244916983,962,358,0,0,0,2,3,1,23,0002-00-0000-47.png,0003-00-0007-59.png
00000009,649,1,1442244920252,1442244921137,323,367,0,0,0,3,4,1,34,0003-00-0009-40.png,0004-00-0008-90.png
00000009,650,0,1442244922686,1442244923371,453,289,0,0,0,5,4,1,54,0005-00-0007-80.png,0004-00-0000-44.png
00000009,651,1,1442244926492,1442244927105,1098,331,0,0,0,2,1,1,21,0002-00-0003-34.png,0001-00-0001-72.png
00000009,652,1,1442244928525,1442244929461,939,332,0,0,0,3,2,1,32,0003-00-0008-41.png,0002-00-0006-48.png
00000009,653,0,1442244930305,1442244930381,987,482,0,0,0,2,3,1,23,0002-00-0004-88.png,0003-00-0009-16.png
00000009,654,1,1442244933655,1442244934227,352,367,0,0,0,1,2,1,12,0001-00-0006-17.png,0002-00-0005-38.png
00000009,655,0,1442244935098,1442244935146,1016,369,0,0,0,4,5,1,45,0004-00-0004-92.png,0005-00-0007-71.png
00000009,656,1,1442244938355,1442244938940,1118,332,0,0,0,4,3,1,43,0004-00-0006-34.png,0003-00-0008-82.png
00000009,657,0,1442244939813,1442244940627,490,279,0,0,0,4,3,1,43,0004-00-0004-35.png,0003-00-0009-64.png
00000009,658,1,1442244943547,1442244944347,330,383,0,0,0,4,5,1,45,0004-00-0006-98.png,0005-00-0007-42.png
00000009,659,0,1442244945281,1442244945333,919,421,0,0,0,2,3,1,23,0002-00-0005-24.png,0003-00-0000-77.png
00000009,660,1,1442244948422,1442244949025,358,376,0,0,0,1,2,1,12,0001-00-0008-25.png,0002-00-0003-16.png
00000009,661,1,1442244949882,1442244949942,913,450,0,0,0,3,2,1,32,0003-00-0008-33.png,0002-00-0008-87.png
00000009,662,0,1442244950876,1442244950904,926,456,0,0,0,3,4,1,34,0003-00-0004-11.png,0004-00-0003-00.png
00000009,663,0,1442244953979,1442244954612,478,308,0,0,0,2,1,1,21,0002-00-0006-62.png,0001-00-0006-15.png
00000009,664,1,1442244958795,1442244958867,946,362,0,0,0,5,4,1,54,0005-00-0005-79.png,0004-00-0002-66.png
00000009,665,0,1442244959842,1442244959870,898,384,0,0,0,2,3,1,23,0002-00-0005-12.png,0003-00-0004-91.png
00000009,666,0,1442244963049,1442244963645,495,306,0,0,0,4,3,1,43,0004-00-0000-56.png,0003-00-0008-53.png
00000009,667,1,1442244966708,1442244967228,919,373,0,0,0,2,1,1,21,0002-00-0000-39.png,0001-00-0006-89.png
00000009,668,0,1442244968063,1442244968205,928,437,0,0,0,3,4,1,34,0003-00-0006-50.png,0004-00-0009-46.png
00000009,669,0,1442244971075,1442244971099,513,507,0,0,0,3,2,1,32,0003-00-0002-23.png,0002-00-0007-80.png
00000009,670,1,1442244974300,1442244974848,511,288,0,0,0,1,2,1,12,0001-00-0004-42.png,0002-00-0007-79.png
00000009,671,0,1442244975689,1442244975740,948,395,0,0,0,4,5,1,45,0004-00-0005-83.png,0005-00-0004-05.png
00000009,672,1,1442244978691,1442244979741,1092,279,0,0,0,5,4,1,54,0005-00-0000-98.png,0004-00-0006-12.png
00000009,673,0,1442244980568,1442244980672,938,419,0,0,0,1,2,1,12,0001-00-0003-28.png,0002-00-0006-08.png
00000009,674,1,1442244983741,1442244984300,962,331,0,0,0,3,2,1,32,0003-00-0000-09.png,0002-00-0004-69.png
00000009,675,1,1442244985715,1442244985735,897,357,0,0,0,5,4,1,54,0005-00-0009-70.png,0004-00-0007-56.png
00000009,676,1,1442244987487,1442244987547,915,414,0,0,0,4,3,1,43,0004-00-0005-86.png,0003-00-0006-36.png
00000009,677,0,1442244988560,1442244988588,939,345,0,0,0,3,4,1,34,0003-00-0004-89.png,0004-00-0008-29.png
00000009,678,1,1442244991496,1442244992084,962,409,0,0,0,2,1,1,21,0002-00-0005-18.png,0001-00-0003-97.png
00000009,679,0,1442244993407,1442244993498,919,395,0,0,0,4,5,1,45,0004-00-0002-00.png,0005-00-0008-50.png
00000009,680,0,1442244996618,1442244996650,901,351,0,0,0,2,3,1,23,0002-00-0002-12.png,0003-00-0005-01.png
00000009,681,0,1442244999807,1442245000428,478,279,0,0,0,5,4,1,54,0005-00-0001-99.png,0004-00-0008-10.png
00000009,682,1,1442245004022,1442245004066,888,384,0,0,0,2,1,1,21,0002-00-0004-67.png,0001-00-0009-12.png
00000009,683,0,1442245005038,1442245005070,931,432,0,0,0,1,2,1,12,0001-00-0004-82.png,0002-00-0006-43.png
00000009,684,0,1442245008205,1442245008790,942,332,0,0,0,4,5,1,45,0004-00-0001-45.png,0005-00-0006-53.png
00000009,685,0,1442245011740,1442245012354,936,340,0,0,0,3,4,1,34,0003-00-0001-83.png,0004-00-0006-53.png
00000009,686,0,1442245015332,1442245015919,364,370,0,0,0,4,3,1,43,0004-00-0008-20.png,0003-00-0000-82.png
00000009,687,1,1442245019150,1442245019757,942,439,0,0,0,3,2,1,32,0003-00-0001-40.png,0002-00-0007-00.png
00000009,688,0,1442245020680,1442245020740,930,351,0,0,0,2,3,1,23,0002-00-0008-61.png,0003-00-0006-71.png
00000009,689,0,1442245023771,1442245024478,496,291,0,0,0,3,2,1,32,0003-00-0002-92.png,0002-00-0006-80.png
00000009,690,1,1442245027643,1442245028211,471,293,0,0,0,1,2,1,12,0001-00-0005-12.png,0002-00-0008-69.png
00000009,691,0,1442245029077,1442245029137,917,420,0,0,0,2,3,1,23,0002-00-0004-14.png,0003-00-0004-74.png
00000009,692,1,1442245032337,1442245033139,964,410,0,0,0,2,1,1,21,0002-00-0008-80.png,0001-00-0006-97.png
00000009,693,1,1442245034603,1442245034699,913,396,0,0,0,5,4,1,54,0005-00-0002-82.png,0004-00-0006-70.png
00000009,694,0,1442245035802,1442245035850,924,400,0,0,0,3,4,1,34,0003-00-0007-95.png,0004-00-0007-31.png
00000009,695,1,1442245039074,1442245039730,1115,275,0,0,0,4,3,1,43,0004-00-0003-17.png,0003-00-0003-47.png
00000009,696,0,1442245041182,1442245041254,943,402,0,0,0,4,5,1,45,0004-00-0004-90.png,0005-00-0009-16.png
00000009,697,1,1442245044172,1442245044845,376,351,0,0,0,2,3,1,23,0002-00-0002-78.png,0003-00-0003-92.png
00000009,698,0,1442245045713,1442245045749,922,408,0,0,0,4,5,1,45,0004-00-0005-99.png,0005-00-0006-36.png
00000009,699,0,1442245048912,1442245049736,354,323,0,0,0,5,4,1,54,0005-00-0000-68.png,0004-00-0000-29.png
00000009,700,1,1442245052749,1442245052785,972,422,0,0,0,4,3,1,43,0004-00-0003-92.png,0003-00-0008-44.png
00000009,701,0,1442245054663,1442245055391,482,262,0,0,0,2,1,1,21,0002-00-0007-27.png,0001-00-0006-75.png
00000009,702,0,1442245059029,1442245059659,1092,306,0,0,0,3,4,1,34,0003-00-0009-31.png,0004-00-0003-93.png
00000009,703,1,1442245062792,1442245063401,461,267,0,0,0,1,2,1,12,0001-00-0001-18.png,0002-00-0001-07.png
00000009,704,1,1442245064297,1442245064357,972,401,0,0,0,3,2,1,32,0003-00-0005-72.png,0002-00-0008-67.png
00000009,705,0,1442245065190,1442245065238,917,426,0,0,0,2,3,1,23,0002-00-0007-39.png,0003-00-0000-15.png
00000009,706,0,1442245068321,1442245068895,1096,305,0,0,0,3,4,1,34,0003-00-0007-46.png,0004-00-0008-80.png
00000009,707,1,1442245072097,1442245072777,477,270,0,0,0,1,2,1,12,0001-00-0006-27.png,0002-00-0002-03.png
00000009,708,1,1442245073645,1442245073720,963,380,0,0,0,5,4,1,54,0005-00-0003-24.png,0004-00-0006-96.png
00000009,709,0,1442245074578,1442245074610,889,421,0,0,0,4,5,1,45,0004-00-0000-14.png,0005-00-0000-62.png
00000009,710,1,1442245077751,1442245078345,972,358,0,0,0,3,2,1,32,0003-00-0003-39.png,0002-00-0003-88.png
00000009,711,1,1442245079190,1442245079266,913,384,0,0,0,2,1,1,21,0002-00-0006-52.png,0001-00-0007-37.png
00000009,712,1,1442245080184,1442245080226,904,411,0,0,0,4,3,1,43,0004-00-0001-18.png,0003-00-0001-50.png
00000009,713,0,1442245081463,1442245081523,898,434,0,0,0,1,2,1,12,0001-00-0000-97.png,0002-00-0005-44.png
00000009,714,1,1442245084676,1442245084716,932,352,0,0,0,4,3,1,43,0004-00-0004-42.png,0003-00-0006-59.png
00000009,715,0,1442245086434,1442245087040,1098,276,0,0,0,3,4,1,34,0003-00-0002-54.png,0004-00-0007-61.png
00000009,716,0,1442245089974,1442245090619,373,382,0,0,0,3,2,1,32,0003-00-0000-77.png,0002-00-0007-33.png
00000009,717,0,1442245093498,1442245093542,938,483,0,0,0,4,5,1,45,0004-00-0006-30.png,0005-00-0000-47.png
00000009,718,1,1442245096731,1442245097480,939,394,0,0,0,5,4,1,54,0005-00-0004-05.png,0004-00-0004-55.png
00000009,719,1,1442245098326,1442245098390,949,410,0,0,0,2,1,1,21,0002-00-0006-21.png,0001-00-0000-58.png
00000009,720,0,1442245099869,1442245099933,923,384,0,0,0,2,3,1,23,0002-00-0006-62.png,0003-00-0000-11.png
00000009,721,0,1442245103090,1442245103661,990,423,0,0,0,3,4,1,34,0003-00-0009-32.png,0004-00-0009-12.png
00000009,722,1,1442245106769,1442245107394,964,398,0,0,0,3,2,1,32,0003-00-0009-17.png,0002-00-0002-36.png
00000009,723,1,1442245108328,1442245108368,992,386,0,0,0,2,1,1,21,0002-00-0001-62.png,0001-00-0002-48.png
00000009,724,0,1442245110075,1442245110123,932,422,0,0,0,4,5,1,45,0004-00-0009-85.png,0005-00-0007-24.png
00000009,725,1,1442245113297,1442245113345,940,353,0,0,0,5,4,1,54,0005-00-0003-58.png,0004-00-0004-94.png
00000009,726,1,1442245115083,1442245115790,1092,279,0,0,0,4,3,1,43,0004-00-0002-59.png,0003-00-0004-71.png
00000009,727,0,1442245116631,1442245116722,957,364,0,0,0,1,2,1,12,0001-00-0003-93.png,0002-00-0003-90.png
00000009,728,1,1442245120302,1442245120928,478,291,0,0,0,2,3,1,23,0002-00-0008-07.png,0003-00-0005-84.png
00000009,729,0,1442245121779,1442245121851,954,410,0,0,0,4,5,1,45,0004-00-0001-28.png,0005-00-0000-96.png
00000009,730,1,1442245125405,1442245125979,971,332,0,0,0,4,3,1,43,0004-00-0006-45.png,0003-00-0003-74.png
00000009,731,1,1442245126826,1442245126894,959,415,0,0,0,3,2,1,32,0003-00-0002-88.png,0002-00-0008-42.png
00000009,732,1,1442245127833,1442245127877,911,390,0,0,0,2,1,1,21,0002-00-0000-06.png,0001-00-0009-57.png
00000009,733,0,1442245129088,1442245129136,902,442,0,0,0,3,4,1,34,0003-00-0004-45.png,0004-00-0005-04.png
00000009,734,1,1442245132277,1442245133183,952,410,0,0,0,5,4,1,54,0005-00-0002-50.png,0004-00-0004-58.png
00000009,735,0,1442245134817,1442245134873,936,334,0,0,0,2,3,1,23,0002-00-0000-39.png,0003-00-0007-73.png
00000009,736,1,1442245138021,1442245138595,479,315,0,0,0,1,2,1,12,0001-00-0008-12.png,0002-00-0004-96.png
00000009,737,0,1442245139470,1442245139565,981,440,0,0,0,4,5,1,45,0004-00-0006-70.png,0005-00-0001-90.png
00000009,738,0,1442245142765,1442245143494,993,306,0,0,0,1,2,1,12,0001-00-0004-80.png,0002-00-0009-21.png
00000009,739,0,1442245146635,1442245147311,469,281,0,0,0,2,1,1,21,0002-00-0005-55.png,0001-00-0001-07.png
00000009,740,0,1442245150471,1442245151103,1092,322,0,0,0,3,4,1,34,0003-00-0006-87.png,0004-00-0000-93.png
00000009,741,1,1442245154380,1442245155039,1119,313,0,0,0,5,4,1,54,0005-00-0005-22.png,0004-00-0000-10.png
00000009,742,1,1442245156719,1442245157597,478,241,0,0,0,2,3,1,23,0002-00-0008-17.png,0003-00-0005-61.png
00000009,743,1,1442245158532,1442245158580,888,436,0,0,0,4,3,1,43,0004-00-0002-50.png,0003-00-0000-27.png
00000009,744,1,1442245159592,1442245159652,939,419,0,0,0,3,2,1,32,0003-00-0005-45.png,0002-00-0004-82.png
00000009,745,0,1442245160894,1442245160946,939,374,0,0,0,1,2,1,12,0001-00-0007-41.png,0002-00-0000-06.png
00000009,746,0,1442245164046,1442245164085,919,378,0,0,0,4,5,1,45,0004-00-0007-48.png,0005-00-0007-04.png
00000009,747,1,1442245167288,1442245167950,355,412,0,0,0,2,3,1,23,0002-00-0003-25.png,0003-00-0002-56.png
00000009,748,1,1442245168845,1442245168889,878,401,0,0,0,5,4,1,54,0005-00-0008-28.png,0004-00-0006-24.png
00000009,749,1,1442245169918,1442245169982,939,397,0,0,0,4,3,1,43,0004-00-0009-68.png,0003-00-0002-70.png
00000009,750,1,1442245171089,1442245171129,913,418,0,0,0,3,2,1,32,0003-00-0006-24.png,0002-00-0006-86.png
00000009,751,1,1442245172290,1442245172322,938,422,0,0,0,2,1,1,21,0002-00-0006-81.png,0001-00-0009-88.png
00000009,752,0,1442245173512,1442245173544,943,410,0,0,0,3,4,1,34,0003-00-0008-67.png,0004-00-0005-35.png
00000009,753,1,1442245176694,1442245176722,901,391,0,0,0,2,1,1,21,0002-00-0005-94.png,0001-00-0006-02.png
00000009,754,0,1442245177631,1442245177671,926,439,0,0,0,3,4,1,34,0003-00-0002-39.png,0004-00-0007-32.png
00000009,755,1,1442245180922,1442245181463,1095,302,0,0,0,3,2,1,32,0003-00-0001-48.png,0002-00-0009-46.png
00000009,756,1,1442245182301,1442245182369,964,421,0,0,0,4,3,1,43,0004-00-0000-82.png,0003-00-0006-06.png
00000009,757,0,1442245183415,1442245183490,913,424,0,0,0,2,3,1,23,0002-00-0007-99.png,0003-00-0007-91.png
00000009,758,1,1442245187300,1442245188147,478,268,0,0,0,4,5,1,45,0004-00-0003-29.png,0005-00-0003-95.png
00000009,759,1,1442245189006,1442245189066,932,443,0,0,0,5,4,1,54,0005-00-0000-48.png,0004-00-0005-45.png
00000009,760,0,1442245189909,1442245189981,913,410,0,0,0,1,2,1,12,0001-00-0007-56.png,0002-00-0007-84.png
00000009,761,0,1442245193141,1442245193161,946,386,0,0,0,1,2,1,12,0001-00-0007-05.png,0002-00-0005-33.png
00000009,762,1,1442245196303,1442245196857,504,304,0,0,0,4,5,1,45,0004-00-0000-97.png,0005-00-0005-24.png
00000009,763,0,1442245198489,1442245199112,474,263,0,0,0,2,1,1,21,0002-00-0002-68.png,0001-00-0004-85.png
00000009,764,1,1442245201975,1442245202838,964,316,0,0,0,5,4,1,54,0005-00-0007-18.png,0004-00-0002-90.png
00000009,765,0,1442245203672,1442245203780,987,460,0,0,0,2,3,1,23,0002-00-0004-59.png,0003-00-0001-95.png
00000009,766,1,1442245206787,1442245206815,857,410,0,0,0,4,3,1,43,0004-00-0003-53.png,0003-00-0003-73.png
00000009,767,0,1442245207756,1442245208650,454,279,0,0,0,3,2,1,32,0003-00-0000-09.png,0002-00-0009-42.png
00000009,768,0,1442245212113,1442245212764,1061,305,0,0,0,3,4,1,34,0003-00-0002-84.png,0004-00-0007-00.png
00000009,769,1,1442245215910,1442245216523,957,330,0,0,0,2,1,1,21,0002-00-0000-79.png,0001-00-0002-06.png
00000009,770,1,1442245217357,1442245218191,444,277,0,0,0,2,3,1,23,0002-00-0000-03.png,0003-00-0003-84.png
00000009,771,1,1442245219753,1442245219805,944,376,0,0,0,5,4,1,54,0005-00-0001-89.png,0004-00-0006-74.png
00000009,772,1,1442245220706,1442245220778,962,453,0,0,0,3,2,1,32,0003-00-0006-87.png,0002-00-0001-88.png
00000009,773,0,1442245221651,1442245221711,953,435,0,0,0,3,4,1,34,0003-00-0003-25.png,0004-00-0001-84.png
00000009,774,0,1442245229492,1442245229504,942,336,0,0,0,1,2,1,12,0001-00-0002-54.png,0002-00-0007-37.png
00000009,775,1,1442245232683,1442245233302,1121,305,0,0,0,4,3,1,43,0004-00-0004-27.png,0003-00-0002-97.png
00000009,776,0,1442245234177,1442245234257,964,419,0,0,0,4,5,1,45,0004-00-0005-48.png,0005-00-0001-36.png
00000009,777,0,1442245237784,1442245238465,959,332,0,0,0,1,2,1,12,0001-00-0003-18.png,0002-00-0008-05.png
00000009,778,1,1442245241401,1442245242219,1139,312,0,0,0,3,2,1,32,0003-00-0004-15.png,0002-00-0002-58.png
00000009,779,0,1442245243706,1442245243805,912,383,0,0,0,2,3,1,23,0002-00-0008-12.png,0003-00-0004-90.png
00000009,780,1,1442245246967,1442245247698,451,280,0,0,0,4,5,1,45,0004-00-0000-13.png,0005-00-0006-32.png
00000009,781,1,1442245249205,1442245249281,940,362,0,0,0,2,1,1,21,0002-00-0007-85.png,0001-00-0002-00.png
00000009,782,0,1442245251459,1442245252137,479,261,0,0,0,5,4,1,54,0005-00-0009-71.png,0004-00-0001-15.png
00000009,783,1,1442245255146,1442245255802,456,279,0,0,0,3,4,1,34,0003-00-0006-22.png,0004-00-0009-57.png
00000009,784,1,1442245256675,1442245256731,942,445,0,0,0,4,3,1,43,0004-00-0001-68.png,0003-00-0002-00.png
00000009,785,1,1442245257640,1442245257677,913,410,0,0,0,4,3,1,43,0004-00-0000-27.png,0003-00-0002-33.png
00000009,786,1,1442245258831,1442245258911,900,436,0,0,0,2,1,1,21,0002-00-0001-16.png,0001-00-0004-65.png
00000009,787,1,1442245260072,1442245260116,933,444,0,0,0,3,2,1,32,0003-00-0008-45.png,0002-00-0003-65.png
00000009,788,0,1442245261254,1442245261322,952,426,0,0,0,1,2,1,12,0001-00-0008-19.png,0002-00-0005-80.png
00000009,789,0,1442245264716,1442245265424,1110,319,0,0,0,3,4,1,34,0003-00-0001-78.png,0004-00-0008-17.png
00000009,790,0,1442245268281,1442245268838,392,398,0,0,0,5,4,1,54,0005-00-0005-37.png,0004-00-0006-90.png
00000009,791,1,1442245272061,1442245272653,473,296,0,0,0,4,5,1,45,0004-00-0008-05.png,0005-00-0001-49.png
00000009,792,0,1442245273519,1442245273630,1012,440,0,0,0,2,3,1,23,0002-00-0005-46.png,0003-00-0008-90.png
00000009,793,0,1442245277266,1442245277872,969,437,0,0,0,2,3,1,23,0002-00-0002-62.png,0003-00-0003-25.png
00000009,794,1,1442245280982,1442245281561,486,261,0,0,0,4,5,1,45,0004-00-0001-61.png,0005-00-0008-87.png
00000009,795,1,1442245282404,1442245282500,929,436,0,0,0,2,1,1,21,0002-00-0006-10.png,0001-00-0002-21.png
00000009,796,1,1442245284052,1442245284116,938,359,0,0,0,5,4,1,54,0005-00-0003-38.png,0004-00-0004-13.png
00000009,797,1,1442245285096,1442245285130,930,418,0,0,0,4,3,1,43,0004-00-0000-47.png,0003-00-0009-27.png
00000009,798,0,1442245286337,1442245286373,913,410,0,0,0,3,4,1,34,0003-00-0007-22.png,0004-00-0002-17.png
00000009,799,1,1442245289431,1442245289992,456,251,0,0,0,1,2,1,12,0001-00-0003-87.png,0002-00-0003-50.png
00000009,800,1,1442245290828,1442245290916,888,427,0,0,0,3,2,1,32,0003-00-0001-52.png,0002-00-0002-87.png
00000009,801,1,1442245291866,1442245291906,885,447,0,0,0,5,4,1,54,0005-00-0008-84.png,0004-00-0008-16.png
00000009,802,1,1442245293056,1442245293100,870,377,0,0,0,3,2,1,32,0003-00-0003-76.png,0002-00-0002-94.png
00000009,803,0,1442245294350,1442245294410,945,453,0,0,0,1,2,1,12,0001-00-0009-71.png,0002-00-0004-63.png
00000009,804,0,1442245297620,1442245297656,958,334,0,0,0,4,5,1,45,0004-00-0003-01.png,0005-00-0006-81.png
00000009,805,1,1442245300820,1442245301421,467,292,0,0,0,2,3,1,23,0002-00-0004-22.png,0003-00-0008-07.png
00000009,806,0,1442245302767,1442245302887,913,384,0,0,0,3,4,1,34,0003-00-0006-41.png,0004-00-0001-17.png
00000009,807,1,1442245305757,1442245306493,936,330,0,0,0,2,1,1,21,0002-00-0006-40.png,0001-00-0009-04.png
00000009,808,1,1442245307826,1442245307903,948,385,0,0,0,4,3,1,43,0004-00-0005-26.png,0003-00-0004-03.png
00000009,809,0,1442245308830,1442245308906,939,445,0,0,0,2,3,1,23,0002-00-0007-08.png,0003-00-0001-55.png
00000009,810,1,1442245312309,1442245312941,478,253,0,0,0,1,2,1,12,0001-00-0004-53.png,0002-00-0001-74.png
00000009,811,0,1442245314282,1442245314370,920,398,0,0,0,4,5,1,45,0004-00-0001-95.png,0005-00-0004-86.png
00000009,812,0,1442245317636,1442245317646,907,331,0,0,0,3,4,1,34,0003-00-0005-79.png,0004-00-0005-57.png
00000009,813,1,1442245320688,1442245321489,931,336,0,0,0,5,4,1,54,0005-00-0004-38.png,0004-00-0004-76.png
00000009,814,1,1442245322330,1442245322417,913,410,0,0,0,2,1,1,21,0002-00-0008-94.png,0001-00-0008-77.png
00000009,815,1,1442245323349,1442245323397,913,392,0,0,0,4,3,1,43,0004-00-0006-87.png,0003-00-0004-30.png
00000009,816,1,1442245324390,1442245324446,930,458,0,0,0,3,2,1,32,0003-00-0001-98.png,0002-00-0005-99.png
00000009,817,0,1442245325403,1442245325456,919,424,0,0,0,1,2,1,12,0001-00-0005-77.png,0002-00-0003-44.png
00000009,818,1,1442245328654,1442245329258,962,326,0,0,0,4,3,1,43,0004-00-0003-63.png,0003-00-0001-28.png
00000009,819,0,1442245330521,1442245330613,913,371,0,0,0,3,4,1,34,0003-00-0008-15.png,0004-00-0002-07.png
00000009,820,1,1442245333764,1442245334368,453,288,0,0,0,4,5,1,45,0004-00-0009-80.png,0005-00-0007-21.png
00000009,821,0,1442245335811,1442245335859,913,393,0,0,0,2,3,1,23,0002-00-0003-50.png,0003-00-0001-01.png
00000009,822,1,1442245339040,1442245339072,899,332,0,0,0,5,4,1,54,0005-00-0005-54.png,0004-00-0000-92.png
00000009,823,1,1442245340026,1442245340062,899,426,0,0,0,2,1,1,21,0002-00-0005-60.png,0001-00-0003-13.png
00000009,824,1,1442245341007,1442245341047,903,410,0,0,0,3,2,1,32,0003-00-0002-54.png,0002-00-0008-06.png
00000009,825,0,1442245342157,1442245342234,952,481,0,0,0,4,5,1,45,0004-00-0008-75.png,0005-00-0002-89.png
00000009,826,1,1442245345401,1442245345445,923,358,0,0,0,5,4,1,54,0005-00-0003-93.png,0004-00-0007-15.png
00000009,827,0,1442245346392,1442245347285,382,372,0,0,0,4,3,1,43,0004-00-0000-33.png,0003-00-0008-60.png
00000009,828,0,1442245350450,1442245350478,958,330,0,0,0,2,3,1,23,0002-00-0007-89.png,0003-00-0006-30.png
00000009,829,0,1442245353318,1442245353390,964,462,0,0,0,3,4,1,34,0003-00-0001-32.png,0004-00-0004-83.png
00000009,830,0,1442245356220,1442245357019,1092,315,0,0,0,1,2,1,12,0001-00-0007-38.png,0002-00-0004-07.png
00000009,831,1,1442245360118,1442245360170,877,358,0,0,0,2,1,1,21,0002-00-0004-76.png,0001-00-0009-68.png
00000009,832,1,1442245361845,1442245362450,1088,305,0,0,0,3,2,1,32,0003-00-0003-44.png,0002-00-0003-98.png
00000009,833,1,1442245363325,1442245363405,982,330,0,0,0,2,1,1,21,0002-00-0007-54.png,0001-00-0009-06.png
00000009,834,0,1442245364387,1442245365359,504,261,0,0,0,5,4,1,54,0005-00-0000-63.png,0004-00-0000-02.png
00000009,835,0,1442245368506,1442245368534,906,383,0,0,0,2,3,1,23,0002-00-0001-69.png,0003-00-0001-46.png
00000009,836,0,1442245372170,1442245372753,476,288,0,0,0,3,2,1,32,0003-00-0006-11.png,0002-00-0009-38.png
00000009,837,0,1442245375866,1442245376398,938,352,0,0,0,3,4,1,34,0003-00-0000-48.png,0004-00-0000-34.png
00000009,838,1,1442245379417,1442245380013,473,276,0,0,0,1,2,1,12,0001-00-0009-17.png,0002-00-0008-71.png
00000009,839,1,1442245380876,1442245380936,930,418,0,0,0,4,3,1,43,0004-00-0000-37.png,0003-00-0004-87.png
00000009,840,0,1442245381757,1442245382528,973,531,0,0,0,4,5,1,45,0004-00-0003-31.png,0005-00-0003-49.png
00000009,841,0,1442245385409,1442245386166,939,411,0,0,0,3,4,1,34,0003-00-0009-99.png,0004-00-0004-83.png
00000009,842,0,1442245389376,1442245389448,924,357,0,0,0,2,3,1,23,0002-00-0002-13.png,0003-00-0009-25.png
00000009,843,0,1442245392626,1442245392819,877,433,0,0,0,4,5,1,45,0004-00-0009-90.png,0005-00-0000-27.png
00000009,844,0,1442245396021,1442245396685,987,354,0,0,0,1,2,1,12,0001-00-0003-84.png,0002-00-0003-55.png
00000009,845,0,1442245399577,1442245400314,416,410,0,0,0,3,2,1,32,0003-00-0008-42.png,0002-00-0006-56.png
00000009,846,1,1442245403327,1442245403371,909,403,0,0,0,4,3,1,43,0004-00-0000-98.png,0003-00-0005-02.png
00000009,847,0,1442245405083,1442245406166,503,278,0,0,0,5,4,1,54,0005-00-0007-64.png,0004-00-0006-52.png
00000009,848,1,1442245409340,1442245409368,900,358,0,0,0,2,1,1,21,0002-00-0009-63.png,0001-00-0005-32.png
00000009,849,0,1442245410305,1442245410357,906,404,0,0,0,1,2,1,12,0001-00-0009-22.png,0002-00-0009-61.png
00000009,850,0,1442245413661,1442245414307,1092,307,0,0,0,3,4,1,34,0003-00-0004-60.png,0004-00-0002-78.png
00000009,851,1,1442245417441,1442245418297,939,422,0,0,0,4,3,1,43,0004-00-0004-62.png,0003-00-0004-87.png
00000009,852,1,1442245419166,1442245419226,947,358,0,0,0,2,1,1,21,0002-00-0005-99.png,0001-00-0001-62.png
00000009,853,0,1442245420070,1442245420118,929,434,0,0,0,2,3,1,23,0002-00-0003-89.png,0003-00-0000-83.png
00000009,854,1,1442245423171,1442245423804,1088,275,0,0,0,5,4,1,54,0005-00-0004-11.png,0004-00-0007-88.png
00000009,855,0,1442245425111,1442245425131,888,368,0,0,0,4,5,1,45,0004-00-0004-70.png,0005-00-0007-54.png
00000009,856,1,1442245428251,1442245428369,939,296,0,0,0,3,2,1,32,0003-00-0005-46.png,0002-00-0003-83.png
00000009,857,1,1442245429970,1442245430109,967,361,0,0,0,2,1,1,21,0002-00-0002-79.png,0001-00-0003-44.png
00000009,858,1,1442245431012,1442245431056,875,436,0,0,0,4,3,1,43,0004-00-0003-51.png,0003-00-0005-82.png
00000009,859,0,1442245431978,1442245432006,918,395,0,0,0,4,5,1,45,0004-00-0002-37.png,0005-00-0002-41.png
00000009,860,0,1442245434949,1442245434983,861,370,0,0,0,2,3,1,23,0002-00-0001-85.png,0003-00-0001-60.png
00000009,861,1,1442245438040,1442245438637,392,356,0,0,0,3,4,1,34,0003-00-0009-81.png,0004-00-0000-79.png
00000009,862,1,1442245440043,1442245440174,942,390,0,0,0,5,4,1,54,0005-00-0002-17.png,0004-00-0009-56.png
00000009,863,1,1442245441120,1442245441180,930,432,0,0,0,3,2,1,32,0003-00-0006-73.png,0002-00-0004-74.png
00000009,864,0,1442245442251,1442245442295,897,414,0,0,0,1,2,1,12,0001-00-0000-67.png,0002-00-0007-67.png
00000009,865,1,1442245445447,1442245446136,964,344,0,0,0,5,4,1,54,0005-00-0004-43.png,0004-00-0001-83.png
00000009,866,0,1442245447431,1442245447507,913,410,0,0,0,1,2,1,12,0001-00-0000-47.png,0002-00-0005-94.png
00000009,867,1,1442245450501,1442245450521,516,409,0,0,0,4,5,1,45,0004-00-0005-96.png,0005-00-0007-53.png
00000009,868,1,1442245451496,1442245451556,913,424,0,0,0,3,2,1,32,0003-00-0000-40.png,0002-00-0006-96.png
00000009,869,1,1442245452528,1442245452587,913,435,0,0,0,4,3,1,43,0004-00-0004-71.png,0003-00-0001-36.png
00000009,870,1,1442245453759,1442245453850,931,480,0,0,0,2,1,1,21,0002-00-0004-59.png,0001-00-0009-45.png
00000009,871,0,1442245455040,1442245455072,913,418,0,0,0,3,4,1,34,0003-00-0008-24.png,0004-00-0001-28.png
00000009,872,1,1442245458281,1442245458926,490,276,0,0,0,2,3,1,23,0002-00-0003-74.png,0003-00-0009-05.png
00000009,873,0,1442245460420,1442245460468,921,375,0,0,0,3,4,1,34,0003-00-0009-03.png,0004-00-0005-41.png
00000009,874,1,1442245463995,1442245464529,459,328,0,0,0,4,5,1,45,0004-00-0001-54.png,0005-00-0006-32.png
00000009,875,1,1442245465406,1442245465784,999,483,0,0,0,3,2,1,32,0003-00-0002-68.png,0002-00-0006-73.png
00000009,876,1,1442245467801,1442245467833,923,387,0,0,0,5,4,1,54,0005-00-0003-09.png,0004-00-0000-49.png
00000009,877,1,1442245469730,1442245469778,945,398,0,0,0,2,1,1,21,0002-00-0009-89.png,0001-00-0004-19.png
00000009,878,0,1442245471655,1442245471691,938,371,0,0,0,1,2,1,12,0001-00-0007-85.png,0002-00-0000-05.png
00000009,879,0,1442245474719,1442245475314,943,334,0,0,0,2,3,1,23,0002-00-0008-35.png,0003-00-0009-16.png
00000009,880,1,1442245478493,1442245478553,942,381,0,0,0,4,3,1,43,0004-00-0000-50.png,0003-00-0008-67.png
00000009,881,1,1442245479498,1442245479530,924,408,0,0,0,5,4,1,54,0005-00-0008-46.png,0004-00-0000-14.png
00000009,882,1,1442245480502,1442245480542,920,454,0,0,0,3,2,1,32,0003-00-0007-21.png,0002-00-0002-74.png
00000009,883,1,1442245481483,1442245481527,907,450,0,0,0,2,1,1,21,0002-00-0008-47.png,0001-00-0003-60.png
00000009,884,1,1442245482745,1442245482785,932,443,0,0,0,4,3,1,43,0004-00-0001-47.png,0003-00-0009-00.png
00000009,885,0,1442245483937,1442245483993,913,374,0,0,0,3,4,1,34,0003-00-0006-43.png,0004-00-0008-12.png
00000009,886,1,1442245487259,1442245487879,478,296,0,0,0,2,3,1,23,0002-00-0006-28.png,0003-00-0006-46.png
00000009,887,1,1442245488708,1442245489622,476,283,0,0,0,4,5,1,45,0004-00-0009-30.png,0005-00-0002-66.png
00000009,888,0,1442245490508,1442245490540,913,447,0,0,0,1,2,1,12,0001-00-0001-21.png,0002-00-0004-29.png
00000009,889,0,1442245493639,1442245494224,485,282,0,0,0,4,3,1,43,0004-00-0008-17.png,0003-00-0007-77.png
00000009,890,1,1442245497095,1442245497705,1118,319,0,0,0,3,2,1,32,0003-00-0008-01.png,0002-00-0005-19.png
00000009,891,0,1442245499075,1442245499147,939,410,0,0,0,1,2,1,12,0001-00-0007-57.png,0002-00-0009-52.png
00000009,892,1,1442245502015,1442245502607,942,328,0,0,0,5,4,1,54,0005-00-0001-28.png,0004-00-0002-51.png
00000009,893,1,1442245504026,1442245504054,881,393,0,0,0,2,1,1,21,0002-00-0004-69.png,0001-00-0000-02.png
00000009,894,0,1442245505136,1442245505228,920,454,0,0,0,2,3,1,23,0002-00-0001-47.png,0003-00-0006-11.png
00000009,895,0,1442245508183,1442245508881,964,322,0,0,0,4,5,1,45,0004-00-0004-04.png,0005-00-0003-10.png
00000009,896,0,1442245511825,1442245512457,939,399,0,0,0,3,4,1,34,0003-00-0001-08.png,0004-00-0007-79.png
00000009,897,1,1442245515371,1442245515981,481,296,0,0,0,4,5,1,45,0004-00-0005-81.png,0005-00-0005-58.png
00000009,898,1,1442245516863,1442245516935,990,436,0,0,0,2,1,1,21,0002-00-0002-36.png,0001-00-0006-22.png
00000009,899,1,1442245518433,1442245518493,910,399,0,0,0,4,3,1,43,0004-00-0009-48.png,0003-00-0009-43.png
00000009,900,0,1442245520567,1442245520587,863,329,0,0,0,1,2,1,12,0001-00-0008-43.png,0002-00-0005-66.png
00000009,901,1,1442245523789,1442245524402,485,295,0,0,0,2,3,1,23,0002-00-0001-96.png,0003-00-0004-63.png
00000009,902,1,1442245525237,1442245525321,948,462,0,0,0,3,2,1,32,0003-00-0006-76.png,0002-00-0001-56.png
00000009,903,1,1442245526354,1442245526402,929,419,0,0,0,5,4,1,54,0005-00-0000-29.png,0004-00-0002-47.png
00000009,904,0,1442245527555,1442245527635,933,471,0,0,0,3,4,1,34,0003-00-0006-65.png,0004-00-0000-45.png
00000009,905,0,1442245530776,1442245530816,888,366,0,0,0,3,4,1,34,0003-00-0001-24.png,0004-00-0000-75.png
00000009,906,1,1442245533828,1442245534360,478,294,0,0,0,2,3,1,23,0002-00-0008-84.png,0003-00-0004-64.png
00000009,907,0,1442245535225,1442245535285,939,384,0,0,0,1,2,1,12,0001-00-0009-11.png,0002-00-0008-58.png
00000009,908,1,1442245538380,1442245538982,481,317,0,0,0,4,5,1,45,0004-00-0007-21.png,0005-00-0001-39.png
00000009,909,1,1442245539816,1442245539868,913,396,0,0,0,4,3,1,43,0004-00-0007-37.png,0003-00-0003-57.png
00000009,910,1,1442245540895,1442245540963,896,439,0,0,0,2,1,1,21,0002-00-0001-54.png,0001-00-0008-36.png
00000009,911,1,1442245542887,1442245543555,964,346,0,0,0,3,2,1,32,0003-00-0005-70.png,0002-00-0000-20.png
00000009,912,0,1442245545135,1442245545981,453,244,0,0,0,5,4,1,54,0005-00-0009-45.png,0004-00-0007-17.png
00000009,913,1,1442245549138,1442245549835,469,297,0,0,0,3,4,1,34,0003-00-0008-88.png,0004-00-0008-49.png
00000009,914,1,1442245550727,1442245550796,997,397,0,0,0,4,3,1,43,0004-00-0005-78.png,0003-00-0001-53.png
00000009,915,1,1442245551733,1442245551805,931,487,0,0,0,5,4,1,54,0005-00-0007-00.png,0004-00-0009-23.png
00000009,916,0,1442245552884,1442245552920,910,427,0,0,0,2,3,1,23,0002-00-0007-97.png,0003-00-0006-72.png
00000009,917,1,1442245555987,1442245556681,1098,308,0,0,0,3,2,1,32,0003-00-0007-83.png,0002-00-0008-46.png
00000009,918,0,1442245557547,1442245557599,946,417,0,0,0,1,2,1,12,0001-00-0000-14.png,0002-00-0008-30.png
00000009,919,1,1442245560464,1442245561061,1098,309,0,0,0,2,1,1,21,0002-00-0009-35.png,0001-00-0006-62.png
00000009,920,0,1442245562530,1442245562586,896,385,0,0,0,4,5,1,45,0004-00-0004-86.png,0005-00-0005-45.png
00000009,921,1,1442245565794,1442245565834,939,384,0,0,0,3,2,1,32,0003-00-0005-86.png,0002-00-0006-40.png
00000009,922,1,1442245567651,1442245567695,939,329,0,0,0,4,3,1,43,0004-00-0008-27.png,0003-00-0006-43.png
00000009,923,0,1442245568776,1442245568856,931,446,0,0,0,2,3,1,23,0002-00-0005-77.png,0003-00-0007-57.png
00000009,924,1,1442245571760,1442245572355,481,288,0,0,0,4,5,1,45,0004-00-0001-56.png,0005-00-0003-97.png
00000009,925,1,1442245573771,1442245573795,892,387,0,0,0,2,1,1,21,0002-00-0009-18.png,0001-00-0008-01.png
00000009,926,0,1442245574825,1442245574885,933,436,0,0,0,1,2,1,12,0001-00-0000-93.png,0002-00-0003-09.png
00000009,927,0,1442245578049,1442245578609,962,333,0,0,0,3,4,1,34,0003-00-0005-70.png,0004-00-0008-08.png
00000009,928,0,1442245581802,1442245582394,427,424,0,0,0,5,4,1,54,0005-00-0008-50.png,0004-00-0002-99.png
00000009,929,1,1442245585512,1442245586212,963,333,0,0,0,5,4,1,54,0005-00-0004-85.png,0004-00-0003-44.png
00000009,930,1,1442245587806,1442245587870,922,393,0,0,0,2,1,1,21,0002-00-0003-93.png,0001-00-0005-84.png
00000009,931,0,1442245588951,1442245588971,914,391,0,0,0,3,4,1,34,0003-00-0008-89.png,0004-00-0005-86.png
00000009,932,0,1442245592140,1442245592168,946,334,0,0,0,2,3,1,23,0002-00-0005-65.png,0003-00-0004-42.png
00000009,933,1,1442245595295,1442245595959,977,327,0,0,0,3,2,1,32,0003-00-0002-64.png,0002-00-0008-27.png
00000009,934,1,1442245597496,1442245597512,920,329,0,0,0,4,3,1,43,0004-00-0009-80.png,0003-00-0005-30.png
00000009,935,0,1442245598605,1442245598629,898,361,0,0,0,4,5,1,45,0004-00-0002-67.png,0005-00-0006-65.png
00000009,936,1,1442245601679,1442245602233,485,271,0,0,0,1,2,1,12,0001-00-0003-60.png,0002-00-0009-79.png
00000009,937,1,1442245604033,1442245604065,913,313,0,0,0,5,4,1,54,0005-00-0009-01.png,0004-00-0007-02.png
00000009,938,1,1442245605024,1442245606159,1098,246,0,0,0,3,2,1,32,0003-00-0008-32.png,0002-00-0000-90.png
00000009,939,0,1442245607083,1442245607123,913,415,0,0,0,2,3,1,23,0002-00-0000-83.png,0003-00-0001-15.png
00000009,940,1,1442245610352,1442245610910,506,293,0,0,0,4,5,1,45,0004-00-0003-71.png,0005-00-0006-92.png
00000009,941,1,1442245612418,1442245612503,938,368,0,0,0,4,3,1,43,0004-00-0001-01.png,0003-00-0002-81.png
