subject_id,trial,correct_response,stim_time,response_time,x_coord,y_coord,trial_timeout,timeout_time,interTrial_timeout,left_rank,right_rank,distance,joint_rank,left_image,right_image
00000014,1,0,1440083710449,1440083711297,389,482,0,0,0,5,4,1,54,0005-00-0002-77.png,0004-00-0008-34.png
00000014,2,1,1440083714321,1440083714809,376,396,0,0,0,4,5,1,45,0004-00-0008-02.png,0005-00-0009-27.png
00000014,3,0,1440083716001,1440083716519,901,450,0,0,0,2,3,1,23,0002-00-0003-80.png,0003-00-0003-27.png
00000014,4,0,1440083719603,1440083720067,389,501,0,0,0,2,1,1,21,0002-00-0008-41.png,0001-00-0001-66.png
00000014,5,0,1440083723012,1440083723418,352,386,0,0,0,4,3,1,43,0004-00-0006-87.png,0003-00-0001-11.png
00000014,6,1,1440083726863,1440083727343,358,375,0,0,0,3,4,1,34,0003-00-0007-74.png,0004-00-0009-32.png
00000014,7,1,1440083728627,1440083729083,347,383,0,0,0,1,2,1,12,0001-00-0001-93.png,0002-00-0000-47.png
00000014,8,0,1440083730824,1440083731261,360,382,0,0,0,3,2,1,32,0003-00-0009-15.png,0002-00-0007-93.png
00000014,9,1,1440083736839,1440083737293,323,395,0,0,0,3,4,1,34,0003-00-0001-67.png,0004-00-0005-65.png
00000014,10,0,1440083738517,1440083738975,354,405,0,0,0,3,2,1,32,0003-00-0006-59.png,0002-00-0009-12.png
00000014,11,0,1440083742024,1440083742455,363,368,0,0,0,4,3,1,43,0004-00-0006-31.png,0003-00-0003-23.png
00000014,12,0,1440083745332,1440083745758,390,449,0,0,0,2,1,1,21,0002-00-0006-29.png,0001-00-0007-27.png
00000014,13,1,1440083748841,1440083749573,356,348,0,0,0,4,5,1,45,0004-00-0001-33.png,0005-00-0002-31.png
00000014,14,1,1440083751482,1440083752000,912,476,0,0,0,5,4,1,54,0005-00-0004-12.png,0004-00-0001-65.png
00000014,15,1,1440083753216,1440083753697,325,350,0,0,0,1,2,1,12,0001-00-0005-30.png,0002-00-0002-40.png
00000014,16,0,1440083754754,1440083755349,935,472,0,0,0,2,3,1,23,0002-00-0008-24.png,0003-00-0007-72.png
00000014,17,0,1440083758485,1440083758920,388,441,0,0,0,2,1,1,21,0002-00-0006-84.png,0001-00-0006-23.png
00000014,18,1,1440083761873,1440083761889,520,488,0,0,0,2,3,1,23,0002-00-0000-50.png,0003-00-0008-55.png
00000014,19,1,1440083762917,1440083763410,322,366,0,0,0,4,5,1,45,0004-00-0005-82.png,0005-00-0009-14.png
00000014,20,0,1440083764376,1440083764957,922,367,0,0,0,3,4,1,34,0003-00-0008-77.png,0004-00-0001-27.png
00000014,21,1,1440083767896,1440083768342,348,356,0,0,0,1,2,1,12,0001-00-0000-89.png,0002-00-0005-30.png
00000014,22,1,1440083769247,1440083769818,909,495,0,0,0,5,4,1,54,0005-00-0005-23.png,0004-00-0001-73.png
00000014,23,1,1440083770926,1440083771456,931,386,0,0,0,4,3,1,43,0004-00-0000-86.png,0003-00-0002-93.png
00000014,24,1,1440083772445,1440083772970,938,372,0,0,0,3,2,1,32,0003-00-0001-04.png,0002-00-0004-04.png
00000014,25,1,1440083774493,1440083775341,372,362,0,0,0,4,5,1,45,0004-00-0008-81.png,0005-00-0001-90.png
00000014,26,1,1440083776322,1440083776834,925,384,0,0,0,5,4,1,54,0005-00-0004-70.png,0004-00-0002-86.png
00000014,27,0,1440083777891,1440083778422,862,344,0,0,0,3,4,1,34,0003-00-0005-33.png,0004-00-0006-22.png
00000014,28,0,1440083781478,1440083782079,921,316,0,0,0,2,3,1,23,0002-00-0007-87.png,0003-00-0004-06.png
00000014,29,1,1440083784963,1440083785031,491,462,0,0,0,1,2,1,12,0001-00-0008-12.png,0002-00-0004-84.png
00000014,30,1,1440083786011,1440083786576,926,371,0,0,0,4,3,1,43,0004-00-0009-79.png,0003-00-0007-47.png
00000014,31,1,1440083787722,1440083788264,898,470,0,0,0,3,2,1,32,0003-00-0006-00.png,0002-00-0007-82.png
00000014,32,0,1440083789331,1440083789825,332,379,0,0,0,2,1,1,21,0002-00-0001-71.png,0001-00-0002-79.png
00000014,33,0,1440083792910,1440083793388,900,462,0,0,0,2,3,1,23,0002-00-0005-30.png,0003-00-0000-16.png
00000014,34,0,1440083796497,1440083796549,507,515,0,0,0,4,3,1,43,0004-00-0001-41.png,0003-00-0006-54.png
00000014,35,0,1440083799546,1440083800004,348,376,0,0,0,3,2,1,32,0003-00-0006-96.png,0002-00-0000-69.png
00000014,36,1,1440083803195,1440083803753,946,388,0,0,0,5,4,1,54,0005-00-0000-29.png,0004-00-0003-72.png
00000014,37,0,1440083804806,1440083805324,924,388,0,0,0,3,4,1,34,0003-00-0007-35.png,0004-00-0001-58.png
00000014,38,1,1440083808284,1440083808808,948,367,0,0,0,2,1,1,21,0002-00-0000-70.png,0001-00-0004-27.png
00000014,39,0,1440083809815,1440083810325,931,400,0,0,0,4,5,1,45,0004-00-0003-52.png,0005-00-0009-37.png
00000014,40,1,1440083813342,1440083813822,363,476,0,0,0,1,2,1,12,0001-00-0005-86.png,0002-00-0007-08.png
00000014,41,1,1440083815260,1440083815828,325,371,0,0,0,1,2,1,12,0001-00-0001-01.png,0002-00-0000-82.png
00000014,42,1,1440083816860,1440083817390,900,449,0,0,0,3,2,1,32,0003-00-0000-57.png,0002-00-0001-61.png
00000014,43,0,1440083818479,1440083819003,896,394,0,0,0,3,4,1,34,0003-00-0008-37.png,0004-00-0004-91.png
00000014,44,0,1440083822176,1440083822710,978,384,0,0,0,2,3,1,23,0002-00-0005-42.png,0003-00-0006-63.png
00000014,45,1,1440083825587,1440083826083,299,358,0,0,0,4,5,1,45,0004-00-0003-96.png,0005-00-0006-73.png
00000014,46,1,1440083827137,1440083827692,926,371,0,0,0,4,3,1,43,0004-00-0002-33.png,0003-00-0000-28.png
00000014,47,0,1440083828874,1440083829449,374,389,0,0,0,5,4,1,54,0005-00-0002-71.png,0004-00-0005-51.png
00000014,48,1,1440083832562,1440083833080,929,390,0,0,0,2,1,1,21,0002-00-0003-97.png,0001-00-0007-10.png
00000014,49,0,1440083834052,1440083834532,381,381,0,0,0,2,1,1,21,0002-00-0002-84.png,0001-00-0008-87.png
00000014,50,0,1440083837501,1440083838205,950,384,0,0,0,4,5,1,45,0004-00-0001-16.png,0005-00-0008-27.png
00000014,51,1,1440083841167,1440083841830,273,384,0,0,0,3,4,1,34,0003-00-0002-24.png,0004-00-0000-75.png
00000014,52,0,1440083842877,1440083843731,903,418,0,0,0,1,2,1,12,0001-00-0000-88.png,0002-00-0007-41.png
00000014,53,0,1440083846812,1440083847278,355,364,0,0,0,3,2,1,32,0003-00-0009-70.png,0002-00-0008-31.png
00000014,54,0,1440083850442,1440083850921,352,401,0,0,0,4,3,1,43,0004-00-0005-55.png,0003-00-0006-00.png
00000014,55,1,1440083853849,1440083854371,905,350,0,0,0,5,4,1,54,0005-00-0003-41.png,0004-00-0001-18.png
00000014,56,0,1440083855378,1440083855950,906,375,0,0,0,2,3,1,23,0002-00-0008-68.png,0003-00-0000-83.png
00000014,57,1,1440083858928,1440083859489,890,433,0,0,0,3,2,1,32,0003-00-0007-86.png,0002-00-0003-31.png
00000014,58,1,1440083860516,1440083861062,925,482,0,0,0,2,1,1,21,0002-00-0004-87.png,0001-00-0006-52.png
00000014,59,1,1440083862246,1440083862793,356,406,0,0,0,3,4,1,34,0003-00-0009-80.png,0004-00-0002-46.png
00000014,60,1,1440083863837,1440083864570,338,359,0,0,0,4,5,1,45,0004-00-0006-78.png,0005-00-0002-16.png
00000014,61,1,1440083865635,1440083866119,319,404,0,0,0,2,3,1,23,0002-00-0001-62.png,0003-00-0008-06.png
00000014,62,1,1440083867222,1440083867778,895,394,0,0,0,5,4,1,54,0005-00-0005-71.png,0004-00-0005-45.png
00000014,63,0,1440083868985,1440083869518,901,408,0,0,0,1,2,1,12,0001-00-0008-62.png,0002-00-0004-72.png
00000014,64,1,1440083872632,1440083873157,950,386,0,0,0,4,3,1,43,0004-00-0001-21.png,0003-00-0005-71.png
00000014,65,0,1440083874152,1440083874707,924,386,0,0,0,2,3,1,23,0002-00-0006-41.png,0003-00-0003-50.png
00000014,66,0,1440083877765,1440083878242,295,380,0,0,0,4,3,1,43,0004-00-0001-58.png,0003-00-0002-10.png
00000014,67,1,1440083881086,1440083881632,376,410,0,0,0,3,4,1,34,0003-00-0004-72.png,0004-00-0009-35.png
00000014,68,1,1440083882696,1440083883182,924,411,0,0,0,2,1,1,21,0002-00-0002-68.png,0001-00-0000-88.png
00000014,69,1,1440083884249,1440083884775,927,407,0,0,0,3,2,1,32,0003-00-0003-05.png,0002-00-0008-10.png
00000014,70,1,1440083885939,1440083886480,926,371,0,0,0,5,4,1,54,0005-00-0006-95.png,0004-00-0007-05.png
00000014,71,0,1440083887566,1440083888064,926,385,0,0,0,1,2,1,12,0001-00-0006-41.png,0002-00-0006-60.png
00000014,72,1,1440083890968,1440083891463,359,366,0,0,0,4,5,1,45,0004-00-0006-16.png,0005-00-0008-22.png
00000014,73,0,1440083892479,1440083893036,956,349,0,0,0,3,4,1,34,0003-00-0006-47.png,0004-00-0004-69.png
00000014,74,1,1440083896688,1440083897172,368,375,0,0,0,2,3,1,23,0002-00-0006-94.png,0003-00-0002-72.png
00000014,75,1,1440083898552,1440083899034,927,382,0,0,0,2,1,1,21,0002-00-0009-96.png,0001-00-0007-88.png
00000014,76,1,1440083900103,1440083900661,913,372,0,0,0,4,3,1,43,0004-00-0002-67.png,0003-00-0003-54.png
00000014,77,0,1440083901774,1440083902260,900,371,0,0,0,4,5,1,45,0004-00-0009-28.png,0005-00-0009-34.png
00000014,78,1,1440083905351,1440083905856,384,506,0,0,0,1,2,1,12,0001-00-0004-09.png,0002-00-0008-56.png
00000014,79,1,1440083906931,1440083907434,926,397,0,0,0,5,4,1,54,0005-00-0006-82.png,0004-00-0009-44.png
00000014,80,0,1440083908869,1440083909435,362,397,0,0,0,3,2,1,32,0003-00-0003-17.png,0002-00-0006-92.png
00000014,81,1,1440083912438,1440083912969,925,475,0,0,0,4,3,1,43,0004-00-0009-10.png,0003-00-0002-39.png
00000014,82,1,1440083913947,1440083914473,922,419,0,0,0,5,4,1,54,0005-00-0003-97.png,0004-00-0005-51.png
00000014,83,0,1440083915497,1440083916011,931,403,0,0,0,1,2,1,12,0001-00-0006-50.png,0002-00-0004-94.png
00000014,84,0,1440083919015,1440083919635,956,375,0,0,0,2,3,1,23,0002-00-0004-41.png,0003-00-0005-33.png
00000014,85,1,1440083922732,1440083923250,926,487,0,0,0,3,2,1,32,0003-00-0008-21.png,0002-00-0007-88.png
00000014,86,0,1440083924195,1440083924720,939,372,0,0,0,3,4,1,34,0003-00-0007-74.png,0004-00-0001-38.png
00000014,87,1,1440083927790,1440083928259,927,398,0,0,0,2,1,1,21,0002-00-0008-35.png,0001-00-0006-97.png
00000014,88,1,1440083929291,1440083929855,376,398,0,0,0,4,5,1,45,0004-00-0000-97.png,0005-00-0009-33.png
00000014,89,0,1440083930882,1440083931431,346,400,0,0,0,5,4,1,54,0005-00-0000-74.png,0004-00-0006-64.png
00000014,90,1,1440083934360,1440083934882,385,370,0,0,0,4,5,1,45,0004-00-0001-70.png,0005-00-0002-72.png
00000014,91,0,1440083935950,1440083936495,971,378,0,0,0,3,4,1,34,0003-00-0005-55.png,0004-00-0001-47.png
00000014,92,1,1440083939447,1440083939923,337,382,0,0,0,1,2,1,12,0001-00-0003-86.png,0002-00-0003-78.png
00000014,93,1,1440083940938,1440083941432,904,375,0,0,0,2,1,1,21,0002-00-0001-67.png,0001-00-0005-70.png
00000014,94,0,1440083942509,1440083942956,350,423,0,0,0,4,3,1,43,0004-00-0008-23.png,0003-00-0005-82.png
00000014,95,1,1440083946057,1440083946591,952,384,0,0,0,3,2,1,32,0003-00-0002-18.png,0002-00-0002-95.png
00000014,96,1,1440083947656,1440083948132,364,406,0,0,0,2,3,1,23,0002-00-0006-60.png,0003-00-0001-30.png
00000014,97,0,1440083949186,1440083949695,926,398,0,0,0,3,4,1,34,0003-00-0000-09.png,0004-00-0006-48.png
00000014,98,1,1440083952875,1440083953419,902,477,0,0,0,3,2,1,32,0003-00-0000-29.png,0002-00-0007-73.png
00000014,99,1,1440083954417,1440083954958,357,403,0,0,0,1,2,1,12,0001-00-0002-50.png,0002-00-0005-57.png
00000014,100,0,1440083955985,1440083956517,904,412,0,0,0,4,5,1,45,0004-00-0006-02.png,0005-00-0002-40.png
00000014,101,1,1440083959370,1440083959406,506,430,0,0,0,2,3,1,23,0002-00-0005-07.png,0003-00-0004-33.png
00000014,102,0,1440083960909,1440083961447,337,345,0,0,0,4,3,1,43,0004-00-0009-56.png,0003-00-0006-58.png
00000014,103,0,1440083964543,1440083964986,336,397,0,0,0,2,1,1,21,0002-00-0007-12.png,0001-00-0003-33.png
00000014,104,0,1440083967881,1440083967905,496,462,0,0,0,5,4,1,54,0005-00-0009-96.png,0004-00-0003-42.png
00000014,105,0,1440083970760,1440083970780,504,410,0,0,0,5,4,1,54,0005-00-0002-20.png,0004-00-0009-32.png
00000014,106,0,1440083973717,1440083974244,322,381,0,0,0,2,1,1,21,0002-00-0003-56.png,0001-00-0006-60.png
00000014,107,0,1440083977419,1440083977936,951,489,0,0,0,3,4,1,34,0003-00-0006-74.png,0004-00-0004-50.png
00000014,108,1,1440083980784,1440083981431,327,340,0,0,0,4,5,1,45,0004-00-0005-88.png,0005-00-0009-17.png
00000014,109,1,1440083982551,1440083983374,384,401,0,0,0,1,2,1,12,0001-00-0004-98.png,0002-00-0008-91.png
00000014,110,0,1440083984504,1440083985004,374,402,0,0,0,4,3,1,43,0004-00-0003-33.png,0003-00-0001-96.png
00000014,111,1,1440083988187,1440083988632,299,358,0,0,0,2,3,1,23,0002-00-0004-72.png,0003-00-0003-58.png
00000014,112,1,1440083989622,1440083990173,858,360,0,0,0,3,2,1,32,0003-00-0005-11.png,0002-00-0002-00.png
00000014,113,1,1440083991312,1440083992085,392,429,0,0,0,4,5,1,45,0004-00-0001-50.png,0005-00-0002-44.png
00000014,114,1,1440083993156,1440083993631,369,391,0,0,0,3,4,1,34,0003-00-0006-17.png,0004-00-0008-30.png
00000014,115,1,1440083994631,1440083995133,900,455,0,0,0,3,2,1,32,0003-00-0002-18.png,0002-00-0005-86.png
00000014,116,1,1440083996241,1440083996741,313,404,0,0,0,1,2,1,12,0001-00-0001-52.png,0002-00-0000-85.png
00000014,117,0,1440083997788,1440083998322,913,372,0,0,0,2,3,1,23,0002-00-0001-35.png,0003-00-0004-01.png
00000014,118,1,1440084001377,1440084001919,887,476,0,0,0,2,1,1,21,0002-00-0005-90.png,0001-00-0004-19.png
00000014,119,1,1440084003006,1440084003503,913,501,0,0,0,5,4,1,54,0005-00-0004-99.png,0004-00-0003-70.png
00000014,120,1,1440084004535,1440084005080,870,342,0,0,0,4,3,1,43,0004-00-0003-87.png,0003-00-0001-16.png
00000014,121,0,1440084006136,1440084006722,383,393,0,0,0,2,1,1,21,0002-00-0004-84.png,0001-00-0006-81.png
00000014,122,0,1440084009783,1440084010288,350,372,0,0,0,3,2,1,32,0003-00-0005-05.png,0002-00-0004-15.png
00000014,123,0,1440084013466,1440084013998,878,467,0,0,0,3,4,1,34,0003-00-0005-65.png,0004-00-0002-93.png
00000014,124,1,1440084017137,1440084017181,481,448,0,0,0,2,3,1,23,0002-00-0007-00.png,0003-00-0007-46.png
00000014,125,0,1440084018203,1440084018698,904,400,0,0,0,1,2,1,12,0001-00-0009-58.png,0002-00-0006-23.png
00000014,126,1,1440084021910,1440084022493,880,481,0,0,0,4,3,1,43,0004-00-0003-20.png,0003-00-0006-66.png
00000014,127,1,1440084023500,1440084024046,922,378,0,0,0,5,4,1,54,0005-00-0009-48.png,0004-00-0001-46.png
00000014,128,1,1440084025040,1440084025506,352,404,0,0,0,4,5,1,45,0004-00-0008-80.png,0005-00-0007-46.png
00000014,129,1,1440084026471,1440084027024,917,372,0,0,0,3,2,1,32,0003-00-0004-12.png,0002-00-0005-69.png
00000014,130,0,1440084027983,1440084028544,398,494,0,0,0,5,4,1,54,0005-00-0001-76.png,0004-00-0005-59.png
00000014,131,1,1440084031540,1440084032034,414,508,0,0,0,1,2,1,12,0001-00-0002-27.png,0002-00-0002-36.png
00000014,132,1,1440084033011,1440084033535,902,417,0,0,0,4,3,1,43,0004-00-0000-93.png,0003-00-0007-23.png
00000014,133,1,1440084034610,1440084035084,922,394,0,0,0,2,1,1,21,0002-00-0007-93.png,0001-00-0002-71.png
00000014,134,0,1440084036132,1440084036644,888,482,0,0,0,2,3,1,23,0002-00-0004-05.png,0003-00-0007-06.png
00000014,135,1,1440084039710,1440084040182,346,385,0,0,0,3,4,1,34,0003-00-0007-88.png,0004-00-0004-00.png
00000014,136,1,1440084041216,1440084041682,376,400,0,0,0,4,5,1,45,0004-00-0009-53.png,0005-00-0003-01.png
00000014,137,0,1440084042697,1440084043373,926,398,0,0,0,4,5,1,45,0004-00-0009-33.png,0005-00-0005-20.png
00000014,138,1,1440084046265,1440084046810,902,466,0,0,0,3,2,1,32,0003-00-0006-67.png,0002-00-0005-48.png
00000014,139,1,1440084047760,1440084048278,401,526,0,0,0,2,3,1,23,0002-00-0008-37.png,0003-00-0001-12.png
00000014,140,1,1440084049309,1440084049818,870,394,0,0,0,2,1,1,21,0002-00-0000-82.png,0001-00-0009-58.png
00000014,141,1,1440084051437,1440084051958,299,414,0,0,0,3,4,1,34,0003-00-0002-28.png,0004-00-0001-40.png
00000014,142,1,1440084052935,1440084053476,878,401,0,0,0,5,4,1,54,0005-00-0008-57.png,0004-00-0003-51.png
00000014,143,1,1440084055142,1440084056024,318,392,0,0,0,1,2,1,12,0001-00-0005-13.png,0002-00-0006-46.png
00000014,144,0,1440084057390,1440084058281,358,394,0,0,0,4,3,1,43,0004-00-0006-46.png,0003-00-0008-63.png
00000014,145,1,1440084061194,1440084061222,469,462,0,0,0,3,4,1,34,0003-00-0009-63.png,0004-00-0007-91.png
00000014,146,1,1440084062677,1440084063120,331,386,0,0,0,1,2,1,12,0001-00-0002-63.png,0002-00-0009-40.png
00000014,147,1,1440084064864,1440084065373,880,401,0,0,0,4,3,1,43,0004-00-0002-42.png,0003-00-0001-73.png
00000014,148,0,1440084067340,1440084067856,325,386,0,0,0,2,1,1,21,0002-00-0000-97.png,0001-00-0000-57.png
00000014,149,0,1440084070816,1440084071350,887,328,0,0,0,2,3,1,23,0002-00-0007-61.png,0003-00-0005-51.png
00000014,150,1,1440084074280,1440084074761,299,371,0,0,0,4,5,1,45,0004-00-0003-60.png,0005-00-0001-79.png
00000014,151,1,1440084076011,1440084076573,921,393,0,0,0,5,4,1,54,0005-00-0008-25.png,0004-00-0002-58.png
00000014,152,1,1440084077653,1440084078179,933,389,0,0,0,3,2,1,32,0003-00-0004-86.png,0002-00-0000-43.png
00000014,153,0,1440084079832,1440084080383,882,441,0,0,0,4,5,1,45,0004-00-0008-88.png,0005-00-0008-68.png
00000014,154,0,1440084083287,1440084083792,325,370,0,0,0,2,1,1,21,0002-00-0004-67.png,0001-00-0008-64.png
00000014,155,1,1440084086730,1440084086766,523,456,0,0,0,1,2,1,12,0001-00-0003-62.png,0002-00-0008-55.png
00000014,156,0,1440084087795,1440084088322,862,344,0,0,0,2,3,1,23,0002-00-0003-27.png,0003-00-0000-06.png
00000014,157,1,1440084091257,1440084092009,362,348,0,0,0,3,4,1,34,0003-00-0003-20.png,0004-00-0002-08.png
00000014,158,1,1440084093119,1440084093633,904,401,0,0,0,3,2,1,32,0003-00-0009-83.png,0002-00-0005-25.png
00000014,159,0,1440084095438,1440084095902,350,384,0,0,0,4,3,1,43,0004-00-0000-37.png,0003-00-0000-38.png
00000014,160,0,1440084098944,1440084099420,352,397,0,0,0,5,4,1,54,0005-00-0006-67.png,0004-00-0007-13.png
00000014,161,0,1440084102649,1440084103145,875,475,0,0,0,2,3,1,23,0002-00-0008-57.png,0003-00-0008-12.png
00000014,162,1,1440084106058,1440084106094,478,423,0,0,0,4,5,1,45,0004-00-0009-00.png,0005-00-0005-98.png
00000014,163,1,1440084107182,1440084107717,376,397,0,0,0,3,4,1,34,0003-00-0002-25.png,0004-00-0000-33.png
00000014,164,1,1440084108781,1440084109275,969,391,0,0,0,4,3,1,43,0004-00-0009-79.png,0003-00-0005-05.png
00000014,165,1,1440084110489,1440084111043,930,401,0,0,0,2,1,1,21,0002-00-0000-22.png,0001-00-0009-89.png
00000014,166,1,1440084112060,1440084112576,901,383,0,0,0,5,4,1,54,0005-00-0005-97.png,0004-00-0005-71.png
00000014,167,0,1440084114109,1440084114600,299,399,0,0,0,3,2,1,32,0003-00-0002-64.png,0002-00-0000-95.png
00000014,168,1,1440084117715,1440084118205,350,371,0,0,0,1,2,1,12,0001-00-0004-82.png,0002-00-0009-62.png
00000014,169,1,1440084119237,1440084119752,896,420,0,0,0,2,1,1,21,0002-00-0007-67.png,0001-00-0007-11.png
00000014,170,0,1440084121462,1440084121937,908,390,0,0,0,2,3,1,23,0002-00-0004-78.png,0003-00-0003-16.png
00000014,171,1,1440084125050,1440084125521,248,410,0,0,0,1,2,1,12,0001-00-0003-20.png,0002-00-0006-93.png
00000014,172,1,1440084126536,1440084127043,872,482,0,0,0,4,3,1,43,0004-00-0009-22.png,0003-00-0003-91.png
00000014,173,1,1440084128568,1440084129104,896,394,0,0,0,5,4,1,54,0005-00-0002-33.png,0004-00-0001-44.png
00000014,174,0,1440084130079,1440084130602,876,423,0,0,0,4,5,1,45,0004-00-0005-40.png,0005-00-0003-59.png
00000014,175,1,1440084133477,1440084133533,523,426,0,0,0,3,4,1,34,0003-00-0008-22.png,0004-00-0006-96.png
00000014,176,1,1440084134542,1440084135064,914,397,0,0,0,3,2,1,32,0003-00-0005-14.png,0002-00-0007-27.png
00000014,177,1,1440084136458,1440084136987,886,503,0,0,0,4,3,1,43,0004-00-0001-00.png,0003-00-0007-40.png
00000014,178,1,1440084137939,1440084138423,886,483,0,0,0,3,2,1,32,0003-00-0004-90.png,0002-00-0002-49.png
00000014,179,1,1440084139509,1440084140027,875,514,0,0,0,2,1,1,21,0002-00-0004-24.png,0001-00-0000-00.png
00000014,180,0,1440084141021,1440084141520,879,401,0,0,0,2,3,1,23,0002-00-0009-29.png,0003-00-0006-01.png
00000014,181,1,1440084144638,1440084145135,380,488,0,0,0,3,4,1,34,0003-00-0008-51.png,0004-00-0006-11.png
00000014,182,1,1440084146200,1440084146713,902,389,0,0,0,5,4,1,54,0005-00-0005-50.png,0004-00-0008-50.png
00000014,183,1,1440084148137,1440084148671,248,488,0,0,0,1,2,1,12,0001-00-0003-79.png,0002-00-0003-14.png
00000014,184,1,1440084150255,1440084151281,357,393,0,0,0,4,5,1,45,0004-00-0002-60.png,0005-00-0009-93.png
00000014,185,0,1440084152511,1440084153030,368,414,0,0,0,2,1,1,21,0002-00-0003-84.png,0001-00-0000-68.png
00000014,186,0,1440084156057,1440084156584,359,370,0,0,0,4,3,1,43,0004-00-0000-69.png,0003-00-0009-54.png
00000014,187,1,1440084159656,1440084160111,385,508,0,0,0,1,2,1,12,0001-00-0001-81.png,0002-00-0000-22.png
00000014,188,1,1440084161625,1440084162097,334,380,0,0,0,3,4,1,34,0003-00-0007-24.png,0004-00-0001-59.png
00000014,189,0,1440084163274,1440084163769,892,391,0,0,0,2,3,1,23,0002-00-0005-83.png,0003-00-0004-18.png
00000014,190,0,1440084166702,1440084167178,376,358,0,0,0,5,4,1,54,0005-00-0001-44.png,0004-00-0006-88.png
00000014,191,0,1440084170305,1440084170884,353,385,0,0,0,3,2,1,32,0003-00-0002-99.png,0002-00-0001-82.png
00000014,192,1,1440084173777,1440084173801,504,489,0,0,0,4,5,1,45,0004-00-0009-63.png,0005-00-0007-24.png
00000014,193,0,1440084174824,1440084175337,301,401,0,0,0,4,3,1,43,0004-00-0009-08.png,0003-00-0002-79.png
00000014,194,1,1440084178539,1440084179079,902,502,0,0,0,2,1,1,21,0002-00-0007-92.png,0001-00-0001-94.png
00000014,195,1,1440084180101,1440084180614,904,494,0,0,0,3,2,1,32,0003-00-0000-45.png,0002-00-0000-64.png
00000014,196,0,1440084182415,1440084182940,325,423,0,0,0,5,4,1,54,0005-00-0007-37.png,0004-00-0003-20.png
00000014,197,1,1440084186073,1440084186531,310,393,0,0,0,1,2,1,12,0001-00-0001-16.png,0002-00-0003-77.png
00000014,198,0,1440084187535,1440084188050,922,394,0,0,0,2,3,1,23,0002-00-0003-42.png,0003-00-0000-61.png
00000014,199,1,1440084191143,1440084191639,403,396,0,0,0,4,5,1,45,0004-00-0004-38.png,0005-00-0005-20.png
00000014,200,0,1440084192663,1440084193148,906,418,0,0,0,3,4,1,34,0003-00-0002-64.png,0004-00-0004-12.png
00000014,201,1,1440084196321,1440084197044,379,373,0,0,0,3,4,1,34,0003-00-0009-87.png,0004-00-0000-22.png
00000014,202,0,1440084198008,1440084198535,353,406,0,0,0,4,3,1,43,0004-00-0009-03.png,0003-00-0000-75.png
00000014,203,1,1440084201467,1440084202047,933,475,0,0,0,2,1,1,21,0002-00-0002-74.png,0001-00-0008-63.png
00000014,204,1,1440084202989,1440084203525,367,415,0,0,0,1,2,1,12,0001-00-0008-38.png,0002-00-0003-95.png
00000014,205,1,1440084204565,1440084205123,875,410,0,0,0,5,4,1,54,0005-00-0001-37.png,0004-00-0001-79.png
00000014,206,1,1440084206150,1440084206664,350,417,0,0,0,4,5,1,45,0004-00-0006-53.png,0005-00-0003-42.png
00000014,207,1,1440084208197,1440084208680,347,421,0,0,0,2,3,1,23,0002-00-0005-56.png,0003-00-0001-79.png
00000014,208,1,1440084209780,1440084210307,889,410,0,0,0,3,2,1,32,0003-00-0009-39.png,0002-00-0007-32.png
00000014,209,0,1440084211297,1440084212217,393,401,0,0,0,4,3,1,43,0004-00-0008-13.png,0003-00-0006-29.png
00000014,210,0,1440084215314,1440084215796,364,405,0,0,0,3,2,1,32,0003-00-0005-10.png,0002-00-0002-46.png
00000014,211,1,1440084218751,1440084219279,921,368,0,0,0,5,4,1,54,0005-00-0004-15.png,0004-00-0001-95.png
00000014,212,1,1440084220388,1440084220892,325,384,0,0,0,2,3,1,23,0002-00-0006-15.png,0003-00-0001-47.png
00000014,213,0,1440084222568,1440084223066,900,411,0,0,0,4,5,1,45,0004-00-0001-40.png,0005-00-0007-42.png
00000014,214,0,1440084226285,1440084226730,900,408,0,0,0,3,4,1,34,0003-00-0008-70.png,0004-00-0004-38.png
00000014,215,1,1440084229855,1440084230432,313,397,0,0,0,1,2,1,12,0001-00-0006-51.png,0002-00-0009-11.png
00000014,216,0,1440084231370,1440084231946,401,397,0,0,0,2,1,1,21,0002-00-0002-94.png,0001-00-0005-60.png
00000014,217,1,1440084235041,1440084235512,343,393,0,0,0,2,3,1,23,0002-00-0007-48.png,0003-00-0007-16.png
00000014,218,1,1440084236502,1440084237002,928,414,0,0,0,5,4,1,54,0005-00-0005-02.png,0004-00-0006-55.png
00000014,219,1,1440084239017,1440084239503,901,476,0,0,0,4,3,1,43,0004-00-0001-68.png,0003-00-0001-26.png
00000014,220,1,1440084240607,1440084241139,299,413,0,0,0,1,2,1,12,0001-00-0006-13.png,0002-00-0009-68.png
00000014,221,1,1440084242555,1440084243061,898,405,0,0,0,3,2,1,32,0003-00-0009-97.png,0002-00-0006-28.png
00000014,222,0,1440084244693,1440084245176,877,465,0,0,0,3,4,1,34,0003-00-0005-01.png,0004-00-0000-28.png
00000014,223,1,1440084248021,1440084248518,359,388,0,0,0,4,5,1,45,0004-00-0005-33.png,0005-00-0007-46.png
00000014,224,1,1440084249663,1440084250166,902,415,0,0,0,2,1,1,21,0002-00-0009-89.png,0001-00-0009-95.png
00000014,225,0,1440084251204,1440084252311,389,486,0,0,0,4,3,1,43,0004-00-0002-79.png,0003-00-0005-49.png
00000014,226,1,1440084255225,1440084255633,351,368,0,0,0,3,4,1,34,0003-00-0006-15.png,0004-00-0003-20.png
00000014,227,0,1440084256663,1440084257208,328,420,0,0,0,5,4,1,54,0005-00-0009-38.png,0004-00-0002-45.png
00000014,228,1,1440084260284,1440084260781,325,397,0,0,0,1,2,1,12,0001-00-0005-59.png,0002-00-0000-11.png
00000014,229,1,1440084261857,1440084262335,381,531,0,0,0,4,5,1,45,0004-00-0003-38.png,0005-00-0003-42.png
00000014,230,0,1440084263378,1440084263889,325,423,0,0,0,2,1,1,21,0002-00-0001-69.png,0001-00-0007-45.png
00000014,231,1,1440084267005,1440084267467,305,394,0,0,0,2,3,1,23,0002-00-0006-36.png,0003-00-0006-04.png
00000014,232,1,1440084268480,1440084268957,930,402,0,0,0,3,2,1,32,0003-00-0008-55.png,0002-00-0000-28.png
00000014,233,1,1440084270836,1440084271323,350,396,0,0,0,2,3,1,23,0002-00-0007-86.png,0003-00-0006-79.png
00000014,234,0,1440084272342,1440084272884,894,397,0,0,0,1,2,1,12,0001-00-0009-61.png,0002-00-0004-19.png
00000014,235,0,1440084275719,1440084275768,515,438,0,0,0,2,1,1,21,0002-00-0006-25.png,0001-00-0002-50.png
00000014,236,0,1440084278620,1440084279067,370,400,0,0,0,4,3,1,43,0004-00-0009-12.png,0003-00-0003-59.png
00000014,237,0,1440084282260,1440084282748,384,492,0,0,0,5,4,1,54,0005-00-0001-60.png,0004-00-0007-81.png
00000014,238,0,1440084285688,1440084285708,480,396,0,0,0,3,2,1,32,0003-00-0000-86.png,0002-00-0009-39.png
00000014,239,1,1440084288718,1440084289142,376,397,0,0,0,4,5,1,45,0004-00-0009-07.png,0005-00-0009-14.png
00000014,240,1,1440084290191,1440084290674,376,397,0,0,0,3,4,1,34,0003-00-0008-43.png,0004-00-0001-73.png
00000014,241,0,1440084291658,1440084292203,925,385,0,0,0,2,3,1,23,0002-00-0000-92.png,0003-00-0005-94.png
00000014,242,0,1440084295207,1440084295219,516,541,0,0,0,2,1,1,21,0002-00-0001-58.png,0001-00-0003-22.png
00000014,243,0,1440084298303,1440084298311,522,473,0,0,0,5,4,1,54,0005-00-0009-55.png,0004-00-0004-51.png
00000014,244,0,1440084301296,1440084301826,859,457,0,0,0,3,4,1,34,0003-00-0008-17.png,0004-00-0001-99.png
00000014,245,0,1440084305167,1440084305600,303,385,0,0,0,4,3,1,43,0004-00-0001-59.png,0003-00-0005-39.png
00000014,246,1,1440084308658,1440084308690,518,517,0,0,0,4,5,1,45,0004-00-0006-81.png,0005-00-0008-03.png
00000014,247,0,1440084309671,1440084310149,926,409,0,0,0,1,2,1,12,0001-00-0000-83.png,0002-00-0000-81.png
00000014,248,0,1440084313269,1440084313679,363,374,0,0,0,3,2,1,32,0003-00-0000-56.png,0002-00-0000-90.png
00000014,249,1,1440084316665,1440084317143,342,387,0,0,0,2,3,1,23,0002-00-0007-88.png,0003-00-0001-47.png
00000014,250,1,1440084318076,1440084318610,867,482,0,0,0,5,4,1,54,0005-00-0000-21.png,0004-00-0000-39.png
00000014,251,1,1440084320323,1440084320805,313,393,0,0,0,4,5,1,45,0004-00-0005-12.png,0005-00-0000-88.png
00000014,252,1,1440084321813,1440084322379,350,371,0,0,0,3,4,1,34,0003-00-0007-91.png,0004-00-0008-66.png
00000014,253,1,1440084323463,1440084323960,872,486,0,0,0,3,2,1,32,0003-00-0000-25.png,0002-00-0001-25.png
00000014,254,0,1440084324943,1440084325521,377,372,0,0,0,4,3,1,43,0004-00-0005-69.png,0003-00-0007-71.png
00000014,255,0,1440084328488,1440084328941,328,347,0,0,0,2,1,1,21,0002-00-0005-37.png,0001-00-0000-47.png
00000014,256,1,1440084331881,1440084331925,521,492,0,0,0,1,2,1,12,0001-00-0002-70.png,0002-00-0001-18.png
00000014,257,1,1440084332843,1440084333382,336,398,0,0,0,3,4,1,34,0003-00-0001-42.png,0004-00-0007-40.png
00000014,258,1,1440084334384,1440084334867,887,398,0,0,0,2,1,1,21,0002-00-0008-79.png,0001-00-0007-40.png
00000014,259,1,1440084335826,1440084336330,875,384,0,0,0,4,3,1,43,0004-00-0000-85.png,0003-00-0004-89.png
00000014,260,1,1440084337335,1440084337849,872,366,0,0,0,5,4,1,54,0005-00-0000-01.png,0004-00-0001-86.png
00000014,261,0,1440084339473,1440084340022,313,364,0,0,0,3,2,1,32,0003-00-0004-65.png,0002-00-0005-59.png
00000014,262,1,1440084342867,1440084343323,345,361,0,0,0,1,2,1,12,0001-00-0005-75.png,0002-00-0001-02.png
00000014,263,1,1440084344394,1440084344859,337,414,0,0,0,4,5,1,45,0004-00-0001-89.png,0005-00-0002-27.png
00000014,264,1,1440084345904,1440084346435,299,396,0,0,0,2,3,1,23,0002-00-0007-29.png,0003-00-0002-31.png
00000014,265,0,1440084347461,1440084347997,880,426,0,0,0,4,5,1,45,0004-00-0008-66.png,0005-00-0003-81.png
00000014,266,0,1440084350971,1440084351433,350,397,0,0,0,2,1,1,21,0002-00-0003-82.png,0001-00-0006-45.png
00000014,267,0,1440084354429,1440084355027,903,469,0,0,0,2,3,1,23,0002-00-0006-72.png,0003-00-0004-25.png
00000014,268,1,1440084357879,1440084358509,330,427,0,0,0,1,2,1,12,0001-00-0007-79.png,0002-00-0008-49.png
00000014,269,0,1440084359518,1440084360001,376,499,0,0,0,3,2,1,32,0003-00-0000-83.png,0002-00-0007-96.png
00000014,270,1,1440084362947,1440084363437,383,368,0,0,0,3,4,1,34,0003-00-0000-00.png,0004-00-0006-09.png
00000014,271,1,1440084364468,1440084364967,901,407,0,0,0,5,4,1,54,0005-00-0005-45.png,0004-00-0000-66.png
00000014,272,1,1440084365918,1440084366444,898,484,0,0,0,4,3,1,43,0004-00-0003-28.png,0003-00-0000-41.png
00000014,273,1,1440084367428,1440084368151,335,398,0,0,0,1,2,1,12,0001-00-0003-30.png,0002-00-0007-29.png
00000014,274,1,1440084369197,1440084369714,924,405,0,0,0,2,1,1,21,0002-00-0004-44.png,0001-00-0002-53.png
00000014,275,1,1440084370676,1440084371203,376,424,0,0,0,2,3,1,23,0002-00-0005-25.png,0003-00-0002-45.png
00000014,276,1,1440084372644,1440084373226,359,343,0,0,0,4,5,1,45,0004-00-0005-06.png,0005-00-0007-52.png
00000014,277,1,1440084374281,1440084374788,872,406,0,0,0,3,2,1,32,0003-00-0006-85.png,0002-00-0001-23.png
00000014,278,0,1440084375816,1440084376353,900,410,0,0,0,3,4,1,34,0003-00-0005-52.png,0004-00-0009-84.png
00000014,279,1,1440084379233,1440084379820,948,367,0,0,0,4,3,1,43,0004-00-0007-92.png,0003-00-0004-59.png
00000014,280,1,1440084381377,1440084381854,862,501,0,0,0,5,4,1,54,0005-00-0004-88.png,0004-00-0009-54.png
00000014,281,0,1440084382859,1440084383396,367,382,0,0,0,4,3,1,43,0004-00-0006-35.png,0003-00-0002-08.png
00000014,282,1,1440084386359,1440084386824,375,390,0,0,0,4,5,1,45,0004-00-0003-33.png,0005-00-0008-93.png
00000014,283,1,1440084387809,1440084388382,367,414,0,0,0,1,2,1,12,0001-00-0004-46.png,0002-00-0005-35.png
00000014,284,0,1440084389390,1440084389915,371,399,0,0,0,2,1,1,21,0002-00-0005-40.png,0001-00-0007-45.png
00000014,285,0,1440084392819,1440084392835,519,440,0,0,0,3,2,1,32,0003-00-0009-36.png,0002-00-0007-59.png
00000014,286,0,1440084395689,1440084396269,923,432,0,0,0,3,4,1,34,0003-00-0005-53.png,0004-00-0007-68.png
00000014,287,1,1440084399109,1440084399505,356,357,0,0,0,2,3,1,23,0002-00-0006-12.png,0003-00-0005-07.png
00000014,288,1,1440084400489,1440084401075,893,382,0,0,0,5,4,1,54,0005-00-0006-92.png,0004-00-0000-78.png
00000014,289,1,1440084402030,1440084402576,361,424,0,0,0,4,5,1,45,0004-00-0002-61.png,0005-00-0005-86.png
00000014,290,0,1440084403631,1440084404169,878,402,0,0,0,3,4,1,34,0003-00-0008-98.png,0004-00-0004-58.png
00000014,291,1,1440084407188,1440084407646,401,358,0,0,0,2,3,1,23,0002-00-0000-32.png,0003-00-0007-52.png
00000014,292,1,1440084408680,1440084409214,308,392,0,0,0,1,2,1,12,0001-00-0004-73.png,0002-00-0000-13.png
00000014,293,1,1440084410189,1440084410750,900,435,0,0,0,4,3,1,43,0004-00-0000-85.png,0003-00-0009-56.png
00000014,294,0,1440084411698,1440084412668,376,385,0,0,0,5,4,1,54,0005-00-0001-29.png,0004-00-0004-34.png
00000014,295,0,1440084415684,1440084416160,345,398,0,0,0,2,1,1,21,0002-00-0001-14.png,0001-00-0008-33.png
00000014,296,0,1440084419263,1440084419729,341,392,0,0,0,3,2,1,32,0003-00-0000-99.png,0002-00-0001-65.png
00000014,297,0,1440084422642,1440084423078,344,385,0,0,0,2,1,1,21,0002-00-0009-11.png,0001-00-0009-96.png
00000014,298,0,1440084426101,1440084426706,923,456,0,0,0,2,3,1,23,0002-00-0009-97.png,0003-00-0002-80.png
00000014,299,0,1440084429559,1440084430046,874,475,0,0,0,3,4,1,34,0003-00-0005-92.png,0004-00-0005-07.png
00000014,300,1,1440084433239,1440084433764,902,415,0,0,0,5,4,1,54,0005-00-0008-22.png,0004-00-0002-46.png
00000014,301,1,1440084434962,1440084435431,367,402,0,0,0,4,5,1,45,0004-00-0000-34.png,0005-00-0009-40.png
00000014,302,1,1440084437100,1440084437609,898,486,0,0,0,4,3,1,43,0004-00-0002-71.png,0003-00-0003-56.png
00000014,303,1,1440084438744,1440084439240,904,375,0,0,0,3,2,1,32,0003-00-0009-23.png,0002-00-0002-49.png
00000014,304,0,1440084440301,1440084440792,902,391,0,0,0,1,2,1,12,0001-00-0002-97.png,0002-00-0000-65.png
00000014,305,1,1440084443893,1440084444353,339,400,0,0,0,1,2,1,12,0001-00-0006-98.png,0002-00-0003-73.png
00000014,306,1,1440084445385,1440084445899,901,390,0,0,0,2,1,1,21,0002-00-0005-32.png,0001-00-0000-66.png
00000014,307,1,1440084446970,1440084447480,360,400,0,0,0,3,4,1,34,0003-00-0006-31.png,0004-00-0008-70.png
00000014,308,1,1440084448852,1440084449700,364,418,0,0,0,2,3,1,23,0002-00-0002-35.png,0003-00-0002-99.png
00000014,309,1,1440084451126,1440084451680,880,428,0,0,0,3,2,1,32,0003-00-0004-35.png,0002-00-0008-67.png
00000014,310,1,1440084452756,1440084453291,873,482,0,0,0,4,3,1,43,0004-00-0004-01.png,0003-00-0008-50.png
00000014,311,1,1440084454424,1440084454953,879,401,0,0,0,5,4,1,54,0005-00-0009-39.png,0004-00-0002-91.png
00000014,312,1,1440084456178,1440084456712,325,371,0,0,0,4,5,1,45,0004-00-0007-08.png,0005-00-0001-68.png
00000014,313,1,1440084458709,1440084459207,877,416,0,0,0,3,2,1,32,0003-00-0000-59.png,0002-00-0005-76.png
00000014,314,1,1440084460243,1440084460737,924,388,0,0,0,4,3,1,43,0004-00-0002-86.png,0003-00-0005-35.png
00000014,315,1,1440084461807,1440084462834,401,423,0,0,0,4,5,1,45,0004-00-0008-99.png,0005-00-0009-03.png
00000014,316,0,1440084464336,1440084464803,875,424,0,0,0,2,3,1,23,0002-00-0009-55.png,0003-00-0002-31.png
00000014,317,0,1440084467942,1440084468398,322,366,0,0,0,5,4,1,54,0005-00-0000-05.png,0004-00-0000-44.png
00000014,318,1,1440084471335,1440084471743,357,369,0,0,0,3,4,1,34,0003-00-0007-28.png,0004-00-0004-02.png
00000014,319,1,1440084472776,1440084473278,900,410,0,0,0,2,1,1,21,0002-00-0005-95.png,0001-00-0003-96.png
00000014,320,1,1440084474385,1440084474867,372,423,0,0,0,1,2,1,12,0001-00-0009-35.png,0002-00-0004-67.png
00000014,321,1,1440084475935,1440084476489,369,381,0,0,0,3,4,1,34,0003-00-0000-42.png,0004-00-0009-37.png
00000014,322,1,1440084477514,1440084478075,874,437,0,0,0,5,4,1,54,0005-00-0004-07.png,0004-00-0003-99.png
00000014,323,1,1440084479144,1440084479671,356,399,0,0,0,4,5,1,45,0004-00-0001-68.png,0005-00-0000-96.png
00000014,324,0,1440084480645,1440084481249,401,384,0,0,0,3,2,1,32,0003-00-0004-27.png,0002-00-0000-60.png
00000014,325,0,1440084490493,1440084490979,351,387,0,0,0,4,3,1,43,0004-00-0000-64.png,0003-00-0006-53.png
00000014,326,1,1440084494804,1440084495279,376,370,0,0,0,2,3,1,23,0002-00-0007-80.png,0003-00-0006-44.png
00000014,327,1,1440084496297,1440084496857,881,486,0,0,0,2,1,1,21,0002-00-0001-88.png,0001-00-0005-07.png
00000014,328,1,1440084497758,1440084498291,369,430,0,0,0,1,2,1,12,0001-00-0004-35.png,0002-00-0009-95.png
00000014,329,0,1440084499279,1440084499870,421,511,0,0,0,2,1,1,21,0002-00-0005-79.png,0001-00-0003-98.png
00000014,330,1,1440084502936,1440084503389,376,423,0,0,0,1,2,1,12,0001-00-0004-53.png,0002-00-0002-24.png
00000014,331,0,1440084504519,1440084505134,896,420,0,0,0,2,3,1,23,0002-00-0007-30.png,0003-00-0008-20.png
00000014,332,0,1440084507988,1440084508467,376,398,0,0,0,5,4,1,54,0005-00-0007-85.png,0004-00-0007-33.png
00000014,333,1,1440084511643,1440084512287,356,460,0,0,0,3,4,1,34,0003-00-0006-23.png,0004-00-0003-77.png
00000014,334,1,1440084513242,1440084513778,902,407,0,0,0,4,3,1,43,0004-00-0003-25.png,0003-00-0002-66.png
00000014,335,0,1440084514762,1440084515363,409,420,0,0,0,3,2,1,32,0003-00-0002-59.png,0002-00-0001-85.png
00000014,336,1,1440084518568,1440084519051,376,424,0,0,0,4,5,1,45,0004-00-0003-55.png,0005-00-0008-18.png
00000014,337,1,1440084520100,1440084520700,339,398,0,0,0,1,2,1,12,0001-00-0005-26.png,0002-00-0007-74.png
00000014,338,0,1440084521691,1440084522156,930,403,0,0,0,3,4,1,34,0003-00-0004-72.png,0004-00-0009-08.png
00000014,339,0,1440084525167,1440084525808,342,392,0,0,0,2,1,1,21,0002-00-0009-47.png,0001-00-0004-69.png
00000014,340,0,1440084528641,1440084529109,376,449,0,0,0,5,4,1,54,0005-00-0008-44.png,0004-00-0007-69.png
00000014,341,1,1440084532145,1440084532157,450,488,0,0,0,4,5,1,45,0004-00-0006-04.png,0005-00-0009-61.png
00000014,342,1,1440084533106,1440084533126,495,482,0,0,0,2,3,1,23,0002-00-0003-73.png,0003-00-0001-65.png
00000014,343,1,1440084534569,1440084535041,879,444,0,0,0,3,2,1,32,0003-00-0000-29.png,0002-00-0004-04.png
00000014,344,0,1440084537094,1440084537122,513,483,0,0,0,4,3,1,43,0004-00-0003-26.png,0003-00-0006-00.png
00000014,345,0,1440084540362,1440084540914,273,488,0,0,0,4,3,1,43,0004-00-0004-98.png,0003-00-0004-57.png
00000014,346,0,1440084543902,1440084543930,510,443,0,0,0,5,4,1,54,0005-00-0004-88.png,0004-00-0004-94.png
00000014,347,0,1440084547032,1440084547485,357,395,0,0,0,2,1,1,21,0002-00-0000-40.png,0001-00-0004-51.png
00000014,348,1,1440084550538,1440084550550,513,541,0,0,0,4,5,1,45,0004-00-0007-46.png,0005-00-0001-92.png
00000014,349,1,1440084551664,1440084552243,330,405,0,0,0,2,3,1,23,0002-00-0006-90.png,0003-00-0003-68.png
00000014,350,0,1440084553284,1440084553831,879,394,0,0,0,1,2,1,12,0001-00-0004-17.png,0002-00-0005-16.png
00000014,351,1,1440084556912,1440084557477,365,390,0,0,0,3,4,1,34,0003-00-0009-64.png,0004-00-0009-73.png
00000014,352,0,1440084558530,1440084559044,350,423,0,0,0,3,2,1,32,0003-00-0009-77.png,0002-00-0007-91.png
00000014,353,1,1440084562316,1440084562778,344,392,0,0,0,2,3,1,23,0002-00-0005-74.png,0003-00-0006-58.png
00000014,354,1,1440084563790,1440084564331,363,414,0,0,0,4,5,1,45,0004-00-0004-40.png,0005-00-0009-11.png
00000014,355,0,1440084565388,1440084565964,427,384,0,0,0,2,1,1,21,0002-00-0003-94.png,0001-00-0005-80.png
00000014,356,1,1440084568833,1440084568853,522,469,0,0,0,1,2,1,12,0001-00-0006-84.png,0002-00-0000-35.png
00000014,357,0,1440084569888,1440084570390,361,402,0,0,0,3,2,1,32,0003-00-0002-06.png,0002-00-0002-10.png
00000014,358,0,1440084573267,1440084573307,484,472,0,0,0,5,4,1,54,0005-00-0008-39.png,0004-00-0007-52.png
00000014,359,0,1440084576211,1440084576742,365,417,0,0,0,4,3,1,43,0004-00-0007-65.png,0003-00-0005-75.png
00000014,360,1,1440084579868,1440084580420,431,509,0,0,0,3,4,1,34,0003-00-0002-61.png,0004-00-0004-47.png
00000014,361,1,1440084581538,1440084582206,329,362,0,0,0,3,4,1,34,0003-00-0003-68.png,0004-00-0001-39.png
00000014,362,1,1440084583324,1440084583795,354,429,0,0,0,2,3,1,23,0002-00-0007-70.png,0003-00-0009-86.png
00000014,363,1,1440084584857,1440084585459,335,441,0,0,0,4,5,1,45,0004-00-0009-46.png,0005-00-0002-36.png
00000014,364,0,1440084586638,1440084587154,376,448,0,0,0,2,1,1,21,0002-00-0001-57.png,0001-00-0000-21.png
00000014,365,1,1440084590284,1440084590834,901,497,0,0,0,5,4,1,54,0005-00-0006-21.png,0004-00-0006-73.png
00000014,366,0,1440084591836,1440084592383,879,429,0,0,0,1,2,1,12,0001-00-0002-92.png,0002-00-0001-45.png
00000014,367,0,1440084595291,1440084595825,317,402,0,0,0,3,2,1,32,0003-00-0001-63.png,0002-00-0005-10.png
00000014,368,1,1440084599040,1440084599593,927,410,0,0,0,4,3,1,43,0004-00-0004-86.png,0003-00-0001-18.png
00000014,369,1,1440084600701,1440084601297,376,397,0,0,0,4,5,1,45,0004-00-0004-20.png,0005-00-0005-14.png
00000014,370,0,1440084602299,1440084602894,415,528,0,0,0,4,3,1,43,0004-00-0004-54.png,0003-00-0004-56.png
00000014,371,0,1440084605825,1440084605885,522,477,0,0,0,5,4,1,54,0005-00-0008-54.png,0004-00-0008-04.png
00000014,372,1,1440084609018,1440084609482,340,405,0,0,0,1,2,1,12,0001-00-0002-60.png,0002-00-0004-50.png
00000014,373,0,1440084610449,1440084611092,350,410,0,0,0,2,1,1,21,0002-00-0009-85.png,0001-00-0002-01.png
00000014,374,1,1440084614124,1440084614160,498,467,0,0,0,2,3,1,23,0002-00-0007-04.png,0003-00-0001-72.png
00000014,375,0,1440084615139,1440084615700,376,398,0,0,0,3,2,1,32,0003-00-0005-67.png,0002-00-0004-38.png
00000014,376,0,1440084618715,1440084619302,928,387,0,0,0,3,4,1,34,0003-00-0008-21.png,0004-00-0002-54.png
00000014,377,1,1440084622401,1440084622899,900,429,0,0,0,5,4,1,54,0005-00-0007-28.png,0004-00-0000-56.png
00000014,378,1,1440084623865,1440084624407,896,420,0,0,0,2,1,1,21,0002-00-0003-20.png,0001-00-0003-83.png
00000014,379,0,1440084625396,1440084625919,421,537,0,0,0,3,2,1,32,0003-00-0004-54.png,0002-00-0004-15.png
00000014,380,0,1440084628973,1440084629525,905,454,0,0,0,1,2,1,12,0001-00-0008-86.png,0002-00-0007-58.png
00000014,381,0,1440084632531,1440084633072,344,372,0,0,0,4,3,1,43,0004-00-0008-99.png,0003-00-0009-52.png
00000014,382,1,1440084636257,1440084636729,367,514,0,0,0,3,4,1,34,0003-00-0001-25.png,0004-00-0006-84.png
00000014,383,1,1440084637707,1440084638222,321,417,0,0,0,4,5,1,45,0004-00-0003-92.png,0005-00-0004-24.png
00000014,384,1,1440084639236,1440084639770,320,429,0,0,0,2,3,1,23,0002-00-0007-63.png,0003-00-0009-62.png
00000014,385,1,1440084640828,1440084641300,304,403,0,0,0,3,4,1,34,0003-00-0003-62.png,0004-00-0000-93.png
00000014,386,1,1440084642341,1440084642944,921,412,0,0,0,5,4,1,54,0005-00-0003-32.png,0004-00-0004-95.png
00000014,387,1,1440084643939,1440084643971,510,498,0,0,0,4,5,1,45,0004-00-0003-29.png,0005-00-0006-82.png
00000014,388,1,1440084645129,1440084645655,382,407,0,0,0,2,3,1,23,0002-00-0000-58.png,0003-00-0000-40.png
00000014,389,0,1440084647065,1440084647640,347,360,0,0,0,4,3,1,43,0004-00-0003-83.png,0003-00-0003-07.png
00000014,390,0,1440084650626,1440084651125,373,404,0,0,0,2,1,1,21,0002-00-0007-97.png,0001-00-0005-19.png
00000014,391,1,1440084654311,1440084654743,375,384,0,0,0,1,2,1,12,0001-00-0002-40.png,0002-00-0006-57.png
00000014,392,0,1440084655735,1440084656280,417,535,0,0,0,3,2,1,32,0003-00-0001-17.png,0002-00-0007-71.png
00000014,393,1,1440084659293,1440084659297,498,428,0,0,0,1,2,1,12,0001-00-0002-02.png,0002-00-0008-11.png
00000014,394,1,1440084660277,1440084660799,317,402,0,0,0,3,4,1,34,0003-00-0007-14.png,0004-00-0006-96.png
00000014,395,1,1440084661778,1440084662348,877,443,0,0,0,3,2,1,32,0003-00-0001-67.png,0002-00-0000-56.png
00000014,396,0,1440084663329,1440084663835,922,420,0,0,0,2,3,1,23,0002-00-0009-21.png,0003-00-0001-84.png
00000014,397,0,1440084666993,1440084667481,388,513,0,0,0,2,1,1,21,0002-00-0002-64.png,0001-00-0000-40.png
00000014,398,1,1440084670323,1440084670848,302,334,0,0,0,4,5,1,45,0004-00-0007-62.png,0005-00-0005-14.png
00000014,399,0,1440084671865,1440084672434,350,397,0,0,0,5,4,1,54,0005-00-0002-34.png,0004-00-0003-93.png
00000014,400,1,1440084675532,1440084676112,875,476,0,0,0,4,3,1,43,0004-00-0005-25.png,0003-00-0001-05.png
00000014,401,0,1440084677073,1440084677625,876,397,0,0,0,2,3,1,23,0002-00-0000-72.png,0003-00-0003-86.png
00000014,402,1,1440084680521,1440084680966,388,395,0,0,0,4,5,1,45,0004-00-0001-74.png,0005-00-0004-21.png
00000014,403,1,1440084681892,1440084682448,882,429,0,0,0,4,3,1,43,0004-00-0003-51.png,0003-00-0004-40.png
00000014,404,0,1440084683414,1440084683953,348,410,0,0,0,2,1,1,21,0002-00-0007-17.png,0001-00-0000-27.png
00000014,405,0,1440084686941,1440084687375,348,384,0,0,0,5,4,1,54,0005-00-0004-55.png,0004-00-0002-36.png
00000014,406,1,1440084690448,1440084690947,319,399,0,0,0,3,4,1,34,0003-00-0007-98.png,0004-00-0002-96.png
00000014,407,1,1440084692031,1440084692542,879,420,0,0,0,3,2,1,32,0003-00-0002-53.png,0002-00-0005-26.png
00000014,408,1,1440084693531,1440084694046,373,435,0,0,0,1,2,1,12,0001-00-0005-68.png,0002-00-0008-79.png
00000014,409,0,1440084695100,1440084695622,865,511,0,0,0,2,3,1,23,0002-00-0009-69.png,0003-00-0002-59.png
00000014,410,1,1440084698540,1440084699218,351,321,0,0,0,3,4,1,34,0003-00-0002-89.png,0004-00-0001-03.png
00000014,411,1,1440084700149,1440084700781,904,375,0,0,0,3,2,1,32,0003-00-0004-65.png,0002-00-0003-46.png
00000014,412,1,1440084701766,1440084702343,869,498,0,0,0,2,1,1,21,0002-00-0005-70.png,0001-00-0005-66.png
00000014,413,0,1440084703338,1440084703863,367,397,0,0,0,5,4,1,54,0005-00-0006-74.png,0004-00-0006-40.png
00000014,414,1,1440084706954,1440084707436,392,521,0,0,0,1,2,1,12,0001-00-0001-05.png,0002-00-0000-59.png
00000014,415,1,1440084708448,1440084709025,401,526,0,0,0,4,5,1,45,0004-00-0009-31.png,0005-00-0000-28.png
00000014,416,1,1440084710068,1440084710669,903,417,0,0,0,4,3,1,43,0004-00-0009-30.png,0003-00-0001-45.png
00000014,417,1,1440084712094,1440084712586,438,514,0,0,0,3,4,1,34,0003-00-0001-71.png,0004-00-0007-22.png
00000014,418,1,1440084713664,1440084714264,875,520,0,0,0,4,3,1,43,0004-00-0002-29.png,0003-00-0005-36.png
00000014,419,1,1440084715261,1440084715800,323,420,0,0,0,1,2,1,12,0001-00-0000-74.png,0002-00-0005-15.png
00000014,420,0,1440084716825,1440084717348,325,410,0,0,0,5,4,1,54,0005-00-0007-24.png,0004-00-0008-25.png
00000014,421,1,1440084720589,1440084721064,376,398,0,0,0,2,3,1,23,0002-00-0001-26.png,0003-00-0000-44.png
00000014,422,1,1440084721981,1440084722552,874,462,0,0,0,3,2,1,32,0003-00-0008-26.png,0002-00-0008-33.png
00000014,423,0,1440084723552,1440084724151,398,426,0,0,0,2,1,1,21,0002-00-0006-62.png,0001-00-0006-84.png
00000014,424,1,1440084727328,1440084727744,376,398,0,0,0,4,5,1,45,0004-00-0001-39.png,0005-00-0002-20.png
00000014,425,1,1440084728689,1440084729228,874,438,0,0,0,5,4,1,54,0005-00-0008-14.png,0004-00-0004-75.png
00000014,426,0,1440084730250,1440084731402,880,401,0,0,0,3,4,1,34,0003-00-0000-16.png,0004-00-0006-93.png
00000014,427,0,1440084734272,1440084734767,374,395,0,0,0,4,3,1,43,0004-00-0006-29.png,0003-00-0008-76.png
00000014,428,1,1440084737841,1440084738387,876,434,0,0,0,2,1,1,21,0002-00-0008-50.png,0001-00-0007-19.png
00000014,429,1,1440084739373,1440084739927,364,417,0,0,0,4,5,1,45,0004-00-0004-99.png,0005-00-0009-94.png
00000014,430,1,1440084740944,1440084741491,355,406,0,0,0,1,2,1,12,0001-00-0009-33.png,0002-00-0002-47.png
00000014,431,1,1440084742544,1440084743539,367,427,0,0,0,2,3,1,23,0002-00-0000-97.png,0003-00-0003-69.png
00000014,432,0,1440084744581,1440084745104,352,426,0,0,0,3,2,1,32,0003-00-0002-21.png,0002-00-0005-90.png
00000014,433,0,1440084748216,1440084748702,903,389,0,0,0,3,4,1,34,0003-00-0005-35.png,0004-00-0006-60.png
00000014,434,1,1440084751607,1440084752224,929,390,0,0,0,4,3,1,43,0004-00-0007-66.png,0003-00-0007-64.png
00000014,435,1,1440084753216,1440084753739,375,415,0,0,0,4,5,1,45,0004-00-0001-36.png,0005-00-0003-76.png
00000014,436,1,1440084754895,1440084755428,334,427,0,0,0,1,2,1,12,0001-00-0002-36.png,0002-00-0009-87.png
00000014,437,0,1440084756464,1440084757056,401,397,0,0,0,3,2,1,32,0003-00-0008-48.png,0002-00-0008-97.png
00000014,438,0,1440084759995,1440084760603,939,397,0,0,0,2,3,1,23,0002-00-0000-81.png,0003-00-0005-43.png
00000014,439,0,1440084763542,1440084763558,496,471,0,0,0,2,1,1,21,0002-00-0002-25.png,0001-00-0007-77.png
00000014,440,0,1440084766819,1440084767310,376,399,0,0,0,5,4,1,54,0005-00-0009-08.png,0004-00-0005-76.png
00000014,441,0,1440084770338,1440084770346,518,441,0,0,0,3,2,1,32,0003-00-0003-24.png,0002-00-0005-74.png
00000014,442,1,1440084773499,1440084773976,248,488,0,0,0,4,5,1,45,0004-00-0006-38.png,0005-00-0001-44.png
00000014,443,1,1440084774919,1440084775521,939,424,0,0,0,2,1,1,21,0002-00-0009-13.png,0001-00-0007-63.png
00000014,444,1,1440084776522,1440084777087,904,428,0,0,0,5,4,1,54,0005-00-0008-16.png,0004-00-0008-45.png
00000014,445,1,1440084778111,1440084778155,476,525,0,0,0,1,2,1,12,0001-00-0006-90.png,0002-00-0004-40.png
00000014,446,1,1440084779314,1440084779832,427,449,0,0,0,3,4,1,34,0003-00-0005-73.png,0004-00-0002-45.png
00000014,447,1,1440084781402,1440084781948,899,501,0,0,0,4,3,1,43,0004-00-0007-94.png,0003-00-0003-73.png
00000014,448,1,1440084782921,1440084783539,438,538,0,0,0,2,3,1,23,0002-00-0008-69.png,0003-00-0005-66.png
00000014,449,0,1440084784978,1440084785526,327,389,0,0,0,5,4,1,54,0005-00-0005-38.png,0004-00-0004-58.png
00000014,450,1,1440084788627,1440084789095,331,381,0,0,0,4,5,1,45,0004-00-0006-29.png,0005-00-0005-47.png
00000014,451,1,1440084790138,1440084790701,350,410,0,0,0,1,2,1,12,0001-00-0002-41.png,0002-00-0007-42.png
00000014,452,1,1440084791747,1440084792279,368,401,0,0,0,2,3,1,23,0002-00-0008-05.png,0003-00-0000-00.png
00000014,453,1,1440084793309,1440084794329,391,423,0,0,0,3,4,1,34,0003-00-0006-37.png,0004-00-0007-46.png
00000014,454,1,1440084795365,1440084795892,860,509,0,0,0,4,3,1,43,0004-00-0002-75.png,0003-00-0003-94.png
00000014,455,1,1440084796936,1440084797510,862,397,0,0,0,3,2,1,32,0003-00-0007-88.png,0002-00-0007-85.png
00000014,456,1,1440084798564,1440084799088,900,436,0,0,0,2,1,1,21,0002-00-0002-67.png,0001-00-0005-15.png
00000014,457,1,1440084800135,1440084800716,924,438,0,0,0,4,3,1,43,0004-00-0006-81.png,0003-00-0008-15.png
00000014,458,0,1440084801736,1440084802298,376,410,0,0,0,2,1,1,21,0002-00-0001-61.png,0001-00-0006-34.png
00000014,459,1,1440084805231,1440084805287,521,469,0,0,0,1,2,1,12,0001-00-0000-24.png,0002-00-0001-08.png
00000014,460,0,1440084806275,1440084806892,872,379,0,0,0,2,3,1,23,0002-00-0009-23.png,0003-00-0003-14.png
00000014,461,1,1440084810010,1440084810547,875,461,0,0,0,3,2,1,32,0003-00-0006-21.png,0002-00-0002-89.png
00000014,462,1,1440084811503,1440084812006,381,524,0,0,0,3,4,1,34,0003-00-0009-84.png,0004-00-0004-80.png
00000014,463,1,1440084812992,1440084813556,884,453,0,0,0,5,4,1,54,0005-00-0005-40.png,0004-00-0000-30.png
00000014,464,1,1440084814565,1440084815092,384,423,0,0,0,4,5,1,45,0004-00-0002-92.png,0005-00-0001-29.png
00000014,465,1,1440084816085,1440084816684,348,383,0,0,0,1,2,1,12,0001-00-0004-68.png,0002-00-0004-89.png
00000014,466,1,1440084817806,1440084818620,333,403,0,0,0,2,3,1,23,0002-00-0002-66.png,0003-00-0007-58.png
00000014,467,1,1440084819792,1440084820362,273,422,0,0,0,4,5,1,45,0004-00-0007-96.png,0005-00-0006-07.png
00000014,468,1,1440084821347,1440084821923,322,434,0,0,0,3,4,1,34,0003-00-0001-61.png,0004-00-0002-81.png
00000014,469,1,1440084823010,1440084823556,900,430,0,0,0,2,1,1,21,0002-00-0008-91.png,0001-00-0001-47.png
00000014,470,1,1440084824538,1440084825106,905,392,0,0,0,5,4,1,54,0005-00-0001-09.png,0004-00-0006-29.png
00000014,471,0,1440084826143,1440084826733,338,417,0,0,0,3,2,1,32,0003-00-0006-71.png,0002-00-0001-64.png
00000014,472,1,1440084829567,1440084830175,930,402,0,0,0,4,3,1,43,0004-00-0002-56.png,0003-00-0008-85.png
00000014,473,0,1440084831082,1440084831622,905,454,0,0,0,3,4,1,34,0003-00-0008-44.png,0004-00-0003-29.png
00000014,474,0,1440084834938,1440084835461,920,415,0,0,0,2,3,1,23,0002-00-0003-46.png,0003-00-0006-36.png
00000014,475,0,1440084838474,1440084838486,508,411,0,0,0,4,3,1,43,0004-00-0009-20.png,0003-00-0009-98.png
00000014,476,1,1440084841332,1440084841801,346,367,0,0,0,4,5,1,45,0004-00-0003-31.png,0005-00-0007-62.png
00000014,477,0,1440084842726,1440084843282,400,539,0,0,0,2,1,1,21,0002-00-0006-57.png,0001-00-0007-53.png
00000014,478,0,1440084846136,1440084846604,422,514,0,0,0,3,2,1,32,0003-00-0005-76.png,0002-00-0007-91.png
00000014,479,0,1440084849714,1440084850186,904,415,0,0,0,1,2,1,12,0001-00-0004-68.png,0002-00-0007-81.png
00000014,480,0,1440084853205,1440084853665,358,367,0,0,0,5,4,1,54,0005-00-0000-23.png,0004-00-0000-61.png
00000014,481,1,1440084856573,1440084857063,401,358,0,0,0,1,2,1,12,0001-00-0007-65.png,0002-00-0006-19.png
00000014,482,0,1440084857985,1440084858616,372,488,0,0,0,4,3,1,43,0004-00-0007-44.png,0003-00-0002-51.png
00000014,483,1,1440084861638,1440084861650,521,427,0,0,0,3,4,1,34,0003-00-0005-99.png,0004-00-0005-61.png
00000014,484,1,1440084862726,1440084863204,343,399,0,0,0,4,5,1,45,0004-00-0003-04.png,0005-00-0005-50.png
00000014,485,1,1440084864305,1440084864860,338,410,0,0,0,2,3,1,23,0002-00-0001-30.png,0003-00-0009-57.png
00000014,486,0,1440084865913,1440084866911,375,515,0,0,0,3,2,1,32,0003-00-0005-29.png,0002-00-0007-90.png
00000014,487,0,1440084869922,1440084870376,360,388,0,0,0,2,1,1,21,0002-00-0009-58.png,0001-00-0006-50.png
00000014,488,0,1440084873389,1440084874005,310,386,0,0,0,5,4,1,54,0005-00-0007-71.png,0004-00-0002-11.png
00000014,489,1,1440084876946,1440084876966,519,446,0,0,0,2,3,1,23,0002-00-0000-61.png,0003-00-0005-52.png
00000014,490,1,1440084877923,1440084878410,860,534,0,0,0,2,1,1,21,0002-00-0004-15.png,0001-00-0009-98.png
00000014,491,1,1440084879333,1440084879908,884,435,0,0,0,4,3,1,43,0004-00-0000-18.png,0003-00-0007-08.png
00000014,492,1,1440084880889,1440084881430,899,410,0,0,0,3,2,1,32,0003-00-0001-38.png,0002-00-0003-55.png
00000014,493,0,1440084882392,1440084883433,947,403,0,0,0,3,4,1,34,0003-00-0006-42.png,0004-00-0007-85.png
00000014,494,1,1440084886430,1440084887022,317,383,0,0,0,4,5,1,45,0004-00-0007-90.png,0005-00-0001-02.png
00000014,495,1,1440084887949,1440084888524,336,436,0,0,0,1,2,1,12,0001-00-0001-14.png,0002-00-0006-55.png
00000014,496,0,1440084889548,1440084890491,346,420,0,0,0,5,4,1,54,0005-00-0000-00.png,0004-00-0008-25.png
00000014,497,0,1440084893594,1440084894034,363,403,0,0,0,5,4,1,54,0005-00-0000-16.png,0004-00-0002-03.png
00000014,498,1,1440084897182,1440084897663,376,436,0,0,0,2,3,1,23,0002-00-0007-68.png,0003-00-0005-85.png
00000014,499,1,1440084898612,1440084899263,917,418,0,0,0,3,2,1,32,0003-00-0008-75.png,0002-00-0009-48.png
00000014,500,1,1440084900233,1440084900799,348,406,0,0,0,3,4,1,34,0003-00-0008-00.png,0004-00-0008-70.png
00000014,501,1,1440084901732,1440084902319,388,434,0,0,0,4,5,1,45,0004-00-0009-48.png,0005-00-0001-45.png
00000014,502,0,1440084903343,1440084903897,325,398,0,0,0,2,1,1,21,0002-00-0004-21.png,0001-00-0009-58.png
00000014,503,1,1440084908877,1440084909568,366,375,0,0,0,1,2,1,12,0001-00-0004-56.png,0002-00-0008-69.png
00000014,504,0,1440084910597,1440084911099,331,413,0,0,0,4,3,1,43,0004-00-0001-39.png,0003-00-0006-04.png
00000014,505,1,1440084917317,1440084917848,891,469,0,0,0,3,2,1,32,0003-00-0000-84.png,0002-00-0009-87.png
00000014,506,0,1440084918851,1440084919415,350,506,0,0,0,5,4,1,54,0005-00-0003-71.png,0004-00-0009-57.png
00000014,507,1,1440084922676,1440084923143,350,423,0,0,0,1,2,1,12,0001-00-0008-00.png,0002-00-0001-20.png
00000014,508,0,1440084924069,1440084924669,347,381,0,0,0,4,3,1,43,0004-00-0002-39.png,0003-00-0001-49.png
00000014,509,1,1440084928041,1440084928604,888,421,0,0,0,2,1,1,21,0002-00-0008-60.png,0001-00-0006-39.png
00000014,510,1,1440084929504,1440084930079,416,534,0,0,0,3,4,1,34,0003-00-0001-13.png,0004-00-0002-88.png
00000014,511,1,1440084931036,1440084931533,366,433,0,0,0,4,5,1,45,0004-00-0002-50.png,0005-00-0002-44.png
00000014,512,0,1440084932606,1440084933171,926,385,0,0,0,2,3,1,23,0002-00-0000-08.png,0003-00-0008-23.png
00000014,513,0,1440084937192,1440084937722,905,454,0,0,0,4,5,1,45,0004-00-0006-79.png,0005-00-0003-79.png
00000014,514,1,1440084940818,1440084941358,335,409,0,0,0,2,3,1,23,0002-00-0007-50.png,0003-00-0001-60.png
00000014,515,1,1440084942287,1440084942850,896,420,0,0,0,5,4,1,54,0005-00-0009-72.png,0004-00-0009-85.png
00000014,516,1,1440084943755,1440084944844,906,410,0,0,0,4,3,1,43,0004-00-0002-73.png,0003-00-0009-32.png
00000014,517,1,1440084945736,1440084946329,348,421,0,0,0,1,2,1,12,0001-00-0008-41.png,0002-00-0002-70.png
00000014,518,1,1440084947396,1440084947930,904,402,0,0,0,2,1,1,21,0002-00-0007-33.png,0001-00-0002-62.png
00000014,519,0,1440084948844,1440084949370,878,507,0,0,0,3,4,1,34,0003-00-0008-58.png,0004-00-0004-30.png
00000014,520,0,1440084952390,1440084952881,401,424,0,0,0,3,2,1,32,0003-00-0006-68.png,0002-00-0005-82.png
00000014,521,1,1440084956695,1440084957195,904,402,0,0,0,5,4,1,54,0005-00-0008-19.png,0004-00-0004-92.png
00000014,522,0,1440084958176,1440084959230,919,534,0,0,0,1,2,1,12,0001-00-0008-21.png,0002-00-0000-06.png
00000014,523,0,1440084964705,1440084965177,875,435,0,0,0,4,5,1,45,0004-00-0008-72.png,0005-00-0009-65.png
00000014,524,1,1440084969218,1440084969720,273,423,0,0,0,3,4,1,34,0003-00-0007-11.png,0004-00-0000-72.png
00000014,525,0,1440084970728,1440084971253,865,429,0,0,0,2,3,1,23,0002-00-0009-89.png,0003-00-0002-35.png
00000014,526,0,1440084974154,1440084974672,341,390,0,0,0,3,2,1,32,0003-00-0000-54.png,0002-00-0005-93.png
00000014,527,0,1440084978243,1440084979181,372,418,0,0,0,2,1,1,21,0002-00-0008-49.png,0001-00-0006-12.png
00000014,528,1,1440084982315,1440084982944,899,483,0,0,0,4,3,1,43,0004-00-0006-45.png,0003-00-0009-36.png
00000014,529,0,1440084983916,1440084984988,900,398,0,0,0,2,3,1,23,0002-00-0000-58.png,0003-00-0009-92.png
00000014,530,1,1440084988307,1440084988806,340,401,0,0,0,1,2,1,12,0001-00-0002-73.png,0002-00-0008-29.png
00000014,531,1,1440084989710,1440084990256,951,413,0,0,0,4,3,1,43,0004-00-0006-47.png,0003-00-0007-29.png
00000014,532,1,1440084991227,1440084991749,401,410,0,0,0,3,4,1,34,0003-00-0006-18.png,0004-00-0000-83.png
00000014,533,1,1440084992709,1440084993260,872,436,0,0,0,2,1,1,21,0002-00-0006-24.png,0001-00-0005-31.png
00000014,534,0,1440084994279,1440084995042,344,384,0,0,0,3,2,1,32,0003-00-0004-21.png,0002-00-0002-09.png
00000014,535,1,1440084998117,1440084998548,904,402,0,0,0,5,4,1,54,0005-00-0000-23.png,0004-00-0008-97.png
00000014,536,1,1440084999528,1440085000054,427,526,0,0,0,4,5,1,45,0004-00-0004-33.png,0005-00-0007-71.png
00000014,537,1,1440085001480,1440085002118,366,366,0,0,0,4,5,1,45,0004-00-0005-97.png,0005-00-0001-07.png
00000014,538,1,1440085003217,1440085003772,876,423,0,0,0,4,3,1,43,0004-00-0004-22.png,0003-00-0005-16.png
00000014,539,0,1440085004745,1440085005301,273,488,0,0,0,2,1,1,21,0002-00-0008-04.png,0001-00-0002-12.png
00000014,540,1,1440085008169,1440085008781,929,402,0,0,0,5,4,1,54,0005-00-0009-88.png,0004-00-0008-34.png
00000014,541,1,1440085009675,1440085010292,414,553,0,0,0,3,4,1,34,0003-00-0004-37.png,0004-00-0005-74.png
00000014,542,1,1440085011291,1440085011848,872,462,0,0,0,3,2,1,32,0003-00-0008-82.png,0002-00-0003-13.png
00000014,543,1,1440085012864,1440085013374,370,433,0,0,0,2,3,1,23,0002-00-0006-91.png,0003-00-0003-44.png
00000014,544,0,1440085014384,1440085015146,928,440,0,0,0,1,2,1,12,0001-00-0006-84.png,0002-00-0006-76.png
00000014,545,1,1440085018552,1440085019093,339,404,0,0,0,3,4,1,34,0003-00-0006-08.png,0004-00-0009-69.png
00000014,546,1,1440085020018,1440085020602,890,445,0,0,0,3,2,1,32,0003-00-0002-19.png,0002-00-0000-10.png
00000014,547,1,1440085021559,1440085022134,362,411,0,0,0,1,2,1,12,0001-00-0003-48.png,0002-00-0004-14.png
00000014,548,1,1440085023142,1440085024162,436,562,0,0,0,2,3,1,23,0002-00-0000-49.png,0003-00-0008-60.png
00000014,549,0,1440085025175,1440085025199,504,488,0,0,0,5,4,1,54,0005-00-0002-24.png,0004-00-0004-75.png
00000014,550,0,1440085028246,1440085028282,493,500,0,0,0,4,3,1,43,0004-00-0002-50.png,0003-00-0009-69.png
00000014,551,1,1440085031168,1440085031683,339,397,0,0,0,4,5,1,45,0004-00-0007-91.png,0005-00-0001-64.png
00000014,552,0,1440085032650,1440085033591,358,385,0,0,0,2,1,1,21,0002-00-0002-66.png,0001-00-0002-08.png
00000014,553,1,1440085036491,1440085037426,395,455,0,0,0,3,4,1,34,0003-00-0004-30.png,0004-00-0006-36.png
00000014,554,0,1440085038391,1440085038976,401,410,0,0,0,3,2,1,32,0003-00-0008-33.png,0002-00-0001-70.png
00000014,555,1,1440085041861,1440085041869,520,493,0,0,0,1,2,1,12,0001-00-0001-47.png,0002-00-0004-88.png
00000014,556,1,1440085042867,1440085043459,396,515,0,0,0,2,3,1,23,0002-00-0001-63.png,0003-00-0000-54.png
00000014,557,0,1440085044495,1440085045131,879,403,0,0,0,4,5,1,45,0004-00-0009-23.png,0005-00-0000-33.png
00000014,558,0,1440085048201,1440085048656,334,397,0,0,0,5,4,1,54,0005-00-0003-22.png,0004-00-0000-72.png
00000014,559,1,1440085051919,1440085052533,930,402,0,0,0,4,3,1,43,0004-00-0006-31.png,0003-00-0007-27.png
00000014,560,1,1440085053550,1440085054073,875,496,0,0,0,2,1,1,21,0002-00-0005-45.png,0001-00-0007-63.png
00000014,561,1,1440085055139,1440085055655,332,415,0,0,0,4,5,1,45,0004-00-0009-57.png,0005-00-0005-03.png
00000014,562,0,1440085057125,1440085058054,891,455,0,0,0,3,4,1,34,0003-00-0006-27.png,0004-00-0001-64.png
00000014,563,1,1440085060942,1440085061508,874,488,0,0,0,4,3,1,43,0004-00-0005-47.png,0003-00-0005-54.png
00000014,564,0,1440085062441,1440085062959,401,398,0,0,0,3,2,1,32,0003-00-0003-41.png,0002-00-0008-85.png
00000014,565,1,1440085065952,1440085066435,346,379,0,0,0,1,2,1,12,0001-00-0003-42.png,0002-00-0008-26.png
00000014,566,1,1440085067342,1440085067946,370,405,0,0,0,2,3,1,23,0002-00-0005-61.png,0003-00-0008-87.png
00000014,567,0,1440085068894,1440085069458,373,387,0,0,0,5,4,1,54,0005-00-0003-26.png,0004-00-0005-62.png
00000014,568,1,1440085072689,1440085073132,876,408,0,0,0,2,1,1,21,0002-00-0001-33.png,0001-00-0009-54.png
00000014,569,0,1440085074029,1440085074576,372,410,0,0,0,3,2,1,32,0003-00-0005-37.png,0002-00-0002-41.png
00000014,570,0,1440085077460,1440085077936,360,397,0,0,0,2,1,1,21,0002-00-0000-24.png,0001-00-0002-28.png
00000014,571,1,1440085081541,1440085082069,900,436,0,0,0,5,4,1,54,0005-00-0005-71.png,0004-00-0002-19.png
00000014,572,1,1440085083004,1440085083592,376,410,0,0,0,4,5,1,45,0004-00-0006-22.png,0005-00-0003-10.png
00000014,573,1,1440085084575,1440085085118,862,501,0,0,0,4,3,1,43,0004-00-0008-18.png,0003-00-0006-70.png
00000014,574,1,1440085086075,1440085086667,434,380,0,0,0,2,3,1,23,0002-00-0000-21.png,0003-00-0005-89.png
00000014,575,1,1440085087718,1440085088684,419,506,0,0,0,3,4,1,34,0003-00-0007-43.png,0004-00-0009-58.png
00000014,576,1,1440085090070,1440085090588,352,432,0,0,0,1,2,1,12,0001-00-0008-75.png,0002-00-0005-96.png
00000014,577,0,1440085091986,1440085092554,304,360,0,0,0,5,4,1,54,0005-00-0008-27.png,0004-00-0004-50.png
00000014,578,1,1440085095415,1440085095914,376,410,0,0,0,4,5,1,45,0004-00-0003-29.png,0005-00-0001-24.png
00000014,579,0,1440085096951,1440085097550,414,528,0,0,0,4,3,1,43,0004-00-0003-00.png,0003-00-0005-15.png
00000014,580,1,1440085100476,1440085101001,340,393,0,0,0,3,4,1,34,0003-00-0000-14.png,0004-00-0000-56.png
00000014,581,1,1440085101935,1440085102510,349,431,0,0,0,1,2,1,12,0001-00-0004-46.png,0002-00-0007-62.png
00000014,582,0,1440085103489,1440085104042,350,423,0,0,0,3,2,1,32,0003-00-0004-19.png,0002-00-0002-95.png
00000014,583,0,1440085106993,1440085107670,965,408,0,0,0,2,3,1,23,0002-00-0001-13.png,0003-00-0000-92.png
00000014,584,0,1440085111229,1440085111703,350,396,0,0,0,2,1,1,21,0002-00-0001-60.png,0001-00-0008-78.png
00000014,585,1,1440085114765,1440085115337,861,371,0,0,0,2,1,1,21,0002-00-0008-64.png,0001-00-0001-13.png
00000014,586,1,1440085116245,1440085116860,370,431,0,0,0,4,5,1,45,0004-00-0004-63.png,0005-00-0003-99.png
00000014,587,0,1440085117878,1440085118475,878,427,0,0,0,1,2,1,12,0001-00-0006-87.png,0002-00-0003-66.png
00000014,588,0,1440085121455,1440085122048,366,366,0,0,0,3,2,1,32,0003-00-0001-96.png,0002-00-0001-45.png
00000014,589,1,1440085125380,1440085125900,919,417,0,0,0,4,3,1,43,0004-00-0004-85.png,0003-00-0008-61.png
00000014,590,0,1440085126852,1440085128034,876,390,0,0,0,2,3,1,23,0002-00-0009-78.png,0003-00-0004-84.png
00000014,591,1,1440085130964,1440085131572,928,410,0,0,0,5,4,1,54,0005-00-0005-23.png,0004-00-0000-49.png
00000014,592,1,1440085132473,1440085133121,425,414,0,0,0,3,4,1,34,0003-00-0006-87.png,0004-00-0009-18.png
00000014,593,1,1440085134265,1440085135418,879,478,0,0,0,2,1,1,21,0002-00-0004-14.png,0001-00-0002-73.png
00000014,594,0,1440085136350,1440085136993,401,462,0,0,0,4,3,1,43,0004-00-0000-80.png,0003-00-0007-48.png
00000014,595,1,1440085139937,1440085139981,519,519,0,0,0,3,4,1,34,0003-00-0006-82.png,0004-00-0002-45.png
00000014,596,1,1440085140923,1440085141575,415,528,0,0,0,1,2,1,12,0001-00-0009-21.png,0002-00-0006-96.png
00000014,597,0,1440085142552,1440085143234,369,384,0,0,0,5,4,1,54,0005-00-0003-38.png,0004-00-0005-21.png
00000014,598,1,1440085146137,1440085146651,343,399,0,0,0,4,5,1,45,0004-00-0001-17.png,0005-00-0007-94.png
00000014,599,0,1440085147652,1440085148152,888,410,0,0,0,2,3,1,23,0002-00-0005-90.png,0003-00-0002-93.png
00000014,600,1,1440085151197,1440085151735,875,449,0,0,0,3,2,1,32,0003-00-0000-56.png,0002-00-0005-38.png
00000014,601,0,1440085152760,1440085153392,376,360,0,0,0,3,2,1,32,0003-00-0000-90.png,0002-00-0001-58.png
00000014,602,1,1440085156486,1440085157008,407,530,0,0,0,2,3,1,23,0002-00-0001-15.png,0003-00-0007-12.png
00000014,603,1,1440085158056,1440085158573,338,442,0,0,0,1,2,1,12,0001-00-0000-51.png,0002-00-0002-03.png
00000014,604,0,1440085159675,1440085160267,875,409,0,0,0,3,4,1,34,0003-00-0008-89.png,0004-00-0001-06.png
00000014,605,0,1440085163235,1440085163728,399,385,0,0,0,2,1,1,21,0002-00-0001-80.png,0001-00-0000-79.png
00000014,606,1,1440085166930,1440085167515,904,402,0,0,0,4,3,1,43,0004-00-0007-30.png,0003-00-0002-96.png
00000014,607,1,1440085168542,1440085169176,361,371,0,0,0,4,5,1,45,0004-00-0007-61.png,0005-00-0000-14.png
00000014,608,1,1440085170202,1440085170848,878,410,0,0,0,5,4,1,54,0005-00-0005-16.png,0004-00-0003-74.png
00000014,609,1,1440085171881,1440085172772,887,424,0,0,0,4,3,1,43,0004-00-0002-41.png,0003-00-0008-00.png
00000014,610,0,1440085174094,1440085174706,875,437,0,0,0,3,4,1,34,0003-00-0002-52.png,0004-00-0008-36.png
00000014,611,1,1440085177949,1440085178373,376,424,0,0,0,4,5,1,45,0004-00-0003-78.png,0005-00-0006-82.png
00000014,612,1,1440085179391,1440085179939,874,508,0,0,0,2,1,1,21,0002-00-0003-33.png,0001-00-0009-68.png
00000014,613,0,1440085180971,1440085181525,415,515,0,0,0,5,4,1,54,0005-00-0005-05.png,0004-00-0002-36.png
00000014,614,1,1440085184377,1440085184894,405,506,0,0,0,2,3,1,23,0002-00-0003-33.png,0003-00-0004-57.png
00000014,615,0,1440085185856,1440085186411,426,565,0,0,0,3,2,1,32,0003-00-0001-09.png,0002-00-0008-54.png
00000014,616,1,1440085189277,1440085189865,338,397,0,0,0,1,2,1,12,0001-00-0008-66.png,0002-00-0002-47.png
00000014,617,1,1440085190825,1440085191862,900,502,0,0,0,5,4,1,54,0005-00-0001-56.png,0004-00-0005-88.png
00000014,618,1,1440085192787,1440085193408,391,445,0,0,0,4,5,1,45,0004-00-0001-76.png,0005-00-0003-39.png
00000014,619,1,1440085194451,1440085195006,878,428,0,0,0,3,2,1,32,0003-00-0006-59.png,0002-00-0000-10.png
00000014,620,0,1440085195938,1440085197065,866,391,0,0,0,2,3,1,23,0002-00-0008-16.png,0003-00-0007-40.png
00000014,621,1,1440085199936,1440085200450,902,414,0,0,0,4,3,1,43,0004-00-0007-58.png,0003-00-0008-66.png
00000014,622,0,1440085201374,1440085201925,368,420,0,0,0,2,1,1,21,0002-00-0006-26.png,0001-00-0000-47.png
00000014,623,1,1440085205023,1440085205031,483,513,0,0,0,3,4,1,34,0003-00-0006-82.png,0004-00-0008-21.png
00000014,624,1,1440085206393,1440085206894,321,407,0,0,0,1,2,1,12,0001-00-0000-29.png,0002-00-0002-76.png
00000014,625,0,1440085207923,1440085208476,879,401,0,0,0,2,3,1,23,0002-00-0009-53.png,0003-00-0003-77.png
00000014,626,1,1440085211423,1440085212108,911,399,0,0,0,3,2,1,32,0003-00-0002-61.png,0002-00-0008-93.png
00000014,627,1,1440085213072,1440085213654,370,421,0,0,0,3,4,1,34,0003-00-0006-88.png,0004-00-0002-96.png
00000014,628,0,1440085214646,1440085214670,504,462,0,0,0,2,1,1,21,0002-00-0008-09.png,0001-00-0002-01.png
00000014,629,1,1440085217834,1440085218340,389,514,0,0,0,1,2,1,12,0001-00-0005-39.png,0002-00-0001-94.png
00000014,630,1,1440085219352,1440085219925,341,442,0,0,0,4,5,1,45,0004-00-0002-15.png,0005-00-0005-76.png
00000014,631,0,1440085220974,1440085222134,349,429,0,0,0,5,4,1,54,0005-00-0004-57.png,0004-00-0009-03.png
00000014,632,0,1440085225131,1440085225529,342,411,0,0,0,4,3,1,43,0004-00-0004-04.png,0003-00-0004-27.png
00000014,633,1,1440085228706,1440085229228,879,428,0,0,0,3,2,1,32,0003-00-0005-78.png,0002-00-0006-47.png
00000014,634,1,1440085230214,1440085230770,367,384,0,0,0,3,4,1,34,0003-00-0000-95.png,0004-00-0002-92.png
00000014,635,1,1440085231775,1440085232329,248,488,0,0,0,4,5,1,45,0004-00-0006-70.png,0005-00-0008-84.png
00000014,636,1,1440085233843,1440085234445,878,402,0,0,0,4,3,1,43,0004-00-0002-23.png,0003-00-0005-55.png
00000014,637,1,1440085235883,1440085236407,369,426,0,0,0,2,3,1,23,0002-00-0007-97.png,0003-00-0001-77.png
00000014,638,1,1440085237857,1440085238928,388,450,0,0,0,1,2,1,12,0001-00-0006-10.png,0002-00-0006-48.png
00000014,639,0,1440085239935,1440085240508,370,409,0,0,0,5,4,1,54,0005-00-0005-20.png,0004-00-0007-77.png
00000014,640,1,1440085243411,1440085243930,905,427,0,0,0,2,1,1,21,0002-00-0002-87.png,0001-00-0003-96.png
00000014,641,0,1440085245370,1440085245873,353,399,0,0,0,5,4,1,54,0005-00-0004-28.png,0004-00-0000-20.png
00000014,642,0,1440085248792,1440085248800,517,504,0,0,0,4,3,1,43,0004-00-0009-01.png,0003-00-0008-94.png
00000014,643,1,1440085253574,1440085254097,900,462,0,0,0,3,2,1,32,0003-00-0002-33.png,0002-00-0004-57.png
00000014,644,1,1440085255048,1440085256701,427,423,0,0,0,1,2,1,12,0001-00-0002-68.png,0002-00-0007-72.png
00000014,645,0,1440085257625,1440085263069,431,372,0,0,0,2,1,1,21,0002-00-0005-90.png,0001-00-0003-13.png
00000014,646,0,1440085266084,1440085266690,900,410,0,0,0,3,4,1,34,0003-00-0000-02.png,0004-00-0008-26.png
00000014,647,0,1440085269541,1440085270047,880,428,0,0,0,4,5,1,45,0004-00-0004-09.png,0005-00-0001-37.png
00000014,648,1,1440085272881,1440085273796,344,451,0,0,0,2,3,1,23,0002-00-0005-22.png,0003-00-0000-67.png
00000014,649,1,1440085274778,1440085275301,348,412,0,0,0,3,4,1,34,0003-00-0007-69.png,0004-00-0001-53.png
00000014,650,0,1440085276252,1440085276861,401,384,0,0,0,4,3,1,43,0004-00-0005-78.png,0003-00-0006-23.png
00000014,651,0,1440085279947,1440085280483,312,382,0,0,0,5,4,1,54,0005-00-0002-72.png,0004-00-0004-12.png
00000014,652,0,1440085283394,1440085283888,309,375,0,0,0,2,1,1,21,0002-00-0007-81.png,0001-00-0002-31.png
00000014,653,1,1440085287374,1440085287905,299,351,0,0,0,4,5,1,45,0004-00-0004-43.png,0005-00-0006-18.png
00000014,654,0,1440085288953,1440085289476,924,481,0,0,0,2,3,1,23,0002-00-0003-47.png,0003-00-0005-05.png
00000014,655,1,1440085292320,1440085292812,331,383,0,0,0,1,2,1,12,0001-00-0002-06.png,0002-00-0002-73.png
00000014,656,0,1440085293752,1440085294376,355,391,0,0,0,3,2,1,32,0003-00-0008-67.png,0002-00-0008-17.png
00000014,657,1,1440085297328,1440085297823,927,398,0,0,0,2,1,1,21,0002-00-0003-32.png,0001-00-0009-50.png
00000014,658,1,1440085298759,1440085299295,351,417,0,0,0,2,3,1,23,0002-00-0007-68.png,0003-00-0006-71.png
00000014,659,0,1440085300251,1440085300828,372,418,0,0,0,3,2,1,32,0003-00-0006-67.png,0002-00-0003-71.png
00000014,660,1,1440085304542,1440085305076,292,363,0,0,0,4,5,1,45,0004-00-0009-59.png,0005-00-0003-84.png
00000014,661,1,1440085305994,1440085306571,870,427,0,0,0,4,3,1,43,0004-00-0007-21.png,0003-00-0004-45.png
00000014,662,1,1440085307513,1440085307549,506,470,0,0,0,3,4,1,34,0003-00-0006-71.png,0004-00-0009-56.png
00000014,663,1,1440085308618,1440085309230,884,417,0,0,0,5,4,1,54,0005-00-0005-06.png,0004-00-0001-49.png
00000014,664,1,1440085310176,1440085310734,356,406,0,0,0,1,2,1,12,0001-00-0002-76.png,0002-00-0005-60.png
00000014,665,1,1440085311757,1440085312329,453,527,0,0,0,2,3,1,23,0002-00-0004-04.png,0003-00-0008-51.png
00000014,666,1,1440085313278,1440085313335,478,488,0,0,0,1,2,1,12,0001-00-0004-69.png,0002-00-0000-77.png
00000014,667,0,1440085314442,1440085315456,384,437,0,0,0,3,2,1,32,0003-00-0002-35.png,0002-00-0001-98.png
00000014,668,1,1440085319966,1440085320529,900,409,0,0,0,4,3,1,43,0004-00-0003-87.png,0003-00-0001-42.png
00000014,669,1,1440085321518,1440085322503,376,394,0,0,0,3,4,1,34,0003-00-0008-96.png,0004-00-0001-16.png
00000014,670,1,1440085323597,1440085324152,456,534,0,0,0,4,5,1,45,0004-00-0000-03.png,0005-00-0007-64.png
00000014,671,1,1440085325154,1440085325700,862,410,0,0,0,2,1,1,21,0002-00-0001-79.png,0001-00-0002-80.png
00000014,672,0,1440085326764,1440085326844,508,531,0,0,0,5,4,1,54,0005-00-0000-49.png,0004-00-0006-76.png
00000014,673,0,1440085329733,1440085330160,376,397,0,0,0,3,2,1,32,0003-00-0006-17.png,0002-00-0008-87.png
00000014,674,0,1440085333213,1440085333761,342,404,0,0,0,2,1,1,21,0002-00-0004-72.png,0001-00-0001-55.png
00000014,675,0,1440085336884,1440085337369,349,397,0,0,0,4,3,1,43,0004-00-0001-91.png,0003-00-0000-48.png
00000014,676,1,1440085340321,1440085340862,401,519,0,0,0,2,3,1,23,0002-00-0007-80.png,0003-00-0007-56.png
00000014,677,1,1440085341872,1440085342394,350,398,0,0,0,4,5,1,45,0004-00-0006-94.png,0005-00-0005-44.png
00000014,678,0,1440085343373,1440085343896,866,533,0,0,0,3,4,1,34,0003-00-0004-02.png,0004-00-0001-81.png
00000014,679,1,1440085349255,1440085349766,862,416,0,0,0,5,4,1,54,0005-00-0002-88.png,0004-00-0003-18.png
00000014,680,1,1440085350804,1440085351753,404,404,0,0,0,1,2,1,12,0001-00-0000-43.png,0002-00-0003-47.png
00000014,681,1,1440085353209,1440085353723,376,404,0,0,0,3,4,1,34,0003-00-0001-70.png,0004-00-0009-36.png
00000014,682,0,1440085354758,1440085355328,350,423,0,0,0,2,1,1,21,0002-00-0003-78.png,0001-00-0004-45.png
00000014,683,1,1440085358166,1440085358596,318,400,0,0,0,4,5,1,45,0004-00-0008-51.png,0005-00-0009-42.png
00000014,684,0,1440085359540,1440085360120,359,395,0,0,0,3,2,1,32,0003-00-0007-21.png,0002-00-0002-76.png
00000014,685,0,1440085363211,1440085363754,358,375,0,0,0,5,4,1,54,0005-00-0005-03.png,0004-00-0000-22.png
00000014,686,1,1440085366614,1440085366646,508,544,0,0,0,1,2,1,12,0001-00-0007-70.png,0002-00-0005-61.png
00000014,687,0,1440085367791,1440085368289,376,512,0,0,0,4,3,1,43,0004-00-0007-75.png,0003-00-0006-48.png
00000014,688,0,1440085371146,1440085371778,876,446,0,0,0,2,3,1,23,0002-00-0002-59.png,0003-00-0004-51.png
00000014,689,1,1440085374815,1440085375361,897,433,0,0,0,3,2,1,32,0003-00-0002-20.png,0002-00-0001-57.png
00000014,690,0,1440085376344,1440085376941,339,389,0,0,0,4,3,1,43,0004-00-0004-41.png,0003-00-0007-53.png
00000014,691,0,1440085380091,1440085380618,324,407,0,0,0,5,4,1,54,0005-00-0001-99.png,0004-00-0006-53.png
00000014,692,1,1440085383710,1440085384265,337,381,0,0,0,4,5,1,45,0004-00-0006-02.png,0005-00-0007-44.png
00000014,693,0,1440085385312,1440085386281,453,410,0,0,0,2,1,1,21,0002-00-0001-42.png,0001-00-0002-93.png
00000014,694,0,1440085390558,1440085391215,902,392,0,0,0,3,4,1,34,0003-00-0009-11.png,0004-00-0008-33.png
00000014,695,1,1440085396124,1440085396632,341,432,0,0,0,2,3,1,23,0002-00-0005-75.png,0003-00-0006-29.png
00000014,696,1,1440085397553,1440085398149,335,425,0,0,0,1,2,1,12,0001-00-0004-91.png,0002-00-0006-49.png
00000014,697,1,1440085399105,1440085399603,874,438,0,0,0,2,1,1,21,0002-00-0009-95.png,0001-00-0006-35.png
00000014,698,1,1440085400556,1440085401137,369,400,0,0,0,3,4,1,34,0003-00-0008-78.png,0004-00-0000-43.png
00000014,699,1,1440085402196,1440085402711,375,423,0,0,0,4,5,1,45,0004-00-0004-69.png,0005-00-0007-15.png
00000014,700,1,1440085403686,1440085404792,900,397,0,0,0,5,4,1,54,0005-00-0000-29.png,0004-00-0003-23.png
00000014,701,1,1440085405743,1440085406728,886,463,0,0,0,3,2,1,32,0003-00-0007-95.png,0002-00-0000-93.png
00000014,702,0,1440085407668,1440085408267,380,447,0,0,0,4,3,1,43,0004-00-0008-92.png,0003-00-0009-27.png
00000014,703,1,1440085412214,1440085412230,504,514,0,0,0,1,2,1,12,0001-00-0008-18.png,0002-00-0002-51.png
00000014,704,0,1440085413226,1440085414308,876,424,0,0,0,2,3,1,23,0002-00-0005-67.png,0003-00-0005-42.png
00000014,705,1,1440085417300,1440085417848,924,412,0,0,0,5,4,1,54,0005-00-0005-56.png,0004-00-0008-56.png
00000014,706,0,1440085418777,1440085419384,873,469,0,0,0,3,4,1,34,0003-00-0002-86.png,0004-00-0001-39.png
00000014,707,1,1440085422301,1440085422905,914,476,0,0,0,2,1,1,21,0002-00-0003-18.png,0001-00-0007-37.png
00000014,708,1,1440085423810,1440085424408,878,427,0,0,0,4,3,1,43,0004-00-0004-91.png,0003-00-0007-24.png
00000014,709,1,1440085425372,1440085425895,333,427,0,0,0,1,2,1,12,0001-00-0008-29.png,0002-00-0008-11.png
00000014,710,0,1440085426933,1440085427446,867,402,0,0,0,2,3,1,23,0002-00-0003-37.png,0003-00-0006-75.png
00000014,711,1,1440085430765,1440085431283,324,400,0,0,0,4,5,1,45,0004-00-0008-61.png,0005-00-0003-15.png
00000014,712,0,1440085432299,1440085433248,327,444,0,0,0,3,2,1,32,0003-00-0001-57.png,0002-00-0001-25.png
00000014,713,0,1440085436224,1440085436766,903,440,0,0,0,2,3,1,23,0002-00-0002-87.png,0003-00-0009-66.png
00000014,714,1,1440085439650,1440085440204,301,395,0,0,0,3,4,1,34,0003-00-0000-58.png,0004-00-0009-65.png
00000014,715,1,1440085441203,1440085441718,362,400,0,0,0,4,5,1,45,0004-00-0006-76.png,0005-00-0004-17.png
00000014,716,1,1440085442754,1440085443285,342,405,0,0,0,1,2,1,12,0001-00-0003-56.png,0002-00-0003-32.png
00000014,717,1,1440085444315,1440085444895,879,417,0,0,0,3,2,1,32,0003-00-0000-39.png,0002-00-0004-69.png
00000014,718,0,1440085445859,1440085446398,401,384,0,0,0,2,1,1,21,0002-00-0005-08.png,0001-00-0000-27.png
00000014,719,0,1440085452578,1440085453093,340,415,0,0,0,5,4,1,54,0005-00-0003-67.png,0004-00-0006-58.png
00000014,720,0,1440085455946,1440085455971,504,477,0,0,0,4,3,1,43,0004-00-0006-63.png,0003-00-0001-97.png
00000014,721,1,1440085458845,1440085459456,880,401,0,0,0,5,4,1,54,0005-00-0005-02.png,0004-00-0003-55.png
00000014,722,0,1440085460402,1440085460961,927,399,0,0,0,2,3,1,23,0002-00-0004-11.png,0003-00-0008-51.png
00000014,723,1,1440085464117,1440085464767,409,360,0,0,0,3,4,1,34,0003-00-0007-23.png,0004-00-0009-63.png
00000014,724,0,1440085465691,1440085466236,904,428,0,0,0,1,2,1,12,0001-00-0006-02.png,0002-00-0000-44.png
00000014,725,1,1440085469335,1440085469884,901,414,0,0,0,3,2,1,32,0003-00-0008-73.png,0002-00-0004-92.png
00000014,726,1,1440085470868,1440085471402,366,419,0,0,0,4,5,1,45,0004-00-0000-16.png,0005-00-0003-41.png
00000014,727,0,1440085472388,1440085472925,343,426,0,0,0,2,1,1,21,0002-00-0005-69.png,0001-00-0009-80.png
00000014,728,1,1440085476171,1440085476732,870,444,0,0,0,4,3,1,43,0004-00-0009-71.png,0003-00-0009-50.png
00000014,729,0,1440085477683,1440085478168,876,441,0,0,0,2,3,1,23,0002-00-0004-58.png,0003-00-0007-64.png
00000014,730,1,1440085480996,1440085481481,345,412,0,0,0,3,4,1,34,0003-00-0008-50.png,0004-00-0003-03.png
00000014,731,1,1440085482396,1440085482979,879,428,0,0,0,2,1,1,21,0002-00-0007-11.png,0001-00-0006-57.png
00000014,732,1,1440085483964,1440085483976,480,483,0,0,0,1,2,1,12,0001-00-0007-82.png,0002-00-0004-56.png
00000014,733,0,1440085484967,1440085485489,362,413,0,0,0,3,2,1,32,0003-00-0000-93.png,0002-00-0007-85.png
00000014,734,1,1440085488951,1440085489499,375,539,0,0,0,4,5,1,45,0004-00-0005-19.png,0005-00-0001-83.png
00000014,735,0,1440085490596,1440085491147,343,402,0,0,0,5,4,1,54,0005-00-0005-45.png,0004-00-0003-44.png
00000014,736,0,1440085494293,1440085494730,345,437,0,0,0,4,3,1,43,0004-00-0008-97.png,0003-00-0009-43.png
00000014,737,0,1440085497977,1440085498514,413,523,0,0,0,2,1,1,21,0002-00-0003-76.png,0001-00-0006-48.png
00000014,738,1,1440085501662,1440085502159,359,426,0,0,0,4,5,1,45,0004-00-0006-86.png,0005-00-0008-53.png
00000014,739,0,1440085503136,1440085503668,350,438,0,0,0,3,2,1,32,0003-00-0002-60.png,0002-00-0004-76.png
00000014,740,0,1440085507121,1440085507564,376,398,0,0,0,5,4,1,54,0005-00-0004-62.png,0004-00-0005-25.png
00000014,741,1,1440085512049,1440085512613,437,534,0,0,0,1,2,1,12,0001-00-0004-89.png,0002-00-0004-29.png
00000014,742,1,1440085513641,1440085514618,350,426,0,0,0,2,3,1,23,0002-00-0002-13.png,0003-00-0000-47.png
00000014,743,1,1440085515585,1440085516214,439,555,0,0,0,3,4,1,34,0003-00-0005-98.png,0004-00-0003-12.png
00000014,744,1,1440085517258,1440085518343,928,440,0,0,0,4,3,1,43,0004-00-0000-72.png,0003-00-0005-36.png
00000014,745,1,1440085519350,1440085519927,874,412,0,0,0,3,2,1,32,0003-00-0008-07.png,0002-00-0006-72.png
00000014,746,1,1440085520945,1440085521495,403,434,0,0,0,4,5,1,45,0004-00-0006-69.png,0005-00-0007-28.png
00000014,747,1,1440085522548,1440085523085,415,416,0,0,0,3,4,1,34,0003-00-0002-35.png,0004-00-0004-85.png
00000014,748,0,1440085524214,1440085524262,497,564,0,0,0,5,4,1,54,0005-00-0002-46.png,0004-00-0008-28.png
00000014,749,1,1440085527583,1440085528536,928,442,0,0,0,2,1,1,21,0002-00-0008-42.png,0001-00-0008-30.png
00000014,750,0,1440085529481,1440085530137,901,432,0,0,0,1,2,1,12,0001-00-0005-62.png,0002-00-0003-52.png
00000014,751,1,1440085533037,1440085533532,342,391,0,0,0,2,3,1,23,0002-00-0003-43.png,0003-00-0007-29.png
00000014,752,0,1440085534600,1440085535150,416,542,0,0,0,4,3,1,43,0004-00-0008-24.png,0003-00-0006-32.png
00000014,753,0,1440085538612,1440085539552,461,428,0,0,0,4,3,1,43,0004-00-0001-53.png,0003-00-0007-13.png
00000014,754,1,1440085542465,1440085542963,320,401,0,0,0,1,2,1,12,0001-00-0007-36.png,0002-00-0005-44.png
00000014,755,1,1440085544188,1440085544691,878,535,0,0,0,2,1,1,21,0002-00-0001-87.png,0001-00-0000-76.png
00000014,756,1,1440085545638,1440085546249,400,542,0,0,0,2,3,1,23,0002-00-0007-95.png,0003-00-0006-42.png
00000014,757,1,1440085547225,1440085547237,507,501,0,0,0,3,4,1,34,0003-00-0009-17.png,0004-00-0004-60.png
00000014,758,0,1440085548295,1440085548807,401,384,0,0,0,5,4,1,54,0005-00-0003-19.png,0004-00-0002-17.png
00000014,759,0,1440085551817,1440085552279,401,498,0,0,0,3,2,1,32,0003-00-0003-77.png,0002-00-0006-48.png
00000014,760,1,1440085555238,1440085555678,416,488,0,0,0,4,5,1,45,0004-00-0001-90.png,0005-00-0003-00.png
00000014,761,0,1440085556670,1440085557215,879,454,0,0,0,2,3,1,23,0002-00-0004-02.png,0003-00-0002-90.png
00000014,762,0,1440085560045,1440085560073,504,488,0,0,0,4,3,1,43,0004-00-0002-10.png,0003-00-0004-96.png
00000014,763,1,1440085563038,1440085563050,515,506,0,0,0,1,2,1,12,0001-00-0005-38.png,0002-00-0007-33.png
00000014,764,1,1440085563986,1440085564492,903,443,0,0,0,2,1,1,21,0002-00-0002-00.png,0001-00-0000-76.png
00000014,765,0,1440085565434,1440085566007,364,419,0,0,0,5,4,1,54,0005-00-0005-71.png,0004-00-0009-99.png
00000014,766,1,1440085569144,1440085569612,437,543,0,0,0,3,4,1,34,0003-00-0000-66.png,0004-00-0004-54.png
00000014,767,1,1440085570522,1440085571151,384,428,0,0,0,4,5,1,45,0004-00-0007-66.png,0005-00-0001-73.png
00000014,768,0,1440085572054,1440085572681,371,420,0,0,0,3,2,1,32,0003-00-0006-03.png,0002-00-0009-79.png
00000014,769,0,1440085575680,1440085576241,401,397,0,0,0,3,2,1,32,0003-00-0001-81.png,0002-00-0005-13.png
00000014,770,0,1440085579309,1440085579809,863,449,0,0,0,3,4,1,34,0003-00-0002-81.png,0004-00-0009-30.png
00000014,771,0,1440085583432,1440085583959,427,397,0,0,0,4,3,1,43,0004-00-0006-10.png,0003-00-0000-40.png
00000014,772,1,1440085588075,1440085588612,948,445,0,0,0,2,1,1,21,0002-00-0001-24.png,0001-00-0009-30.png
00000014,773,0,1440085589631,1440085590242,859,394,0,0,0,1,2,1,12,0001-00-0002-00.png,0002-00-0006-13.png
00000014,774,1,1440085593320,1440085593761,350,410,0,0,0,2,3,1,23,0002-00-0001-19.png,0003-00-0007-47.png
00000014,775,0,1440085594593,1440085595170,299,462,0,0,0,5,4,1,54,0005-00-0004-51.png,0004-00-0003-96.png
00000014,776,0,1440085598110,1440085598715,889,475,0,0,0,4,5,1,45,0004-00-0004-49.png,0005-00-0004-62.png
00000014,777,0,1440085601668,1440085602124,384,393,0,0,0,4,3,1,43,0004-00-0004-64.png,0003-00-0000-74.png
00000014,778,1,1440085605061,1440085605530,376,373,0,0,0,1,2,1,12,0001-00-0009-45.png,0002-00-0004-70.png
00000014,779,0,1440085606489,1440085607101,875,403,0,0,0,2,3,1,23,0002-00-0007-25.png,0003-00-0006-56.png
00000014,780,1,1440085610175,1440085610658,368,424,0,0,0,4,5,1,45,0004-00-0000-19.png,0005-00-0000-79.png
00000014,781,1,1440085611616,1440085612214,364,424,0,0,0,3,4,1,34,0003-00-0009-03.png,0004-00-0004-32.png
00000014,782,0,1440085613168,1440085613747,376,423,0,0,0,3,2,1,32,0003-00-0004-24.png,0002-00-0001-37.png
00000014,783,1,1440085616783,1440085617318,903,439,0,0,0,5,4,1,54,0005-00-0000-59.png,0004-00-0009-68.png
00000014,784,0,1440085618256,1440085618831,426,384,0,0,0,2,1,1,21,0002-00-0004-05.png,0001-00-0000-03.png
00000014,785,0,1440085621670,1440085622128,372,412,0,0,0,5,4,1,54,0005-00-0007-62.png,0004-00-0000-07.png
00000014,786,1,1440085625432,1440085625885,352,415,0,0,0,3,4,1,34,0003-00-0003-85.png,0004-00-0007-31.png
00000014,787,1,1440085626716,1440085627842,908,539,0,0,0,2,1,1,21,0002-00-0005-02.png,0001-00-0002-03.png
00000014,788,1,1440085628740,1440085629730,413,397,0,0,0,1,2,1,12,0001-00-0007-35.png,0002-00-0005-39.png
00000014,789,0,1440085630668,1440085631232,375,425,0,0,0,3,2,1,32,0003-00-0009-73.png,0002-00-0008-05.png
00000014,790,0,1440085634345,1440085634976,902,415,0,0,0,4,5,1,45,0004-00-0009-94.png,0005-00-0006-11.png
00000014,791,1,1440085647504,1440085647992,292,371,0,0,0,2,3,1,23,0002-00-0005-02.png,0003-00-0005-75.png
00000014,792,1,1440085648987,1440085649551,863,398,0,0,0,4,3,1,43,0004-00-0002-90.png,0003-00-0003-47.png
00000014,793,0,1440085650459,1440085651022,373,395,0,0,0,4,3,1,43,0004-00-0007-97.png,0003-00-0007-84.png
00000014,794,1,1440085657918,1440085658451,912,398,0,0,0,5,4,1,54,0005-00-0004-11.png,0004-00-0005-90.png
00000014,795,1,1440085659376,1440085659396,504,446,0,0,0,3,4,1,34,0003-00-0005-41.png,0004-00-0006-23.png
00000014,796,0,1440085660468,1440085660978,389,501,0,0,0,2,1,1,21,0002-00-0003-51.png,0001-00-0007-55.png
00000014,797,0,1440085670507,1440085671168,336,345,0,0,0,3,2,1,32,0003-00-0007-07.png,0002-00-0007-07.png
00000014,798,1,1440085675086,1440085675623,385,547,0,0,0,1,2,1,12,0001-00-0009-15.png,0002-00-0003-05.png
00000014,799,1,1440085676527,1440085677084,362,409,0,0,0,4,5,1,45,0004-00-0004-14.png,0005-00-0001-82.png
00000014,800,1,1440085677978,1440085678544,364,420,0,0,0,2,3,1,23,0002-00-0007-26.png,0003-00-0009-28.png
00000014,801,0,1440085679441,1440085679974,363,398,0,0,0,3,2,1,32,0003-00-0009-83.png,0002-00-0007-07.png
00000014,802,0,1440085682808,1440085683266,912,425,0,0,0,3,4,1,34,0003-00-0000-58.png,0004-00-0006-84.png
00000014,803,1,1440085686338,1440085686751,387,384,0,0,0,1,2,1,12,0001-00-0006-02.png,0002-00-0007-44.png
00000014,804,0,1440085687956,1440085688455,438,502,0,0,0,4,3,1,43,0004-00-0001-45.png,0003-00-0004-21.png
00000014,805,1,1440085698215,1440085698736,890,444,0,0,0,5,4,1,54,0005-00-0005-05.png,0004-00-0005-37.png
00000014,806,0,1440085699716,1440085700409,867,537,0,0,0,4,5,1,45,0004-00-0002-83.png,0005-00-0005-40.png
00000014,807,0,1440085704295,1440085704740,350,449,0,0,0,2,1,1,21,0002-00-0003-08.png,0001-00-0006-77.png
00000014,808,0,1440085728911,1440085729385,913,431,0,0,0,2,3,1,23,0002-00-0000-35.png,0003-00-0008-51.png
00000014,809,1,1440085732300,1440085732834,931,390,0,0,0,4,3,1,43,0004-00-0001-35.png,0003-00-0007-31.png
00000014,810,1,1440085734043,1440085734567,382,513,0,0,0,3,4,1,34,0003-00-0006-32.png,0004-00-0003-57.png
00000014,811,1,1440085735452,1440085736025,365,404,0,0,0,2,3,1,23,0002-00-0007-79.png,0003-00-0008-71.png
00000014,812,1,1440085736951,1440085737517,902,495,0,0,0,2,1,1,21,0002-00-0001-75.png,0001-00-0009-02.png
00000014,813,1,1440085738367,1440085738975,401,384,0,0,0,1,2,1,12,0001-00-0003-28.png,0002-00-0004-23.png
00000014,814,1,1440085739936,1440085740435,349,374,0,0,0,4,5,1,45,0004-00-0003-77.png,0005-00-0002-89.png
00000014,815,0,1440085741346,1440085741914,344,422,0,0,0,3,2,1,32,0003-00-0008-17.png,0002-00-0001-45.png
00000014,816,0,1440085749556,1440085750167,295,544,0,0,0,5,4,1,54,0005-00-0004-50.png,0004-00-0002-05.png
00000014,817,1,1440085753752,1440085754268,376,422,0,0,0,1,2,1,12,0001-00-0006-78.png,0002-00-0007-75.png
00000014,818,0,1440085755533,1440085756088,273,397,0,0,0,4,3,1,43,0004-00-0008-67.png,0003-00-0005-92.png
00000014,819,0,1440085759728,1440085760160,335,419,0,0,0,3,2,1,32,0003-00-0006-86.png,0002-00-0001-65.png
00000014,820,1,1440085765809,1440085766331,409,402,0,0,0,4,5,1,45,0004-00-0004-87.png,0005-00-0002-26.png
00000014,821,1,1440085768965,1440085769432,333,402,0,0,0,2,3,1,23,0002-00-0008-33.png,0003-00-0001-35.png
00000014,822,0,1440085770669,1440085771294,319,436,0,0,0,5,4,1,54,0005-00-0000-76.png,0004-00-0004-53.png
00000014,823,1,1440085775957,1440085776446,401,397,0,0,0,3,4,1,34,0003-00-0005-95.png,0004-00-0001-05.png
00000014,824,1,1440085778421,1440085778931,901,424,0,0,0,2,1,1,21,0002-00-0007-13.png,0001-00-0005-93.png
00000014,825,1,1440085780049,1440085780526,381,433,0,0,0,3,4,1,34,0003-00-0002-25.png,0004-00-0005-93.png
00000014,826,0,1440085781496,1440085782004,349,431,0,0,0,5,4,1,54,0005-00-0004-43.png,0004-00-0006-65.png
00000014,827,1,1440085786269,1440085786845,414,497,0,0,0,1,2,1,12,0001-00-0001-30.png,0002-00-0006-08.png
00000014,828,0,1440085787917,1440085788438,340,423,0,0,0,3,2,1,32,0003-00-0003-21.png,0002-00-0000-34.png
00000014,829,0,1440085791290,1440085791769,925,410,0,0,0,2,3,1,23,0002-00-0006-41.png,0003-00-0006-58.png
00000014,830,0,1440085794746,1440085795226,439,526,0,0,0,2,1,1,21,0002-00-0007-17.png,0001-00-0009-22.png
00000014,831,1,1440085799300,1440085799850,350,409,0,0,0,4,5,1,45,0004-00-0007-80.png,0005-00-0003-03.png
00000014,832,1,1440085801192,1440085801686,877,442,0,0,0,4,3,1,43,0004-00-0001-16.png,0003-00-0006-09.png
00000014,833,0,1440085802961,1440085803459,401,423,0,0,0,4,3,1,43,0004-00-0006-31.png,0003-00-0009-19.png
00000014,834,1,1440085806425,1440085806919,427,358,0,0,0,4,5,1,45,0004-00-0009-73.png,0005-00-0000-55.png
00000014,835,1,1440085807921,1440085808427,453,462,0,0,0,3,4,1,34,0003-00-0000-37.png,0004-00-0008-08.png
00000014,836,1,1440085809484,1440085810027,385,423,0,0,0,1,2,1,12,0001-00-0000-07.png,0002-00-0007-96.png
00000014,837,0,1440085811171,1440085811763,438,549,0,0,0,2,1,1,21,0002-00-0002-18.png,0001-00-0009-41.png
00000014,838,0,1440085814725,1440085815224,427,436,0,0,0,3,2,1,32,0003-00-0009-10.png,0002-00-0009-19.png
00000014,839,1,1440085818198,1440085818721,313,386,0,0,0,2,3,1,23,0002-00-0004-47.png,0003-00-0009-52.png
00000014,840,0,1440085819706,1440085820234,362,437,0,0,0,5,4,1,54,0005-00-0004-51.png,0004-00-0001-46.png
00000014,841,0,1440085823314,1440085823350,523,546,0,0,0,2,1,1,21,0002-00-0002-99.png,0001-00-0008-86.png
00000014,842,1,1440085827510,1440085828028,409,428,0,0,0,2,3,1,23,0002-00-0000-17.png,0003-00-0009-61.png
00000014,843,1,1440085829169,1440085829981,888,492,0,0,0,3,2,1,32,0003-00-0003-27.png,0002-00-0001-50.png
00000014,844,0,1440085830996,1440085831590,369,451,0,0,0,5,4,1,54,0005-00-0002-30.png,0004-00-0003-60.png
00000014,845,1,1440085834586,1440085835030,427,410,0,0,0,3,4,1,34,0003-00-0001-57.png,0004-00-0008-37.png
00000014,846,1,1440085836366,1440085836900,376,411,0,0,0,4,5,1,45,0004-00-0008-83.png,0005-00-0005-99.png
00000014,847,1,1440085837986,1440085838572,913,410,0,0,0,4,3,1,43,0004-00-0004-05.png,0003-00-0005-29.png
00000014,848,1,1440085839638,1440085840183,401,462,0,0,0,1,2,1,12,0001-00-0008-49.png,0002-00-0006-45.png
00000014,849,1,1440085841185,1440085841706,408,416,0,0,0,3,4,1,34,0003-00-0005-62.png,0004-00-0009-60.png
00000014,850,1,1440085842617,1440085843370,926,462,0,0,0,5,4,1,54,0005-00-0006-15.png,0004-00-0009-00.png
00000014,851,0,1440085844652,1440085845619,380,451,0,0,0,4,3,1,43,0004-00-0004-44.png,0003-00-0006-83.png
00000014,852,1,1440085849064,1440085849508,350,384,0,0,0,4,5,1,45,0004-00-0004-31.png,0005-00-0000-33.png
00000014,853,1,1440085850518,1440085851084,374,434,0,0,0,2,3,1,23,0002-00-0002-78.png,0003-00-0008-35.png
00000014,854,1,1440085852079,1440085852633,369,447,0,0,0,1,2,1,12,0001-00-0007-58.png,0002-00-0007-92.png
00000014,855,0,1440085853540,1440085854197,363,426,0,0,0,2,1,1,21,0002-00-0000-00.png,0001-00-0006-47.png
00000014,856,0,1440085857601,1440085858056,361,413,0,0,0,3,2,1,32,0003-00-0000-47.png,0002-00-0006-94.png
00000014,857,1,1440085861887,1440085862953,453,447,0,0,0,1,2,1,12,0001-00-0005-91.png,0002-00-0008-10.png
00000014,858,0,1440085864024,1440085864088,504,514,0,0,0,3,2,1,32,0003-00-0004-34.png,0002-00-0008-89.png
00000014,859,0,1440085867277,1440085867939,881,475,0,0,0,2,3,1,23,0002-00-0005-58.png,0003-00-0007-95.png
00000014,860,0,1440085871046,1440085871529,420,530,0,0,0,2,1,1,21,0002-00-0004-31.png,0001-00-0000-31.png
00000014,861,1,1440085875014,1440085875557,904,519,0,0,0,4,3,1,43,0004-00-0007-11.png,0003-00-0005-42.png
00000014,862,1,1440085876573,1440085877170,400,410,0,0,0,3,4,1,34,0003-00-0006-81.png,0004-00-0009-04.png
00000014,863,1,1440085878106,1440085878669,384,453,0,0,0,4,5,1,45,0004-00-0004-15.png,0005-00-0009-40.png
00000014,864,1,1440085879582,1440085880387,929,480,0,0,0,5,4,1,54,0005-00-0006-26.png,0004-00-0002-90.png
00000014,865,0,1440085881347,1440085881927,386,451,0,0,0,3,2,1,32,0003-00-0009-28.png,0002-00-0008-52.png
00000014,866,0,1440085885915,1440085886444,913,448,0,0,0,2,3,1,23,0002-00-0006-66.png,0003-00-0006-45.png
00000014,867,1,1440085889394,1440085889442,512,505,0,0,0,4,5,1,45,0004-00-0001-25.png,0005-00-0002-74.png
00000014,868,0,1440085890456,1440085891037,418,519,0,0,0,4,3,1,43,0004-00-0008-51.png,0003-00-0000-89.png
00000014,869,1,1440085894062,1440085895094,427,384,0,0,0,3,4,1,34,0003-00-0006-72.png,0004-00-0003-79.png
00000014,870,0,1440085895944,1440085896546,876,423,0,0,0,1,2,1,12,0001-00-0006-27.png,0002-00-0006-87.png
00000014,871,1,1440085899649,1440085900143,876,554,0,0,0,2,1,1,21,0002-00-0005-27.png,0001-00-0002-66.png
00000014,872,0,1440085901021,1440085901620,350,449,0,0,0,5,4,1,54,0005-00-0000-59.png,0004-00-0002-40.png
00000014,873,0,1440085904686,1440085905231,875,485,0,0,0,2,3,1,23,0002-00-0000-42.png,0003-00-0002-97.png
00000014,874,1,1440085909201,1440085909715,384,453,0,0,0,3,4,1,34,0003-00-0006-46.png,0004-00-0002-93.png
00000014,875,0,1440085910623,1440085911583,492,528,0,0,0,4,3,1,43,0004-00-0006-33.png,0003-00-0006-37.png
00000014,876,1,1440085914704,1440085915187,371,441,0,0,0,4,5,1,45,0004-00-0000-93.png,0005-00-0001-62.png
00000014,877,1,1440085916148,1440085916651,363,445,0,0,0,1,2,1,12,0001-00-0002-73.png,0002-00-0004-18.png
00000014,878,0,1440085917570,1440085918069,370,443,0,0,0,5,4,1,54,0005-00-0007-44.png,0004-00-0007-32.png
00000014,879,1,1440085921132,1440085921636,904,429,0,0,0,2,1,1,21,0002-00-0009-73.png,0001-00-0004-14.png
00000014,880,0,1440085922474,1440085923022,427,410,0,0,0,3,2,1,32,0003-00-0005-94.png,0002-00-0002-65.png
00000014,881,1,1440085928949,1440085929553,900,488,0,0,0,2,1,1,21,0002-00-0005-82.png,0001-00-0000-19.png
00000014,882,1,1440085930517,1440085930565,504,503,0,0,0,1,2,1,12,0001-00-0004-67.png,0002-00-0005-95.png
00000014,883,0,1440085931630,1440085932201,248,499,0,0,0,5,4,1,54,0005-00-0005-44.png,0004-00-0009-42.png
00000014,884,0,1440085937267,1440085937818,347,402,0,0,0,4,3,1,43,0004-00-0008-90.png,0003-00-0007-30.png
00000014,885,1,1440085940734,1440085940746,496,517,0,0,0,3,4,1,34,0003-00-0000-07.png,0004-00-0007-55.png
00000014,886,0,1440085942047,1440085942986,376,410,0,0,0,3,2,1,32,0003-00-0006-28.png,0002-00-0007-20.png
00000014,887,1,1440085945840,1440085945856,512,489,0,0,0,4,5,1,45,0004-00-0009-47.png,0005-00-0004-02.png
00000014,888,0,1440085946826,1440085947487,883,446,0,0,0,2,3,1,23,0002-00-0002-75.png,0003-00-0008-05.png
00000014,889,0,1440085950580,1440085950612,521,550,0,0,0,4,3,1,43,0004-00-0005-32.png,0003-00-0008-08.png
00000014,890,1,1440085958341,1440085958816,414,382,0,0,0,1,2,1,12,0001-00-0002-71.png,0002-00-0001-90.png
00000014,891,1,1440085963503,1440085964019,427,397,0,0,0,3,4,1,34,0003-00-0000-96.png,0004-00-0002-60.png
00000014,892,1,1440085965151,1440085965717,376,423,0,0,0,2,3,1,23,0002-00-0005-18.png,0003-00-0003-68.png
00000014,893,0,1440085966724,1440085967682,401,410,0,0,0,2,1,1,21,0002-00-0007-74.png,0001-00-0001-24.png
00000014,894,1,1440085970875,1440085971492,902,519,0,0,0,5,4,1,54,0005-00-0001-96.png,0004-00-0005-18.png
00000014,895,0,1440085975268,1440085975889,342,417,0,0,0,3,2,1,32,0003-00-0008-27.png,0002-00-0008-35.png
00000014,896,1,1440085978958,1440085979451,401,397,0,0,0,4,5,1,45,0004-00-0008-13.png,0005-00-0003-98.png
00000014,897,0,1440085980431,1440085981521,861,450,0,0,0,4,5,1,45,0004-00-0006-24.png,0005-00-0000-99.png
00000014,898,1,1440085984393,1440085984957,953,391,0,0,0,3,2,1,32,0003-00-0009-00.png,0002-00-0000-61.png
00000014,899,1,1440085985941,1440085986520,345,420,0,0,0,1,2,1,12,0001-00-0008-42.png,0002-00-0004-22.png
00000014,900,1,1440085987487,1440085988042,919,401,0,0,0,2,1,1,21,0002-00-0008-13.png,0001-00-0002-33.png
00000014,901,1,1440085988978,1440085989521,376,423,0,0,0,2,3,1,23,0002-00-0003-19.png,0003-00-0008-21.png
00000014,902,1,1440085990565,1440085991120,376,423,0,0,0,3,4,1,34,0003-00-0002-99.png,0004-00-0009-29.png
00000014,903,0,1440085992105,1440085992697,422,389,0,0,0,5,4,1,54,0005-00-0003-25.png,0004-00-0007-69.png
00000014,904,1,1440085997053,1440085997571,904,415,0,0,0,4,3,1,43,0004-00-0000-89.png,0003-00-0002-05.png
00000014,905,1,1440085998843,1440085999314,891,417,0,0,0,4,3,1,43,0004-00-0009-03.png,0003-00-0004-36.png
00000014,906,1,1440086000264,1440086001229,409,393,0,0,0,3,4,1,34,0003-00-0008-71.png,0004-00-0003-95.png
00000014,907,0,1440086002578,1440086003749,394,415,0,0,0,5,4,1,54,0005-00-0005-65.png,0004-00-0001-04.png
00000014,908,1,1440086006899,1440086007384,356,406,0,0,0,1,2,1,12,0001-00-0002-44.png,0002-00-0004-34.png
00000014,909,1,1440086008384,1440086008969,368,443,0,0,0,4,5,1,45,0004-00-0003-37.png,0005-00-0007-76.png
00000014,910,0,1440086010339,1440086011261,351,417,0,0,0,2,1,1,21,0002-00-0003-82.png,0001-00-0002-38.png
00000014,911,0,1440086014963,1440086015478,376,509,0,0,0,3,2,1,32,0003-00-0003-02.png,0002-00-0008-27.png
00000014,912,1,1440086018340,1440086018758,380,516,0,0,0,2,3,1,23,0002-00-0000-88.png,0003-00-0008-70.png
00000014,913,0,1440086019782,1440086020719,440,416,0,0,0,2,1,1,21,0002-00-0004-54.png,0001-00-0008-37.png
00000014,914,1,1440086023780,1440086024331,925,410,0,0,0,5,4,1,54,0005-00-0000-27.png,0004-00-0005-17.png
00000014,915,1,1440086025549,1440086026064,453,411,0,0,0,2,3,1,23,0002-00-0000-85.png,0003-00-0006-26.png
00000014,916,0,1440086027009,1440086027566,863,457,0,0,0,1,2,1,12,0001-00-0004-22.png,0002-00-0002-58.png
00000014,917,0,1440086030486,1440086030520,512,463,0,0,0,3,2,1,32,0003-00-0007-64.png,0002-00-0002-93.png
00000014,918,1,1440086033787,1440086034313,323,439,0,0,0,4,5,1,45,0004-00-0001-50.png,0005-00-0005-59.png
00000014,919,1,1440086035378,1440086035881,879,402,0,0,0,4,3,1,43,0004-00-0008-48.png,0003-00-0004-05.png
00000014,920,1,1440086036828,1440086037330,340,413,0,0,0,3,4,1,34,0003-00-0001-26.png,0004-00-0002-98.png
00000014,921,0,1440086038268,1440086039231,354,428,0,0,0,4,3,1,43,0004-00-0003-91.png,0003-00-0001-90.png
00000014,922,1,1440086042126,1440086042637,868,483,0,0,0,5,4,1,54,0005-00-0000-24.png,0004-00-0000-43.png
00000014,923,1,1440086043635,1440086044169,878,428,0,0,0,3,2,1,32,0003-00-0009-41.png,0002-00-0002-74.png
00000014,924,0,1440086045266,1440086045788,903,507,0,0,0,2,3,1,23,0002-00-0003-22.png,0003-00-0000-93.png
00000014,925,1,1440086048985,1440086049443,349,372,0,0,0,4,5,1,45,0004-00-0007-32.png,0005-00-0002-11.png
00000014,926,1,1440086050524,1440086051074,367,436,0,0,0,3,4,1,34,0003-00-0005-68.png,0004-00-0000-75.png
00000014,927,0,1440086052064,1440086052689,415,538,0,0,0,2,1,1,21,0002-00-0005-47.png,0001-00-0003-11.png
00000014,928,1,1440086055531,1440086055555,513,497,0,0,0,1,2,1,12,0001-00-0002-66.png,0002-00-0000-55.png
00000014,929,1,1440086056550,1440086057061,401,384,0,0,0,4,5,1,45,0004-00-0008-19.png,0005-00-0007-87.png
00000014,930,1,1440086057945,1440086058503,359,427,0,0,0,3,4,1,34,0003-00-0001-88.png,0004-00-0009-06.png
00000014,931,0,1440086059396,1440086059942,341,416,0,0,0,4,3,1,43,0004-00-0008-90.png,0003-00-0001-43.png
00000014,932,1,1440086063534,1440086064118,924,380,0,0,0,3,2,1,32,0003-00-0006-56.png,0002-00-0001-95.png
00000014,933,0,1440086065165,1440086065680,364,427,0,0,0,5,4,1,54,0005-00-0003-53.png,0004-00-0000-38.png
00000014,934,1,1440086068780,1440086069287,349,388,0,0,0,2,3,1,23,0002-00-0003-69.png,0003-00-0005-38.png
00000014,935,0,1440086071206,1440086072183,365,431,0,0,0,2,1,1,21,0002-00-0007-84.png,0001-00-0001-88.png
00000014,936,1,1440086075060,1440086075466,354,403,0,0,0,1,2,1,12,0001-00-0005-60.png,0002-00-0002-31.png
00000014,937,1,1440086076494,1440086076530,454,544,0,0,0,4,5,1,45,0004-00-0001-94.png,0005-00-0008-96.png
00000014,938,0,1440086078321,1440086078810,881,418,0,0,0,2,3,1,23,0002-00-0005-47.png,0003-00-0002-49.png
00000014,939,1,1440086082375,1440086083377,414,518,0,0,0,3,4,1,34,0003-00-0007-87.png,0004-00-0006-98.png
00000014,940,0,1440086084275,1440086084845,376,539,0,0,0,5,4,1,54,0005-00-0002-42.png,0004-00-0002-34.png
00000014,941,1,1440086087833,1440086087861,514,488,0,0,0,1,2,1,12,0001-00-0007-32.png,0002-00-0004-77.png
00000014,942,1,1440086088887,1440086089442,860,451,0,0,0,3,2,1,32,0003-00-0006-93.png,0002-00-0009-09.png
