subject_id,trial,correct_response,stim_time,response_time,x_coord,y_coord,trial_timeout,timeout_time,interTrial_timeout,left_rank,right_rank,distance,joint_rank,left_image,right_image
00000009,1,1,1440599989121,1440599989162,1011,302,0,0,0,5,4,1,54,0005-00-0005-17.png,0004-00-0000-70.png
00000009,2,0,1440599991086,1440599991522,941,413,0,0,0,2,3,1,23,0002-00-0008-19.png,0003-00-0007-51.png
00000009,3,1,1440599994835,1440599995748,941,383,0,0,0,2,1,1,21,0002-00-0007-42.png,0001-00-0004-17.png
00000009,4,1,1440599996563,1440599997434,1037,277,0,0,0,4,3,1,43,0004-00-0008-20.png,0003-00-0007-85.png
00000009,5,0,1440599998399,1440599999521,921,361,0,0,0,3,4,1,34,0003-00-0008-16.png,0004-00-0007-17.png
00000009,6,0,1440600002686,1440600002714,909,326,0,0,0,1,2,1,12,0001-00-0007-27.png,0002-00-0007-30.png
00000009,7,1,1440600005823,1440600006321,936,310,0,0,0,3,2,1,32,0003-00-0003-72.png,0002-00-0004-18.png
00000009,8,1,1440600007194,1440600008426,294,379,0,0,0,4,5,1,45,0004-00-0009-26.png,0005-00-0000-68.png
00000009,9,1,1440600009425,1440600009610,862,479,0,0,0,4,3,1,43,0004-00-0002-65.png,0003-00-0005-70.png
00000009,10,1,1440600010628,1440600010775,862,462,0,0,0,2,1,1,21,0002-00-0000-47.png,0001-00-0001-41.png
00000009,11,1,1440600011783,1440600012640,400,272,0,0,0,4,5,1,45,0004-00-0001-61.png,0005-00-0004-64.png
00000009,12,0,1440600013512,1440600014305,441,278,0,0,0,5,4,1,54,0005-00-0008-26.png,0004-00-0002-15.png
00000009,13,0,1440600017467,1440600017949,958,342,0,0,0,3,4,1,34,0003-00-0000-06.png,0004-00-0005-63.png
00000009,14,0,1440600021477,1440600021521,900,307,0,0,0,2,3,1,23,0002-00-0006-28.png,0003-00-0003-06.png
00000009,15,1,1440600024467,1440600024996,1036,301,0,0,0,3,2,1,32,0003-00-0003-21.png,0002-00-0007-89.png
00000009,16,0,1440600025823,1440600027071,939,322,0,0,0,1,2,1,12,0001-00-0007-38.png,0002-00-0007-17.png
00000009,17,1,1440600030216,1440600030693,915,308,0,0,0,4,3,1,43,0004-00-0003-87.png,0003-00-0007-80.png
00000009,18,0,1440600031646,1440600032009,939,446,0,0,0,3,4,1,34,0003-00-0003-58.png,0004-00-0007-31.png
00000009,19,1,1440600035190,1440600035709,909,353,0,0,0,3,2,1,32,0003-00-0005-74.png,0002-00-0002-01.png
00000009,20,0,1440600037075,1440600037350,887,379,0,0,0,4,5,1,45,0004-00-0008-65.png,0005-00-0000-71.png
00000009,21,1,1440600040573,1440600041166,1018,276,0,0,0,5,4,1,54,0005-00-0001-75.png,0004-00-0003-79.png
00000009,22,0,1440600042849,1440600043510,926,363,0,0,0,1,2,1,12,0001-00-0002-27.png,0002-00-0001-11.png
00000009,23,0,1440600046703,1440600047191,918,317,0,0,0,2,3,1,23,0002-00-0006-82.png,0003-00-0004-42.png
00000009,24,1,1440600050531,1440600051016,889,330,0,0,0,2,1,1,21,0002-00-0000-60.png,0001-00-0006-63.png
00000009,25,1,1440600052826,1440600053358,433,242,0,0,0,1,2,1,12,0001-00-0001-64.png,0002-00-0005-13.png
00000009,26,1,1440600054184,1440600054510,913,410,0,0,0,5,4,1,54,0005-00-0004-67.png,0004-00-0000-04.png
00000009,27,1,1440600055417,1440600056710,438,256,0,0,0,3,4,1,34,0003-00-0006-41.png,0004-00-0007-98.png
00000009,28,1,1440600057645,1440600058845,995,291,0,0,0,4,3,1,43,0004-00-0008-42.png,0003-00-0000-96.png
00000009,29,1,1440600059700,1440600060864,406,294,0,0,0,4,5,1,45,0004-00-0008-25.png,0005-00-0009-01.png
00000009,30,0,1440600061797,1440600062046,862,498,0,0,0,2,3,1,23,0002-00-0003-27.png,0003-00-0002-01.png
00000009,31,1,1440600065038,1440600065062,868,437,0,0,0,2,1,1,21,0002-00-0002-22.png,0001-00-0003-74.png
00000009,32,1,1440600066144,1440600067291,876,342,0,0,0,3,2,1,32,0003-00-0003-91.png,0002-00-0005-71.png
00000009,33,0,1440600068207,1440600068416,929,488,0,0,0,1,2,1,12,0001-00-0003-64.png,0002-00-0007-31.png
00000009,34,0,1440600071516,1440600072044,1063,275,0,0,0,3,4,1,34,0003-00-0001-75.png,0004-00-0003-62.png
00000009,35,1,1440600075104,1440600075290,888,410,0,0,0,5,4,1,54,0005-00-0001-90.png,0004-00-0008-41.png
00000009,36,1,1440600076126,1440600076573,955,436,0,0,0,3,2,1,32,0003-00-0002-23.png,0002-00-0004-55.png
00000009,37,1,1440600077593,1440600077695,888,402,0,0,0,4,3,1,43,0004-00-0004-82.png,0003-00-0002-02.png
00000009,38,0,1440600078871,1440600078938,869,428,0,0,0,2,3,1,23,0002-00-0001-28.png,0003-00-0005-94.png
00000009,39,0,1440600082385,1440600082964,1097,303,0,0,0,4,5,1,45,0004-00-0002-44.png,0005-00-0007-68.png
00000009,40,1,1440600086106,1440600086382,953,309,0,0,0,2,1,1,21,0002-00-0008-90.png,0001-00-0004-84.png
00000009,41,1,1440600087258,1440600087827,933,485,0,0,0,4,3,1,43,0004-00-0009-78.png,0003-00-0002-67.png
00000009,42,1,1440600088745,1440600090044,330,373,0,0,0,3,4,1,34,0003-00-0003-38.png,0004-00-0007-74.png
00000009,43,0,1440600090904,1440600091001,862,479,0,0,0,2,3,1,23,0002-00-0003-55.png,0003-00-0009-89.png
00000009,44,1,1440600094015,1440600094043,877,301,0,0,0,2,1,1,21,0002-00-0009-73.png,0001-00-0007-76.png
00000009,45,1,1440600095020,1440600095975,883,351,0,0,0,5,4,1,54,0005-00-0002-21.png,0004-00-0006-14.png
00000009,46,1,1440600096958,1440600098129,438,267,0,0,0,4,5,1,45,0004-00-0002-46.png,0005-00-0005-87.png
00000009,47,1,1440600099063,1440600099886,1012,279,0,0,0,3,2,1,32,0003-00-0002-54.png,0002-00-0000-35.png
00000009,48,0,1440600100799,1440600101138,903,514,0,0,0,1,2,1,12,0001-00-0006-98.png,0002-00-0006-02.png
00000009,49,0,1440600104271,1440600104843,935,356,0,0,0,3,4,1,34,0003-00-0007-57.png,0004-00-0004-10.png
00000009,50,1,1440600107815,1440600108330,1040,304,0,0,0,3,2,1,32,0003-00-0008-73.png,0002-00-0007-18.png
00000009,51,0,1440600109151,1440600109760,1014,512,0,0,0,2,3,1,23,0002-00-0007-25.png,0003-00-0007-25.png
00000009,52,1,1440600112648,1440600113245,1015,278,0,0,0,5,4,1,54,0005-00-0002-96.png,0004-00-0004-96.png
00000009,53,1,1440600114767,1440600115290,1027,267,0,0,0,4,3,1,43,0004-00-0000-03.png,0003-00-0001-55.png
00000009,54,1,1440600116148,1440600116511,881,443,0,0,0,2,1,1,21,0002-00-0002-47.png,0001-00-0001-10.png
00000009,55,0,1440600117429,1440600117505,880,416,0,0,0,1,2,1,12,0001-00-0006-01.png,0002-00-0006-17.png
00000009,56,0,1440600120669,1440600121236,1105,254,0,0,0,4,5,1,45,0004-00-0008-13.png,0005-00-0002-87.png
00000009,57,0,1440600124416,1440600124948,1111,290,0,0,0,2,3,1,23,0002-00-0008-61.png,0003-00-0006-25.png
00000009,58,0,1440600128102,1440600128122,914,362,0,0,0,1,2,1,12,0001-00-0000-10.png,0002-00-0006-16.png
00000009,59,1,1440600131064,1440600131593,1139,262,0,0,0,4,3,1,43,0004-00-0004-98.png,0003-00-0003-62.png
00000009,60,1,1440600132461,1440600133324,1022,266,0,0,0,5,4,1,54,0005-00-0002-87.png,0004-00-0004-26.png
00000009,61,0,1440600134228,1440600134320,888,410,0,0,0,4,5,1,45,0004-00-0005-71.png,0005-00-0005-03.png
00000009,62,1,1440600137464,1440600138011,1092,243,0,0,0,3,2,1,32,0003-00-0002-17.png,0002-00-0001-14.png
00000009,63,1,1440600138892,1440600139051,939,410,0,0,0,2,1,1,21,0002-00-0006-33.png,0001-00-0005-82.png
00000009,64,1,1440600139893,1440600140969,461,220,0,0,0,3,4,1,34,0003-00-0000-36.png,0004-00-0008-18.png
00000009,65,1,1440600141822,1440600142565,1067,238,0,0,0,4,3,1,43,0004-00-0005-18.png,0003-00-0007-78.png
00000009,66,0,1440600143436,1440600143492,895,427,0,0,0,2,3,1,23,0002-00-0001-59.png,0003-00-0007-80.png
00000009,67,0,1440600147004,1440600147517,1042,282,0,0,0,1,2,1,12,0001-00-0002-36.png,0002-00-0002-37.png
00000009,68,1,1440600150390,1440600150902,908,355,0,0,0,3,2,1,32,0003-00-0001-00.png,0002-00-0001-98.png
00000009,69,1,1440600152370,1440600152394,913,323,0,0,0,2,1,1,21,0002-00-0002-90.png,0001-00-0003-48.png
00000009,70,0,1440600153454,1440600154199,877,340,0,0,0,3,4,1,34,0003-00-0000-87.png,0004-00-0003-86.png
00000009,71,0,1440600157147,1440600157765,914,339,0,0,0,4,5,1,45,0004-00-0002-95.png,0005-00-0003-33.png
00000009,72,1,1440600160719,1440600161238,1084,282,0,0,0,5,4,1,54,0005-00-0001-09.png,0004-00-0009-79.png
00000009,73,0,1440600162054,1440600162953,878,369,0,0,0,1,2,1,12,0001-00-0000-16.png,0002-00-0003-44.png
00000009,74,0,1440600166025,1440600166579,1043,273,0,0,0,3,4,1,34,0003-00-0008-96.png,0004-00-0008-14.png
00000009,75,1,1440600169612,1440600169620,496,464,0,0,0,2,3,1,23,0002-00-0002-09.png,0003-00-0004-40.png
00000009,76,1,1440600170594,1440600170670,862,372,0,0,0,5,4,1,54,0005-00-0003-57.png,0004-00-0003-34.png
00000009,77,1,1440600171598,1440600172741,328,355,0,0,0,4,5,1,45,0004-00-0003-70.png,0005-00-0000-16.png
00000009,78,1,1440600173744,1440600173836,898,411,0,0,0,4,3,1,43,0004-00-0003-27.png,0003-00-0006-79.png
00000009,79,1,1440600176686,1440600176706,919,303,0,0,0,2,1,1,21,0002-00-0007-14.png,0001-00-0003-22.png
00000009,80,1,1440600178297,1440600178836,954,331,0,0,0,3,2,1,32,0003-00-0004-64.png,0002-00-0009-79.png
00000009,81,0,1440600179816,1440600179888,939,410,0,0,0,4,5,1,45,0004-00-0004-28.png,0005-00-0009-12.png
00000009,82,1,1440600183141,1440600183173,920,274,0,0,0,4,3,1,43,0004-00-0003-83.png,0003-00-0008-25.png
00000009,83,0,1440600184248,1440600184324,888,420,0,0,0,3,4,1,34,0003-00-0007-57.png,0004-00-0000-16.png
00000009,84,1,1440600187279,1440600187875,887,358,0,0,0,3,2,1,32,0003-00-0007-95.png,0002-00-0003-27.png
00000009,85,0,1440600188738,1440600188855,900,462,0,0,0,1,2,1,12,0001-00-0009-24.png,0002-00-0008-54.png
00000009,86,1,1440600192138,1440600192643,897,378,0,0,0,5,4,1,54,0005-00-0002-41.png,0004-00-0000-19.png
00000009,87,1,1440600194851,1440600195465,1058,251,0,0,0,2,1,1,21,0002-00-0006-16.png,0001-00-0003-12.png
00000009,88,0,1440600196330,1440600197460,873,386,0,0,0,2,3,1,23,0002-00-0000-62.png,0003-00-0002-60.png
00000009,89,1,1440600200536,1440600200556,930,369,0,0,0,4,3,1,43,0004-00-0004-00.png,0003-00-0000-07.png
00000009,90,1,1440600202284,1440600202449,882,401,0,0,0,3,2,1,32,0003-00-0006-90.png,0002-00-0002-55.png
00000009,91,1,1440600203467,1440600204386,415,271,0,0,0,1,2,1,12,0001-00-0005-03.png,0002-00-0003-73.png
00000009,92,0,1440600205582,1440600206148,924,350,0,0,0,3,4,1,34,0003-00-0005-49.png,0004-00-0007-54.png
00000009,93,1,1440600209081,1440600209101,871,425,0,0,0,2,1,1,21,0002-00-0002-13.png,0001-00-0003-40.png
00000009,94,0,1440600210060,1440600211394,868,368,0,0,0,2,3,1,23,0002-00-0007-01.png,0003-00-0004-18.png
00000009,95,1,1440600214437,1440600214954,1041,284,0,0,0,5,4,1,54,0005-00-0002-34.png,0004-00-0003-22.png
00000009,96,1,1440600217448,1440600218157,406,273,0,0,0,4,5,1,45,0004-00-0000-77.png,0005-00-0005-18.png
00000009,97,1,1440600219080,1440600221164,903,326,0,0,0,4,3,1,43,0004-00-0002-75.png,0003-00-0007-68.png
00000009,98,1,1440600222809,1440600223692,897,342,0,0,0,3,2,1,32,0003-00-0003-21.png,0002-00-0007-81.png
00000009,99,1,1440600224524,1440600225989,462,221,0,0,0,1,2,1,12,0001-00-0000-92.png,0002-00-0002-34.png
00000009,100,0,1440600227028,1440600228285,1048,261,0,0,0,2,3,1,23,0002-00-0000-00.png,0003-00-0007-65.png
00000009,101,0,1440600231533,1440600231549,953,332,0,0,0,3,4,1,34,0003-00-0005-35.png,0004-00-0004-05.png
00000009,102,0,1440600235115,1440600235691,881,375,0,0,0,4,5,1,45,0004-00-0006-09.png,0005-00-0001-30.png
00000009,103,0,1440600238816,1440600239489,310,403,0,0,0,5,4,1,54,0005-00-0005-67.png,0004-00-0001-40.png
00000009,104,1,1440600243055,1440600243095,959,310,0,0,0,2,1,1,21,0002-00-0005-20.png,0001-00-0004-43.png
00000009,105,0,1440600244828,1440600245516,938,312,0,0,0,2,3,1,23,0002-00-0007-17.png,0003-00-0005-06.png
00000009,106,1,1440600248663,1440600249568,918,362,0,0,0,4,3,1,43,0004-00-0008-23.png,0003-00-0002-10.png
00000009,107,1,1440600251055,1440600252011,446,249,0,0,0,3,4,1,34,0003-00-0007-64.png,0004-00-0004-77.png
00000009,108,1,1440600252899,1440600254053,338,396,0,0,0,1,2,1,12,0001-00-0005-25.png,0002-00-0001-28.png
00000009,109,1,1440600254953,1440600256112,917,357,0,0,0,2,1,1,21,0002-00-0002-04.png,0001-00-0009-33.png
00000009,110,0,1440600257862,1440600258557,425,271,0,0,0,3,2,1,32,0003-00-0001-76.png,0002-00-0009-22.png
00000009,111,1,1440600261634,1440600261658,862,404,0,0,0,5,4,1,54,0005-00-0005-32.png,0004-00-0004-26.png
00000009,112,0,1440600263420,1440600263956,935,326,0,0,0,4,5,1,45,0004-00-0004-10.png,0005-00-0009-90.png
00000009,113,1,1440600267128,1440600267695,957,325,0,0,0,3,2,1,32,0003-00-0006-97.png,0002-00-0005-37.png
00000009,114,0,1440600269204,1440600270244,930,339,0,0,0,4,5,1,45,0004-00-0001-23.png,0005-00-0003-10.png
00000009,115,0,1440600273388,1440600274090,434,286,0,0,0,4,3,1,43,0004-00-0008-87.png,0003-00-0004-18.png
00000009,116,0,1440600277044,1440600277064,936,443,0,0,0,3,4,1,34,0003-00-0004-48.png,0004-00-0008-95.png
00000009,117,1,1440600280186,1440600280210,954,327,0,0,0,2,1,1,21,0002-00-0009-60.png,0001-00-0005-07.png
00000009,118,0,1440600281058,1440600281225,877,436,0,0,0,1,2,1,12,0001-00-0004-19.png,0002-00-0003-65.png
00000009,119,1,1440600284380,1440600284416,964,330,0,0,0,5,4,1,54,0005-00-0006-77.png,0004-00-0002-49.png
00000009,120,0,1440600285247,1440600286445,925,347,0,0,0,2,3,1,23,0002-00-0008-54.png,0003-00-0002-19.png
00000009,121,1,1440600289736,1440600290272,957,331,0,0,0,4,3,1,43,0004-00-0005-09.png,0003-00-0001-91.png
00000009,122,0,1440600291741,1440600292029,935,381,0,0,0,1,2,1,12,0001-00-0004-22.png,0002-00-0002-74.png
00000009,123,0,1440600295210,1440600295238,969,321,0,0,0,3,4,1,34,0003-00-0006-48.png,0004-00-0002-12.png
00000009,124,0,1440600298447,1440600298507,966,311,0,0,0,2,3,1,23,0002-00-0006-20.png,0003-00-0005-37.png
00000009,125,1,1440600301540,1440600302155,907,338,0,0,0,2,1,1,21,0002-00-0004-04.png,0001-00-0007-68.png
00000009,126,0,1440600303743,1440600304612,371,379,0,0,0,5,4,1,54,0005-00-0007-21.png,0004-00-0005-15.png
00000009,127,0,1440600307480,1440600308076,1067,279,0,0,0,4,5,1,45,0004-00-0007-23.png,0005-00-0009-25.png
00000009,128,0,1440600310901,1440600311675,286,383,0,0,0,3,2,1,32,0003-00-0006-99.png,0002-00-0007-89.png
00000009,129,0,1440600314826,1440600314850,938,329,0,0,0,4,5,1,45,0004-00-0005-99.png,0005-00-0007-39.png
00000009,130,0,1440600318008,1440600318101,873,342,0,0,0,1,2,1,12,0001-00-0001-28.png,0002-00-0002-65.png
00000009,131,1,1440600321196,1440600321817,451,240,0,0,0,2,3,1,23,0002-00-0005-99.png,0003-00-0009-75.png
00000009,132,1,1440600323550,1440600323590,907,302,0,0,0,4,3,1,43,0004-00-0001-44.png,0003-00-0009-93.png
00000009,133,0,1440600324475,1440600324495,516,483,0,0,0,2,1,1,21,0002-00-0003-87.png,0001-00-0001-31.png
00000009,134,0,1440600327566,1440600328263,911,353,0,0,0,3,4,1,34,0003-00-0006-09.png,0004-00-0002-51.png
00000009,135,1,1440600331444,1440600331964,946,329,0,0,0,5,4,1,54,0005-00-0007-65.png,0004-00-0003-72.png
00000009,136,0,1440600333688,1440600334333,471,224,0,0,0,3,2,1,32,0003-00-0003-85.png,0002-00-0002-43.png
00000009,137,1,1440600337515,1440600338087,1104,283,0,0,0,5,4,1,54,0005-00-0005-09.png,0004-00-0006-22.png
00000009,138,0,1440600339731,1440600339763,921,326,0,0,0,1,2,1,12,0001-00-0005-40.png,0002-00-0002-21.png
00000009,139,0,1440600342918,1440600342958,951,338,0,0,0,3,4,1,34,0003-00-0002-78.png,0004-00-0004-98.png
00000009,140,0,1440600346121,1440600346149,919,395,0,0,0,4,5,1,45,0004-00-0007-98.png,0005-00-0000-02.png
00000009,141,1,1440600349134,1440600349680,1066,251,0,0,0,4,3,1,43,0004-00-0001-51.png,0003-00-0006-22.png
00000009,142,0,1440600351338,1440600352511,1066,255,0,0,0,2,3,1,23,0002-00-0000-79.png,0003-00-0003-50.png
00000009,143,1,1440600355613,1440600356193,1072,271,0,0,0,3,2,1,32,0003-00-0007-75.png,0002-00-0009-77.png
00000009,144,1,1440600358275,1440600358820,931,350,0,0,0,2,1,1,21,0002-00-0009-52.png,0001-00-0000-55.png
00000009,145,0,1440600360303,1440600360525,939,436,0,0,0,1,2,1,12,0001-00-0009-89.png,0002-00-0003-40.png
00000009,146,1,1440600363679,1440600364218,942,347,0,0,0,5,4,1,54,0005-00-0006-79.png,0004-00-0001-82.png
00000009,147,0,1440600365699,1440600365885,950,356,0,0,0,3,4,1,34,0003-00-0003-79.png,0004-00-0002-13.png
00000009,148,1,1440600368879,1440600368915,892,395,0,0,0,4,3,1,43,0004-00-0004-45.png,0003-00-0003-16.png
00000009,149,0,1440600370646,1440600371473,1066,277,0,0,0,2,3,1,23,0002-00-0007-62.png,0003-00-0003-84.png
00000009,150,0,1440600374549,1440600374597,881,363,0,0,0,4,5,1,45,0004-00-0005-41.png,0005-00-0003-62.png
00000009,151,1,1440600377724,1440600378225,937,322,0,0,0,3,2,1,32,0003-00-0006-79.png,0002-00-0007-93.png
00000009,152,1,1440600379740,1440600380318,932,324,0,0,0,2,1,1,21,0002-00-0005-09.png,0001-00-0003-06.png
00000009,153,0,1440600381666,1440600382712,1070,242,0,0,0,4,5,1,45,0004-00-0003-83.png,0005-00-0006-53.png
00000009,154,0,1440600386278,1440600386803,1065,255,0,0,0,3,4,1,34,0003-00-0000-21.png,0004-00-0007-35.png
00000009,155,1,1440600389807,1440600390339,1075,277,0,0,0,3,2,1,32,0003-00-0000-50.png,0002-00-0004-93.png
00000009,156,1,1440600391754,1440600391948,959,360,0,0,0,5,4,1,54,0005-00-0003-11.png,0004-00-0001-00.png
00000009,157,1,1440600392837,1440600392897,877,340,0,0,0,2,1,1,21,0002-00-0002-24.png,0001-00-0006-26.png
00000009,158,1,1440600394388,1440600395589,366,374,0,0,0,1,2,1,12,0001-00-0003-43.png,0002-00-0008-74.png
00000009,159,0,1440600397109,1440600397195,878,367,0,0,0,2,3,1,23,0002-00-0004-02.png,0003-00-0006-25.png
00000009,160,1,1440600400292,1440600400348,953,332,0,0,0,4,3,1,43,0004-00-0004-44.png,0003-00-0001-98.png
00000009,161,0,1440600401255,1440600402324,904,374,0,0,0,4,5,1,45,0004-00-0004-39.png,0005-00-0009-90.png
00000009,162,1,1440600405458,1440600405486,925,359,0,0,0,2,1,1,21,0002-00-0000-94.png,0001-00-0009-34.png
00000009,163,0,1440600406377,1440600407823,951,325,0,0,0,2,3,1,23,0002-00-0008-86.png,0003-00-0007-65.png
00000009,164,1,1440600411343,1440600411869,948,307,0,0,0,3,2,1,32,0003-00-0001-41.png,0002-00-0002-84.png
00000009,165,1,1440600413349,1440600414213,350,317,0,0,0,3,4,1,34,0003-00-0000-10.png,0004-00-0008-22.png
00000009,166,0,1440600415626,1440600415694,865,385,0,0,0,1,2,1,12,0001-00-0009-37.png,0002-00-0009-66.png
00000009,167,1,1440600418834,1440600419414,916,312,0,0,0,5,4,1,54,0005-00-0003-20.png,0004-00-0009-98.png
00000009,168,1,1440600420841,1440600420877,866,312,0,0,0,4,3,1,43,0004-00-0004-54.png,0003-00-0002-09.png
00000009,169,1,1440600422046,1440600422134,873,410,0,0,0,3,2,1,32,0003-00-0008-98.png,0002-00-0005-59.png
00000009,170,1,1440600423225,1440600424471,888,357,0,0,0,4,3,1,43,0004-00-0009-93.png,0003-00-0004-81.png
00000009,171,0,1440600425325,1440600425399,877,443,0,0,0,4,5,1,45,0004-00-0003-26.png,0005-00-0009-68.png
00000009,172,0,1440600428393,1440600428626,926,384,0,0,0,2,3,1,23,0002-00-0005-07.png,0003-00-0005-64.png
00000009,173,0,1440600431792,1440600432382,929,332,0,0,0,1,2,1,12,0001-00-0001-15.png,0002-00-0005-60.png
00000009,174,1,1440600435479,1440600435964,917,308,0,0,0,2,1,1,21,0002-00-0009-79.png,0001-00-0007-89.png
00000009,175,1,1440600437587,1440600438509,368,406,0,0,0,3,4,1,34,0003-00-0001-06.png,0004-00-0009-56.png
00000009,176,1,1440600439372,1440600440443,892,331,0,0,0,5,4,1,54,0005-00-0002-61.png,0004-00-0008-01.png
00000009,177,0,1440600441287,1440600441351,862,425,0,0,0,2,3,1,23,0002-00-0000-24.png,0003-00-0006-08.png
00000009,178,1,1440600444450,1440600445576,418,228,0,0,0,4,5,1,45,0004-00-0002-78.png,0005-00-0006-02.png
00000009,179,0,1440600447206,1440600447818,457,256,0,0,0,3,2,1,32,0003-00-0008-79.png,0002-00-0005-47.png
00000009,180,1,1440600450833,1440600451381,913,321,0,0,0,2,1,1,21,0002-00-0001-01.png,0001-00-0000-42.png
00000009,181,0,1440600452891,1440600453713,1065,308,0,0,0,3,4,1,34,0003-00-0004-70.png,0004-00-0009-46.png
00000009,182,1,1440600456736,1440600457260,1092,279,0,0,0,5,4,1,54,0005-00-0007-39.png,0004-00-0002-57.png
00000009,183,0,1440600458685,1440600458760,878,358,0,0,0,1,2,1,12,0001-00-0003-43.png,0002-00-0000-83.png
00000009,184,1,1440600461706,1440600462332,895,336,0,0,0,4,3,1,43,0004-00-0001-77.png,0003-00-0008-66.png
00000009,185,1,1440600463822,1440600464571,923,361,0,0,0,3,2,1,32,0003-00-0003-27.png,0002-00-0006-51.png
00000009,186,0,1440600466107,1440600466179,879,417,0,0,0,1,2,1,12,0001-00-0000-35.png,0002-00-0002-64.png
00000009,187,1,1440600469374,1440600470130,395,264,0,0,0,4,5,1,45,0004-00-0009-63.png,0005-00-0008-50.png
00000009,188,1,1440600471004,1440600471088,881,391,0,0,0,2,1,1,21,0002-00-0000-70.png,0001-00-0002-00.png
00000009,189,1,1440600472416,1440600473454,341,392,0,0,0,3,4,1,34,0003-00-0002-86.png,0004-00-0003-64.png
00000009,190,0,1440600474343,1440600475390,361,371,0,0,0,5,4,1,54,0005-00-0008-11.png,0004-00-0009-48.png
00000009,191,0,1440600478479,1440600478531,967,365,0,0,0,2,3,1,23,0002-00-0001-76.png,0003-00-0004-54.png
00000009,192,1,1440600481696,1440600482252,923,335,0,0,0,4,3,1,43,0004-00-0006-84.png,0003-00-0001-34.png
00000009,193,0,1440600483633,1440600484409,924,357,0,0,0,1,2,1,12,0001-00-0006-82.png,0002-00-0009-57.png
00000009,194,1,1440600487261,1440600487513,945,386,0,0,0,4,3,1,43,0004-00-0001-53.png,0003-00-0009-35.png
00000009,195,1,1440600488344,1440600488515,913,436,0,0,0,3,2,1,32,0003-00-0009-08.png,0002-00-0002-49.png
00000009,196,0,1440600489649,1440600489737,857,421,0,0,0,2,3,1,23,0002-00-0002-86.png,0003-00-0005-14.png
00000009,197,0,1440600493125,1440600493169,963,311,0,0,0,4,5,1,45,0004-00-0004-95.png,0005-00-0003-61.png
00000009,198,1,1440600496327,1440600496881,1092,283,0,0,0,2,1,1,21,0002-00-0000-08.png,0001-00-0003-01.png
00000009,199,1,1440600498310,1440600498453,931,360,0,0,0,5,4,1,54,0005-00-0006-70.png,0004-00-0001-78.png
00000009,200,0,1440600499563,1440600499632,931,421,0,0,0,3,4,1,34,0003-00-0007-05.png,0004-00-0001-24.png
00000009,201,0,1440600502607,1440600503797,1078,269,0,0,0,4,5,1,45,0004-00-0002-89.png,0005-00-0009-23.png
00000009,202,1,1440600506941,1440600507527,1074,291,0,0,0,4,3,1,43,0004-00-0000-54.png,0003-00-0005-96.png
00000009,203,1,1440600508937,1440600509849,900,360,0,0,0,5,4,1,54,0005-00-0001-74.png,0004-00-0004-71.png
00000009,204,1,1440600510725,1440600510832,888,349,0,0,0,3,2,1,32,0003-00-0009-50.png,0002-00-0007-52.png
00000009,205,1,1440600512293,1440600513256,456,255,0,0,0,1,2,1,12,0001-00-0004-32.png,0002-00-0005-59.png
00000009,206,0,1440600514092,1440600515235,891,336,0,0,0,2,3,1,23,0002-00-0007-75.png,0003-00-0003-63.png
00000009,207,1,1440600518316,1440600518356,885,383,0,0,0,2,1,1,21,0002-00-0008-02.png,0001-00-0008-76.png
00000009,208,0,1440600519272,1440600519434,862,425,0,0,0,3,4,1,34,0003-00-0006-32.png,0004-00-0003-12.png
00000009,209,1,1440600522382,1440600522898,951,339,0,0,0,2,1,1,21,0002-00-0002-12.png,0001-00-0007-04.png
00000009,210,0,1440600524330,1440600524454,912,333,0,0,0,3,4,1,34,0003-00-0008-64.png,0004-00-0004-87.png
00000009,211,0,1440600527550,1440600527590,867,374,0,0,0,2,3,1,23,0002-00-0008-33.png,0003-00-0009-91.png
00000009,212,0,1440600530551,1440600530575,521,480,0,0,0,5,4,1,54,0005-00-0001-00.png,0004-00-0002-68.png
00000009,213,1,1440600533681,1440600534205,1070,263,0,0,0,3,2,1,32,0003-00-0006-54.png,0002-00-0004-77.png
00000009,214,1,1440600535757,1440600536333,938,324,0,0,0,4,3,1,43,0004-00-0006-04.png,0003-00-0009-23.png
00000009,215,0,1440600537935,1440600538027,862,370,0,0,0,4,5,1,45,0004-00-0001-29.png,0005-00-0001-38.png
00000009,216,0,1440600540894,1440600540934,862,410,0,0,0,1,2,1,12,0001-00-0007-59.png,0002-00-0006-56.png
00000009,217,1,1440600544007,1440600544540,915,344,0,0,0,2,1,1,21,0002-00-0009-96.png,0001-00-0005-16.png
00000009,218,0,1440600545904,1440600545992,867,337,0,0,0,2,3,1,23,0002-00-0008-79.png,0003-00-0007-41.png
00000009,219,0,1440600549183,1440600549707,960,325,0,0,0,4,5,1,45,0004-00-0006-12.png,0005-00-0004-04.png
00000009,220,1,1440600553166,1440600553971,1094,280,0,0,0,4,3,1,43,0004-00-0007-98.png,0003-00-0008-16.png
00000009,221,0,1440600555959,1440600555987,934,294,0,0,0,1,2,1,12,0001-00-0003-24.png,0002-00-0007-54.png
00000009,222,0,1440600559012,1440600559024,865,373,0,0,0,3,4,1,34,0003-00-0004-57.png,0004-00-0004-31.png
00000009,223,1,1440600562162,1440600562178,910,353,0,0,0,3,2,1,32,0003-00-0002-88.png,0002-00-0000-10.png
00000009,224,1,1440600563096,1440600563271,913,480,0,0,0,5,4,1,54,0005-00-0003-47.png,0004-00-0002-17.png
00000009,225,1,1440600564246,1440600564314,880,355,0,0,0,5,4,1,54,0005-00-0007-61.png,0004-00-0001-60.png
00000009,226,1,1440600565508,1440600565548,903,372,0,0,0,4,3,1,43,0004-00-0005-36.png,0003-00-0004-64.png
00000009,227,1,1440600566571,1440600568025,445,240,0,0,0,2,3,1,23,0002-00-0000-85.png,0003-00-0007-02.png
00000009,228,1,1440600568940,1440600569000,894,430,0,0,0,3,2,1,32,0003-00-0000-70.png,0002-00-0006-01.png
00000009,229,1,1440600570659,1440600570742,899,413,0,0,0,2,1,1,21,0002-00-0008-14.png,0001-00-0005-00.png
00000009,230,1,1440600571718,1440600572807,347,389,0,0,0,3,4,1,34,0003-00-0003-89.png,0004-00-0007-56.png
00000009,231,0,1440600573632,1440600574682,898,351,0,0,0,1,2,1,12,0001-00-0009-23.png,0002-00-0001-50.png
00000009,232,0,1440600577793,1440600577889,950,292,0,0,0,4,5,1,45,0004-00-0007-89.png,0005-00-0003-95.png
00000009,233,0,1440600581018,1440600581054,959,356,0,0,0,1,2,1,12,0001-00-0006-40.png,0002-00-0000-47.png
00000009,234,1,1440600584231,1440600584768,990,400,0,0,0,2,1,1,21,0002-00-0004-32.png,0001-00-0005-35.png
00000009,235,0,1440600585598,1440600585944,954,462,0,0,0,4,5,1,45,0004-00-0001-80.png,0005-00-0003-93.png
00000009,236,1,1440600588994,1440600589559,1067,284,0,0,0,5,4,1,54,0005-00-0001-64.png,0004-00-0002-26.png
00000009,237,1,1440600591030,1440600592490,1067,219,0,0,0,3,2,1,32,0003-00-0002-41.png,0002-00-0005-46.png
00000009,238,0,1440600593890,1440600593990,890,464,0,0,0,3,4,1,34,0003-00-0002-09.png,0004-00-0000-27.png
00000009,239,1,1440600596990,1440600597112,859,320,0,0,0,4,3,1,43,0004-00-0005-43.png,0003-00-0009-53.png
00000009,240,0,1440600598570,1440600598708,928,390,0,0,0,2,3,1,23,0002-00-0002-53.png,0003-00-0007-46.png
00000009,241,0,1440600601822,1440600602414,348,338,0,0,0,4,3,1,43,0004-00-0006-13.png,0003-00-0001-99.png
00000009,242,1,1440600605538,1440600606078,1092,270,0,0,0,3,2,1,32,0003-00-0001-50.png,0002-00-0000-64.png
00000009,243,1,1440600607654,1440600607698,968,277,0,0,0,5,4,1,54,0005-00-0002-32.png,0004-00-0007-11.png
00000009,244,1,1440600608586,1440600609550,887,332,0,0,0,2,1,1,21,0002-00-0008-02.png,0001-00-0007-31.png
00000009,245,0,1440600610478,1440600610628,888,473,0,0,0,1,2,1,12,0001-00-0001-82.png,0002-00-0006-71.png
00000009,246,0,1440600614190,1440600614250,911,330,0,0,0,3,4,1,34,0003-00-0000-15.png,0004-00-0008-16.png
00000009,247,0,1440600617133,1440600617736,1067,270,0,0,0,2,3,1,23,0002-00-0008-15.png,0003-00-0006-98.png
00000009,248,1,1440600620599,1440600620619,517,455,0,0,0,4,5,1,45,0004-00-0008-11.png,0005-00-0000-60.png
00000009,249,0,1440600621443,1440600621550,866,446,0,0,0,3,4,1,34,0003-00-0003-08.png,0004-00-0001-91.png
00000009,250,1,1440600624448,1440600625010,1020,278,0,0,0,3,2,1,32,0003-00-0000-64.png,0002-00-0001-21.png
00000009,251,1,1440600626546,1440600627156,940,326,0,0,0,4,3,1,43,0004-00-0005-22.png,0003-00-0009-29.png
00000009,252,0,1440600628852,1440600629361,891,487,0,0,0,1,2,1,12,0001-00-0007-14.png,0002-00-0002-16.png
00000009,253,0,1440600632539,1440600633162,950,350,0,0,0,4,5,1,45,0004-00-0005-06.png,0005-00-0009-00.png
00000009,254,1,1440600636076,1440600636208,934,405,0,0,0,2,1,1,21,0002-00-0004-73.png,0001-00-0003-85.png
00000009,255,0,1440600637067,1440600637476,913,500,0,0,0,2,3,1,23,0002-00-0007-01.png,0003-00-0009-15.png
00000009,256,1,1440600640687,1440600641221,947,325,0,0,0,5,4,1,54,0005-00-0007-93.png,0004-00-0000-33.png
00000009,257,1,1440600642764,1440600642872,916,355,0,0,0,4,3,1,43,0004-00-0003-55.png,0003-00-0005-22.png
00000009,258,0,1440600643918,1440600643978,875,428,0,0,0,1,2,1,12,0001-00-0000-16.png,0002-00-0003-11.png
00000009,259,1,1440600647008,1440600647084,913,397,0,0,0,5,4,1,54,0005-00-0005-00.png,0004-00-0004-59.png
00000009,260,0,1440600648766,1440600649569,467,239,0,0,0,2,1,1,21,0002-00-0006-87.png,0001-00-0006-95.png
00000009,261,0,1440600652779,1440600653302,1108,280,0,0,0,3,4,1,34,0003-00-0005-79.png,0004-00-0007-82.png
00000009,262,1,1440600656180,1440600656853,312,381,0,0,0,2,3,1,23,0002-00-0003-32.png,0003-00-0009-15.png
00000009,263,0,1440600657907,1440600658759,483,268,0,0,0,3,2,1,32,0003-00-0006-13.png,0002-00-0001-78.png
00000009,264,0,1440600661922,1440600662449,1091,277,0,0,0,4,5,1,45,0004-00-0007-87.png,0005-00-0004-50.png
00000009,265,1,1440600665612,1440600665636,919,378,0,0,0,4,3,1,43,0004-00-0008-76.png,0003-00-0009-28.png
00000009,266,0,1440600666464,1440600666818,913,472,0,0,0,3,4,1,34,0003-00-0001-13.png,0004-00-0000-82.png
00000009,267,1,1440600669874,1440600670408,975,297,0,0,0,3,2,1,32,0003-00-0004-28.png,0002-00-0001-56.png
00000009,268,1,1440600671869,1440600672792,460,235,0,0,0,4,5,1,45,0004-00-0005-26.png,0005-00-0005-28.png
00000009,269,0,1440600673739,1440600674789,440,241,0,0,0,5,4,1,54,0005-00-0005-77.png,0004-00-0002-98.png
00000009,270,0,1440600677946,1440600677982,996,357,0,0,0,1,2,1,12,0001-00-0008-91.png,0002-00-0003-74.png
00000009,271,1,1440600681231,1440600681811,427,266,0,0,0,2,3,1,23,0002-00-0001-78.png,0003-00-0002-06.png
00000009,272,1,1440600683438,1440600684059,940,340,0,0,0,2,1,1,21,0002-00-0008-27.png,0001-00-0006-03.png
00000009,273,1,1440600684894,1440600685805,352,351,0,0,0,2,3,1,23,0002-00-0003-39.png,0003-00-0003-70.png
00000009,274,0,1440600686704,1440600686790,913,396,0,0,0,4,5,1,45,0004-00-0004-20.png,0005-00-0005-62.png
00000009,275,1,1440600689895,1440600690619,931,313,0,0,0,3,2,1,32,0003-00-0009-05.png,0002-00-0002-39.png
00000009,276,1,1440600692017,1440600692332,932,377,0,0,0,5,4,1,54,0005-00-0007-76.png,0004-00-0009-86.png
00000009,277,1,1440600693383,1440600693443,862,370,0,0,0,2,1,1,21,0002-00-0000-52.png,0001-00-0009-34.png
00000009,278,1,1440600694416,1440600695328,350,397,0,0,0,3,4,1,34,0003-00-0000-98.png,0004-00-0004-05.png
00000009,279,1,1440600696291,1440600696345,889,488,0,0,0,4,3,1,43,0004-00-0008-66.png,0003-00-0007-94.png
00000009,280,1,1440600697269,1440600698225,378,330,0,0,0,1,2,1,12,0001-00-0008-60.png,0002-00-0003-60.png
00000009,281,0,1440600699252,1440600699345,899,444,0,0,0,3,4,1,34,0003-00-0009-20.png,0004-00-0008-24.png
00000009,282,1,1440600702469,1440600702994,942,306,0,0,0,2,1,1,21,0002-00-0004-78.png,0001-00-0008-70.png
00000009,283,1,1440600704388,1440600704485,909,356,0,0,0,4,3,1,43,0004-00-0007-42.png,0003-00-0007-29.png
00000009,284,0,1440600705538,1440600705626,890,446,0,0,0,2,3,1,23,0002-00-0000-29.png,0003-00-0004-78.png
00000009,285,0,1440600708748,1440600708784,979,325,0,0,0,4,5,1,45,0004-00-0006-74.png,0005-00-0007-45.png
00000009,286,0,1440600711878,1440600712457,1070,275,0,0,0,1,2,1,12,0001-00-0004-16.png,0002-00-0003-86.png
00000009,287,1,1440600715447,1440600716004,1070,278,0,0,0,3,2,1,32,0003-00-0003-81.png,0002-00-0007-85.png
00000009,288,1,1440600716833,1440600717958,937,325,0,0,0,5,4,1,54,0005-00-0008-91.png,0004-00-0006-01.png
00000009,289,0,1440600719392,1440600719531,913,348,0,0,0,2,3,1,23,0002-00-0004-82.png,0003-00-0004-44.png
00000009,290,1,1440600722389,1440600722989,946,323,0,0,0,4,3,1,43,0004-00-0002-37.png,0003-00-0002-95.png
00000009,291,0,1440600724361,1440600724516,954,358,0,0,0,4,5,1,45,0004-00-0009-09.png,0005-00-0009-67.png
00000009,292,1,1440600727388,1440600728073,1088,285,0,0,0,2,1,1,21,0002-00-0003-50.png,0001-00-0007-28.png
00000009,293,0,1440600729467,1440600729665,974,384,0,0,0,1,2,1,12,0001-00-0009-64.png,0002-00-0007-78.png
00000009,294,1,1440600732645,1440600733181,1072,278,0,0,0,5,4,1,54,0005-00-0007-22.png,0004-00-0006-17.png
00000009,295,1,1440600734531,1440600734627,913,343,0,0,0,3,2,1,32,0003-00-0001-03.png,0002-00-0005-66.png
00000009,296,0,1440600735575,1440600735607,886,388,0,0,0,3,4,1,34,0003-00-0007-06.png,0004-00-0001-89.png
00000009,297,0,1440600738719,1440600738767,968,318,0,0,0,3,4,1,34,0003-00-0008-88.png,0004-00-0002-89.png
00000009,298,1,1440600741906,1440600741918,980,332,0,0,0,4,3,1,43,0004-00-0009-32.png,0003-00-0006-93.png
00000009,299,1,1440600742754,1440600742869,928,410,0,0,0,3,2,1,32,0003-00-0007-94.png,0002-00-0008-59.png
00000009,300,0,1440600744147,1440600744223,866,446,0,0,0,2,3,1,23,0002-00-0001-38.png,0003-00-0001-49.png
00000009,301,0,1440600747065,1440600747739,466,223,0,0,0,2,1,1,21,0002-00-0006-31.png,0001-00-0000-13.png
00000009,302,1,1440600750575,1440600750595,983,440,0,0,0,5,4,1,54,0005-00-0003-48.png,0004-00-0002-73.png
00000009,303,0,1440600751610,1440600751666,920,418,0,0,0,1,2,1,12,0001-00-0009-39.png,0002-00-0001-92.png
00000009,304,0,1440600754800,1440600754848,990,360,0,0,0,4,5,1,45,0004-00-0008-12.png,0005-00-0007-39.png
00000009,305,0,1440600758058,1440600758595,917,355,0,0,0,2,3,1,23,0002-00-0003-23.png,0003-00-0002-73.png
00000009,306,0,1440600762062,1440600762090,939,365,0,0,0,4,5,1,45,0004-00-0005-02.png,0005-00-0000-55.png
00000009,307,1,1440600765301,1440600765527,862,436,0,0,0,5,4,1,54,0005-00-0000-65.png,0004-00-0005-77.png
00000009,308,1,1440600766370,1440600766823,963,482,0,0,0,4,3,1,43,0004-00-0003-51.png,0003-00-0002-58.png
00000009,309,1,1440600767835,1440600767891,939,422,0,0,0,3,2,1,32,0003-00-0002-88.png,0002-00-0006-99.png
00000009,310,0,1440600769238,1440600769322,876,424,0,0,0,1,2,1,12,0001-00-0006-25.png,0002-00-0008-19.png
00000009,311,1,1440600772844,1440600773406,921,334,0,0,0,2,1,1,21,0002-00-0001-78.png,0001-00-0008-74.png
00000009,312,0,1440600774762,1440600774854,937,327,0,0,0,3,4,1,34,0003-00-0008-90.png,0004-00-0006-04.png
00000009,313,0,1440600778060,1440600778576,939,323,0,0,0,4,5,1,45,0004-00-0004-13.png,0005-00-0004-59.png
00000009,314,0,1440600782116,1440600782726,1072,272,0,0,0,2,3,1,23,0002-00-0000-57.png,0003-00-0000-03.png
00000009,315,1,1440600785873,1440600785932,980,332,0,0,0,4,3,1,43,0004-00-0002-55.png,0003-00-0004-39.png
00000009,316,0,1440600786866,1440600786971,913,436,0,0,0,1,2,1,12,0001-00-0006-79.png,0002-00-0002-54.png
00000009,317,1,1440600790156,1440600790224,1004,309,0,0,0,3,2,1,32,0003-00-0006-89.png,0002-00-0008-88.png
00000009,318,1,1440600791139,1440600791969,894,326,0,0,0,2,1,1,21,0002-00-0004-44.png,0001-00-0001-90.png
00000009,319,1,1440600793512,1440600793627,877,384,0,0,0,5,4,1,54,0005-00-0006-06.png,0004-00-0006-14.png
00000009,320,0,1440600794686,1440600794754,888,445,0,0,0,3,4,1,34,0003-00-0007-76.png,0004-00-0005-32.png
00000009,321,1,1440600797944,1440600798481,1095,291,0,0,0,3,2,1,32,0003-00-0007-46.png,0002-00-0006-99.png
00000009,322,1,1440600799953,1440600800236,979,410,0,0,0,2,1,1,21,0002-00-0001-73.png,0001-00-0008-04.png
00000009,323,0,1440600801174,1440600801274,873,436,0,0,0,2,3,1,23,0002-00-0005-47.png,0003-00-0005-77.png
00000009,324,0,1440600804690,1440600804722,924,332,0,0,0,1,2,1,12,0001-00-0007-33.png,0002-00-0006-26.png
00000009,325,1,1440600807911,1440600808437,1088,283,0,0,0,5,4,1,54,0005-00-0000-74.png,0004-00-0008-16.png
00000009,326,0,1440600810029,1440600810685,1089,278,0,0,0,4,5,1,45,0004-00-0002-20.png,0005-00-0006-19.png
00000009,327,0,1440600813844,1440600814637,1102,299,0,0,0,3,4,1,34,0003-00-0009-91.png,0004-00-0009-14.png
00000009,328,0,1440600817791,1440600818515,453,262,0,0,0,4,3,1,43,0004-00-0004-95.png,0003-00-0000-69.png
00000009,329,0,1440600821718,1440600821821,1021,336,0,0,0,2,3,1,23,0002-00-0003-68.png,0003-00-0009-86.png
00000009,330,1,1440600824994,1440600825481,944,338,0,0,0,3,2,1,32,0003-00-0007-58.png,0002-00-0000-30.png
00000009,331,1,1440600826371,1440600826485,987,411,0,0,0,5,4,1,54,0005-00-0003-82.png,0004-00-0008-67.png
00000009,332,1,1440600828108,1440600828180,888,397,0,0,0,4,3,1,43,0004-00-0008-74.png,0003-00-0003-50.png
00000009,333,1,1440600829167,1440600829239,886,386,0,0,0,2,1,1,21,0002-00-0008-36.png,0001-00-0002-65.png
00000009,334,0,1440600830412,1440600830500,930,444,0,0,0,1,2,1,12,0001-00-0003-93.png,0002-00-0006-69.png
00000009,335,0,1440600833410,1440600833966,1044,261,0,0,0,4,5,1,45,0004-00-0003-23.png,0005-00-0000-00.png
00000009,336,0,1440600836840,1440600836919,909,447,0,0,0,3,4,1,34,0003-00-0006-64.png,0004-00-0002-46.png
00000009,337,0,1440600840059,1440600840610,975,326,0,0,0,2,3,1,23,0002-00-0005-42.png,0003-00-0003-49.png
00000009,338,0,1440600843807,1440600843847,951,334,0,0,0,1,2,1,12,0001-00-0005-80.png,0002-00-0001-39.png
00000009,339,0,1440600846767,1440600847331,910,303,0,0,0,4,5,1,45,0004-00-0008-59.png,0005-00-0009-11.png
00000009,340,1,1440600850432,1440600850949,931,310,0,0,0,4,3,1,43,0004-00-0001-53.png,0003-00-0003-36.png
00000009,341,1,1440600851838,1440600851906,964,384,0,0,0,5,4,1,54,0005-00-0007-28.png,0004-00-0004-13.png
00000009,342,1,1440600852739,1440600852818,888,428,0,0,0,3,2,1,32,0003-00-0001-80.png,0002-00-0001-67.png
00000009,343,0,1440600853892,1440600853960,862,410,0,0,0,3,4,1,34,0003-00-0003-80.png,0004-00-0007-11.png
00000009,344,1,1440600857135,1440600857163,959,358,0,0,0,2,1,1,21,0002-00-0001-48.png,0001-00-0000-76.png
00000009,345,0,1440600858047,1440600858254,928,443,0,0,0,4,5,1,45,0004-00-0000-77.png,0005-00-0008-87.png
00000009,346,1,1440600861457,1440600861481,939,351,0,0,0,3,2,1,32,0003-00-0002-95.png,0002-00-0001-73.png
00000009,347,1,1440600862908,1440600863156,965,364,0,0,0,4,3,1,43,0004-00-0003-01.png,0003-00-0008-96.png
00000009,348,0,1440600864106,1440600864177,890,385,0,0,0,1,2,1,12,0001-00-0006-03.png,0002-00-0007-21.png
00000009,349,1,1440600867007,1440600867035,862,384,0,0,0,5,4,1,54,0005-00-0004-76.png,0004-00-0001-58.png
00000009,350,1,1440600867925,1440600868140,939,474,0,0,0,2,1,1,21,0002-00-0000-70.png,0001-00-0004-68.png
00000009,351,0,1440600869973,1440600870299,955,410,0,0,0,3,4,1,34,0003-00-0009-96.png,0004-00-0009-38.png
00000009,352,0,1440600873488,1440600873512,934,350,0,0,0,2,3,1,23,0002-00-0006-29.png,0003-00-0003-56.png
00000009,353,1,1440600876680,1440600876946,875,364,0,0,0,2,1,1,21,0002-00-0007-32.png,0001-00-0005-51.png
00000009,354,0,1440600877839,1440600878789,1073,276,0,0,0,2,3,1,23,0002-00-0003-80.png,0003-00-0004-77.png
00000009,355,1,1440600881815,1440600881835,888,436,0,0,0,5,4,1,54,0005-00-0003-79.png,0004-00-0002-99.png
00000009,356,0,1440600882679,1440600882854,888,436,0,0,0,3,4,1,34,0003-00-0004-41.png,0004-00-0002-66.png
00000009,357,1,1440600885721,1440600886285,942,337,0,0,0,4,3,1,43,0004-00-0003-06.png,0003-00-0002-44.png
00000009,358,1,1440600887787,1440600888504,928,280,0,0,0,3,2,1,32,0003-00-0007-05.png,0002-00-0002-86.png
00000009,359,0,1440600889356,1440600889433,888,436,0,0,0,4,5,1,45,0004-00-0005-95.png,0005-00-0009-42.png
00000009,360,0,1440600892389,1440600892938,1092,253,0,0,0,1,2,1,12,0001-00-0005-29.png,0002-00-0005-85.png
00000009,361,0,1440600895861,1440600896487,934,324,0,0,0,3,4,1,34,0003-00-0007-40.png,0004-00-0005-98.png
00000009,362,1,1440600899572,1440600899624,934,383,0,0,0,3,2,1,32,0003-00-0005-75.png,0002-00-0006-29.png
00000009,363,1,1440600900485,1440600901002,929,488,0,0,0,5,4,1,54,0005-00-0004-27.png,0004-00-0001-40.png
00000009,364,1,1440600901867,1440600901950,913,451,0,0,0,2,1,1,21,0002-00-0006-11.png,0001-00-0000-62.png
00000009,365,1,1440600903332,1440600904258,362,352,0,0,0,4,5,1,45,0004-00-0003-12.png,0005-00-0005-37.png
00000009,366,1,1440600905140,1440600905188,895,400,0,0,0,4,3,1,43,0004-00-0003-29.png,0003-00-0007-28.png
00000009,367,0,1440600906542,1440600907300,894,315,0,0,0,1,2,1,12,0001-00-0006-00.png,0002-00-0004-64.png
00000009,368,1,1440600910524,1440600911222,428,281,0,0,0,2,3,1,23,0002-00-0004-06.png,0003-00-0003-91.png
00000009,369,0,1440600912097,1440600912193,888,400,0,0,0,3,4,1,34,0003-00-0004-73.png,0004-00-0003-99.png
00000009,370,0,1440600915125,1440600915891,1067,253,0,0,0,2,3,1,23,0002-00-0003-69.png,0003-00-0004-80.png
00000009,371,1,1440600919218,1440600919250,913,345,0,0,0,4,3,1,43,0004-00-0009-05.png,0003-00-0008-93.png
00000009,372,0,1440600920219,1440600920323,913,471,0,0,0,1,2,1,12,0001-00-0002-49.png,0002-00-0000-44.png
00000009,373,1,1440600923367,1440600923395,891,419,0,0,0,5,4,1,54,0005-00-0003-39.png,0004-00-0005-07.png
00000009,374,1,1440600924387,1440600924431,888,445,0,0,0,2,1,1,21,0002-00-0002-35.png,0001-00-0006-63.png
00000009,375,1,1440600925760,1440600926074,939,410,0,0,0,3,2,1,32,0003-00-0003-50.png,0002-00-0002-35.png
00000009,376,0,1440600927312,1440600928290,896,332,0,0,0,4,5,1,45,0004-00-0008-53.png,0005-00-0004-39.png
00000009,377,0,1440600931473,1440600931513,1028,343,0,0,0,4,5,1,45,0004-00-0005-43.png,0005-00-0002-48.png
00000009,378,0,1440600934576,1440600935187,929,390,0,0,0,2,3,1,23,0002-00-0005-40.png,0003-00-0008-62.png
00000009,379,1,1440600938417,1440600938460,971,350,0,0,0,4,3,1,43,0004-00-0005-82.png,0003-00-0002-69.png
00000009,380,1,1440600939416,1440600939562,924,446,0,0,0,3,2,1,32,0003-00-0000-58.png,0002-00-0009-11.png
00000009,381,1,1440600940406,1440600940466,874,384,0,0,0,5,4,1,54,0005-00-0003-21.png,0004-00-0000-46.png
00000009,382,0,1440600942020,1440600942060,862,397,0,0,0,1,2,1,12,0001-00-0007-16.png,0002-00-0009-15.png
00000009,383,0,1440600945140,1440600945703,939,299,0,0,0,3,4,1,34,0003-00-0004-76.png,0004-00-0001-63.png
00000009,384,1,1440600949112,1440600950134,1056,376,0,0,0,2,1,1,21,0002-00-0000-19.png,0001-00-0003-97.png
00000009,385,1,1440600951629,1440600952223,444,262,0,0,0,3,4,1,34,0003-00-0004-78.png,0004-00-0006-98.png
00000009,386,1,1440600953057,1440600953137,862,488,0,0,0,2,1,1,21,0002-00-0004-86.png,0001-00-0007-41.png
00000009,387,1,1440600954580,1440600954817,910,463,0,0,0,4,3,1,43,0004-00-0007-59.png,0003-00-0002-01.png
00000009,388,1,1440600955642,1440600956513,504,269,0,0,0,2,3,1,23,0002-00-0006-30.png,0003-00-0003-67.png
00000009,389,1,1440600957578,1440600958303,364,397,0,0,0,4,5,1,45,0004-00-0001-61.png,0005-00-0009-99.png
00000009,390,1,1440600959261,1440600960013,486,315,0,0,0,1,2,1,12,0001-00-0002-62.png,0002-00-0005-51.png
00000009,391,1,1440600961166,1440600961654,907,541,0,0,0,5,4,1,54,0005-00-0009-13.png,0004-00-0005-01.png
00000009,392,0,1440600962589,1440600963420,320,378,0,0,0,3,2,1,32,0003-00-0007-26.png,0002-00-0009-51.png
00000009,393,1,1440600966484,1440600966532,914,427,0,0,0,5,4,1,54,0005-00-0001-94.png,0004-00-0006-05.png
00000009,394,0,1440600967430,1440600967721,909,478,0,0,0,3,4,1,34,0003-00-0001-65.png,0004-00-0000-19.png
00000009,395,0,1440600970587,1440600970603,871,462,0,0,0,1,2,1,12,0001-00-0009-75.png,0002-00-0003-88.png
00000009,396,1,1440600973471,1440600973962,943,334,0,0,0,4,3,1,43,0004-00-0003-37.png,0003-00-0003-81.png
00000009,397,1,1440600975369,1440600976256,459,218,0,0,0,4,5,1,45,0004-00-0005-57.png,0005-00-0001-58.png
00000009,398,1,1440600977159,1440600977219,862,410,0,0,0,2,1,1,21,0002-00-0009-80.png,0001-00-0000-02.png
00000009,399,1,1440600978046,1440600978896,432,319,0,0,0,2,3,1,23,0002-00-0009-66.png,0003-00-0004-55.png
00000009,400,0,1440600980000,1440600980771,464,259,0,0,0,3,2,1,32,0003-00-0004-31.png,0002-00-0006-87.png
00000009,401,0,1440600983906,1440600983934,909,356,0,0,0,4,5,1,45,0004-00-0002-87.png,0005-00-0000-77.png
00000009,402,0,1440600987124,1440600988727,339,354,0,0,0,5,4,1,54,0005-00-0008-37.png,0004-00-0008-53.png
00000009,403,0,1440600991894,1440600992428,1074,283,0,0,0,2,3,1,23,0002-00-0007-02.png,0003-00-0009-84.png
00000009,404,0,1440600995609,1440600996232,418,274,0,0,0,4,3,1,43,0004-00-0002-15.png,0003-00-0005-40.png
00000009,405,0,1440600999387,1440600999415,1008,382,0,0,0,3,4,1,34,0003-00-0006-77.png,0004-00-0002-33.png
00000009,406,1,1440601002638,1440601003175,989,339,0,0,0,3,2,1,32,0003-00-0005-85.png,0002-00-0002-87.png
00000009,407,1,1440601004045,1440601004920,886,384,0,0,0,2,1,1,21,0002-00-0008-17.png,0001-00-0002-15.png
00000009,408,0,1440601005747,1440601005886,913,401,0,0,0,1,2,1,12,0001-00-0006-02.png,0002-00-0006-02.png
00000009,409,1,1440601009105,1440601009640,972,317,0,0,0,2,1,1,21,0002-00-0005-90.png,0001-00-0009-87.png
00000009,410,0,1440601011161,1440601011323,968,329,0,0,0,1,2,1,12,0001-00-0000-92.png,0002-00-0002-30.png
00000009,411,0,1440601014402,1440601015005,959,325,0,0,0,4,5,1,45,0004-00-0008-10.png,0005-00-0004-84.png
00000009,412,1,1440601018061,1440601018583,924,349,0,0,0,3,2,1,32,0003-00-0008-72.png,0002-00-0003-39.png
00000009,413,1,1440601020068,1440601020817,438,268,0,0,0,2,3,1,23,0002-00-0001-11.png,0003-00-0006-43.png
00000009,414,1,1440601021755,1440601021918,913,452,0,0,0,4,3,1,43,0004-00-0008-57.png,0003-00-0007-19.png
00000009,415,1,1440601023466,1440601023735,934,412,0,0,0,5,4,1,54,0005-00-0007-69.png,0004-00-0006-98.png
00000009,416,0,1440601024717,1440601024749,862,416,0,0,0,3,4,1,34,0003-00-0005-28.png,0004-00-0004-11.png
00000009,417,0,1440601027739,1440601028538,966,298,0,0,0,3,4,1,34,0003-00-0005-41.png,0004-00-0002-21.png
00000009,418,1,1440601031683,1440601031735,960,326,0,0,0,2,1,1,21,0002-00-0003-92.png,0001-00-0006-66.png
00000009,419,1,1440601033101,1440601033208,944,365,0,0,0,4,3,1,43,0004-00-0003-61.png,0003-00-0004-04.png
00000009,420,1,1440601034188,1440601034224,865,408,0,0,0,5,4,1,54,0005-00-0009-25.png,0004-00-0005-28.png
00000009,421,0,1440601035386,1440601035418,876,411,0,0,0,2,3,1,23,0002-00-0005-76.png,0003-00-0007-81.png
00000009,422,1,1440601038386,1440601038929,916,340,0,0,0,3,2,1,32,0003-00-0008-80.png,0002-00-0008-07.png
00000009,423,1,1440601039799,1440601041148,316,388,0,0,0,1,2,1,12,0001-00-0004-65.png,0002-00-0008-91.png
00000009,424,0,1440601042098,1440601042174,913,450,0,0,0,4,5,1,45,0004-00-0002-60.png,0005-00-0000-20.png
00000009,425,1,1440601045227,1440601045263,915,388,0,0,0,3,2,1,32,0003-00-0008-93.png,0002-00-0000-39.png
00000009,426,0,1440601046172,1440601046289,950,404,0,0,0,2,3,1,23,0002-00-0007-44.png,0003-00-0006-34.png
00000009,427,1,1440601049461,1440601049517,970,362,0,0,0,5,4,1,54,0005-00-0001-00.png,0004-00-0003-99.png
00000009,428,1,1440601050790,1440601051057,959,385,0,0,0,4,3,1,43,0004-00-0007-66.png,0003-00-0003-89.png
00000009,429,0,1440601051981,1440601052049,896,384,0,0,0,4,5,1,45,0004-00-0001-00.png,0005-00-0005-26.png
00000009,430,0,1440601055114,1440601055182,882,461,0,0,0,3,4,1,34,0003-00-0002-17.png,0004-00-0005-37.png
00000009,431,1,1440601058282,1440601058310,971,356,0,0,0,2,1,1,21,0002-00-0005-90.png,0001-00-0004-77.png
00000009,432,0,1440601059143,1440601059273,914,464,0,0,0,1,2,1,12,0001-00-0005-47.png,0002-00-0008-67.png
00000009,433,1,1440601062458,1440601062486,987,358,0,0,0,3,2,1,32,0003-00-0003-97.png,0002-00-0002-68.png
00000009,434,1,1440601063413,1440601063597,939,410,0,0,0,2,1,1,21,0002-00-0000-06.png,0001-00-0001-79.png
00000009,435,0,1440601065239,1440601065323,893,394,0,0,0,2,3,1,23,0002-00-0006-33.png,0003-00-0005-43.png
00000009,436,1,1440601068865,1440601069539,338,390,0,0,0,4,5,1,45,0004-00-0000-08.png,0005-00-0002-00.png
00000009,437,1,1440601070391,1440601070518,964,436,0,0,0,5,4,1,54,0005-00-0006-80.png,0004-00-0007-73.png
00000009,438,0,1440601071779,1440601071848,888,398,0,0,0,3,4,1,34,0003-00-0001-60.png,0004-00-0000-75.png
00000009,439,1,1440601075037,1440601075057,921,328,0,0,0,4,3,1,43,0004-00-0008-58.png,0003-00-0009-03.png
00000009,440,0,1440601075881,1440601075999,913,449,0,0,0,1,2,1,12,0001-00-0009-65.png,0002-00-0009-82.png
00000009,441,0,1440601079192,1440601080261,348,378,0,0,0,5,4,1,54,0005-00-0006-35.png,0004-00-0002-84.png
00000009,442,0,1440601083377,1440601083401,916,413,0,0,0,2,3,1,23,0002-00-0009-31.png,0003-00-0009-94.png
00000009,443,0,1440601086366,1440601086956,917,326,0,0,0,4,5,1,45,0004-00-0002-40.png,0005-00-0000-33.png
00000009,444,1,1440601089825,1440601090822,923,363,0,0,0,4,3,1,43,0004-00-0009-17.png,0003-00-0000-60.png
00000009,445,1,1440601092489,1440601093170,420,279,0,0,0,1,2,1,12,0001-00-0004-98.png,0002-00-0002-18.png
00000009,446,1,1440601094109,1440601094225,913,448,0,0,0,3,2,1,32,0003-00-0005-95.png,0002-00-0002-07.png
00000009,447,0,1440601095090,1440601095162,862,427,0,0,0,3,4,1,34,0003-00-0005-58.png,0004-00-0009-32.png
00000009,448,1,1440601098252,1440601098312,925,381,0,0,0,2,1,1,21,0002-00-0007-87.png,0001-00-0007-92.png
00000009,449,0,1440601099134,1440601099480,964,498,0,0,0,2,3,1,23,0002-00-0001-46.png,0003-00-0007-48.png
00000009,450,1,1440601102645,1440601103236,1075,275,0,0,0,5,4,1,54,0005-00-0006-85.png,0004-00-0007-22.png
00000009,451,0,1440601104663,1440601104734,917,353,0,0,0,4,5,1,45,0004-00-0009-38.png,0005-00-0005-43.png
00000009,452,0,1440601108320,1440601108889,1052,279,0,0,0,1,2,1,12,0001-00-0005-18.png,0002-00-0009-15.png
00000009,453,0,1440601112014,1440601112042,925,362,0,0,0,3,4,1,34,0003-00-0005-03.png,0004-00-0003-78.png
00000009,454,1,1440601115196,1440601115216,925,356,0,0,0,4,3,1,43,0004-00-0000-06.png,0003-00-0006-64.png
00000009,455,1,1440601116148,1440601116401,986,462,0,0,0,3,2,1,32,0003-00-0007-54.png,0002-00-0004-89.png
00000009,456,1,1440601117269,1440601117321,904,384,0,0,0,2,1,1,21,0002-00-0003-99.png,0001-00-0004-77.png
00000009,457,1,1440601118177,1440601118291,877,436,0,0,0,4,3,1,43,0004-00-0005-68.png,0003-00-0003-57.png
00000009,458,0,1440601119718,1440601119774,862,371,0,0,0,4,5,1,45,0004-00-0004-69.png,0005-00-0003-89.png
00000009,459,0,1440601122995,1440601123023,952,333,0,0,0,2,3,1,23,0002-00-0008-60.png,0003-00-0003-13.png
00000009,460,1,1440601125955,1440601126498,942,319,0,0,0,3,2,1,32,0003-00-0001-11.png,0002-00-0002-93.png
00000009,461,1,1440601127833,1440601127901,929,341,0,0,0,5,4,1,54,0005-00-0005-92.png,0004-00-0000-62.png
00000009,462,0,1440601128896,1440601128948,899,410,0,0,0,3,4,1,34,0003-00-0006-50.png,0004-00-0003-45.png
00000009,463,0,1440601132068,1440601132080,914,359,0,0,0,1,2,1,12,0001-00-0003-88.png,0002-00-0006-84.png
00000009,464,1,1440601135230,1440601135270,926,380,0,0,0,2,1,1,21,0002-00-0000-48.png,0001-00-0004-06.png
00000009,465,0,1440601136627,1440601136866,988,355,0,0,0,2,3,1,23,0002-00-0004-97.png,0003-00-0003-31.png
00000009,466,0,1440601139779,1440601139847,903,488,0,0,0,3,4,1,34,0003-00-0002-98.png,0004-00-0006-99.png
00000009,467,1,1440601142680,1440601143188,1072,280,0,0,0,2,1,1,21,0002-00-0007-21.png,0001-00-0004-22.png
00000009,468,1,1440601144609,1440601145321,944,345,0,0,0,3,2,1,32,0003-00-0002-08.png,0002-00-0006-55.png
00000009,469,0,1440601146159,1440601146243,935,412,0,0,0,1,2,1,12,0001-00-0006-39.png,0002-00-0004-78.png
00000009,470,0,1440601149150,1440601149174,485,418,0,0,0,4,3,1,43,0004-00-0008-72.png,0003-00-0001-52.png
00000009,471,1,1440601152090,1440601152642,898,337,0,0,0,5,4,1,54,0005-00-0002-41.png,0004-00-0001-89.png
00000009,472,0,1440601153970,1440601154096,939,358,0,0,0,4,5,1,45,0004-00-0001-35.png,0005-00-0002-79.png
00000009,473,1,1440601157325,1440601157983,436,261,0,0,0,4,5,1,45,0004-00-0005-36.png,0005-00-0004-83.png
00000009,474,1,1440601158899,1440601158939,918,415,0,0,0,2,1,1,21,0002-00-0002-12.png,0001-00-0007-01.png
00000009,475,0,1440601160365,1440601160470,896,410,0,0,0,3,4,1,34,0003-00-0006-48.png,0004-00-0009-91.png
00000009,476,0,1440601163675,1440601164330,352,389,0,0,0,4,3,1,43,0004-00-0007-88.png,0003-00-0001-02.png
00000009,477,1,1440601167173,1440601167205,955,488,0,0,0,3,2,1,32,0003-00-0005-15.png,0002-00-0008-92.png
00000009,478,0,1440601168562,1440601168770,939,421,0,0,0,2,3,1,23,0002-00-0002-70.png,0003-00-0008-60.png
00000009,479,0,1440601171904,1440601172517,941,332,0,0,0,1,2,1,12,0001-00-0005-82.png,0002-00-0001-54.png
00000009,480,0,1440601175663,1440601176506,332,366,0,0,0,5,4,1,54,0005-00-0001-96.png,0004-00-0000-63.png
00000009,481,1,1440601179686,1440601179714,980,359,0,0,0,3,2,1,32,0003-00-0003-35.png,0002-00-0005-47.png
00000009,482,0,1440601180691,1440601180781,938,413,0,0,0,1,2,1,12,0001-00-0009-51.png,0002-00-0000-29.png
00000009,483,0,1440601183911,1440601183987,958,365,0,0,0,4,5,1,45,0004-00-0004-83.png,0005-00-0003-09.png
00000009,484,1,1440601187110,1440601187146,906,381,0,0,0,4,3,1,43,0004-00-0000-39.png,0003-00-0006-05.png
00000009,485,0,1440601188588,1440601189276,915,319,0,0,0,2,3,1,23,0002-00-0004-45.png,0003-00-0000-92.png
00000009,486,1,1440601192259,1440601192888,971,398,0,0,0,5,4,1,54,0005-00-0001-38.png,0004-00-0007-07.png
00000009,487,1,1440601194290,1440601194683,990,395,0,0,0,2,1,1,21,0002-00-0001-44.png,0001-00-0008-94.png
00000009,488,0,1440601195522,1440601195606,862,436,0,0,0,3,4,1,34,0003-00-0004-10.png,0004-00-0005-22.png
00000009,489,0,1440601198523,1440601199214,350,371,0,0,0,4,3,1,43,0004-00-0008-78.png,0003-00-0007-96.png
00000009,490,0,1440601202352,1440601202384,939,384,0,0,0,2,3,1,23,0002-00-0000-11.png,0003-00-0000-36.png
00000009,491,0,1440601205573,1440601206325,1093,283,0,0,0,3,4,1,34,0003-00-0005-75.png,0004-00-0005-28.png
00000009,492,1,1440601210203,1440601210807,1069,266,0,0,0,5,4,1,54,0005-00-0004-18.png,0004-00-0000-39.png
00000009,493,0,1440601211632,1440601212894,384,289,0,0,0,2,1,1,21,0002-00-0000-51.png,0001-00-0009-57.png
00000009,494,0,1440601216099,1440601216147,1041,336,0,0,0,1,2,1,12,0001-00-0004-78.png,0002-00-0003-79.png
00000009,495,1,1440601219249,1440601219770,970,318,0,0,0,3,2,1,32,0003-00-0004-06.png,0002-00-0008-18.png
00000009,496,0,1440601221214,1440601221493,990,370,0,0,0,4,5,1,45,0004-00-0002-09.png,0005-00-0003-69.png
00000009,497,1,1440601224634,1440601225203,1146,257,0,0,0,2,1,1,21,0002-00-0005-93.png,0001-00-0002-89.png
00000009,498,1,1440601226712,1440601226740,913,358,0,0,0,5,4,1,54,0005-00-0009-65.png,0004-00-0009-06.png
00000009,499,0,1440601227601,1440601227694,888,454,0,0,0,2,3,1,23,0002-00-0002-68.png,0003-00-0009-67.png
00000009,500,1,1440601230765,1440601231318,961,327,0,0,0,4,3,1,43,0004-00-0001-55.png,0003-00-0006-57.png
00000009,501,0,1440601232708,1440601232870,990,371,0,0,0,1,2,1,12,0001-00-0007-61.png,0002-00-0003-80.png
00000009,502,0,1440601235912,1440601236000,900,383,0,0,0,4,5,1,45,0004-00-0006-42.png,0005-00-0007-54.png
00000009,503,1,1440601239213,1440601239743,1092,269,0,0,0,3,2,1,32,0003-00-0003-87.png,0002-00-0002-90.png
00000009,504,0,1440601241141,1440601241249,936,357,0,0,0,3,4,1,34,0003-00-0007-70.png,0004-00-0007-37.png
00000009,505,1,1440601244211,1440601245158,1088,277,0,0,0,4,3,1,43,0004-00-0003-78.png,0003-00-0007-94.png
00000009,506,1,1440601246148,1440601247143,467,243,0,0,0,2,3,1,23,0002-00-0005-00.png,0003-00-0009-23.png
00000009,507,1,1440601248087,1440601248147,866,466,0,0,0,2,1,1,21,0002-00-0007-98.png,0001-00-0004-87.png
00000009,508,1,1440601249494,1440601249769,939,448,0,0,0,5,4,1,54,0005-00-0004-37.png,0004-00-0007-67.png
00000009,509,0,1440601251199,1440601251235,898,421,0,0,0,3,4,1,34,0003-00-0000-85.png,0004-00-0007-62.png
00000009,510,0,1440601254367,1440601254383,901,334,0,0,0,1,2,1,12,0001-00-0003-11.png,0002-00-0008-55.png
00000009,511,1,1440601257636,1440601258183,933,346,0,0,0,3,2,1,32,0003-00-0000-29.png,0002-00-0003-49.png
00000009,512,0,1440601259729,1440601259749,913,332,0,0,0,4,5,1,45,0004-00-0003-64.png,0005-00-0001-91.png
00000009,513,1,1440601262883,1440601262923,919,365,0,0,0,5,4,1,54,0005-00-0004-82.png,0004-00-0000-15.png
00000009,514,1,1440601263851,1440601263934,913,452,0,0,0,3,2,1,32,0003-00-0006-58.png,0002-00-0008-67.png
00000009,515,0,1440601265457,1440601265525,888,426,0,0,0,1,2,1,12,0001-00-0005-30.png,0002-00-0008-70.png
00000009,516,1,1440601268574,1440601269177,419,256,0,0,0,4,5,1,45,0004-00-0007-82.png,0005-00-0006-83.png
00000009,517,0,1440601270131,1440601270323,939,436,0,0,0,2,3,1,23,0002-00-0005-86.png,0003-00-0008-97.png
00000009,518,1,1440601273184,1440601273747,912,304,0,0,0,2,1,1,21,0002-00-0005-20.png,0001-00-0008-95.png
00000009,519,1,1440601275156,1440601275320,932,373,0,0,0,4,3,1,43,0004-00-0006-01.png,0003-00-0007-64.png
00000009,520,0,1440601276215,1440601276255,860,396,0,0,0,3,4,1,34,0003-00-0003-35.png,0004-00-0007-46.png
00000009,521,1,1440601279159,1440601279837,324,376,0,0,0,1,2,1,12,0001-00-0004-09.png,0002-00-0005-09.png
00000009,522,0,1440601280688,1440601280760,990,373,0,0,0,4,5,1,45,0004-00-0002-24.png,0005-00-0002-98.png
00000009,523,0,1440601283881,1440601283917,891,388,0,0,0,3,4,1,34,0003-00-0000-80.png,0004-00-0002-63.png
00000009,524,1,1440601287088,1440601287124,936,377,0,0,0,5,4,1,54,0005-00-0006-48.png,0004-00-0007-61.png
00000009,525,1,1440601288013,1440601288223,929,462,0,0,0,4,3,1,43,0004-00-0006-04.png,0003-00-0005-44.png
00000009,526,0,1440601289276,1440601290192,484,261,0,0,0,2,1,1,21,0002-00-0000-29.png,0001-00-0001-01.png
00000009,527,1,1440601293693,1440601293709,866,332,0,0,0,3,2,1,32,0003-00-0006-19.png,0002-00-0005-46.png
00000009,528,0,1440601294597,1440601294669,863,414,0,0,0,2,3,1,23,0002-00-0004-71.png,0003-00-0004-19.png
00000009,529,0,1440601297703,1440601297900,1002,361,0,0,0,3,4,1,34,0003-00-0007-67.png,0004-00-0005-87.png
00000009,530,1,1440601301029,1440601301081,934,380,0,0,0,4,3,1,43,0004-00-0005-08.png,0003-00-0009-95.png
00000009,531,1,1440601302547,1440601303250,1041,257,0,0,0,2,1,1,21,0002-00-0004-19.png,0001-00-0006-50.png
00000009,532,0,1440601304096,1440601304187,938,409,0,0,0,1,2,1,12,0001-00-0001-35.png,0002-00-0005-11.png
00000009,533,0,1440601307200,1440601307212,871,434,0,0,0,2,3,1,23,0002-00-0005-92.png,0003-00-0009-79.png
00000009,534,1,1440601310362,1440601310875,936,326,0,0,0,3,2,1,32,0003-00-0007-95.png,0002-00-0008-05.png
00000009,535,1,1440601312289,1440601312329,961,332,0,0,0,5,4,1,54,0005-00-0009-64.png,0004-00-0006-14.png
00000009,536,0,1440601313149,1440601313233,865,410,0,0,0,4,5,1,45,0004-00-0005-21.png,0005-00-0006-07.png
00000009,537,0,1440601316394,1440601316902,939,330,0,0,0,3,4,1,34,0003-00-0006-08.png,0004-00-0006-13.png
00000009,538,0,1440601320051,1440601320055,902,405,0,0,0,2,3,1,23,0002-00-0000-43.png,0003-00-0004-65.png
00000009,539,1,1440601323247,1440601323786,1090,277,0,0,0,4,3,1,43,0004-00-0009-75.png,0003-00-0000-24.png
00000009,540,1,1440601325127,1440601325242,909,355,0,0,0,5,4,1,54,0005-00-0007-20.png,0004-00-0000-55.png
00000009,541,0,1440601326301,1440601327354,345,369,0,0,0,2,1,1,21,0002-00-0009-54.png,0001-00-0008-97.png
00000009,542,1,1440601330462,1440601330963,1074,287,0,0,0,3,2,1,32,0003-00-0001-23.png,0002-00-0003-51.png
00000009,543,0,1440601332431,1440601332593,961,342,0,0,0,4,5,1,45,0004-00-0001-63.png,0005-00-0007-83.png
00000009,544,1,1440601335543,1440601336759,303,352,0,0,0,1,2,1,12,0001-00-0005-81.png,0002-00-0004-05.png
00000009,545,1,1440601337706,1440601337822,928,441,0,0,0,3,2,1,32,0003-00-0009-55.png,0002-00-0003-37.png
00000009,546,0,1440601339457,1440601339548,881,392,0,0,0,2,3,1,23,0002-00-0006-85.png,0003-00-0008-52.png
00000009,547,1,1440601342459,1440601343330,947,341,0,0,0,5,4,1,54,0005-00-0002-71.png,0004-00-0008-44.png
00000009,548,1,1440601344212,1440601345099,1045,273,0,0,0,4,3,1,43,0004-00-0001-31.png,0003-00-0004-27.png
00000009,549,0,1440601345941,1440601346033,904,410,0,0,0,3,4,1,34,0003-00-0006-49.png,0004-00-0009-63.png
00000009,550,1,1440601349156,1440601349196,911,380,0,0,0,2,1,1,21,0002-00-0007-62.png,0001-00-0001-22.png
00000009,551,0,1440601350067,1440601350191,928,462,0,0,0,1,2,1,12,0001-00-0004-32.png,0002-00-0007-23.png
00000009,552,0,1440601353674,1440601353706,902,384,0,0,0,4,5,1,45,0004-00-0000-23.png,0005-00-0007-55.png
00000009,553,1,1440601356867,1440601357469,942,341,0,0,0,2,1,1,21,0002-00-0005-78.png,0001-00-0006-21.png
00000009,554,1,1440601358882,1440601359219,1016,369,0,0,0,4,3,1,43,0004-00-0005-47.png,0003-00-0004-51.png
00000009,555,0,1440601360156,1440601360204,896,358,0,0,0,4,5,1,45,0004-00-0003-31.png,0005-00-0008-13.png
00000009,556,0,1440601363376,1440601363420,927,344,0,0,0,1,2,1,12,0001-00-0002-53.png,0002-00-0005-01.png
00000009,557,0,1440601366642,1440601366654,917,359,0,0,0,3,4,1,34,0003-00-0004-28.png,0004-00-0003-20.png
00000009,558,1,1440601369657,1440601369669,473,494,0,0,0,2,3,1,23,0002-00-0001-04.png,0003-00-0001-02.png
00000009,559,1,1440601370556,1440601370711,939,447,0,0,0,5,4,1,54,0005-00-0008-28.png,0004-00-0000-23.png
00000009,560,1,1440601371559,1440601371644,913,410,0,0,0,3,2,1,32,0003-00-0004-16.png,0002-00-0002-84.png
00000009,561,1,1440601372683,1440601372735,896,417,0,0,0,5,4,1,54,0005-00-0008-12.png,0004-00-0000-32.png
00000009,562,0,1440601374321,1440601374392,971,430,0,0,0,2,3,1,23,0002-00-0000-08.png,0003-00-0003-81.png
00000009,563,1,1440601377590,1440601377622,893,386,0,0,0,2,1,1,21,0002-00-0002-07.png,0001-00-0004-19.png
00000009,564,0,1440601378508,1440601378596,922,456,0,0,0,1,2,1,12,0001-00-0001-03.png,0002-00-0008-52.png
00000009,565,0,1440601381753,1440601381785,915,328,0,0,0,4,5,1,45,0004-00-0007-76.png,0005-00-0009-13.png
00000009,566,0,1440601384954,1440601384966,920,357,0,0,0,3,4,1,34,0003-00-0007-43.png,0004-00-0006-59.png
00000009,567,1,1440601388186,1440601388741,959,353,0,0,0,3,2,1,32,0003-00-0005-21.png,0002-00-0001-99.png
00000009,568,1,1440601390141,1440601390933,1063,277,0,0,0,4,3,1,43,0004-00-0004-10.png,0003-00-0007-03.png
00000009,569,0,1440601391759,1440601392894,470,264,0,0,0,5,4,1,54,0005-00-0003-57.png,0004-00-0003-24.png
00000009,570,1,1440601395958,1440601396557,1070,275,0,0,0,2,1,1,21,0002-00-0001-68.png,0001-00-0002-48.png
00000009,571,1,1440601397954,1440601398002,916,349,0,0,0,3,2,1,32,0003-00-0000-42.png,0002-00-0000-40.png
00000009,572,0,1440601398997,1440601399077,907,445,0,0,0,2,3,1,23,0002-00-0003-62.png,0003-00-0005-57.png
00000009,573,0,1440601402079,1440601402671,1087,263,0,0,0,3,4,1,34,0003-00-0002-95.png,0004-00-0005-97.png
00000009,574,0,1440601405628,1440601406206,894,350,0,0,0,4,5,1,45,0004-00-0002-05.png,0005-00-0005-30.png
00000009,575,0,1440601409351,1440601409379,913,373,0,0,0,1,2,1,12,0001-00-0001-34.png,0002-00-0009-80.png
00000009,576,1,1440601412395,1440601412908,926,361,0,0,0,4,3,1,43,0004-00-0003-29.png,0003-00-0003-73.png
00000009,577,0,1440601414302,1440601414933,893,339,0,0,0,2,3,1,23,0002-00-0008-92.png,0003-00-0005-51.png
00000009,578,1,1440601417838,1440601418456,1095,253,0,0,0,3,2,1,32,0003-00-0004-05.png,0002-00-0009-03.png
00000009,579,1,1440601419854,1440601419933,905,366,0,0,0,4,3,1,43,0004-00-0009-91.png,0003-00-0009-09.png
00000009,580,0,1440601420982,1440601421022,865,419,0,0,0,4,5,1,45,0004-00-0003-96.png,0005-00-0002-37.png
00000009,581,0,1440601424259,1440601424806,939,324,0,0,0,1,2,1,12,0001-00-0000-08.png,0002-00-0000-87.png
00000009,582,0,1440601427907,1440601427943,908,403,0,0,0,3,4,1,34,0003-00-0002-27.png,0004-00-0008-37.png
00000009,583,1,1440601430817,1440601430829,894,434,0,0,0,2,1,1,21,0002-00-0006-81.png,0001-00-0001-79.png
00000009,584,1,1440601431700,1440601431851,935,410,0,0,0,5,4,1,54,0005-00-0004-17.png,0004-00-0008-31.png
00000009,585,0,1440601433343,1440601433399,905,384,0,0,0,4,5,1,45,0004-00-0000-81.png,0005-00-0001-71.png
00000009,586,1,1440601436553,1440601436605,928,332,0,0,0,5,4,1,54,0005-00-0004-47.png,0004-00-0003-94.png
00000009,587,0,1440601437442,1440601437562,913,462,0,0,0,3,4,1,34,0003-00-0004-63.png,0004-00-0006-70.png
00000009,588,1,1440601440695,1440601441524,1098,274,0,0,0,2,1,1,21,0002-00-0004-79.png,0001-00-0004-78.png
00000009,589,0,1440601443090,1440601443110,905,308,0,0,0,1,2,1,12,0001-00-0004-52.png,0002-00-0008-57.png
00000009,590,1,1440601446122,1440601446912,935,319,0,0,0,4,3,1,43,0004-00-0009-47.png,0003-00-0007-19.png
00000009,591,0,1440601447733,1440601447836,970,443,0,0,0,2,3,1,23,0002-00-0005-98.png,0003-00-0006-69.png
00000009,592,1,1440601450991,1440601451027,908,384,0,0,0,3,2,1,32,0003-00-0005-75.png,0002-00-0007-30.png
00000009,593,1,1440601451976,1440601452080,980,436,0,0,0,2,1,1,21,0002-00-0009-37.png,0001-00-0007-85.png
00000009,594,1,1440601453695,1440601453929,913,420,0,0,0,4,3,1,43,0004-00-0009-07.png,0003-00-0000-23.png
00000009,595,0,1440601454936,1440601454960,912,426,0,0,0,3,4,1,34,0003-00-0005-98.png,0004-00-0005-56.png
00000009,596,1,1440601458161,1440601458197,945,327,0,0,0,3,2,1,32,0003-00-0003-47.png,0002-00-0005-34.png
00000009,597,0,1440601459048,1440601459146,888,451,0,0,0,2,3,1,23,0002-00-0007-08.png,0003-00-0003-28.png
00000009,598,0,1440601462266,1440601462865,938,318,0,0,0,1,2,1,12,0001-00-0008-80.png,0002-00-0008-39.png
00000009,599,1,1440601465936,1440601466651,426,263,0,0,0,4,5,1,45,0004-00-0000-00.png,0005-00-0003-63.png
00000009,600,1,1440601467522,1440601467686,990,436,0,0,0,5,4,1,54,0005-00-0009-19.png,0004-00-0006-17.png
00000009,601,0,1440601468516,1440601468592,929,410,0,0,0,2,3,1,23,0002-00-0001-11.png,0003-00-0002-25.png
00000009,602,1,1440601471437,1440601472183,1075,273,0,0,0,3,2,1,32,0003-00-0009-92.png,0002-00-0009-79.png
00000009,603,1,1440601473507,1440601474001,990,447,0,0,0,4,3,1,43,0004-00-0009-81.png,0003-00-0008-45.png
00000009,604,0,1440601474855,1440601474949,860,488,0,0,0,1,2,1,12,0001-00-0009-43.png,0002-00-0008-38.png
00000009,605,1,1440601478128,1440601478148,909,366,0,0,0,2,1,1,21,0002-00-0009-23.png,0001-00-0003-12.png
00000009,606,0,1440601479113,1440601479153,888,471,0,0,0,3,4,1,34,0003-00-0008-40.png,0004-00-0003-25.png
00000009,607,1,1440601482368,1440601482933,1103,279,0,0,0,5,4,1,54,0005-00-0003-31.png,0004-00-0007-21.png
00000009,608,1,1440601484296,1440601485311,355,375,0,0,0,4,5,1,45,0004-00-0005-54.png,0005-00-0004-37.png
00000009,609,0,1440601486247,1440601486323,924,462,0,0,0,3,4,1,34,0003-00-0009-74.png,0004-00-0003-27.png
00000009,610,0,1440601489238,1440601489250,979,379,0,0,0,1,2,1,12,0001-00-0009-19.png,0002-00-0008-56.png
00000009,611,1,1440601492397,1440601492946,960,322,0,0,0,5,4,1,54,0005-00-0000-31.png,0004-00-0007-29.png
00000009,612,1,1440601494306,1440601494354,938,332,0,0,0,3,2,1,32,0003-00-0001-36.png,0002-00-0007-22.png
00000009,613,0,1440601495389,1440601495457,888,344,0,0,0,4,5,1,45,0004-00-0000-73.png,0005-00-0009-56.png
00000009,614,0,1440601498569,1440601498644,943,349,0,0,0,2,3,1,23,0002-00-0000-40.png,0003-00-0009-14.png
00000009,615,1,1440601501571,1440601502092,923,309,0,0,0,4,3,1,43,0004-00-0006-83.png,0003-00-0008-12.png
00000009,616,1,1440601503616,1440601503786,1030,358,0,0,0,2,1,1,21,0002-00-0005-95.png,0001-00-0003-61.png
00000009,617,0,1440601505207,1440601505243,888,384,0,0,0,2,3,1,23,0002-00-0006-40.png,0003-00-0006-70.png
00000009,618,0,1440601508416,1440601508969,1063,282,0,0,0,4,5,1,45,0004-00-0003-46.png,0005-00-0006-19.png
00000009,619,1,1440601512163,1440601512828,447,248,0,0,0,1,2,1,12,0001-00-0008-53.png,0002-00-0006-59.png
00000009,620,1,1440601513710,1440601513866,956,436,0,0,0,3,2,1,32,0003-00-0006-49.png,0002-00-0002-34.png
00000009,621,1,1440601514712,1440601514806,904,462,0,0,0,2,1,1,21,0002-00-0002-63.png,0001-00-0006-37.png
00000009,622,0,1440601516247,1440601516295,888,372,0,0,0,3,4,1,34,0003-00-0002-19.png,0004-00-0000-93.png
00000009,623,1,1440601519133,1440601519258,983,463,0,0,0,4,3,1,43,0004-00-0007-78.png,0003-00-0000-50.png
00000009,624,1,1440601520139,1440601520271,929,462,0,0,0,5,4,1,54,0005-00-0000-62.png,0004-00-0008-47.png
00000009,625,1,1440601521595,1440601521693,913,436,0,0,0,5,4,1,54,0005-00-0004-02.png,0004-00-0006-26.png
00000009,626,1,1440601522830,1440601522905,876,414,0,0,0,4,3,1,43,0004-00-0006-13.png,0003-00-0006-28.png
00000009,627,1,1440601524447,1440601524499,890,433,0,0,0,2,1,1,21,0002-00-0007-70.png,0001-00-0000-58.png
00000009,628,0,1440601526045,1440601526117,915,417,0,0,0,2,3,1,23,0002-00-0005-28.png,0003-00-0002-72.png
00000009,629,0,1440601529276,1440601529872,1076,253,0,0,0,1,2,1,12,0001-00-0001-99.png,0002-00-0004-40.png
00000009,630,1,1440601533099,1440601533844,435,278,0,0,0,3,4,1,34,0003-00-0007-47.png,0004-00-0006-34.png
00000009,631,0,1440601534739,1440601534800,917,383,0,0,0,4,5,1,45,0004-00-0004-55.png,0005-00-0001-43.png
00000009,632,1,1440601537877,1440601537921,866,470,0,0,0,3,2,1,32,0003-00-0004-59.png,0002-00-0000-56.png
00000009,633,1,1440601538853,1440601539077,954,488,0,0,0,4,3,1,43,0004-00-0007-93.png,0003-00-0002-92.png
00000009,634,0,1440601539935,1440601539979,888,384,0,0,0,2,3,1,23,0002-00-0005-06.png,0003-00-0004-07.png
00000009,635,0,1440601543185,1440601543197,923,332,0,0,0,4,5,1,45,0004-00-0000-84.png,0005-00-0007-13.png
00000009,636,0,1440601546317,1440601546337,959,376,0,0,0,1,2,1,12,0001-00-0008-61.png,0002-00-0001-78.png
00000009,637,0,1440601549575,1440601549615,952,329,0,0,0,3,4,1,34,0003-00-0005-47.png,0004-00-0008-51.png
00000009,638,1,1440601552748,1440601552788,956,356,0,0,0,5,4,1,54,0005-00-0003-42.png,0004-00-0004-18.png
00000009,639,1,1440601553779,1440601553871,969,440,0,0,0,2,1,1,21,0002-00-0004-24.png,0001-00-0005-16.png
00000009,640,1,1440601555400,1440601555500,922,402,0,0,0,3,2,1,32,0003-00-0008-07.png,0002-00-0000-60.png
00000009,641,1,1440601556961,1440601557001,888,410,0,0,0,4,3,1,43,0004-00-0000-87.png,0003-00-0005-31.png
00000009,642,1,1440601558501,1440601558573,878,358,0,0,0,2,1,1,21,0002-00-0008-28.png,0001-00-0007-18.png
00000009,643,0,1440601559585,1440601559665,894,449,0,0,0,1,2,1,12,0001-00-0005-53.png,0002-00-0009-01.png
00000009,644,1,1440601562804,1440601562844,913,341,0,0,0,5,4,1,54,0005-00-0009-89.png,0004-00-0001-05.png
00000009,645,1,1440601563736,1440601563816,925,474,0,0,0,3,2,1,32,0003-00-0001-81.png,0002-00-0006-18.png
00000009,646,0,1440601565179,1440601565273,905,444,0,0,0,4,5,1,45,0004-00-0000-21.png,0005-00-0004-89.png
00000009,647,1,1440601568486,1440601569042,463,277,0,0,0,3,4,1,34,0003-00-0009-91.png,0004-00-0005-96.png
00000009,648,0,1440601569908,1440601569932,913,410,0,0,0,2,3,1,23,0002-00-0001-37.png,0003-00-0002-63.png
00000009,649,0,1440601572859,1440601573683,406,273,0,0,0,2,1,1,21,0002-00-0005-41.png,0001-00-0001-57.png
00000009,650,1,1440601576853,1440601576881,922,358,0,0,0,5,4,1,54,0005-00-0004-79.png,0004-00-0009-44.png
00000009,651,0,1440601577768,1440601577796,913,446,0,0,0,1,2,1,12,0001-00-0003-28.png,0002-00-0007-19.png
00000009,652,0,1440601580840,1440601581407,1056,279,0,0,0,2,3,1,23,0002-00-0005-80.png,0003-00-0008-45.png
00000009,653,0,1440601584586,1440601584614,913,358,0,0,0,3,4,1,34,0003-00-0008-23.png,0004-00-0004-93.png
00000009,654,0,1440601587457,1440601587477,881,413,0,0,0,4,5,1,45,0004-00-0003-17.png,0005-00-0005-84.png
00000009,655,1,1440601590590,1440601591160,1065,280,0,0,0,4,3,1,43,0004-00-0007-31.png,0003-00-0000-78.png
00000009,656,1,1440601592627,1440601592910,1021,378,0,0,0,3,2,1,32,0003-00-0006-65.png,0002-00-0002-70.png
00000009,657,1,1440601593818,1440601593882,888,421,0,0,0,3,2,1,32,0003-00-0008-16.png,0002-00-0007-67.png
00000009,658,0,1440601595199,1440601595353,937,433,0,0,0,2,3,1,23,0002-00-0000-87.png,0003-00-0000-29.png
00000009,659,0,1440601598574,1440601598586,888,332,0,0,0,4,5,1,45,0004-00-0007-36.png,0005-00-0001-20.png
00000009,660,1,1440601601858,1440601602403,941,335,0,0,0,4,3,1,43,0004-00-0009-60.png,0003-00-0005-44.png
00000009,661,0,1440601603855,1440601604836,344,424,0,0,0,5,4,1,54,0005-00-0002-45.png,0004-00-0009-79.png
00000009,662,1,1440601607807,1440601607848,898,462,0,0,0,2,1,1,21,0002-00-0003-77.png,0001-00-0001-95.png
00000009,663,0,1440601608794,1440601608885,940,434,0,0,0,3,4,1,34,0003-00-0009-11.png,0004-00-0005-68.png
00000009,664,0,1440601612073,1440601612113,939,384,0,0,0,1,2,1,12,0001-00-0004-41.png,0002-00-0008-51.png
00000009,665,0,1440601615294,1440601615306,939,332,0,0,0,1,2,1,12,0001-00-0002-83.png,0002-00-0004-29.png
00000009,666,0,1440601618504,1440601619347,440,241,0,0,0,2,1,1,21,0002-00-0001-67.png,0001-00-0002-18.png
00000009,667,1,1440601622525,1440601622557,862,351,0,0,0,4,3,1,43,0004-00-0007-77.png,0003-00-0000-81.png
00000009,668,1,1440601623570,1440601623661,904,410,0,0,0,3,2,1,32,0003-00-0003-08.png,0002-00-0000-37.png
00000009,669,1,1440601625081,1440601625189,898,410,0,0,0,5,4,1,54,0005-00-0006-08.png,0004-00-0005-94.png
00000009,670,0,1440601626014,1440601626046,862,435,0,0,0,4,5,1,45,0004-00-0006-89.png,0005-00-0006-15.png
00000009,671,0,1440601628866,1440601629585,1072,249,0,0,0,2,3,1,23,0002-00-0008-77.png,0003-00-0001-24.png
00000009,672,0,1440601632764,1440601632804,945,347,0,0,0,3,4,1,34,0003-00-0007-28.png,0004-00-0004-58.png
00000009,673,1,1440601635973,1440601636637,439,268,0,0,0,3,4,1,34,0003-00-0002-09.png,0004-00-0008-11.png
00000009,674,0,1440601637532,1440601637630,954,410,0,0,0,2,3,1,23,0002-00-0006-72.png,0003-00-0002-67.png
00000009,675,0,1440601640758,1440601641483,342,324,0,0,0,4,3,1,43,0004-00-0004-16.png,0003-00-0009-98.png
00000009,676,1,1440601644420,1440601644480,860,343,0,0,0,3,2,1,32,0003-00-0001-09.png,0002-00-0000-59.png
00000009,677,1,1440601645421,1440601645546,954,436,0,0,0,2,1,1,21,0002-00-0001-50.png,0001-00-0001-26.png
00000009,678,1,1440601646391,1440601647336,340,389,0,0,0,1,2,1,12,0001-00-0003-89.png,0002-00-0005-96.png
00000009,679,0,1440601648303,1440601648371,922,404,0,0,0,4,5,1,45,0004-00-0000-22.png,0005-00-0003-87.png
00000009,680,1,1440601651324,1440601651356,913,381,0,0,0,5,4,1,54,0005-00-0002-01.png,0004-00-0002-36.png
00000009,681,0,1440601652249,1440601652368,939,425,0,0,0,4,5,1,45,0004-00-0005-57.png,0005-00-0009-20.png
00000009,682,0,1440601655546,1440601656133,1092,268,0,0,0,2,3,1,23,0002-00-0007-59.png,0003-00-0001-50.png
00000009,683,0,1440601659304,1440601659932,1089,292,0,0,0,3,4,1,34,0003-00-0003-78.png,0004-00-0001-13.png
00000009,684,0,1440601663072,1440601663132,936,353,0,0,0,1,2,1,12,0001-00-0004-51.png,0002-00-0007-52.png
00000009,685,0,1440601666350,1440601667024,468,258,0,0,0,2,1,1,21,0002-00-0005-90.png,0001-00-0009-19.png
00000009,686,1,1440601670215,1440601670251,927,347,0,0,0,4,3,1,43,0004-00-0009-40.png,0003-00-0001-91.png
00000009,687,1,1440601671208,1440601671339,948,462,0,0,0,3,2,1,32,0003-00-0008-14.png,0002-00-0002-29.png
00000009,688,1,1440601672950,1440601673038,902,411,0,0,0,5,4,1,54,0005-00-0005-31.png,0004-00-0009-35.png
00000009,689,0,1440601673864,1440601673924,907,420,0,0,0,2,3,1,23,0002-00-0000-00.png,0003-00-0006-85.png
00000009,690,1,1440601676954,1440601677022,883,440,0,0,0,4,3,1,43,0004-00-0001-03.png,0003-00-0007-37.png
00000009,691,1,1440601677999,1440601678059,939,425,0,0,0,2,1,1,21,0002-00-0002-36.png,0001-00-0003-99.png
00000009,692,0,1440601679436,1440601680571,490,255,0,0,0,3,2,1,32,0003-00-0001-72.png,0002-00-0003-31.png
00000009,693,0,1440601683483,1440601683551,862,514,0,0,0,1,2,1,12,0001-00-0004-70.png,0002-00-0004-74.png
00000009,694,1,1440601686913,1440601687446,971,361,0,0,0,5,4,1,54,0005-00-0002-32.png,0004-00-0002-98.png
00000009,695,0,1440601688770,1440601689167,973,405,0,0,0,4,5,1,45,0004-00-0006-89.png,0005-00-0002-65.png
00000009,696,1,1440601692338,1440601693010,378,395,0,0,0,3,4,1,34,0003-00-0000-49.png,0004-00-0003-35.png
00000009,697,1,1440601693925,1440601693989,920,374,0,0,0,4,3,1,43,0004-00-0001-27.png,0003-00-0008-96.png
00000009,698,1,1440601694878,1440601694950,879,443,0,0,0,2,1,1,21,0002-00-0006-87.png,0001-00-0000-23.png
00000009,699,0,1440601696200,1440601696220,896,367,0,0,0,4,5,1,45,0004-00-0009-64.png,0005-00-0002-41.png
00000009,700,1,1440601699580,1440601699640,946,371,0,0,0,5,4,1,54,0005-00-0004-63.png,0004-00-0004-46.png
00000009,701,0,1440601700562,1440601700676,939,452,0,0,0,3,4,1,34,0003-00-0008-99.png,0004-00-0005-69.png
00000009,702,0,1440601703715,1440601703731,863,382,0,0,0,1,2,1,12,0001-00-0002-31.png,0002-00-0003-25.png
00000009,703,1,1440601706865,1440601706901,875,395,0,0,0,3,2,1,32,0003-00-0003-15.png,0002-00-0002-20.png
00000009,704,0,1440601707723,1440601707823,880,443,0,0,0,2,3,1,23,0002-00-0009-44.png,0003-00-0002-64.png
00000009,705,1,1440601711158,1440601711170,913,332,0,0,0,5,4,1,54,0005-00-0007-66.png,0004-00-0004-08.png
00000009,706,1,1440601712150,1440601712258,888,427,0,0,0,4,3,1,43,0004-00-0001-07.png,0003-00-0005-26.png
00000009,707,1,1440601713711,1440601713791,888,419,0,0,0,2,1,1,21,0002-00-0009-33.png,0001-00-0008-70.png
00000009,708,1,1440601714820,1440601714900,885,434,0,0,0,3,2,1,32,0003-00-0009-36.png,0002-00-0008-13.png
00000009,709,0,1440601716165,1440601716217,902,395,0,0,0,4,5,1,45,0004-00-0002-55.png,0005-00-0008-24.png
00000009,710,0,1440601719395,1440601719431,967,368,0,0,0,1,2,1,12,0001-00-0000-68.png,0002-00-0005-47.png
00000009,711,0,1440601722624,1440601722672,955,344,0,0,0,2,3,1,23,0002-00-0009-00.png,0003-00-0006-15.png
00000009,712,0,1440601725645,1440601726176,1067,290,0,0,0,3,4,1,34,0003-00-0009-96.png,0004-00-0006-17.png
00000009,713,0,1440601729355,1440601729391,942,328,0,0,0,3,4,1,34,0003-00-0001-29.png,0004-00-0006-36.png
00000009,714,0,1440601732501,1440601733091,947,340,0,0,0,1,2,1,12,0001-00-0006-33.png,0002-00-0002-78.png
00000009,715,1,1440601736262,1440601736487,862,370,0,0,0,3,2,1,32,0003-00-0008-32.png,0002-00-0004-48.png
00000009,716,1,1440601737471,1440601737579,980,410,0,0,0,5,4,1,54,0005-00-0008-61.png,0004-00-0001-84.png
00000009,717,0,1440601738463,1440601738594,926,436,0,0,0,2,3,1,23,0002-00-0005-04.png,0003-00-0008-75.png
00000009,718,0,1440601741736,1440601741764,925,389,0,0,0,4,5,1,45,0004-00-0005-13.png,0005-00-0001-78.png
00000009,719,1,1440601745480,1440601745517,928,331,0,0,0,2,1,1,21,0002-00-0008-51.png,0001-00-0005-82.png
00000009,720,1,1440601746463,1440601746563,922,410,0,0,0,4,3,1,43,0004-00-0005-26.png,0003-00-0000-90.png
00000009,721,0,1440601747497,1440601747573,888,422,0,0,0,1,2,1,12,0001-00-0008-65.png,0002-00-0006-25.png
00000009,722,1,1440601750738,1440601750790,907,341,0,0,0,4,3,1,43,0004-00-0009-28.png,0003-00-0005-96.png
00000009,723,0,1440601751745,1440601751805,938,438,0,0,0,3,4,1,34,0003-00-0009-59.png,0004-00-0002-87.png
00000009,724,1,1440601755000,1440601755580,1073,280,0,0,0,2,1,1,21,0002-00-0000-06.png,0001-00-0008-71.png
00000009,725,0,1440601756931,1440601757101,941,356,0,0,0,4,5,1,45,0004-00-0002-09.png,0005-00-0007-05.png
00000009,726,1,1440601760228,1440601760273,913,361,0,0,0,5,4,1,54,0005-00-0004-47.png,0004-00-0006-87.png
00000009,727,1,1440601761200,1440601761522,953,488,0,0,0,3,2,1,32,0003-00-0002-42.png,0002-00-0007-89.png
00000009,728,0,1440601762573,1440601762624,971,407,0,0,0,2,3,1,23,0002-00-0003-99.png,0003-00-0009-96.png
00000009,729,1,1440601765826,1440601766386,1095,282,0,0,0,2,1,1,21,0002-00-0006-47.png,0001-00-0005-07.png
00000009,730,0,1440601767732,1440601768054,990,395,0,0,0,3,4,1,34,0003-00-0002-37.png,0004-00-0008-54.png
00000009,731,0,1440601771231,1440601771283,1031,360,0,0,0,1,2,1,12,0001-00-0009-70.png,0002-00-0008-74.png
00000009,732,0,1440601774120,1440601774796,401,258,0,0,0,3,2,1,32,0003-00-0008-41.png,0002-00-0000-35.png
00000009,733,1,1440601777752,1440601778522,428,295,0,0,0,4,5,1,45,0004-00-0000-78.png,0005-00-0005-48.png
00000009,734,1,1440601779427,1440601779530,975,436,0,0,0,5,4,1,54,0005-00-0004-60.png,0004-00-0001-36.png
00000009,735,0,1440601781099,1440601781206,878,436,0,0,0,2,3,1,23,0002-00-0001-31.png,0003-00-0009-57.png
00000009,736,1,1440601784299,1440601784371,961,378,0,0,0,4,3,1,43,0004-00-0001-05.png,0003-00-0001-95.png
00000009,737,1,1440601785313,1440601785432,915,468,0,0,0,5,4,1,54,0005-00-0001-09.png,0004-00-0009-35.png
00000009,738,1,1440601786299,1440601786375,918,442,0,0,0,4,3,1,43,0004-00-0005-12.png,0003-00-0001-19.png
00000009,739,0,1440601787465,1440601787545,924,410,0,0,0,1,2,1,12,0001-00-0007-37.png,0002-00-0006-47.png
00000009,740,1,1440601790748,1440601791629,483,236,0,0,0,4,5,1,45,0004-00-0003-90.png,0005-00-0006-39.png
00000009,741,1,1440601792566,1440601792635,968,417,0,0,0,3,2,1,32,0003-00-0006-76.png,0002-00-0007-65.png
00000009,742,1,1440601794009,1440601794109,888,450,0,0,0,2,1,1,21,0002-00-0000-09.png,0001-00-0008-49.png
00000009,743,0,1440601795286,1440601795342,913,410,0,0,0,3,4,1,34,0003-00-0002-04.png,0004-00-0001-12.png
00000009,744,1,1440601798271,1440601798279,521,448,0,0,0,2,3,1,23,0002-00-0003-35.png,0003-00-0005-34.png
00000009,745,1,1440601799254,1440601799362,929,462,0,0,0,5,4,1,54,0005-00-0006-46.png,0004-00-0002-31.png
00000009,746,0,1440601800814,1440601800874,879,436,0,0,0,2,3,1,23,0002-00-0006-30.png,0003-00-0004-25.png
00000009,747,0,1440601803924,1440601804517,453,290,0,0,0,2,1,1,21,0002-00-0004-93.png,0001-00-0005-71.png
00000009,748,1,1440601807700,1440601807721,942,340,0,0,0,4,3,1,43,0004-00-0007-22.png,0003-00-0005-47.png
00000009,749,1,1440601808561,1440601808687,918,446,0,0,0,3,2,1,32,0003-00-0000-42.png,0002-00-0009-06.png
00000009,750,0,1440601810134,1440601810226,888,396,0,0,0,1,2,1,12,0001-00-0000-97.png,0002-00-0005-06.png
00000009,751,0,1440601813063,1440601813691,910,308,0,0,0,3,4,1,34,0003-00-0005-86.png,0004-00-0000-74.png
00000009,752,1,1440601816662,1440601817320,474,281,0,0,0,4,5,1,45,0004-00-0004-33.png,0005-00-0007-12.png
00000009,753,0,1440601818181,1440601818267,964,420,0,0,0,1,2,1,12,0001-00-0005-46.png,0002-00-0003-83.png
00000009,754,1,1440601821613,1440601822124,938,324,0,0,0,3,2,1,32,0003-00-0001-02.png,0002-00-0002-05.png
00000009,755,1,1440601823461,1440601824301,437,278,0,0,0,2,3,1,23,0002-00-0003-21.png,0003-00-0009-56.png
00000009,756,1,1440601825168,1440601825200,890,417,0,0,0,2,1,1,21,0002-00-0004-05.png,0001-00-0000-23.png
00000009,757,0,1440601826532,1440601826644,913,436,0,0,0,4,5,1,45,0004-00-0008-34.png,0005-00-0007-63.png
00000009,758,1,1440601829480,1440601830060,1074,277,0,0,0,5,4,1,54,0005-00-0004-87.png,0004-00-0006-25.png
00000009,759,1,1440601831403,1440601831492,939,410,0,0,0,4,3,1,43,0004-00-0004-60.png,0003-00-0005-09.png
00000009,760,0,1440601832364,1440601832448,912,475,0,0,0,3,4,1,34,0003-00-0004-96.png,0004-00-0007-48.png
00000009,761,0,1440601835553,1440601835597,885,406,0,0,0,4,5,1,45,0004-00-0005-61.png,0005-00-0009-41.png
00000009,762,0,1440601838807,1440601838879,950,391,0,0,0,2,3,1,23,0002-00-0008-85.png,0003-00-0005-89.png
00000009,763,1,1440601842032,1440601842056,911,354,0,0,0,3,2,1,32,0003-00-0001-38.png,0002-00-0003-26.png
00000009,764,1,1440601842959,1440601843031,957,421,0,0,0,4,3,1,43,0004-00-0007-96.png,0003-00-0004-78.png
00000009,765,1,1440601843951,1440601844030,913,448,0,0,0,5,4,1,54,0005-00-0009-19.png,0004-00-0008-59.png
00000009,766,0,1440601845162,1440601845190,897,408,0,0,0,1,2,1,12,0001-00-0006-43.png,0002-00-0000-18.png
00000009,767,1,1440601848063,1440601849221,440,287,0,0,0,3,4,1,34,0003-00-0007-82.png,0004-00-0008-91.png
00000009,768,1,1440601850141,1440601850469,928,462,0,0,0,2,1,1,21,0002-00-0000-80.png,0001-00-0007-52.png
00000009,769,1,1440601851483,1440601851531,888,369,0,0,0,3,2,1,32,0003-00-0002-03.png,0002-00-0001-35.png
00000009,770,1,1440601852755,1440601852853,913,447,0,0,0,4,3,1,43,0004-00-0001-83.png,0003-00-0005-95.png
00000009,771,1,1440601853780,1440601855030,359,337,0,0,0,2,3,1,23,0002-00-0008-45.png,0003-00-0004-78.png
00000009,772,0,1440601855964,1440601856004,929,393,0,0,0,3,4,1,34,0003-00-0008-21.png,0004-00-0007-63.png
00000009,773,1,1440601859482,1440601860404,1070,275,0,0,0,5,4,1,54,0005-00-0002-09.png,0004-00-0005-67.png
00000009,774,1,1440601861801,1440601861920,939,355,0,0,0,2,1,1,21,0002-00-0009-44.png,0001-00-0002-63.png
00000009,775,0,1440601863477,1440601863546,913,420,0,0,0,1,2,1,12,0001-00-0001-90.png,0002-00-0005-87.png
00000009,776,1,1440601866566,1440601867440,399,269,0,0,0,4,5,1,45,0004-00-0004-61.png,0005-00-0005-88.png
00000009,777,1,1440601868306,1440601868386,888,421,0,0,0,3,2,1,32,0003-00-0000-03.png,0002-00-0008-23.png
00000009,778,0,1440601869618,1440601869674,864,435,0,0,0,1,2,1,12,0001-00-0001-79.png,0002-00-0006-53.png
00000009,779,0,1440601872781,1440601872829,913,384,0,0,0,4,5,1,45,0004-00-0004-39.png,0005-00-0006-64.png
00000009,780,0,1440601875971,1440601876594,424,295,0,0,0,4,3,1,43,0004-00-0004-58.png,0003-00-0004-61.png
00000009,781,0,1440601879906,1440601879938,890,328,0,0,0,3,4,1,34,0003-00-0003-73.png,0004-00-0002-49.png
00000009,782,1,1440601883086,1440601883690,958,316,0,0,0,5,4,1,54,0005-00-0001-32.png,0004-00-0002-44.png
00000009,783,0,1440601885083,1440601885230,1010,361,0,0,0,2,3,1,23,0002-00-0004-54.png,0003-00-0001-18.png
00000009,784,1,1440601888131,1440601888830,1066,282,0,0,0,2,1,1,21,0002-00-0000-75.png,0001-00-0006-14.png
00000009,785,0,1440601889671,1440601889723,940,396,0,0,0,2,3,1,23,0002-00-0009-23.png,0003-00-0000-65.png
00000009,786,1,1440601892875,1440601893477,1070,276,0,0,0,5,4,1,54,0005-00-0005-58.png,0004-00-0000-37.png
00000009,787,1,1440601894868,1440601895278,986,433,0,0,0,4,3,1,43,0004-00-0008-38.png,0003-00-0005-20.png
00000009,788,0,1440601896299,1440601896363,868,408,0,0,0,3,4,1,34,0003-00-0000-30.png,0004-00-0008-61.png
00000009,789,1,1440601899481,1440601900421,438,259,0,0,0,4,5,1,45,0004-00-0008-52.png,0005-00-0008-32.png
00000009,790,1,1440601901401,1440601901624,964,421,0,0,0,2,1,1,21,0002-00-0006-26.png,0001-00-0002-30.png
00000009,791,0,1440601902471,1440601902535,880,436,0,0,0,1,2,1,12,0001-00-0005-67.png,0002-00-0008-07.png
00000009,792,1,1440601908397,1440601908467,940,345,0,0,0,3,2,1,32,0003-00-0002-45.png,0002-00-0000-04.png
00000009,793,1,1440601909459,1440601909540,888,384,0,0,0,3,2,1,32,0003-00-0007-50.png,0002-00-0007-38.png
00000009,794,0,1440601911117,1440601911161,886,382,0,0,0,1,2,1,12,0001-00-0007-81.png,0002-00-0008-24.png
00000009,795,1,1440601914016,1440601914687,1041,270,0,0,0,2,1,1,21,0002-00-0009-30.png,0001-00-0004-47.png
00000009,796,1,1440601916055,1440601916135,913,384,0,0,0,5,4,1,54,0005-00-0004-91.png,0004-00-0005-60.png
00000009,797,0,1440601916968,1440601917004,862,436,0,0,0,4,5,1,45,0004-00-0003-88.png,0005-00-0005-67.png
00000009,798,0,1440601919964,1440601920549,1067,280,0,0,0,3,4,1,34,0003-00-0004-32.png,0004-00-0001-99.png
00000009,799,1,1440601923730,1440601924323,444,270,0,0,0,2,3,1,23,0002-00-0004-11.png,0003-00-0004-88.png
00000009,800,1,1440601925240,1440601925337,990,410,0,0,0,4,3,1,43,0004-00-0000-68.png,0003-00-0003-86.png
00000009,801,1,1440601926262,1440601926334,888,447,0,0,0,3,2,1,32,0003-00-0009-00.png,0002-00-0000-84.png
00000009,802,0,1440601927534,1440601927625,919,454,0,0,0,2,3,1,23,0002-00-0006-17.png,0003-00-0004-10.png
00000009,803,0,1440601930777,1440601930793,934,358,0,0,0,4,5,1,45,0004-00-0006-24.png,0005-00-0002-27.png
00000009,804,1,1440601934066,1440601934608,948,345,0,0,0,4,3,1,43,0004-00-0003-88.png,0003-00-0002-21.png
00000009,805,0,1440601936041,1440601936174,964,412,0,0,0,3,4,1,34,0003-00-0001-37.png,0004-00-0003-14.png
00000009,806,1,1440601939150,1440601939718,1092,289,0,0,0,5,4,1,54,0005-00-0002-88.png,0004-00-0004-52.png
00000009,807,0,1440601941160,1440601941865,453,254,0,0,0,2,1,1,21,0002-00-0002-45.png,0001-00-0003-80.png
00000009,808,0,1440601945207,1440601945778,929,345,0,0,0,1,2,1,12,0001-00-0004-60.png,0002-00-0005-70.png
00000009,809,1,1440601948981,1440601949001,862,384,0,0,0,5,4,1,54,0005-00-0009-16.png,0004-00-0009-80.png
00000009,810,0,1440601950096,1440601950196,956,436,0,0,0,2,3,1,23,0002-00-0004-88.png,0003-00-0001-96.png
00000009,811,1,1440601953430,1440601953446,943,334,0,0,0,2,1,1,21,0002-00-0008-42.png,0001-00-0007-15.png
00000009,812,1,1440601954394,1440601954474,986,394,0,0,0,3,2,1,32,0003-00-0005-65.png,0002-00-0001-13.png
00000009,813,0,1440601955879,1440601955945,871,462,0,0,0,4,5,1,45,0004-00-0003-41.png,0005-00-0005-66.png
00000009,814,0,1440601959099,1440601959147,876,384,0,0,0,3,4,1,34,0003-00-0000-16.png,0004-00-0008-35.png
00000009,815,1,1440601962220,1440601962290,910,428,0,0,0,4,3,1,43,0004-00-0001-40.png,0003-00-0001-55.png
00000009,816,0,1440601963184,1440601963353,964,462,0,0,0,1,2,1,12,0001-00-0007-28.png,0002-00-0009-82.png
00000009,817,1,1440601966512,1440601967154,960,358,0,0,0,4,3,1,43,0004-00-0001-62.png,0003-00-0003-97.png
00000009,818,0,1440601968536,1440601968869,955,437,0,0,0,4,5,1,45,0004-00-0000-38.png,0005-00-0006-98.png
00000009,819,1,1440601971855,1440601972559,458,258,0,0,0,3,4,1,34,0003-00-0001-47.png,0004-00-0002-49.png
00000009,820,0,1440601973394,1440601973510,948,436,0,0,0,2,3,1,23,0002-00-0003-72.png,0003-00-0001-56.png
00000009,821,1,1440601976685,1440601976760,961,355,0,0,0,2,1,1,21,0002-00-0006-54.png,0001-00-0005-19.png
00000009,822,0,1440601977700,1440601978026,955,462,0,0,0,1,2,1,12,0001-00-0000-71.png,0002-00-0000-77.png
00000009,823,1,1440601981131,1440601981199,937,405,0,0,0,5,4,1,54,0005-00-0009-91.png,0004-00-0007-69.png
00000009,824,1,1440601982196,1440601982299,939,498,0,0,0,3,2,1,32,0003-00-0009-59.png,0002-00-0004-40.png
00000009,825,1,1440601983853,1440601983940,912,470,0,0,0,4,3,1,43,0004-00-0004-72.png,0003-00-0004-60.png
00000009,826,0,1440601984954,1440601985022,862,463,0,0,0,1,2,1,12,0001-00-0007-19.png,0002-00-0000-90.png
00000009,827,1,1440601988314,1440601989192,466,322,0,0,0,2,3,1,23,0002-00-0005-25.png,0003-00-0000-27.png
00000009,828,1,1440601990111,1440601990193,954,463,0,0,0,5,4,1,54,0005-00-0005-73.png,0004-00-0008-41.png
00000009,829,1,1440601991601,1440601991693,928,462,0,0,0,2,1,1,21,0002-00-0000-17.png,0001-00-0003-17.png
00000009,830,0,1440601992575,1440601992655,903,468,0,0,0,3,4,1,34,0003-00-0005-18.png,0004-00-0007-35.png
00000009,831,1,1440601995787,1440601996402,461,259,0,0,0,4,5,1,45,0004-00-0002-68.png,0005-00-0002-51.png
00000009,832,1,1440601997276,1440601997465,964,453,0,0,0,3,2,1,32,0003-00-0006-77.png,0002-00-0001-46.png
00000009,833,1,1440601998998,1440601999100,899,436,0,0,0,4,3,1,43,0004-00-0000-38.png,0003-00-0009-66.png
00000009,834,0,1440602000055,1440602000099,889,447,0,0,0,2,3,1,23,0002-00-0009-66.png,0003-00-0005-08.png
00000009,835,0,1440602003298,1440602003859,1095,272,0,0,0,3,4,1,34,0003-00-0008-03.png,0004-00-0006-07.png
00000009,836,1,1440602006917,1440602007540,465,281,0,0,0,4,5,1,45,0004-00-0007-37.png,0005-00-0002-00.png
00000009,837,1,1440602008404,1440602008594,932,443,0,0,0,5,4,1,54,0005-00-0001-22.png,0004-00-0001-70.png
00000009,838,1,1440602010322,1440602010370,901,408,0,0,0,3,2,1,32,0003-00-0009-65.png,0002-00-0004-20.png
00000009,839,0,1440602011446,1440602011478,899,429,0,0,0,1,2,1,12,0001-00-0000-36.png,0002-00-0003-76.png
00000009,840,1,1440602014409,1440602014957,931,330,0,0,0,2,1,1,21,0002-00-0002-10.png,0001-00-0009-41.png
00000009,841,1,1440602015795,1440602015931,940,436,0,0,0,2,1,1,21,0002-00-0005-40.png,0001-00-0007-87.png
00000009,842,1,1440602017270,1440602017310,888,397,0,0,0,5,4,1,54,0005-00-0003-32.png,0004-00-0004-76.png
00000009,843,1,1440602018330,1440602018403,887,458,0,0,0,4,3,1,43,0004-00-0008-96.png,0003-00-0000-30.png
00000009,844,0,1440602020193,1440602020226,881,420,0,0,0,4,5,1,45,0004-00-0009-66.png,0005-00-0004-86.png
00000009,845,1,1440602023353,1440602024253,393,271,0,0,0,1,2,1,12,0001-00-0004-97.png,0002-00-0005-79.png
00000009,846,1,1440602025079,1440602025207,925,488,0,0,0,3,2,1,32,0003-00-0003-64.png,0002-00-0003-39.png
00000009,847,0,1440602026669,1440602026757,913,436,0,0,0,2,3,1,23,0002-00-0009-82.png,0003-00-0006-09.png
00000009,848,0,1440602029743,1440602029767,862,384,0,0,0,3,4,1,34,0003-00-0008-63.png,0004-00-0004-16.png
00000009,849,1,1440602032903,1440602033509,962,352,0,0,0,3,2,1,32,0003-00-0002-11.png,0002-00-0005-30.png
00000009,850,0,1440602034897,1440602035011,930,384,0,0,0,1,2,1,12,0001-00-0003-93.png,0002-00-0009-80.png
00000009,851,1,1440602038120,1440602038148,927,422,0,0,0,5,4,1,54,0005-00-0003-42.png,0004-00-0007-91.png
00000009,852,1,1440602039639,1440602039723,939,358,0,0,0,4,3,1,43,0004-00-0002-51.png,0003-00-0005-52.png
00000009,853,0,1440602040602,1440602040654,912,408,0,0,0,4,5,1,45,0004-00-0002-96.png,0005-00-0008-49.png
00000009,854,0,1440602043704,1440602043752,910,421,0,0,0,2,3,1,23,0002-00-0009-65.png,0003-00-0002-03.png
00000009,855,1,1440602046891,1440602047556,1088,282,0,0,0,2,1,1,21,0002-00-0008-09.png,0001-00-0005-26.png
00000009,856,0,1440602048483,1440602048610,1016,446,0,0,0,3,4,1,34,0003-00-0008-60.png,0004-00-0005-10.png
00000009,857,0,1440602051723,1440602051779,956,385,0,0,0,2,3,1,23,0002-00-0009-13.png,0003-00-0005-03.png
00000009,858,0,1440602054871,1440602054903,913,436,0,0,0,3,4,1,34,0003-00-0006-12.png,0004-00-0005-25.png
00000009,859,0,1440602057825,1440602058555,370,335,0,0,0,2,1,1,21,0002-00-0001-18.png,0001-00-0004-69.png
00000009,860,1,1440602062514,1440602063059,273,318,0,0,0,1,2,1,12,0001-00-0004-83.png,0002-00-0008-37.png
00000009,861,0,1440602064375,1440602064407,964,383,0,0,0,4,5,1,45,0004-00-0002-81.png,0005-00-0009-87.png
00000009,862,1,1440602068702,1440602069277,1029,332,0,0,0,5,4,1,54,0005-00-0000-31.png,0004-00-0003-77.png
00000009,863,0,1440602072844,1440602073450,282,306,0,0,0,4,3,1,43,0004-00-0008-59.png,0003-00-0006-86.png
00000009,864,1,1440602076354,1440602076953,1078,282,0,0,0,3,2,1,32,0003-00-0004-94.png,0002-00-0003-03.png
00000009,865,0,1440602077836,1440602077916,1028,410,0,0,0,4,5,1,45,0004-00-0000-77.png,0005-00-0009-13.png
00000009,866,1,1440602081166,1440602081819,941,354,0,0,0,5,4,1,54,0005-00-0002-74.png,0004-00-0006-99.png
00000009,867,0,1440602082638,1440602082757,909,428,0,0,0,2,3,1,23,0002-00-0008-67.png,0003-00-0005-27.png
00000009,868,1,1440602085878,1440602085906,887,386,0,0,0,2,1,1,21,0002-00-0006-11.png,0001-00-0006-56.png
00000009,869,0,1440602086823,1440602086973,980,462,0,0,0,3,4,1,34,0003-00-0006-80.png,0004-00-0003-49.png
00000009,870,1,1440602089850,1440602089895,873,358,0,0,0,3,2,1,32,0003-00-0002-21.png,0002-00-0007-85.png
00000009,871,0,1440602090733,1440602091915,1041,292,0,0,0,1,2,1,12,0001-00-0007-50.png,0002-00-0005-02.png
00000009,872,0,1440602095221,1440602095861,337,377,0,0,0,4,3,1,43,0004-00-0002-67.png,0003-00-0004-46.png
00000009,873,0,1440602098788,1440602099316,964,295,0,0,0,4,5,1,45,0004-00-0009-50.png,0005-00-0005-70.png
00000009,874,0,1440602102552,1440602103194,958,324,0,0,0,2,3,1,23,0002-00-0005-98.png,0003-00-0006-37.png
00000009,875,1,1440602106677,1440602107320,430,291,0,0,0,1,2,1,12,0001-00-0000-69.png,0002-00-0003-23.png
00000009,876,0,1440602109202,1440602109856,451,270,0,0,0,3,2,1,32,0003-00-0004-78.png,0002-00-0001-36.png
00000009,877,1,1440602113085,1440602113753,930,326,0,0,0,4,3,1,43,0004-00-0009-63.png,0003-00-0009-49.png
00000009,878,0,1440602115284,1440602115332,920,360,0,0,0,3,4,1,34,0003-00-0005-31.png,0004-00-0005-43.png
00000009,879,1,1440602118158,1440602118788,1068,276,0,0,0,2,1,1,21,0002-00-0008-26.png,0001-00-0004-77.png
00000009,880,1,1440602120342,1440602120362,931,367,0,0,0,5,4,1,54,0005-00-0005-72.png,0004-00-0003-15.png
00000009,881,1,1440602121401,1440602121473,932,393,0,0,0,4,3,1,43,0004-00-0004-43.png,0003-00-0004-20.png
00000009,882,1,1440602122643,1440602122679,862,410,0,0,0,3,2,1,32,0003-00-0009-26.png,0002-00-0006-77.png
00000009,883,0,1440602123847,1440602123899,920,402,0,0,0,3,4,1,34,0003-00-0007-86.png,0004-00-0007-96.png
00000009,884,1,1440602128203,1440602128807,1109,291,0,0,0,5,4,1,54,0005-00-0008-22.png,0004-00-0002-48.png
00000009,885,1,1440602129646,1440602130675,371,409,0,0,0,2,3,1,23,0002-00-0000-43.png,0003-00-0009-89.png
00000009,886,0,1440602132125,1440602132205,948,410,0,0,0,4,5,1,45,0004-00-0001-93.png,0005-00-0000-94.png
00000009,887,0,1440602136480,1440602137006,1088,337,0,0,0,1,2,1,12,0001-00-0006-29.png,0002-00-0001-37.png
00000009,888,1,1440602139938,1440602140028,1017,371,0,0,0,2,1,1,21,0002-00-0004-49.png,0001-00-0006-88.png
00000009,889,1,1440602140991,1440602142018,931,427,0,0,0,3,2,1,32,0003-00-0009-36.png,0002-00-0008-76.png
00000009,890,0,1440602143545,1440602143585,928,373,0,0,0,4,5,1,45,0004-00-0008-60.png,0005-00-0001-29.png
00000009,891,0,1440602157139,1440602157659,964,279,0,0,0,3,4,1,34,0003-00-0009-34.png,0004-00-0006-49.png
00000009,892,1,1440602161834,1440602162539,1092,295,0,0,0,5,4,1,54,0005-00-0002-17.png,0004-00-0008-76.png
00000009,893,0,1440602163382,1440602163828,990,462,0,0,0,2,3,1,23,0002-00-0005-17.png,0003-00-0000-01.png
00000009,894,1,1440602166783,1440602167466,936,326,0,0,0,2,1,1,21,0002-00-0007-27.png,0001-00-0008-84.png
00000009,895,1,1440602168796,1440602169087,954,384,0,0,0,4,3,1,43,0004-00-0008-70.png,0003-00-0004-16.png
00000009,896,0,1440602169999,1440602170078,874,387,0,0,0,1,2,1,12,0001-00-0004-64.png,0002-00-0004-05.png
00000009,897,1,1440602173192,1440602173224,874,410,0,0,0,2,1,1,21,0002-00-0001-66.png,0001-00-0009-43.png
00000009,898,1,1440602174256,1440602174335,974,436,0,0,0,4,3,1,43,0004-00-0002-04.png,0003-00-0004-61.png
00000009,899,0,1440602175684,1440602175774,867,402,0,0,0,4,5,1,45,0004-00-0005-70.png,0005-00-0002-51.png
00000009,900,0,1440602178982,1440602179026,969,330,0,0,0,1,2,1,12,0001-00-0004-40.png,0002-00-0002-04.png
00000009,901,0,1440602182166,1440602182726,955,328,0,0,0,2,3,1,23,0002-00-0002-24.png,0003-00-0000-32.png
00000009,902,0,1440602185585,1440602185657,478,462,0,0,0,3,2,1,32,0003-00-0005-25.png,0002-00-0001-03.png
00000009,903,1,1440602189252,1440602189272,888,332,0,0,0,5,4,1,54,0005-00-0008-77.png,0004-00-0004-47.png
00000009,904,0,1440602190292,1440602190372,913,395,0,0,0,3,4,1,34,0003-00-0005-42.png,0004-00-0009-24.png
00000009,905,1,1440602193763,1440602194489,362,321,0,0,0,4,5,1,45,0004-00-0006-92.png,0005-00-0003-50.png
00000009,906,0,1440602195328,1440602195432,925,410,0,0,0,3,4,1,34,0003-00-0009-13.png,0004-00-0003-37.png
00000009,907,1,1440602198610,1440602199253,946,323,0,0,0,2,1,1,21,0002-00-0009-09.png,0001-00-0007-45.png
00000009,908,1,1440602200610,1440602200939,990,384,0,0,0,3,2,1,32,0003-00-0005-21.png,0002-00-0008-26.png
00000009,909,0,1440602201903,1440602201983,973,410,0,0,0,2,3,1,23,0002-00-0000-51.png,0003-00-0003-17.png
00000009,910,1,1440602204973,1440602204997,861,385,0,0,0,4,3,1,43,0004-00-0000-55.png,0003-00-0006-74.png
00000009,911,0,1440602205957,1440602207316,453,264,0,0,0,5,4,1,54,0005-00-0008-53.png,0004-00-0004-65.png
00000009,912,1,1440602210539,1440602211199,386,381,0,0,0,1,2,1,12,0001-00-0000-04.png,0002-00-0009-84.png
00000009,913,1,1440602212053,1440602212113,913,475,0,0,0,5,4,1,54,0005-00-0004-57.png,0004-00-0008-60.png
00000009,914,0,1440602213679,1440602213751,903,384,0,0,0,1,2,1,12,0001-00-0009-62.png,0002-00-0006-00.png
00000009,915,1,1440602216999,1440602217554,940,308,0,0,0,2,1,1,21,0002-00-0005-40.png,0001-00-0003-00.png
00000009,916,0,1440602218905,1440602219274,964,421,0,0,0,2,3,1,23,0002-00-0001-21.png,0003-00-0001-89.png
00000009,917,1,1440602222564,1440602223177,1103,285,0,0,0,3,2,1,32,0003-00-0009-01.png,0002-00-0001-90.png
00000009,918,1,1440602224479,1440602224608,963,385,0,0,0,4,3,1,43,0004-00-0007-45.png,0003-00-0007-23.png
00000009,919,0,1440602225671,1440602225731,930,410,0,0,0,3,4,1,34,0003-00-0006-69.png,0004-00-0001-75.png
00000009,920,1,1440602228842,1440602229496,478,218,0,0,0,4,5,1,45,0004-00-0006-91.png,0005-00-0000-44.png
00000009,921,0,1440602231358,1440602232145,512,236,0,0,0,3,2,1,32,0003-00-0001-27.png,0002-00-0008-74.png
00000009,922,1,1440602236029,1440602236690,509,286,0,0,0,2,3,1,23,0002-00-0008-23.png,0003-00-0000-95.png
00000009,923,0,1440602238132,1440602238239,967,356,0,0,0,1,2,1,12,0001-00-0002-38.png,0002-00-0008-19.png
00000009,924,0,1440602241175,1440602241975,410,272,0,0,0,5,4,1,54,0005-00-0001-16.png,0004-00-0006-12.png
00000009,925,1,1440602245209,1440602245914,465,310,0,0,0,4,5,1,45,0004-00-0000-91.png,0005-00-0002-15.png
00000009,926,0,1440602246842,1440602246932,964,479,0,0,0,3,4,1,34,0003-00-0008-52.png,0004-00-0003-28.png
00000009,927,1,1440602250167,1440602250693,961,313,0,0,0,2,1,1,21,0002-00-0000-77.png,0001-00-0007-34.png
00000009,928,1,1440602252068,1440602252269,996,385,0,0,0,4,3,1,43,0004-00-0004-39.png,0003-00-0007-01.png
00000009,929,0,1440602253202,1440602253262,903,410,0,0,0,3,4,1,34,0003-00-0002-53.png,0004-00-0001-63.png
00000009,930,1,1440602256580,1440602257141,956,313,0,0,0,3,2,1,32,0003-00-0009-17.png,0002-00-0008-73.png
00000009,931,0,1440602258616,1440602258648,910,381,0,0,0,1,2,1,12,0001-00-0000-41.png,0002-00-0006-64.png
00000009,932,0,1440602261824,1440602261900,964,368,0,0,0,2,3,1,23,0002-00-0009-17.png,0003-00-0002-98.png
00000009,933,1,1440602264781,1440602265301,1073,279,0,0,0,2,1,1,21,0002-00-0004-13.png,0001-00-0003-42.png
00000009,934,1,1440602266951,1440602267578,456,282,0,0,0,4,5,1,45,0004-00-0008-07.png,0005-00-0003-11.png
00000009,935,1,1440602268546,1440602268642,990,497,0,0,0,5,4,1,54,0005-00-0007-53.png,0004-00-0008-83.png
00000009,936,1,1440602269461,1440602269513,915,491,0,0,0,4,3,1,43,0004-00-0004-18.png,0003-00-0007-57.png
00000009,937,1,1440602270900,1440602270980,913,462,0,0,0,3,2,1,32,0003-00-0006-98.png,0002-00-0007-44.png
00000009,938,0,1440602272298,1440602272417,925,500,0,0,0,1,2,1,12,0001-00-0004-11.png,0002-00-0002-81.png
00000009,939,1,1440602275647,1440602276193,960,331,0,0,0,2,1,1,21,0002-00-0009-95.png,0001-00-0007-27.png
00000009,940,0,1440602277647,1440602277695,939,348,0,0,0,3,4,1,34,0003-00-0009-23.png,0004-00-0009-67.png
00000009,941,0,1440602280638,1440602280650,485,456,0,0,0,5,4,1,54,0005-00-0003-05.png,0004-00-0009-41.png
