subject_id,trial,correct_response,stim_time,response_time,x_coord,y_coord,trial_timeout,timeout_time,interTrial_timeout,left_rank,right_rank,distance,joint_rank,left_image,right_image
00000014,1,1,1439306076966,1439306090359,295,383,0,0,0,1,2,1,12,0001-00-0001-49.png,0002-00-0001-51.png
00000014,2,0,1439306091695,1439306092147,370,410,0,0,0,4,3,1,43,0004-00-0001-60.png,0003-00-0000-55.png
00000014,3,0,1439306095304,1439306096069,901,514,0,0,0,4,5,1,45,0004-00-0000-82.png,0005-00-0001-26.png
00000014,4,0,1439306099081,1439306099085,511,435,0,0,0,5,4,1,54,0005-00-0000-56.png,0004-00-0001-43.png
00000014,5,1,1439306102059,1439306102715,413,507,0,0,0,2,3,1,23,0002-00-0001-22.png,0003-00-0000-34.png
00000014,6,0,1439306103691,1439306104405,338,350,0,0,0,3,2,1,32,0003-00-0000-23.png,0002-00-0001-72.png
00000014,7,0,1439306107244,1439306108138,386,348,0,0,0,2,1,1,21,0002-00-0000-23.png,0001-00-0000-89.png
00000014,8,0,1439306111279,1439306112073,928,442,0,0,0,3,4,1,34,0003-00-0000-10.png,0004-00-0001-92.png
00000014,9,1,1439306116729,1439306117323,917,345,0,0,0,5,4,1,54,0005-00-0000-09.png,0004-00-0000-56.png
00000014,10,1,1439306118430,1439306119203,942,417,0,0,0,2,1,1,21,0002-00-0001-40.png,0001-00-0001-90.png
00000014,11,0,1439306120164,1439306120775,897,484,0,0,0,4,5,1,45,0004-00-0000-88.png,0005-00-0001-87.png
00000014,12,1,1439306123975,1439306124620,967,396,0,0,0,4,3,1,43,0004-00-0001-42.png,0003-00-0000-12.png
00000014,13,0,1439306125658,1439306126288,955,375,0,0,0,3,4,1,34,0003-00-0001-22.png,0004-00-0001-90.png
00000014,14,1,1439306129253,1439306129257,520,400,0,0,0,1,2,1,12,0001-00-0000-37.png,0002-00-0000-56.png
00000014,15,1,1439306130499,1439306131413,875,332,0,0,0,3,2,1,32,0003-00-0000-49.png,0002-00-0001-21.png
00000014,16,0,1439306132345,1439306132875,925,464,0,0,0,2,3,1,23,0002-00-0001-09.png,0003-00-0000-62.png
00000014,17,1,1439306136010,1439306136597,937,371,0,0,0,5,4,1,54,0005-00-0000-80.png,0004-00-0001-74.png
00000014,18,1,1439306137631,1439306138460,376,384,0,0,0,4,5,1,45,0004-00-0000-43.png,0005-00-0001-29.png
00000014,19,0,1439306139440,1439306140112,362,396,0,0,0,4,3,1,43,0004-00-0001-54.png,0003-00-0001-49.png
00000014,20,0,1439306143057,1439306143089,523,415,0,0,0,3,2,1,32,0003-00-0000-89.png,0002-00-0001-45.png
00000014,21,1,1439306145956,1439306146474,328,370,0,0,0,1,2,1,12,0001-00-0000-29.png,0002-00-0000-51.png
00000014,22,0,1439306147852,1439306148542,376,398,0,0,0,2,1,1,21,0002-00-0000-28.png,0001-00-0000-49.png
00000014,23,1,1439306151533,1439306151557,492,420,0,0,0,2,3,1,23,0002-00-0001-55.png,0003-00-0001-04.png
00000014,24,1,1439306152547,1439306153223,337,372,0,0,0,3,4,1,34,0003-00-0001-09.png,0004-00-0001-90.png
00000014,25,1,1439306154106,1439306154941,384,442,0,0,0,1,2,1,12,0001-00-0000-66.png,0002-00-0000-40.png
00000014,26,1,1439306155835,1439306156407,924,456,0,0,0,5,4,1,54,0005-00-0001-23.png,0004-00-0001-81.png
00000014,27,1,1439306157341,1439306157985,376,451,0,0,0,3,4,1,34,0003-00-0001-44.png,0004-00-0000-02.png
00000014,28,1,1439306158948,1439306159569,911,401,0,0,0,4,3,1,43,0004-00-0000-57.png,0003-00-0000-01.png
00000014,29,0,1439306160486,1439306161089,873,476,0,0,0,4,5,1,45,0004-00-0000-50.png,0005-00-0001-13.png
00000014,30,1,1439306164501,1439306165376,956,351,0,0,0,2,1,1,21,0002-00-0000-69.png,0001-00-0000-94.png
00000014,31,1,1439306166580,1439306167136,350,397,0,0,0,2,3,1,23,0002-00-0001-81.png,0003-00-0001-93.png
00000014,32,1,1439306168104,1439306168692,903,366,0,0,0,3,2,1,32,0003-00-0001-78.png,0002-00-0001-28.png
00000014,33,1,1439306169660,1439306170376,363,393,0,0,0,2,3,1,23,0002-00-0000-01.png,0003-00-0000-83.png
00000014,34,0,1439306171360,1439306171950,368,496,0,0,0,4,3,1,43,0004-00-0000-63.png,0003-00-0000-01.png
00000014,35,1,1439306175077,1439306175900,358,365,0,0,0,4,5,1,45,0004-00-0001-37.png,0005-00-0000-78.png
00000014,36,0,1439306176805,1439306177391,887,469,0,0,0,1,2,1,12,0001-00-0001-07.png,0002-00-0001-92.png
00000014,37,0,1439306180485,1439306181114,357,393,0,0,0,3,2,1,32,0003-00-0001-87.png,0002-00-0001-91.png
00000014,38,0,1439306184034,1439306184724,888,293,0,0,0,3,4,1,34,0003-00-0001-10.png,0004-00-0000-81.png
00000014,39,1,1439306187579,1439306188119,899,430,0,0,0,2,1,1,21,0002-00-0001-83.png,0001-00-0000-60.png
00000014,40,1,1439306189091,1439306189674,939,377,0,0,0,5,4,1,54,0005-00-0001-53.png,0004-00-0001-90.png
00000014,41,0,1439306190736,1439306191276,328,377,0,0,0,4,3,1,43,0004-00-0000-14.png,0003-00-0000-02.png
00000014,42,1,1439306194239,1439306194273,511,444,0,0,0,1,2,1,12,0001-00-0001-94.png,0002-00-0001-20.png
00000014,43,0,1439306195270,1439306195298,518,482,0,0,0,3,2,1,32,0003-00-0001-55.png,0002-00-0001-01.png
00000014,44,1,1439306198242,1439306198993,394,472,0,0,0,2,3,1,23,0002-00-0000-04.png,0003-00-0001-32.png
00000014,45,0,1439306200094,1439306200098,510,453,0,0,0,5,4,1,54,0005-00-0000-14.png,0004-00-0001-41.png
00000014,46,0,1439306207555,1439306208159,376,448,0,0,0,2,1,1,21,0002-00-0001-46.png,0001-00-0000-43.png
00000014,47,1,1439306211058,1439306211082,523,507,0,0,0,3,4,1,34,0003-00-0001-58.png,0004-00-0001-69.png
00000014,48,0,1439306212117,1439306212788,925,333,0,0,0,4,5,1,45,0004-00-0000-33.png,0005-00-0001-63.png
00000014,49,1,1439306215868,1439306216686,946,367,0,0,0,3,2,1,32,0003-00-0001-39.png,0002-00-0000-55.png
00000014,50,1,1439306217741,1439306218309,949,357,0,0,0,4,3,1,43,0004-00-0000-57.png,0003-00-0001-07.png
00000014,51,0,1439306219215,1439306219857,397,462,0,0,0,2,1,1,21,0002-00-0000-30.png,0001-00-0000-47.png
00000014,52,1,1439306222700,1439306223506,347,371,0,0,0,2,3,1,23,0002-00-0000-37.png,0003-00-0000-73.png
00000014,53,0,1439306224449,1439306224996,343,389,0,0,0,5,4,1,54,0005-00-0000-19.png,0004-00-0000-73.png
00000014,54,0,1439306228060,1439306228714,940,397,0,0,0,4,5,1,45,0004-00-0000-39.png,0005-00-0001-87.png
00000014,55,1,1439306231674,1439306232302,294,381,0,0,0,3,4,1,34,0003-00-0001-66.png,0004-00-0001-24.png
00000014,56,1,1439306233299,1439306233931,350,384,0,0,0,1,2,1,12,0001-00-0001-79.png,0002-00-0001-87.png
00000014,57,0,1439306234889,1439306235592,324,372,0,0,0,4,3,1,43,0004-00-0000-38.png,0003-00-0000-88.png
00000014,58,1,1439306238431,1439306238970,350,449,0,0,0,1,2,1,12,0001-00-0001-61.png,0002-00-0000-77.png
00000014,59,0,1439306239935,1439306239971,508,479,0,0,0,3,2,1,32,0003-00-0000-97.png,0002-00-0000-55.png
00000014,60,1,1439306242793,1439306243470,357,399,0,0,0,3,4,1,34,0003-00-0001-20.png,0004-00-0001-65.png
00000014,61,1,1439306244446,1439306245073,350,396,0,0,0,4,5,1,45,0004-00-0000-74.png,0005-00-0000-86.png
00000014,62,0,1439306246080,1439306246722,325,393,0,0,0,2,1,1,21,0002-00-0000-05.png,0001-00-0001-81.png
00000014,63,1,1439306249732,1439306250336,318,399,0,0,0,2,3,1,23,0002-00-0000-95.png,0003-00-0000-64.png
00000014,64,1,1439306251292,1439306251918,952,357,0,0,0,5,4,1,54,0005-00-0000-25.png,0004-00-0001-92.png
00000014,65,1,1439306253027,1439306253612,351,396,0,0,0,1,2,1,12,0001-00-0001-13.png,0002-00-0001-76.png
00000014,66,1,1439306254601,1439306254637,504,452,0,0,0,3,4,1,34,0003-00-0001-72.png,0004-00-0001-82.png
00000014,67,1,1439306255773,1439306256384,925,345,0,0,0,4,3,1,43,0004-00-0000-53.png,0003-00-0001-78.png
00000014,68,1,1439306257475,1439306258084,926,384,0,0,0,3,2,1,32,0003-00-0001-25.png,0002-00-0000-72.png
00000014,69,1,1439306259094,1439306259680,927,370,0,0,0,2,1,1,21,0002-00-0000-39.png,0001-00-0000-30.png
00000014,70,1,1439306260749,1439306261546,376,475,0,0,0,4,5,1,45,0004-00-0001-51.png,0005-00-0001-07.png
00000014,71,0,1439306262532,1439306262584,499,462,0,0,0,5,4,1,54,0005-00-0000-60.png,0004-00-0000-06.png
00000014,72,1,1439306265684,1439306265728,497,504,0,0,0,2,3,1,23,0002-00-0001-55.png,0003-00-0001-26.png
00000014,73,1,1439306266751,1439306267430,372,400,0,0,0,1,2,1,12,0001-00-0000-16.png,0002-00-0001-31.png
00000014,74,1,1439306268425,1439306275119,365,459,0,0,0,2,3,1,23,0002-00-0000-36.png,0003-00-0001-27.png
00000014,75,1,1439306276308,1439306277099,350,410,0,0,0,4,5,1,45,0004-00-0001-97.png,0005-00-0001-52.png
00000014,76,0,1439306278137,1439306278143,520,500,0,0,0,3,2,1,32,0003-00-0000-68.png,0002-00-0000-35.png
00000014,77,1,1439306281208,1439306281264,516,424,0,0,0,3,4,1,34,0003-00-0000-16.png,0004-00-0001-68.png
00000014,78,1,1439306282253,1439306282825,869,342,0,0,0,5,4,1,54,0005-00-0000-57.png,0004-00-0000-74.png
00000014,79,0,1439306283742,1439306284333,349,396,0,0,0,4,3,1,43,0004-00-0001-61.png,0003-00-0001-42.png
00000014,80,1,1439306287290,1439306288184,924,457,0,0,0,2,1,1,21,0002-00-0000-81.png,0001-00-0000-39.png
00000014,81,0,1439306289109,1439306289738,953,381,0,0,0,2,3,1,23,0002-00-0001-12.png,0003-00-0001-04.png
00000014,82,0,1439306292836,1439306292880,516,498,0,0,0,5,4,1,54,0005-00-0001-42.png,0004-00-0000-90.png
00000014,83,0,1439306296057,1439306296926,927,443,0,0,0,4,5,1,45,0004-00-0001-40.png,0005-00-0001-40.png
00000014,84,0,1439306299769,1439306300465,328,401,0,0,0,2,1,1,21,0002-00-0000-98.png,0001-00-0000-21.png
00000014,85,0,1439306303710,1439306304243,321,393,0,0,0,4,3,1,43,0004-00-0000-06.png,0003-00-0001-05.png
00000014,86,1,1439306307323,1439306307335,469,412,0,0,0,3,4,1,34,0003-00-0001-52.png,0004-00-0001-21.png
00000014,87,1,1439306308382,1439306309053,180,455,0,0,0,1,2,1,12,0001-00-0000-62.png,0002-00-0000-72.png
00000014,88,0,1439306310111,1439306310127,519,455,0,0,0,3,2,1,32,0003-00-0000-73.png,0002-00-0001-08.png
00000014,89,1,1439306313369,1439306313918,310,380,0,0,0,1,2,1,12,0001-00-0001-44.png,0002-00-0001-28.png
00000014,90,1,1439306314891,1439306314915,504,473,0,0,0,2,3,1,23,0002-00-0001-15.png,0003-00-0001-21.png
00000014,91,1,1439306316539,1439306317120,921,367,0,0,0,2,1,1,21,0002-00-0001-14.png,0001-00-0001-35.png
00000014,92,1,1439306318090,1439306318878,901,356,0,0,0,4,3,1,43,0004-00-0000-07.png,0003-00-0000-76.png
00000014,93,0,1439306319998,1439306320543,927,382,0,0,0,3,4,1,34,0003-00-0001-29.png,0004-00-0000-49.png
00000014,94,1,1439306323676,1439306324272,916,483,0,0,0,3,2,1,32,0003-00-0001-48.png,0002-00-0000-49.png
00000014,95,0,1439306325285,1439306325895,924,346,0,0,0,4,5,1,45,0004-00-0000-26.png,0005-00-0001-21.png
00000014,96,1,1439306328870,1439306329786,919,442,0,0,0,5,4,1,54,0005-00-0000-80.png,0004-00-0000-31.png
00000014,97,1,1439306330749,1439306331594,366,470,0,0,0,4,5,1,45,0004-00-0001-24.png,0005-00-0000-97.png
00000014,98,1,1439306332564,1439306333177,337,408,0,0,0,2,3,1,23,0002-00-0001-41.png,0003-00-0001-05.png
00000014,99,0,1439306334149,1439306334193,475,508,0,0,0,3,2,1,32,0003-00-0001-41.png,0002-00-0001-35.png
00000014,100,0,1439306337287,1439306337892,951,387,0,0,0,3,4,1,34,0003-00-0000-60.png,0004-00-0001-92.png
00000014,101,1,1439306340799,1439306341701,919,432,0,0,0,4,3,1,43,0004-00-0000-27.png,0003-00-0000-78.png
00000014,102,1,1439306342605,1439306343252,901,468,0,0,0,5,4,1,54,0005-00-0001-88.png,0004-00-0000-27.png
00000014,103,1,1439306344218,1439306344788,883,488,0,0,0,2,1,1,21,0002-00-0000-57.png,0001-00-0001-02.png
00000014,104,0,1439306345808,1439306346448,929,402,0,0,0,1,2,1,12,0001-00-0001-10.png,0002-00-0001-27.png
00000014,105,1,1439306349384,1439306349404,521,438,0,0,0,2,3,1,23,0002-00-0001-06.png,0003-00-0001-29.png
00000014,106,1,1439306350418,1439306351072,900,450,0,0,0,3,2,1,32,0003-00-0000-56.png,0002-00-0001-54.png
00000014,107,0,1439306352039,1439306352640,922,384,0,0,0,3,4,1,34,0003-00-0001-06.png,0004-00-0001-08.png
00000014,108,1,1439306355693,1439306356398,951,359,0,0,0,4,3,1,43,0004-00-0000-13.png,0003-00-0001-95.png
00000014,109,1,1439306357395,1439306358045,896,472,0,0,0,2,1,1,21,0002-00-0001-77.png,0001-00-0000-86.png
00000014,110,1,1439306358985,1439306359593,368,393,0,0,0,4,5,1,45,0004-00-0001-43.png,0005-00-0001-65.png
00000014,111,1,1439306360643,1439306360647,499,468,0,0,0,1,2,1,12,0001-00-0001-16.png,0002-00-0000-86.png
00000014,112,1,1439306361756,1439306362439,928,350,0,0,0,5,4,1,54,0005-00-0000-65.png,0004-00-0000-71.png
00000014,113,0,1439306363426,1439306363442,494,507,0,0,0,2,1,1,21,0002-00-0001-97.png,0001-00-0000-30.png
00000014,114,1,1439306366879,1439306367730,929,374,0,0,0,4,3,1,43,0004-00-0000-03.png,0003-00-0000-02.png
00000014,115,0,1439306368709,1439306369506,376,445,0,0,0,5,4,1,54,0005-00-0000-88.png,0004-00-0001-16.png
00000014,116,1,1439306372589,1439306373189,248,488,0,0,0,1,2,1,12,0001-00-0000-60.png,0002-00-0001-44.png
00000014,117,1,1439306374240,1439306374797,913,368,0,0,0,3,2,1,32,0003-00-0000-71.png,0002-00-0001-32.png
00000014,118,1,1439306375837,1439306376476,325,384,0,0,0,3,4,1,34,0003-00-0001-55.png,0004-00-0000-94.png
00000014,119,1,1439306377477,1439306377525,519,488,0,0,0,4,5,1,45,0004-00-0001-84.png,0005-00-0001-62.png
00000014,120,0,1439306378531,1439306379475,923,368,0,0,0,2,3,1,23,0002-00-0001-79.png,0003-00-0001-28.png
00000014,121,1,1439306382905,1439306383440,901,424,0,0,0,3,2,1,32,0003-00-0000-15.png,0002-00-0001-89.png
00000014,122,0,1439306384384,1439306384969,930,375,0,0,0,2,3,1,23,0002-00-0001-27.png,0003-00-0000-22.png
00000014,123,0,1439306387892,1439306388527,957,323,0,0,0,3,4,1,34,0003-00-0000-03.png,0004-00-0000-29.png
00000014,124,0,1439306391811,1439306391843,504,462,0,0,0,4,3,1,43,0004-00-0000-21.png,0003-00-0001-60.png
00000014,125,0,1439306394860,1439306395542,371,440,0,0,0,2,1,1,21,0002-00-0001-39.png,0001-00-0001-59.png
00000014,126,1,1439306398686,1439306398750,467,540,0,0,0,4,5,1,45,0004-00-0001-88.png,0005-00-0001-35.png
00000014,127,1,1439306399825,1439306400371,875,359,0,0,0,5,4,1,54,0005-00-0001-40.png,0004-00-0000-97.png
00000014,128,1,1439306401460,1439306402223,325,370,0,0,0,1,2,1,12,0001-00-0001-81.png,0002-00-0000-54.png
00000014,129,1,1439306403217,1439306403245,492,436,0,0,0,2,3,1,23,0002-00-0000-33.png,0003-00-0001-68.png
00000014,130,1,1439306404411,1439306405030,898,475,0,0,0,5,4,1,54,0005-00-0000-66.png,0004-00-0000-07.png
00000014,131,0,1439306406040,1439306406712,344,383,0,0,0,3,2,1,32,0003-00-0001-07.png,0002-00-0000-02.png
00000014,132,0,1439306409796,1439306410322,339,389,0,0,0,4,3,1,43,0004-00-0001-15.png,0003-00-0000-60.png
00000014,133,1,1439306413286,1439306413310,441,456,0,0,0,4,5,1,45,0004-00-0001-82.png,0005-00-0000-67.png
00000014,134,0,1439306414280,1439306415048,345,377,0,0,0,2,1,1,21,0002-00-0000-41.png,0001-00-0000-84.png
00000014,135,0,1439306417984,1439306418595,931,376,0,0,0,1,2,1,12,0001-00-0001-14.png,0002-00-0001-07.png
00000014,136,1,1439306421685,1439306421728,465,489,0,0,0,3,4,1,34,0003-00-0000-64.png,0004-00-0000-99.png
00000014,137,1,1439306422736,1439306423335,350,372,0,0,0,2,3,1,23,0002-00-0000-81.png,0003-00-0000-08.png
00000014,138,0,1439306424428,1439306425374,902,466,0,0,0,1,2,1,12,0001-00-0000-66.png,0002-00-0001-46.png
00000014,139,1,1439306428461,1439306429315,897,456,0,0,0,5,4,1,54,0005-00-0001-48.png,0004-00-0000-36.png
00000014,140,0,1439306430270,1439306430930,882,314,0,0,0,3,4,1,34,0003-00-0000-78.png,0004-00-0001-17.png
00000014,141,1,1439306433879,1439306434540,276,366,0,0,0,4,5,1,45,0004-00-0000-90.png,0005-00-0001-58.png
00000014,142,0,1439306435527,1439306436306,299,410,0,0,0,3,2,1,32,0003-00-0000-00.png,0002-00-0000-04.png
00000014,143,1,1439306439494,1439306440019,925,360,0,0,0,2,1,1,21,0002-00-0000-50.png,0001-00-0001-44.png
00000014,144,1,1439306440983,1439306441705,922,362,0,0,0,4,3,1,43,0004-00-0000-50.png,0003-00-0001-69.png
00000014,145,1,1439306442704,1439306443243,892,458,0,0,0,2,1,1,21,0002-00-0000-86.png,0001-00-0000-71.png
00000014,146,1,1439306444242,1439306444835,922,393,0,0,0,3,2,1,32,0003-00-0000-64.png,0002-00-0001-69.png
00000014,147,1,1439306445842,1439306446463,883,468,0,0,0,5,4,1,54,0005-00-0000-59.png,0004-00-0000-21.png
00000014,148,1,1439306447482,1439306448027,899,489,0,0,0,4,3,1,43,0004-00-0001-17.png,0003-00-0001-61.png
00000014,149,1,1439306449012,1439306449709,329,399,0,0,0,2,3,1,23,0002-00-0000-57.png,0003-00-0001-53.png
00000014,150,1,1439306450682,1439306450718,504,448,0,0,0,4,5,1,45,0004-00-0000-37.png,0005-00-0000-80.png
00000014,151,0,1439306451746,1439306452271,905,349,0,0,0,3,4,1,34,0003-00-0000-60.png,0004-00-0001-15.png
00000014,152,1,1439306455401,1439306455421,507,527,0,0,0,1,2,1,12,0001-00-0000-90.png,0002-00-0001-77.png
00000014,153,1,1439306456387,1439306457450,950,318,0,0,0,5,4,1,54,0005-00-0000-81.png,0004-00-0001-35.png
00000014,154,1,1439306458911,1439306459486,335,386,0,0,0,2,3,1,23,0002-00-0001-58.png,0003-00-0001-00.png
00000014,155,0,1439306460471,1439306461123,350,370,0,0,0,2,1,1,21,0002-00-0000-37.png,0001-00-0001-89.png
00000014,156,1,1439306464675,1439306465234,299,384,0,0,0,1,2,1,12,0001-00-0001-39.png,0002-00-0000-01.png
00000014,157,1,1439306466126,1439306466170,504,462,0,0,0,3,4,1,34,0003-00-0001-90.png,0004-00-0000-20.png
00000014,158,1,1439306467229,1439306468153,350,384,0,0,0,4,5,1,45,0004-00-0001-19.png,0005-00-0000-73.png
00000014,159,0,1439306469076,1439306469860,342,378,0,0,0,4,3,1,43,0004-00-0001-61.png,0003-00-0000-21.png
00000014,160,0,1439306473033,1439306473641,292,375,0,0,0,3,2,1,32,0003-00-0001-10.png,0002-00-0000-83.png
00000014,161,1,1439306476789,1439306477310,951,360,0,0,0,3,2,1,32,0003-00-0001-80.png,0002-00-0001-31.png
00000014,162,1,1439306478350,1439306479184,353,361,0,0,0,4,5,1,45,0004-00-0000-02.png,0005-00-0001-32.png
00000014,163,1,1439306480248,1439306480991,344,387,0,0,0,2,3,1,23,0002-00-0000-20.png,0003-00-0001-46.png
00000014,164,0,1439306481927,1439306481971,504,427,0,0,0,5,4,1,54,0005-00-0001-12.png,0004-00-0000-90.png
00000014,165,0,1439306485105,1439306485737,872,328,0,0,0,3,4,1,34,0003-00-0001-19.png,0004-00-0000-25.png
00000014,166,0,1439306488713,1439306488721,523,368,0,0,0,2,1,1,21,0002-00-0001-09.png,0001-00-0001-99.png
00000014,167,1,1439306491571,1439306492189,381,385,0,0,0,1,2,1,12,0001-00-0000-33.png,0002-00-0000-30.png
00000014,168,0,1439306493096,1439306493120,493,426,0,0,0,4,3,1,43,0004-00-0000-08.png,0003-00-0000-65.png
00000014,169,0,1439306496184,1439306496935,325,369,0,0,0,3,2,1,32,0003-00-0000-47.png,0002-00-0000-37.png
00000014,170,0,1439306499994,1439306500546,297,398,0,0,0,5,4,1,54,0005-00-0000-15.png,0004-00-0001-37.png
00000014,171,1,1439306503418,1439306504467,335,450,0,0,0,4,5,1,45,0004-00-0001-16.png,0005-00-0001-60.png
00000014,172,1,1439306505478,1439306506250,297,384,0,0,0,3,4,1,34,0003-00-0001-76.png,0004-00-0000-55.png
00000014,173,0,1439306507237,1439306508434,899,483,0,0,0,2,3,1,23,0002-00-0001-12.png,0003-00-0001-67.png
00000014,174,1,1439306511690,1439306512204,888,344,0,0,0,2,1,1,21,0002-00-0000-26.png,0001-00-0001-16.png
00000014,175,0,1439306513211,1439306513742,946,368,0,0,0,1,2,1,12,0001-00-0000-57.png,0002-00-0001-34.png
00000014,176,1,1439306516807,1439306517635,924,413,0,0,0,4,3,1,43,0004-00-0001-80.png,0003-00-0000-83.png
00000014,177,0,1439306518595,1439306519346,312,370,0,0,0,4,3,1,43,0004-00-0000-92.png,0003-00-0001-03.png
00000014,178,1,1439306522388,1439306523446,951,332,0,0,0,2,1,1,21,0002-00-0000-05.png,0001-00-0000-95.png
00000014,179,0,1439306524480,1439306525268,901,450,0,0,0,1,2,1,12,0001-00-0000-17.png,0002-00-0001-54.png
00000014,180,0,1439306528314,1439306528354,507,440,0,0,0,5,4,1,54,0005-00-0000-15.png,0004-00-0001-76.png
00000014,181,0,1439306531334,1439306531339,466,355,0,0,0,3,2,1,32,0003-00-0001-65.png,0002-00-0000-06.png
00000014,182,1,1439306534226,1439306534246,450,402,0,0,0,3,4,1,34,0003-00-0000-19.png,0004-00-0000-70.png
00000014,183,1,1439306535211,1439306535928,297,369,0,0,0,2,3,1,23,0002-00-0001-15.png,0003-00-0000-40.png
00000014,184,1,1439306536950,1439306536954,494,462,0,0,0,4,5,1,45,0004-00-0001-71.png,0005-00-0000-82.png
00000014,185,1,1439306538125,1439306538676,336,377,0,0,0,2,3,1,23,0002-00-0000-14.png,0003-00-0001-58.png
00000014,186,0,1439306539694,1439306540365,342,386,0,0,0,3,2,1,32,0003-00-0001-49.png,0002-00-0001-99.png
00000014,187,1,1439306543244,1439306544092,954,339,0,0,0,5,4,1,54,0005-00-0000-36.png,0004-00-0000-10.png
00000014,188,1,1439306545080,1439306545625,926,397,0,0,0,2,1,1,21,0002-00-0000-35.png,0001-00-0001-39.png
00000014,189,0,1439306546626,1439306547209,951,360,0,0,0,3,4,1,34,0003-00-0001-77.png,0004-00-0000-03.png
00000014,190,1,1439306550466,1439306551048,919,408,0,0,0,4,3,1,43,0004-00-0000-57.png,0003-00-0001-86.png
00000014,191,0,1439306552081,1439306552629,862,370,0,0,0,1,2,1,12,0001-00-0001-28.png,0002-00-0000-45.png
00000014,192,1,1439306555470,1439306556215,350,370,0,0,0,4,5,1,45,0004-00-0001-14.png,0005-00-0001-66.png
00000014,193,1,1439306557202,1439306557805,365,418,0,0,0,4,5,1,45,0004-00-0001-60.png,0005-00-0001-86.png
00000014,194,1,1439306558802,1439306559554,348,387,0,0,0,1,2,1,12,0001-00-0000-33.png,0002-00-0001-60.png
00000014,195,0,1439306560573,1439306560597,506,490,0,0,0,5,4,1,54,0005-00-0001-76.png,0004-00-0001-46.png
00000014,196,0,1439306563472,1439306563482,519,410,0,0,0,2,1,1,21,0002-00-0000-45.png,0001-00-0001-76.png
00000014,197,0,1439306566621,1439306567396,365,476,0,0,0,3,2,1,32,0003-00-0001-96.png,0002-00-0001-06.png
00000014,198,0,1439306570377,1439306571230,906,340,0,0,0,2,3,1,23,0002-00-0000-22.png,0003-00-0000-40.png
00000014,199,1,1439306575972,1439306576514,252,373,0,0,0,3,4,1,34,0003-00-0001-82.png,0004-00-0000-94.png
00000014,200,0,1439306577523,1439306577592,489,536,0,0,0,4,3,1,43,0004-00-0000-25.png,0003-00-0000-55.png
00000014,201,0,1439306580597,1439306581188,363,371,0,0,0,4,3,1,43,0004-00-0001-60.png,0003-00-0000-64.png
00000014,202,0,1439306584582,1439306585312,303,370,0,0,0,2,1,1,21,0002-00-0000-49.png,0001-00-0000-05.png
00000014,203,1,1439306588376,1439306589158,305,393,0,0,0,2,3,1,23,0002-00-0000-27.png,0003-00-0000-09.png
00000014,204,1,1439306590057,1439306590678,363,391,0,0,0,3,4,1,34,0003-00-0001-49.png,0004-00-0001-98.png
00000014,205,1,1439306591716,1439306591744,509,526,0,0,0,4,5,1,45,0004-00-0001-80.png,0005-00-0000-00.png
00000014,206,0,1439306592878,1439306593607,235,384,0,0,0,3,2,1,32,0003-00-0000-95.png,0002-00-0000-82.png
00000014,207,1,1439306596751,1439306597306,358,392,0,0,0,1,2,1,12,0001-00-0000-13.png,0002-00-0000-90.png
00000014,208,0,1439306598256,1439306599263,246,352,0,0,0,5,4,1,54,0005-00-0000-34.png,0004-00-0000-17.png
00000014,209,0,1439306602131,1439306602972,428,480,0,0,0,2,1,1,21,0002-00-0001-84.png,0001-00-0000-21.png
00000014,210,1,1439306606088,1439306606104,493,447,0,0,0,4,5,1,45,0004-00-0000-80.png,0005-00-0000-45.png
00000014,211,1,1439306607134,1439306607690,917,373,0,0,0,4,3,1,43,0004-00-0000-68.png,0003-00-0001-55.png
00000014,212,1,1439306608662,1439306609185,905,375,0,0,0,3,2,1,32,0003-00-0000-20.png,0002-00-0001-89.png
00000014,213,1,1439306610231,1439306610837,337,394,0,0,0,2,3,1,23,0002-00-0001-44.png,0003-00-0001-80.png
00000014,214,1,1439306611871,1439306612636,321,382,0,0,0,1,2,1,12,0001-00-0001-06.png,0002-00-0001-22.png
00000014,215,0,1439306613612,1439306614237,905,366,0,0,0,3,4,1,34,0003-00-0000-40.png,0004-00-0000-09.png
00000014,216,0,1439306617080,1439306617851,332,371,0,0,0,5,4,1,54,0005-00-0000-14.png,0004-00-0000-17.png
00000014,217,1,1439306620717,1439306621397,356,495,0,0,0,2,3,1,23,0002-00-0000-96.png,0003-00-0000-08.png
00000014,218,1,1439306622427,1439306623023,936,398,0,0,0,3,2,1,32,0003-00-0001-62.png,0002-00-0000-44.png
00000014,219,1,1439306624009,1439306624806,342,390,0,0,0,4,5,1,45,0004-00-0001-12.png,0005-00-0001-11.png
00000014,220,1,1439306625855,1439306626416,931,367,0,0,0,4,3,1,43,0004-00-0000-77.png,0003-00-0000-65.png
00000014,221,1,1439306627941,1439306628605,411,483,0,0,0,1,2,1,12,0001-00-0000-41.png,0002-00-0001-00.png
00000014,222,1,1439306629990,1439306630006,504,462,0,0,0,3,4,1,34,0003-00-0000-16.png,0004-00-0000-13.png
00000014,223,0,1439306631059,1439306631783,353,403,0,0,0,5,4,1,54,0005-00-0000-02.png,0004-00-0001-82.png
00000014,224,0,1439306634669,1439306635285,376,358,0,0,0,2,1,1,21,0002-00-0000-03.png,0001-00-0000-53.png
00000014,225,1,1439306638476,1439306639434,376,358,0,0,0,2,3,1,23,0002-00-0000-94.png,0003-00-0001-13.png
00000014,226,1,1439306640423,1439306641138,412,508,0,0,0,3,4,1,34,0003-00-0001-21.png,0004-00-0001-07.png
00000014,227,1,1439306642144,1439306642160,504,488,0,0,0,4,5,1,45,0004-00-0000-76.png,0005-00-0001-03.png
00000014,228,1,1439306643188,1439306643866,953,442,0,0,0,5,4,1,54,0005-00-0001-38.png,0004-00-0001-28.png
00000014,229,0,1439306644892,1439306645571,369,401,0,0,0,4,3,1,43,0004-00-0000-33.png,0003-00-0001-73.png
00000014,230,0,1439306653302,1439306654007,356,377,0,0,0,3,2,1,32,0003-00-0000-89.png,0002-00-0001-82.png
00000014,231,0,1439306657063,1439306657071,461,426,0,0,0,2,1,1,21,0002-00-0000-17.png,0001-00-0000-68.png
00000014,232,1,1439306660190,1439306661378,319,400,0,0,0,1,2,1,12,0001-00-0000-07.png,0002-00-0001-05.png
00000014,233,1,1439306662335,1439306663055,979,367,0,0,0,4,3,1,43,0004-00-0000-11.png,0003-00-0000-63.png
00000014,234,1,1439306664067,1439306664719,928,389,0,0,0,3,2,1,32,0003-00-0001-05.png,0002-00-0000-73.png
00000014,235,0,1439306665706,1439306666382,891,485,0,0,0,2,3,1,23,0002-00-0001-76.png,0003-00-0000-04.png
00000014,236,1,1439306669324,1439306670010,885,498,0,0,0,2,1,1,21,0002-00-0000-18.png,0001-00-0000-46.png
00000014,237,1,1439306671014,1439306671766,343,401,0,0,0,4,5,1,45,0004-00-0000-65.png,0005-00-0000-08.png
00000014,238,0,1439306672743,1439306673549,899,458,0,0,0,1,2,1,12,0001-00-0001-72.png,0002-00-0000-53.png
00000014,239,1,1439306676520,1439306676532,463,342,0,0,0,3,4,1,34,0003-00-0000-80.png,0004-00-0001-38.png
00000014,240,1,1439306677593,1439306678722,882,443,0,0,0,5,4,1,54,0005-00-0001-57.png,0004-00-0001-17.png
00000014,241,0,1439306679719,1439306680508,345,404,0,0,0,2,1,1,21,0002-00-0001-27.png,0001-00-0000-42.png
00000014,242,1,1439306683636,1439306684225,401,384,0,0,0,1,2,1,12,0001-00-0000-51.png,0002-00-0001-21.png
00000014,243,1,1439306685206,1439306685895,322,395,0,0,0,2,3,1,23,0002-00-0000-80.png,0003-00-0001-24.png
00000014,244,0,1439306686905,1439306687842,927,356,0,0,0,3,4,1,34,0003-00-0000-75.png,0004-00-0001-79.png
00000014,245,1,1439306690950,1439306691784,903,471,0,0,0,3,2,1,32,0003-00-0000-76.png,0002-00-0001-67.png
00000014,246,1,1439306692756,1439306693540,901,450,0,0,0,4,3,1,43,0004-00-0001-00.png,0003-00-0000-44.png
00000014,247,0,1439306694567,1439306695367,895,471,0,0,0,4,5,1,45,0004-00-0000-17.png,0005-00-0000-60.png
00000014,248,1,1439306698383,1439306699467,951,356,0,0,0,5,4,1,54,0005-00-0001-63.png,0004-00-0000-45.png
00000014,249,0,1439306700388,1439306700422,507,432,0,0,0,3,2,1,32,0003-00-0000-02.png,0002-00-0000-29.png
00000014,250,1,1439306703640,1439306704275,328,398,0,0,0,3,4,1,34,0003-00-0000-88.png,0004-00-0000-99.png
00000014,251,0,1439306705307,1439306706055,931,368,0,0,0,2,3,1,23,0002-00-0000-45.png,0003-00-0001-44.png
00000014,252,0,1439306709070,1439306709735,397,411,0,0,0,2,1,1,21,0002-00-0001-07.png,0001-00-0000-42.png
00000014,253,0,1439306712893,1439306713982,288,382,0,0,0,5,4,1,54,0005-00-0001-48.png,0004-00-0000-00.png
00000014,254,0,1439306717204,1439306718211,928,364,0,0,0,4,5,1,45,0004-00-0000-02.png,0005-00-0000-28.png
00000014,255,1,1439306722315,1439306723027,376,410,0,0,0,1,2,1,12,0001-00-0001-54.png,0002-00-0000-02.png
00000014,256,1,1439306724522,1439306725051,875,487,0,0,0,4,3,1,43,0004-00-0001-02.png,0003-00-0000-19.png
00000014,257,1,1439306726173,1439306726806,899,399,0,0,0,3,2,1,32,0003-00-0000-68.png,0002-00-0000-29.png
00000014,258,1,1439306727803,1439306727859,523,519,0,0,0,2,3,1,23,0002-00-0001-30.png,0003-00-0000-41.png
00000014,259,0,1439306728955,1439306728979,504,462,0,0,0,2,1,1,21,0002-00-0000-35.png,0001-00-0000-66.png
00000014,260,1,1439306732126,1439306732150,515,436,0,0,0,3,4,1,34,0003-00-0000-59.png,0004-00-0000-26.png
00000014,261,1,1439306733229,1439306733945,342,393,0,0,0,4,5,1,45,0004-00-0001-20.png,0005-00-0000-08.png
00000014,262,0,1439306735323,1439306736403,933,365,0,0,0,1,2,1,12,0001-00-0000-99.png,0002-00-0001-06.png
00000014,263,0,1439306739390,1439306740335,371,366,0,0,0,4,3,1,43,0004-00-0001-43.png,0003-00-0001-76.png
00000014,264,1,1439306743676,1439306744319,897,432,0,0,0,5,4,1,54,0005-00-0001-52.png,0004-00-0000-38.png
00000014,265,0,1439306745364,1439306746167,332,383,0,0,0,4,3,1,43,0004-00-0000-35.png,0003-00-0000-76.png
00000014,266,0,1439306749029,1439306749643,357,392,0,0,0,3,2,1,32,0003-00-0001-32.png,0002-00-0001-68.png
00000014,267,0,1439306752943,1439306753467,873,358,0,0,0,1,2,1,12,0001-00-0001-69.png,0002-00-0000-28.png
00000014,268,0,1439306756844,1439306756880,516,488,0,0,0,5,4,1,54,0005-00-0001-86.png,0004-00-0000-07.png
00000014,269,1,1439306759766,1439306759774,499,388,0,0,0,3,4,1,34,0003-00-0001-57.png,0004-00-0001-85.png
00000014,270,1,1439306760800,1439306761354,929,400,0,0,0,2,1,1,21,0002-00-0001-96.png,0001-00-0001-37.png
00000014,271,0,1439306762439,1439306762985,876,469,0,0,0,2,3,1,23,0002-00-0000-40.png,0003-00-0001-13.png
00000014,272,1,1439306765919,1439306766746,349,436,0,0,0,4,5,1,45,0004-00-0000-03.png,0005-00-0001-43.png
00000014,273,0,1439306767778,1439306767786,499,508,0,0,0,3,2,1,32,0003-00-0001-03.png,0002-00-0000-76.png
00000014,274,0,1439306771077,1439306771093,497,428,0,0,0,5,4,1,54,0005-00-0000-53.png,0004-00-0001-81.png
00000014,275,1,1439306774166,1439306774186,518,424,0,0,0,1,2,1,12,0001-00-0001-63.png,0002-00-0001-21.png
00000014,276,1,1439306775191,1439306775855,350,393,0,0,0,2,3,1,23,0002-00-0000-10.png,0003-00-0000-70.png
00000014,277,0,1439306776789,1439306777428,925,387,0,0,0,3,4,1,34,0003-00-0001-34.png,0004-00-0000-70.png
00000014,278,1,1439306780273,1439306781286,923,325,0,0,0,2,1,1,21,0002-00-0000-77.png,0001-00-0000-32.png
00000014,279,0,1439306782348,1439306783157,368,387,0,0,0,4,3,1,43,0004-00-0001-63.png,0003-00-0000-43.png
00000014,280,1,1439306786283,1439306786307,489,519,0,0,0,4,5,1,45,0004-00-0000-06.png,0005-00-0001-37.png
00000014,281,0,1439306787255,1439306788175,352,371,0,0,0,4,3,1,43,0004-00-0000-48.png,0003-00-0001-38.png
00000014,282,0,1439306791279,1439306791867,945,356,0,0,0,2,3,1,23,0002-00-0001-65.png,0003-00-0000-77.png
00000014,283,1,1439306794885,1439306795527,380,495,0,0,0,3,4,1,34,0003-00-0000-37.png,0004-00-0000-45.png
00000014,284,0,1439306796478,1439306797452,905,350,0,0,0,4,5,1,45,0004-00-0001-85.png,0005-00-0000-12.png
00000014,285,0,1439306800504,1439306801264,380,499,0,0,0,2,1,1,21,0002-00-0000-28.png,0001-00-0000-42.png
00000014,286,0,1439306804497,1439306805077,940,371,0,0,0,1,2,1,12,0001-00-0001-86.png,0002-00-0001-34.png
00000014,287,0,1439306808070,1439306808098,515,370,0,0,0,3,2,1,32,0003-00-0001-33.png,0002-00-0001-11.png
00000014,288,0,1439306811013,1439306811049,510,444,0,0,0,5,4,1,54,0005-00-0000-84.png,0004-00-0000-46.png
00000014,289,0,1439306813950,1439306814841,359,470,0,0,0,2,1,1,21,0002-00-0000-45.png,0001-00-0001-89.png
00000014,290,0,1439306818180,1439306818200,462,419,0,0,0,4,3,1,43,0004-00-0000-85.png,0003-00-0000-30.png
00000014,291,0,1439306821244,1439306821256,472,382,0,0,0,5,4,1,54,0005-00-0001-08.png,0004-00-0000-03.png
00000014,292,0,1439306824365,1439306824381,460,545,0,0,0,3,2,1,32,0003-00-0001-47.png,0002-00-0001-34.png
00000014,293,1,1439306827816,1439306828414,337,400,0,0,0,2,3,1,23,0002-00-0001-76.png,0003-00-0001-74.png
00000014,294,0,1439306829369,1439306830039,913,373,0,0,0,3,4,1,34,0003-00-0001-46.png,0004-00-0001-43.png
00000014,295,0,1439306833480,1439306834587,888,357,0,0,0,4,5,1,45,0004-00-0001-57.png,0005-00-0001-51.png
00000014,296,1,1439306837524,1439306837558,473,558,0,0,0,1,2,1,12,0001-00-0001-54.png,0002-00-0000-70.png
00000014,297,1,1439306838629,1439306839152,902,466,0,0,0,5,4,1,54,0005-00-0000-32.png,0004-00-0000-46.png
00000014,298,1,1439306840189,1439306841104,401,449,0,0,0,3,4,1,34,0003-00-0000-23.png,0004-00-0001-86.png
00000014,299,0,1439306842045,1439306842769,340,367,0,0,0,3,2,1,32,0003-00-0001-35.png,0002-00-0001-54.png
00000014,300,0,1439306845731,1439306846248,870,316,0,0,0,2,3,1,23,0002-00-0001-06.png,0003-00-0000-47.png
00000014,301,0,1439306849221,1439306849229,484,414,0,0,0,4,3,1,43,0004-00-0001-55.png,0003-00-0000-57.png
00000014,302,1,1439306852371,1439306852387,487,430,0,0,0,4,5,1,45,0004-00-0000-45.png,0005-00-0001-76.png
00000014,303,0,1439306853376,1439306853380,497,446,0,0,0,2,1,1,21,0002-00-0001-36.png,0001-00-0000-69.png
00000014,304,0,1439306856410,1439306857375,893,416,0,0,0,1,2,1,12,0001-00-0001-15.png,0002-00-0000-12.png
00000014,305,0,1439306860220,1439306860855,351,350,0,0,0,5,4,1,54,0005-00-0001-98.png,0004-00-0000-97.png
00000014,306,1,1439306863740,1439306864543,327,369,0,0,0,4,5,1,45,0004-00-0001-79.png,0005-00-0001-78.png
00000014,307,1,1439306865489,1439306865545,523,469,0,0,0,2,3,1,23,0002-00-0001-56.png,0003-00-0001-20.png
00000014,308,1,1439306866571,1439306866635,504,514,0,0,0,1,2,1,12,0001-00-0000-97.png,0002-00-0001-19.png
00000014,309,1,1439306867653,1439306868278,913,372,0,0,0,3,2,1,32,0003-00-0001-71.png,0002-00-0001-57.png
00000014,310,0,1439306869376,1439306869392,505,538,0,0,0,2,1,1,21,0002-00-0001-21.png,0001-00-0000-19.png
00000014,311,1,1439306872532,1439306873380,931,376,0,0,0,4,3,1,43,0004-00-0001-63.png,0003-00-0001-48.png
00000014,312,0,1439306874434,1439306875026,928,364,0,0,0,3,4,1,34,0003-00-0001-93.png,0004-00-0000-38.png
00000014,313,1,1439306878069,1439306878782,310,394,0,0,0,1,2,1,12,0001-00-0000-50.png,0002-00-0001-68.png
00000014,314,1,1439306879759,1439306880379,916,456,0,0,0,4,3,1,43,0004-00-0000-76.png,0003-00-0001-43.png
00000014,315,0,1439306881309,1439306881345,504,436,0,0,0,2,1,1,21,0002-00-0001-70.png,0001-00-0001-48.png
00000014,316,0,1439306884586,1439306885234,325,341,0,0,0,3,2,1,32,0003-00-0001-44.png,0002-00-0001-44.png
00000014,317,1,1439306888354,1439306889306,402,464,0,0,0,4,5,1,45,0004-00-0000-48.png,0005-00-0001-60.png
00000014,318,0,1439306890311,1439306890347,484,469,0,0,0,5,4,1,54,0005-00-0001-90.png,0004-00-0000-26.png
00000014,319,1,1439306893252,1439306894025,328,322,0,0,0,3,4,1,34,0003-00-0001-29.png,0004-00-0001-95.png
00000014,320,1,1439306895044,1439306895952,342,444,0,0,0,2,3,1,23,0002-00-0000-96.png,0003-00-0000-09.png
00000014,321,1,1439306896981,1439306897732,350,397,0,0,0,4,5,1,45,0004-00-0001-50.png,0005-00-0000-92.png
00000014,322,0,1439306898739,1439306899567,324,390,0,0,0,5,4,1,54,0005-00-0001-39.png,0004-00-0000-08.png
00000014,323,1,1439306902993,1439306903512,902,444,0,0,0,4,3,1,43,0004-00-0001-98.png,0003-00-0001-15.png
00000014,324,1,1439306904464,1439306905045,893,464,0,0,0,2,1,1,21,0002-00-0001-63.png,0001-00-0000-60.png
00000014,325,0,1439306906045,1439306906598,926,366,0,0,0,3,4,1,34,0003-00-0001-65.png,0004-00-0001-39.png
00000014,326,1,1439306909760,1439306910350,387,502,0,0,0,2,3,1,23,0002-00-0000-89.png,0003-00-0000-15.png
00000014,327,1,1439306911261,1439306911963,336,373,0,0,0,1,2,1,12,0001-00-0000-54.png,0002-00-0000-05.png
00000014,328,1,1439306912930,1439306913778,900,450,0,0,0,3,2,1,32,0003-00-0001-83.png,0002-00-0001-29.png
00000014,329,0,1439306915185,1439306915707,931,350,0,0,0,2,3,1,23,0002-00-0001-24.png,0003-00-0001-36.png
00000014,330,1,1439306918793,1439306918809,509,494,0,0,0,1,2,1,12,0001-00-0001-95.png,0002-00-0000-55.png
00000014,331,1,1439306919798,1439306920728,401,477,0,0,0,3,4,1,34,0003-00-0001-42.png,0004-00-0000-79.png
00000014,332,0,1439306921674,1439306922319,897,368,0,0,0,4,5,1,45,0004-00-0001-46.png,0005-00-0001-47.png
00000014,333,1,1439306925258,1439306925898,949,378,0,0,0,4,3,1,43,0004-00-0001-13.png,0003-00-0000-68.png
00000014,334,1,1439306926884,1439306927444,906,375,0,0,0,2,1,1,21,0002-00-0001-82.png,0001-00-0000-41.png
00000014,335,0,1439306928421,1439306929218,313,394,0,0,0,3,2,1,32,0003-00-0000-14.png,0002-00-0001-96.png
00000014,336,0,1439306932098,1439306932110,494,411,0,0,0,5,4,1,54,0005-00-0001-54.png,0004-00-0000-92.png
00000014,337,1,1439306935536,1439306936093,376,436,0,0,0,2,3,1,23,0002-00-0000-04.png,0003-00-0001-80.png
00000014,338,0,1439306937078,1439306937861,900,346,0,0,0,3,4,1,34,0003-00-0001-34.png,0004-00-0001-44.png
00000014,339,1,1439306941919,1439306942516,937,399,0,0,0,4,3,1,43,0004-00-0001-16.png,0003-00-0000-68.png
00000014,340,1,1439306943500,1439306943516,504,450,0,0,0,1,2,1,12,0001-00-0000-61.png,0002-00-0000-45.png
00000014,341,0,1439306944573,1439306945407,409,494,0,0,0,3,2,1,32,0003-00-0000-61.png,0002-00-0001-30.png
00000014,342,1,1439306948384,1439306949053,336,391,0,0,0,4,5,1,45,0004-00-0000-54.png,0005-00-0001-14.png
00000014,343,0,1439306950034,1439306950054,522,443,0,0,0,2,1,1,21,0002-00-0000-38.png,0001-00-0001-32.png
00000014,344,1,1439306953314,1439306953813,898,458,0,0,0,5,4,1,54,0005-00-0000-96.png,0004-00-0000-14.png
00000014,345,1,1439306954748,1439306954764,523,458,0,0,0,4,5,1,45,0004-00-0000-79.png,0005-00-0000-44.png
00000014,346,0,1439306955797,1439306956418,346,383,0,0,0,3,2,1,32,0003-00-0001-49.png,0002-00-0000-50.png
00000014,347,1,1439306959487,1439306959503,520,384,0,0,0,1,2,1,12,0001-00-0001-69.png,0002-00-0001-05.png
00000014,348,0,1439306960492,1439306961058,927,383,0,0,0,2,3,1,23,0002-00-0001-78.png,0003-00-0001-35.png
00000014,349,1,1439306964446,1439306964474,516,449,0,0,0,3,4,1,34,0003-00-0000-36.png,0004-00-0001-16.png
00000014,350,1,1439306965441,1439306966452,906,367,0,0,0,5,4,1,54,0005-00-0000-61.png,0004-00-0001-40.png
00000014,351,0,1439306967391,1439306967395,504,462,0,0,0,2,1,1,21,0002-00-0001-80.png,0001-00-0001-75.png
00000014,352,0,1439306970255,1439306970911,319,421,0,0,0,4,3,1,43,0004-00-0000-58.png,0003-00-0001-96.png
00000014,353,0,1439306973799,1439306974507,291,360,0,0,0,5,4,1,54,0005-00-0001-47.png,0004-00-0000-17.png
00000014,354,1,1439306977407,1439306978217,291,379,0,0,0,2,3,1,23,0002-00-0000-35.png,0003-00-0001-95.png
00000014,355,1,1439306979652,1439306980240,898,377,0,0,0,4,3,1,43,0004-00-0001-02.png,0003-00-0000-42.png
00000014,356,1,1439306981203,1439306981975,388,500,0,0,0,3,4,1,34,0003-00-0001-51.png,0004-00-0000-18.png
00000014,357,0,1439306983004,1439306983750,375,391,0,0,0,3,2,1,32,0003-00-0001-88.png,0002-00-0001-84.png
00000014,358,1,1439306986756,1439306987453,326,386,0,0,0,4,5,1,45,0004-00-0001-36.png,0005-00-0000-04.png
00000014,359,1,1439306988466,1439306989243,886,431,0,0,0,2,1,1,21,0002-00-0001-95.png,0001-00-0001-46.png
00000014,360,0,1439306990197,1439306990802,903,374,0,0,0,1,2,1,12,0001-00-0000-24.png,0002-00-0000-69.png
00000014,361,1,1439306994013,1439306994661,367,501,0,0,0,1,2,1,12,0001-00-0000-15.png,0002-00-0000-78.png
00000014,362,1,1439306995623,1439306996347,309,376,0,0,0,3,4,1,34,0003-00-0001-01.png,0004-00-0001-38.png
00000014,363,1,1439306997360,1439306998153,939,358,0,0,0,5,4,1,54,0005-00-0001-85.png,0004-00-0000-30.png
00000014,364,0,1439306999051,1439306999079,504,447,0,0,0,4,3,1,43,0004-00-0001-90.png,0003-00-0000-90.png
00000014,365,1,1439307002130,1439307002893,907,462,0,0,0,2,1,1,21,0002-00-0000-40.png,0001-00-0000-71.png
00000014,366,1,1439307003819,1439307004369,917,403,0,0,0,3,2,1,32,0003-00-0000-97.png,0002-00-0001-49.png
00000014,367,1,1439307005287,1439307005327,504,462,0,0,0,4,5,1,45,0004-00-0000-17.png,0005-00-0000-30.png
00000014,368,0,1439307006441,1439307007030,928,375,0,0,0,2,3,1,23,0002-00-0000-26.png,0003-00-0000-38.png
00000014,369,0,1439307009950,1439307010732,901,450,0,0,0,1,2,1,12,0001-00-0000-77.png,0002-00-0000-68.png
00000014,370,1,1439307013687,1439307014490,343,480,0,0,0,4,5,1,45,0004-00-0000-01.png,0005-00-0001-32.png
00000014,371,1,1439307015439,1439307016061,905,376,0,0,0,4,3,1,43,0004-00-0000-77.png,0003-00-0001-96.png
00000014,372,1,1439307016998,1439307017670,904,401,0,0,0,5,4,1,54,0005-00-0000-24.png,0004-00-0000-04.png
00000014,373,1,1439307018589,1439307019500,899,334,0,0,0,3,2,1,32,0003-00-0000-52.png,0002-00-0001-55.png
00000014,374,1,1439307020456,1439307021215,378,401,0,0,0,2,3,1,23,0002-00-0000-82.png,0003-00-0000-89.png
00000014,375,0,1439307022205,1439307023020,325,415,0,0,0,2,1,1,21,0002-00-0001-88.png,0001-00-0001-40.png
00000014,376,1,1439307027024,1439307027673,351,391,0,0,0,3,4,1,34,0003-00-0000-68.png,0004-00-0001-52.png
00000014,377,0,1439307028676,1439307029449,305,419,0,0,0,2,1,1,21,0002-00-0000-02.png,0001-00-0001-20.png
00000014,378,1,1439307032429,1439307032441,480,446,0,0,0,3,4,1,34,0003-00-0000-54.png,0004-00-0001-54.png
00000014,379,0,1439307033397,1439307034136,358,402,0,0,0,3,2,1,32,0003-00-0001-15.png,0002-00-0001-68.png
00000014,380,1,1439307037133,1439307037957,922,353,0,0,0,5,4,1,54,0005-00-0001-27.png,0004-00-0000-80.png
00000014,381,1,1439307038903,1439307038938,514,436,0,0,0,4,5,1,45,0004-00-0001-55.png,0005-00-0001-84.png
00000014,382,0,1439307039961,1439307040575,875,470,0,0,0,1,2,1,12,0001-00-0001-08.png,0002-00-0001-48.png
00000014,383,1,1439307043519,1439307044203,335,426,0,0,0,2,3,1,23,0002-00-0000-29.png,0003-00-0000-33.png
00000014,384,0,1439307045081,1439307045941,339,392,0,0,0,4,3,1,43,0004-00-0000-20.png,0003-00-0001-40.png
00000014,385,0,1439307048976,1439307048982,512,390,0,0,0,2,1,1,21,0002-00-0001-13.png,0001-00-0000-73.png
00000014,386,0,1439307051984,1439307052004,492,360,0,0,0,5,4,1,54,0005-00-0000-09.png,0004-00-0001-29.png
00000014,387,0,1439307054988,1439307055587,941,392,0,0,0,3,4,1,34,0003-00-0000-03.png,0004-00-0001-86.png
00000014,388,1,1439307058565,1439307059265,926,408,0,0,0,3,2,1,32,0003-00-0001-86.png,0002-00-0000-89.png
00000014,389,1,1439307060217,1439307060237,520,428,0,0,0,2,3,1,23,0002-00-0001-45.png,0003-00-0000-74.png
00000014,390,0,1439307061319,1439307061852,876,470,0,0,0,1,2,1,12,0001-00-0000-94.png,0002-00-0000-03.png
00000014,391,1,1439307064938,1439307065798,349,391,0,0,0,4,5,1,45,0004-00-0001-13.png,0005-00-0000-61.png
00000014,392,1,1439307066693,1439307067296,901,468,0,0,0,4,3,1,43,0004-00-0001-80.png,0003-00-0000-73.png
00000014,393,1,1439307068204,1439307068910,330,393,0,0,0,3,4,1,34,0003-00-0000-27.png,0004-00-0001-33.png
00000014,394,0,1439307069885,1439307069929,514,466,0,0,0,5,4,1,54,0005-00-0000-30.png,0004-00-0000-55.png
00000014,395,1,1439307073075,1439307073797,389,363,0,0,0,2,3,1,23,0002-00-0000-52.png,0003-00-0000-62.png
00000014,396,0,1439307074726,1439307074770,513,512,0,0,0,3,2,1,32,0003-00-0000-73.png,0002-00-0000-15.png
00000014,397,0,1439307077984,1439307078965,933,358,0,0,0,1,2,1,12,0001-00-0001-19.png,0002-00-0001-92.png
00000014,398,1,1439307081938,1439307082651,356,368,0,0,0,4,5,1,45,0004-00-0000-40.png,0005-00-0001-29.png
00000014,399,0,1439307083538,1439307084227,369,405,0,0,0,2,1,1,21,0002-00-0001-52.png,0001-00-0001-84.png
00000014,400,0,1439307087104,1439307087120,470,351,0,0,0,4,3,1,43,0004-00-0001-70.png,0003-00-0000-67.png
00000014,401,0,1439307090187,1439307090215,462,563,0,0,0,2,1,1,21,0002-00-0000-99.png,0001-00-0001-83.png
00000014,402,1,1439307094322,1439307095013,312,360,0,0,0,3,4,1,34,0003-00-0001-85.png,0004-00-0001-03.png
00000014,403,1,1439307095952,1439307096713,325,383,0,0,0,4,5,1,45,0004-00-0001-49.png,0005-00-0001-09.png
00000014,404,1,1439307097690,1439307098362,348,394,0,0,0,2,3,1,23,0002-00-0001-62.png,0003-00-0000-10.png
00000014,405,0,1439307099310,1439307099326,504,449,0,0,0,3,2,1,32,0003-00-0000-74.png,0002-00-0000-41.png
00000014,406,1,1439307102270,1439307103366,949,386,0,0,0,4,3,1,43,0004-00-0001-32.png,0003-00-0000-71.png
00000014,407,0,1439307104341,1439307104922,921,393,0,0,0,1,2,1,12,0001-00-0001-29.png,0002-00-0000-00.png
00000014,408,1,1439307108062,1439307108710,931,376,0,0,0,5,4,1,54,0005-00-0001-01.png,0004-00-0000-93.png
00000014,409,1,1439307109648,1439307110256,921,395,0,0,0,2,1,1,21,0002-00-0001-80.png,0001-00-0001-44.png
00000014,410,1,1439307111167,1439307111223,503,480,0,0,0,3,4,1,34,0003-00-0001-31.png,0004-00-0001-63.png
00000014,411,0,1439307112556,1439307113473,888,358,0,0,0,4,5,1,45,0004-00-0001-38.png,0005-00-0000-18.png
00000014,412,1,1439307116594,1439307117269,932,364,0,0,0,3,2,1,32,0003-00-0001-47.png,0002-00-0000-61.png
00000014,413,1,1439307118192,1439307118817,970,389,0,0,0,5,4,1,54,0005-00-0001-05.png,0004-00-0000-87.png
00000014,414,0,1439307119801,1439307120367,902,382,0,0,0,2,3,1,23,0002-00-0001-10.png,0003-00-0000-30.png
00000014,415,1,1439307123397,1439307123995,888,456,0,0,0,4,3,1,43,0004-00-0001-76.png,0003-00-0000-26.png
00000014,416,1,1439307125407,1439307126016,373,385,0,0,0,1,2,1,12,0001-00-0001-81.png,0002-00-0001-24.png
00000014,417,0,1439307126892,1439307128016,406,535,0,0,0,4,3,1,43,0004-00-0000-70.png,0003-00-0000-70.png
00000014,418,0,1439307130951,1439307130971,478,369,0,0,0,2,1,1,21,0002-00-0001-95.png,0001-00-0000-92.png
00000014,419,0,1439307134093,1439307134121,520,514,0,0,0,5,4,1,54,0005-00-0001-08.png,0004-00-0001-66.png
00000014,420,1,1439307136992,1439307137605,392,497,0,0,0,4,5,1,45,0004-00-0001-43.png,0005-00-0000-67.png
00000014,421,1,1439307138463,1439307138494,519,436,0,0,0,3,4,1,34,0003-00-0000-53.png,0004-00-0000-20.png
00000014,422,1,1439307139741,1439307140304,340,411,0,0,0,2,3,1,23,0002-00-0000-77.png,0003-00-0000-84.png
00000014,423,1,1439307141287,1439307141899,900,397,0,0,0,3,2,1,32,0003-00-0001-12.png,0002-00-0001-57.png
00000014,424,1,1439307142848,1439307142898,504,500,0,0,0,1,2,1,12,0001-00-0000-69.png,0002-00-0001-40.png
00000014,425,1,1439307143972,1439307144618,927,382,0,0,0,5,4,1,54,0005-00-0001-09.png,0004-00-0000-09.png
00000014,426,1,1439307145651,1439307146373,372,400,0,0,0,3,4,1,34,0003-00-0001-25.png,0004-00-0001-24.png
00000014,427,1,1439307147293,1439307147314,490,498,0,0,0,4,5,1,45,0004-00-0000-94.png,0005-00-0000-66.png
00000014,428,0,1439307148464,1439307149206,864,438,0,0,0,1,2,1,12,0001-00-0001-88.png,0002-00-0000-74.png
00000014,429,1,1439307152507,1439307153078,899,464,0,0,0,4,3,1,43,0004-00-0000-66.png,0003-00-0001-94.png
00000014,430,0,1439307153965,1439307153985,504,488,0,0,0,3,2,1,32,0003-00-0000-08.png,0002-00-0000-07.png
00000014,431,1,1439307157042,1439307157721,348,387,0,0,0,2,3,1,23,0002-00-0001-76.png,0003-00-0000-24.png
00000014,432,1,1439307158688,1439307159455,878,333,0,0,0,2,1,1,21,0002-00-0000-05.png,0001-00-0001-69.png
00000014,433,1,1439307160386,1439307161151,398,361,0,0,0,1,2,1,12,0001-00-0000-57.png,0002-00-0001-09.png
00000014,434,0,1439307162026,1439307162748,317,417,0,0,0,4,3,1,43,0004-00-0000-24.png,0003-00-0001-37.png
00000014,435,1,1439307165965,1439307166681,927,382,0,0,0,3,2,1,32,0003-00-0000-77.png,0002-00-0000-68.png
00000014,436,1,1439307167659,1439307168486,432,408,0,0,0,2,3,1,23,0002-00-0000-54.png,0003-00-0001-69.png
00000014,437,1,1439307169431,1439307170230,410,495,0,0,0,4,5,1,45,0004-00-0001-59.png,0005-00-0000-79.png
00000014,438,1,1439307171173,1439307171206,520,436,0,0,0,3,4,1,34,0003-00-0000-59.png,0004-00-0000-88.png
00000014,439,0,1439307172233,1439307172896,346,444,0,0,0,2,1,1,21,0002-00-0001-95.png,0001-00-0000-94.png
00000014,440,0,1439307175910,1439307175981,488,522,0,0,0,5,4,1,54,0005-00-0000-01.png,0004-00-0000-79.png
00000014,441,0,1439307179130,1439307179690,901,371,0,0,0,3,4,1,34,0003-00-0000-31.png,0004-00-0000-14.png
00000014,442,1,1439307182655,1439307183417,912,340,0,0,0,4,3,1,43,0004-00-0001-53.png,0003-00-0001-73.png
00000014,443,0,1439307184404,1439307185043,924,379,0,0,0,1,2,1,12,0001-00-0001-76.png,0002-00-0001-94.png
00000014,444,1,1439307187956,1439307188574,929,386,0,0,0,3,2,1,32,0003-00-0000-52.png,0002-00-0000-30.png
00000014,445,1,1439307189476,1439307190200,901,469,0,0,0,2,1,1,21,0002-00-0000-04.png,0001-00-0000-47.png
00000014,446,0,1439307191156,1439307191759,895,498,0,0,0,4,5,1,45,0004-00-0000-15.png,0005-00-0000-97.png
00000014,447,1,1439307194883,1439307195917,879,348,0,0,0,5,4,1,54,0005-00-0001-48.png,0004-00-0001-44.png
00000014,448,1,1439307196810,1439307197430,362,397,0,0,0,2,3,1,23,0002-00-0001-52.png,0003-00-0001-54.png
00000014,449,0,1439307198853,1439307199397,376,423,0,0,0,4,3,1,43,0004-00-0000-46.png,0003-00-0000-40.png
00000014,450,1,1439307202452,1439307203155,340,394,0,0,0,2,3,1,23,0002-00-0001-45.png,0003-00-0001-70.png
00000014,451,1,1439307204075,1439307204862,411,495,0,0,0,1,2,1,12,0001-00-0001-81.png,0002-00-0001-55.png
00000014,452,0,1439307205844,1439307206480,928,381,0,0,0,3,4,1,34,0003-00-0001-38.png,0004-00-0001-77.png
00000014,453,1,1439307209421,1439307210018,925,410,0,0,0,3,2,1,32,0003-00-0001-05.png,0002-00-0001-30.png
00000014,454,1,1439307210922,1439307211723,324,380,0,0,0,4,5,1,45,0004-00-0001-50.png,0005-00-0001-50.png
00000014,455,0,1439307212681,1439307212693,504,463,0,0,0,2,1,1,21,0002-00-0001-70.png,0001-00-0000-83.png
00000014,456,1,1439307215572,1439307216172,866,365,0,0,0,5,4,1,54,0005-00-0001-14.png,0004-00-0000-58.png
00000014,457,1,1439307217102,1439307218205,876,441,0,0,0,3,2,1,32,0003-00-0000-31.png,0002-00-0000-97.png
00000014,458,0,1439307219238,1439307219812,876,381,0,0,0,2,3,1,23,0002-00-0001-39.png,0003-00-0001-10.png
00000014,459,1,1439307222735,1439307222763,493,476,0,0,0,3,4,1,34,0003-00-0000-29.png,0004-00-0000-38.png
00000014,460,0,1439307223795,1439307224775,340,394,0,0,0,2,1,1,21,0002-00-0001-26.png,0001-00-0000-18.png
00000014,461,1,1439307227824,1439307227844,491,395,0,0,0,4,5,1,45,0004-00-0000-63.png,0005-00-0001-45.png
00000014,462,0,1439307228780,1439307229616,327,381,0,0,0,4,3,1,43,0004-00-0000-62.png,0003-00-0001-11.png
00000014,463,1,1439307232593,1439307232613,517,398,0,0,0,1,2,1,12,0001-00-0000-53.png,0002-00-0001-31.png
00000014,464,0,1439307233680,1439307233712,507,536,0,0,0,5,4,1,54,0005-00-0000-75.png,0004-00-0000-15.png
00000014,465,1,1439307237125,1439307237644,902,391,0,0,0,3,2,1,32,0003-00-0001-38.png,0002-00-0000-37.png
00000014,466,1,1439307238588,1439307239578,930,376,0,0,0,5,4,1,54,0005-00-0000-17.png,0004-00-0000-61.png
00000014,467,1,1439307240546,1439307240591,504,479,0,0,0,2,3,1,23,0002-00-0000-15.png,0003-00-0000-16.png
00000014,468,1,1439307241620,1439307242202,921,394,0,0,0,2,1,1,21,0002-00-0000-90.png,0001-00-0000-04.png
00000014,469,1,1439307243170,1439307243194,507,478,0,0,0,4,5,1,45,0004-00-0001-63.png,0005-00-0000-39.png
00000014,470,0,1439307244347,1439307245402,882,469,0,0,0,1,2,1,12,0001-00-0000-72.png,0002-00-0001-41.png
00000014,471,1,1439307248665,1439307249258,361,386,0,0,0,3,4,1,34,0003-00-0001-32.png,0004-00-0000-26.png
00000014,472,1,1439307250207,1439307250979,900,475,0,0,0,4,3,1,43,0004-00-0001-52.png,0003-00-0000-90.png
00000014,473,0,1439307251944,1439307252559,898,387,0,0,0,3,4,1,34,0003-00-0000-65.png,0004-00-0000-32.png
00000014,474,1,1439307255542,1439307256290,331,397,0,0,0,1,2,1,12,0001-00-0001-30.png,0002-00-0000-58.png
00000014,475,0,1439307257222,1439307257238,513,464,0,0,0,3,2,1,32,0003-00-0000-64.png,0002-00-0001-60.png
00000014,476,0,1439307260422,1439307260458,479,494,0,0,0,2,1,1,21,0002-00-0001-40.png,0001-00-0000-86.png
00000014,477,1,1439307263831,1439307264356,892,390,0,0,0,5,4,1,54,0005-00-0000-90.png,0004-00-0001-80.png
00000014,478,1,1439307265243,1439307265263,504,447,0,0,0,4,5,1,45,0004-00-0000-19.png,0005-00-0001-10.png
00000014,479,1,1439307266355,1439307266962,901,469,0,0,0,4,3,1,43,0004-00-0001-30.png,0003-00-0001-51.png
00000014,480,1,1439307267981,1439307268057,502,562,0,0,0,2,3,1,23,0002-00-0000-35.png,0003-00-0000-88.png
00000014,481,1,1439307269218,1439307269774,905,401,0,0,0,2,1,1,21,0002-00-0000-25.png,0001-00-0001-76.png
00000014,482,1,1439307270828,1439307271400,926,398,0,0,0,5,4,1,54,0005-00-0001-44.png,0004-00-0001-39.png
00000014,483,0,1439307272441,1439307273252,929,375,0,0,0,2,3,1,23,0002-00-0000-21.png,0003-00-0000-50.png
00000014,484,1,1439307276567,1439307276587,520,436,0,0,0,3,4,1,34,0003-00-0000-24.png,0004-00-0000-66.png
00000014,485,1,1439307277597,1439307278454,392,480,0,0,0,4,5,1,45,0004-00-0001-58.png,0005-00-0001-53.png
00000014,486,1,1439307279373,1439307280042,356,404,0,0,0,1,2,1,12,0001-00-0001-13.png,0002-00-0000-72.png
00000014,487,0,1439307281095,1439307281831,352,434,0,0,0,4,3,1,43,0004-00-0001-12.png,0003-00-0001-70.png
00000014,488,0,1439307285088,1439307285731,376,503,0,0,0,3,2,1,32,0003-00-0001-87.png,0002-00-0001-53.png
00000014,489,0,1439307288613,1439307288629,469,443,0,0,0,3,2,1,32,0003-00-0000-21.png,0002-00-0000-30.png
00000014,490,1,1439307292061,1439307292081,520,482,0,0,0,1,2,1,12,0001-00-0001-90.png,0002-00-0001-07.png
00000014,491,0,1439307293064,1439307293885,317,391,0,0,0,2,1,1,21,0002-00-0000-64.png,0001-00-0001-48.png
00000014,492,1,1439307296937,1439307297762,392,500,0,0,0,2,3,1,23,0002-00-0000-45.png,0003-00-0001-02.png
00000014,493,0,1439307298661,1439307299343,341,405,0,0,0,4,3,1,43,0004-00-0001-18.png,0003-00-0000-32.png
00000014,494,0,1439307302326,1439307302338,493,396,0,0,0,5,4,1,54,0005-00-0000-62.png,0004-00-0001-15.png
00000014,495,0,1439307305218,1439307305849,912,372,0,0,0,3,4,1,34,0003-00-0001-21.png,0004-00-0000-27.png
00000014,496,1,1439307309154,1439307309158,487,462,0,0,0,4,5,1,45,0004-00-0000-34.png,0005-00-0001-25.png
00000014,497,0,1439307310226,1439307310803,908,486,0,0,0,2,3,1,23,0002-00-0001-15.png,0003-00-0000-92.png
00000014,498,1,1439307314175,1439307314729,925,384,0,0,0,2,1,1,21,0002-00-0000-42.png,0001-00-0000-87.png
00000014,499,1,1439307315658,1439307316267,906,366,0,0,0,4,3,1,43,0004-00-0001-97.png,0003-00-0001-45.png
00000014,500,1,1439307317227,1439307317989,887,482,0,0,0,5,4,1,54,0005-00-0001-74.png,0004-00-0000-89.png
00000014,501,0,1439307318985,1439307319551,912,398,0,0,0,4,5,1,45,0004-00-0000-87.png,0005-00-0001-77.png
00000014,502,1,1439307322488,1439307323201,929,363,0,0,0,3,2,1,32,0003-00-0001-90.png,0002-00-0000-73.png
00000014,503,0,1439307324047,1439307324635,926,385,0,0,0,1,2,1,12,0001-00-0000-46.png,0002-00-0000-44.png
00000014,504,0,1439307328038,1439307328502,907,374,0,0,0,3,4,1,34,0003-00-0001-39.png,0004-00-0000-06.png
00000014,505,0,1439307340904,1439307340928,486,473,0,0,0,3,2,1,32,0003-00-0000-31.png,0002-00-0001-35.png
00000014,506,0,1439307344282,1439307345039,365,391,0,0,0,2,1,1,21,0002-00-0001-75.png,0001-00-0000-65.png
00000014,507,1,1439307351092,1439307351128,502,562,0,0,0,1,2,1,12,0001-00-0000-34.png,0002-00-0000-14.png
00000014,508,1,1439307353069,1439307353706,325,410,0,0,0,3,4,1,34,0003-00-0000-24.png,0004-00-0001-65.png
00000014,509,1,1439307354630,1439307355589,935,365,0,0,0,5,4,1,54,0005-00-0001-91.png,0004-00-0001-79.png
00000014,510,1,1439307356545,1439307357097,909,461,0,0,0,4,3,1,43,0004-00-0000-60.png,0003-00-0000-95.png
00000014,511,0,1439307358049,1439307358556,886,476,0,0,0,2,3,1,23,0002-00-0001-96.png,0003-00-0001-13.png
00000014,512,1,1439307361840,1439307362605,310,398,0,0,0,4,5,1,45,0004-00-0000-59.png,0005-00-0001-47.png
00000014,513,0,1439307363471,1439307364332,939,356,0,0,0,2,3,1,23,0002-00-0000-33.png,0003-00-0001-09.png
00000014,514,1,1439307367409,1439307367417,495,410,0,0,0,3,4,1,34,0003-00-0001-05.png,0004-00-0001-78.png
00000014,515,1,1439307368335,1439307368367,401,445,0,0,0,1,2,1,12,0001-00-0000-96.png,0002-00-0000-74.png
00000014,516,1,1439307369417,1439307369925,901,488,0,0,0,4,3,1,43,0004-00-0000-99.png,0003-00-0001-94.png
00000014,517,0,1439307370817,1439307370857,504,471,0,0,0,3,2,1,32,0003-00-0000-26.png,0002-00-0001-49.png
00000014,518,0,1439307373990,1439307374664,333,391,0,0,0,5,4,1,54,0005-00-0000-02.png,0004-00-0001-82.png
00000014,519,1,1439307378013,1439307379066,872,483,0,0,0,2,1,1,21,0002-00-0001-19.png,0001-00-0001-57.png
00000014,520,1,1439307380054,1439307380872,332,404,0,0,0,4,5,1,45,0004-00-0000-66.png,0005-00-0001-29.png
00000014,521,1,1439307381739,1439307381759,504,467,0,0,0,3,4,1,34,0003-00-0000-27.png,0004-00-0000-86.png
00000014,522,1,1439307383262,1439307383772,888,384,0,0,0,3,2,1,32,0003-00-0000-85.png,0002-00-0000-27.png
00000014,523,0,1439307384642,1439307384658,513,488,0,0,0,4,3,1,43,0004-00-0000-29.png,0003-00-0001-33.png
00000014,524,0,1439307387694,1439307388695,905,368,0,0,0,4,5,1,45,0004-00-0000-03.png,0005-00-0000-88.png
00000014,525,0,1439307395839,1439307396357,925,462,0,0,0,2,3,1,23,0002-00-0001-52.png,0003-00-0000-47.png
00000014,526,1,1439307402853,1439307403307,272,379,0,0,0,1,2,1,12,0001-00-0000-13.png,0002-00-0000-82.png
00000014,527,0,1439307404221,1439307404241,478,499,0,0,0,2,1,1,21,0002-00-0001-95.png,0001-00-0001-98.png
00000014,528,1,1439307409489,1439307410098,938,446,0,0,0,5,4,1,54,0005-00-0001-35.png,0004-00-0001-54.png
00000014,529,1,1439307411596,1439307412315,372,390,0,0,0,3,4,1,34,0003-00-0000-79.png,0004-00-0000-49.png
00000014,530,1,1439307413403,1439307414048,925,411,0,0,0,3,2,1,32,0003-00-0000-81.png,0002-00-0000-79.png
00000014,531,1,1439307423313,1439307424025,330,429,0,0,0,4,5,1,45,0004-00-0000-96.png,0005-00-0001-76.png
00000014,532,0,1439307425361,1439307425885,902,415,0,0,0,1,2,1,12,0001-00-0000-39.png,0002-00-0001-01.png
00000014,533,1,1439307429004,1439307429024,511,482,0,0,0,2,3,1,23,0002-00-0001-07.png,0003-00-0000-26.png
00000014,534,1,1439307429923,1439307430508,900,501,0,0,0,4,3,1,43,0004-00-0000-36.png,0003-00-0001-32.png
00000014,535,0,1439307431472,1439307432164,397,529,0,0,0,2,1,1,21,0002-00-0000-29.png,0001-00-0000-47.png
00000014,536,1,1439307435549,1439307436487,901,455,0,0,0,5,4,1,54,0005-00-0001-31.png,0004-00-0000-55.png
00000014,537,1,1439307437607,1439307438162,929,375,0,0,0,4,3,1,43,0004-00-0000-42.png,0003-00-0000-43.png
00000014,538,0,1439307439182,1439307439850,891,378,0,0,0,4,5,1,45,0004-00-0001-32.png,0005-00-0000-59.png
00000014,539,0,1439307442741,1439307443733,386,502,0,0,0,2,1,1,21,0002-00-0001-74.png,0001-00-0001-62.png
00000014,540,0,1439307450646,1439307451198,904,401,0,0,0,2,3,1,23,0002-00-0001-11.png,0003-00-0000-94.png
00000014,541,1,1439307457152,1439307457663,907,421,0,0,0,3,2,1,32,0003-00-0001-49.png,0002-00-0001-23.png
00000014,542,0,1439307458591,1439307459233,900,423,0,0,0,1,2,1,12,0001-00-0000-72.png,0002-00-0000-39.png
00000014,543,0,1439307462437,1439307463078,929,349,0,0,0,3,4,1,34,0003-00-0001-50.png,0004-00-0000-31.png
00000014,544,1,1439307466062,1439307467050,932,449,0,0,0,5,4,1,54,0005-00-0001-99.png,0004-00-0000-23.png
00000014,545,1,1439307468072,1439307468607,902,494,0,0,0,4,3,1,43,0004-00-0001-33.png,0003-00-0000-73.png
00000014,546,0,1439307469523,1439307470156,899,490,0,0,0,3,4,1,34,0003-00-0000-11.png,0004-00-0000-35.png
00000014,547,1,1439307473554,1439307474076,929,400,0,0,0,3,2,1,32,0003-00-0000-48.png,0002-00-0001-52.png
00000014,548,0,1439307474996,1439307475669,888,463,0,0,0,1,2,1,12,0001-00-0000-32.png,0002-00-0000-12.png
00000014,549,1,1439307478660,1439307478672,518,362,0,0,0,2,3,1,23,0002-00-0000-93.png,0003-00-0001-49.png
00000014,550,1,1439307479630,1439307480239,906,473,0,0,0,5,4,1,54,0005-00-0000-31.png,0004-00-0001-07.png
00000014,551,1,1439307481119,1439307481139,503,441,0,0,0,4,5,1,45,0004-00-0000-12.png,0005-00-0000-51.png
00000014,552,1,1439307482205,1439307482824,877,495,0,0,0,2,1,1,21,0002-00-0001-73.png,0001-00-0000-82.png
00000014,553,0,1439307484208,1439307484726,899,410,0,0,0,3,4,1,34,0003-00-0000-68.png,0004-00-0001-15.png
00000014,554,0,1439307488155,1439307488721,913,402,0,0,0,1,2,1,12,0001-00-0001-02.png,0002-00-0000-28.png
00000014,555,0,1439307491662,1439307491674,522,398,0,0,0,2,1,1,21,0002-00-0001-27.png,0001-00-0000-14.png
00000014,556,1,1439307496176,1439307496196,504,462,0,0,0,4,5,1,45,0004-00-0000-65.png,0005-00-0000-64.png
00000014,557,0,1439307497598,1439307498668,347,404,0,0,0,5,4,1,54,0005-00-0001-74.png,0004-00-0001-31.png
00000014,558,0,1439307502078,1439307502623,947,472,0,0,0,2,3,1,23,0002-00-0001-04.png,0003-00-0001-31.png
00000014,559,0,1439307505646,1439307506315,413,482,0,0,0,4,3,1,43,0004-00-0001-25.png,0003-00-0000-32.png
00000014,560,1,1439307509393,1439307509945,875,502,0,0,0,3,2,1,32,0003-00-0001-91.png,0002-00-0000-98.png
00000014,561,1,1439307510862,1439307511490,956,390,0,0,0,3,2,1,32,0003-00-0001-62.png,0002-00-0000-56.png
00000014,562,1,1439307512406,1439307513039,893,434,0,0,0,5,4,1,54,0005-00-0001-78.png,0004-00-0000-62.png
00000014,563,1,1439307513946,1439307514664,333,394,0,0,0,1,2,1,12,0001-00-0001-73.png,0002-00-0000-88.png
00000014,564,1,1439307515993,1439307516590,939,469,0,0,0,4,3,1,43,0004-00-0000-82.png,0003-00-0000-39.png
00000014,565,1,1439307517479,1439307517503,512,475,0,0,0,4,5,1,45,0004-00-0000-67.png,0005-00-0000-65.png
00000014,566,0,1439307518477,1439307519231,354,410,0,0,0,2,1,1,21,0002-00-0000-26.png,0001-00-0000-32.png
00000014,567,0,1439307522289,1439307522930,900,436,0,0,0,2,3,1,23,0002-00-0001-43.png,0003-00-0001-07.png
00000014,568,0,1439307529516,1439307530342,887,425,0,0,0,3,4,1,34,0003-00-0000-44.png,0004-00-0000-16.png
00000014,569,0,1439307533264,1439307534059,339,376,0,0,0,4,3,1,43,0004-00-0000-75.png,0003-00-0000-95.png
00000014,570,1,1439307536989,1439307537988,952,365,0,0,0,5,4,1,54,0005-00-0000-28.png,0004-00-0000-09.png
00000014,571,1,1439307538879,1439307539753,343,413,0,0,0,3,4,1,34,0003-00-0000-09.png,0004-00-0000-68.png
00000014,572,1,1439307540616,1439307541362,401,511,0,0,0,2,3,1,23,0002-00-0001-86.png,0003-00-0000-46.png
00000014,573,1,1439307542775,1439307543288,878,386,0,0,0,3,2,1,32,0003-00-0000-03.png,0002-00-0001-75.png
00000014,574,0,1439307544145,1439307544185,523,453,0,0,0,2,1,1,21,0002-00-0000-20.png,0001-00-0000-25.png
00000014,575,1,1439307547234,1439307547979,345,413,0,0,0,4,5,1,45,0004-00-0001-72.png,0005-00-0001-96.png
00000014,576,1,1439307548907,1439307549730,398,412,0,0,0,1,2,1,12,0001-00-0001-05.png,0002-00-0000-70.png
00000014,577,1,1439307550624,1439307552101,925,411,0,0,0,5,4,1,54,0005-00-0001-33.png,0004-00-0001-79.png
00000014,578,1,1439307553399,1439307553933,900,387,0,0,0,3,2,1,32,0003-00-0001-83.png,0002-00-0000-74.png
00000014,579,1,1439307554819,1439307555678,901,383,0,0,0,2,1,1,21,0002-00-0000-55.png,0001-00-0000-21.png
00000014,580,1,1439307556610,1439307557249,896,477,0,0,0,4,3,1,43,0004-00-0000-44.png,0003-00-0000-65.png
00000014,581,0,1439307558137,1439307558814,927,408,0,0,0,1,2,1,12,0001-00-0000-67.png,0002-00-0001-97.png
00000014,582,1,1439307561722,1439307561754,519,462,0,0,0,4,5,1,45,0004-00-0001-29.png,0005-00-0000-31.png
00000014,583,1,1439307562690,1439307563392,354,385,0,0,0,2,3,1,23,0002-00-0001-85.png,0003-00-0000-66.png
00000014,584,0,1439307564248,1439307565008,888,384,0,0,0,3,4,1,34,0003-00-0000-34.png,0004-00-0001-84.png
00000014,585,1,1439307568164,1439307568690,889,458,0,0,0,5,4,1,54,0005-00-0000-94.png,0004-00-0000-16.png
00000014,586,1,1439307569544,1439307570330,347,399,0,0,0,4,5,1,45,0004-00-0001-50.png,0005-00-0000-04.png
00000014,587,1,1439307571224,1439307571848,372,429,0,0,0,2,3,1,23,0002-00-0001-14.png,0003-00-0000-11.png
00000014,588,0,1439307572704,1439307572724,503,454,0,0,0,4,3,1,43,0004-00-0000-30.png,0003-00-0001-39.png
00000014,589,1,1439307575684,1439307577073,890,501,0,0,0,3,2,1,32,0003-00-0000-11.png,0002-00-0001-88.png
00000014,590,1,1439307577974,1439307578653,928,415,0,0,0,2,1,1,21,0002-00-0000-60.png,0001-00-0001-18.png
00000014,591,1,1439307579555,1439307580346,401,384,0,0,0,1,2,1,12,0001-00-0001-62.png,0002-00-0001-00.png
00000014,592,0,1439307581244,1439307581927,914,364,0,0,0,3,4,1,34,0003-00-0000-74.png,0004-00-0001-17.png
00000014,593,0,1439307585256,1439307585813,929,433,0,0,0,1,2,1,12,0001-00-0000-15.png,0002-00-0001-26.png
00000014,594,1,1439307588992,1439307589539,930,401,0,0,0,5,4,1,54,0005-00-0001-60.png,0004-00-0001-43.png
00000014,595,1,1439307590506,1439307591027,873,359,0,0,0,3,2,1,32,0003-00-0000-71.png,0002-00-0001-05.png
00000014,596,1,1439307591921,1439307592699,342,392,0,0,0,3,4,1,34,0003-00-0000-79.png,0004-00-0001-99.png
00000014,597,1,1439307593565,1439307593581,504,452,0,0,0,4,5,1,45,0004-00-0001-92.png,0005-00-0000-05.png
00000014,598,1,1439307595442,1439307596184,363,436,0,0,0,2,3,1,23,0002-00-0000-48.png,0003-00-0000-65.png
00000014,599,1,1439307597042,1439307597706,900,417,0,0,0,2,1,1,21,0002-00-0000-21.png,0001-00-0001-51.png
00000014,600,1,1439307598572,1439307599173,919,402,0,0,0,4,3,1,43,0004-00-0001-33.png,0003-00-0001-84.png
00000014,601,1,1439307600549,1439307601503,926,381,0,0,0,2,1,1,21,0002-00-0001-02.png,0001-00-0000-69.png
00000014,602,1,1439307602803,1439307603477,895,358,0,0,0,3,2,1,32,0003-00-0001-77.png,0002-00-0001-47.png
00000014,603,1,1439307604346,1439307605020,903,400,0,0,0,4,3,1,43,0004-00-0000-62.png,0003-00-0000-26.png
00000014,604,1,1439307606364,1439307606380,482,489,0,0,0,2,3,1,23,0002-00-0001-30.png,0003-00-0000-52.png
00000014,605,1,1439307607359,1439307607991,879,506,0,0,0,5,4,1,54,0005-00-0000-08.png,0004-00-0000-34.png
00000014,606,0,1439307608907,1439307609726,863,475,0,0,0,3,4,1,34,0003-00-0000-62.png,0004-00-0001-52.png
00000014,607,1,1439307612722,1439307612730,501,472,0,0,0,1,2,1,12,0001-00-0001-21.png,0002-00-0000-95.png
00000014,608,1,1439307613689,1439307614500,353,405,0,0,0,4,5,1,45,0004-00-0000-43.png,0005-00-0001-42.png
00000014,609,1,1439307615417,1439307616184,407,512,0,0,0,1,2,1,12,0001-00-0001-84.png,0002-00-0001-43.png
00000014,610,0,1439307617167,1439307617187,482,517,0,0,0,2,1,1,21,0002-00-0000-81.png,0001-00-0001-51.png
00000014,611,0,1439307620037,1439307620897,367,401,0,0,0,4,3,1,43,0004-00-0000-76.png,0003-00-0000-36.png
00000014,612,1,1439307624042,1439307624074,492,487,0,0,0,2,3,1,23,0002-00-0000-14.png,0003-00-0001-91.png
00000014,613,1,1439307624980,1439307625701,377,376,0,0,0,3,4,1,34,0003-00-0001-76.png,0004-00-0000-31.png
00000014,614,1,1439307626591,1439307627452,255,468,0,0,0,4,5,1,45,0004-00-0001-24.png,0005-00-0001-44.png
00000014,615,0,1439307628865,1439307629607,401,384,0,0,0,5,4,1,54,0005-00-0000-18.png,0004-00-0000-84.png
00000014,616,1,1439307633016,1439307633815,877,319,0,0,0,3,2,1,32,0003-00-0001-41.png,0002-00-0000-61.png
00000014,617,1,1439307634658,1439307635361,364,395,0,0,0,2,3,1,23,0002-00-0001-32.png,0003-00-0000-54.png
00000014,618,1,1439307636284,1439307637164,926,371,0,0,0,4,3,1,43,0004-00-0000-42.png,0003-00-0001-01.png
00000014,619,1,1439307638104,1439307638721,930,391,0,0,0,2,1,1,21,0002-00-0000-37.png,0001-00-0000-16.png
00000014,620,0,1439307639574,1439307640142,877,493,0,0,0,1,2,1,12,0001-00-0001-14.png,0002-00-0001-19.png
00000014,621,1,1439307643153,1439307643726,916,428,0,0,0,3,2,1,32,0003-00-0001-84.png,0002-00-0000-41.png
00000014,622,1,1439307644573,1439307645673,872,510,0,0,0,5,4,1,54,0005-00-0001-56.png,0004-00-0000-91.png
00000014,623,0,1439307646632,1439307647248,868,483,0,0,0,4,5,1,45,0004-00-0000-76.png,0005-00-0001-29.png
00000014,624,1,1439307650108,1439307651019,346,399,0,0,0,3,4,1,34,0003-00-0001-76.png,0004-00-0000-59.png
00000014,625,0,1439307652713,1439307653338,370,424,0,0,0,5,4,1,54,0005-00-0001-44.png,0004-00-0001-96.png
00000014,626,0,1439307656434,1439307657252,341,391,0,0,0,4,3,1,43,0004-00-0000-53.png,0003-00-0000-36.png
00000014,627,0,1439307660218,1439307660230,504,372,0,0,0,2,1,1,21,0002-00-0000-73.png,0001-00-0001-44.png
00000014,628,0,1439307663325,1439307663838,877,361,0,0,0,3,4,1,34,0003-00-0001-62.png,0004-00-0000-45.png
00000014,629,0,1439307666965,1439307667470,939,398,0,0,0,2,3,1,23,0002-00-0001-44.png,0003-00-0001-15.png
00000014,630,0,1439307670290,1439307670314,492,397,0,0,0,3,2,1,32,0003-00-0000-36.png,0002-00-0000-59.png
00000014,631,1,1439307673503,1439307673541,476,464,0,0,0,4,5,1,45,0004-00-0001-61.png,0005-00-0000-65.png
00000014,632,1,1439307674470,1439307675198,375,386,0,0,0,1,2,1,12,0001-00-0000-85.png,0002-00-0001-84.png
00000014,633,0,1439307676544,1439307677378,366,410,0,0,0,2,1,1,21,0002-00-0001-30.png,0001-00-0000-14.png
00000014,634,1,1439307680509,1439307680573,492,488,0,0,0,3,4,1,34,0003-00-0001-61.png,0004-00-0000-50.png
00000014,635,1,1439307681477,1439307682199,354,389,0,0,0,1,2,1,12,0001-00-0001-92.png,0002-00-0000-51.png
00000014,636,1,1439307683128,1439307683935,390,465,0,0,0,2,3,1,23,0002-00-0000-63.png,0003-00-0000-56.png
00000014,637,1,1439307685017,1439307685920,929,400,0,0,0,5,4,1,54,0005-00-0001-63.png,0004-00-0001-16.png
00000014,638,1,1439307686814,1439307686826,516,462,0,0,0,4,5,1,45,0004-00-0001-96.png,0005-00-0000-85.png
00000014,639,0,1439307687746,1439307687766,510,471,0,0,0,3,2,1,32,0003-00-0000-95.png,0002-00-0000-01.png
00000014,640,0,1439307690847,1439307691525,353,387,0,0,0,4,3,1,43,0004-00-0001-95.png,0003-00-0001-77.png
00000014,641,1,1439307694503,1439307694519,515,436,0,0,0,2,3,1,23,0002-00-0000-71.png,0003-00-0001-02.png
00000014,642,1,1439307695446,1439307696230,354,391,0,0,0,4,5,1,45,0004-00-0000-95.png,0005-00-0000-68.png
00000014,643,1,1439307697181,1439307697797,891,457,0,0,0,4,3,1,43,0004-00-0000-61.png,0003-00-0000-41.png
00000014,644,1,1439307698738,1439307699381,866,489,0,0,0,5,4,1,54,0005-00-0001-81.png,0004-00-0000-32.png
00000014,645,1,1439307700257,1439307700281,521,472,0,0,0,3,4,1,34,0003-00-0001-75.png,0004-00-0000-52.png
00000014,646,0,1439307701180,1439307701200,514,436,0,0,0,3,2,1,32,0003-00-0000-96.png,0002-00-0000-45.png
00000014,647,1,1439307704661,1439307704689,490,504,0,0,0,1,2,1,12,0001-00-0001-02.png,0002-00-0001-55.png
00000014,648,1,1439307705621,1439307706284,877,519,0,0,0,2,1,1,21,0002-00-0001-69.png,0001-00-0001-36.png
00000014,649,1,1439307707181,1439307707908,884,473,0,0,0,2,1,1,21,0002-00-0000-53.png,0001-00-0000-86.png
00000014,650,0,1439307708792,1439307708840,521,467,0,0,0,5,4,1,54,0005-00-0000-18.png,0004-00-0001-71.png
00000014,651,1,1439307711684,1439307712273,357,388,0,0,0,2,3,1,23,0002-00-0001-28.png,0003-00-0000-52.png
00000014,652,1,1439307713245,1439307713819,867,503,0,0,0,3,2,1,32,0003-00-0000-24.png,0002-00-0001-16.png
00000014,653,1,1439307714737,1439307716114,416,495,0,0,0,1,2,1,12,0001-00-0001-92.png,0002-00-0001-51.png
00000014,654,1,1439307717590,1439307718457,885,399,0,0,0,4,3,1,43,0004-00-0001-63.png,0003-00-0001-24.png
00000014,655,1,1439307719317,1439307719337,514,462,0,0,0,3,4,1,34,0003-00-0000-44.png,0004-00-0000-61.png
00000014,656,1,1439307720294,1439307721416,377,475,0,0,0,4,5,1,45,0004-00-0001-67.png,0005-00-0000-02.png
00000014,657,0,1439307722695,1439307723367,361,399,0,0,0,4,3,1,43,0004-00-0000-21.png,0003-00-0001-19.png
00000014,658,0,1439307726372,1439307726392,504,410,0,0,0,3,2,1,32,0003-00-0000-60.png,0002-00-0001-73.png
00000014,659,0,1439307729564,1439307730300,926,410,0,0,0,1,2,1,12,0001-00-0000-90.png,0002-00-0001-70.png
00000014,660,1,1439307733777,1439307734274,899,490,0,0,0,2,1,1,21,0002-00-0001-77.png,0001-00-0001-37.png
00000014,661,1,1439307735191,1439307735879,909,464,0,0,0,5,4,1,54,0005-00-0000-13.png,0004-00-0000-04.png
00000014,662,0,1439307736750,1439307737712,900,386,0,0,0,4,5,1,45,0004-00-0000-29.png,0005-00-0000-00.png
00000014,663,1,1439307740754,1439307741411,415,490,0,0,0,3,4,1,34,0003-00-0001-44.png,0004-00-0001-66.png
00000014,664,0,1439307742333,1439307742975,895,472,0,0,0,2,3,1,23,0002-00-0000-50.png,0003-00-0000-56.png
00000014,665,1,1439307748185,1439307748771,340,419,0,0,0,2,3,1,23,0002-00-0001-36.png,0003-00-0000-33.png
00000014,666,0,1439307749760,1439307749788,515,481,0,0,0,5,4,1,54,0005-00-0000-71.png,0004-00-0000-24.png
00000014,667,1,1439307752779,1439307753414,338,401,0,0,0,4,5,1,45,0004-00-0001-80.png,0005-00-0000-02.png
00000014,668,1,1439307754322,1439307754974,886,476,0,0,0,3,2,1,32,0003-00-0000-50.png,0002-00-0000-35.png
00000014,669,0,1439307755850,1439307755874,522,452,0,0,0,2,1,1,21,0002-00-0000-56.png,0001-00-0001-51.png
00000014,670,1,1439307758702,1439307758722,513,400,0,0,0,1,2,1,12,0001-00-0001-26.png,0002-00-0001-95.png
00000014,671,1,1439307759737,1439307760301,911,398,0,0,0,4,3,1,43,0004-00-0000-66.png,0003-00-0000-96.png
00000014,672,1,1439307761186,1439307761206,516,451,0,0,0,3,4,1,34,0003-00-0001-18.png,0004-00-0000-98.png
00000014,673,0,1439307762288,1439307762943,901,384,0,0,0,1,2,1,12,0001-00-0000-50.png,0002-00-0001-10.png
00000014,674,1,1439307765776,1439307765796,512,435,0,0,0,2,3,1,23,0002-00-0001-04.png,0003-00-0000-81.png
00000014,675,0,1439307766763,1439307767331,876,497,0,0,0,3,4,1,34,0003-00-0000-03.png,0004-00-0000-52.png
00000014,676,1,1439307770229,1439307770253,501,413,0,0,0,4,5,1,45,0004-00-0000-69.png,0005-00-0001-77.png
00000014,677,1,1439307771253,1439307772111,890,370,0,0,0,2,1,1,21,0002-00-0000-13.png,0001-00-0000-94.png
00000014,678,0,1439307772994,1439307773014,514,450,0,0,0,5,4,1,54,0005-00-0000-39.png,0004-00-0000-50.png
00000014,679,0,1439307775944,1439307777263,376,384,0,0,0,4,3,1,43,0004-00-0001-87.png,0003-00-0000-59.png
00000014,680,0,1439307780186,1439307780198,464,406,0,0,0,3,2,1,32,0003-00-0001-73.png,0002-00-0000-35.png
00000014,681,0,1439307783801,1439307783818,520,472,0,0,0,3,2,1,32,0003-00-0000-14.png,0002-00-0000-89.png
00000014,682,1,1439307786795,1439307787773,916,378,0,0,0,5,4,1,54,0005-00-0000-62.png,0004-00-0001-04.png
00000014,683,1,1439307788724,1439307789471,359,395,0,0,0,4,5,1,45,0004-00-0000-47.png,0005-00-0000-88.png
00000014,684,0,1439307790857,1439307791349,881,490,0,0,0,2,3,1,23,0002-00-0000-77.png,0003-00-0000-31.png
00000014,685,1,1439307794248,1439307794925,315,370,0,0,0,3,4,1,34,0003-00-0000-72.png,0004-00-0001-38.png
00000014,686,1,1439307796257,1439307796983,887,372,0,0,0,2,1,1,21,0002-00-0001-36.png,0001-00-0000-37.png
00000014,687,1,1439307797909,1439307798539,926,384,0,0,0,4,3,1,43,0004-00-0001-58.png,0003-00-0001-06.png
00000014,688,1,1439307799459,1439307800160,340,413,0,0,0,1,2,1,12,0001-00-0001-97.png,0002-00-0000-22.png
00000014,689,1,1439307801258,1439307801799,888,398,0,0,0,4,3,1,43,0004-00-0001-74.png,0003-00-0001-72.png
00000014,690,0,1439307802738,1439307802758,517,488,0,0,0,3,2,1,32,0003-00-0000-02.png,0002-00-0001-01.png
00000014,691,1,1439307805734,1439307805750,512,365,0,0,0,2,3,1,23,0002-00-0001-51.png,0003-00-0000-46.png
00000014,692,0,1439307806762,1439307807473,355,401,0,0,0,5,4,1,54,0005-00-0000-51.png,0004-00-0001-67.png
00000014,693,1,1439307810515,1439307811318,337,377,0,0,0,4,5,1,45,0004-00-0000-11.png,0005-00-0001-80.png
00000014,694,0,1439307812288,1439307812887,908,427,0,0,0,1,2,1,12,0001-00-0000-22.png,0002-00-0001-57.png
00000014,695,1,1439307817216,1439307817910,378,414,0,0,0,3,4,1,34,0003-00-0000-45.png,0004-00-0001-78.png
00000014,696,1,1439307818836,1439307819460,906,388,0,0,0,2,1,1,21,0002-00-0001-13.png,0001-00-0001-58.png
00000014,697,1,1439307820429,1439307821070,316,406,0,0,0,3,4,1,34,0003-00-0001-21.png,0004-00-0001-44.png
00000014,698,0,1439307822074,1439307822967,877,493,0,0,0,4,5,1,45,0004-00-0001-82.png,0005-00-0001-45.png
00000014,699,1,1439307825958,1439307826628,952,365,0,0,0,5,4,1,54,0005-00-0001-92.png,0004-00-0000-13.png
00000014,700,0,1439307827497,1439307827521,517,446,0,0,0,3,2,1,32,0003-00-0000-43.png,0002-00-0001-15.png
00000014,701,1,1439307830668,1439307830736,516,476,0,0,0,2,3,1,23,0002-00-0000-19.png,0003-00-0001-86.png
00000014,702,1,1439307831712,1439307832310,339,408,0,0,0,1,2,1,12,0001-00-0000-60.png,0002-00-0000-35.png
00000014,703,1,1439307833287,1439307833938,921,394,0,0,0,4,3,1,43,0004-00-0001-92.png,0003-00-0001-29.png
00000014,704,0,1439307834845,1439307835437,339,413,0,0,0,2,1,1,21,0002-00-0000-44.png,0001-00-0001-03.png
00000014,705,1,1439307838310,1439307839007,376,358,0,0,0,3,4,1,34,0003-00-0001-64.png,0004-00-0000-96.png
00000014,706,0,1439307839851,1439307840522,900,503,0,0,0,2,3,1,23,0002-00-0001-34.png,0003-00-0000-38.png
00000014,707,0,1439307843909,1439307844665,362,400,0,0,0,4,3,1,43,0004-00-0000-30.png,0003-00-0001-23.png
00000014,708,1,1439307847963,1439307848558,925,437,0,0,0,2,1,1,21,0002-00-0001-68.png,0001-00-0001-64.png
00000014,709,1,1439307849462,1439307850062,920,425,0,0,0,3,2,1,32,0003-00-0001-23.png,0002-00-0000-30.png
00000014,710,1,1439307850963,1439307851742,365,416,0,0,0,4,5,1,45,0004-00-0000-21.png,0005-00-0001-38.png
00000014,711,1,1439307852702,1439307853298,904,403,0,0,0,5,4,1,54,0005-00-0001-89.png,0004-00-0000-70.png
00000014,712,1,1439307854253,1439307855049,359,353,0,0,0,1,2,1,12,0001-00-0000-06.png,0002-00-0001-11.png
00000014,713,1,1439307855983,1439307856576,907,521,0,0,0,2,1,1,21,0002-00-0001-92.png,0001-00-0000-00.png
00000014,714,0,1439307857463,1439307858341,346,426,0,0,0,4,3,1,43,0004-00-0000-78.png,0003-00-0001-98.png
00000014,715,1,1439307861477,1439307862127,357,418,0,0,0,3,4,1,34,0003-00-0000-61.png,0004-00-0001-52.png
00000014,716,1,1439307862999,1439307863027,513,501,0,0,0,4,5,1,45,0004-00-0000-99.png,0005-00-0000-01.png
00000014,717,1,1439307864023,1439307864527,901,410,0,0,0,5,4,1,54,0005-00-0001-85.png,0004-00-0000-58.png
00000014,718,1,1439307865413,1439307865492,504,557,0,0,0,2,3,1,23,0002-00-0001-47.png,0003-00-0001-69.png
00000014,719,1,1439307866526,1439307867119,931,401,0,0,0,3,2,1,32,0003-00-0001-38.png,0002-00-0000-61.png
00000014,720,1,1439307868063,1439307868844,417,497,0,0,0,1,2,1,12,0001-00-0001-78.png,0002-00-0000-26.png
00000014,721,0,1439307869828,1439307870785,871,394,0,0,0,4,5,1,45,0004-00-0000-92.png,0005-00-0001-79.png
00000014,722,0,1439307873980,1439307874721,368,404,0,0,0,3,2,1,32,0003-00-0000-76.png,0002-00-0001-76.png
00000014,723,0,1439307878093,1439307878137,478,514,0,0,0,4,3,1,43,0004-00-0000-07.png,0003-00-0000-81.png
00000014,724,0,1439307881332,1439307881364,523,456,0,0,0,5,4,1,54,0005-00-0000-97.png,0004-00-0001-53.png
00000014,725,0,1439307884201,1439307884754,928,391,0,0,0,1,2,1,12,0001-00-0001-66.png,0002-00-0001-34.png
00000014,726,1,1439307887837,1439307888633,313,394,0,0,0,3,4,1,34,0003-00-0000-72.png,0004-00-0000-88.png
00000014,727,1,1439307889584,1439307890353,337,394,0,0,0,2,3,1,23,0002-00-0000-30.png,0003-00-0000-23.png
00000014,728,0,1439307891351,1439307891387,507,509,0,0,0,2,1,1,21,0002-00-0001-73.png,0001-00-0001-91.png
00000014,729,1,1439307894432,1439307894460,522,454,0,0,0,4,5,1,45,0004-00-0000-30.png,0005-00-0000-44.png
00000014,730,0,1439307895417,1439307896210,345,391,0,0,0,2,1,1,21,0002-00-0001-06.png,0001-00-0001-98.png
00000014,731,1,1439307899839,1439307900354,929,410,0,0,0,4,3,1,43,0004-00-0000-74.png,0003-00-0001-94.png
00000014,732,1,1439307901249,1439307901990,340,397,0,0,0,2,3,1,23,0002-00-0001-25.png,0003-00-0001-04.png
00000014,733,1,1439307902850,1439307903614,912,398,0,0,0,5,4,1,54,0005-00-0001-14.png,0004-00-0000-16.png
00000014,734,1,1439307904449,1439307905136,900,397,0,0,0,3,2,1,32,0003-00-0000-63.png,0002-00-0000-08.png
00000014,735,1,1439307906021,1439307906049,523,469,0,0,0,3,4,1,34,0003-00-0000-12.png,0004-00-0001-04.png
00000014,736,0,1439307907125,1439307908019,900,475,0,0,0,1,2,1,12,0001-00-0000-39.png,0002-00-0001-48.png
00000014,737,1,1439307911069,1439307911805,338,398,0,0,0,1,2,1,12,0001-00-0000-05.png,0002-00-0001-51.png
00000014,738,1,1439307912664,1439307913346,354,410,0,0,0,3,4,1,34,0003-00-0001-45.png,0004-00-0001-24.png
00000014,739,1,1439307914268,1439307914859,899,491,0,0,0,4,3,1,43,0004-00-0001-03.png,0003-00-0000-31.png
00000014,740,1,1439307915780,1439307916538,341,394,0,0,0,2,3,1,23,0002-00-0001-51.png,0003-00-0000-46.png
00000014,741,1,1439307917874,1439307918387,879,403,0,0,0,5,4,1,54,0005-00-0000-92.png,0004-00-0001-87.png
00000014,742,1,1439307919237,1439307920020,875,364,0,0,0,3,2,1,32,0003-00-0001-45.png,0002-00-0000-12.png
00000014,743,1,1439307920936,1439307921717,391,501,0,0,0,4,5,1,45,0004-00-0000-03.png,0005-00-0000-98.png
00000014,744,0,1439307922595,1439307923715,401,384,0,0,0,2,1,1,21,0002-00-0001-13.png,0001-00-0000-94.png
00000014,745,1,1439307926787,1439307927367,913,421,0,0,0,3,2,1,32,0003-00-0000-32.png,0002-00-0000-56.png
00000014,746,0,1439307928734,1439307929682,388,409,0,0,0,5,4,1,54,0005-00-0000-95.png,0004-00-0000-62.png
00000014,747,0,1439307932710,1439307933265,922,401,0,0,0,1,2,1,12,0001-00-0000-32.png,0002-00-0000-51.png
00000014,748,0,1439307936998,1439307937624,291,412,0,0,0,4,3,1,43,0004-00-0000-22.png,0003-00-0001-08.png
00000014,749,1,1439307940500,1439307942053,913,449,0,0,0,2,1,1,21,0002-00-0000-65.png,0001-00-0001-02.png
00000014,750,1,1439307942937,1439307942953,523,454,0,0,0,3,4,1,34,0003-00-0001-50.png,0004-00-0000-08.png
00000014,751,1,1439307943884,1439307944557,337,384,0,0,0,4,5,1,45,0004-00-0000-14.png,0005-00-0001-76.png
00000014,752,1,1439307945399,1439307945452,472,443,0,0,0,2,3,1,23,0002-00-0000-41.png,0003-00-0000-31.png
00000014,753,0,1439307946487,1439307947103,907,501,0,0,0,1,2,1,12,0001-00-0000-53.png,0002-00-0000-72.png
00000014,754,1,1439307950161,1439307950173,517,488,0,0,0,3,4,1,34,0003-00-0000-91.png,0004-00-0001-57.png
00000014,755,1,1439307951078,1439307952000,323,390,0,0,0,4,5,1,45,0004-00-0000-78.png,0005-00-0001-08.png
00000014,756,0,1439307953291,1439307953311,518,488,0,0,0,5,4,1,54,0005-00-0000-75.png,0004-00-0000-42.png
00000014,757,0,1439307956394,1439307957295,892,484,0,0,0,2,3,1,23,0002-00-0000-57.png,0003-00-0001-83.png
00000014,758,0,1439307960268,1439307960288,468,423,0,0,0,3,2,1,32,0003-00-0001-45.png,0002-00-0001-71.png
00000014,759,1,1439307963208,1439307963861,924,484,0,0,0,4,3,1,43,0004-00-0000-28.png,0003-00-0001-26.png
00000014,760,1,1439307964781,1439307965315,887,440,0,0,0,2,1,1,21,0002-00-0000-55.png,0001-00-0001-49.png
00000014,761,1,1439307966189,1439307966953,926,371,0,0,0,4,3,1,43,0004-00-0000-86.png,0003-00-0001-06.png
00000014,762,0,1439307968306,1439307968318,515,481,0,0,0,5,4,1,54,0005-00-0001-22.png,0004-00-0000-89.png
00000014,763,1,1439307971349,1439307971933,349,382,0,0,0,2,3,1,23,0002-00-0001-61.png,0003-00-0000-86.png
00000014,764,1,1439307973256,1439307974020,385,506,0,0,0,4,5,1,45,0004-00-0001-80.png,0005-00-0000-46.png
00000014,765,1,1439307974878,1439307974906,517,496,0,0,0,3,4,1,34,0003-00-0000-71.png,0004-00-0000-58.png
00000014,766,1,1439307976000,1439307976518,881,500,0,0,0,3,2,1,32,0003-00-0000-83.png,0002-00-0001-89.png
00000014,767,1,1439307977490,1439307978165,395,505,0,0,0,1,2,1,12,0001-00-0001-70.png,0002-00-0000-86.png
00000014,768,1,1439307979569,1439307980079,903,443,0,0,0,2,1,1,21,0002-00-0000-70.png,0001-00-0001-26.png
00000014,769,0,1439307980989,1439307981025,509,505,0,0,0,2,1,1,21,0002-00-0001-53.png,0001-00-0000-79.png
00000014,770,0,1439307984022,1439307984722,956,402,0,0,0,3,4,1,34,0003-00-0000-41.png,0004-00-0000-13.png
00000014,771,0,1439307987857,1439307987897,465,510,0,0,0,3,2,1,32,0003-00-0000-10.png,0002-00-0000-01.png
00000014,772,0,1439307994084,1439307994700,248,514,0,0,0,4,3,1,43,0004-00-0001-81.png,0003-00-0001-42.png
00000014,773,1,1439307997893,1439307998460,927,510,0,0,0,5,4,1,54,0005-00-0001-75.png,0004-00-0001-80.png
00000014,774,0,1439307999634,1439308000280,904,416,0,0,0,2,3,1,23,0002-00-0001-42.png,0003-00-0000-70.png
00000014,775,1,1439308003257,1439308003894,401,514,0,0,0,1,2,1,12,0001-00-0001-79.png,0002-00-0001-42.png
00000014,776,1,1439308004811,1439308005585,346,406,0,0,0,4,5,1,45,0004-00-0001-46.png,0005-00-0000-33.png
00000014,777,1,1439308006409,1439308006425,522,455,0,0,0,3,4,1,34,0003-00-0001-37.png,0004-00-0000-88.png
00000014,778,1,1439308007538,1439308008201,342,416,0,0,0,2,3,1,23,0002-00-0000-24.png,0003-00-0001-66.png
00000014,779,0,1439308009174,1439308009875,899,464,0,0,0,1,2,1,12,0001-00-0001-64.png,0002-00-0000-74.png
00000014,780,1,1439308012878,1439308013447,917,372,0,0,0,2,1,1,21,0002-00-0001-82.png,0001-00-0000-35.png
00000014,781,0,1439308014351,1439308015102,339,387,0,0,0,3,2,1,32,0003-00-0001-63.png,0002-00-0001-22.png
00000014,782,0,1439308018225,1439308019055,343,400,0,0,0,4,3,1,43,0004-00-0000-01.png,0003-00-0000-18.png
00000014,783,0,1439308022022,1439308022731,291,395,0,0,0,5,4,1,54,0005-00-0001-06.png,0004-00-0000-10.png
00000014,784,1,1439308025942,1439308025986,480,480,0,0,0,4,5,1,45,0004-00-0000-51.png,0005-00-0000-35.png
00000014,785,1,1439308027016,1439308027637,926,397,0,0,0,2,1,1,21,0002-00-0001-37.png,0001-00-0001-52.png
00000014,786,1,1439308028572,1439308029331,335,396,0,0,0,3,4,1,34,0003-00-0000-45.png,0004-00-0001-96.png
00000014,787,1,1439308030284,1439308031126,889,490,0,0,0,4,3,1,43,0004-00-0000-88.png,0003-00-0000-44.png
00000014,788,0,1439308032112,1439308032672,902,495,0,0,0,4,5,1,45,0004-00-0001-44.png,0005-00-0001-62.png
00000014,789,0,1439308035778,1439308036410,335,375,0,0,0,3,2,1,32,0003-00-0001-62.png,0002-00-0001-90.png
00000014,790,0,1439308041336,1439308041360,523,479,0,0,0,5,4,1,54,0005-00-0001-38.png,0004-00-0001-38.png
00000014,791,1,1439308044282,1439308044302,478,425,0,0,0,1,2,1,12,0001-00-0001-42.png,0002-00-0000-32.png
00000014,792,1,1439308045635,1439308046409,365,429,0,0,0,2,3,1,23,0002-00-0001-14.png,0003-00-0000-65.png
00000014,793,0,1439308047335,1439308047363,523,480,0,0,0,3,2,1,32,0003-00-0001-50.png,0002-00-0000-21.png
00000014,794,0,1439308050357,1439308051072,330,397,0,0,0,5,4,1,54,0005-00-0001-69.png,0004-00-0000-82.png
00000014,795,0,1439308054033,1439308054912,927,363,0,0,0,4,5,1,45,0004-00-0000-91.png,0005-00-0000-25.png
00000014,796,0,1439308057877,1439308057889,517,410,0,0,0,2,1,1,21,0002-00-0000-82.png,0001-00-0001-89.png
00000014,797,1,1439308060883,1439308061930,912,437,0,0,0,4,3,1,43,0004-00-0000-63.png,0003-00-0000-69.png
00000014,798,0,1439308062831,1439308063459,918,391,0,0,0,2,3,1,23,0002-00-0001-87.png,0003-00-0000-51.png
00000014,799,1,1439308066424,1439308067117,411,484,0,0,0,1,2,1,12,0001-00-0001-79.png,0002-00-0001-45.png
00000014,800,0,1439308067985,1439308068604,903,412,0,0,0,3,4,1,34,0003-00-0001-24.png,0004-00-0001-70.png
00000014,801,1,1439308071582,1439308072169,343,436,0,0,0,1,2,1,12,0001-00-0000-35.png,0002-00-0001-92.png
00000014,802,1,1439308073584,1439308074272,913,461,0,0,0,4,3,1,43,0004-00-0001-87.png,0003-00-0001-78.png
00000014,803,0,1439308075183,1439308075736,897,409,0,0,0,3,4,1,34,0003-00-0000-64.png,0004-00-0000-50.png
00000014,804,0,1439308078858,1439308079514,899,385,0,0,0,2,3,1,23,0002-00-0001-80.png,0003-00-0000-67.png
00000014,805,0,1439308083155,1439308083947,335,386,0,0,0,5,4,1,54,0005-00-0000-71.png,0004-00-0000-02.png
00000014,806,0,1439308087037,1439308087768,339,358,0,0,0,3,2,1,32,0003-00-0000-41.png,0002-00-0001-26.png
00000014,807,0,1439308090776,1439308090800,466,450,0,0,0,2,1,1,21,0002-00-0001-25.png,0001-00-0000-88.png
00000014,808,1,1439308093890,1439308093898,494,485,0,0,0,4,5,1,45,0004-00-0000-41.png,0005-00-0000-54.png
00000014,809,1,1439308094861,1439308095563,248,488,0,0,0,1,2,1,12,0001-00-0000-34.png,0002-00-0000-05.png
00000014,810,1,1439308096898,1439308097622,364,395,0,0,0,4,5,1,45,0004-00-0000-68.png,0005-00-0001-90.png
00000014,811,0,1439308099013,1439308099572,376,411,0,0,0,4,3,1,43,0004-00-0000-47.png,0003-00-0000-71.png
00000014,812,1,1439308102494,1439308103094,319,394,0,0,0,3,4,1,34,0003-00-0000-23.png,0004-00-0000-95.png
00000014,813,1,1439308104074,1439308104640,862,436,0,0,0,5,4,1,54,0005-00-0000-93.png,0004-00-0001-25.png
00000014,814,0,1439308105615,1439308106202,898,456,0,0,0,2,3,1,23,0002-00-0000-39.png,0003-00-0001-40.png
00000014,815,0,1439308109317,1439308109877,324,410,0,0,0,2,1,1,21,0002-00-0000-01.png,0001-00-0000-97.png
00000014,816,0,1439308112930,1439308112942,460,517,0,0,0,3,2,1,32,0003-00-0000-74.png,0002-00-0001-27.png
00000014,817,1,1439308116326,1439308116354,523,495,0,0,0,4,5,1,45,0004-00-0000-39.png,0005-00-0001-99.png
00000014,818,0,1439308117321,1439308118802,463,534,0,0,0,5,4,1,54,0005-00-0001-43.png,0004-00-0001-78.png
00000014,819,0,1439308121860,1439308121880,495,445,0,0,0,3,2,1,32,0003-00-0001-76.png,0002-00-0001-60.png
00000014,820,0,1439308124950,1439308125648,346,392,0,0,0,2,1,1,21,0002-00-0000-98.png,0001-00-0000-17.png
00000014,821,1,1439308129414,1439308129997,347,366,0,0,0,3,4,1,34,0003-00-0001-66.png,0004-00-0001-28.png
00000014,822,1,1439308130882,1439308131505,921,395,0,0,0,4,3,1,43,0004-00-0000-05.png,0003-00-0000-38.png
00000014,823,1,1439308132840,1439308132868,518,488,0,0,0,1,2,1,12,0001-00-0000-30.png,0002-00-0001-32.png
00000014,824,1,1439308133876,1439308133896,508,491,0,0,0,2,3,1,23,0002-00-0001-00.png,0003-00-0000-54.png
00000014,825,0,1439308134900,1439308134956,508,500,0,0,0,2,1,1,21,0002-00-0001-64.png,0001-00-0000-77.png
00000014,826,1,1439308138036,1439308138620,345,397,0,0,0,2,3,1,23,0002-00-0001-57.png,0003-00-0001-70.png
00000014,827,1,1439308139540,1439308140502,909,442,0,0,0,3,2,1,32,0003-00-0000-80.png,0002-00-0000-14.png
00000014,828,1,1439308141419,1439308142101,312,395,0,0,0,3,4,1,34,0003-00-0000-17.png,0004-00-0000-93.png
00000014,829,1,1439308143009,1439308143946,887,514,0,0,0,4,3,1,43,0004-00-0001-83.png,0003-00-0000-37.png
00000014,830,1,1439308144858,1439308145540,907,490,0,0,0,5,4,1,54,0005-00-0001-93.png,0004-00-0001-27.png
00000014,831,1,1439308146474,1439308147230,376,423,0,0,0,1,2,1,12,0001-00-0000-18.png,0002-00-0001-33.png
00000014,832,0,1439308148107,1439308149160,864,359,0,0,0,4,5,1,45,0004-00-0000-10.png,0005-00-0000-11.png
00000014,833,0,1439308152007,1439308152747,900,410,0,0,0,3,4,1,34,0003-00-0000-02.png,0004-00-0001-41.png
00000014,834,0,1439308155850,1439308156494,393,492,0,0,0,3,2,1,32,0003-00-0001-27.png,0002-00-0001-98.png
00000014,835,1,1439308159475,1439308159502,489,500,0,0,0,2,3,1,23,0002-00-0001-86.png,0003-00-0001-85.png
00000014,836,1,1439308160422,1439308161107,416,487,0,0,0,4,5,1,45,0004-00-0000-23.png,0005-00-0001-01.png
00000014,837,0,1439308161969,1439308161989,520,462,0,0,0,2,1,1,21,0002-00-0000-61.png,0001-00-0000-00.png
00000014,838,0,1439308164982,1439308164990,461,454,0,0,0,4,3,1,43,0004-00-0001-57.png,0003-00-0001-89.png
00000014,839,1,1439308168768,1439308169768,880,374,0,0,0,5,4,1,54,0005-00-0001-49.png,0004-00-0001-16.png
00000014,840,1,1439308170707,1439308171440,306,396,0,0,0,1,2,1,12,0001-00-0000-50.png,0002-00-0000-77.png
00000014,841,1,1439308172386,1439308173335,901,468,0,0,0,5,4,1,54,0005-00-0001-60.png,0004-00-0000-82.png
00000014,842,1,1439308174342,1439308174961,885,489,0,0,0,2,1,1,21,0002-00-0001-35.png,0001-00-0001-61.png
00000014,843,1,1439308175902,1439308176788,888,346,0,0,0,4,3,1,43,0004-00-0000-07.png,0003-00-0000-59.png
00000014,844,0,1439308177781,1439308178380,887,490,0,0,0,3,4,1,34,0003-00-0000-10.png,0004-00-0000-03.png
00000014,845,0,1439308181229,1439308182167,896,341,0,0,0,4,5,1,45,0004-00-0001-17.png,0005-00-0001-45.png
00000014,846,0,1439308185076,1439308185104,523,509,0,0,0,3,2,1,32,0003-00-0000-00.png,0002-00-0001-76.png
00000014,847,1,1439308188084,1439308188116,514,410,0,0,0,2,3,1,23,0002-00-0000-68.png,0003-00-0000-22.png
00000014,848,1,1439308189083,1439308189751,315,408,0,0,0,1,2,1,12,0001-00-0000-18.png,0002-00-0000-47.png
00000014,849,0,1439308191247,1439308191267,514,503,0,0,0,3,2,1,32,0003-00-0001-09.png,0002-00-0001-16.png
00000014,850,1,1439308194465,1439308194489,518,449,0,0,0,4,5,1,45,0004-00-0001-97.png,0005-00-0001-80.png
00000014,851,0,1439308195432,1439308196073,934,368,0,0,0,2,3,1,23,0002-00-0000-54.png,0003-00-0001-61.png
00000014,852,0,1439308199068,1439308199785,407,473,0,0,0,2,1,1,21,0002-00-0001-48.png,0001-00-0000-26.png
00000014,853,1,1439308202655,1439308202667,496,419,0,0,0,1,2,1,12,0001-00-0000-24.png,0002-00-0001-25.png
00000014,854,1,1439308203662,1439308204229,880,437,0,0,0,4,3,1,43,0004-00-0001-63.png,0003-00-0000-26.png
00000014,855,0,1439308205111,1439308205717,903,412,0,0,0,3,4,1,34,0003-00-0001-42.png,0004-00-0001-54.png
00000014,856,0,1439308208628,1439308209373,309,374,0,0,0,5,4,1,54,0005-00-0000-56.png,0004-00-0001-67.png
00000014,857,0,1439308212528,1439308213428,913,398,0,0,0,1,2,1,12,0001-00-0000-88.png,0002-00-0000-69.png
00000014,858,1,1439308216936,1439308217563,347,383,0,0,0,2,3,1,23,0002-00-0001-32.png,0003-00-0000-72.png
00000014,859,1,1439308218915,1439308219821,927,396,0,0,0,5,4,1,54,0005-00-0000-49.png,0004-00-0000-28.png
00000014,860,0,1439308220724,1439308221475,363,371,0,0,0,3,2,1,32,0003-00-0001-78.png,0002-00-0000-90.png
00000014,861,1,1439308224451,1439308225056,343,393,0,0,0,3,4,1,34,0003-00-0000-24.png,0004-00-0000-83.png
00000014,862,1,1439308225951,1439308226538,901,409,0,0,0,2,1,1,21,0002-00-0001-92.png,0001-00-0000-04.png
00000014,863,0,1439308227453,1439308228570,380,398,0,0,0,4,3,1,43,0004-00-0000-86.png,0003-00-0001-18.png
00000014,864,1,1439308231565,1439308231585,454,470,0,0,0,4,5,1,45,0004-00-0000-91.png,0005-00-0000-39.png
00000014,865,1,1439308232490,1439308233074,363,400,0,0,0,1,2,1,12,0001-00-0000-04.png,0002-00-0001-12.png
00000014,866,0,1439308233982,1439308234619,924,390,0,0,0,2,3,1,23,0002-00-0001-30.png,0003-00-0001-61.png
00000014,867,1,1439308237695,1439308238387,294,394,0,0,0,4,5,1,45,0004-00-0001-52.png,0005-00-0000-34.png
00000014,868,1,1439308239308,1439308239909,886,502,0,0,0,5,4,1,54,0005-00-0000-72.png,0004-00-0001-18.png
00000014,869,1,1439308240845,1439308241743,871,367,0,0,0,4,3,1,43,0004-00-0001-03.png,0003-00-0000-20.png
00000014,870,1,1439308242658,1439308242674,523,444,0,0,0,3,4,1,34,0003-00-0000-74.png,0004-00-0001-29.png
00000014,871,1,1439308243670,1439308244361,900,397,0,0,0,2,1,1,21,0002-00-0000-63.png,0001-00-0001-09.png
00000014,872,1,1439308245327,1439308246256,900,391,0,0,0,3,2,1,32,0003-00-0001-38.png,0002-00-0001-94.png
00000014,873,0,1439308247159,1439308247844,913,476,0,0,0,3,4,1,34,0003-00-0001-12.png,0004-00-0001-73.png
00000014,874,1,1439308250746,1439308251684,922,367,0,0,0,3,2,1,32,0003-00-0000-31.png,0002-00-0000-65.png
00000014,875,0,1439308253159,1439308254113,895,397,0,0,0,4,5,1,45,0004-00-0000-59.png,0005-00-0000-04.png
00000014,876,0,1439308257343,1439308257371,506,490,0,0,0,5,4,1,54,0005-00-0000-71.png,0004-00-0000-30.png
00000014,877,1,1439308260862,1439308261400,933,389,0,0,0,2,1,1,21,0002-00-0000-19.png,0001-00-0001-27.png
00000014,878,1,1439308262322,1439308262912,907,414,0,0,0,4,3,1,43,0004-00-0001-27.png,0003-00-0000-98.png
00000014,879,0,1439308263802,1439308264376,904,401,0,0,0,2,3,1,23,0002-00-0000-26.png,0003-00-0000-79.png
00000014,880,1,1439308267549,1439308267622,483,522,0,0,0,1,2,1,12,0001-00-0001-73.png,0002-00-0000-20.png
00000014,881,0,1439308268575,1439308269278,938,359,0,0,0,1,2,1,12,0001-00-0001-79.png,0002-00-0001-72.png
00000014,882,1,1439308272547,1439308273128,910,399,0,0,0,3,2,1,32,0003-00-0000-11.png,0002-00-0001-79.png
00000014,883,1,1439308273997,1439308274041,523,444,0,0,0,2,3,1,23,0002-00-0000-45.png,0003-00-0001-96.png
00000014,884,0,1439308275007,1439308275746,342,421,0,0,0,2,1,1,21,0002-00-0001-25.png,0001-00-0000-80.png
00000014,885,1,1439308278890,1439308279553,956,400,0,0,0,4,3,1,43,0004-00-0000-26.png,0003-00-0000-92.png
00000014,886,1,1439308280502,1439308281466,900,371,0,0,0,5,4,1,54,0005-00-0000-58.png,0004-00-0000-42.png
00000014,887,1,1439308282410,1439308283268,324,363,0,0,0,4,5,1,45,0004-00-0001-29.png,0005-00-0001-81.png
00000014,888,0,1439308284219,1439308284799,905,375,0,0,0,3,4,1,34,0003-00-0000-60.png,0004-00-0001-17.png
00000014,889,0,1439308287657,1439308288411,899,428,0,0,0,2,3,1,23,0002-00-0001-26.png,0003-00-0001-76.png
00000014,890,0,1439308291342,1439308292166,416,466,0,0,0,4,3,1,43,0004-00-0001-42.png,0003-00-0000-20.png
00000014,891,0,1439308295446,1439308295474,498,479,0,0,0,2,1,1,21,0002-00-0001-46.png,0001-00-0000-18.png
00000014,892,1,1439308299083,1439308299643,346,387,0,0,0,1,2,1,12,0001-00-0000-25.png,0002-00-0001-42.png
00000014,893,1,1439308300598,1439308301447,897,460,0,0,0,5,4,1,54,0005-00-0001-49.png,0004-00-0001-02.png
00000014,894,1,1439308302323,1439308303555,898,485,0,0,0,3,2,1,32,0003-00-0001-64.png,0002-00-0001-56.png
00000014,895,1,1439308304865,1439308304889,504,462,0,0,0,3,4,1,34,0003-00-0000-31.png,0004-00-0000-18.png
00000014,896,0,1439308306257,1439308306805,867,459,0,0,0,4,5,1,45,0004-00-0001-44.png,0005-00-0001-25.png
00000014,897,1,1439308309736,1439308311181,953,469,0,0,0,3,2,1,32,0003-00-0000-43.png,0002-00-0001-96.png
00000014,898,1,1439308312049,1439308312727,383,411,0,0,0,1,2,1,12,0001-00-0001-14.png,0002-00-0000-42.png
00000014,899,0,1439308313633,1439308314251,925,462,0,0,0,2,3,1,23,0002-00-0001-21.png,0003-00-0001-21.png
00000014,900,1,1439308317270,1439308318049,343,401,0,0,0,3,4,1,34,0003-00-0000-02.png,0004-00-0001-82.png
00000014,901,0,1439308318910,1439308320381,900,476,0,0,0,4,5,1,45,0004-00-0001-65.png,0005-00-0000-57.png
00000014,902,0,1439308323460,1439308323500,494,482,0,0,0,5,4,1,54,0005-00-0001-23.png,0004-00-0001-28.png
00000014,903,1,1439308326359,1439308326959,941,400,0,0,0,4,3,1,43,0004-00-0000-28.png,0003-00-0001-02.png
00000014,904,1,1439308327864,1439308328475,894,402,0,0,0,2,1,1,21,0002-00-0001-88.png,0001-00-0001-57.png
00000014,905,1,1439308329818,1439308329842,514,481,0,0,0,1,2,1,12,0001-00-0000-54.png,0002-00-0000-05.png
00000014,906,1,1439308330841,1439308331379,898,485,0,0,0,2,1,1,21,0002-00-0000-58.png,0001-00-0001-91.png
00000014,907,1,1439308332710,1439308333614,364,403,0,0,0,4,5,1,45,0004-00-0001-82.png,0005-00-0000-08.png
00000014,908,1,1439308334469,1439308335166,873,473,0,0,0,5,4,1,54,0005-00-0001-11.png,0004-00-0001-84.png
00000014,909,1,1439308336183,1439308336750,891,483,0,0,0,3,2,1,32,0003-00-0001-77.png,0002-00-0000-29.png
00000014,910,0,1439308337704,1439308338731,902,468,0,0,0,3,4,1,34,0003-00-0000-71.png,0004-00-0001-92.png
00000014,911,1,1439308341654,1439308342181,900,386,0,0,0,4,3,1,43,0004-00-0000-83.png,0003-00-0001-11.png
00000014,912,0,1439308343056,1439308343700,875,476,0,0,0,2,3,1,23,0002-00-0001-64.png,0003-00-0001-53.png
00000014,913,1,1439308347293,1439308347321,496,488,0,0,0,2,3,1,23,0002-00-0001-90.png,0003-00-0000-01.png
00000014,914,1,1439308348237,1439308349081,921,367,0,0,0,4,3,1,43,0004-00-0000-52.png,0003-00-0000-47.png
00000014,915,0,1439308349973,1439308349997,504,473,0,0,0,5,4,1,54,0005-00-0001-19.png,0004-00-0001-53.png
00000014,916,0,1439308352993,1439308353805,937,360,0,0,0,3,4,1,34,0003-00-0000-51.png,0004-00-0000-35.png
00000014,917,1,1439308356821,1439308356841,482,416,0,0,0,1,2,1,12,0001-00-0001-03.png,0002-00-0001-27.png
00000014,918,0,1439308358211,1439308358231,523,494,0,0,0,3,2,1,32,0003-00-0000-67.png,0002-00-0001-16.png
00000014,919,0,1439308362297,1439308363021,348,364,0,0,0,2,1,1,21,0002-00-0000-74.png,0001-00-0001-20.png
00000014,920,1,1439308365881,1439308365943,506,485,0,0,0,4,5,1,45,0004-00-0001-87.png,0005-00-0000-21.png
00000014,921,1,1439308366931,1439308368112,953,466,0,0,0,3,2,1,32,0003-00-0001-01.png,0002-00-0001-47.png
00000014,922,1,1439308369027,1439308369759,348,395,0,0,0,4,5,1,45,0004-00-0001-32.png,0005-00-0000-24.png
00000014,923,1,1439308370728,1439308371548,887,465,0,0,0,4,3,1,43,0004-00-0000-21.png,0003-00-0000-32.png
00000014,924,0,1439308372545,1439308373716,888,410,0,0,0,1,2,1,12,0001-00-0001-78.png,0002-00-0000-68.png
00000014,925,0,1439308377222,1439308377242,514,549,0,0,0,5,4,1,54,0005-00-0001-37.png,0004-00-0000-62.png
00000014,926,1,1439308380261,1439308380850,877,493,0,0,0,2,1,1,21,0002-00-0001-34.png,0001-00-0000-04.png
00000014,927,0,1439308382610,1439308383545,953,382,0,0,0,2,3,1,23,0002-00-0000-55.png,0003-00-0001-04.png
00000014,928,0,1439308394861,1439308395718,977,345,0,0,0,3,4,1,34,0003-00-0000-45.png,0004-00-0000-96.png
00000014,929,0,1439308401499,1439308402246,948,408,0,0,0,2,3,1,23,0002-00-0000-75.png,0003-00-0001-74.png
00000014,930,0,1439308405378,1439308406232,905,394,0,0,0,3,4,1,34,0003-00-0000-52.png,0004-00-0000-20.png
00000014,931,1,1439308409406,1439308410583,401,384,0,0,0,1,2,1,12,0001-00-0000-23.png,0002-00-0000-42.png
00000014,932,1,1439308411936,1439308412701,919,459,0,0,0,5,4,1,54,0005-00-0001-12.png,0004-00-0000-43.png
00000014,933,0,1439308413647,1439308414413,383,420,0,0,0,2,1,1,21,0002-00-0000-10.png,0001-00-0001-07.png
00000014,934,1,1439308417898,1439308418523,379,431,0,0,0,4,5,1,45,0004-00-0000-79.png,0005-00-0001-10.png
00000014,935,1,1439308419399,1439308420037,901,389,0,0,0,4,3,1,43,0004-00-0000-76.png,0003-00-0000-15.png
00000014,936,1,1439308421427,1439308421962,901,411,0,0,0,3,2,1,32,0003-00-0000-43.png,0002-00-0001-36.png
00000014,937,1,1439308422919,1439308423488,365,391,0,0,0,1,2,1,12,0001-00-0000-35.png,0002-00-0001-09.png
00000014,938,1,1439308424470,1439308425201,341,415,0,0,0,3,4,1,34,0003-00-0000-22.png,0004-00-0001-55.png
00000014,939,1,1439308426207,1439308426927,439,513,0,0,0,2,3,1,23,0002-00-0000-26.png,0003-00-0000-03.png
00000014,940,0,1439308427857,1439308428632,222,488,0,0,0,3,2,1,32,0003-00-0000-72.png,0002-00-0001-24.png
00000014,941,1,1439308432072,1439308432683,927,419,0,0,0,5,4,1,54,0005-00-0000-23.png,0004-00-0000-36.png
00000014,942,1,1439308434017,1439308434562,932,388,0,0,0,4,3,1,43,0004-00-0000-48.png,0003-00-0000-24.png
