subject_id,trial,correct_response,stim_time,response_time,x_coord,y_coord,trial_timeout,timeout_time,interTrial_timeout,left_rank,right_rank,distance,joint_rank,left_image,right_image
00000014,1,1,1442240152789,1442240153463,977,536,0,0,0,5,4,1,54,0005-00-0002-13.png,0004-00-0008-62.png
00000014,2,0,1442240154778,1442240155289,955,428,0,0,0,3,4,1,34,0003-00-0009-33.png,0004-00-0007-88.png
00000014,3,0,1442240158285,1442240158309,515,346,0,0,0,4,3,1,43,0004-00-0000-79.png,0003-00-0002-07.png
00000014,4,1,1442240161356,1442240161791,369,496,0,0,0,2,3,1,23,0002-00-0000-15.png,0003-00-0006-92.png
00000014,5,0,1442240162841,1442240163258,299,384,0,0,0,2,1,1,21,0002-00-0005-50.png,0001-00-0004-52.png
00000014,6,0,1442240166114,1442240166150,504,395,0,0,0,3,2,1,32,0003-00-0008-03.png,0002-00-0008-42.png
00000014,7,1,1442240169154,1442240169721,373,537,0,0,0,4,5,1,45,0004-00-0002-24.png,0005-00-0000-75.png
00000014,8,0,1442240170683,1442240171190,925,501,0,0,0,1,2,1,12,0001-00-0005-37.png,0002-00-0008-26.png
00000014,9,1,1442240174242,1442240174757,929,442,0,0,0,4,3,1,43,0004-00-0001-51.png,0003-00-0008-95.png
00000014,10,1,1442240175682,1442240176192,950,490,0,0,0,5,4,1,54,0005-00-0009-62.png,0004-00-0000-51.png
00000014,11,1,1442240177251,1442240177705,316,374,0,0,0,1,2,1,12,0001-00-0006-50.png,0002-00-0000-75.png
00000014,12,1,1442240178738,1442240179213,388,423,0,0,0,3,4,1,34,0003-00-0007-07.png,0004-00-0005-50.png
00000014,13,1,1442240180213,1442240180707,910,503,0,0,0,3,2,1,32,0003-00-0001-71.png,0002-00-0009-10.png
00000014,14,1,1442240181745,1442240182212,434,498,0,0,0,4,5,1,45,0004-00-0008-86.png,0005-00-0000-00.png
00000014,15,0,1442240183270,1442240183728,349,415,0,0,0,2,1,1,21,0002-00-0001-32.png,0001-00-0009-36.png
00000014,16,0,1442240186809,1442240187289,954,410,0,0,0,2,3,1,23,0002-00-0008-49.png,0003-00-0001-17.png
00000014,17,1,1442240190363,1442240190411,519,447,0,0,0,3,4,1,34,0003-00-0001-34.png,0004-00-0005-69.png
00000014,18,0,1442240191526,1442240192008,278,406,0,0,0,2,1,1,21,0002-00-0002-58.png,0001-00-0001-99.png
00000014,19,1,1442240195124,1442240195628,346,401,0,0,0,2,3,1,23,0002-00-0007-62.png,0003-00-0001-61.png
00000014,20,1,1442240196685,1442240197209,389,504,0,0,0,1,2,1,12,0001-00-0008-09.png,0002-00-0007-67.png
00000014,21,1,1442240198214,1442240198719,926,411,0,0,0,3,2,1,32,0003-00-0003-17.png,0002-00-0007-58.png
00000014,22,0,1442240199705,1442240200180,356,416,0,0,0,4,3,1,43,0004-00-0000-13.png,0003-00-0000-55.png
00000014,23,1,1442240203141,1442240203652,350,422,0,0,0,4,5,1,45,0004-00-0007-65.png,0005-00-0009-64.png
00000014,24,1,1442240204656,1442240205174,921,498,0,0,0,5,4,1,54,0005-00-0007-18.png,0004-00-0000-35.png
00000014,25,1,1442240206176,1442240206641,327,413,0,0,0,1,2,1,12,0001-00-0009-83.png,0002-00-0001-68.png
00000014,26,1,1442240207658,1442240208183,888,501,0,0,0,5,4,1,54,0005-00-0004-71.png,0004-00-0002-92.png
00000014,27,0,1442240209188,1442240210117,357,453,0,0,0,3,2,1,32,0003-00-0000-73.png,0002-00-0000-83.png
00000014,28,1,1442240214862,1442240215337,376,398,0,0,0,4,5,1,45,0004-00-0004-24.png,0005-00-0003-52.png
00000014,29,1,1442240216405,1442240216920,906,401,0,0,0,2,1,1,21,0002-00-0005-37.png,0001-00-0008-44.png
00000014,30,1,1442240217954,1442240218461,910,409,0,0,0,4,3,1,43,0004-00-0002-61.png,0003-00-0000-16.png
00000014,31,0,1442240219504,1442240220018,915,438,0,0,0,2,3,1,23,0002-00-0002-93.png,0003-00-0009-56.png
00000014,32,1,1442240222957,1442240222965,504,450,0,0,0,3,4,1,34,0003-00-0009-95.png,0004-00-0008-85.png
00000014,33,0,1442240224006,1442240224512,909,413,0,0,0,3,4,1,34,0003-00-0008-24.png,0004-00-0002-67.png
00000014,34,1,1442240227375,1442240227901,939,423,0,0,0,3,2,1,32,0003-00-0004-62.png,0002-00-0002-93.png
00000014,35,0,1442240228906,1442240229386,401,488,0,0,0,4,3,1,43,0004-00-0007-98.png,0003-00-0003-29.png
00000014,36,1,1442240232525,1442240232960,337,411,0,0,0,4,5,1,45,0004-00-0004-60.png,0005-00-0009-14.png
00000014,37,0,1442240233985,1442240234479,350,395,0,0,0,5,4,1,54,0005-00-0005-26.png,0004-00-0005-85.png
00000014,38,1,1442240237475,1442240237507,490,430,0,0,0,2,3,1,23,0002-00-0003-75.png,0003-00-0008-98.png
00000014,39,1,1442240238541,1442240239038,888,501,0,0,0,2,1,1,21,0002-00-0002-82.png,0001-00-0004-63.png
00000014,40,0,1442240240128,1442240240615,901,450,0,0,0,1,2,1,12,0001-00-0003-62.png,0002-00-0001-07.png
00000014,41,1,1442240243836,1442240244327,880,426,0,0,0,4,3,1,43,0004-00-0009-92.png,0003-00-0006-11.png
00000014,42,0,1442240245386,1442240245876,338,393,0,0,0,3,2,1,32,0003-00-0003-77.png,0002-00-0007-61.png
00000014,43,1,1442240248804,1442240248832,522,351,0,0,0,2,3,1,23,0002-00-0001-15.png,0003-00-0008-54.png
00000014,44,0,1442240249947,1442240250435,339,402,0,0,0,5,4,1,54,0005-00-0008-67.png,0004-00-0006-71.png
00000014,45,1,1442240253405,1442240253417,472,454,0,0,0,1,2,1,12,0001-00-0001-81.png,0002-00-0002-38.png
00000014,46,1,1442240254500,1442240254995,905,401,0,0,0,2,1,1,21,0002-00-0009-71.png,0001-00-0001-30.png
00000014,47,1,1442240256040,1442240256574,401,410,0,0,0,4,5,1,45,0004-00-0001-54.png,0005-00-0005-79.png
00000014,48,0,1442240257705,1442240258227,878,402,0,0,0,3,4,1,34,0003-00-0006-51.png,0004-00-0006-95.png
00000014,49,0,1442240261129,1442240261695,441,518,0,0,0,5,4,1,54,0005-00-0000-70.png,0004-00-0003-53.png
00000014,50,0,1442240271171,1442240271673,925,386,0,0,0,3,4,1,34,0003-00-0002-40.png,0004-00-0001-15.png
00000014,51,0,1442240274830,1442240275318,392,428,0,0,0,2,1,1,21,0002-00-0007-64.png,0001-00-0005-46.png
00000014,52,0,1442240278413,1442240278954,406,392,0,0,0,3,2,1,32,0003-00-0005-49.png,0002-00-0009-45.png
00000014,53,0,1442240283667,1442240284201,888,475,0,0,0,2,3,1,23,0002-00-0002-94.png,0003-00-0000-13.png
00000014,54,1,1442240287145,1442240287645,325,397,0,0,0,1,2,1,12,0001-00-0002-73.png,0002-00-0009-29.png
00000014,55,1,1442240288652,1442240289173,374,387,0,0,0,4,5,1,45,0004-00-0003-96.png,0005-00-0008-30.png
00000014,56,0,1442240290344,1442240290804,332,398,0,0,0,4,3,1,43,0004-00-0004-25.png,0003-00-0003-42.png
00000014,57,1,1442240293782,1442240293814,513,426,0,0,0,3,4,1,34,0003-00-0002-15.png,0004-00-0005-23.png
00000014,58,0,1442240294895,1442240295419,375,394,0,0,0,2,1,1,21,0002-00-0002-26.png,0001-00-0004-68.png
00000014,59,0,1442240298612,1442240299107,443,469,0,0,0,5,4,1,54,0005-00-0008-80.png,0004-00-0000-99.png
00000014,60,1,1442240301927,1442240302448,898,430,0,0,0,4,3,1,43,0004-00-0002-35.png,0003-00-0003-38.png
00000014,61,0,1442240303416,1442240304522,900,488,0,0,0,1,2,1,12,0001-00-0002-41.png,0002-00-0000-28.png
00000014,62,1,1442240307654,1442240308108,323,429,0,0,0,2,3,1,23,0002-00-0007-20.png,0003-00-0001-16.png
00000014,63,1,1442240309236,1442240309720,871,394,0,0,0,3,2,1,32,0003-00-0001-52.png,0002-00-0002-33.png
00000014,64,1,1442240310858,1442240311319,381,401,0,0,0,4,5,1,45,0004-00-0004-87.png,0005-00-0001-91.png
00000014,65,0,1442240312386,1442240312902,382,389,0,0,0,5,4,1,54,0005-00-0001-02.png,0004-00-0003-81.png
00000014,66,1,1442240316194,1442240316679,894,442,0,0,0,2,1,1,21,0002-00-0009-81.png,0001-00-0001-91.png
00000014,67,1,1442240317713,1442240318266,876,503,0,0,0,4,3,1,43,0004-00-0005-13.png,0003-00-0004-48.png
00000014,68,1,1442240319315,1442240319819,420,505,0,0,0,4,5,1,45,0004-00-0007-12.png,0005-00-0000-06.png
00000014,69,0,1442240320936,1442240321461,879,428,0,0,0,3,4,1,34,0003-00-0007-38.png,0004-00-0005-12.png
00000014,70,1,1442240324301,1442240324837,334,397,0,0,0,2,3,1,23,0002-00-0005-09.png,0003-00-0001-81.png
00000014,71,1,1442240326011,1442240326525,876,410,0,0,0,3,2,1,32,0003-00-0004-67.png,0002-00-0004-76.png
00000014,72,1,1442240327673,1442240328179,326,417,0,0,0,1,2,1,12,0001-00-0008-41.png,0002-00-0001-65.png
00000014,73,0,1442240329285,1442240329797,334,445,0,0,0,5,4,1,54,0005-00-0002-32.png,0004-00-0000-26.png
00000014,74,1,1442240332993,1442240333497,383,420,0,0,0,2,3,1,23,0002-00-0007-36.png,0003-00-0004-01.png
00000014,75,1,1442240334592,1442240335106,874,475,0,0,0,3,2,1,32,0003-00-0007-70.png,0002-00-0002-29.png
00000014,76,1,1442240336194,1442240336720,366,390,0,0,0,4,5,1,45,0004-00-0004-47.png,0005-00-0009-95.png
00000014,77,0,1442240337833,1442240338300,401,410,0,0,0,4,3,1,43,0004-00-0004-41.png,0003-00-0005-15.png
00000014,78,1,1442240341481,1442240341962,407,428,0,0,0,1,2,1,12,0001-00-0006-45.png,0002-00-0009-27.png
00000014,79,0,1442240343021,1442240343504,411,419,0,0,0,2,1,1,21,0002-00-0007-38.png,0001-00-0008-56.png
00000014,80,1,1442240346490,1442240346514,483,453,0,0,0,3,4,1,34,0003-00-0006-37.png,0004-00-0007-02.png
00000014,81,0,1442240347613,1442240348108,377,429,0,0,0,4,3,1,43,0004-00-0009-90.png,0003-00-0009-60.png
00000014,82,1,1442240351172,1442240351763,345,408,0,0,0,3,4,1,34,0003-00-0003-96.png,0004-00-0004-03.png
00000014,83,1,1442240352901,1442240353455,891,428,0,0,0,2,1,1,21,0002-00-0005-70.png,0001-00-0001-54.png
00000014,84,1,1442240354691,1442240355268,863,490,0,0,0,5,4,1,54,0005-00-0000-52.png,0004-00-0002-79.png
00000014,85,1,1442240356385,1442240356940,877,468,0,0,0,3,2,1,32,0003-00-0006-49.png,0002-00-0007-15.png
00000014,86,1,1442240358141,1442240358683,295,420,0,0,0,1,2,1,12,0001-00-0003-15.png,0002-00-0007-53.png
00000014,87,1,1442240359975,1442240360462,349,416,0,0,0,2,3,1,23,0002-00-0007-77.png,0003-00-0001-47.png
00000014,88,1,1442240361549,1442240362588,420,445,0,0,0,4,5,1,45,0004-00-0000-88.png,0005-00-0001-03.png
00000014,89,1,1442240363815,1442240364348,380,400,0,0,0,2,3,1,23,0002-00-0000-12.png,0003-00-0008-06.png
00000014,90,1,1442240365521,1442240365996,366,406,0,0,0,3,4,1,34,0003-00-0000-47.png,0004-00-0004-53.png
00000014,91,1,1442240367146,1442240367641,344,399,0,0,0,4,5,1,45,0004-00-0004-71.png,0005-00-0000-47.png
00000014,92,1,1442240368806,1442240369975,908,410,0,0,0,5,4,1,54,0005-00-0002-03.png,0004-00-0003-52.png
00000014,93,0,1442240371181,1442240371702,888,424,0,0,0,1,2,1,12,0001-00-0007-75.png,0002-00-0008-23.png
00000014,94,0,1442240374689,1442240375247,325,395,0,0,0,4,3,1,43,0004-00-0002-90.png,0003-00-0004-82.png
00000014,95,1,1442240378357,1442240378869,872,512,0,0,0,3,2,1,32,0003-00-0008-42.png,0002-00-0008-56.png
00000014,96,0,1442240379964,1442240380446,360,413,0,0,0,2,1,1,21,0002-00-0005-65.png,0001-00-0009-38.png
00000014,97,0,1442240383669,1442240384172,357,420,0,0,0,3,2,1,32,0003-00-0008-21.png,0002-00-0002-07.png
00000014,98,1,1442240387080,1442240387108,478,383,0,0,0,1,2,1,12,0001-00-0004-70.png,0002-00-0007-23.png
00000014,99,1,1442240388225,1442240388750,323,422,0,0,0,2,3,1,23,0002-00-0003-11.png,0003-00-0001-60.png
00000014,100,1,1442240389816,1442240390363,901,423,0,0,0,4,3,1,43,0004-00-0006-25.png,0003-00-0009-54.png
00000014,101,0,1442240391545,1442240392089,876,423,0,0,0,3,4,1,34,0003-00-0004-32.png,0004-00-0004-83.png
00000014,102,1,1442240395141,1442240395641,317,419,0,0,0,4,5,1,45,0004-00-0007-86.png,0005-00-0008-57.png
00000014,103,1,1442240396792,1442240397324,902,399,0,0,0,5,4,1,54,0005-00-0000-03.png,0004-00-0005-76.png
00000014,104,0,1442240398444,1442240398946,406,448,0,0,0,2,1,1,21,0002-00-0004-41.png,0001-00-0008-82.png
00000014,105,0,1442240402180,1442240402644,862,450,0,0,0,3,4,1,34,0003-00-0009-56.png,0004-00-0001-18.png
00000014,106,0,1442240405708,1442240406222,901,435,0,0,0,1,2,1,12,0001-00-0008-48.png,0002-00-0004-54.png
00000014,107,1,1442240409117,1442240409121,475,435,0,0,0,2,3,1,23,0002-00-0005-10.png,0003-00-0002-17.png
00000014,108,0,1442240410232,1442240410776,419,521,0,0,0,5,4,1,54,0005-00-0004-59.png,0004-00-0003-44.png
00000014,109,1,1442240413649,1442240413677,522,455,0,0,0,4,5,1,45,0004-00-0008-92.png,0005-00-0008-08.png
00000014,110,0,1442240414753,1442240415239,373,423,0,0,0,4,3,1,43,0004-00-0002-43.png,0003-00-0007-45.png
00000014,111,0,1442240418528,1442240419122,338,434,0,0,0,3,2,1,32,0003-00-0000-65.png,0002-00-0000-76.png
00000014,112,1,1442240422246,1442240422870,927,384,0,0,0,2,1,1,21,0002-00-0006-39.png,0001-00-0004-81.png
00000014,113,1,1442240423874,1442240424380,314,418,0,0,0,1,2,1,12,0001-00-0003-86.png,0002-00-0006-73.png
00000014,114,1,1442240425976,1442240426456,924,385,0,0,0,4,3,1,43,0004-00-0004-24.png,0003-00-0004-92.png
00000014,115,1,1442240427583,1442240428106,896,420,0,0,0,2,1,1,21,0002-00-0006-05.png,0001-00-0002-29.png
00000014,116,1,1442240429233,1442240429777,421,514,0,0,0,2,3,1,23,0002-00-0008-84.png,0003-00-0002-63.png
00000014,117,1,1442240430872,1442240431398,882,501,0,0,0,3,2,1,32,0003-00-0004-30.png,0002-00-0002-20.png
00000014,118,1,1442240432573,1442240433086,878,544,0,0,0,5,4,1,54,0005-00-0009-66.png,0004-00-0003-32.png
00000014,119,0,1442240434240,1442240434756,927,434,0,0,0,3,4,1,34,0003-00-0006-21.png,0004-00-0006-62.png
00000014,120,0,1442240437810,1442240438341,928,414,0,0,0,4,5,1,45,0004-00-0008-23.png,0005-00-0005-87.png
00000014,121,1,1442240441298,1442240441342,453,449,0,0,0,2,3,1,23,0002-00-0005-48.png,0003-00-0005-66.png
00000014,122,0,1442240442472,1442240442997,899,489,0,0,0,3,4,1,34,0003-00-0003-17.png,0004-00-0004-45.png
00000014,123,1,1442240445831,1442240446296,377,409,0,0,0,1,2,1,12,0001-00-0006-47.png,0002-00-0006-82.png
00000014,124,0,1442240447341,1442240447836,408,397,0,0,0,3,2,1,32,0003-00-0006-08.png,0002-00-0008-60.png
00000014,125,0,1442240450901,1442240451417,337,420,0,0,0,2,1,1,21,0002-00-0002-64.png,0001-00-0008-74.png
00000014,126,0,1442240454806,1442240455320,378,535,0,0,0,4,3,1,43,0004-00-0006-77.png,0003-00-0000-89.png
00000014,127,1,1442240458236,1442240458770,882,540,0,0,0,5,4,1,54,0005-00-0007-98.png,0004-00-0009-95.png
00000014,128,0,1442240459841,1442240460363,896,498,0,0,0,4,5,1,45,0004-00-0004-32.png,0005-00-0001-35.png
00000014,129,0,1442240463366,1442240463402,478,449,0,0,0,4,3,1,43,0004-00-0000-82.png,0003-00-0000-74.png
00000014,130,0,1442240466893,1442240467447,912,540,0,0,0,3,4,1,34,0003-00-0003-36.png,0004-00-0003-33.png
00000014,131,0,1442240470400,1442240470964,873,508,0,0,0,4,5,1,45,0004-00-0004-34.png,0005-00-0009-29.png
00000014,132,0,1442240473972,1442240473996,507,426,0,0,0,3,2,1,32,0003-00-0008-63.png,0002-00-0000-36.png
00000014,133,1,1442240477013,1442240477017,516,410,0,0,0,1,2,1,12,0001-00-0002-34.png,0002-00-0001-78.png
00000014,134,0,1442240478013,1442240478527,317,401,0,0,0,5,4,1,54,0005-00-0000-40.png,0004-00-0002-97.png
00000014,135,1,1442240481616,1442240482081,312,422,0,0,0,2,3,1,23,0002-00-0005-43.png,0003-00-0005-77.png
00000014,136,1,1442240483232,1442240483738,892,485,0,0,0,2,1,1,21,0002-00-0003-46.png,0001-00-0009-09.png
00000014,137,1,1442240484872,1442240485391,344,410,0,0,0,1,2,1,12,0001-00-0005-96.png,0002-00-0002-73.png
00000014,138,0,1442240486502,1442240486961,401,526,0,0,0,4,3,1,43,0004-00-0005-07.png,0003-00-0006-36.png
00000014,139,1,1442240489808,1442240490294,888,410,0,0,0,3,2,1,32,0003-00-0007-52.png,0002-00-0003-46.png
00000014,140,1,1442240491392,1442240491885,355,423,0,0,0,2,3,1,23,0002-00-0001-89.png,0003-00-0005-14.png
00000014,141,0,1442240492972,1442240493486,857,514,0,0,0,3,4,1,34,0003-00-0004-06.png,0004-00-0007-94.png
00000014,142,1,1442240496591,1442240497160,902,415,0,0,0,2,1,1,21,0002-00-0005-15.png,0001-00-0005-23.png
00000014,143,0,1442240498180,1442240498768,879,427,0,0,0,4,5,1,45,0004-00-0006-05.png,0005-00-0003-14.png
00000014,144,0,1442240501602,1442240501622,496,479,0,0,0,5,4,1,54,0005-00-0003-11.png,0004-00-0001-50.png
00000014,145,1,1442240504590,1442240505131,927,424,0,0,0,4,3,1,43,0004-00-0003-04.png,0003-00-0005-75.png
00000014,146,1,1442240506202,1442240506744,914,423,0,0,0,5,4,1,54,0005-00-0006-52.png,0004-00-0007-14.png
00000014,147,0,1442240507871,1442240508380,893,534,0,0,0,3,4,1,34,0003-00-0006-17.png,0004-00-0006-22.png
00000014,148,0,1442240511577,1442240512162,366,494,0,0,0,3,2,1,32,0003-00-0006-60.png,0002-00-0000-00.png
00000014,149,1,1442240515001,1442240515531,350,436,0,0,0,4,5,1,45,0004-00-0005-44.png,0005-00-0001-71.png
00000014,150,1,1442240516789,1442240517259,319,411,0,0,0,1,2,1,12,0001-00-0003-25.png,0002-00-0002-30.png
00000014,151,0,1442240518528,1442240519011,349,429,0,0,0,2,1,1,21,0002-00-0009-11.png,0001-00-0005-91.png
00000014,152,1,1442240522103,1442240523035,287,421,0,0,0,2,3,1,23,0002-00-0000-88.png,0003-00-0000-86.png
00000014,153,1,1442240524190,1442240524666,311,419,0,0,0,1,2,1,12,0001-00-0008-36.png,0002-00-0007-49.png
00000014,154,1,1442240525771,1442240526733,389,397,0,0,0,2,3,1,23,0002-00-0000-89.png,0003-00-0001-81.png
00000014,155,1,1442240527958,1442240528477,927,434,0,0,0,2,1,1,21,0002-00-0000-52.png,0001-00-0001-62.png
00000014,156,1,1442240529607,1442240530090,380,434,0,0,0,3,4,1,34,0003-00-0002-56.png,0004-00-0001-92.png
00000014,157,0,1442240531258,1442240531768,363,394,0,0,0,5,4,1,54,0005-00-0007-32.png,0004-00-0008-49.png
00000014,158,1,1442240535326,1442240535855,389,501,0,0,0,4,5,1,45,0004-00-0005-74.png,0005-00-0004-63.png
00000014,159,1,1442240536902,1442240537423,903,414,0,0,0,4,3,1,43,0004-00-0001-46.png,0003-00-0007-28.png
00000014,160,1,1442240538463,1442240538997,874,509,0,0,0,3,2,1,32,0003-00-0004-83.png,0002-00-0000-07.png
00000014,161,1,1442240540071,1442240540619,901,408,0,0,0,4,3,1,43,0004-00-0005-81.png,0003-00-0007-47.png
00000014,162,1,1442240541754,1442240542283,898,412,0,0,0,3,2,1,32,0003-00-0008-56.png,0002-00-0006-99.png
00000014,163,1,1442240543453,1442240544376,401,410,0,0,0,3,4,1,34,0003-00-0005-98.png,0004-00-0001-78.png
00000014,164,1,1442240545610,1442240546125,367,402,0,0,0,4,5,1,45,0004-00-0008-54.png,0005-00-0004-53.png
00000014,165,1,1442240547226,1442240547748,921,420,0,0,0,5,4,1,54,0005-00-0002-33.png,0004-00-0008-23.png
00000014,166,1,1442240549028,1442240549553,882,515,0,0,0,2,1,1,21,0002-00-0001-40.png,0001-00-0002-76.png
00000014,167,0,1442240550619,1442240551156,900,411,0,0,0,2,3,1,23,0002-00-0008-74.png,0003-00-0002-45.png
00000014,168,0,1442240554237,1442240554716,875,423,0,0,0,1,2,1,12,0001-00-0005-01.png,0002-00-0004-81.png
00000014,169,0,1442240557577,1442240557609,453,445,0,0,0,3,2,1,32,0003-00-0006-57.png,0002-00-0004-47.png
00000014,170,1,1442240561005,1442240561511,902,425,0,0,0,5,4,1,54,0005-00-0002-61.png,0004-00-0002-57.png
00000014,171,1,1442240562734,1442240563201,376,436,0,0,0,2,3,1,23,0002-00-0008-78.png,0003-00-0005-58.png
00000014,172,1,1442240564276,1442240564786,886,398,0,0,0,2,1,1,21,0002-00-0003-28.png,0001-00-0007-34.png
00000014,173,1,1442240565846,1442240566301,349,409,0,0,0,1,2,1,12,0001-00-0000-58.png,0002-00-0002-45.png
00000014,174,1,1442240567616,1442240568158,427,384,0,0,0,3,4,1,34,0003-00-0001-23.png,0004-00-0005-10.png
00000014,175,0,1442240569215,1442240569722,436,519,0,0,0,4,3,1,43,0004-00-0000-69.png,0003-00-0009-90.png
00000014,176,1,1442240572763,1442240573247,325,421,0,0,0,4,5,1,45,0004-00-0001-20.png,0005-00-0009-96.png
00000014,177,1,1442240574324,1442240574868,338,440,0,0,0,1,2,1,12,0001-00-0004-77.png,0002-00-0005-90.png
00000014,178,1,1442240576073,1442240576546,870,498,0,0,0,2,1,1,21,0002-00-0000-42.png,0001-00-0001-11.png
00000014,179,1,1442240577614,1442240578152,866,503,0,0,0,5,4,1,54,0005-00-0008-38.png,0004-00-0005-63.png
00000014,180,0,1442240579204,1442240579695,873,413,0,0,0,2,3,1,23,0002-00-0000-04.png,0003-00-0000-06.png
00000014,181,0,1442240582782,1442240583739,937,424,0,0,0,3,4,1,34,0003-00-0000-82.png,0004-00-0000-82.png
00000014,182,1,1442240586668,1442240587282,908,396,0,0,0,4,3,1,43,0004-00-0005-81.png,0003-00-0009-93.png
00000014,183,1,1442240588349,1442240588864,401,384,0,0,0,4,5,1,45,0004-00-0006-54.png,0005-00-0004-44.png
00000014,184,0,1442240589929,1442240590444,424,539,0,0,0,3,2,1,32,0003-00-0008-43.png,0002-00-0000-39.png
00000014,185,0,1442240593506,1442240594023,376,462,0,0,0,5,4,1,54,0005-00-0004-82.png,0004-00-0009-23.png
00000014,186,0,1442240597392,1442240597862,330,425,0,0,0,2,1,1,21,0002-00-0005-98.png,0001-00-0005-01.png
00000014,187,1,1442240602760,1442240603228,325,410,0,0,0,3,4,1,34,0003-00-0000-47.png,0004-00-0001-44.png
00000014,188,0,1442240604758,1442240605278,902,389,0,0,0,2,3,1,23,0002-00-0008-34.png,0003-00-0003-79.png
00000014,189,0,1442240608452,1442240608884,411,431,0,0,0,3,2,1,32,0003-00-0001-82.png,0002-00-0007-46.png
00000014,190,1,1442240611799,1442240612333,366,427,0,0,0,1,2,1,12,0001-00-0005-69.png,0002-00-0007-67.png
00000014,191,1,1442240613482,1442240613957,358,398,0,0,0,4,5,1,45,0004-00-0005-41.png,0005-00-0004-10.png
00000014,192,0,1442240615311,1442240615867,451,533,0,0,0,4,3,1,43,0004-00-0001-54.png,0003-00-0009-25.png
00000014,193,1,1442240618948,1442240619403,337,404,0,0,0,4,5,1,45,0004-00-0002-67.png,0005-00-0002-64.png
00000014,194,0,1442240620897,1442240621402,418,522,0,0,0,3,2,1,32,0003-00-0005-60.png,0002-00-0001-10.png
00000014,195,0,1442240624493,1442240624938,927,435,0,0,0,2,3,1,23,0002-00-0002-63.png,0003-00-0008-95.png
00000014,196,1,1442240627891,1442240628356,352,400,0,0,0,1,2,1,12,0001-00-0008-90.png,0002-00-0006-68.png
00000014,197,1,1442240629375,1442240629882,927,410,0,0,0,5,4,1,54,0005-00-0002-06.png,0004-00-0008-80.png
00000014,198,1,1442240630956,1442240631442,874,509,0,0,0,4,3,1,43,0004-00-0001-72.png,0003-00-0008-78.png
00000014,199,1,1442240632596,1442240633137,903,438,0,0,0,2,1,1,21,0002-00-0005-03.png,0001-00-0003-33.png
00000014,200,0,1442240634802,1442240635295,868,511,0,0,0,3,4,1,34,0003-00-0007-30.png,0004-00-0003-06.png
00000014,201,1,1442240638569,1442240639053,435,457,0,0,0,2,3,1,23,0002-00-0001-92.png,0003-00-0000-34.png
00000014,202,1,1442240640218,1442240640720,360,443,0,0,0,3,4,1,34,0003-00-0004-65.png,0004-00-0004-58.png
00000014,203,1,1442240641889,1442240642395,903,417,0,0,0,5,4,1,54,0005-00-0007-26.png,0004-00-0001-68.png
00000014,204,1,1442240643519,1442240644020,379,405,0,0,0,1,2,1,12,0001-00-0000-93.png,0002-00-0002-54.png
00000014,205,1,1442240645299,1442240645782,363,445,0,0,0,4,5,1,45,0004-00-0003-45.png,0005-00-0005-08.png
00000014,206,1,1442240646860,1442240647350,887,450,0,0,0,3,2,1,32,0003-00-0000-12.png,0002-00-0001-07.png
00000014,207,0,1442240648508,1442240649026,416,528,0,0,0,4,3,1,43,0004-00-0006-12.png,0003-00-0002-80.png
00000014,208,1,1442240652067,1442240652542,861,533,0,0,0,2,1,1,21,0002-00-0005-69.png,0001-00-0004-31.png
00000014,209,1,1442240653647,1442240654094,350,415,0,0,0,2,3,1,23,0002-00-0002-19.png,0003-00-0009-86.png
00000014,210,1,1442240655228,1442240656200,946,414,0,0,0,4,3,1,43,0004-00-0004-53.png,0003-00-0002-25.png
00000014,211,0,1442240657276,1442240657847,916,397,0,0,0,1,2,1,12,0001-00-0003-36.png,0002-00-0006-67.png
00000014,212,0,1442240660855,1442240660911,492,449,0,0,0,3,2,1,32,0003-00-0004-88.png,0002-00-0007-82.png
00000014,213,1,1442240663955,1442240664927,413,518,0,0,0,3,4,1,34,0003-00-0003-64.png,0004-00-0007-55.png
00000014,214,1,1442240665984,1442240666510,914,423,0,0,0,2,1,1,21,0002-00-0000-50.png,0001-00-0002-40.png
00000014,215,1,1442240667563,1442240668042,901,409,0,0,0,5,4,1,54,0005-00-0008-85.png,0004-00-0009-47.png
00000014,216,0,1442240669144,1442240669686,888,447,0,0,0,4,5,1,45,0004-00-0009-84.png,0005-00-0007-33.png
00000014,217,0,1442240672781,1442240673764,872,382,0,0,0,3,4,1,34,0003-00-0008-21.png,0004-00-0003-79.png
00000014,218,1,1442240676946,1442240677443,300,386,0,0,0,4,5,1,45,0004-00-0004-53.png,0005-00-0001-19.png
00000014,219,1,1442240678538,1442240679101,386,455,0,0,0,2,3,1,23,0002-00-0008-72.png,0003-00-0006-34.png
00000014,220,0,1442240680258,1442240680755,343,403,0,0,0,3,2,1,32,0003-00-0004-80.png,0002-00-0007-25.png
00000014,221,1,1442240684301,1442240684774,339,419,0,0,0,1,2,1,12,0001-00-0001-39.png,0002-00-0005-44.png
00000014,222,1,1442240685772,1442240686302,892,399,0,0,0,4,3,1,43,0004-00-0006-24.png,0003-00-0002-04.png
00000014,223,0,1442240687612,1442240688113,364,394,0,0,0,5,4,1,54,0005-00-0001-58.png,0004-00-0000-05.png
00000014,224,0,1442240691119,1442240691594,388,450,0,0,0,2,1,1,21,0002-00-0003-79.png,0001-00-0008-14.png
00000014,225,1,1442240694649,1442240694653,510,467,0,0,0,1,2,1,12,0001-00-0005-13.png,0002-00-0004-03.png
00000014,226,0,1442240695679,1442240696125,401,423,0,0,0,4,3,1,43,0004-00-0004-88.png,0003-00-0006-27.png
00000014,227,0,1442240698960,1442240699512,312,413,0,0,0,2,1,1,21,0002-00-0005-40.png,0001-00-0009-91.png
00000014,228,0,1442240702488,1442240702496,478,399,0,0,0,5,4,1,54,0005-00-0002-46.png,0004-00-0003-09.png
00000014,229,1,1442240705450,1442240705478,434,471,0,0,0,2,3,1,23,0002-00-0004-69.png,0003-00-0009-76.png
00000014,230,0,1442240706535,1442240707055,875,502,0,0,0,4,5,1,45,0004-00-0002-39.png,0005-00-0004-55.png
00000014,231,0,1442240712845,1442240713340,927,409,0,0,0,3,4,1,34,0003-00-0005-18.png,0004-00-0004-35.png
00000014,232,0,1442240716912,1442240717351,401,384,0,0,0,3,2,1,32,0003-00-0004-82.png,0002-00-0004-34.png
00000014,233,0,1442240720230,1442240720238,519,384,0,0,0,2,1,1,21,0002-00-0003-13.png,0001-00-0005-74.png
00000014,234,0,1442240723123,1442240723131,494,399,0,0,0,5,4,1,54,0005-00-0004-40.png,0004-00-0005-55.png
00000014,235,0,1442240726005,1442240726009,490,460,0,0,0,3,2,1,32,0003-00-0002-85.png,0002-00-0001-81.png
00000014,236,0,1442240729096,1442240730066,925,386,0,0,0,3,4,1,34,0003-00-0002-71.png,0004-00-0002-79.png
00000014,237,1,1442240733590,1442240734082,306,398,0,0,0,1,2,1,12,0001-00-0000-98.png,0002-00-0007-56.png
00000014,238,1,1442240735040,1442240735574,406,508,0,0,0,2,3,1,23,0002-00-0007-98.png,0003-00-0007-44.png
00000014,239,0,1442240736571,1442240737182,901,409,0,0,0,4,5,1,45,0004-00-0006-06.png,0005-00-0000-90.png
00000014,240,0,1442240740087,1442240740536,384,419,0,0,0,4,3,1,43,0004-00-0000-86.png,0003-00-0000-42.png
00000014,241,1,1442240743417,1442240743853,299,397,0,0,0,1,2,1,12,0001-00-0005-86.png,0002-00-0001-04.png
00000014,242,1,1442240744818,1442240745330,880,375,0,0,0,3,2,1,32,0003-00-0001-80.png,0002-00-0004-91.png
00000014,243,1,1442240746368,1442240746865,343,410,0,0,0,4,5,1,45,0004-00-0008-23.png,0005-00-0009-06.png
00000014,244,1,1442240747890,1442240748506,919,416,0,0,0,4,3,1,43,0004-00-0007-27.png,0003-00-0001-85.png
00000014,245,1,1442240749759,1442240750260,901,410,0,0,0,5,4,1,54,0005-00-0000-49.png,0004-00-0000-46.png
00000014,246,0,1442240751310,1442240751832,925,409,0,0,0,2,3,1,23,0002-00-0003-41.png,0003-00-0004-49.png
00000014,247,1,1442240754787,1442240754795,478,413,0,0,0,3,4,1,34,0003-00-0003-76.png,0004-00-0002-46.png
00000014,248,0,1442240755801,1442240756288,401,410,0,0,0,2,1,1,21,0002-00-0000-91.png,0001-00-0005-00.png
00000014,249,1,1442240759122,1442240759687,328,414,0,0,0,1,2,1,12,0001-00-0004-78.png,0002-00-0005-60.png
00000014,250,1,1442240760710,1442240761236,927,383,0,0,0,5,4,1,54,0005-00-0008-74.png,0004-00-0001-07.png
00000014,251,1,1442240762201,1442240762750,401,413,0,0,0,2,3,1,23,0002-00-0001-76.png,0003-00-0006-04.png
00000014,252,1,1442240763770,1442240764232,376,423,0,0,0,4,5,1,45,0004-00-0007-88.png,0005-00-0007-23.png
00000014,253,1,1442240765323,1442240765802,903,417,0,0,0,3,2,1,32,0003-00-0004-27.png,0002-00-0002-43.png
00000014,254,1,1442240766851,1442240767377,887,398,0,0,0,2,1,1,21,0002-00-0006-66.png,0001-00-0009-46.png
00000014,255,0,1442240768393,1442240768887,878,415,0,0,0,3,4,1,34,0003-00-0007-98.png,0004-00-0004-88.png
00000014,256,0,1442240771877,1442240771905,510,470,0,0,0,4,3,1,43,0004-00-0005-33.png,0003-00-0004-93.png
00000014,257,1,1442240774758,1442240774798,459,482,0,0,0,3,4,1,34,0003-00-0005-91.png,0004-00-0003-44.png
00000014,258,1,1442240775835,1442240776381,861,502,0,0,0,5,4,1,54,0005-00-0005-99.png,0004-00-0001-70.png
00000014,259,1,1442240777426,1442240778472,370,399,0,0,0,2,3,1,23,0002-00-0009-16.png,0003-00-0002-68.png
00000014,260,0,1442240779594,1442240780085,356,430,0,0,0,2,1,1,21,0002-00-0001-18.png,0001-00-0003-83.png
00000014,261,1,1442240783029,1442240783591,401,528,0,0,0,4,5,1,45,0004-00-0002-56.png,0005-00-0003-19.png
00000014,262,1,1442240784577,1442240785122,348,445,0,0,0,1,2,1,12,0001-00-0009-53.png,0002-00-0009-21.png
00000014,263,0,1442240786163,1442240786683,421,539,0,0,0,4,3,1,43,0004-00-0001-54.png,0003-00-0008-47.png
00000014,264,0,1442240790911,1442240791383,376,384,0,0,0,3,2,1,32,0003-00-0008-66.png,0002-00-0002-07.png
00000014,265,1,1442240794386,1442240794426,518,481,0,0,0,1,2,1,12,0001-00-0009-76.png,0002-00-0008-10.png
00000014,266,1,1442240795484,1442240795988,905,428,0,0,0,2,1,1,21,0002-00-0006-51.png,0001-00-0009-88.png
00000014,267,1,1442240797085,1442240797591,376,410,0,0,0,4,5,1,45,0004-00-0008-38.png,0005-00-0000-41.png
00000014,268,1,1442240798685,1442240799157,401,397,0,0,0,3,4,1,34,0003-00-0006-35.png,0004-00-0002-49.png
00000014,269,1,1442240800276,1442240800814,876,495,0,0,0,4,3,1,43,0004-00-0004-55.png,0003-00-0002-34.png
00000014,270,1,1442240801955,1442240802398,346,406,0,0,0,2,3,1,23,0002-00-0001-71.png,0003-00-0002-80.png
00000014,271,1,1442240803538,1442240804041,899,405,0,0,0,5,4,1,54,0005-00-0001-72.png,0004-00-0006-71.png
00000014,272,1,1442240805126,1442240805666,874,411,0,0,0,3,2,1,32,0003-00-0002-24.png,0002-00-0001-22.png
00000014,273,0,1442240806766,1442240807253,365,396,0,0,0,4,3,1,43,0004-00-0008-32.png,0003-00-0003-94.png
00000014,274,1,1442240810230,1442240810767,895,394,0,0,0,5,4,1,54,0005-00-0003-32.png,0004-00-0004-36.png
00000014,275,1,1442240811755,1442240812303,325,423,0,0,0,2,3,1,23,0002-00-0007-07.png,0003-00-0001-73.png
00000014,276,1,1442240813368,1442240813851,382,397,0,0,0,4,5,1,45,0004-00-0009-43.png,0005-00-0001-47.png
00000014,277,0,1442240814965,1442240815522,376,371,0,0,0,2,1,1,21,0002-00-0006-53.png,0001-00-0003-99.png
00000014,278,1,1442240818655,1442240819154,381,530,0,0,0,3,4,1,34,0003-00-0005-60.png,0004-00-0005-82.png
00000014,279,0,1442240820273,1442240820744,340,415,0,0,0,3,2,1,32,0003-00-0003-96.png,0002-00-0008-32.png
00000014,280,0,1442240823862,1442240824405,862,398,0,0,0,1,2,1,12,0001-00-0004-37.png,0002-00-0007-93.png
00000014,281,0,1442240827370,1442240827390,438,471,0,0,0,5,4,1,54,0005-00-0001-11.png,0004-00-0008-49.png
00000014,282,1,1442240830249,1442240830724,334,400,0,0,0,2,3,1,23,0002-00-0008-74.png,0003-00-0008-23.png
00000014,283,1,1442240831783,1442240832395,907,363,0,0,0,2,1,1,21,0002-00-0001-97.png,0001-00-0004-91.png
00000014,284,1,1442240833460,1442240834010,935,486,0,0,0,4,3,1,43,0004-00-0006-73.png,0003-00-0008-18.png
00000014,285,1,1442240835112,1442240835638,896,394,0,0,0,3,2,1,32,0003-00-0005-88.png,0002-00-0009-18.png
00000014,286,0,1442240836683,1442240837230,874,475,0,0,0,1,2,1,12,0001-00-0002-10.png,0002-00-0001-24.png
00000014,287,1,1442240840177,1442240840746,418,495,0,0,0,4,5,1,45,0004-00-0000-66.png,0005-00-0004-32.png
00000014,288,0,1442240841842,1442240842376,891,429,0,0,0,3,4,1,34,0003-00-0008-96.png,0004-00-0003-13.png
00000014,289,1,1442240845687,1442240846212,350,358,0,0,0,1,2,1,12,0001-00-0005-18.png,0002-00-0007-81.png
00000014,290,1,1442240847228,1442240847761,881,423,0,0,0,2,1,1,21,0002-00-0000-60.png,0001-00-0005-14.png
00000014,291,1,1442240848807,1442240849348,452,385,0,0,0,3,4,1,34,0003-00-0005-35.png,0004-00-0002-32.png
00000014,292,1,1442240850377,1442240850910,876,502,0,0,0,3,2,1,32,0003-00-0007-05.png,0002-00-0002-63.png
00000014,293,1,1442240851959,1442240852462,358,432,0,0,0,4,5,1,45,0004-00-0005-61.png,0005-00-0007-61.png
00000014,294,1,1442240853488,1442240853979,887,372,0,0,0,4,3,1,43,0004-00-0007-37.png,0003-00-0008-28.png
00000014,295,1,1442240855070,1442240855589,876,409,0,0,0,5,4,1,54,0005-00-0005-58.png,0004-00-0001-56.png
00000014,296,1,1442240856680,1442240857202,401,436,0,0,0,2,3,1,23,0002-00-0006-54.png,0003-00-0002-76.png
00000014,297,1,1442240858346,1442240858858,364,399,0,0,0,4,5,1,45,0004-00-0000-03.png,0005-00-0002-94.png
00000014,298,1,1442240860029,1442240860543,877,417,0,0,0,5,4,1,54,0005-00-0003-76.png,0004-00-0003-28.png
00000014,299,1,1442240861679,1442240862170,342,409,0,0,0,1,2,1,12,0001-00-0002-52.png,0002-00-0000-74.png
00000014,300,1,1442240863450,1442240863944,361,393,0,0,0,2,3,1,23,0002-00-0008-19.png,0003-00-0000-32.png
00000014,301,0,1442240865875,1442240866350,347,403,0,0,0,4,3,1,43,0004-00-0004-92.png,0003-00-0006-16.png
00000014,302,1,1442240869530,1442240869989,899,411,0,0,0,3,2,1,32,0003-00-0009-04.png,0002-00-0009-10.png
00000014,303,1,1442240871093,1442240871591,409,520,0,0,0,3,4,1,34,0003-00-0000-77.png,0004-00-0005-46.png
00000014,304,0,1442240872709,1442240873216,392,535,0,0,0,2,1,1,21,0002-00-0003-70.png,0001-00-0002-87.png
00000014,305,1,1442240876278,1442240876833,880,376,0,0,0,3,2,1,32,0003-00-0003-68.png,0002-00-0007-03.png
00000014,306,0,1442240877920,1442240878415,370,408,0,0,0,2,1,1,21,0002-00-0004-48.png,0001-00-0002-11.png
00000014,307,1,1442240881338,1442240881350,478,422,0,0,0,4,5,1,45,0004-00-0009-75.png,0005-00-0004-37.png
00000014,308,1,1442240882401,1442240882927,858,486,0,0,0,5,4,1,54,0005-00-0000-08.png,0004-00-0009-46.png
00000014,309,1,1442240884019,1442240884526,368,418,0,0,0,1,2,1,12,0001-00-0002-36.png,0002-00-0009-06.png
00000014,310,0,1442240885561,1442240886153,875,444,0,0,0,2,3,1,23,0002-00-0003-61.png,0003-00-0004-03.png
00000014,311,0,1442240889243,1442240889740,376,397,0,0,0,4,3,1,43,0004-00-0002-80.png,0003-00-0000-54.png
00000014,312,1,1442240892828,1442240893359,416,513,0,0,0,3,4,1,34,0003-00-0008-90.png,0004-00-0009-91.png
00000014,313,1,1442240894288,1442240894821,375,430,0,0,0,2,3,1,23,0002-00-0005-25.png,0003-00-0002-81.png
00000014,314,1,1442240895928,1442240896877,407,511,0,0,0,1,2,1,12,0001-00-0009-72.png,0002-00-0003-61.png
00000014,315,1,1442240897985,1442240898488,388,394,0,0,0,4,5,1,45,0004-00-0004-03.png,0005-00-0003-45.png
00000014,316,0,1442240899615,1442240900103,364,415,0,0,0,2,1,1,21,0002-00-0006-35.png,0001-00-0007-75.png
00000014,317,0,1442240902961,1442240903526,362,370,0,0,0,4,3,1,43,0004-00-0006-24.png,0003-00-0001-42.png
00000014,318,0,1442240908341,1442240908899,872,457,0,0,0,3,4,1,34,0003-00-0000-48.png,0004-00-0003-84.png
00000014,319,0,1442240912058,1442240912522,317,453,0,0,0,3,2,1,32,0003-00-0008-30.png,0002-00-0003-02.png
00000014,320,0,1442240915426,1442240915922,349,412,0,0,0,5,4,1,54,0005-00-0000-56.png,0004-00-0000-90.png
00000014,321,1,1442240920244,1442240920767,904,427,0,0,0,2,1,1,21,0002-00-0002-29.png,0001-00-0000-38.png
00000014,322,1,1442240921778,1442240922330,381,379,0,0,0,4,5,1,45,0004-00-0006-22.png,0005-00-0009-96.png
00000014,323,0,1442240923360,1442240923906,875,397,0,0,0,2,3,1,23,0002-00-0002-75.png,0003-00-0004-90.png
00000014,324,1,1442240927960,1442240928449,355,378,0,0,0,3,4,1,34,0003-00-0005-30.png,0004-00-0009-59.png
00000014,325,1,1442240929493,1442240929989,914,398,0,0,0,4,3,1,43,0004-00-0000-38.png,0003-00-0001-22.png
00000014,326,1,1442240931091,1442240931606,864,488,0,0,0,5,4,1,54,0005-00-0005-91.png,0004-00-0000-54.png
00000014,327,1,1442240932632,1442240933137,411,502,0,0,0,1,2,1,12,0001-00-0007-47.png,0002-00-0009-94.png
00000014,328,1,1442240934133,1442240934686,859,500,0,0,0,3,2,1,32,0003-00-0004-25.png,0002-00-0005-51.png
00000014,329,1,1442240935698,1442240936217,368,427,0,0,0,4,5,1,45,0004-00-0005-41.png,0005-00-0004-74.png
00000014,330,1,1442240937213,1442240937750,340,424,0,0,0,1,2,1,12,0001-00-0007-60.png,0002-00-0005-59.png
00000014,331,0,1442240938805,1442240939278,401,514,0,0,0,5,4,1,54,0005-00-0004-50.png,0004-00-0004-65.png
00000014,332,0,1442240942402,1442240942873,880,401,0,0,0,3,4,1,34,0003-00-0007-77.png,0004-00-0004-92.png
00000014,333,1,1442240945889,1442240945917,498,452,0,0,0,2,3,1,23,0002-00-0000-26.png,0003-00-0004-64.png
00000014,334,0,1442240946866,1442240947428,419,520,0,0,0,3,2,1,32,0003-00-0009-04.png,0002-00-0007-17.png
00000014,335,0,1442240951240,1442240951677,376,436,0,0,0,4,3,1,43,0004-00-0009-22.png,0003-00-0008-96.png
00000014,336,0,1442240954636,1442240955172,332,381,0,0,0,2,1,1,21,0002-00-0001-20.png,0001-00-0008-32.png
00000014,337,0,1442240958025,1442240958447,346,407,0,0,0,5,4,1,54,0005-00-0003-36.png,0004-00-0009-81.png
00000014,338,1,1442240961622,1442240962064,383,410,0,0,0,2,3,1,23,0002-00-0005-62.png,0003-00-0004-63.png
00000014,339,1,1442240963015,1442240963553,366,441,0,0,0,4,5,1,45,0004-00-0003-47.png,0005-00-0008-14.png
00000014,340,1,1442240964545,1442240965075,870,524,0,0,0,2,1,1,21,0002-00-0009-75.png,0001-00-0007-89.png
00000014,341,0,1442240966081,1442240967101,439,426,0,0,0,4,3,1,43,0004-00-0003-41.png,0003-00-0007-27.png
00000014,342,0,1442240972108,1442240972589,930,480,0,0,0,3,4,1,34,0003-00-0001-71.png,0004-00-0000-40.png
00000014,343,0,1442240978698,1442240979142,882,431,0,0,0,1,2,1,12,0001-00-0000-92.png,0002-00-0007-20.png
00000014,344,0,1442240982286,1442240982737,310,392,0,0,0,3,2,1,32,0003-00-0003-83.png,0002-00-0001-94.png
00000014,345,0,1442240985661,1442240986095,344,425,0,0,0,2,1,1,21,0002-00-0009-38.png,0001-00-0006-86.png
00000014,346,1,1442240989061,1442240989069,453,440,0,0,0,3,4,1,34,0003-00-0004-50.png,0004-00-0009-13.png
00000014,347,1,1442240989986,1442240990471,324,416,0,0,0,1,2,1,12,0001-00-0005-46.png,0002-00-0007-06.png
00000014,348,1,1442240991475,1442240992025,426,412,0,0,0,4,5,1,45,0004-00-0009-21.png,0005-00-0005-40.png
00000014,349,0,1442240993036,1442240993567,885,405,0,0,0,2,3,1,23,0002-00-0003-08.png,0003-00-0006-88.png
00000014,350,0,1442240996713,1442240997141,401,450,0,0,0,3,2,1,32,0003-00-0009-17.png,0002-00-0004-93.png
00000014,351,0,1442241000213,1442241000748,381,454,0,0,0,5,4,1,54,0005-00-0008-60.png,0004-00-0005-24.png
00000014,352,0,1442241003842,1442241004285,374,430,0,0,0,4,3,1,43,0004-00-0008-36.png,0003-00-0003-74.png
00000014,353,0,1442241007806,1442241008348,382,401,0,0,0,4,3,1,43,0004-00-0002-22.png,0003-00-0000-20.png
00000014,354,0,1442241011284,1442241011296,495,429,0,0,0,2,1,1,21,0002-00-0009-64.png,0001-00-0005-76.png
00000014,355,1,1442241014544,1442241015034,366,432,0,0,0,1,2,1,12,0001-00-0001-01.png,0002-00-0009-69.png
00000014,356,1,1442241016030,1442241016524,888,358,0,0,0,5,4,1,54,0005-00-0003-77.png,0004-00-0001-52.png
00000014,357,1,1442241017577,1442241018121,875,409,0,0,0,3,2,1,32,0003-00-0008-59.png,0002-00-0007-19.png
00000014,358,0,1442241019127,1442241019653,876,412,0,0,0,4,5,1,45,0004-00-0002-94.png,0005-00-0002-03.png
00000014,359,0,1442241023461,1442241023953,871,498,0,0,0,3,4,1,34,0003-00-0003-49.png,0004-00-0007-77.png
00000014,360,1,1442241027008,1442241027034,522,478,0,0,0,2,3,1,23,0002-00-0005-15.png,0003-00-0002-20.png
00000014,361,1,1442241028053,1442241028534,364,420,0,0,0,4,5,1,45,0004-00-0003-08.png,0005-00-0007-93.png
00000014,362,0,1442241029543,1442241030089,899,456,0,0,0,3,4,1,34,0003-00-0008-11.png,0004-00-0008-42.png
00000014,363,0,1442241032959,1442241032967,462,395,0,0,0,2,1,1,21,0002-00-0003-63.png,0001-00-0003-97.png
00000014,364,0,1442241036191,1442241036689,905,413,0,0,0,2,3,1,23,0002-00-0007-73.png,0003-00-0001-88.png
00000014,365,0,1442241039631,1442241039635,522,441,0,0,0,4,3,1,43,0004-00-0000-52.png,0003-00-0006-75.png
00000014,366,0,1442241042712,1442241042716,504,410,0,0,0,3,2,1,32,0003-00-0006-76.png,0002-00-0003-66.png
00000014,367,1,1442241047189,1442241047629,876,409,0,0,0,5,4,1,54,0005-00-0006-90.png,0004-00-0000-58.png
00000014,368,1,1442241048663,1442241049180,350,410,0,0,0,1,2,1,12,0001-00-0001-28.png,0002-00-0007-66.png
00000014,369,1,1442241050164,1442241050687,401,398,0,0,0,3,4,1,34,0003-00-0003-75.png,0004-00-0008-90.png
00000014,370,0,1442241051704,1442241052265,460,518,0,0,0,4,3,1,43,0004-00-0000-28.png,0003-00-0007-73.png
00000014,371,0,1442241055483,1442241055971,354,424,0,0,0,5,4,1,54,0005-00-0006-17.png,0004-00-0008-16.png
00000014,372,0,1442241059807,1442241060750,386,371,0,0,0,3,2,1,32,0003-00-0007-65.png,0002-00-0001-54.png
00000014,373,1,1442241063940,1442241064433,422,416,0,0,0,1,2,1,12,0001-00-0004-80.png,0002-00-0006-28.png
00000014,374,0,1442241065360,1442241065858,862,527,0,0,0,2,3,1,23,0002-00-0007-36.png,0003-00-0008-76.png
00000014,375,0,1442241068805,1442241069323,351,395,0,0,0,2,1,1,21,0002-00-0008-48.png,0001-00-0009-01.png
00000014,376,1,1442241072446,1442241072918,333,444,0,0,0,4,5,1,45,0004-00-0006-08.png,0005-00-0004-93.png
00000014,377,1,1442241073906,1442241074382,319,400,0,0,0,1,2,1,12,0001-00-0002-26.png,0002-00-0009-66.png
00000014,378,0,1442241075428,1442241075914,880,393,0,0,0,3,4,1,34,0003-00-0003-69.png,0004-00-0008-86.png
00000014,379,1,1442241078795,1442241078820,469,453,0,0,0,4,5,1,45,0004-00-0001-76.png,0005-00-0002-41.png
00000014,380,0,1442241079851,1442241080319,388,422,0,0,0,3,2,1,32,0003-00-0000-37.png,0002-00-0004-80.png
00000014,381,0,1442241083796,1442241084242,414,417,0,0,0,5,4,1,54,0005-00-0006-74.png,0004-00-0000-02.png
00000014,382,1,1442241087627,1442241088068,340,413,0,0,0,2,3,1,23,0002-00-0002-79.png,0003-00-0005-82.png
00000014,383,1,1442241089173,1442241089698,907,390,0,0,0,4,3,1,43,0004-00-0004-27.png,0003-00-0009-48.png
00000014,384,1,1442241090744,1442241091723,887,486,0,0,0,2,1,1,21,0002-00-0007-61.png,0001-00-0008-47.png
00000014,385,0,1442241092692,1442241093215,901,435,0,0,0,4,5,1,45,0004-00-0004-04.png,0005-00-0005-06.png
00000014,386,1,1442241096240,1442241096763,898,508,0,0,0,4,3,1,43,0004-00-0008-94.png,0003-00-0008-00.png
00000014,387,1,1442241097737,1442241098266,858,513,0,0,0,5,4,1,54,0005-00-0000-50.png,0004-00-0001-39.png
00000014,388,1,1442241099312,1442241099784,883,438,0,0,0,2,1,1,21,0002-00-0008-74.png,0001-00-0009-04.png
00000014,389,0,1442241100744,1442241101246,877,520,0,0,0,2,3,1,23,0002-00-0001-84.png,0003-00-0005-65.png
00000014,390,1,1442241104162,1442241104186,493,423,0,0,0,1,2,1,12,0001-00-0009-85.png,0002-00-0004-35.png
00000014,391,1,1442241105266,1442241105731,875,409,0,0,0,3,2,1,32,0003-00-0009-21.png,0002-00-0003-87.png
00000014,392,0,1442241106772,1442241107266,869,423,0,0,0,3,4,1,34,0003-00-0007-30.png,0004-00-0002-39.png
00000014,393,0,1442241110671,1442241111154,877,416,0,0,0,4,5,1,45,0004-00-0006-90.png,0005-00-0005-87.png
00000014,394,1,1442241114489,1442241114994,909,429,0,0,0,4,3,1,43,0004-00-0005-59.png,0003-00-0009-09.png
00000014,395,0,1442241116009,1442241116540,888,371,0,0,0,1,2,1,12,0001-00-0000-27.png,0002-00-0004-25.png
00000014,396,1,1442241119663,1442241120147,361,420,0,0,0,3,4,1,34,0003-00-0004-52.png,0004-00-0001-94.png
00000014,397,1,1442241121136,1442241121622,361,425,0,0,0,2,3,1,23,0002-00-0005-75.png,0003-00-0004-10.png
00000014,398,1,1442241122605,1442241123142,904,402,0,0,0,5,4,1,54,0005-00-0007-86.png,0004-00-0006-25.png
00000014,399,1,1442241124088,1442241124602,887,464,0,0,0,2,1,1,21,0002-00-0007-75.png,0001-00-0002-32.png
00000014,400,1,1442241125596,1442241126151,876,414,0,0,0,3,2,1,32,0003-00-0001-18.png,0002-00-0008-02.png
00000014,401,0,1442241127179,1442241127670,334,400,0,0,0,3,2,1,32,0003-00-0004-39.png,0002-00-0002-40.png
00000014,402,1,1442241130548,1442241131087,401,397,0,0,0,2,3,1,23,0002-00-0007-62.png,0003-00-0007-07.png
00000014,403,1,1442241132039,1442241132558,411,407,0,0,0,4,5,1,45,0004-00-0002-11.png,0005-00-0004-24.png
00000014,404,1,1442241133539,1442241134083,899,412,0,0,0,4,3,1,43,0004-00-0005-01.png,0003-00-0004-36.png
00000014,405,0,1442241135060,1442241135590,875,411,0,0,0,3,4,1,34,0003-00-0009-89.png,0004-00-0003-64.png
00000014,406,1,1442241138706,1442241139602,951,410,0,0,0,2,1,1,21,0002-00-0005-90.png,0001-00-0004-51.png
00000014,407,1,1442241140560,1442241141069,874,411,0,0,0,5,4,1,54,0005-00-0008-59.png,0004-00-0000-56.png
00000014,408,1,1442241142075,1442241142587,387,508,0,0,0,1,2,1,12,0001-00-0000-71.png,0002-00-0004-74.png
00000014,409,1,1442241143565,1442241144104,349,423,0,0,0,4,5,1,45,0004-00-0001-25.png,0005-00-0002-36.png
00000014,410,1,1442241145085,1442241145638,862,422,0,0,0,5,4,1,54,0005-00-0005-22.png,0004-00-0004-54.png
00000014,411,1,1442241146661,1442241147185,362,436,0,0,0,2,3,1,23,0002-00-0005-56.png,0003-00-0001-97.png
00000014,412,1,1442241148198,1442241148721,324,462,0,0,0,1,2,1,12,0001-00-0004-76.png,0002-00-0000-84.png
00000014,413,0,1442241149788,1442241150705,427,410,0,0,0,3,2,1,32,0003-00-0009-02.png,0002-00-0007-66.png
00000014,414,1,1442241153741,1442241154224,345,472,0,0,0,3,4,1,34,0003-00-0006-79.png,0004-00-0008-52.png
00000014,415,1,1442241155171,1442241155712,893,384,0,0,0,2,1,1,21,0002-00-0009-82.png,0001-00-0005-52.png
00000014,416,1,1442241157241,1442241157695,875,397,0,0,0,4,3,1,43,0004-00-0009-11.png,0003-00-0008-66.png
00000014,417,0,1442241158681,1442241159214,910,400,0,0,0,3,4,1,34,0003-00-0007-42.png,0004-00-0006-23.png
00000014,418,0,1442241162453,1442241162904,376,384,0,0,0,5,4,1,54,0005-00-0008-51.png,0004-00-0003-97.png
00000014,419,0,1442241165847,1442241166341,334,398,0,0,0,2,1,1,21,0002-00-0002-57.png,0001-00-0005-60.png
00000014,420,1,1442241169584,1442241170548,380,454,0,0,0,1,2,1,12,0001-00-0006-05.png,0002-00-0008-81.png
00000014,421,1,1442241171514,1442241171983,390,426,0,0,0,2,3,1,23,0002-00-0000-62.png,0003-00-0004-70.png
00000014,422,1,1442241172952,1442241173482,858,526,0,0,0,3,2,1,32,0003-00-0003-23.png,0002-00-0004-76.png
00000014,423,1,1442241174454,1442241174990,401,502,0,0,0,4,5,1,45,0004-00-0001-90.png,0005-00-0008-54.png
00000014,424,1,1442241176022,1442241176504,878,442,0,0,0,4,3,1,43,0004-00-0007-40.png,0003-00-0009-83.png
00000014,425,1,1442241177514,1442241178034,878,413,0,0,0,3,2,1,32,0003-00-0009-92.png,0002-00-0003-84.png
00000014,426,1,1442241178952,1442241179999,375,412,0,0,0,4,5,1,45,0004-00-0002-98.png,0005-00-0001-02.png
00000014,427,1,1442241181002,1442241181473,860,503,0,0,0,5,4,1,54,0005-00-0003-50.png,0004-00-0000-46.png
00000014,428,1,1442241182425,1442241182977,312,442,0,0,0,1,2,1,12,0001-00-0003-24.png,0002-00-0003-67.png
00000014,429,0,1442241184002,1442241184971,350,409,0,0,0,4,3,1,43,0004-00-0004-26.png,0003-00-0006-64.png
00000014,430,1,1442241187919,1442241188409,904,401,0,0,0,2,1,1,21,0002-00-0005-32.png,0001-00-0004-80.png
00000014,431,0,1442241189767,1442241194340,957,525,0,0,0,2,3,1,23,0002-00-0009-41.png,0003-00-0008-60.png
00000014,432,0,1442241197667,1442241198162,875,488,0,0,0,3,4,1,34,0003-00-0002-47.png,0004-00-0003-52.png
00000014,433,0,1442241202845,1442241203304,336,429,0,0,0,3,2,1,32,0003-00-0007-87.png,0002-00-0007-82.png
00000014,434,1,1442241206374,1442241206927,922,394,0,0,0,2,1,1,21,0002-00-0000-24.png,0001-00-0009-93.png
00000014,435,1,1442241208063,1442241208598,893,512,0,0,0,5,4,1,54,0005-00-0009-53.png,0004-00-0004-60.png
00000014,436,1,1442241209555,1442241210010,376,436,0,0,0,4,5,1,45,0004-00-0006-62.png,0005-00-0006-11.png
00000014,437,1,1442241211026,1442241211603,882,416,0,0,0,4,3,1,43,0004-00-0009-14.png,0003-00-0007-92.png
00000014,438,1,1442241212495,1442241213037,385,440,0,0,0,2,3,1,23,0002-00-0007-78.png,0003-00-0001-73.png
00000014,439,1,1442241214008,1442241215027,354,402,0,0,0,1,2,1,12,0001-00-0003-69.png,0002-00-0009-18.png
00000014,440,0,1442241216086,1442241216571,862,410,0,0,0,3,4,1,34,0003-00-0004-65.png,0004-00-0000-22.png
00000014,441,1,1442241219721,1442241220204,350,423,0,0,0,4,5,1,45,0004-00-0005-91.png,0005-00-0007-29.png
00000014,442,1,1442241221244,1442241221780,901,425,0,0,0,5,4,1,54,0005-00-0008-61.png,0004-00-0004-48.png
00000014,443,1,1442241222774,1442241223298,340,395,0,0,0,1,2,1,12,0001-00-0001-86.png,0002-00-0001-11.png
00000014,444,1,1442241224274,1442241224785,904,429,0,0,0,3,2,1,32,0003-00-0007-32.png,0002-00-0005-62.png
00000014,445,0,1442241225810,1442241226821,359,437,0,0,0,2,1,1,21,0002-00-0007-54.png,0001-00-0005-71.png
00000014,446,0,1442241230357,1442241230868,889,425,0,0,0,3,4,1,34,0003-00-0002-37.png,0004-00-0003-72.png
00000014,447,1,1442241233764,1442241234164,413,411,0,0,0,2,3,1,23,0002-00-0000-49.png,0003-00-0007-80.png
00000014,448,0,1442241235175,1442241236155,417,502,0,0,0,4,3,1,43,0004-00-0005-38.png,0003-00-0000-86.png
00000014,449,1,1442241239260,1442241239782,345,422,0,0,0,2,3,1,23,0002-00-0006-74.png,0003-00-0003-57.png
00000014,450,0,1442241241219,1442241242249,385,409,0,0,0,4,3,1,43,0004-00-0002-89.png,0003-00-0008-08.png
00000014,451,0,1442241245344,1442241245927,922,390,0,0,0,1,2,1,12,0001-00-0004-12.png,0002-00-0001-66.png
00000014,452,1,1442241249208,1442241249662,874,410,0,0,0,3,2,1,32,0003-00-0009-62.png,0002-00-0001-76.png
00000014,453,0,1442241250822,1442241251291,899,504,0,0,0,3,4,1,34,0003-00-0008-52.png,0004-00-0004-48.png
00000014,454,1,1442241254157,1442241254212,519,423,0,0,0,4,5,1,45,0004-00-0008-66.png,0005-00-0006-81.png
00000014,455,1,1442241255263,1442241255765,882,488,0,0,0,5,4,1,54,0005-00-0004-01.png,0004-00-0008-88.png
00000014,456,1,1442241256813,1442241257315,875,501,0,0,0,2,1,1,21,0002-00-0005-34.png,0001-00-0002-22.png
00000014,457,0,1442241258304,1442241258841,880,479,0,0,0,3,4,1,34,0003-00-0007-95.png,0004-00-0005-50.png
00000014,458,0,1442241261813,1442241261829,523,442,0,0,0,2,1,1,21,0002-00-0009-10.png,0001-00-0009-84.png
00000014,459,1,1442241264771,1442241264779,519,418,0,0,0,1,2,1,12,0001-00-0002-61.png,0002-00-0007-55.png
00000014,460,1,1442241265808,1442241266314,879,428,0,0,0,3,2,1,32,0003-00-0001-89.png,0002-00-0007-41.png
00000014,461,0,1442241267355,1442241267839,900,411,0,0,0,4,5,1,45,0004-00-0000-38.png,0005-00-0005-78.png
00000014,462,0,1442241270705,1442241270713,495,403,0,0,0,4,3,1,43,0004-00-0005-46.png,0003-00-0009-72.png
00000014,463,0,1442241273720,1442241274231,341,391,0,0,0,5,4,1,54,0005-00-0003-57.png,0004-00-0005-23.png
00000014,464,1,1442241277178,1442241277182,516,386,0,0,0,2,3,1,23,0002-00-0000-03.png,0003-00-0006-53.png
00000014,465,0,1442241278160,1442241278677,904,413,0,0,0,3,4,1,34,0003-00-0000-50.png,0004-00-0001-70.png
00000014,466,1,1442241282087,1442241282529,322,399,0,0,0,4,5,1,45,0004-00-0002-96.png,0005-00-0007-89.png
00000014,467,0,1442241283618,1442241284593,380,402,0,0,0,3,2,1,32,0003-00-0004-23.png,0002-00-0000-95.png
00000014,468,0,1442241287659,1442241288143,901,396,0,0,0,2,3,1,23,0002-00-0009-95.png,0003-00-0000-73.png
00000014,469,1,1442241291140,1442241291671,351,423,0,0,0,1,2,1,12,0001-00-0009-95.png,0002-00-0001-96.png
00000014,470,1,1442241292715,1442241293203,896,472,0,0,0,4,3,1,43,0004-00-0005-92.png,0003-00-0003-31.png
00000014,471,0,1442241294171,1442241294696,362,424,0,0,0,5,4,1,54,0005-00-0001-99.png,0004-00-0002-16.png
00000014,472,0,1442241297687,1442241297707,504,400,0,0,0,2,1,1,21,0002-00-0001-94.png,0001-00-0005-65.png
00000014,473,1,1442241301298,1442241301830,878,421,0,0,0,3,2,1,32,0003-00-0007-94.png,0002-00-0002-10.png
00000014,474,1,1442241302857,1442241303362,376,423,0,0,0,2,3,1,23,0002-00-0004-75.png,0003-00-0007-60.png
00000014,475,0,1442241304368,1442241304898,893,456,0,0,0,3,4,1,34,0003-00-0000-38.png,0004-00-0005-88.png
00000014,476,0,1442241307857,1442241308578,307,447,0,0,0,5,4,1,54,0005-00-0006-30.png,0004-00-0000-12.png
00000014,477,1,1442241311725,1442241312186,876,521,0,0,0,2,1,1,21,0002-00-0005-35.png,0001-00-0003-88.png
00000014,478,1,1442241313243,1442241313714,902,410,0,0,0,4,3,1,43,0004-00-0006-18.png,0003-00-0006-53.png
00000014,479,0,1442241314744,1442241315282,886,424,0,0,0,4,5,1,45,0004-00-0008-17.png,0005-00-0005-98.png
00000014,480,1,1442241318182,1442241318226,482,452,0,0,0,1,2,1,12,0001-00-0008-49.png,0002-00-0003-90.png
00000014,481,0,1442241319316,1442241319791,921,409,0,0,0,3,4,1,34,0003-00-0004-90.png,0004-00-0008-65.png
00000014,482,1,1442241322894,1442241323384,371,484,0,0,0,4,5,1,45,0004-00-0002-72.png,0005-00-0001-22.png
00000014,483,0,1442241324363,1442241324912,926,397,0,0,0,2,3,1,23,0002-00-0003-69.png,0003-00-0009-35.png
00000014,484,1,1442241328070,1442241328553,870,498,0,0,0,4,3,1,43,0004-00-0002-85.png,0003-00-0009-39.png
00000014,485,1,1442241329633,1442241330170,316,419,0,0,0,1,2,1,12,0001-00-0009-20.png,0002-00-0002-70.png
00000014,486,1,1442241331164,1442241331684,866,490,0,0,0,3,2,1,32,0003-00-0003-67.png,0002-00-0000-01.png
00000014,487,1,1442241332764,1442241333277,869,498,0,0,0,5,4,1,54,0005-00-0005-66.png,0004-00-0003-54.png
00000014,488,0,1442241334352,1442241334816,427,436,0,0,0,2,1,1,21,0002-00-0005-44.png,0001-00-0003-88.png
00000014,489,0,1442241337680,1442241338219,414,502,0,0,0,4,3,1,43,0004-00-0000-25.png,0003-00-0006-21.png
00000014,490,1,1442241341113,1442241341137,523,435,0,0,0,3,4,1,34,0003-00-0004-42.png,0004-00-0004-52.png
00000014,491,1,1442241342146,1442241342617,861,507,0,0,0,5,4,1,54,0005-00-0005-79.png,0004-00-0003-50.png
00000014,492,0,1442241343646,1442241344135,879,402,0,0,0,2,3,1,23,0002-00-0000-22.png,0003-00-0004-69.png
00000014,493,1,1442241347539,1442241348065,343,406,0,0,0,4,5,1,45,0004-00-0000-75.png,0005-00-0000-10.png
00000014,494,1,1442241349061,1442241349587,897,415,0,0,0,3,2,1,32,0003-00-0005-58.png,0002-00-0004-05.png
00000014,495,1,1442241350572,1442241351076,374,423,0,0,0,1,2,1,12,0001-00-0000-46.png,0002-00-0003-89.png
00000014,496,1,1442241352073,1442241352636,871,474,0,0,0,2,1,1,21,0002-00-0004-57.png,0001-00-0000-16.png
00000014,497,0,1442241353643,1442241354148,344,447,0,0,0,2,1,1,21,0002-00-0002-64.png,0001-00-0001-97.png
00000014,498,0,1442241357281,1442241357305,519,455,0,0,0,3,2,1,32,0003-00-0007-77.png,0002-00-0009-79.png
00000014,499,0,1442241360481,1442241361416,406,511,0,0,0,5,4,1,54,0005-00-0000-26.png,0004-00-0000-63.png
00000014,500,1,1442241364248,1442241364272,492,405,0,0,0,4,5,1,45,0004-00-0007-57.png,0005-00-0006-60.png
00000014,501,0,1442241365340,1442241365805,858,353,0,0,0,2,3,1,23,0002-00-0002-06.png,0003-00-0000-93.png
00000014,502,0,1442241368819,1442241369364,383,422,0,0,0,4,3,1,43,0004-00-0006-39.png,0003-00-0000-54.png
00000014,503,1,1442241380191,1442241380718,222,441,0,0,0,3,4,1,34,0003-00-0003-49.png,0004-00-0009-36.png
00000014,504,0,1442241381762,1442241382409,901,477,0,0,0,1,2,1,12,0001-00-0003-98.png,0002-00-0007-12.png
00000014,505,1,1442241385559,1442241386103,878,413,0,0,0,3,2,1,32,0003-00-0005-84.png,0002-00-0007-19.png
00000014,506,0,1442241387148,1442241388084,364,398,0,0,0,5,4,1,54,0005-00-0004-21.png,0004-00-0006-03.png
00000014,507,1,1442241390975,1442241390995,523,400,0,0,0,4,5,1,45,0004-00-0009-24.png,0005-00-0008-60.png
00000014,508,1,1442241392129,1442241392667,880,419,0,0,0,4,3,1,43,0004-00-0004-09.png,0003-00-0002-63.png
00000014,509,1,1442241393809,1442241394378,401,418,0,0,0,3,4,1,34,0003-00-0001-78.png,0004-00-0008-58.png
00000014,510,1,1442241395366,1442241395928,872,507,0,0,0,2,1,1,21,0002-00-0007-83.png,0001-00-0001-61.png
00000014,511,1,1442241396981,1442241397617,376,396,0,0,0,1,2,1,12,0001-00-0009-62.png,0002-00-0002-06.png
00000014,512,0,1442241399137,1442241399618,876,435,0,0,0,2,3,1,23,0002-00-0004-05.png,0003-00-0005-24.png
00000014,513,1,1442241402562,1442241403085,348,377,0,0,0,1,2,1,12,0001-00-0008-83.png,0002-00-0001-75.png
00000014,514,1,1442241404076,1442241404570,904,428,0,0,0,2,1,1,21,0002-00-0003-90.png,0001-00-0000-56.png
00000014,515,0,1442241405596,1442241406195,875,410,0,0,0,4,5,1,45,0004-00-0000-60.png,0005-00-0003-98.png
00000014,516,0,1442241409194,1442241409783,899,491,0,0,0,2,3,1,23,0002-00-0008-35.png,0003-00-0000-46.png
00000014,517,0,1442241412626,1442241412650,451,413,0,0,0,4,3,1,43,0004-00-0000-38.png,0003-00-0009-87.png
00000014,518,0,1442241415801,1442241416299,376,372,0,0,0,3,2,1,32,0003-00-0009-42.png,0002-00-0006-24.png
00000014,519,0,1442241419410,1442241419872,346,427,0,0,0,5,4,1,54,0005-00-0004-63.png,0004-00-0006-04.png
00000014,520,0,1442241422898,1442241423390,914,414,0,0,0,3,4,1,34,0003-00-0001-61.png,0004-00-0008-16.png
00000014,521,0,1442241426525,1442241426989,905,428,0,0,0,2,3,1,23,0002-00-0004-80.png,0003-00-0004-30.png
00000014,522,1,1442241430013,1442241430508,905,402,0,0,0,5,4,1,54,0005-00-0008-56.png,0004-00-0004-33.png
00000014,523,1,1442241431525,1442241432072,881,378,0,0,0,2,1,1,21,0002-00-0006-00.png,0001-00-0005-79.png
00000014,524,0,1442241433125,1442241433707,439,502,0,0,0,3,2,1,32,0003-00-0003-59.png,0002-00-0003-71.png
00000014,525,0,1442241436793,1442241437260,362,415,0,0,0,4,3,1,43,0004-00-0005-36.png,0003-00-0002-77.png
00000014,526,1,1442241440148,1442241440672,406,515,0,0,0,4,5,1,45,0004-00-0008-99.png,0005-00-0001-22.png
00000014,527,0,1442241441714,1442241442232,874,490,0,0,0,3,4,1,34,0003-00-0002-67.png,0004-00-0002-64.png
00000014,528,1,1442241445088,1442241445604,376,358,0,0,0,1,2,1,12,0001-00-0008-83.png,0002-00-0006-09.png
00000014,529,1,1442241446613,1442241447139,375,434,0,0,0,2,3,1,23,0002-00-0006-59.png,0003-00-0003-71.png
00000014,530,0,1442241448161,1442241448636,874,516,0,0,0,3,4,1,34,0003-00-0007-67.png,0004-00-0004-03.png
00000014,531,1,1442241452594,1442241453066,306,414,0,0,0,1,2,1,12,0001-00-0008-41.png,0002-00-0008-56.png
00000014,532,1,1442241454105,1442241454575,900,424,0,0,0,5,4,1,54,0005-00-0001-92.png,0004-00-0000-13.png
00000014,533,1,1442241455597,1442241456137,869,429,0,0,0,2,1,1,21,0002-00-0005-29.png,0001-00-0008-95.png
00000014,534,1,1442241457179,1442241457668,879,427,0,0,0,4,3,1,43,0004-00-0000-45.png,0003-00-0004-15.png
00000014,535,1,1442241458738,1442241459242,370,403,0,0,0,4,5,1,45,0004-00-0008-71.png,0005-00-0009-20.png
00000014,536,0,1442241460278,1442241460863,367,406,0,0,0,3,2,1,32,0003-00-0002-59.png,0002-00-0008-53.png
00000014,537,1,1442241463944,1442241464482,366,415,0,0,0,4,5,1,45,0004-00-0006-05.png,0005-00-0009-39.png
00000014,538,0,1442241465935,1442241466420,341,415,0,0,0,5,4,1,54,0005-00-0000-03.png,0004-00-0003-93.png
00000014,539,0,1442241469401,1442241469911,369,444,0,0,0,4,3,1,43,0004-00-0005-29.png,0003-00-0004-58.png
00000014,540,1,1442241472786,1442241473256,401,397,0,0,0,3,4,1,34,0003-00-0001-32.png,0004-00-0002-10.png
00000014,541,1,1442241474274,1442241474290,505,443,0,0,0,1,2,1,12,0001-00-0004-37.png,0002-00-0005-23.png
00000014,542,1,1442241475416,1442241475897,901,410,0,0,0,2,1,1,21,0002-00-0007-25.png,0001-00-0001-39.png
00000014,543,0,1442241476888,1442241477444,436,519,0,0,0,3,2,1,32,0003-00-0003-18.png,0002-00-0004-79.png
00000014,544,1,1442241480536,1442241481019,376,358,0,0,0,2,3,1,23,0002-00-0006-16.png,0003-00-0005-12.png
00000014,545,1,1442241482066,1442241482552,401,384,0,0,0,1,2,1,12,0001-00-0000-14.png,0002-00-0001-08.png
00000014,546,1,1442241484011,1442241484541,875,414,0,0,0,4,3,1,43,0004-00-0001-86.png,0003-00-0005-69.png
00000014,547,0,1442241485563,1442241485579,491,488,0,0,0,2,1,1,21,0002-00-0001-74.png,0001-00-0000-93.png
00000014,548,0,1442241489052,1442241489544,926,383,0,0,0,3,4,1,34,0003-00-0006-18.png,0004-00-0002-98.png
00000014,549,1,1442241492656,1442241493157,895,367,0,0,0,5,4,1,54,0005-00-0000-13.png,0004-00-0006-15.png
00000014,550,0,1442241494101,1442241494601,875,514,0,0,0,2,3,1,23,0002-00-0006-21.png,0003-00-0000-77.png
00000014,551,1,1442241498020,1442241498451,343,399,0,0,0,4,5,1,45,0004-00-0006-85.png,0005-00-0004-78.png
00000014,552,0,1442241499440,1442241499963,422,514,0,0,0,3,2,1,32,0003-00-0001-65.png,0002-00-0008-49.png
00000014,553,1,1442241503096,1442241503516,875,513,0,0,0,3,2,1,32,0003-00-0004-47.png,0002-00-0001-49.png
00000014,554,1,1442241504473,1442241505005,400,358,0,0,0,4,5,1,45,0004-00-0007-15.png,0005-00-0003-91.png
00000014,555,1,1442241506017,1442241506493,380,367,0,0,0,2,3,1,23,0002-00-0002-17.png,0003-00-0000-84.png
00000014,556,1,1442241507502,1442241508024,873,412,0,0,0,4,3,1,43,0004-00-0002-17.png,0003-00-0008-70.png
00000014,557,1,1442241509008,1442241509536,904,427,0,0,0,2,1,1,21,0002-00-0009-63.png,0001-00-0001-67.png
00000014,558,1,1442241510558,1442241511085,875,424,0,0,0,5,4,1,54,0005-00-0006-15.png,0004-00-0002-71.png
00000014,559,0,1442241512170,1442241512672,903,403,0,0,0,3,4,1,34,0003-00-0000-75.png,0004-00-0006-04.png
00000014,560,1,1442241515606,1442241516094,375,489,0,0,0,1,2,1,12,0001-00-0008-64.png,0002-00-0002-30.png
00000014,561,1,1442241517061,1442241517575,388,436,0,0,0,4,5,1,45,0004-00-0003-00.png,0005-00-0005-59.png
00000014,562,1,1442241518548,1442241519088,886,424,0,0,0,3,2,1,32,0003-00-0003-46.png,0002-00-0004-80.png
00000014,563,0,1442241520081,1442241520572,363,431,0,0,0,5,4,1,54,0005-00-0007-32.png,0004-00-0000-96.png
00000014,564,1,1442241524043,1442241524606,353,384,0,0,0,1,2,1,12,0001-00-0004-06.png,0002-00-0003-63.png
00000014,565,0,1442241525775,1442241526286,871,414,0,0,0,3,4,1,34,0003-00-0007-46.png,0004-00-0005-42.png
00000014,566,0,1442241529239,1442241529770,900,476,0,0,0,2,3,1,23,0002-00-0008-51.png,0003-00-0003-51.png
00000014,567,0,1442241532652,1442241533195,255,453,0,0,0,4,3,1,43,0004-00-0002-65.png,0003-00-0006-56.png
00000014,568,1,1442241536128,1442241536678,895,497,0,0,0,2,1,1,21,0002-00-0005-67.png,0001-00-0009-74.png
00000014,569,0,1442241537641,1442241538097,320,415,0,0,0,4,3,1,43,0004-00-0000-52.png,0003-00-0005-70.png
00000014,570,1,1442241541039,1442241541544,403,529,0,0,0,4,5,1,45,0004-00-0006-39.png,0005-00-0003-09.png
00000014,571,0,1442241542624,1442241543154,862,476,0,0,0,1,2,1,12,0001-00-0009-64.png,0002-00-0004-40.png
00000014,572,0,1442241546179,1442241546734,276,419,0,0,0,2,1,1,21,0002-00-0000-71.png,0001-00-0008-72.png
00000014,573,0,1442241549856,1442241550268,401,410,0,0,0,3,2,1,32,0003-00-0008-38.png,0002-00-0006-00.png
00000014,574,0,1442241553234,1442241553809,931,428,0,0,0,2,3,1,23,0002-00-0000-14.png,0003-00-0007-01.png
00000014,575,1,1442241556784,1442241557327,876,495,0,0,0,5,4,1,54,0005-00-0007-73.png,0004-00-0009-89.png
00000014,576,1,1442241558285,1442241558309,504,436,0,0,0,3,4,1,34,0003-00-0003-40.png,0004-00-0008-24.png
00000014,577,1,1442241559487,1442241560012,435,511,0,0,0,3,4,1,34,0003-00-0003-40.png,0004-00-0006-04.png
00000014,578,0,1442241561008,1442241561552,314,411,0,0,0,2,1,1,21,0002-00-0001-62.png,0001-00-0004-41.png
00000014,579,0,1442241564414,1442241564915,427,384,0,0,0,3,2,1,32,0003-00-0005-81.png,0002-00-0006-41.png
00000014,580,1,1442241567892,1442241568396,400,489,0,0,0,4,5,1,45,0004-00-0003-77.png,0005-00-0001-00.png
00000014,581,1,1442241569377,1442241570365,401,358,0,0,0,2,3,1,23,0002-00-0007-19.png,0003-00-0008-67.png
00000014,582,1,1442241571373,1442241571377,479,443,0,0,0,1,2,1,12,0001-00-0008-29.png,0002-00-0001-26.png
00000014,583,1,1442241572528,1442241573570,885,481,0,0,0,5,4,1,54,0005-00-0009-05.png,0004-00-0008-57.png
00000014,584,1,1442241574568,1442241575115,912,432,0,0,0,4,3,1,43,0004-00-0004-45.png,0003-00-0003-80.png
00000014,585,1,1442241576105,1442241576597,888,410,0,0,0,2,1,1,21,0002-00-0005-02.png,0001-00-0004-92.png
00000014,586,1,1442241577613,1442241578108,879,401,0,0,0,3,2,1,32,0003-00-0005-59.png,0002-00-0007-87.png
00000014,587,0,1442241579115,1442241579600,874,411,0,0,0,4,5,1,45,0004-00-0007-02.png,0005-00-0004-54.png
00000014,588,1,1442241584491,1442241585004,907,444,0,0,0,5,4,1,54,0005-00-0007-08.png,0004-00-0006-78.png
00000014,589,1,1442241586122,1442241586623,888,431,0,0,0,4,3,1,43,0004-00-0004-24.png,0003-00-0000-56.png
00000014,590,0,1442241587610,1442241588162,880,454,0,0,0,2,3,1,23,0002-00-0005-64.png,0003-00-0000-89.png
00000014,591,1,1442241591071,1442241591135,512,443,0,0,0,1,2,1,12,0001-00-0003-49.png,0002-00-0009-56.png
00000014,592,0,1442241592074,1442241592605,861,477,0,0,0,3,4,1,34,0003-00-0003-83.png,0004-00-0000-73.png
00000014,593,1,1442241595501,1442241595985,359,418,0,0,0,1,2,1,12,0001-00-0001-98.png,0002-00-0007-78.png
00000014,594,1,1442241596994,1442241597567,900,416,0,0,0,5,4,1,54,0005-00-0000-71.png,0004-00-0003-24.png
00000014,595,0,1442241598493,1442241599021,340,411,0,0,0,2,1,1,21,0002-00-0001-61.png,0001-00-0008-16.png
00000014,596,1,1442241602102,1442241602615,367,400,0,0,0,3,4,1,34,0003-00-0008-69.png,0004-00-0007-38.png
00000014,597,0,1442241603651,1442241604186,375,395,0,0,0,4,3,1,43,0004-00-0001-93.png,0003-00-0001-91.png
00000014,598,0,1442241607126,1442241607645,394,414,0,0,0,3,2,1,32,0003-00-0001-89.png,0002-00-0004-55.png
00000014,599,0,1442241610698,1442241611215,877,511,0,0,0,2,3,1,23,0002-00-0006-98.png,0003-00-0001-16.png
00000014,600,1,1442241614676,1442241615158,335,387,0,0,0,4,5,1,45,0004-00-0004-06.png,0005-00-0000-95.png
00000014,601,1,1442241616145,1442241616668,325,423,0,0,0,1,2,1,12,0001-00-0003-49.png,0002-00-0009-03.png
00000014,602,1,1442241617694,1442241618278,865,402,0,0,0,4,3,1,43,0004-00-0004-02.png,0003-00-0005-17.png
00000014,603,1,1442241619303,1442241619842,925,438,0,0,0,2,1,1,21,0002-00-0003-99.png,0001-00-0007-59.png
00000014,604,0,1442241620836,1442241621789,861,397,0,0,0,3,4,1,34,0003-00-0003-77.png,0004-00-0009-71.png
00000014,605,0,1442241624792,1442241625283,401,384,0,0,0,3,2,1,32,0003-00-0005-60.png,0002-00-0000-60.png
00000014,606,0,1442241628180,1442241628712,427,436,0,0,0,5,4,1,54,0005-00-0005-92.png,0004-00-0005-65.png
00000014,607,1,1442241631748,1442241631756,501,474,0,0,0,2,3,1,23,0002-00-0008-88.png,0003-00-0002-33.png
00000014,608,1,1442241632713,1442241633214,343,420,0,0,0,4,5,1,45,0004-00-0009-27.png,0005-00-0004-33.png
00000014,609,0,1442241634203,1442241634722,394,416,0,0,0,4,3,1,43,0004-00-0008-96.png,0003-00-0009-37.png
00000014,610,1,1442241638009,1442241638508,252,512,0,0,0,3,4,1,34,0003-00-0009-34.png,0004-00-0007-10.png
00000014,611,1,1442241639678,1442241640181,324,423,0,0,0,1,2,1,12,0001-00-0003-23.png,0002-00-0006-80.png
00000014,612,0,1442241641259,1442241641816,416,523,0,0,0,5,4,1,54,0005-00-0006-73.png,0004-00-0008-14.png
00000014,613,0,1442241644700,1442241645210,313,410,0,0,0,3,2,1,32,0003-00-0009-31.png,0002-00-0004-59.png
00000014,614,0,1442241648294,1442241648805,361,416,0,0,0,2,1,1,21,0002-00-0001-20.png,0001-00-0005-47.png
00000014,615,1,1442241651688,1442241651692,478,423,0,0,0,2,3,1,23,0002-00-0005-45.png,0003-00-0001-75.png
00000014,616,1,1442241652729,1442241653224,366,412,0,0,0,4,5,1,45,0004-00-0007-43.png,0005-00-0004-78.png
00000014,617,1,1442241654222,1442241654766,862,492,0,0,0,4,3,1,43,0004-00-0004-26.png,0003-00-0004-02.png
00000014,618,1,1442241655792,1442241656326,372,424,0,0,0,4,5,1,45,0004-00-0001-31.png,0005-00-0004-84.png
00000014,619,1,1442241657251,1442241657825,865,509,0,0,0,2,1,1,21,0002-00-0002-11.png,0001-00-0005-05.png
00000014,620,1,1442241658871,1442241659416,421,540,0,0,0,2,3,1,23,0002-00-0001-50.png,0003-00-0002-85.png
00000014,621,1,1442241660440,1442241660959,875,423,0,0,0,3,2,1,32,0003-00-0006-02.png,0002-00-0003-98.png
00000014,622,0,1442241661992,1442241662509,878,441,0,0,0,3,4,1,34,0003-00-0009-75.png,0004-00-0004-55.png
00000014,623,0,1442241665339,1442241665832,349,429,0,0,0,5,4,1,54,0005-00-0002-78.png,0004-00-0005-06.png
00000014,624,1,1442241668722,1442241668730,511,454,0,0,0,1,2,1,12,0001-00-0003-55.png,0002-00-0003-31.png
00000014,625,0,1442241669766,1442241670271,365,444,0,0,0,4,3,1,43,0004-00-0002-50.png,0003-00-0003-57.png
00000014,626,1,1442241673364,1442241673833,376,384,0,0,0,1,2,1,12,0001-00-0002-53.png,0002-00-0008-39.png
00000014,627,1,1442241674794,1442241675360,358,367,0,0,0,2,3,1,23,0002-00-0007-52.png,0003-00-0005-70.png
00000014,628,0,1442241676335,1442241676861,878,428,0,0,0,3,4,1,34,0003-00-0004-82.png,0004-00-0008-78.png
00000014,629,0,1442241679981,1442241680475,336,358,0,0,0,5,4,1,54,0005-00-0007-16.png,0004-00-0007-69.png
00000014,630,0,1442241683350,1442241683362,485,445,0,0,0,2,1,1,21,0002-00-0004-74.png,0001-00-0008-01.png
00000014,631,1,1442241686302,1442241686322,512,416,0,0,0,4,5,1,45,0004-00-0003-26.png,0005-00-0005-86.png
00000014,632,1,1442241687356,1442241687859,873,509,0,0,0,3,2,1,32,0003-00-0006-61.png,0002-00-0001-84.png
00000014,633,0,1442241688812,1442241689361,877,410,0,0,0,3,4,1,34,0003-00-0005-58.png,0004-00-0003-22.png
00000014,634,0,1442241692357,1442241692885,415,528,0,0,0,2,1,1,21,0002-00-0003-26.png,0001-00-0004-21.png
00000014,635,0,1442241695772,1442241696286,367,375,0,0,0,4,3,1,43,0004-00-0008-79.png,0003-00-0002-80.png
00000014,636,1,1442241699150,1442241699164,513,435,0,0,0,4,5,1,45,0004-00-0004-62.png,0005-00-0003-43.png
00000014,637,0,1442241700108,1442241701122,345,400,0,0,0,5,4,1,54,0005-00-0001-74.png,0004-00-0002-18.png
00000014,638,1,1442241704192,1442241704707,393,496,0,0,0,2,3,1,23,0002-00-0007-67.png,0003-00-0006-47.png
00000014,639,0,1442241705733,1442241706650,401,410,0,0,0,3,2,1,32,0003-00-0008-22.png,0002-00-0002-07.png
00000014,640,0,1442241710283,1442241710778,899,413,0,0,0,1,2,1,12,0001-00-0003-34.png,0002-00-0006-62.png
00000014,641,1,1442241713770,1442241714308,905,401,0,0,0,4,3,1,43,0004-00-0005-89.png,0003-00-0006-38.png
00000014,642,0,1442241715302,1442241715831,901,411,0,0,0,4,5,1,45,0004-00-0006-50.png,0005-00-0001-81.png
00000014,643,0,1442241718797,1442241719275,427,436,0,0,0,5,4,1,54,0005-00-0005-84.png,0004-00-0003-41.png
00000014,644,1,1442241722269,1442241722736,401,410,0,0,0,1,2,1,12,0001-00-0001-73.png,0002-00-0002-67.png
00000014,645,0,1442241723700,1442241724762,357,404,0,0,0,3,2,1,32,0003-00-0003-55.png,0002-00-0008-14.png
00000014,646,1,1442241727724,1442241727740,482,459,0,0,0,3,4,1,34,0003-00-0001-49.png,0004-00-0007-28.png
00000014,647,1,1442241728711,1442241729247,861,425,0,0,0,2,1,1,21,0002-00-0005-83.png,0001-00-0003-01.png
00000014,648,0,1442241730281,1442241731232,929,428,0,0,0,2,3,1,23,0002-00-0004-19.png,0003-00-0006-49.png
00000014,649,0,1442241734354,1442241734811,376,410,0,0,0,2,1,1,21,0002-00-0008-04.png,0001-00-0001-07.png
00000014,650,0,1442241737992,1442241738453,350,424,0,0,0,3,2,1,32,0003-00-0004-54.png,0002-00-0006-93.png
00000014,651,1,1442241741305,1442241741726,289,418,0,0,0,4,5,1,45,0004-00-0003-72.png,0005-00-0004-69.png
00000014,652,0,1442241742663,1442241743230,893,431,0,0,0,1,2,1,12,0001-00-0000-22.png,0002-00-0003-25.png
00000014,653,1,1442241746381,1442241747351,318,399,0,0,0,2,3,1,23,0002-00-0008-79.png,0003-00-0007-40.png
00000014,654,0,1442241748448,1442241748978,376,383,0,0,0,4,3,1,43,0004-00-0002-60.png,0003-00-0007-83.png
00000014,655,1,1442241752053,1442241752520,411,501,0,0,0,3,4,1,34,0003-00-0009-24.png,0004-00-0009-27.png
00000014,656,0,1442241753506,1442241753522,504,436,0,0,0,5,4,1,54,0005-00-0008-13.png,0004-00-0008-89.png
00000014,657,0,1442241756536,1442241756548,523,428,0,0,0,2,1,1,21,0002-00-0008-75.png,0001-00-0005-57.png
00000014,658,1,1442241759460,1442241759464,507,437,0,0,0,2,3,1,23,0002-00-0006-20.png,0003-00-0001-93.png
00000014,659,1,1442241760461,1442241760947,332,428,0,0,0,1,2,1,12,0001-00-0000-37.png,0002-00-0004-35.png
00000014,660,1,1442241761934,1442241761962,480,473,0,0,0,3,4,1,34,0003-00-0006-30.png,0004-00-0001-93.png
00000014,661,0,1442241763096,1442241763619,355,431,0,0,0,4,3,1,43,0004-00-0000-53.png,0003-00-0005-33.png
00000014,662,0,1442241766575,1442241767455,401,384,0,0,0,3,2,1,32,0003-00-0000-56.png,0002-00-0006-87.png
00000014,663,0,1442241770330,1442241770818,389,409,0,0,0,5,4,1,54,0005-00-0005-62.png,0004-00-0004-77.png
00000014,664,1,1442241773912,1442241774406,350,436,0,0,0,4,5,1,45,0004-00-0003-90.png,0005-00-0009-85.png
00000014,665,1,1442241775441,1442241776021,345,447,0,0,0,4,5,1,45,0004-00-0009-34.png,0005-00-0007-24.png
00000014,666,1,1442241777117,1442241777636,338,419,0,0,0,1,2,1,12,0001-00-0003-32.png,0002-00-0007-24.png
00000014,667,0,1442241778728,1442241779276,901,411,0,0,0,2,3,1,23,0002-00-0001-82.png,0003-00-0007-93.png
00000014,668,0,1442241782407,1442241782943,376,409,0,0,0,5,4,1,54,0005-00-0000-06.png,0004-00-0003-00.png
00000014,669,1,1442241786051,1442241786546,875,409,0,0,0,3,2,1,32,0003-00-0003-63.png,0002-00-0009-09.png
00000014,670,0,1442241787587,1442241788136,391,527,0,0,0,4,3,1,43,0004-00-0001-21.png,0003-00-0008-03.png
00000014,671,0,1442241791280,1442241791807,337,449,0,0,0,2,1,1,21,0002-00-0008-38.png,0001-00-0003-02.png
00000014,672,1,1442241795030,1442241795524,363,438,0,0,0,3,4,1,34,0003-00-0006-16.png,0004-00-0007-19.png
00000014,673,1,1442241796539,1442241797068,865,510,0,0,0,4,3,1,43,0004-00-0006-31.png,0003-00-0004-86.png
00000014,674,1,1442241798120,1442241798646,401,537,0,0,0,1,2,1,12,0001-00-0001-09.png,0002-00-0008-48.png
00000014,675,1,1442241799621,1442241800182,363,431,0,0,0,4,5,1,45,0004-00-0001-30.png,0005-00-0005-32.png
00000014,676,1,1442241801200,1442241801687,418,522,0,0,0,2,3,1,23,0002-00-0003-79.png,0003-00-0001-05.png
00000014,677,1,1442241802772,1442241803315,858,512,0,0,0,3,2,1,32,0003-00-0008-90.png,0002-00-0000-44.png
00000014,678,1,1442241804423,1442241804948,875,423,0,0,0,5,4,1,54,0005-00-0005-47.png,0004-00-0006-54.png
00000014,679,0,1442241805922,1442241806475,345,420,0,0,0,2,1,1,21,0002-00-0002-37.png,0001-00-0005-12.png
00000014,680,1,1442241809440,1442241809496,495,436,0,0,0,3,4,1,34,0003-00-0007-06.png,0004-00-0004-75.png
00000014,681,1,1442241810475,1442241811073,874,462,0,0,0,3,2,1,32,0003-00-0009-13.png,0002-00-0007-60.png
00000014,682,1,1442241812043,1442241812573,390,410,0,0,0,4,5,1,45,0004-00-0008-38.png,0005-00-0003-28.png
00000014,683,1,1442241813625,1442241814635,390,427,0,0,0,3,4,1,34,0003-00-0009-53.png,0004-00-0007-30.png
00000014,684,0,1442241815612,1442241815660,481,496,0,0,0,2,1,1,21,0002-00-0004-24.png,0001-00-0005-71.png
00000014,685,0,1442241818748,1442241819328,377,329,0,0,0,4,3,1,43,0004-00-0004-21.png,0003-00-0008-86.png
00000014,686,1,1442241823265,1442241823786,350,396,0,0,0,1,2,1,12,0001-00-0002-35.png,0002-00-0000-66.png
00000014,687,1,1442241824719,1442241825199,361,433,0,0,0,2,3,1,23,0002-00-0000-03.png,0003-00-0005-47.png
00000014,688,0,1442241826265,1442241827309,427,384,0,0,0,5,4,1,54,0005-00-0001-87.png,0004-00-0009-63.png
00000014,689,0,1442241830223,1442241830239,457,472,0,0,0,4,3,1,43,0004-00-0001-93.png,0003-00-0003-91.png
00000014,690,0,1442241833093,1442241833608,401,542,0,0,0,5,4,1,54,0005-00-0006-63.png,0004-00-0007-45.png
00000014,691,1,1442241836650,1442241837088,378,414,0,0,0,4,5,1,45,0004-00-0009-36.png,0005-00-0004-21.png
00000014,692,0,1442241838052,1442241838585,879,401,0,0,0,1,2,1,12,0001-00-0004-79.png,0002-00-0003-44.png
00000014,693,1,1442241841580,1442241842097,376,462,0,0,0,2,3,1,23,0002-00-0008-78.png,0003-00-0001-41.png
00000014,694,0,1442241843190,1442241844150,439,527,0,0,0,2,1,1,21,0002-00-0009-56.png,0001-00-0004-73.png
00000014,695,0,1442241847296,1442241847789,900,410,0,0,0,3,4,1,34,0003-00-0002-02.png,0004-00-0000-22.png
00000014,696,1,1442241851511,1442241851965,879,413,0,0,0,3,2,1,32,0003-00-0000-34.png,0002-00-0003-50.png
00000014,697,0,1442241853010,1442241853538,389,377,0,0,0,4,3,1,43,0004-00-0002-14.png,0003-00-0004-31.png
00000014,698,1,1442241856507,1442241856511,499,441,0,0,0,1,2,1,12,0001-00-0000-59.png,0002-00-0006-26.png
00000014,699,0,1442241857511,1442241858028,897,394,0,0,0,3,4,1,34,0003-00-0002-96.png,0004-00-0008-88.png
00000014,700,0,1442241860987,1442241861011,453,409,0,0,0,3,2,1,32,0003-00-0001-97.png,0002-00-0000-57.png
00000014,701,0,1442241863942,1442241864442,325,384,0,0,0,2,1,1,21,0002-00-0005-71.png,0001-00-0005-81.png
00000014,702,1,1442241867495,1442241867955,365,416,0,0,0,4,5,1,45,0004-00-0004-23.png,0005-00-0006-52.png
00000014,703,0,1442241868942,1442241869550,874,516,0,0,0,2,3,1,23,0002-00-0003-81.png,0003-00-0005-16.png
00000014,704,1,1442241873213,1442241873628,858,406,0,0,0,5,4,1,54,0005-00-0008-84.png,0004-00-0002-56.png
00000014,705,0,1442241874645,1442241875185,354,397,0,0,0,3,2,1,32,0003-00-0005-30.png,0002-00-0002-41.png
00000014,706,0,1442241878054,1442241878528,427,384,0,0,0,4,3,1,43,0004-00-0007-13.png,0003-00-0008-02.png
00000014,707,1,1442241881460,1442241881995,359,395,0,0,0,3,4,1,34,0003-00-0006-32.png,0004-00-0006-60.png
00000014,708,1,1442241882991,1442241883493,366,425,0,0,0,1,2,1,12,0001-00-0007-48.png,0002-00-0008-27.png
00000014,709,1,1442241884499,1442241885023,862,424,0,0,0,2,1,1,21,0002-00-0005-21.png,0001-00-0000-49.png
00000014,710,1,1442241886033,1442241886553,390,427,0,0,0,4,5,1,45,0004-00-0009-48.png,0005-00-0002-97.png
00000014,711,1,1442241887564,1442241888554,427,384,0,0,0,2,3,1,23,0002-00-0005-60.png,0003-00-0003-41.png
00000014,712,0,1442241889601,1442241890107,401,410,0,0,0,5,4,1,54,0005-00-0008-20.png,0004-00-0007-52.png
00000014,713,1,1442241892936,1442241892960,504,422,0,0,0,2,3,1,23,0002-00-0008-03.png,0003-00-0004-82.png
00000014,714,1,1442241893983,1442241894533,880,443,0,0,0,5,4,1,54,0005-00-0009-91.png,0004-00-0005-61.png
00000014,715,0,1442241895530,1442241896521,386,401,0,0,0,3,2,1,32,0003-00-0004-05.png,0002-00-0008-70.png
00000014,716,0,1442241899987,1442241900924,938,424,0,0,0,3,4,1,34,0003-00-0002-87.png,0004-00-0008-19.png
00000014,717,0,1442241903918,1442241904519,912,489,0,0,0,1,2,1,12,0001-00-0001-19.png,0002-00-0006-94.png
00000014,718,1,1442241907648,1442241908123,319,413,0,0,0,4,5,1,45,0004-00-0000-05.png,0005-00-0006-37.png
00000014,719,0,1442241909040,1442241909554,370,446,0,0,0,2,1,1,21,0002-00-0000-60.png,0001-00-0000-03.png
00000014,720,0,1442241912608,1442241913115,431,535,0,0,0,4,3,1,43,0004-00-0002-06.png,0003-00-0000-24.png
00000014,721,0,1442241916093,1442241916572,358,429,0,0,0,4,3,1,43,0004-00-0005-77.png,0003-00-0000-28.png
00000014,722,1,1442241919465,1442241920047,903,517,0,0,0,3,2,1,32,0003-00-0005-71.png,0002-00-0009-61.png
00000014,723,1,1442241920985,1442241921521,340,421,0,0,0,1,2,1,12,0001-00-0002-22.png,0002-00-0005-35.png
00000014,724,0,1442241922513,1442241923456,339,416,0,0,0,5,4,1,54,0005-00-0006-21.png,0004-00-0009-31.png
00000014,725,0,1442241926621,1442241927046,341,390,0,0,0,2,1,1,21,0002-00-0004-49.png,0001-00-0003-51.png
00000014,726,1,1442241930048,1442241930072,504,424,0,0,0,4,5,1,45,0004-00-0008-84.png,0005-00-0005-04.png
00000014,727,1,1442241930990,1442241931557,366,446,0,0,0,3,4,1,34,0003-00-0005-03.png,0004-00-0009-29.png
00000014,728,1,1442241932453,1442241933019,427,410,0,0,0,2,3,1,23,0002-00-0004-81.png,0003-00-0002-77.png
00000014,729,1,1442241933923,1442241934522,875,449,0,0,0,2,1,1,21,0002-00-0009-68.png,0001-00-0007-61.png
00000014,730,0,1442241935493,1442241936039,350,408,0,0,0,4,3,1,43,0004-00-0003-17.png,0003-00-0008-71.png
00000014,731,1,1442241942076,1442241942515,350,384,0,0,0,3,4,1,34,0003-00-0004-14.png,0004-00-0007-10.png
00000014,732,0,1442241943410,1442241944485,890,444,0,0,0,2,3,1,23,0002-00-0008-11.png,0003-00-0006-88.png
00000014,733,0,1442241962965,1442241963397,301,397,0,0,0,5,4,1,54,0005-00-0009-04.png,0004-00-0006-25.png
00000014,734,1,1442241967518,1442241968030,313,403,0,0,0,1,2,1,12,0001-00-0002-89.png,0002-00-0002-52.png
00000014,735,1,1442241969328,1442241969842,393,545,0,0,0,4,5,1,45,0004-00-0005-63.png,0005-00-0000-17.png
00000014,736,0,1442241970869,1442241972207,219,415,0,0,0,3,2,1,32,0003-00-0005-06.png,0002-00-0006-67.png
00000014,737,1,1442241976530,1442241977023,875,422,0,0,0,2,1,1,21,0002-00-0004-86.png,0001-00-0006-71.png
00000014,738,1,1442241978510,1442241991773,393,552,0,0,0,2,3,1,23,0002-00-0006-59.png,0003-00-0001-32.png
00000014,739,1,1442241993568,1442241994061,362,494,0,0,0,3,4,1,34,0003-00-0001-35.png,0004-00-0001-46.png
00000014,740,1,1442241995447,1442241995989,248,504,0,0,0,4,5,1,45,0004-00-0008-17.png,0005-00-0002-48.png
00000014,741,1,1442241997516,1442241998043,411,510,0,0,0,1,2,1,12,0001-00-0000-59.png,0002-00-0006-66.png
00000014,742,0,1442241999343,1442241999910,294,412,0,0,0,3,2,1,32,0003-00-0001-51.png,0002-00-0006-97.png
00000014,743,0,1442242006831,1442242007374,401,332,0,0,0,4,3,1,43,0004-00-0008-55.png,0003-00-0007-79.png
00000014,744,0,1442242014582,1442242015110,435,519,0,0,0,5,4,1,54,0005-00-0006-66.png,0004-00-0001-84.png
00000014,745,1,1442242019831,1442242020286,311,424,0,0,0,2,3,1,23,0002-00-0000-62.png,0003-00-0005-92.png
00000014,746,1,1442242021700,1442242022208,248,465,0,0,0,1,2,1,12,0001-00-0005-99.png,0002-00-0001-13.png
00000014,747,1,1442242023385,1442242023943,362,462,0,0,0,4,5,1,45,0004-00-0009-03.png,0005-00-0003-99.png
00000014,748,0,1442242024997,1442242025475,359,411,0,0,0,4,3,1,43,0004-00-0004-26.png,0003-00-0002-13.png
00000014,749,0,1442242033614,1442242034089,325,344,0,0,0,3,2,1,32,0003-00-0002-39.png,0002-00-0004-83.png
00000014,750,1,1442242037795,1442242038260,340,392,0,0,0,3,4,1,34,0003-00-0004-85.png,0004-00-0008-78.png
00000014,751,0,1442242039512,1442242039983,401,410,0,0,0,5,4,1,54,0005-00-0003-45.png,0004-00-0004-59.png
00000014,752,0,1442242043354,1442242043857,350,358,0,0,0,2,1,1,21,0002-00-0005-33.png,0001-00-0001-51.png
00000014,753,1,1442242046683,1442242047146,903,410,0,0,0,4,3,1,43,0004-00-0000-28.png,0003-00-0000-21.png
00000014,754,1,1442242048185,1442242048665,311,431,0,0,0,1,2,1,12,0001-00-0006-47.png,0002-00-0000-62.png
00000014,755,0,1442242049706,1442242050681,366,460,0,0,0,5,4,1,54,0005-00-0004-88.png,0004-00-0003-36.png
00000014,756,1,1442242054168,1442242054731,299,448,0,0,0,4,5,1,45,0004-00-0002-21.png,0005-00-0005-63.png
00000014,757,1,1442242055968,1442242056557,867,510,0,0,0,3,2,1,32,0003-00-0007-20.png,0002-00-0002-88.png
00000014,758,1,1442242057658,1442242058546,350,410,0,0,0,3,4,1,34,0003-00-0005-41.png,0004-00-0004-63.png
00000014,759,0,1442242059833,1442242060267,376,424,0,0,0,2,1,1,21,0002-00-0001-61.png,0001-00-0007-51.png
00000014,760,0,1442242064891,1442242065472,954,415,0,0,0,2,3,1,23,0002-00-0002-98.png,0003-00-0002-28.png
00000014,761,1,1442242068716,1442242069226,417,534,0,0,0,2,3,1,23,0002-00-0006-85.png,0003-00-0006-74.png
00000014,762,1,1442242070396,1442242070895,366,440,0,0,0,4,5,1,45,0004-00-0004-70.png,0005-00-0007-54.png
00000014,763,1,1442242072028,1442242072522,888,398,0,0,0,3,2,1,32,0003-00-0005-59.png,0002-00-0000-94.png
00000014,764,1,1442242073786,1442242074343,862,476,0,0,0,5,4,1,54,0005-00-0005-62.png,0004-00-0008-25.png
00000014,765,0,1442242075606,1442242076072,401,449,0,0,0,4,3,1,43,0004-00-0004-31.png,0003-00-0009-83.png
00000014,766,0,1442242081020,1442242081581,427,396,0,0,0,2,1,1,21,0002-00-0007-99.png,0001-00-0007-94.png
00000014,767,1,1442242086466,1442242087004,369,386,0,0,0,1,2,1,12,0001-00-0001-04.png,0002-00-0002-92.png
00000014,768,0,1442242088059,1442242089130,930,418,0,0,0,3,4,1,34,0003-00-0000-42.png,0004-00-0001-09.png
00000014,769,1,1442242094190,1442242094761,905,400,0,0,0,5,4,1,54,0005-00-0008-17.png,0004-00-0001-31.png
00000014,770,0,1442242096101,1442242096623,382,399,0,0,0,3,2,1,32,0003-00-0001-10.png,0002-00-0005-67.png
00000014,771,1,1442242100074,1442242100495,319,433,0,0,0,1,2,1,12,0001-00-0002-60.png,0002-00-0001-78.png
00000014,772,1,1442242101660,1442242102150,376,422,0,0,0,3,4,1,34,0003-00-0005-74.png,0004-00-0002-34.png
00000014,773,0,1442242103174,1442242104209,312,423,0,0,0,4,3,1,43,0004-00-0003-91.png,0003-00-0009-43.png
00000014,774,1,1442242109874,1442242110346,363,462,0,0,0,2,3,1,23,0002-00-0008-74.png,0003-00-0005-52.png
00000014,775,0,1442242111543,1442242112036,350,449,0,0,0,2,1,1,21,0002-00-0003-85.png,0001-00-0002-44.png
00000014,776,1,1442242135042,1442242135498,273,345,0,0,0,4,5,1,45,0004-00-0002-88.png,0005-00-0001-13.png
00000014,777,0,1442242140025,1442242140541,931,441,0,0,0,2,3,1,23,0002-00-0006-00.png,0003-00-0003-80.png
00000014,778,1,1442242146463,1442242146915,345,412,0,0,0,3,4,1,34,0003-00-0008-70.png,0004-00-0003-35.png
00000014,779,0,1442242147956,1442242148427,330,419,0,0,0,2,1,1,21,0002-00-0003-63.png,0001-00-0002-59.png
00000014,780,0,1442242156020,1442242156431,350,393,0,0,0,4,3,1,43,0004-00-0008-43.png,0003-00-0005-52.png
00000014,781,0,1442242160443,1442242160988,925,418,0,0,0,1,2,1,12,0001-00-0000-52.png,0002-00-0003-91.png
00000014,782,0,1442242165333,1442242165761,390,408,0,0,0,3,2,1,32,0003-00-0000-77.png,0002-00-0003-08.png
00000014,783,1,1442242169657,1442242170190,879,426,0,0,0,5,4,1,54,0005-00-0002-15.png,0004-00-0003-85.png
00000014,784,1,1442242171722,1442242174311,313,423,0,0,0,4,5,1,45,0004-00-0007-39.png,0005-00-0005-34.png
00000014,785,1,1442242175746,1442242176257,317,463,0,0,0,3,4,1,34,0003-00-0009-88.png,0004-00-0002-63.png
00000014,786,1,1442242177230,1442242177740,364,395,0,0,0,2,3,1,23,0002-00-0003-21.png,0003-00-0002-58.png
00000014,787,0,1442242178681,1442242179245,363,436,0,0,0,2,1,1,21,0002-00-0002-50.png,0001-00-0002-39.png
00000014,788,1,1442242183999,1442242184542,376,410,0,0,0,1,2,1,12,0001-00-0000-95.png,0002-00-0002-85.png
00000014,789,1,1442242185528,1442242186082,376,490,0,0,0,4,5,1,45,0004-00-0000-19.png,0005-00-0004-57.png
00000014,790,0,1442242187218,1442242188229,409,444,0,0,0,3,2,1,32,0003-00-0009-90.png,0002-00-0006-78.png
00000014,791,0,1442242191183,1442242191564,382,392,0,0,0,4,3,1,43,0004-00-0008-78.png,0003-00-0002-07.png
00000014,792,0,1442242196010,1442242196508,329,411,0,0,0,5,4,1,54,0005-00-0003-20.png,0004-00-0002-67.png
00000014,793,1,1442242207690,1442242208123,344,383,0,0,0,4,5,1,45,0004-00-0002-23.png,0005-00-0002-28.png
00000014,794,1,1442242209282,1442242209846,892,429,0,0,0,4,3,1,43,0004-00-0002-00.png,0003-00-0006-96.png
00000014,795,1,1442242211457,1442242211980,371,454,0,0,0,3,4,1,34,0003-00-0003-72.png,0004-00-0009-74.png
00000014,796,1,1442242213108,1442242213589,319,406,0,0,0,2,3,1,23,0002-00-0002-56.png,0003-00-0009-67.png
00000014,797,0,1442242214550,1442242215074,349,422,0,0,0,3,2,1,32,0003-00-0003-96.png,0002-00-0003-52.png
00000014,798,0,1442242219707,1442242220190,424,427,0,0,0,2,1,1,21,0002-00-0007-24.png,0001-00-0002-29.png
00000014,799,1,1442242248875,1442242249348,376,319,0,0,0,1,2,1,12,0001-00-0000-43.png,0002-00-0002-97.png
00000014,800,0,1442242250513,1442242250974,350,410,0,0,0,5,4,1,54,0005-00-0008-23.png,0004-00-0003-57.png
00000014,801,1,1442242255432,1442242255898,299,449,0,0,0,2,3,1,23,0002-00-0001-19.png,0003-00-0001-80.png
00000014,802,0,1442242257278,1442242257812,341,427,0,0,0,4,3,1,43,0004-00-0000-16.png,0003-00-0009-71.png
00000014,803,0,1442242262782,1442242264195,265,403,0,0,0,5,4,1,54,0005-00-0007-00.png,0004-00-0004-15.png
00000014,804,0,1442242267519,1442242268466,362,410,0,0,0,3,2,1,32,0003-00-0001-95.png,0002-00-0005-80.png
00000014,805,1,1442242271491,1442242271511,504,472,0,0,0,4,5,1,45,0004-00-0002-58.png,0005-00-0009-69.png
00000014,806,1,1442242272565,1442242273060,324,427,0,0,0,1,2,1,12,0001-00-0009-76.png,0002-00-0001-18.png
00000014,807,1,1442242274026,1442242274556,400,442,0,0,0,3,4,1,34,0003-00-0008-82.png,0004-00-0005-75.png
00000014,808,1,1442242275526,1442242276056,888,424,0,0,0,2,1,1,21,0002-00-0005-87.png,0001-00-0006-55.png
00000014,809,1,1442242277037,1442242277588,905,401,0,0,0,3,2,1,32,0003-00-0000-82.png,0002-00-0003-92.png
00000014,810,1,1442242278617,1442242279118,384,423,0,0,0,4,5,1,45,0004-00-0005-70.png,0005-00-0002-50.png
00000014,811,1,1442242280098,1442242280641,421,537,0,0,0,2,3,1,23,0002-00-0007-09.png,0003-00-0008-10.png
00000014,812,1,1442242281588,1442242282135,365,368,0,0,0,3,4,1,34,0003-00-0000-13.png,0004-00-0007-26.png
00000014,813,1,1442242283109,1442242283665,887,424,0,0,0,5,4,1,54,0005-00-0008-45.png,0004-00-0008-12.png
00000014,814,0,1442242284589,1442242285052,375,454,0,0,0,4,3,1,43,0004-00-0008-80.png,0003-00-0003-35.png
00000014,815,1,1442242288290,1442242288812,910,442,0,0,0,2,1,1,21,0002-00-0001-92.png,0001-00-0002-71.png
00000014,816,1,1442242290183,1442242290690,376,436,0,0,0,1,2,1,12,0001-00-0002-83.png,0002-00-0003-48.png
00000014,817,0,1442242291754,1442242292277,863,423,0,0,0,3,4,1,34,0003-00-0006-44.png,0004-00-0008-62.png
00000014,818,1,1442242296236,1442242296739,928,413,0,0,0,2,1,1,21,0002-00-0009-84.png,0001-00-0002-51.png
00000014,819,1,1442242297701,1442242298230,390,528,0,0,0,4,5,1,45,0004-00-0006-30.png,0005-00-0003-95.png
00000014,820,0,1442242299227,1442242299763,366,410,0,0,0,5,4,1,54,0005-00-0005-65.png,0004-00-0001-94.png
00000014,821,1,1442242303153,1442242304180,956,453,0,0,0,3,2,1,32,0003-00-0006-50.png,0002-00-0002-90.png
00000014,822,0,1442242305281,1442242305779,318,436,0,0,0,4,3,1,43,0004-00-0000-83.png,0003-00-0003-38.png
00000014,823,1,1442242311603,1442242312043,312,404,0,0,0,1,2,1,12,0001-00-0005-60.png,0002-00-0000-64.png
00000014,824,1,1442242313198,1442242313731,317,445,0,0,0,2,3,1,23,0002-00-0007-91.png,0003-00-0009-59.png
00000014,825,0,1442242314819,1442242315357,387,407,0,0,0,5,4,1,54,0005-00-0008-65.png,0004-00-0009-47.png
00000014,826,1,1442242320455,1442242320949,880,446,0,0,0,2,1,1,21,0002-00-0001-96.png,0001-00-0000-88.png
00000014,827,1,1442242322333,1442242322816,343,455,0,0,0,2,3,1,23,0002-00-0001-36.png,0003-00-0005-47.png
00000014,828,0,1442242323834,1442242324375,323,462,0,0,0,4,3,1,43,0004-00-0000-53.png,0003-00-0004-67.png
00000014,829,1,1442242330032,1442242330617,369,453,0,0,0,4,5,1,45,0004-00-0000-78.png,0005-00-0009-02.png
00000014,830,0,1442242331943,1442242332466,886,483,0,0,0,3,4,1,34,0003-00-0006-34.png,0004-00-0000-19.png
00000014,831,1,1442242335900,1442242336988,292,400,0,0,0,1,2,1,12,0001-00-0008-57.png,0002-00-0002-51.png
00000014,832,0,1442242337974,1442242338526,407,504,0,0,0,3,2,1,32,0003-00-0003-14.png,0002-00-0008-60.png
00000014,833,1,1442242343613,1442242344126,355,424,0,0,0,4,5,1,45,0004-00-0006-44.png,0005-00-0003-15.png
00000014,834,1,1442242345378,1442242345915,316,418,0,0,0,2,3,1,23,0002-00-0007-37.png,0003-00-0009-80.png
00000014,835,1,1442242346944,1442242347489,879,446,0,0,0,4,3,1,43,0004-00-0006-90.png,0003-00-0001-65.png
00000014,836,1,1442242348438,1442242349286,376,410,0,0,0,3,4,1,34,0003-00-0009-10.png,0004-00-0009-05.png
00000014,837,0,1442242350457,1442242351458,384,442,0,0,0,2,1,1,21,0002-00-0003-00.png,0001-00-0003-42.png
00000014,838,1,1442242357086,1442242357562,299,396,0,0,0,1,2,1,12,0001-00-0006-26.png,0002-00-0004-52.png
00000014,839,0,1442242358665,1442242359149,376,410,0,0,0,5,4,1,54,0005-00-0008-33.png,0004-00-0000-39.png
00000014,840,0,1442242362311,1442242362777,373,514,0,0,0,3,2,1,32,0003-00-0007-14.png,0002-00-0008-02.png
00000014,841,1,1442242365619,1442242366061,338,439,0,0,0,3,4,1,34,0003-00-0001-49.png,0004-00-0005-24.png
00000014,842,1,1442242367095,1442242367606,875,423,0,0,0,3,2,1,32,0003-00-0003-44.png,0002-00-0008-91.png
00000014,843,1,1442242368851,1442242369361,362,459,0,0,0,4,5,1,45,0004-00-0001-46.png,0005-00-0006-09.png
00000014,844,0,1442242370314,1442242370859,423,540,0,0,0,5,4,1,54,0005-00-0001-43.png,0004-00-0009-51.png
00000014,845,0,1442242374762,1442242375311,429,499,0,0,0,4,3,1,43,0004-00-0000-09.png,0003-00-0000-85.png
00000014,846,0,1442242379924,1442242380493,927,450,0,0,0,2,3,1,23,0002-00-0004-96.png,0003-00-0007-88.png
00000014,847,0,1442242384521,1442242385039,375,443,0,0,0,2,1,1,21,0002-00-0003-18.png,0001-00-0001-48.png
00000014,848,1,1442242390529,1442242391053,322,470,0,0,0,1,2,1,12,0001-00-0009-39.png,0002-00-0009-59.png
00000014,849,0,1442242392169,1442242392732,299,449,0,0,0,4,3,1,43,0004-00-0007-87.png,0003-00-0005-59.png
00000014,850,0,1442242395611,1442242396142,402,473,0,0,0,3,2,1,32,0003-00-0000-85.png,0002-00-0007-34.png
00000014,851,1,1442242401510,1442242402081,925,453,0,0,0,2,1,1,21,0002-00-0001-40.png,0001-00-0002-00.png
00000014,852,0,1442242403041,1442242403571,910,427,0,0,0,4,5,1,45,0004-00-0005-96.png,0005-00-0007-27.png
00000014,853,1,1442242406538,1442242407031,318,436,0,0,0,1,2,1,12,0001-00-0005-67.png,0002-00-0009-69.png
00000014,854,1,1442242408190,1442242409161,401,397,0,0,0,2,3,1,23,0002-00-0007-98.png,0003-00-0000-69.png
00000014,855,1,1442242410127,1442242410617,363,435,0,0,0,3,4,1,34,0003-00-0002-59.png,0004-00-0007-26.png
00000014,856,1,1442242411617,1442242412230,881,427,0,0,0,5,4,1,54,0005-00-0000-50.png,0004-00-0001-29.png
00000014,857,1,1442242413095,1442242414115,427,462,0,0,0,4,5,1,45,0004-00-0005-80.png,0005-00-0006-53.png
00000014,858,1,1442242414994,1442242415471,342,435,0,0,0,2,3,1,23,0002-00-0000-37.png,0003-00-0001-87.png
00000014,859,1,1442242416339,1442242416890,875,423,0,0,0,5,4,1,54,0005-00-0001-59.png,0004-00-0005-15.png
00000014,860,0,1442242417735,1442242418677,413,444,0,0,0,2,1,1,21,0002-00-0008-70.png,0001-00-0002-87.png
00000014,861,1,1442242422718,1442242423774,340,415,0,0,0,1,2,1,12,0001-00-0009-99.png,0002-00-0005-19.png
00000014,862,1,1442242425082,1442242505082,923,405,0,0,0,3,2,1,32,0003-00-0000-80.png,0002-00-0008-90.png
00000014,863,1,1442242506030,1442242506554,368,442,0,0,0,3,4,1,34,0003-00-0006-50.png,0004-00-0007-76.png
00000014,864,0,1442242507740,1442242508221,376,410,0,0,0,4,3,1,43,0004-00-0001-52.png,0003-00-0008-76.png
00000014,865,1,1442242511266,1442242511314,508,441,0,0,0,1,2,1,12,0001-00-0007-03.png,0002-00-0003-80.png
00000014,866,0,1442242512181,1442242512631,361,423,0,0,0,2,1,1,21,0002-00-0008-62.png,0001-00-0004-37.png
00000014,867,1,1442242515821,1442242516283,413,397,0,0,0,4,5,1,45,0004-00-0002-33.png,0005-00-0007-92.png
00000014,868,0,1442242517182,1442242517640,465,541,0,0,0,3,2,1,32,0003-00-0002-64.png,0002-00-0004-91.png
00000014,869,1,1442242521544,1442242522150,912,508,0,0,0,4,3,1,43,0004-00-0001-00.png,0003-00-0003-62.png
00000014,870,0,1442242522982,1442242523522,868,536,0,0,0,2,3,1,23,0002-00-0002-98.png,0003-00-0000-07.png
00000014,871,1,1442242526860,1442242527286,427,410,0,0,0,3,4,1,34,0003-00-0005-44.png,0004-00-0003-46.png
00000014,872,1,1442242528106,1442242528614,910,466,0,0,0,5,4,1,54,0005-00-0006-37.png,0004-00-0000-24.png
00000014,873,0,1442242529452,1442242530544,872,511,0,0,0,3,4,1,34,0003-00-0005-82.png,0004-00-0001-51.png
00000014,874,0,1442242533516,1442242534021,412,508,0,0,0,2,1,1,21,0002-00-0001-17.png,0001-00-0009-37.png
00000014,875,1,1442242537924,1442242538352,349,448,0,0,0,2,3,1,23,0002-00-0001-62.png,0003-00-0000-71.png
00000014,876,0,1442242539382,1442242540325,440,425,0,0,0,5,4,1,54,0005-00-0003-41.png,0004-00-0002-23.png
00000014,877,0,1442242544052,1442242545032,395,440,0,0,0,4,3,1,43,0004-00-0007-29.png,0003-00-0006-91.png
00000014,878,1,1442242549620,1442242550105,273,514,0,0,0,1,2,1,12,0001-00-0004-78.png,0002-00-0000-28.png
00000014,879,0,1442242551005,1442242551871,372,435,0,0,0,3,2,1,32,0003-00-0003-25.png,0002-00-0009-53.png
00000014,880,1,1442242554796,1442242554824,510,409,0,0,0,4,5,1,45,0004-00-0009-13.png,0005-00-0006-08.png
00000014,881,1,1442242556170,1442242556715,405,510,0,0,0,2,3,1,23,0002-00-0006-88.png,0003-00-0002-53.png
00000014,882,0,1442242557626,1442242559019,427,488,0,0,0,5,4,1,54,0005-00-0006-69.png,0004-00-0007-64.png
00000014,883,0,1442242563571,1442242563996,415,475,0,0,0,2,1,1,21,0002-00-0008-61.png,0001-00-0009-79.png
00000014,884,1,1442242568988,1442242569417,340,420,0,0,0,4,5,1,45,0004-00-0009-42.png,0005-00-0007-05.png
00000014,885,0,1442242570299,1442242570860,862,501,0,0,0,1,2,1,12,0001-00-0004-01.png,0002-00-0005-29.png
00000014,886,0,1442242578544,1442242579007,358,438,0,0,0,3,2,1,32,0003-00-0003-74.png,0002-00-0006-24.png
00000014,887,1,1442242584239,1442242585061,394,418,0,0,0,3,4,1,34,0003-00-0008-69.png,0004-00-0001-56.png
00000014,888,0,1442242586091,1442242586592,365,448,0,0,0,4,3,1,43,0004-00-0002-73.png,0003-00-0007-19.png
00000014,889,0,1442242589698,1442242590264,875,405,0,0,0,3,4,1,34,0003-00-0001-73.png,0004-00-0004-28.png
00000014,890,1,1442242594305,1442242594783,308,443,0,0,0,2,3,1,23,0002-00-0007-27.png,0003-00-0002-48.png
00000014,891,0,1442242595752,1442242596338,407,403,0,0,0,3,2,1,32,0003-00-0007-36.png,0002-00-0007-62.png
00000014,892,0,1442242606816,1442242607236,350,435,0,0,0,5,4,1,54,0005-00-0009-10.png,0004-00-0009-18.png
00000014,893,1,1442242611101,1442242611541,318,402,0,0,0,4,5,1,45,0004-00-0007-17.png,0005-00-0009-42.png
00000014,894,0,1442242612460,1442242612958,340,438,0,0,0,2,1,1,21,0002-00-0009-31.png,0001-00-0007-61.png
00000014,895,1,1442242616878,1442242617337,325,449,0,0,0,1,2,1,12,0001-00-0005-70.png,0002-00-0005-12.png
00000014,896,0,1442242618264,1442242618830,355,401,0,0,0,4,3,1,43,0004-00-0009-99.png,0003-00-0009-73.png
00000014,897,1,1442242623935,1442242624377,339,420,0,0,0,4,5,1,45,0004-00-0001-56.png,0005-00-0003-46.png
00000014,898,0,1442242625441,1442242626021,227,507,0,0,0,5,4,1,54,0005-00-0000-59.png,0004-00-0004-29.png
00000014,899,0,1442242629825,1442242630316,413,528,0,0,0,3,2,1,32,0003-00-0006-06.png,0002-00-0008-21.png
00000014,900,1,1442242635315,1442242635767,334,419,0,0,0,1,2,1,12,0001-00-0008-06.png,0002-00-0000-77.png
00000014,901,1,1442242636706,1442242637169,427,384,0,0,0,3,4,1,34,0003-00-0001-59.png,0004-00-0007-53.png
00000014,902,1,1442242638049,1442242638571,881,392,0,0,0,2,1,1,21,0002-00-0001-20.png,0001-00-0000-70.png
00000014,903,0,1442242639401,1442242639942,410,494,0,0,0,4,3,1,43,0004-00-0000-40.png,0003-00-0002-28.png
00000014,904,1,1442242645060,1442242645497,350,426,0,0,0,2,3,1,23,0002-00-0008-07.png,0003-00-0000-53.png
00000014,905,0,1442242646509,1442242647023,401,411,0,0,0,3,2,1,32,0003-00-0003-50.png,0002-00-0006-71.png
00000014,906,1,1442242650195,1442242650722,877,426,0,0,0,5,4,1,54,0005-00-0004-92.png,0004-00-0008-83.png
00000014,907,0,1442242651727,1442242652198,422,541,0,0,0,2,1,1,21,0002-00-0003-76.png,0001-00-0005-45.png
00000014,908,1,1442242655731,1442242656159,344,459,0,0,0,1,2,1,12,0001-00-0006-59.png,0002-00-0007-14.png
00000014,909,1,1442242657123,1442242658018,427,436,0,0,0,3,4,1,34,0003-00-0003-79.png,0004-00-0008-88.png
00000014,910,1,1442242659000,1442242659436,415,502,0,0,0,2,3,1,23,0002-00-0002-90.png,0003-00-0003-00.png
00000014,911,0,1442242660343,1442242660892,412,527,0,0,0,4,3,1,43,0004-00-0006-64.png,0003-00-0003-65.png
00000014,912,0,1442242663970,1442242664485,912,451,0,0,0,4,5,1,45,0004-00-0004-97.png,0005-00-0002-32.png
00000014,913,1,1442242667906,1442242668500,953,405,0,0,0,5,4,1,54,0005-00-0008-38.png,0004-00-0001-90.png
00000014,914,1,1442242669885,1442242670409,907,469,0,0,0,3,2,1,32,0003-00-0006-40.png,0002-00-0002-90.png
00000014,915,1,1442242673668,1442242674133,886,424,0,0,0,2,1,1,21,0002-00-0006-78.png,0001-00-0009-11.png
00000014,916,0,1442242675043,1442242675938,414,436,0,0,0,4,3,1,43,0004-00-0008-00.png,0003-00-0002-17.png
00000014,917,0,1442242678857,1442242679423,925,411,0,0,0,2,3,1,23,0002-00-0004-45.png,0003-00-0004-35.png
00000014,918,0,1442242685760,1442242686191,867,533,0,0,0,3,4,1,34,0003-00-0006-23.png,0004-00-0009-46.png
00000014,919,1,1442242693145,1442242693675,390,473,0,0,0,1,2,1,12,0001-00-0009-50.png,0002-00-0009-78.png
00000014,920,1,1442242694832,1442242697865,328,397,0,0,0,4,5,1,45,0004-00-0001-53.png,0005-00-0001-74.png
00000014,921,0,1442242698812,1442242699298,427,410,0,0,0,3,2,1,32,0003-00-0001-85.png,0002-00-0009-94.png
00000014,922,1,1442242702779,1442242703312,382,485,0,0,0,4,5,1,45,0004-00-0006-30.png,0005-00-0005-06.png
00000014,923,1,1442242704307,1442242704832,873,508,0,0,0,5,4,1,54,0005-00-0004-93.png,0004-00-0004-34.png
00000014,924,1,1442242705929,1442242706523,253,519,0,0,0,3,4,1,34,0003-00-0004-87.png,0004-00-0006-44.png
00000014,925,0,1442242708151,1442242708637,396,435,0,0,0,2,1,1,21,0002-00-0006-84.png,0001-00-0008-35.png
00000014,926,0,1442242717671,1442242718058,366,370,0,0,0,4,3,1,43,0004-00-0003-89.png,0003-00-0003-71.png
00000014,927,1,1442242730816,1442242731250,386,522,0,0,0,1,2,1,12,0001-00-0007-84.png,0002-00-0009-43.png
00000014,928,1,1442242732228,1442242732719,361,441,0,0,0,2,3,1,23,0002-00-0003-45.png,0003-00-0008-25.png
00000014,929,0,1442242733607,1442242736988,414,476,0,0,0,4,3,1,43,0004-00-0004-88.png,0003-00-0006-19.png
00000014,930,1,1442242744143,1442242745001,401,411,0,0,0,3,4,1,34,0003-00-0002-20.png,0004-00-0009-84.png
00000014,931,1,1442242746221,1442242746668,866,520,0,0,0,5,4,1,54,0005-00-0006-66.png,0004-00-0005-33.png
00000014,932,0,1442242747540,1442242748120,427,410,0,0,0,3,2,1,32,0003-00-0002-02.png,0002-00-0000-49.png
00000014,933,1,1442242755067,1442242755420,443,507,0,0,0,1,2,1,12,0001-00-0006-14.png,0002-00-0001-48.png
00000014,934,1,1442242756642,1442242757093,337,401,0,0,0,4,5,1,45,0004-00-0002-97.png,0005-00-0006-22.png
00000014,935,1,1442242757965,1442242758460,878,506,0,0,0,2,1,1,21,0002-00-0002-07.png,0001-00-0005-15.png
00000014,936,1,1442242759965,1442242760416,405,537,0,0,0,2,3,1,23,0002-00-0003-86.png,0003-00-0009-20.png
00000014,937,0,1442242761254,1442242761842,409,482,0,0,0,2,1,1,21,0002-00-0005-51.png,0001-00-0003-75.png
00000014,938,1,1442242764782,1442242764857,517,488,0,0,0,2,3,1,23,0002-00-0001-85.png,0003-00-0001-64.png
00000014,939,1,1442242765798,1442242766282,441,528,0,0,0,4,5,1,45,0004-00-0006-35.png,0005-00-0001-73.png
00000014,940,0,1442242767116,1442242767622,444,535,0,0,0,3,2,1,32,0003-00-0005-91.png,0002-00-0001-16.png
00000014,941,1,1442242770578,1442242771071,900,384,0,0,0,5,4,1,54,0005-00-0008-18.png,0004-00-0000-31.png
00000014,942,0,1442242771916,1442242772394,427,450,0,0,0,4,3,1,43,0004-00-0005-21.png,0003-00-0007-44.png
