subject_id,trial,correct_response,stim_time,response_time,x_coord,y_coord,trial_timeout,timeout_time,interTrial_timeout,left_rank,right_rank,distance,joint_rank,left_image,right_image
00000014,1,1,1438963825237,1438963825811,351,371,0,0,0,1,2,1,12,0001-00-0001-23.png,0002-00-0001-54.png
00000014,2,1,1438963826768,1438963827155,350,374,0,0,0,2,3,1,23,0002-00-0000-38.png,0003-00-0001-08.png
00000014,3,0,1438963828101,1438963828555,366,411,0,0,0,3,2,1,32,0003-00-0001-58.png,0002-00-0001-54.png
00000014,4,1,1438963834450,1438963836716,386,437,0,0,0,3,4,1,34,0003-00-0001-00.png,0004-00-0000-73.png
00000014,5,0,1438963837829,1438963838284,359,402,0,0,0,5,4,1,54,0005-00-0000-85.png,0004-00-0001-60.png
00000014,6,1,1438963841375,1438963841862,414,389,0,0,0,4,5,1,45,0004-00-0000-87.png,0005-00-0000-84.png
00000014,7,0,1438963843259,1438963843659,363,366,0,0,0,4,3,1,43,0004-00-0000-81.png,0003-00-0001-27.png
00000014,8,0,1438963846756,1438963847252,372,391,0,0,0,2,1,1,21,0002-00-0000-54.png,0001-00-0000-91.png
00000014,9,1,1438963850429,1438963850928,354,384,0,0,0,1,2,1,12,0001-00-0001-44.png,0002-00-0001-16.png
00000014,10,0,1438963851971,1438963852415,406,490,0,0,0,4,3,1,43,0004-00-0001-25.png,0003-00-0000-36.png
00000014,11,0,1438963855566,1438963856059,379,414,0,0,0,5,4,1,54,0005-00-0000-35.png,0004-00-0000-39.png
00000014,12,0,1438963859164,1438963859693,299,410,0,0,0,2,1,1,21,0002-00-0000-30.png,0001-00-0000-03.png
00000014,13,0,1438963862842,1438963863328,329,361,0,0,0,3,2,1,32,0003-00-0001-79.png,0002-00-0000-97.png
00000014,14,1,1438963866220,1438963866675,334,350,0,0,0,3,4,1,34,0003-00-0001-84.png,0004-00-0001-86.png
00000014,15,1,1438963867872,1438963868378,324,371,0,0,0,2,3,1,23,0002-00-0001-60.png,0003-00-0001-12.png
00000014,16,1,1438963869419,1438963869898,357,375,0,0,0,4,5,1,45,0004-00-0001-11.png,0005-00-0001-30.png
00000014,17,1,1438963870954,1438963871443,354,359,0,0,0,2,3,1,23,0002-00-0001-75.png,0003-00-0000-27.png
00000014,18,1,1438963872910,1438963873393,341,374,0,0,0,4,5,1,45,0004-00-0000-14.png,0005-00-0001-44.png
00000014,19,0,1438963874432,1438963874965,396,515,0,0,0,4,3,1,43,0004-00-0001-00.png,0003-00-0001-62.png
00000014,20,0,1438963877879,1438963878256,361,347,0,0,0,5,4,1,54,0005-00-0000-41.png,0004-00-0000-94.png
00000014,21,1,1438963881147,1438963881591,329,367,0,0,0,3,4,1,34,0003-00-0000-64.png,0004-00-0000-38.png
00000014,22,0,1438963882692,1438963883407,902,469,0,0,0,1,2,1,12,0001-00-0001-24.png,0002-00-0001-71.png
00000014,23,0,1438963886265,1438963886706,320,364,0,0,0,3,2,1,32,0003-00-0001-67.png,0002-00-0001-97.png
00000014,24,0,1438963889954,1438963890469,376,384,0,0,0,2,1,1,21,0002-00-0001-72.png,0001-00-0001-46.png
00000014,25,0,1438963893414,1438963893850,335,391,0,0,0,4,3,1,43,0004-00-0000-44.png,0003-00-0000-67.png
00000014,26,1,1438963896784,1438963897205,325,347,0,0,0,3,4,1,34,0003-00-0001-49.png,0004-00-0001-57.png
00000014,27,0,1438963898265,1438963898769,352,385,0,0,0,5,4,1,54,0005-00-0000-06.png,0004-00-0001-52.png
00000014,28,0,1438963904629,1438963905400,449,445,0,0,0,2,1,1,21,0002-00-0001-18.png,0001-00-0001-66.png
00000014,29,1,1438963908528,1438963908992,314,344,0,0,0,2,3,1,23,0002-00-0001-86.png,0003-00-0000-04.png
00000014,30,0,1438963910002,1438963910491,368,469,0,0,0,3,2,1,32,0003-00-0001-86.png,0002-00-0000-08.png
00000014,31,1,1438963913607,1438963914064,350,345,0,0,0,1,2,1,12,0001-00-0001-43.png,0002-00-0000-34.png
00000014,32,1,1438963914990,1438963915527,338,394,0,0,0,4,5,1,45,0004-00-0000-37.png,0005-00-0000-61.png
00000014,33,0,1438963916491,1438963916996,330,364,0,0,0,5,4,1,54,0005-00-0000-76.png,0004-00-0001-30.png
00000014,34,1,1438963920142,1438963920841,897,333,0,0,0,3,2,1,32,0003-00-0000-97.png,0002-00-0000-59.png
00000014,35,1,1438963921818,1438963922317,363,376,0,0,0,4,5,1,45,0004-00-0001-44.png,0005-00-0000-54.png
00000014,36,1,1438963923320,1438963923811,376,358,0,0,0,1,2,1,12,0001-00-0001-19.png,0002-00-0001-46.png
00000014,37,1,1438963924769,1438963925271,330,379,0,0,0,2,3,1,23,0002-00-0001-32.png,0003-00-0000-76.png
00000014,38,0,1438963926231,1438963926749,379,492,0,0,0,4,3,1,43,0004-00-0000-18.png,0003-00-0001-28.png
00000014,39,1,1438963929687,1438963930448,931,323,0,0,0,2,1,1,21,0002-00-0000-13.png,0001-00-0000-49.png
00000014,40,1,1438963931447,1438963931892,322,377,0,0,0,3,4,1,34,0003-00-0001-22.png,0004-00-0000-11.png
00000014,41,1,1438963932880,1438963933340,362,358,0,0,0,2,3,1,23,0002-00-0001-56.png,0003-00-0001-29.png
00000014,42,1,1438963934269,1438963934802,332,368,0,0,0,4,5,1,45,0004-00-0000-71.png,0005-00-0000-94.png
00000014,43,0,1438963935781,1438963936254,344,468,0,0,0,5,4,1,54,0005-00-0001-46.png,0004-00-0001-55.png
00000014,44,1,1438963939395,1438963939867,324,344,0,0,0,1,2,1,12,0001-00-0000-71.png,0002-00-0000-48.png
00000014,45,0,1438963940837,1438963941346,299,373,0,0,0,3,2,1,32,0003-00-0001-93.png,0002-00-0001-38.png
00000014,46,1,1438963944573,1438963945057,358,366,0,0,0,3,4,1,34,0003-00-0000-50.png,0004-00-0000-72.png
00000014,47,0,1438963946005,1438963946510,379,491,0,0,0,4,3,1,43,0004-00-0001-65.png,0003-00-0001-38.png
00000014,48,0,1438963949523,1438963950045,418,401,0,0,0,2,1,1,21,0002-00-0001-84.png,0001-00-0001-83.png
00000014,49,1,1438963953147,1438963953596,355,385,0,0,0,4,5,1,45,0004-00-0000-86.png,0005-00-0000-72.png
00000014,50,0,1438963954522,1438963955054,328,376,0,0,0,2,1,1,21,0002-00-0000-13.png,0001-00-0000-87.png
00000014,51,1,1438963958304,1438963958864,376,345,0,0,0,3,4,1,34,0003-00-0000-59.png,0004-00-0001-74.png
00000014,52,0,1438963959870,1438963960365,385,493,0,0,0,3,2,1,32,0003-00-0001-60.png,0002-00-0001-27.png
00000014,53,1,1438963963399,1438963963870,399,460,0,0,0,1,2,1,12,0001-00-0000-24.png,0002-00-0000-63.png
00000014,54,1,1438963964847,1438963965383,359,472,0,0,0,2,3,1,23,0002-00-0000-44.png,0003-00-0000-30.png
00000014,55,0,1438963966407,1438963966912,329,395,0,0,0,5,4,1,54,0005-00-0001-79.png,0004-00-0001-93.png
00000014,56,0,1438963969751,1438963970190,350,333,0,0,0,4,3,1,43,0004-00-0001-07.png,0003-00-0001-34.png
00000014,57,0,1438963973125,1438963973593,330,359,0,0,0,4,3,1,43,0004-00-0001-85.png,0003-00-0001-42.png
00000014,58,1,1438963976552,1438963977212,947,305,0,0,0,5,4,1,54,0005-00-0000-17.png,0004-00-0001-86.png
00000014,59,1,1438963978222,1438963978877,325,351,0,0,0,1,2,1,12,0001-00-0001-87.png,0002-00-0001-82.png
00000014,60,1,1438963980257,1438963980725,389,468,0,0,0,3,4,1,34,0003-00-0001-20.png,0004-00-0000-11.png
00000014,61,1,1438963981729,1438963982204,311,377,0,0,0,4,5,1,45,0004-00-0001-94.png,0005-00-0000-98.png
00000014,62,1,1438963983242,1438963983723,338,364,0,0,0,2,3,1,23,0002-00-0001-88.png,0003-00-0001-58.png
00000014,63,0,1438963984682,1438963985237,376,451,0,0,0,3,2,1,32,0003-00-0001-64.png,0002-00-0000-22.png
00000014,64,0,1438963988436,1438963988901,382,411,0,0,0,2,1,1,21,0002-00-0001-44.png,0001-00-0000-31.png
00000014,65,1,1438963992006,1438963992826,932,368,0,0,0,5,4,1,54,0005-00-0001-50.png,0004-00-0000-59.png
00000014,66,0,1438963993821,1438963994318,396,489,0,0,0,4,3,1,43,0004-00-0000-30.png,0003-00-0001-80.png
00000014,67,0,1438963997320,1438963998097,953,337,0,0,0,3,4,1,34,0003-00-0000-26.png,0004-00-0000-47.png
00000014,68,1,1438964001695,1438964002115,326,339,0,0,0,2,3,1,23,0002-00-0000-13.png,0003-00-0001-19.png
00000014,69,0,1438964003066,1438964003752,920,315,0,0,0,4,5,1,45,0004-00-0001-23.png,0005-00-0001-76.png
00000014,70,0,1438964006832,1438964007319,352,356,0,0,0,3,2,1,32,0003-00-0000-54.png,0002-00-0000-86.png
00000014,71,1,1438964010240,1438964010740,372,467,0,0,0,1,2,1,12,0001-00-0001-32.png,0002-00-0000-59.png
00000014,72,0,1438964011743,1438964012244,342,365,0,0,0,2,1,1,21,0002-00-0000-09.png,0001-00-0000-01.png
00000014,73,1,1438964015269,1438964015784,385,327,0,0,0,1,2,1,12,0001-00-0001-63.png,0002-00-0001-80.png
00000014,74,1,1438964016741,1438964017287,328,369,0,0,0,4,5,1,45,0004-00-0001-43.png,0005-00-0000-68.png
00000014,75,0,1438964018280,1438964018807,337,345,0,0,0,3,2,1,32,0003-00-0000-63.png,0002-00-0000-22.png
00000014,76,0,1438964021767,1438964022227,393,454,0,0,0,4,3,1,43,0004-00-0001-86.png,0003-00-0000-43.png
00000014,77,1,1438964025194,1438964025222,498,373,0,0,0,2,3,1,23,0002-00-0000-95.png,0003-00-0000-29.png
00000014,78,0,1438964026736,1438964027217,328,347,0,0,0,5,4,1,54,0005-00-0001-60.png,0004-00-0001-27.png
00000014,79,1,1438964030159,1438964030568,353,344,0,0,0,3,4,1,34,0003-00-0000-88.png,0004-00-0001-20.png
00000014,80,0,1438964031558,1438964032115,297,396,0,0,0,2,1,1,21,0002-00-0001-47.png,0001-00-0000-77.png
00000014,81,0,1438964035025,1438964035461,400,460,0,0,0,5,4,1,54,0005-00-0001-46.png,0004-00-0000-83.png
00000014,82,0,1438964038514,1438964039022,350,332,0,0,0,2,1,1,21,0002-00-0000-91.png,0001-00-0001-98.png
00000014,83,0,1438964041983,1438964042701,900,292,0,0,0,3,4,1,34,0003-00-0001-78.png,0004-00-0000-51.png
00000014,84,1,1438964046159,1438964046609,327,328,0,0,0,4,5,1,45,0004-00-0000-63.png,0005-00-0001-75.png
00000014,85,1,1438964048055,1438964048542,350,319,0,0,0,2,3,1,23,0002-00-0000-06.png,0003-00-0001-41.png
00000014,86,1,1438964049567,1438964050168,337,396,0,0,0,1,2,1,12,0001-00-0001-37.png,0002-00-0001-36.png
00000014,87,0,1438964051154,1438964051685,350,370,0,0,0,4,3,1,43,0004-00-0001-76.png,0003-00-0000-76.png
00000014,88,0,1438964054707,1438964055219,376,320,0,0,0,3,2,1,32,0003-00-0000-33.png,0002-00-0000-12.png
00000014,89,1,1438964058369,1438964058817,300,348,0,0,0,1,2,1,12,0001-00-0001-40.png,0002-00-0001-15.png
00000014,90,1,1438964059872,1438964060502,931,342,0,0,0,4,3,1,43,0004-00-0000-11.png,0003-00-0001-76.png
00000014,91,1,1438964061471,1438964062047,266,367,0,0,0,3,4,1,34,0003-00-0001-13.png,0004-00-0001-41.png
00000014,92,0,1438964063139,1438964063673,222,462,0,0,0,2,1,1,21,0002-00-0001-77.png,0001-00-0001-55.png
00000014,93,1,1438964066756,1438964067424,952,338,0,0,0,3,2,1,32,0003-00-0001-15.png,0002-00-0001-57.png
00000014,94,1,1438964068426,1438964068914,376,346,0,0,0,2,3,1,23,0002-00-0001-30.png,0003-00-0000-82.png
00000014,95,1,1438964069929,1438964070495,376,450,0,0,0,4,5,1,45,0004-00-0001-16.png,0005-00-0000-06.png
00000014,96,0,1438964071508,1438964072089,332,394,0,0,0,5,4,1,54,0005-00-0000-69.png,0004-00-0001-05.png
00000014,97,0,1438964075056,1438964075971,902,418,0,0,0,3,4,1,34,0003-00-0001-90.png,0004-00-0001-95.png
00000014,98,1,1438964078981,1438964079570,328,323,0,0,0,1,2,1,12,0001-00-0000-19.png,0002-00-0000-24.png
00000014,99,1,1438964080614,1438964081355,866,430,0,0,0,5,4,1,54,0005-00-0001-50.png,0004-00-0001-92.png
00000014,100,0,1438964082364,1438964082846,335,345,0,0,0,4,3,1,43,0004-00-0000-73.png,0003-00-0000-95.png
00000014,101,0,1438964085700,1438964086342,308,320,0,0,0,2,1,1,21,0002-00-0001-18.png,0001-00-0000-51.png
00000014,102,0,1438964089281,1438964089795,336,341,0,0,0,3,2,1,32,0003-00-0000-03.png,0002-00-0001-06.png
00000014,103,1,1438964092918,1438964092926,501,373,0,0,0,2,3,1,23,0002-00-0001-23.png,0003-00-0001-14.png
00000014,104,1,1438964094377,1438964094879,363,452,0,0,0,4,5,1,45,0004-00-0001-03.png,0005-00-0001-34.png
00000014,105,1,1438964095859,1438964096532,325,371,0,0,0,4,5,1,45,0004-00-0000-60.png,0005-00-0000-51.png
00000014,106,0,1438964097549,1438964098211,414,486,0,0,0,2,1,1,21,0002-00-0001-02.png,0001-00-0000-82.png
00000014,107,1,1438964101274,1438964101753,325,346,0,0,0,1,2,1,12,0001-00-0000-68.png,0002-00-0001-60.png
00000014,108,0,1438964102705,1438964103242,324,402,0,0,0,4,3,1,43,0004-00-0001-64.png,0003-00-0001-30.png
00000014,109,0,1438964106113,1438964106591,358,315,0,0,0,5,4,1,54,0005-00-0000-12.png,0004-00-0000-53.png
00000014,110,0,1438964109673,1438964110325,917,456,0,0,0,3,4,1,34,0003-00-0000-48.png,0004-00-0000-34.png
00000014,111,0,1438964113145,1438964113161,504,387,0,0,0,3,2,1,32,0003-00-0000-59.png,0002-00-0000-80.png
00000014,112,1,1438964116001,1438964116497,338,344,0,0,0,2,3,1,23,0002-00-0000-71.png,0003-00-0001-49.png
00000014,113,0,1438964117525,1438964117561,492,462,0,0,0,3,2,1,32,0003-00-0001-63.png,0002-00-0000-58.png
00000014,114,1,1438964120452,1438964121295,895,316,0,0,0,4,3,1,43,0004-00-0001-26.png,0003-00-0001-95.png
00000014,115,0,1438964122269,1438964122883,335,373,0,0,0,2,1,1,21,0002-00-0000-49.png,0001-00-0000-33.png
00000014,116,0,1438964125857,1438964126515,869,277,0,0,0,3,4,1,34,0003-00-0001-58.png,0004-00-0000-42.png
00000014,117,1,1438964129707,1438964130421,350,465,0,0,0,4,5,1,45,0004-00-0001-50.png,0005-00-0001-68.png
00000014,118,0,1438964131407,1438964132032,926,346,0,0,0,1,2,1,12,0001-00-0001-70.png,0002-00-0000-03.png
00000014,119,1,1438964135051,1438964135775,973,297,0,0,0,5,4,1,54,0005-00-0001-65.png,0004-00-0001-20.png
00000014,120,1,1438964136764,1438964137479,335,354,0,0,0,2,3,1,23,0002-00-0001-90.png,0003-00-0000-36.png
00000014,121,1,1438964138493,1438964139192,921,419,0,0,0,4,3,1,43,0004-00-0000-94.png,0003-00-0001-36.png
00000014,122,1,1438964140152,1438964140744,376,384,0,0,0,4,5,1,45,0004-00-0000-75.png,0005-00-0001-72.png
00000014,123,1,1438964141781,1438964142346,376,344,0,0,0,3,4,1,34,0003-00-0001-31.png,0004-00-0001-99.png
00000014,124,0,1438964143320,1438964144215,928,336,0,0,0,2,3,1,23,0002-00-0000-76.png,0003-00-0000-94.png
00000014,125,0,1438964147186,1438964147673,339,347,0,0,0,5,4,1,54,0005-00-0000-98.png,0004-00-0000-84.png
00000014,126,0,1438964150502,1438964151052,324,322,0,0,0,3,2,1,32,0003-00-0000-95.png,0002-00-0000-92.png
00000014,127,1,1438964154142,1438964154621,311,358,0,0,0,1,2,1,12,0001-00-0001-76.png,0002-00-0001-99.png
00000014,128,0,1438964155613,1438964156258,332,393,0,0,0,2,1,1,21,0002-00-0000-29.png,0001-00-0000-73.png
00000014,129,1,1438964159886,1438964160475,952,280,0,0,0,2,1,1,21,0002-00-0001-09.png,0001-00-0001-34.png
00000014,130,1,1438964161428,1438964162071,299,331,0,0,0,4,5,1,45,0004-00-0000-58.png,0005-00-0001-06.png
00000014,131,1,1438964163059,1438964163108,517,462,0,0,0,3,4,1,34,0003-00-0000-25.png,0004-00-0001-82.png
00000014,132,0,1438964164304,1438964164926,921,414,0,0,0,2,3,1,23,0002-00-0000-61.png,0003-00-0000-38.png
00000014,133,0,1438964167770,1438964168264,316,316,0,0,0,3,2,1,32,0003-00-0000-93.png,0002-00-0000-97.png
00000014,134,1,1438964171243,1438964171873,913,413,0,0,0,4,3,1,43,0004-00-0001-32.png,0003-00-0000-91.png
00000014,135,0,1438964172909,1438964173476,306,342,0,0,0,5,4,1,54,0005-00-0001-63.png,0004-00-0000-28.png
00000014,136,0,1438964176642,1438964177482,911,447,0,0,0,1,2,1,12,0001-00-0001-24.png,0002-00-0001-93.png
00000014,137,1,1438964180888,1438964180916,521,436,0,0,0,2,3,1,23,0002-00-0000-46.png,0003-00-0000-58.png
00000014,138,1,1438964181953,1438964181981,475,441,0,0,0,1,2,1,12,0001-00-0001-47.png,0002-00-0001-92.png
00000014,139,1,1438964183047,1438964183924,318,330,0,0,0,3,4,1,34,0003-00-0001-89.png,0004-00-0001-00.png
00000014,140,1,1438964184934,1438964185480,925,346,0,0,0,2,1,1,21,0002-00-0001-15.png,0001-00-0001-02.png
00000014,141,1,1438964186585,1438964187310,956,329,0,0,0,5,4,1,54,0005-00-0001-57.png,0004-00-0000-08.png
00000014,142,1,1438964188291,1438964189016,350,306,0,0,0,4,5,1,45,0004-00-0001-84.png,0005-00-0001-20.png
00000014,143,0,1438964190052,1438964190605,363,371,0,0,0,3,2,1,32,0003-00-0000-49.png,0002-00-0000-05.png
00000014,144,0,1438964193738,1438964194166,353,344,0,0,0,4,3,1,43,0004-00-0001-64.png,0003-00-0001-24.png
00000014,145,1,1438964197135,1438964197702,336,345,0,0,0,1,2,1,12,0001-00-0000-02.png,0002-00-0001-42.png
00000014,146,1,1438964198658,1438964199258,299,356,0,0,0,3,4,1,34,0003-00-0000-51.png,0004-00-0001-57.png
00000014,147,0,1438964200246,1438964200873,928,362,0,0,0,2,3,1,23,0002-00-0001-39.png,0003-00-0001-32.png
00000014,148,1,1438964203913,1438964204615,887,349,0,0,0,5,4,1,54,0005-00-0000-78.png,0004-00-0000-16.png
00000014,149,0,1438964205584,1438964206127,362,371,0,0,0,4,3,1,43,0004-00-0000-23.png,0003-00-0000-65.png
00000014,150,0,1438964209231,1438964209946,390,470,0,0,0,3,2,1,32,0003-00-0001-06.png,0002-00-0000-47.png
00000014,151,1,1438964213303,1438964213970,273,345,0,0,0,4,5,1,45,0004-00-0000-12.png,0005-00-0001-00.png
00000014,152,1,1438964214974,1438964215675,961,361,0,0,0,2,1,1,21,0002-00-0001-41.png,0001-00-0001-97.png
00000014,153,1,1438964216687,1438964217290,905,423,0,0,0,3,2,1,32,0003-00-0000-87.png,0002-00-0000-10.png
00000014,154,1,1438964218312,1438964218956,908,347,0,0,0,5,4,1,54,0005-00-0000-07.png,0004-00-0001-31.png
00000014,155,1,1438964219963,1438964220708,287,372,0,0,0,3,4,1,34,0003-00-0001-77.png,0004-00-0000-11.png
00000014,156,1,1438964221703,1438964222288,915,428,0,0,0,2,1,1,21,0002-00-0000-69.png,0001-00-0000-71.png
00000014,157,0,1438964223323,1438964223863,920,368,0,0,0,4,5,1,45,0004-00-0000-60.png,0005-00-0001-95.png
00000014,158,0,1438964226787,1438964227360,299,365,0,0,0,4,3,1,43,0004-00-0001-18.png,0003-00-0001-36.png
00000014,159,1,1438964230566,1438964231115,340,430,0,0,0,2,3,1,23,0002-00-0000-22.png,0003-00-0001-71.png
00000014,160,1,1438964232087,1438964232742,235,462,0,0,0,1,2,1,12,0001-00-0000-99.png,0002-00-0000-16.png
00000014,161,0,1438964234081,1438964234667,929,374,0,0,0,4,5,1,45,0004-00-0000-21.png,0005-00-0000-99.png
00000014,162,1,1438964237590,1438964238244,902,417,0,0,0,3,2,1,32,0003-00-0001-64.png,0002-00-0001-48.png
00000014,163,1,1438964239252,1438964239815,261,346,0,0,0,3,4,1,34,0003-00-0001-84.png,0004-00-0001-07.png
00000014,164,1,1438964240862,1438964241439,323,363,0,0,0,1,2,1,12,0001-00-0001-61.png,0002-00-0000-68.png
00000014,165,1,1438964242481,1438964243036,345,385,0,0,0,2,3,1,23,0002-00-0000-21.png,0003-00-0000-01.png
00000014,166,1,1438964244132,1438964244745,913,428,0,0,0,2,1,1,21,0002-00-0001-84.png,0001-00-0001-77.png
00000014,167,1,1438964245742,1438964246321,953,358,0,0,0,4,3,1,43,0004-00-0000-36.png,0003-00-0000-62.png
00000014,168,0,1438964247340,1438964248190,313,306,0,0,0,5,4,1,54,0005-00-0000-98.png,0004-00-0000-02.png
00000014,169,0,1438964251074,1438964251613,389,451,0,0,0,5,4,1,54,0005-00-0000-00.png,0004-00-0000-40.png
00000014,170,0,1438964254543,1438964255029,350,343,0,0,0,2,1,1,21,0002-00-0001-48.png,0001-00-0001-90.png
00000014,171,1,1438964257969,1438964258068,502,540,0,0,0,3,4,1,34,0003-00-0001-99.png,0004-00-0000-05.png
00000014,172,0,1438964259076,1438964259635,915,431,0,0,0,1,2,1,12,0001-00-0000-02.png,0002-00-0000-11.png
00000014,173,1,1438964262502,1438964263270,949,322,0,0,0,3,2,1,32,0003-00-0001-16.png,0002-00-0000-39.png
00000014,174,1,1438964264356,1438964264967,391,450,0,0,0,2,3,1,23,0002-00-0000-21.png,0003-00-0000-25.png
00000014,175,1,1438964265944,1438964266503,903,337,0,0,0,4,3,1,43,0004-00-0000-05.png,0003-00-0001-64.png
00000014,176,0,1438964267516,1438964268144,934,368,0,0,0,4,5,1,45,0004-00-0001-77.png,0005-00-0000-33.png
00000014,177,1,1438964271130,1438964271150,510,368,0,0,0,1,2,1,12,0001-00-0000-69.png,0002-00-0001-38.png
00000014,178,1,1438964272236,1438964272811,919,377,0,0,0,2,1,1,21,0002-00-0001-01.png,0001-00-0000-30.png
00000014,179,1,1438964273796,1438964274390,376,332,0,0,0,3,4,1,34,0003-00-0001-12.png,0004-00-0000-92.png
00000014,180,1,1438964275464,1438964276017,385,495,0,0,0,2,3,1,23,0002-00-0000-03.png,0003-00-0000-90.png
00000014,181,1,1438964277059,1438964277690,921,368,0,0,0,3,2,1,32,0003-00-0000-48.png,0002-00-0001-44.png
00000014,182,1,1438964279077,1438964279776,295,344,0,0,0,4,5,1,45,0004-00-0000-01.png,0005-00-0001-06.png
00000014,183,0,1438964280763,1438964280767,478,436,0,0,0,4,3,1,43,0004-00-0000-69.png,0003-00-0001-66.png
00000014,184,0,1438964283788,1438964283812,512,410,0,0,0,5,4,1,54,0005-00-0000-21.png,0004-00-0000-62.png
00000014,185,1,1438964286647,1438964287218,946,317,0,0,0,4,3,1,43,0004-00-0001-40.png,0003-00-0000-21.png
00000014,186,1,1438964288233,1438964288760,389,464,0,0,0,1,2,1,12,0001-00-0001-67.png,0002-00-0000-82.png
00000014,187,1,1438964289754,1438964290264,376,358,0,0,0,2,3,1,23,0002-00-0001-69.png,0003-00-0001-86.png
00000014,188,1,1438964291271,1438964291323,504,462,0,0,0,4,5,1,45,0004-00-0001-00.png,0005-00-0000-41.png
00000014,189,1,1438964292444,1438964293039,900,333,0,0,0,5,4,1,54,0005-00-0001-70.png,0004-00-0001-75.png
00000014,190,1,1438964294046,1438964294614,204,421,0,0,0,3,4,1,34,0003-00-0000-38.png,0004-00-0001-11.png
00000014,191,1,1438964295736,1438964296311,913,360,0,0,0,2,1,1,21,0002-00-0001-09.png,0001-00-0000-89.png
00000014,192,0,1438964297321,1438964297968,299,335,0,0,0,3,2,1,32,0003-00-0000-01.png,0002-00-0001-18.png
00000014,193,0,1438964300892,1438964300944,504,344,0,0,0,4,3,1,43,0004-00-0000-54.png,0003-00-0000-68.png
00000014,194,0,1438964304102,1438964304666,952,345,0,0,0,2,3,1,23,0002-00-0000-77.png,0003-00-0001-43.png
00000014,195,1,1438964307799,1438964308343,926,371,0,0,0,5,4,1,54,0005-00-0000-34.png,0004-00-0000-40.png
00000014,196,1,1438964309642,1438964310196,325,345,0,0,0,1,2,1,12,0001-00-0001-59.png,0002-00-0000-01.png
00000014,197,0,1438964311261,1438964311843,273,397,0,0,0,2,1,1,21,0002-00-0001-45.png,0001-00-0001-91.png
00000014,198,1,1438964314816,1438964314836,486,333,0,0,0,3,4,1,34,0003-00-0001-04.png,0004-00-0000-83.png
00000014,199,0,1438964315883,1438964316492,320,350,0,0,0,3,2,1,32,0003-00-0000-34.png,0002-00-0000-64.png
00000014,200,1,1438964319598,1438964320046,342,387,0,0,0,4,5,1,45,0004-00-0001-01.png,0005-00-0000-72.png
00000014,201,0,1438964321021,1438964321880,928,388,0,0,0,4,5,1,45,0004-00-0001-48.png,0005-00-0000-07.png
00000014,202,1,1438964324766,1438964325258,387,455,0,0,0,3,4,1,34,0003-00-0000-17.png,0004-00-0001-89.png
00000014,203,1,1438964326226,1438964326903,901,434,0,0,0,5,4,1,54,0005-00-0000-33.png,0004-00-0001-76.png
00000014,204,0,1438964327926,1438964327930,518,462,0,0,0,2,1,1,21,0002-00-0000-98.png,0001-00-0001-50.png
00000014,205,1,1438964330955,1438964331508,956,352,0,0,0,4,3,1,43,0004-00-0001-90.png,0003-00-0000-24.png
00000014,206,1,1438964332437,1438964332920,347,362,0,0,0,2,3,1,23,0002-00-0000-03.png,0003-00-0000-67.png
00000014,207,1,1438964333928,1438964333948,510,420,0,0,0,1,2,1,12,0001-00-0000-27.png,0002-00-0000-10.png
00000014,208,0,1438964335148,1438964335733,292,365,0,0,0,3,2,1,32,0003-00-0000-82.png,0002-00-0001-88.png
00000014,209,0,1438964338846,1438964338858,523,417,0,0,0,2,1,1,21,0002-00-0000-44.png,0001-00-0000-05.png
00000014,210,1,1438964341966,1438964342034,504,410,0,0,0,4,5,1,45,0004-00-0000-28.png,0005-00-0001-18.png
00000014,211,1,1438964342984,1438964343642,900,393,0,0,0,5,4,1,54,0005-00-0000-13.png,0004-00-0000-77.png
00000014,212,1,1438964344742,1438964345313,286,383,0,0,0,2,3,1,23,0002-00-0000-19.png,0003-00-0001-25.png
00000014,213,0,1438964346298,1438964346928,350,358,0,0,0,3,2,1,32,0003-00-0000-85.png,0002-00-0001-56.png
00000014,214,1,1438964350036,1438964350554,323,358,0,0,0,1,2,1,12,0001-00-0001-99.png,0002-00-0000-40.png
00000014,215,0,1438964351548,1438964352048,316,391,0,0,0,4,3,1,43,0004-00-0001-95.png,0003-00-0000-05.png
00000014,216,1,1438964355305,1438964355784,359,482,0,0,0,3,4,1,34,0003-00-0000-11.png,0004-00-0001-28.png
00000014,217,0,1438964356745,1438964356765,509,427,0,0,0,3,2,1,32,0003-00-0001-16.png,0002-00-0000-79.png
00000014,218,1,1438964359654,1438964359674,520,394,0,0,0,3,4,1,34,0003-00-0000-18.png,0004-00-0000-36.png
00000014,219,0,1438964360750,1438964361292,349,367,0,0,0,2,1,1,21,0002-00-0000-86.png,0001-00-0000-70.png
00000014,220,1,1438964364503,1438964364993,297,391,0,0,0,2,3,1,23,0002-00-0000-96.png,0003-00-0001-38.png
00000014,221,0,1438964365946,1438964366673,924,370,0,0,0,1,2,1,12,0001-00-0001-77.png,0002-00-0001-97.png
00000014,222,0,1438964369542,1438964370035,315,338,0,0,0,5,4,1,54,0005-00-0000-10.png,0004-00-0001-35.png
00000014,223,1,1438964373371,1438964373817,350,358,0,0,0,4,5,1,45,0004-00-0000-23.png,0005-00-0000-85.png
00000014,224,0,1438964374879,1438964375390,376,332,0,0,0,4,3,1,43,0004-00-0000-67.png,0003-00-0000-52.png
00000014,225,1,1438964378337,1438964378354,512,345,0,0,0,3,4,1,34,0003-00-0001-57.png,0004-00-0001-72.png
00000014,226,1,1438964379389,1438964379957,913,358,0,0,0,2,1,1,21,0002-00-0000-42.png,0001-00-0001-27.png
00000014,227,1,1438964380963,1438964381635,314,328,0,0,0,1,2,1,12,0001-00-0000-46.png,0002-00-0000-02.png
00000014,228,0,1438964382612,1438964383181,332,363,0,0,0,3,2,1,32,0003-00-0001-55.png,0002-00-0001-52.png
00000014,229,1,1438964386138,1438964386700,906,411,0,0,0,4,3,1,43,0004-00-0001-55.png,0003-00-0001-36.png
00000014,230,1,1438964387718,1438964388363,306,359,0,0,0,4,5,1,45,0004-00-0001-73.png,0005-00-0001-81.png
00000014,231,0,1438964389301,1438964389369,520,502,0,0,0,5,4,1,54,0005-00-0000-16.png,0004-00-0001-11.png
00000014,232,1,1438964392308,1438964392864,383,471,0,0,0,2,3,1,23,0002-00-0000-75.png,0003-00-0000-79.png
00000014,233,1,1438964393803,1438964394387,327,391,0,0,0,1,2,1,12,0001-00-0001-05.png,0002-00-0000-60.png
00000014,234,0,1438964395432,1438964395984,350,371,0,0,0,4,3,1,43,0004-00-0000-74.png,0003-00-0001-14.png
00000014,235,1,1438964398888,1438964398916,521,453,0,0,0,2,3,1,23,0002-00-0001-51.png,0003-00-0000-24.png
00000014,236,0,1438964400766,1438964401250,306,384,0,0,0,2,1,1,21,0002-00-0000-64.png,0001-00-0001-81.png
00000014,237,0,1438964404084,1438964404573,341,450,0,0,0,3,2,1,32,0003-00-0001-96.png,0002-00-0000-47.png
00000014,238,0,1438964407674,1438964408228,964,358,0,0,0,3,4,1,34,0003-00-0001-73.png,0004-00-0001-74.png
00000014,239,1,1438964411158,1438964411718,926,320,0,0,0,5,4,1,54,0005-00-0000-71.png,0004-00-0001-47.png
00000014,240,1,1438964412653,1438964413590,333,353,0,0,0,4,5,1,45,0004-00-0001-16.png,0005-00-0000-65.png
00000014,241,0,1438964414761,1438964414785,520,514,0,0,0,2,1,1,21,0002-00-0000-76.png,0001-00-0001-89.png
00000014,242,1,1438964417860,1438964418405,920,363,0,0,0,3,2,1,32,0003-00-0000-75.png,0002-00-0000-80.png
00000014,243,0,1438964419409,1438964420405,222,436,0,0,0,5,4,1,54,0005-00-0001-00.png,0004-00-0000-20.png
00000014,244,1,1438964423584,1438964424276,359,461,0,0,0,2,3,1,23,0002-00-0001-22.png,0003-00-0000-89.png
00000014,245,0,1438964425316,1438964425859,300,384,0,0,0,4,3,1,43,0004-00-0001-01.png,0003-00-0000-28.png
00000014,246,1,1438964428805,1438964429278,376,306,0,0,0,1,2,1,12,0001-00-0000-14.png,0002-00-0001-78.png
00000014,247,0,1438964430265,1438964430808,925,360,0,0,0,3,4,1,34,0003-00-0000-03.png,0004-00-0000-49.png
00000014,248,1,1438964433760,1438964433796,497,374,0,0,0,4,5,1,45,0004-00-0000-85.png,0005-00-0001-13.png
00000014,249,1,1438964434845,1438964435369,299,391,0,0,0,3,4,1,34,0003-00-0000-69.png,0004-00-0001-63.png
00000014,250,0,1438964436344,1438964436356,493,410,0,0,0,5,4,1,54,0005-00-0001-58.png,0004-00-0001-57.png
00000014,251,0,1438964439293,1438964439801,336,358,0,0,0,2,1,1,21,0002-00-0000-74.png,0001-00-0000-79.png
00000014,252,0,1438964442934,1438964443415,319,385,0,0,0,3,2,1,32,0003-00-0000-24.png,0002-00-0001-31.png
00000014,253,1,1438964446465,1438964447035,297,384,0,0,0,2,3,1,23,0002-00-0001-16.png,0003-00-0000-83.png
00000014,254,1,1438964448013,1438964448537,344,402,0,0,0,4,5,1,45,0004-00-0001-01.png,0005-00-0001-84.png
00000014,255,0,1438964449558,1438964450169,325,371,0,0,0,4,3,1,43,0004-00-0000-36.png,0003-00-0001-62.png
00000014,256,1,1438964453017,1438964453045,491,419,0,0,0,1,2,1,12,0001-00-0000-34.png,0002-00-0000-84.png
00000014,257,1,1438964454134,1438964454607,368,473,0,0,0,3,4,1,34,0003-00-0001-64.png,0004-00-0000-94.png
00000014,258,0,1438964455606,1438964456261,927,373,0,0,0,1,2,1,12,0001-00-0001-36.png,0002-00-0000-81.png
00000014,259,0,1438964459350,1438964459863,304,381,0,0,0,2,1,1,21,0002-00-0001-76.png,0001-00-0000-65.png
00000014,260,1,1438964463076,1438964463571,335,343,0,0,0,2,3,1,23,0002-00-0000-52.png,0003-00-0001-89.png
00000014,261,1,1438964464648,1438964465485,913,332,0,0,0,4,3,1,43,0004-00-0000-82.png,0003-00-0000-80.png
00000014,262,0,1438964466497,1438964467051,299,397,0,0,0,3,2,1,32,0003-00-0000-21.png,0002-00-0000-33.png
00000014,263,0,1438964469932,1438964470612,310,363,0,0,0,5,4,1,54,0005-00-0001-21.png,0004-00-0000-60.png
00000014,264,1,1438964473640,1438964473668,512,368,0,0,0,4,5,1,45,0004-00-0000-64.png,0005-00-0001-72.png
00000014,265,1,1438964474706,1438964475276,881,457,0,0,0,2,1,1,21,0002-00-0001-83.png,0001-00-0001-23.png
00000014,266,0,1438964476236,1438964476835,967,345,0,0,0,2,3,1,23,0002-00-0000-75.png,0003-00-0001-43.png
00000014,267,1,1438964479873,1438964480506,866,337,0,0,0,3,2,1,32,0003-00-0001-73.png,0002-00-0001-99.png
00000014,268,1,1438964481423,1438964482147,873,327,0,0,0,4,3,1,43,0004-00-0000-23.png,0003-00-0000-21.png
00000014,269,0,1438964483134,1438964483694,907,450,0,0,0,3,4,1,34,0003-00-0000-02.png,0004-00-0001-95.png
00000014,270,1,1438964486556,1438964487127,350,397,0,0,0,1,2,1,12,0001-00-0001-41.png,0002-00-0001-91.png
00000014,271,0,1438964488160,1438964488742,267,368,0,0,0,5,4,1,54,0005-00-0000-67.png,0004-00-0000-81.png
00000014,272,1,1438964491787,1438964492471,292,364,0,0,0,4,5,1,45,0004-00-0000-78.png,0005-00-0000-89.png
00000014,273,1,1438964493429,1438964494112,401,358,0,0,0,1,2,1,12,0001-00-0001-08.png,0002-00-0000-90.png
00000014,274,1,1438964495404,1438964495919,273,370,0,0,0,3,4,1,34,0003-00-0000-36.png,0004-00-0001-49.png
00000014,275,0,1438964496919,1438964496947,512,481,0,0,0,4,3,1,43,0004-00-0001-88.png,0003-00-0001-90.png
00000014,276,1,1438964499997,1438964500549,385,378,0,0,0,2,3,1,23,0002-00-0001-49.png,0003-00-0000-70.png
00000014,277,1,1438964501590,1438964502239,917,397,0,0,0,3,2,1,32,0003-00-0000-08.png,0002-00-0000-49.png
00000014,278,0,1438964503229,1438964503809,350,395,0,0,0,2,1,1,21,0002-00-0000-55.png,0001-00-0001-21.png
00000014,279,1,1438964506664,1438964507208,386,456,0,0,0,4,5,1,45,0004-00-0000-55.png,0005-00-0000-79.png
00000014,280,0,1438964508204,1438964508808,318,401,0,0,0,5,4,1,54,0005-00-0000-17.png,0004-00-0000-92.png
00000014,281,0,1438964511932,1438964512374,325,410,0,0,0,4,3,1,43,0004-00-0000-16.png,0003-00-0001-08.png
00000014,282,1,1438964529412,1438964530221,409,463,0,0,0,1,2,1,12,0001-00-0000-59.png,0002-00-0001-77.png
00000014,283,1,1438964531314,1438964531879,893,468,0,0,0,3,2,1,32,0003-00-0000-78.png,0002-00-0001-07.png
00000014,284,0,1438964532825,1438964533412,922,474,0,0,0,2,3,1,23,0002-00-0001-38.png,0003-00-0001-32.png
00000014,285,0,1438964547366,1438964548110,300,331,0,0,0,2,1,1,21,0002-00-0000-94.png,0001-00-0001-50.png
00000014,286,1,1438964552320,1438964552794,340,374,0,0,0,4,5,1,45,0004-00-0001-64.png,0005-00-0000-06.png
00000014,287,1,1438964553703,1438964554339,391,489,0,0,0,3,4,1,34,0003-00-0001-35.png,0004-00-0000-46.png
00000014,288,0,1438964555254,1438964555849,401,488,0,0,0,5,4,1,54,0005-00-0000-83.png,0004-00-0001-21.png
00000014,289,1,1438964562398,1438964562962,315,355,0,0,0,1,2,1,12,0001-00-0000-73.png,0002-00-0001-83.png
00000014,290,0,1438964564015,1438964564529,897,480,0,0,0,4,5,1,45,0004-00-0001-11.png,0005-00-0000-89.png
00000014,291,0,1438964567389,1438964567413,523,340,0,0,0,3,2,1,32,0003-00-0001-89.png,0002-00-0001-86.png
00000014,292,1,1438964570333,1438964570345,512,456,0,0,0,2,3,1,23,0002-00-0000-67.png,0003-00-0001-93.png
00000014,293,0,1438964571322,1438964571832,286,358,0,0,0,4,3,1,43,0004-00-0001-65.png,0003-00-0001-27.png
00000014,294,1,1438964576826,1438964577609,964,384,0,0,0,2,1,1,21,0002-00-0000-71.png,0001-00-0001-12.png
00000014,295,0,1438964578522,1438964579673,324,410,0,0,0,5,4,1,54,0005-00-0001-20.png,0004-00-0000-39.png
00000014,296,0,1438964585473,1438964586443,913,442,0,0,0,3,4,1,34,0003-00-0000-54.png,0004-00-0000-93.png
00000014,297,1,1438964589496,1438964590067,338,372,0,0,0,2,3,1,23,0002-00-0001-74.png,0003-00-0000-58.png
00000014,298,1,1438964590987,1438964592047,925,475,0,0,0,4,3,1,43,0004-00-0000-51.png,0003-00-0000-58.png
00000014,299,0,1438964592965,1438964593550,350,358,0,0,0,2,1,1,21,0002-00-0000-52.png,0001-00-0001-14.png
00000014,300,1,1438964596628,1438964597155,324,380,0,0,0,4,5,1,45,0004-00-0001-54.png,0005-00-0000-77.png
00000014,301,0,1438964598143,1438964598728,299,348,0,0,0,5,4,1,54,0005-00-0001-75.png,0004-00-0000-88.png
00000014,302,0,1438964610750,1438964611355,923,379,0,0,0,1,2,1,12,0001-00-0001-01.png,0002-00-0001-59.png
00000014,303,1,1438964614213,1438964614794,401,384,0,0,0,3,4,1,34,0003-00-0000-53.png,0004-00-0001-51.png
00000014,304,0,1438964615811,1438964616346,337,382,0,0,0,3,2,1,32,0003-00-0001-54.png,0002-00-0001-24.png
00000014,305,1,1438964619196,1438964619683,376,384,0,0,0,2,3,1,23,0002-00-0001-94.png,0003-00-0000-72.png
00000014,306,0,1438964620620,1438964621176,952,371,0,0,0,1,2,1,12,0001-00-0001-76.png,0002-00-0000-80.png
00000014,307,0,1438964625153,1438964625756,909,414,0,0,0,3,4,1,34,0003-00-0001-08.png,0004-00-0001-46.png
00000014,308,1,1438964629115,1438964630030,952,356,0,0,0,3,2,1,32,0003-00-0000-81.png,0002-00-0000-89.png
00000014,309,1,1438964631340,1438964631925,350,371,0,0,0,4,5,1,45,0004-00-0000-71.png,0005-00-0000-38.png
00000014,310,0,1438964632875,1438964633530,248,462,0,0,0,2,1,1,21,0002-00-0001-21.png,0001-00-0000-43.png
00000014,311,1,1438964637805,1438964638390,929,422,0,0,0,5,4,1,54,0005-00-0000-03.png,0004-00-0000-87.png
00000014,312,1,1438964639441,1438964640283,951,438,0,0,0,4,3,1,43,0004-00-0000-23.png,0003-00-0000-92.png
00000014,313,1,1438964641226,1438964641773,350,384,0,0,0,1,2,1,12,0001-00-0001-59.png,0002-00-0000-18.png
00000014,314,0,1438964642746,1438964643275,326,385,0,0,0,4,3,1,43,0004-00-0000-23.png,0003-00-0001-96.png
00000014,315,1,1438964646360,1438964647251,953,364,0,0,0,5,4,1,54,0005-00-0001-74.png,0004-00-0000-22.png
00000014,316,1,1438964648175,1438964648208,504,505,0,0,0,4,5,1,45,0004-00-0001-79.png,0005-00-0000-75.png
00000014,317,1,1438964649670,1438964650215,376,384,0,0,0,2,3,1,23,0002-00-0000-54.png,0003-00-0000-42.png
00000014,318,0,1438964651547,1438964652085,379,466,0,0,0,3,2,1,32,0003-00-0001-17.png,0002-00-0000-19.png
00000014,319,1,1438964655074,1438964655620,925,307,0,0,0,2,1,1,21,0002-00-0001-37.png,0001-00-0000-85.png
00000014,320,0,1438964656575,1438964657122,898,484,0,0,0,3,4,1,34,0003-00-0000-04.png,0004-00-0001-72.png
00000014,321,1,1438964660184,1438964660794,322,353,0,0,0,3,4,1,34,0003-00-0001-12.png,0004-00-0001-25.png
00000014,322,1,1438964661716,1438964662388,294,394,0,0,0,1,2,1,12,0001-00-0000-29.png,0002-00-0000-81.png
00000014,323,1,1438964663728,1438964664691,876,443,0,0,0,2,1,1,21,0002-00-0000-38.png,0001-00-0001-86.png
00000014,324,1,1438964665583,1438964666166,928,457,0,0,0,4,3,1,43,0004-00-0000-21.png,0003-00-0001-57.png
00000014,325,0,1438964667114,1438964667665,346,368,0,0,0,5,4,1,54,0005-00-0001-63.png,0004-00-0001-12.png
00000014,326,1,1438964670746,1438964671281,904,401,0,0,0,3,2,1,32,0003-00-0000-38.png,0002-00-0000-03.png
00000014,327,0,1438964672271,1438964672811,876,374,0,0,0,2,3,1,23,0002-00-0000-10.png,0003-00-0000-37.png
00000014,328,1,1438964677558,1438964678101,313,388,0,0,0,4,5,1,45,0004-00-0000-73.png,0005-00-0000-73.png
00000014,329,1,1438964679038,1438964679910,929,432,0,0,0,3,2,1,32,0003-00-0000-24.png,0002-00-0000-86.png
00000014,330,1,1438964680876,1438964681549,925,449,0,0,0,2,1,1,21,0002-00-0000-49.png,0001-00-0000-81.png
00000014,331,1,1438964682456,1438964683111,940,413,0,0,0,5,4,1,54,0005-00-0001-58.png,0004-00-0000-36.png
00000014,332,1,1438964684057,1438964684750,350,371,0,0,0,4,5,1,45,0004-00-0000-12.png,0005-00-0000-85.png
00000014,333,1,1438964685655,1438964686306,926,388,0,0,0,4,3,1,43,0004-00-0000-47.png,0003-00-0001-18.png
00000014,334,1,1438964687191,1438964687224,510,446,0,0,0,3,4,1,34,0003-00-0001-44.png,0004-00-0000-51.png
00000014,335,0,1438964688321,1438964688844,924,371,0,0,0,1,2,1,12,0001-00-0000-93.png,0002-00-0000-11.png
00000014,336,0,1438964691901,1438964692488,908,423,0,0,0,2,3,1,23,0002-00-0000-77.png,0003-00-0000-87.png
00000014,337,1,1438964695571,1438964695599,514,436,0,0,0,2,3,1,23,0002-00-0000-53.png,0003-00-0001-88.png
00000014,338,0,1438964696674,1438964697197,943,404,0,0,0,4,5,1,45,0004-00-0001-90.png,0005-00-0001-06.png
00000014,339,1,1438964700227,1438964700935,913,430,0,0,0,2,1,1,21,0002-00-0001-44.png,0001-00-0000-56.png
00000014,340,1,1438964701863,1438964702466,320,395,0,0,0,1,2,1,12,0001-00-0000-10.png,0002-00-0001-53.png
00000014,341,0,1438964703455,1438964704031,298,358,0,0,0,5,4,1,54,0005-00-0000-98.png,0004-00-0000-57.png
00000014,342,0,1438964707009,1438964707471,337,370,0,0,0,4,3,1,43,0004-00-0000-34.png,0003-00-0001-24.png
00000014,343,0,1438964711315,1438964711838,303,353,0,0,0,3,2,1,32,0003-00-0000-17.png,0002-00-0001-04.png
00000014,344,0,1438964714969,1438964715675,927,417,0,0,0,3,4,1,34,0003-00-0000-36.png,0004-00-0000-50.png
00000014,345,1,1438964718576,1438964719019,364,434,0,0,0,3,4,1,34,0003-00-0000-02.png,0004-00-0000-92.png
00000014,346,0,1438964719976,1438964720673,937,360,0,0,0,2,3,1,23,0002-00-0001-24.png,0003-00-0000-31.png
00000014,347,0,1438964723673,1438964724351,964,381,0,0,0,4,5,1,45,0004-00-0001-75.png,0005-00-0001-77.png
00000014,348,1,1438964727240,1438964727906,341,377,0,0,0,1,2,1,12,0001-00-0001-87.png,0002-00-0000-64.png
00000014,349,0,1438964728874,1438964729531,401,332,0,0,0,5,4,1,54,0005-00-0000-73.png,0004-00-0000-42.png
00000014,350,1,1438964732402,1438964733217,921,408,0,0,0,2,1,1,21,0002-00-0001-24.png,0001-00-0001-17.png
00000014,351,0,1438964734141,1438964734821,323,372,0,0,0,3,2,1,32,0003-00-0000-13.png,0002-00-0001-42.png
00000014,352,0,1438964744191,1438964744215,521,404,0,0,0,4,3,1,43,0004-00-0000-40.png,0003-00-0001-69.png
00000014,353,1,1438964747391,1438964748689,902,439,0,0,0,5,4,1,54,0005-00-0000-48.png,0004-00-0000-89.png
00000014,354,1,1438964749607,1438964750320,309,343,0,0,0,4,5,1,45,0004-00-0000-99.png,0005-00-0001-17.png
00000014,355,0,1438964751256,1438964751979,929,377,0,0,0,1,2,1,12,0001-00-0000-92.png,0002-00-0000-74.png
00000014,356,1,1438964755091,1438964755759,951,358,0,0,0,2,1,1,21,0002-00-0001-97.png,0001-00-0001-62.png
00000014,357,0,1438964756674,1438964757229,319,395,0,0,0,4,3,1,43,0004-00-0001-42.png,0003-00-0000-01.png
00000014,358,0,1438964760171,1438964760745,873,279,0,0,0,3,4,1,34,0003-00-0001-00.png,0004-00-0000-48.png
00000014,359,1,1438964765737,1438964766314,932,376,0,0,0,3,2,1,32,0003-00-0000-10.png,0002-00-0000-16.png
00000014,360,1,1438964767325,1438964767986,350,345,0,0,0,2,3,1,23,0002-00-0000-61.png,0003-00-0001-06.png
00000014,361,0,1438964768974,1438964769540,376,372,0,0,0,4,3,1,43,0004-00-0001-56.png,0003-00-0000-22.png
00000014,362,1,1438964772590,1438964773132,338,375,0,0,0,4,5,1,45,0004-00-0001-10.png,0005-00-0000-49.png
00000014,363,1,1438964774093,1438964774676,888,355,0,0,0,2,1,1,21,0002-00-0001-53.png,0001-00-0001-85.png
00000014,364,0,1438964775646,1438964776274,931,376,0,0,0,3,4,1,34,0003-00-0001-70.png,0004-00-0001-70.png
00000014,365,1,1438964779147,1438964779775,944,355,0,0,0,5,4,1,54,0005-00-0001-23.png,0004-00-0001-49.png
00000014,366,1,1438964780725,1438964781348,921,394,0,0,0,3,2,1,32,0003-00-0000-95.png,0002-00-0000-37.png
00000014,367,1,1438964782331,1438964783138,376,378,0,0,0,1,2,1,12,0001-00-0001-94.png,0002-00-0001-20.png
00000014,368,0,1438964784129,1438964784693,928,401,0,0,0,2,3,1,23,0002-00-0001-99.png,0003-00-0001-17.png
00000014,369,1,1438964787717,1438964787733,492,313,0,0,0,1,2,1,12,0001-00-0001-40.png,0002-00-0001-02.png
00000014,370,0,1438964788741,1438964789336,913,371,0,0,0,2,3,1,23,0002-00-0001-90.png,0003-00-0000-18.png
00000014,371,0,1438964792404,1438964792912,328,385,0,0,0,4,3,1,43,0004-00-0000-00.png,0003-00-0000-70.png
00000014,372,0,1438964796310,1438964796996,423,520,0,0,0,3,2,1,32,0003-00-0000-57.png,0002-00-0001-15.png
00000014,373,0,1438964799916,1438964799928,517,357,0,0,0,5,4,1,54,0005-00-0000-62.png,0004-00-0000-91.png
00000014,374,0,1438964804523,1438964805004,930,322,0,0,0,3,4,1,34,0003-00-0000-48.png,0004-00-0001-42.png
00000014,375,1,1438964807937,1438964808477,376,332,0,0,0,4,5,1,45,0004-00-0000-43.png,0005-00-0000-31.png
00000014,376,0,1438964809490,1438964810092,350,344,0,0,0,2,1,1,21,0002-00-0000-88.png,0001-00-0000-95.png
00000014,377,0,1438964813146,1438964813726,945,364,0,0,0,2,3,1,23,0002-00-0000-47.png,0003-00-0001-82.png
00000014,378,1,1438964816736,1438964817360,974,405,0,0,0,4,3,1,43,0004-00-0000-69.png,0003-00-0000-42.png
00000014,379,1,1438964818306,1438964818932,942,386,0,0,0,5,4,1,54,0005-00-0000-85.png,0004-00-0001-18.png
00000014,380,0,1438964819907,1438964820545,917,428,0,0,0,3,4,1,34,0003-00-0001-24.png,0004-00-0000-09.png
00000014,381,0,1438964823443,1438964824037,888,290,0,0,0,1,2,1,12,0001-00-0001-36.png,0002-00-0001-41.png
00000014,382,0,1438964827009,1438964827723,314,321,0,0,0,3,2,1,32,0003-00-0000-47.png,0002-00-0001-52.png
00000014,383,1,1438964830636,1438964830660,499,471,0,0,0,4,5,1,45,0004-00-0000-07.png,0005-00-0000-95.png
00000014,384,0,1438964831660,1438964832202,305,411,0,0,0,2,1,1,21,0002-00-0000-16.png,0001-00-0001-14.png
00000014,385,1,1438964835161,1438964835192,496,470,0,0,0,4,5,1,45,0004-00-0001-10.png,0005-00-0001-11.png
00000014,386,0,1438964836232,1438964836808,955,378,0,0,0,2,3,1,23,0002-00-0000-86.png,0003-00-0000-51.png
00000014,387,0,1438964839995,1438964840507,315,396,0,0,0,4,3,1,43,0004-00-0000-55.png,0003-00-0001-01.png
00000014,388,0,1438964845545,1438964846129,293,349,0,0,0,3,2,1,32,0003-00-0001-32.png,0002-00-0001-53.png
00000014,389,1,1438964849049,1438964849848,921,446,0,0,0,5,4,1,54,0005-00-0000-31.png,0004-00-0000-57.png
00000014,390,0,1438964850842,1438964851423,895,472,0,0,0,3,4,1,34,0003-00-0000-62.png,0004-00-0000-63.png
00000014,391,0,1438964854574,1438964855289,951,320,0,0,0,1,2,1,12,0001-00-0001-66.png,0002-00-0001-66.png
00000014,392,0,1438964858163,1438964858820,325,372,0,0,0,2,1,1,21,0002-00-0000-44.png,0001-00-0001-81.png
00000014,393,1,1438964862906,1438964863444,946,403,0,0,0,5,4,1,54,0005-00-0001-50.png,0004-00-0001-33.png
00000014,394,1,1438964864469,1438964865458,312,381,0,0,0,4,5,1,45,0004-00-0000-95.png,0005-00-0001-23.png
00000014,395,1,1438964866504,1438964867175,894,343,0,0,0,3,2,1,32,0003-00-0000-89.png,0002-00-0000-61.png
00000014,396,1,1438964868022,1438964868676,897,483,0,0,0,4,3,1,43,0004-00-0001-27.png,0003-00-0000-91.png
00000014,397,0,1438964869563,1438964881885,941,500,0,0,0,1,2,1,12,0001-00-0000-22.png,0002-00-0001-08.png
00000014,398,0,1438964892298,1438964893034,879,355,0,0,0,3,4,1,34,0003-00-0000-81.png,0004-00-0001-10.png
00000014,399,1,1438964896094,1438964896678,926,357,0,0,0,2,1,1,21,0002-00-0000-87.png,0001-00-0001-04.png
00000014,400,0,1438964897610,1438964898190,938,424,0,0,0,2,3,1,23,0002-00-0001-22.png,0003-00-0001-46.png
00000014,401,1,1438964901183,1438964901726,956,374,0,0,0,2,1,1,21,0002-00-0001-91.png,0001-00-0000-77.png
00000014,402,0,1438964902654,1438964903195,928,339,0,0,0,4,5,1,45,0004-00-0001-40.png,0005-00-0000-40.png
00000014,403,1,1438964906245,1438964906840,376,359,0,0,0,1,2,1,12,0001-00-0001-89.png,0002-00-0000-72.png
00000014,404,1,1438964907778,1438964908499,334,389,0,0,0,2,3,1,23,0002-00-0000-78.png,0003-00-0001-79.png
00000014,405,0,1438964909528,1438964910084,350,397,0,0,0,3,2,1,32,0003-00-0000-81.png,0002-00-0001-22.png
00000014,406,0,1438964912918,1438964913655,323,400,0,0,0,4,3,1,43,0004-00-0001-57.png,0003-00-0001-34.png
00000014,407,1,1438964918874,1438964919564,380,441,0,0,0,3,4,1,34,0003-00-0000-16.png,0004-00-0000-01.png
00000014,408,0,1438964920610,1438964921304,325,345,0,0,0,5,4,1,54,0005-00-0000-26.png,0004-00-0000-56.png
00000014,409,0,1438964924257,1438964924849,354,375,0,0,0,4,3,1,43,0004-00-0000-93.png,0003-00-0000-67.png
00000014,410,1,1438964927812,1438964927840,504,360,0,0,0,1,2,1,12,0001-00-0001-69.png,0002-00-0001-53.png
00000014,411,0,1438964928798,1438964929403,922,429,0,0,0,2,3,1,23,0002-00-0000-25.png,0003-00-0000-80.png
00000014,412,1,1438964932642,1438964933075,367,498,0,0,0,4,5,1,45,0004-00-0001-33.png,0005-00-0000-55.png
00000014,413,1,1438964933972,1438964934498,870,341,0,0,0,2,1,1,21,0002-00-0001-31.png,0001-00-0001-82.png
00000014,414,0,1438964935467,1438964936124,394,374,0,0,0,5,4,1,54,0005-00-0001-59.png,0004-00-0000-48.png
00000014,415,1,1438964939207,1438964939828,911,440,0,0,0,3,2,1,32,0003-00-0001-21.png,0002-00-0001-62.png
00000014,416,0,1438964940753,1438964941309,936,372,0,0,0,3,4,1,34,0003-00-0000-83.png,0004-00-0001-80.png
00000014,417,0,1438964944456,1438964945069,354,452,0,0,0,4,3,1,43,0004-00-0000-92.png,0003-00-0000-11.png
00000014,418,1,1438964960494,1438964961009,289,319,0,0,0,4,5,1,45,0004-00-0001-56.png,0005-00-0001-13.png
00000014,419,0,1438964961999,1438964962641,913,463,0,0,0,1,2,1,12,0001-00-0000-59.png,0002-00-0000-02.png
00000014,420,1,1438964966030,1438964966535,951,410,0,0,0,2,1,1,21,0002-00-0001-05.png,0001-00-0001-62.png
00000014,421,1,1438964972840,1438964973733,964,384,0,0,0,3,2,1,32,0003-00-0000-66.png,0002-00-0001-00.png
00000014,422,0,1438964974681,1438964975198,951,370,0,0,0,2,3,1,23,0002-00-0000-89.png,0003-00-0001-28.png
00000014,423,0,1438964978085,1438964978885,933,419,0,0,0,3,4,1,34,0003-00-0001-25.png,0004-00-0000-40.png
00000014,424,1,1438964981761,1438964983063,924,457,0,0,0,5,4,1,54,0005-00-0001-73.png,0004-00-0000-25.png
00000014,425,1,1438964984030,1438964984593,351,371,0,0,0,2,3,1,23,0002-00-0001-73.png,0003-00-0000-03.png
00000014,426,1,1438964985559,1438964986128,900,449,0,0,0,4,3,1,43,0004-00-0000-94.png,0003-00-0000-82.png
00000014,427,1,1438964987091,1438964987786,345,376,0,0,0,3,4,1,34,0003-00-0000-44.png,0004-00-0001-66.png
00000014,428,0,1438964988781,1438964989386,937,372,0,0,0,4,5,1,45,0004-00-0000-85.png,0005-00-0001-98.png
00000014,429,0,1438964992367,1438964992892,390,468,0,0,0,3,2,1,32,0003-00-0000-30.png,0002-00-0000-60.png
00000014,430,0,1438964995742,1438964995767,522,427,0,0,0,2,1,1,21,0002-00-0001-98.png,0001-00-0001-69.png
00000014,431,1,1438964998603,1438964999635,947,335,0,0,0,5,4,1,54,0005-00-0000-00.png,0004-00-0000-49.png
00000014,432,1,1438965000614,1438965001240,354,425,0,0,0,1,2,1,12,0001-00-0000-96.png,0002-00-0001-12.png
00000014,433,1,1438965002203,1438965002791,358,375,0,0,0,3,4,1,34,0003-00-0000-08.png,0004-00-0000-13.png
00000014,434,1,1438965003717,1438965004937,345,383,0,0,0,1,2,1,12,0001-00-0000-12.png,0002-00-0000-97.png
00000014,435,0,1438965005943,1438965006377,293,379,0,0,0,4,3,1,43,0004-00-0000-82.png,0003-00-0001-25.png
00000014,436,0,1438965009217,1438965009974,932,348,0,0,0,4,5,1,45,0004-00-0001-29.png,0005-00-0001-93.png
00000014,437,1,1438965013006,1438965013524,880,323,0,0,0,2,1,1,21,0002-00-0000-91.png,0001-00-0001-44.png
00000014,438,1,1438965014466,1438965015048,916,392,0,0,0,3,2,1,32,0003-00-0000-09.png,0002-00-0001-62.png
00000014,439,1,1438965016030,1438965016867,920,419,0,0,0,5,4,1,54,0005-00-0000-77.png,0004-00-0001-18.png
00000014,440,1,1438965017819,1438965018589,322,324,0,0,0,2,3,1,23,0002-00-0000-10.png,0003-00-0000-18.png
00000014,441,1,1438965019536,1438965020146,947,368,0,0,0,3,2,1,32,0003-00-0000-56.png,0002-00-0001-58.png
00000014,442,0,1438965021035,1438965021059,500,462,0,0,0,2,1,1,21,0002-00-0000-07.png,0001-00-0000-83.png
00000014,443,1,1438965023984,1438965024583,357,359,0,0,0,3,4,1,34,0003-00-0001-94.png,0004-00-0000-06.png
00000014,444,1,1438965025549,1438965026082,320,369,0,0,0,2,3,1,23,0002-00-0001-60.png,0003-00-0000-64.png
00000014,445,1,1438965026998,1438965027630,917,403,0,0,0,5,4,1,54,0005-00-0001-13.png,0004-00-0001-76.png
00000014,446,1,1438965028658,1438965029304,933,388,0,0,0,4,3,1,43,0004-00-0000-89.png,0003-00-0001-20.png
00000014,447,1,1438965030174,1438965030207,519,436,0,0,0,4,5,1,45,0004-00-0001-94.png,0005-00-0001-07.png
00000014,448,1,1438965031210,1438965031761,376,371,0,0,0,1,2,1,12,0001-00-0001-71.png,0002-00-0001-22.png
00000014,449,0,1438965032691,1438965032711,470,461,0,0,0,5,4,1,54,0005-00-0000-22.png,0004-00-0001-15.png
00000014,450,1,1438965035813,1438965036316,273,421,0,0,0,2,3,1,23,0002-00-0000-27.png,0003-00-0001-53.png
00000014,451,1,1438965037226,1438965037870,350,358,0,0,0,4,5,1,45,0004-00-0000-75.png,0005-00-0001-35.png
00000014,452,1,1438965038848,1438965039434,912,398,0,0,0,2,1,1,21,0002-00-0001-24.png,0001-00-0001-33.png
00000014,453,0,1438965040362,1438965040382,511,417,0,0,0,3,2,1,32,0003-00-0001-02.png,0002-00-0001-19.png
00000014,454,0,1438965043288,1438965043824,932,349,0,0,0,1,2,1,12,0001-00-0000-23.png,0002-00-0001-07.png
00000014,455,1,1438965046981,1438965047476,373,467,0,0,0,3,4,1,34,0003-00-0000-96.png,0004-00-0001-91.png
00000014,456,1,1438965048445,1438965049033,957,350,0,0,0,4,3,1,43,0004-00-0000-83.png,0003-00-0000-80.png
00000014,457,1,1438965050022,1438965050644,877,491,0,0,0,2,1,1,21,0002-00-0001-96.png,0001-00-0000-83.png
00000014,458,1,1438965051554,1438965051578,520,436,0,0,0,2,3,1,23,0002-00-0000-98.png,0003-00-0000-06.png
00000014,459,0,1438965052646,1438965053243,916,395,0,0,0,4,5,1,45,0004-00-0001-66.png,0005-00-0001-30.png
00000014,460,1,1438965056171,1438965056713,918,342,0,0,0,5,4,1,54,0005-00-0000-38.png,0004-00-0000-24.png
00000014,461,1,1438965057667,1438965058321,963,359,0,0,0,3,2,1,32,0003-00-0000-84.png,0002-00-0000-21.png
00000014,462,1,1438965059177,1438965059197,496,402,0,0,0,1,2,1,12,0001-00-0001-63.png,0002-00-0000-12.png
00000014,463,0,1438965060188,1438965060213,504,449,0,0,0,4,3,1,43,0004-00-0001-37.png,0003-00-0001-65.png
00000014,464,1,1438965063257,1438965063921,388,450,0,0,0,3,4,1,34,0003-00-0000-23.png,0004-00-0001-70.png
00000014,465,1,1438965064787,1438965064823,487,410,0,0,0,4,5,1,45,0004-00-0001-39.png,0005-00-0000-60.png
00000014,466,1,1438965066279,1438965066809,930,367,0,0,0,4,3,1,43,0004-00-0000-12.png,0003-00-0001-87.png
00000014,467,0,1438965067754,1438965068290,376,370,0,0,0,3,2,1,32,0003-00-0001-87.png,0002-00-0001-38.png
00000014,468,0,1438965071257,1438965071269,490,426,0,0,0,2,1,1,21,0002-00-0000-68.png,0001-00-0000-14.png
00000014,469,1,1438965074160,1438965074740,323,351,0,0,0,3,4,1,34,0003-00-0000-51.png,0004-00-0000-64.png
00000014,470,0,1438965075762,1438965076465,879,407,0,0,0,1,2,1,12,0001-00-0000-47.png,0002-00-0001-00.png
00000014,471,0,1438965079364,1438965080625,313,400,0,0,0,5,4,1,54,0005-00-0001-45.png,0004-00-0000-48.png
00000014,472,1,1438965083600,1438965084215,366,469,0,0,0,2,3,1,23,0002-00-0001-46.png,0003-00-0001-02.png
00000014,473,0,1438965085127,1438965085162,517,422,0,0,0,5,4,1,54,0005-00-0001-01.png,0004-00-0001-11.png
00000014,474,1,1438965088032,1438965088064,521,446,0,0,0,2,3,1,23,0002-00-0001-96.png,0003-00-0001-73.png
00000014,475,1,1438965089107,1438965089681,932,366,0,0,0,3,2,1,32,0003-00-0001-98.png,0002-00-0001-84.png
00000014,476,0,1438965090550,1438965091181,927,391,0,0,0,4,5,1,45,0004-00-0001-30.png,0005-00-0001-66.png
00000014,477,1,1438965094285,1438965095099,955,376,0,0,0,2,1,1,21,0002-00-0001-72.png,0001-00-0001-50.png
00000014,478,1,1438965095986,1438965096611,341,381,0,0,0,1,2,1,12,0001-00-0000-70.png,0002-00-0000-00.png
00000014,479,0,1438965097541,1438965097575,514,436,0,0,0,4,3,1,43,0004-00-0000-24.png,0003-00-0001-12.png
00000014,480,1,1438965100515,1438965101171,299,331,0,0,0,3,4,1,34,0003-00-0001-51.png,0004-00-0000-03.png
00000014,481,1,1438965102086,1438965102094,510,396,0,0,0,4,5,1,45,0004-00-0000-52.png,0005-00-0000-24.png
00000014,482,1,1438965103057,1438965103102,515,488,0,0,0,2,3,1,23,0002-00-0001-38.png,0003-00-0001-24.png
00000014,483,1,1438965104271,1438965104820,880,349,0,0,0,3,2,1,32,0003-00-0001-37.png,0002-00-0000-17.png
00000014,484,1,1438965105772,1438965106466,906,393,0,0,0,5,4,1,54,0005-00-0000-75.png,0004-00-0001-07.png
00000014,485,0,1438965107403,1438965107985,222,462,0,0,0,4,3,1,43,0004-00-0001-08.png,0003-00-0000-32.png
00000014,486,1,1438965110876,1438965110905,490,370,0,0,0,1,2,1,12,0001-00-0000-94.png,0002-00-0001-88.png
00000014,487,1,1438965111903,1438965112485,320,365,0,0,0,3,4,1,34,0003-00-0000-21.png,0004-00-0001-98.png
00000014,488,1,1438965113423,1438965114015,873,483,0,0,0,2,1,1,21,0002-00-0001-84.png,0001-00-0000-39.png
00000014,489,1,1438965114966,1438965115579,344,395,0,0,0,4,5,1,45,0004-00-0000-48.png,0005-00-0000-79.png
00000014,490,0,1438965116496,1438965117169,330,377,0,0,0,4,3,1,43,0004-00-0001-36.png,0003-00-0001-66.png
00000014,491,0,1438965120374,1438965120937,904,349,0,0,0,3,4,1,34,0003-00-0000-20.png,0004-00-0000-59.png
00000014,492,0,1438965123837,1438965123869,511,368,0,0,0,2,1,1,21,0002-00-0000-54.png,0001-00-0000-12.png
00000014,493,1,1438965126965,1438965127658,894,427,0,0,0,5,4,1,54,0005-00-0001-92.png,0004-00-0001-56.png
00000014,494,1,1438965128660,1438965129552,940,360,0,0,0,3,2,1,32,0003-00-0001-82.png,0002-00-0000-61.png
00000014,495,1,1438965130477,1438965131029,388,371,0,0,0,2,3,1,23,0002-00-0000-64.png,0003-00-0001-80.png
00000014,496,1,1438965131947,1438965131967,492,395,0,0,0,1,2,1,12,0001-00-0001-48.png,0002-00-0000-13.png
00000014,497,1,1438965133011,1438965133726,308,380,0,0,0,1,2,1,12,0001-00-0001-15.png,0002-00-0000-21.png
00000014,498,0,1438965134677,1438965135304,880,349,0,0,0,4,5,1,45,0004-00-0000-12.png,0005-00-0001-52.png
00000014,499,1,1438965138163,1438965139225,883,489,0,0,0,3,2,1,32,0003-00-0001-92.png,0002-00-0000-86.png
00000014,500,1,1438965140614,1438965141193,329,336,0,0,0,2,3,1,23,0002-00-0000-52.png,0003-00-0000-29.png
00000014,501,0,1438965142114,1438965142138,516,410,0,0,0,2,1,1,21,0002-00-0001-55.png,0001-00-0001-43.png
00000014,502,1,1438965145140,1438965145707,931,349,0,0,0,4,3,1,43,0004-00-0000-09.png,0003-00-0000-56.png
00000014,503,0,1438965146614,1438965146642,515,446,0,0,0,5,4,1,54,0005-00-0000-73.png,0004-00-0001-20.png
00000014,504,0,1438965149668,1438965150288,927,345,0,0,0,3,4,1,34,0003-00-0000-29.png,0004-00-0000-73.png
00000014,505,0,1438965153291,1438965153323,497,389,0,0,0,3,2,1,32,0003-00-0001-16.png,0002-00-0000-84.png
00000014,506,1,1438965156187,1438965156731,386,454,0,0,0,1,2,1,12,0001-00-0001-30.png,0002-00-0001-38.png
00000014,507,1,1438965157691,1438965157758,514,520,0,0,0,3,4,1,34,0003-00-0000-01.png,0004-00-0000-25.png
00000014,508,0,1438965158751,1438965158775,512,462,0,0,0,4,3,1,43,0004-00-0001-33.png,0003-00-0000-06.png
00000014,509,0,1438965161708,1438965161724,492,371,0,0,0,5,4,1,54,0005-00-0000-94.png,0004-00-0001-10.png
00000014,510,0,1438965164851,1438965164903,520,468,0,0,0,2,1,1,21,0002-00-0001-62.png,0001-00-0000-19.png
00000014,511,1,1438965168327,1438965168402,513,561,0,0,0,4,5,1,45,0004-00-0000-37.png,0005-00-0000-76.png
00000014,512,1,1438965169590,1438965170071,319,368,0,0,0,2,3,1,23,0002-00-0001-36.png,0003-00-0001-23.png
00000014,513,0,1438965171014,1438965171610,388,476,0,0,0,3,2,1,32,0003-00-0001-76.png,0002-00-0000-66.png
00000014,514,0,1438965174582,1438965174590,513,418,0,0,0,4,3,1,43,0004-00-0000-57.png,0003-00-0001-75.png
00000014,515,0,1438965178169,1438965178825,913,333,0,0,0,1,2,1,12,0001-00-0001-82.png,0002-00-0000-70.png
00000014,516,0,1438965181833,1438965182403,925,410,0,0,0,2,3,1,23,0002-00-0000-66.png,0003-00-0000-07.png
00000014,517,1,1438965186070,1438965186695,305,368,0,0,0,4,5,1,45,0004-00-0001-51.png,0005-00-0001-24.png
00000014,518,0,1438965187677,1438965187685,521,436,0,0,0,5,4,1,54,0005-00-0000-02.png,0004-00-0000-45.png
00000014,519,1,1438965190677,1438965191229,265,323,0,0,0,3,4,1,34,0003-00-0000-77.png,0004-00-0001-83.png
00000014,520,1,1438965192161,1438965192803,897,491,0,0,0,2,1,1,21,0002-00-0001-97.png,0001-00-0000-58.png
00000014,521,1,1438965194185,1438965194703,899,432,0,0,0,3,2,1,32,0003-00-0001-72.png,0002-00-0000-71.png
00000014,522,1,1438965195672,1438965196224,944,433,0,0,0,4,3,1,43,0004-00-0001-35.png,0003-00-0001-84.png
00000014,523,1,1438965197199,1438965197771,929,363,0,0,0,5,4,1,54,0005-00-0001-68.png,0004-00-0001-63.png
00000014,524,1,1438965198689,1438965198737,510,469,0,0,0,2,3,1,23,0002-00-0000-93.png,0003-00-0000-02.png
00000014,525,0,1438965200217,1438965200977,913,346,0,0,0,3,4,1,34,0003-00-0000-01.png,0004-00-0001-78.png
00000014,526,1,1438965203913,1438965204433,338,359,0,0,0,1,2,1,12,0001-00-0001-65.png,0002-00-0000-91.png
00000014,527,1,1438965205388,1438965205416,522,485,0,0,0,4,5,1,45,0004-00-0000-28.png,0005-00-0001-67.png
00000014,528,1,1438965206381,1438965207530,929,340,0,0,0,2,1,1,21,0002-00-0000-05.png,0001-00-0000-09.png
00000014,529,0,1438965208435,1438965209142,337,345,0,0,0,5,4,1,54,0005-00-0001-47.png,0004-00-0001-84.png
00000014,530,1,1438965212113,1438965212601,363,344,0,0,0,2,3,1,23,0002-00-0001-94.png,0003-00-0000-44.png
00000014,531,1,1438965213506,1438965214114,406,492,0,0,0,3,4,1,34,0003-00-0000-92.png,0004-00-0001-53.png
00000014,532,1,1438965215044,1438965215694,308,404,0,0,0,4,5,1,45,0004-00-0001-86.png,0005-00-0001-52.png
00000014,533,1,1438965216598,1438965217207,883,462,0,0,0,2,1,1,21,0002-00-0001-72.png,0001-00-0000-76.png
00000014,534,1,1438965218196,1438965218787,312,412,0,0,0,1,2,1,12,0001-00-0000-75.png,0002-00-0001-90.png
00000014,535,0,1438965219746,1438965219762,517,436,0,0,0,4,3,1,43,0004-00-0000-49.png,0003-00-0001-42.png
00000014,536,0,1438965222864,1438965223348,335,370,0,0,0,3,2,1,32,0003-00-0000-37.png,0002-00-0000-27.png
00000014,537,0,1438965227087,1438965227534,905,324,0,0,0,3,4,1,34,0003-00-0000-45.png,0004-00-0000-58.png
00000014,538,0,1438965230413,1438965230437,522,374,0,0,0,4,3,1,43,0004-00-0000-62.png,0003-00-0001-48.png
00000014,539,1,1438965233549,1438965234161,937,346,0,0,0,5,4,1,54,0005-00-0001-78.png,0004-00-0001-36.png
00000014,540,1,1438965235222,1438965235822,345,385,0,0,0,1,2,1,12,0001-00-0001-84.png,0002-00-0001-33.png
00000014,541,0,1438965236696,1438965237417,323,385,0,0,0,3,2,1,32,0003-00-0000-06.png,0002-00-0000-67.png
00000014,542,0,1438965240412,1438965241003,385,366,0,0,0,2,1,1,21,0002-00-0001-01.png,0001-00-0000-64.png
00000014,543,1,1438965243918,1438965243958,519,367,0,0,0,4,5,1,45,0004-00-0001-61.png,0005-00-0000-45.png
00000014,544,1,1438965244978,1438965245006,523,451,0,0,0,2,3,1,23,0002-00-0001-83.png,0003-00-0001-58.png
00000014,545,1,1438965245962,1438965246590,293,369,0,0,0,3,4,1,34,0003-00-0000-03.png,0004-00-0001-89.png
00000014,546,1,1438965247565,1438965248141,898,387,0,0,0,3,2,1,32,0003-00-0000-54.png,0002-00-0001-21.png
00000014,547,1,1438965249121,1438965249729,899,386,0,0,0,5,4,1,54,0005-00-0001-37.png,0004-00-0001-05.png
00000014,548,1,1438965250712,1438965258071,394,429,0,0,0,2,3,1,23,0002-00-0001-02.png,0003-00-0000-14.png
00000014,549,1,1438965259522,1438965260161,327,380,0,0,0,4,5,1,45,0004-00-0000-65.png,0005-00-0001-61.png
00000014,550,0,1438965261632,1438965262134,388,543,0,0,0,2,1,1,21,0002-00-0001-07.png,0001-00-0000-16.png
00000014,551,1,1438965265497,1438965266062,943,403,0,0,0,4,3,1,43,0004-00-0001-48.png,0003-00-0000-28.png
00000014,552,1,1438965267172,1438965267721,315,396,0,0,0,1,2,1,12,0001-00-0001-33.png,0002-00-0001-34.png
00000014,553,0,1438965269067,1438965269881,316,366,0,0,0,3,2,1,32,0003-00-0000-08.png,0002-00-0001-31.png
00000014,554,0,1438965272913,1438965272921,465,395,0,0,0,5,4,1,54,0005-00-0001-08.png,0004-00-0001-04.png
00000014,555,1,1438965276046,1438965276054,493,465,0,0,0,1,2,1,12,0001-00-0001-64.png,0002-00-0001-28.png
00000014,556,1,1438965277530,1438965278050,872,455,0,0,0,2,1,1,21,0002-00-0000-75.png,0001-00-0000-67.png
00000014,557,0,1438965278981,1438965279017,480,488,0,0,0,4,3,1,43,0004-00-0000-58.png,0003-00-0001-30.png
00000014,558,1,1438965281949,1438965281986,498,400,0,0,0,2,3,1,23,0002-00-0001-17.png,0003-00-0000-62.png
00000014,559,0,1438965283012,1438965283576,882,469,0,0,0,3,4,1,34,0003-00-0000-81.png,0004-00-0001-08.png
00000014,560,1,1438965286736,1438965287419,337,462,0,0,0,4,5,1,45,0004-00-0001-94.png,0005-00-0001-93.png
00000014,561,1,1438965288797,1438965289322,379,498,0,0,0,2,3,1,23,0002-00-0001-21.png,0003-00-0000-25.png
00000014,562,1,1438965290245,1438965290265,470,480,0,0,0,3,4,1,34,0003-00-0000-97.png,0004-00-0000-32.png
00000014,563,0,1438965292366,1438965292950,359,467,0,0,0,5,4,1,54,0005-00-0001-80.png,0004-00-0000-55.png
00000014,564,1,1438965296032,1438965296544,291,370,0,0,0,4,5,1,45,0004-00-0000-63.png,0005-00-0000-19.png
00000014,565,0,1438965297410,1438965298057,391,493,0,0,0,3,2,1,32,0003-00-0000-44.png,0002-00-0000-21.png
00000014,566,0,1438965300910,1438965300930,502,428,0,0,0,4,3,1,43,0004-00-0001-97.png,0003-00-0000-40.png
00000014,567,1,1438965304181,1438965304213,454,429,0,0,0,1,2,1,12,0001-00-0001-57.png,0002-00-0001-19.png
00000014,568,0,1438965305214,1438965305230,515,462,0,0,0,2,1,1,21,0002-00-0001-18.png,0001-00-0000-81.png
00000014,569,1,1438965308553,1438965308577,483,463,0,0,0,1,2,1,12,0001-00-0000-87.png,0002-00-0001-26.png
00000014,570,1,1438965309628,1438965310123,320,383,0,0,0,3,4,1,34,0003-00-0000-46.png,0004-00-0000-69.png
00000014,571,1,1438965311067,1438965311707,857,438,0,0,0,4,3,1,43,0004-00-0001-13.png,0003-00-0001-46.png
00000014,572,0,1438965312605,1438965312625,487,417,0,0,0,2,1,1,21,0002-00-0000-51.png,0001-00-0000-58.png
00000014,573,1,1438965315574,1438965316163,319,368,0,0,0,4,5,1,45,0004-00-0001-85.png,0005-00-0001-86.png
00000014,574,0,1438965317100,1438965317128,521,430,0,0,0,3,2,1,32,0003-00-0001-24.png,0002-00-0000-25.png
00000014,575,1,1438965320196,1438965320271,504,553,0,0,0,2,3,1,23,0002-00-0000-25.png,0003-00-0000-95.png
00000014,576,1,1438965321214,1438965321807,873,457,0,0,0,5,4,1,54,0005-00-0000-74.png,0004-00-0000-17.png
00000014,577,1,1438965322724,1438965323337,212,456,0,0,0,1,2,1,12,0001-00-0000-15.png,0002-00-0001-09.png
00000014,578,1,1438965324296,1438965325013,350,349,0,0,0,2,3,1,23,0002-00-0000-63.png,0003-00-0000-81.png
00000014,579,0,1438965326386,1438965326894,312,374,0,0,0,5,4,1,54,0005-00-0000-14.png,0004-00-0001-13.png
00000014,580,1,1438965329884,1438965329943,510,437,0,0,0,3,4,1,34,0003-00-0000-55.png,0004-00-0001-59.png
00000014,581,0,1438965331004,1438965331533,209,436,0,0,0,2,1,1,21,0002-00-0000-97.png,0001-00-0000-34.png
00000014,582,0,1438965334418,1438965335124,350,319,0,0,0,4,3,1,43,0004-00-0000-53.png,0003-00-0000-14.png
00000014,583,1,1438965338095,1438965338123,470,376,0,0,0,4,5,1,45,0004-00-0000-49.png,0005-00-0000-48.png
00000014,584,1,1438965339029,1438965339831,927,361,0,0,0,3,2,1,32,0003-00-0001-43.png,0002-00-0001-69.png
00000014,585,0,1438965340751,1438965340759,518,421,0,0,0,3,2,1,32,0003-00-0000-45.png,0002-00-0001-69.png
00000014,586,0,1438965343759,1438965344355,928,364,0,0,0,4,5,1,45,0004-00-0001-04.png,0005-00-0001-40.png
00000014,587,0,1438965347318,1438965347846,874,463,0,0,0,2,3,1,23,0002-00-0000-26.png,0003-00-0000-76.png
00000014,588,1,1438965350665,1438965351300,905,324,0,0,0,2,1,1,21,0002-00-0000-57.png,0001-00-0000-89.png
00000014,589,1,1438965352231,1438965352824,333,405,0,0,0,1,2,1,12,0001-00-0000-87.png,0002-00-0001-67.png
00000014,590,1,1438965353718,1438965353746,494,429,0,0,0,3,4,1,34,0003-00-0001-17.png,0004-00-0001-46.png
00000014,591,0,1438965354732,1438965354796,498,507,0,0,0,4,3,1,43,0004-00-0000-98.png,0003-00-0001-47.png
00000014,592,1,1438965357898,1438965358497,902,365,0,0,0,5,4,1,54,0005-00-0000-33.png,0004-00-0000-71.png
00000014,593,1,1438965359380,1438965359400,516,410,0,0,0,1,2,1,12,0001-00-0001-44.png,0002-00-0000-89.png
00000014,594,1,1438965360753,1438965361327,381,479,0,0,0,2,3,1,23,0002-00-0001-07.png,0003-00-0000-58.png
00000014,595,1,1438965362204,1438965362232,482,423,0,0,0,4,5,1,45,0004-00-0000-35.png,0005-00-0001-71.png
00000014,596,0,1438965363171,1438965363897,332,381,0,0,0,5,4,1,54,0005-00-0000-61.png,0004-00-0001-98.png
00000014,597,0,1438965366844,1438965366856,494,441,0,0,0,3,2,1,32,0003-00-0001-80.png,0002-00-0000-68.png
00000014,598,1,1438965370185,1438965370759,904,375,0,0,0,4,3,1,43,0004-00-0000-25.png,0003-00-0000-98.png
00000014,599,1,1438965371678,1438965372332,319,421,0,0,0,3,4,1,34,0003-00-0001-14.png,0004-00-0001-77.png
00000014,600,0,1438965373237,1438965373253,484,418,0,0,0,2,1,1,21,0002-00-0000-59.png,0001-00-0000-88.png
00000014,601,1,1438965376198,1438965376931,376,349,0,0,0,3,4,1,34,0003-00-0001-42.png,0004-00-0000-05.png
00000014,602,0,1438965377788,1438965379111,312,354,0,0,0,3,2,1,32,0003-00-0001-46.png,0002-00-0000-80.png
00000014,603,1,1438965381989,1438965382580,297,325,0,0,0,1,2,1,12,0001-00-0000-07.png,0002-00-0001-42.png
00000014,604,0,1438965383480,1438965383508,485,447,0,0,0,2,1,1,21,0002-00-0001-70.png,0001-00-0001-22.png
00000014,605,1,1438965386351,1438965386869,311,360,0,0,0,4,5,1,45,0004-00-0000-44.png,0005-00-0001-00.png
00000014,606,0,1438965387725,1438965387762,497,427,0,0,0,4,3,1,43,0004-00-0000-52.png,0003-00-0000-06.png
00000014,607,1,1438965390721,1438965391457,356,487,0,0,0,2,3,1,23,0002-00-0000-82.png,0003-00-0000-36.png
00000014,608,0,1438965392344,1438965392364,478,436,0,0,0,5,4,1,54,0005-00-0000-06.png,0004-00-0000-77.png
00000014,609,1,1438965395213,1438965395265,519,462,0,0,0,4,5,1,45,0004-00-0001-66.png,0005-00-0001-08.png
00000014,610,1,1438965396251,1438965396804,380,468,0,0,0,2,3,1,23,0002-00-0001-28.png,0003-00-0000-54.png
00000014,611,0,1438965397741,1438965397769,504,453,0,0,0,2,1,1,21,0002-00-0001-35.png,0001-00-0000-20.png
00000014,612,0,1438965400693,1438965401225,963,306,0,0,0,3,4,1,34,0003-00-0001-48.png,0004-00-0001-15.png
00000014,613,1,1438965404287,1438965404858,941,390,0,0,0,4,3,1,43,0004-00-0000-95.png,0003-00-0000-82.png
00000014,614,0,1438965405759,1438965405779,492,453,0,0,0,3,2,1,32,0003-00-0001-35.png,0002-00-0001-29.png
00000014,615,1,1438965408869,1438965409607,929,360,0,0,0,5,4,1,54,0005-00-0001-36.png,0004-00-0000-35.png
00000014,616,1,1438965410541,1438965410628,498,532,0,0,0,1,2,1,12,0001-00-0000-70.png,0002-00-0001-73.png
00000014,617,1,1438965411625,1438965412191,916,394,0,0,0,4,3,1,43,0004-00-0001-16.png,0003-00-0001-32.png
00000014,618,1,1438965413092,1438965413691,867,490,0,0,0,2,1,1,21,0002-00-0000-02.png,0001-00-0000-58.png
00000014,619,1,1438965414606,1438965415317,393,466,0,0,0,3,4,1,34,0003-00-0001-13.png,0004-00-0000-18.png
00000014,620,1,1438965416871,1438965417494,891,389,0,0,0,3,2,1,32,0003-00-0001-98.png,0002-00-0001-16.png
00000014,621,1,1438965418379,1438965418411,518,446,0,0,0,4,5,1,45,0004-00-0001-71.png,0005-00-0001-11.png
00000014,622,0,1438965419385,1438965420032,381,401,0,0,0,5,4,1,54,0005-00-0000-96.png,0004-00-0001-12.png
00000014,623,1,1438965423102,1438965424778,307,401,0,0,0,1,2,1,12,0001-00-0000-54.png,0002-00-0000-36.png
00000014,624,1,1438965425663,1438965426336,320,395,0,0,0,2,3,1,23,0002-00-0000-78.png,0003-00-0001-12.png
00000014,625,0,1438965427285,1438965427309,486,470,0,0,0,5,4,1,54,0005-00-0001-46.png,0004-00-0000-71.png
00000014,626,1,1438965430352,1438965430366,510,410,0,0,0,1,2,1,12,0001-00-0000-99.png,0002-00-0000-09.png
00000014,627,1,1438965431367,1438965432124,901,441,0,0,0,2,1,1,21,0002-00-0001-73.png,0001-00-0000-37.png
00000014,628,0,1438965433029,1438965433674,899,438,0,0,0,2,3,1,23,0002-00-0001-91.png,0003-00-0001-21.png
00000014,629,1,1438965436703,1438965437209,862,370,0,0,0,3,2,1,32,0003-00-0001-71.png,0002-00-0001-28.png
00000014,630,0,1438965438062,1438965438660,922,367,0,0,0,3,4,1,34,0003-00-0001-85.png,0004-00-0001-54.png
00000014,631,0,1438965441779,1438965441807,491,410,0,0,0,4,3,1,43,0004-00-0000-04.png,0003-00-0001-00.png
00000014,632,1,1438965444932,1438965444999,474,474,0,0,0,4,5,1,45,0004-00-0000-57.png,0005-00-0000-66.png
00000014,633,1,1438965445954,1438965445970,519,444,0,0,0,2,3,1,23,0002-00-0001-25.png,0003-00-0001-27.png
00000014,634,0,1438965447030,1438965447612,904,375,0,0,0,3,4,1,34,0003-00-0001-12.png,0004-00-0001-14.png
00000014,635,0,1438965450694,1438965450742,513,522,0,0,0,3,2,1,32,0003-00-0001-40.png,0002-00-0001-73.png
00000014,636,0,1438965453719,1438965453731,491,421,0,0,0,5,4,1,54,0005-00-0000-17.png,0004-00-0001-14.png
00000014,637,1,1438965456699,1438965457216,888,330,0,0,0,2,1,1,21,0002-00-0000-67.png,0001-00-0001-83.png
00000014,638,0,1438965458183,1438965459024,896,403,0,0,0,4,5,1,45,0004-00-0001-89.png,0005-00-0001-70.png
00000014,639,1,1438965462140,1438965462697,350,332,0,0,0,1,2,1,12,0001-00-0000-96.png,0002-00-0000-90.png
00000014,640,0,1438965463587,1438965463623,504,421,0,0,0,4,3,1,43,0004-00-0001-76.png,0003-00-0000-14.png
00000014,641,0,1438965466557,1438965466569,498,407,0,0,0,5,4,1,54,0005-00-0001-34.png,0004-00-0001-40.png
00000014,642,1,1438965469886,1438965469898,519,436,0,0,0,3,4,1,34,0003-00-0001-53.png,0004-00-0001-29.png
00000014,643,1,1438965470912,1438965471495,901,371,0,0,0,3,2,1,32,0003-00-0000-23.png,0002-00-0000-19.png
00000014,644,0,1438965472413,1438965472425,515,415,0,0,0,4,3,1,43,0004-00-0000-78.png,0003-00-0001-82.png
00000014,645,0,1438965475389,1438965475401,510,421,0,0,0,2,1,1,21,0002-00-0000-16.png,0001-00-0001-21.png
00000014,646,1,1438965478451,1438965478467,523,441,0,0,0,4,5,1,45,0004-00-0001-80.png,0005-00-0000-23.png
00000014,647,0,1438965479447,1438965480032,900,371,0,0,0,2,3,1,23,0002-00-0000-05.png,0003-00-0001-53.png
00000014,648,0,1438965482973,1438965483607,902,382,0,0,0,1,2,1,12,0001-00-0001-45.png,0002-00-0000-41.png
00000014,649,1,1438965486739,1438965486779,501,438,0,0,0,1,2,1,12,0001-00-0001-19.png,0002-00-0000-02.png
00000014,650,1,1438965487717,1438965488835,387,454,0,0,0,4,5,1,45,0004-00-0000-10.png,0005-00-0001-14.png
00000014,651,0,1438965489734,1438965489754,475,439,0,0,0,4,3,1,43,0004-00-0000-85.png,0003-00-0000-90.png
00000014,652,0,1438965492890,1438965492934,513,488,0,0,0,3,2,1,32,0003-00-0001-32.png,0002-00-0001-56.png
00000014,653,1,1438965496013,1438965496025,478,425,0,0,0,2,3,1,23,0002-00-0000-05.png,0003-00-0001-51.png
00000014,654,1,1438965497048,1438965497691,318,368,0,0,0,3,4,1,34,0003-00-0000-06.png,0004-00-0001-59.png
00000014,655,1,1438965498548,1438965499321,874,449,0,0,0,2,1,1,21,0002-00-0000-76.png,0001-00-0001-74.png
00000014,656,0,1438965500216,1438965500928,324,398,0,0,0,5,4,1,54,0005-00-0000-18.png,0004-00-0001-63.png
00000014,657,1,1438965504020,1438965504527,299,384,0,0,0,2,3,1,23,0002-00-0000-63.png,0003-00-0000-53.png
00000014,658,0,1438965505402,1438965505443,514,427,0,0,0,2,1,1,21,0002-00-0001-85.png,0001-00-0001-87.png
00000014,659,1,1438965509226,1438965509242,521,436,0,0,0,1,2,1,12,0001-00-0000-12.png,0002-00-0000-01.png
00000014,660,1,1438965510195,1438965510227,515,452,0,0,0,4,5,1,45,0004-00-0001-16.png,0005-00-0001-36.png
00000014,661,0,1438965511197,1438965511693,350,345,0,0,0,4,3,1,43,0004-00-0001-47.png,0003-00-0001-58.png
00000014,662,0,1438965514548,1438965514815,492,450,0,0,0,3,2,1,32,0003-00-0000-87.png,0002-00-0000-98.png
00000014,663,1,1438965517722,1438965518262,893,449,0,0,0,5,4,1,54,0005-00-0000-64.png,0004-00-0001-64.png
00000014,664,0,1438965519209,1438965519804,915,417,0,0,0,3,4,1,34,0003-00-0000-87.png,0004-00-0001-70.png
00000014,665,0,1438965522704,1438965522732,504,395,0,0,0,3,2,1,32,0003-00-0001-72.png,0002-00-0001-57.png
00000014,666,0,1438965525635,1438965525651,512,435,0,0,0,5,4,1,54,0005-00-0001-87.png,0004-00-0000-43.png
00000014,667,0,1438965528994,1438965529491,905,349,0,0,0,3,4,1,34,0003-00-0001-19.png,0004-00-0001-27.png
00000014,668,0,1438965532462,1438965533139,926,358,0,0,0,2,3,1,23,0002-00-0001-97.png,0003-00-0000-21.png
00000014,669,1,1438965536227,1438965536896,339,470,0,0,0,1,2,1,12,0001-00-0001-04.png,0002-00-0000-76.png
00000014,670,0,1438965538328,1438965538838,908,339,0,0,0,4,5,1,45,0004-00-0000-93.png,0005-00-0001-37.png
00000014,671,0,1438965541752,1438965542235,410,465,0,0,0,2,1,1,21,0002-00-0001-07.png,0001-00-0001-75.png
00000014,672,0,1438965545225,1438965545245,472,434,0,0,0,4,3,1,43,0004-00-0000-56.png,0003-00-0001-71.png
00000014,673,1,1438965548514,1438965548546,513,399,0,0,0,2,3,1,23,0002-00-0000-88.png,0003-00-0000-93.png
00000014,674,1,1438965549539,1438965550066,930,375,0,0,0,2,1,1,21,0002-00-0000-39.png,0001-00-0000-38.png
00000014,675,1,1438965550983,1438965551593,376,332,0,0,0,1,2,1,12,0001-00-0000-61.png,0002-00-0000-41.png
00000014,676,0,1438965552466,1438965552494,498,400,0,0,0,4,3,1,43,0004-00-0000-29.png,0003-00-0000-08.png
00000014,677,1,1438965555705,1438965556216,913,371,0,0,0,3,2,1,32,0003-00-0001-01.png,0002-00-0001-85.png
00000014,678,0,1438965557071,1438965557753,319,395,0,0,0,5,4,1,54,0005-00-0000-81.png,0004-00-0000-76.png
00000014,679,1,1438965560748,1438965561293,291,375,0,0,0,3,4,1,34,0003-00-0001-07.png,0004-00-0001-51.png
00000014,680,1,1438965562364,1438965562850,366,470,0,0,0,4,5,1,45,0004-00-0001-27.png,0005-00-0000-88.png
00000014,681,1,1438965563773,1438965564395,410,433,0,0,0,1,2,1,12,0001-00-0000-89.png,0002-00-0001-82.png
00000014,682,0,1438965565378,1438965565923,222,462,0,0,0,2,1,1,21,0002-00-0000-94.png,0001-00-0000-63.png
00000014,683,0,1438965569026,1438965569054,504,441,0,0,0,3,2,1,32,0003-00-0000-60.png,0002-00-0000-12.png
00000014,684,1,1438965571972,1438965572016,515,384,0,0,0,3,4,1,34,0003-00-0001-72.png,0004-00-0000-90.png
00000014,685,0,1438965573061,1438965573634,919,416,0,0,0,2,3,1,23,0002-00-0001-26.png,0003-00-0001-20.png
00000014,686,1,1438965576636,1438965577242,940,351,0,0,0,5,4,1,54,0005-00-0000-83.png,0004-00-0001-07.png
00000014,687,0,1438965578188,1438965578756,320,389,0,0,0,4,3,1,43,0004-00-0001-65.png,0003-00-0001-65.png
00000014,688,1,1438965581812,1438965581832,516,396,0,0,0,4,5,1,45,0004-00-0001-00.png,0005-00-0000-14.png
00000014,689,1,1438965582829,1438965583396,927,365,0,0,0,4,3,1,43,0004-00-0001-83.png,0003-00-0000-51.png
00000014,690,1,1438965584299,1438965584347,522,429,0,0,0,1,2,1,12,0001-00-0001-96.png,0002-00-0001-19.png
00000014,691,0,1438965585373,1438965586079,410,468,0,0,0,2,1,1,21,0002-00-0000-49.png,0001-00-0001-57.png
00000014,692,1,1438965588998,1438965589474,335,345,0,0,0,3,4,1,34,0003-00-0000-36.png,0004-00-0001-25.png
00000014,693,1,1438965590340,1438965591222,318,358,0,0,0,4,5,1,45,0004-00-0001-96.png,0005-00-0001-44.png
00000014,694,1,1438965592125,1438965592804,876,442,0,0,0,3,2,1,32,0003-00-0000-36.png,0002-00-0001-62.png
00000014,695,1,1438965593668,1438965594333,917,393,0,0,0,5,4,1,54,0005-00-0001-11.png,0004-00-0000-79.png
00000014,696,1,1438965595198,1438965595234,510,429,0,0,0,2,3,1,23,0002-00-0001-66.png,0003-00-0000-38.png
00000014,697,0,1438965596194,1438965596838,878,376,0,0,0,3,4,1,34,0003-00-0000-28.png,0004-00-0000-97.png
00000014,698,1,1438965599911,1438965600971,314,390,0,0,0,4,5,1,45,0004-00-0001-46.png,0005-00-0000-06.png
00000014,699,1,1438965602689,1438965603339,899,371,0,0,0,3,2,1,32,0003-00-0001-97.png,0002-00-0001-37.png
00000014,700,0,1438965604253,1438965604265,518,410,0,0,0,4,3,1,43,0004-00-0000-33.png,0003-00-0001-37.png
00000014,701,0,1438965607322,1438965607881,325,371,0,0,0,5,4,1,54,0005-00-0001-44.png,0004-00-0000-60.png
00000014,702,0,1438965610790,1438965611251,319,377,0,0,0,2,1,1,21,0002-00-0000-41.png,0001-00-0001-78.png
00000014,703,1,1438965614300,1438965614906,352,463,0,0,0,2,3,1,23,0002-00-0001-75.png,0003-00-0001-76.png
00000014,704,1,1438965615902,1438965615938,510,534,0,0,0,1,2,1,12,0001-00-0001-19.png,0002-00-0000-53.png
00000014,705,0,1438965617395,1438965617923,860,476,0,0,0,1,2,1,12,0001-00-0000-31.png,0002-00-0001-92.png
00000014,706,0,1438965621068,1438965621566,922,354,0,0,0,3,4,1,34,0003-00-0001-98.png,0004-00-0001-43.png
00000014,707,0,1438965624633,1438965624649,518,419,0,0,0,2,1,1,21,0002-00-0001-22.png,0001-00-0001-20.png
00000014,708,0,1438965627656,1438965628271,952,365,0,0,0,2,3,1,23,0002-00-0001-84.png,0003-00-0001-76.png
00000014,709,0,1438965631151,1438965631179,495,338,0,0,0,3,2,1,32,0003-00-0000-63.png,0002-00-0001-90.png
00000014,710,0,1438965634077,1438965635190,297,400,0,0,0,5,4,1,54,0005-00-0000-41.png,0004-00-0001-75.png
00000014,711,1,1438965638257,1438965638337,490,501,0,0,0,4,5,1,45,0004-00-0001-34.png,0005-00-0001-14.png
00000014,712,1,1438965639274,1438965639851,868,420,0,0,0,4,3,1,43,0004-00-0001-65.png,0003-00-0001-44.png
00000014,713,1,1438965640733,1438965641497,350,377,0,0,0,2,3,1,23,0002-00-0001-47.png,0003-00-0001-33.png
00000014,714,1,1438965642892,1438965643451,894,414,0,0,0,4,3,1,43,0004-00-0000-50.png,0003-00-0001-84.png
00000014,715,1,1438965644312,1438965645061,899,387,0,0,0,2,1,1,21,0002-00-0001-05.png,0001-00-0001-47.png
00000014,716,0,1438965645952,1438965646660,376,445,0,0,0,3,2,1,32,0003-00-0000-78.png,0002-00-0001-15.png
00000014,717,1,1438965649628,1438965650136,248,384,0,0,0,3,4,1,34,0003-00-0000-47.png,0004-00-0000-10.png
00000014,718,1,1438965651011,1438965651767,350,345,0,0,0,1,2,1,12,0001-00-0000-33.png,0002-00-0000-12.png
00000014,719,1,1438965653187,1438965653640,385,493,0,0,0,4,5,1,45,0004-00-0000-67.png,0005-00-0001-36.png
00000014,720,1,1438965654547,1438965655238,912,333,0,0,0,5,4,1,54,0005-00-0001-64.png,0004-00-0001-17.png
00000014,721,1,1438965656093,1438965656121,513,418,0,0,0,4,5,1,45,0004-00-0001-69.png,0005-00-0001-50.png
00000014,722,1,1438965657172,1438965657709,375,350,0,0,0,2,3,1,23,0002-00-0000-41.png,0003-00-0001-34.png
00000014,723,1,1438965658703,1438965659319,872,456,0,0,0,3,2,1,32,0003-00-0000-28.png,0002-00-0001-92.png
00000014,724,0,1438965660191,1438965660211,514,436,0,0,0,4,3,1,43,0004-00-0001-57.png,0003-00-0001-19.png
00000014,725,1,1438965663223,1438965663724,364,449,0,0,0,1,2,1,12,0001-00-0000-75.png,0002-00-0001-04.png
00000014,726,1,1438965664622,1438965664650,498,426,0,0,0,3,4,1,34,0003-00-0000-33.png,0004-00-0000-41.png
00000014,727,0,1438965665627,1438965666304,376,361,0,0,0,5,4,1,54,0005-00-0000-19.png,0004-00-0000-06.png
00000014,728,0,1438965669467,1438965669523,504,447,0,0,0,2,1,1,21,0002-00-0000-00.png,0001-00-0001-35.png
00000014,729,1,1438965672521,1438965672553,518,410,0,0,0,1,2,1,12,0001-00-0001-91.png,0002-00-0001-14.png
00000014,730,0,1438965673569,1438965673605,504,477,0,0,0,5,4,1,54,0005-00-0001-30.png,0004-00-0001-92.png
00000014,731,0,1438965676763,1438965676803,504,448,0,0,0,3,2,1,32,0003-00-0000-77.png,0002-00-0001-70.png
00000014,732,0,1438965679662,1438965680305,248,445,0,0,0,2,1,1,21,0002-00-0001-75.png,0001-00-0000-21.png
00000014,733,1,1438965683333,1438965683349,458,376,0,0,0,4,5,1,45,0004-00-0000-35.png,0005-00-0000-75.png
00000014,734,0,1438965684260,1438965684950,350,332,0,0,0,4,3,1,43,0004-00-0001-98.png,0003-00-0000-55.png
00000014,735,1,1438965687835,1438965688343,388,332,0,0,0,3,4,1,34,0003-00-0001-64.png,0004-00-0000-41.png
00000014,736,1,1438965689301,1438965689972,333,359,0,0,0,2,3,1,23,0002-00-0001-11.png,0003-00-0000-46.png
00000014,737,1,1438965690918,1438965691547,345,390,0,0,0,4,5,1,45,0004-00-0001-85.png,0005-00-0001-54.png
00000014,738,1,1438965692427,1438965692448,490,432,0,0,0,3,4,1,34,0003-00-0001-50.png,0004-00-0000-16.png
00000014,739,0,1438965693513,1438965693537,514,450,0,0,0,2,1,1,21,0002-00-0000-63.png,0001-00-0000-02.png
00000014,740,1,1438965696683,1438965697244,896,428,0,0,0,5,4,1,54,0005-00-0000-87.png,0004-00-0000-09.png
00000014,741,1,1438965698646,1438965699129,881,349,0,0,0,4,3,1,43,0004-00-0000-89.png,0003-00-0000-73.png
00000014,742,1,1438965700000,1438965700613,389,450,0,0,0,1,2,1,12,0001-00-0001-50.png,0002-00-0000-91.png
00000014,743,1,1438965701509,1438965701529,509,420,0,0,0,2,3,1,23,0002-00-0000-68.png,0003-00-0001-80.png
00000014,744,0,1438965702587,1438965703741,442,470,0,0,0,3,2,1,32,0003-00-0001-81.png,0002-00-0000-52.png
00000014,745,1,1438965706656,1438965706680,498,375,0,0,0,3,4,1,34,0003-00-0001-35.png,0004-00-0000-82.png
00000014,746,1,1438965707653,1438965708225,877,400,0,0,0,4,3,1,43,0004-00-0001-98.png,0003-00-0000-23.png
00000014,747,1,1438965709195,1438965709850,893,386,0,0,0,2,1,1,21,0002-00-0001-96.png,0001-00-0001-60.png
00000014,748,1,1438965710714,1438965710773,495,514,0,0,0,4,5,1,45,0004-00-0000-63.png,0005-00-0000-81.png
00000014,749,0,1438965711737,1438965712336,354,397,0,0,0,5,4,1,54,0005-00-0001-77.png,0004-00-0000-30.png
00000014,750,0,1438965715382,1438965715414,504,398,0,0,0,3,2,1,32,0003-00-0001-53.png,0002-00-0001-67.png
00000014,751,1,1438965718824,1438965718848,515,469,0,0,0,2,3,1,23,0002-00-0001-99.png,0003-00-0001-48.png
00000014,752,1,1438965719856,1438965720508,350,358,0,0,0,1,2,1,12,0001-00-0001-19.png,0002-00-0000-72.png
00000014,753,0,1438965721395,1438965722160,289,416,0,0,0,2,1,1,21,0002-00-0001-71.png,0001-00-0000-46.png
00000014,754,1,1438965725063,1438965725095,519,438,0,0,0,1,2,1,12,0001-00-0001-91.png,0002-00-0001-08.png
00000014,755,1,1438965726050,1438965726774,927,358,0,0,0,4,3,1,43,0004-00-0001-59.png,0003-00-0001-67.png
00000014,756,1,1438965727737,1438965728305,376,373,0,0,0,2,3,1,23,0002-00-0001-69.png,0003-00-0000-78.png
00000014,757,1,1438965729255,1438965730118,914,421,0,0,0,3,2,1,32,0003-00-0001-50.png,0002-00-0001-78.png
00000014,758,1,1438965731057,1438965731691,212,452,0,0,0,3,4,1,34,0003-00-0000-42.png,0004-00-0000-44.png
00000014,759,0,1438965732586,1438965733303,384,341,0,0,0,5,4,1,54,0005-00-0000-36.png,0004-00-0001-26.png
00000014,760,0,1438965736250,1438965736895,878,443,0,0,0,4,5,1,45,0004-00-0001-60.png,0005-00-0000-69.png
00000014,761,1,1438965739791,1438965740803,916,466,0,0,0,3,2,1,32,0003-00-0001-95.png,0002-00-0001-71.png
00000014,762,0,1438965741690,1438965742385,320,389,0,0,0,4,3,1,43,0004-00-0001-03.png,0003-00-0000-00.png
00000014,763,1,1438965745514,1438965746010,939,370,0,0,0,2,1,1,21,0002-00-0001-98.png,0001-00-0001-12.png
00000014,764,1,1438965746909,1438965747684,419,467,0,0,0,4,5,1,45,0004-00-0000-72.png,0005-00-0001-79.png
00000014,765,0,1438965748639,1438965749738,928,376,0,0,0,2,3,1,23,0002-00-0001-92.png,0003-00-0000-98.png
00000014,766,1,1438965752768,1438965753338,339,371,0,0,0,1,2,1,12,0001-00-0000-75.png,0002-00-0000-23.png
00000014,767,0,1438965754253,1438965755186,922,411,0,0,0,3,4,1,34,0003-00-0000-80.png,0004-00-0001-69.png
00000014,768,1,1438965758069,1438965758611,962,335,0,0,0,5,4,1,54,0005-00-0001-81.png,0004-00-0001-60.png
00000014,769,1,1438965759498,1438965760717,874,306,0,0,0,5,4,1,54,0005-00-0000-21.png,0004-00-0001-93.png
00000014,770,1,1438965761614,1438965762424,333,371,0,0,0,4,5,1,45,0004-00-0000-16.png,0005-00-0001-70.png
00000014,771,1,1438965763353,1438965763933,412,476,0,0,0,2,3,1,23,0002-00-0000-28.png,0003-00-0001-93.png
00000014,772,1,1438965764846,1438965764866,494,464,0,0,0,1,2,1,12,0001-00-0001-14.png,0002-00-0000-77.png
00000014,773,0,1438965765869,1438965766625,314,426,0,0,0,3,2,1,32,0003-00-0000-08.png,0002-00-0000-83.png
00000014,774,0,1438965769742,1438965770328,888,410,0,0,0,3,4,1,34,0003-00-0001-37.png,0004-00-0000-04.png
00000014,775,1,1438965773221,1438965773950,939,318,0,0,0,4,3,1,43,0004-00-0000-44.png,0003-00-0000-13.png
00000014,776,1,1438965774821,1438965775449,912,398,0,0,0,2,1,1,21,0002-00-0001-92.png,0001-00-0001-63.png
00000014,777,1,1438965776292,1438965776930,379,365,0,0,0,4,5,1,45,0004-00-0001-43.png,0005-00-0000-08.png
00000014,778,1,1438965777802,1438965777830,486,416,0,0,0,1,2,1,12,0001-00-0000-33.png,0002-00-0001-37.png
00000014,779,1,1438965778968,1438965779550,895,368,0,0,0,2,1,1,21,0002-00-0001-67.png,0001-00-0000-41.png
00000014,780,1,1438965780478,1438965781268,904,428,0,0,0,3,2,1,32,0003-00-0000-98.png,0002-00-0001-85.png
00000014,781,0,1438965782135,1438965782852,901,397,0,0,0,2,3,1,23,0002-00-0001-67.png,0003-00-0001-95.png
00000014,782,1,1438965785753,1438965786719,920,359,0,0,0,5,4,1,54,0005-00-0000-56.png,0004-00-0000-52.png
00000014,783,0,1438965787593,1438965788265,875,345,0,0,0,3,4,1,34,0003-00-0000-43.png,0004-00-0001-82.png
00000014,784,0,1438965791338,1438965791417,511,495,0,0,0,4,3,1,43,0004-00-0000-73.png,0003-00-0000-49.png
00000014,785,0,1438965794390,1438965794964,900,436,0,0,0,3,4,1,34,0003-00-0001-83.png,0004-00-0001-52.png
00000014,786,0,1438965798323,1438965798353,498,478,0,0,0,5,4,1,54,0005-00-0000-88.png,0004-00-0001-78.png
00000014,787,1,1438965801454,1438965802171,928,374,0,0,0,3,2,1,32,0003-00-0001-75.png,0002-00-0001-66.png
00000014,788,1,1438965803158,1438965803708,879,350,0,0,0,4,3,1,43,0004-00-0001-44.png,0003-00-0000-62.png
00000014,789,1,1438965804707,1438965805352,314,416,0,0,0,1,2,1,12,0001-00-0001-49.png,0002-00-0000-73.png
00000014,790,1,1438965806305,1438965806955,392,495,0,0,0,2,3,1,23,0002-00-0000-23.png,0003-00-0001-50.png
00000014,791,1,1438965807847,1438965808435,926,385,0,0,0,2,1,1,21,0002-00-0000-92.png,0001-00-0001-12.png
00000014,792,1,1438965809335,1438965809368,485,466,0,0,0,4,5,1,45,0004-00-0001-13.png,0005-00-0001-84.png
00000014,793,0,1438965810430,1438965811042,888,437,0,0,0,1,2,1,12,0001-00-0000-92.png,0002-00-0000-07.png
00000014,794,1,1438965814133,1438965814692,216,464,0,0,0,3,4,1,34,0003-00-0001-84.png,0004-00-0001-39.png
00000014,795,0,1438965815565,1438965816173,896,446,0,0,0,2,3,1,23,0002-00-0000-81.png,0003-00-0001-13.png
00000014,796,0,1438965819016,1438965819240,516,371,0,0,0,3,2,1,32,0003-00-0001-53.png,0002-00-0001-96.png
00000014,797,1,1438965822193,1438965822867,923,348,0,0,0,2,1,1,21,0002-00-0000-69.png,0001-00-0001-70.png
00000014,798,1,1438965823786,1438965824603,343,315,0,0,0,4,5,1,45,0004-00-0001-59.png,0005-00-0000-51.png
00000014,799,1,1438965825497,1438965826077,872,484,0,0,0,5,4,1,54,0005-00-0001-54.png,0004-00-0000-52.png
00000014,800,0,1438965826959,1438965826987,510,436,0,0,0,4,3,1,43,0004-00-0000-81.png,0003-00-0000-77.png
00000014,801,0,1438965829966,1438965830512,890,452,0,0,0,2,3,1,23,0002-00-0000-87.png,0003-00-0001-28.png
00000014,802,1,1438965833444,1438965834055,933,339,0,0,0,3,2,1,32,0003-00-0000-90.png,0002-00-0001-56.png
00000014,803,0,1438965834939,1438965835515,362,384,0,0,0,4,3,1,43,0004-00-0000-81.png,0003-00-0000-44.png
00000014,804,0,1438965838441,1438965838475,490,411,0,0,0,2,1,1,21,0002-00-0000-30.png,0001-00-0000-33.png
00000014,805,1,1438965841376,1438965841921,913,319,0,0,0,5,4,1,54,0005-00-0001-52.png,0004-00-0001-76.png
00000014,806,1,1438965843325,1438965843810,311,405,0,0,0,1,2,1,12,0001-00-0001-87.png,0002-00-0000-47.png
00000014,807,0,1438965844743,1438965845456,862,475,0,0,0,4,5,1,45,0004-00-0000-42.png,0005-00-0000-72.png
00000014,808,0,1438965848438,1438965848909,866,456,0,0,0,3,4,1,34,0003-00-0000-44.png,0004-00-0001-87.png
00000014,809,1,1438965851941,1438965852465,876,467,0,0,0,3,2,1,32,0003-00-0001-86.png,0002-00-0001-59.png
00000014,810,0,1438965853349,1438965853377,519,436,0,0,0,4,3,1,43,0004-00-0001-46.png,0003-00-0000-91.png
00000014,811,0,1438965856528,1438965856627,507,514,0,0,0,5,4,1,54,0005-00-0000-12.png,0004-00-0001-97.png
00000014,812,1,1438965859707,1438965860281,325,384,0,0,0,3,4,1,34,0003-00-0001-25.png,0004-00-0000-42.png
00000014,813,1,1438965861159,1438965861770,893,379,0,0,0,2,1,1,21,0002-00-0000-73.png,0001-00-0001-50.png
00000014,814,0,1438965862682,1438965863348,878,349,0,0,0,4,5,1,45,0004-00-0000-98.png,0005-00-0000-23.png
00000014,815,1,1438965866246,1438965866298,492,387,0,0,0,1,2,1,12,0001-00-0001-29.png,0002-00-0001-04.png
00000014,816,1,1438965867254,1438965867837,350,332,0,0,0,2,3,1,23,0002-00-0000-54.png,0003-00-0000-53.png
00000014,817,0,1438965868712,1438965868736,515,447,0,0,0,3,2,1,32,0003-00-0001-00.png,0002-00-0001-48.png
00000014,818,1,1438965871762,1438965871778,513,441,0,0,0,4,5,1,45,0004-00-0001-94.png,0005-00-0001-68.png
00000014,819,1,1438965872778,1438965873430,875,345,0,0,0,5,4,1,54,0005-00-0000-79.png,0004-00-0000-89.png
00000014,820,0,1438965874638,1438965874658,522,456,0,0,0,2,1,1,21,0002-00-0000-25.png,0001-00-0001-27.png
00000014,821,1,1438965877646,1438965878179,222,427,0,0,0,1,2,1,12,0001-00-0001-46.png,0002-00-0000-86.png
00000014,822,1,1438965879047,1438965879676,350,358,0,0,0,3,4,1,34,0003-00-0001-11.png,0004-00-0001-37.png
00000014,823,0,1438965880538,1438965880558,523,429,0,0,0,4,3,1,43,0004-00-0000-01.png,0003-00-0000-84.png
00000014,824,1,1438965883699,1438965884186,339,381,0,0,0,2,3,1,23,0002-00-0000-15.png,0003-00-0001-33.png
00000014,825,1,1438965885029,1438965885691,401,358,0,0,0,2,3,1,23,0002-00-0001-16.png,0003-00-0000-10.png
00000014,826,0,1438965886573,1438965887459,387,476,0,0,0,5,4,1,54,0005-00-0000-15.png,0004-00-0000-19.png
00000014,827,1,1438965890301,1438965890856,341,384,0,0,0,1,2,1,12,0001-00-0000-85.png,0002-00-0000-32.png
00000014,828,1,1438965891757,1438965891781,508,488,0,0,0,3,4,1,34,0003-00-0000-62.png,0004-00-0000-71.png
00000014,829,0,1438965892774,1438965894571,907,475,0,0,0,4,5,1,45,0004-00-0000-04.png,0005-00-0000-30.png
00000014,830,0,1438965897500,1438965898691,431,457,0,0,0,3,2,1,32,0003-00-0001-73.png,0002-00-0000-87.png
00000014,831,1,1438965902693,1438965903371,954,393,0,0,0,4,3,1,43,0004-00-0001-07.png,0003-00-0001-35.png
00000014,832,0,1438965904320,1438965905007,290,350,0,0,0,2,1,1,21,0002-00-0001-96.png,0001-00-0000-65.png
00000014,833,0,1438965908046,1438965908673,365,476,0,0,0,4,3,1,43,0004-00-0001-94.png,0003-00-0001-50.png
00000014,834,1,1438965911509,1438965912165,905,350,0,0,0,3,2,1,32,0003-00-0000-65.png,0002-00-0001-57.png
00000014,835,0,1438965913109,1438965913689,881,490,0,0,0,2,3,1,23,0002-00-0001-44.png,0003-00-0001-15.png
00000014,836,0,1438965916602,1438965917116,305,358,0,0,0,5,4,1,54,0005-00-0000-22.png,0004-00-0001-23.png
00000014,837,0,1438965920190,1438965921292,920,413,0,0,0,3,4,1,34,0003-00-0000-66.png,0004-00-0000-75.png
00000014,838,1,1438965924596,1438965925357,895,345,0,0,0,2,1,1,21,0002-00-0000-27.png,0001-00-0001-47.png
00000014,839,1,1438965926270,1438965926954,344,368,0,0,0,4,5,1,45,0004-00-0001-84.png,0005-00-0000-65.png
00000014,840,0,1438965928348,1438965929368,872,485,0,0,0,1,2,1,12,0001-00-0000-49.png,0002-00-0001-71.png
00000014,841,0,1438965932314,1438965932842,327,355,0,0,0,2,1,1,21,0002-00-0000-22.png,0001-00-0000-53.png
00000014,842,0,1438965935813,1438965935841,518,500,0,0,0,4,3,1,43,0004-00-0000-51.png,0003-00-0001-67.png
00000014,843,1,1438965938832,1438965939462,325,358,0,0,0,2,3,1,23,0002-00-0001-83.png,0003-00-0000-86.png
00000014,844,0,1438965940444,1438965941259,309,393,0,0,0,5,4,1,54,0005-00-0000-32.png,0004-00-0001-67.png
00000014,845,0,1438965944159,1438965944978,941,346,0,0,0,4,5,1,45,0004-00-0000-88.png,0005-00-0000-50.png
00000014,846,0,1438965948253,1438965948288,515,436,0,0,0,3,2,1,32,0003-00-0000-22.png,0002-00-0000-05.png
00000014,847,1,1438965951176,1438965951196,483,432,0,0,0,3,4,1,34,0003-00-0001-24.png,0004-00-0001-06.png
00000014,848,1,1438965952273,1438965952305,521,455,0,0,0,1,2,1,12,0001-00-0000-81.png,0002-00-0001-55.png
00000014,849,0,1438965953278,1438965953896,903,362,0,0,0,4,5,1,45,0004-00-0001-77.png,0005-00-0000-19.png
00000014,850,1,1438965956960,1438965957569,890,462,0,0,0,3,2,1,32,0003-00-0001-59.png,0002-00-0001-62.png
00000014,851,1,1438965958484,1438965959078,873,491,0,0,0,5,4,1,54,0005-00-0001-37.png,0004-00-0000-58.png
00000014,852,0,1438965960024,1438965960036,514,426,0,0,0,2,1,1,21,0002-00-0000-09.png,0001-00-0000-85.png
00000014,853,1,1438965963006,1438965963655,319,385,0,0,0,2,3,1,23,0002-00-0000-61.png,0003-00-0001-82.png
00000014,854,1,1438965964573,1438965965239,931,375,0,0,0,4,3,1,43,0004-00-0000-78.png,0003-00-0001-56.png
00000014,855,1,1438965966113,1438965966864,338,398,0,0,0,3,4,1,34,0003-00-0000-83.png,0004-00-0000-45.png
00000014,856,1,1438965967826,1438965967854,503,420,0,0,0,1,2,1,12,0001-00-0001-43.png,0002-00-0001-32.png
00000014,857,1,1438965968878,1438965968910,502,490,0,0,0,2,3,1,23,0002-00-0001-56.png,0003-00-0000-75.png
00000014,858,1,1438965970133,1438965970664,372,488,0,0,0,4,5,1,45,0004-00-0001-47.png,0005-00-0001-28.png
00000014,859,1,1438965971643,1438965972270,895,367,0,0,0,5,4,1,54,0005-00-0000-68.png,0004-00-0000-34.png
00000014,860,1,1438965973221,1438965973903,294,369,0,0,0,3,4,1,34,0003-00-0000-41.png,0004-00-0001-70.png
00000014,861,1,1438965974808,1438965975541,899,429,0,0,0,4,3,1,43,0004-00-0001-51.png,0003-00-0000-72.png
00000014,862,1,1438965976520,1438965977720,901,467,0,0,0,2,1,1,21,0002-00-0001-75.png,0001-00-0001-54.png
00000014,863,0,1438965978595,1438965978629,516,455,0,0,0,3,2,1,32,0003-00-0001-02.png,0002-00-0000-69.png
00000014,864,1,1438965981516,1438965981532,481,413,0,0,0,1,2,1,12,0001-00-0001-62.png,0002-00-0000-59.png
00000014,865,1,1438965982514,1438965983124,962,407,0,0,0,4,3,1,43,0004-00-0001-91.png,0003-00-0000-39.png
00000014,866,0,1438965984001,1438965984592,905,402,0,0,0,3,4,1,34,0003-00-0001-30.png,0004-00-0001-94.png
00000014,867,1,1438965987762,1438965988310,287,367,0,0,0,2,3,1,23,0002-00-0000-43.png,0003-00-0001-52.png
00000014,868,0,1438965989240,1438965989872,900,384,0,0,0,1,2,1,12,0001-00-0000-31.png,0002-00-0000-76.png
00000014,869,1,1438965992949,1438965993519,958,364,0,0,0,5,4,1,54,0005-00-0000-15.png,0004-00-0000-63.png
00000014,870,1,1438965994376,1438965994982,922,395,0,0,0,2,1,1,21,0002-00-0001-41.png,0001-00-0000-76.png
00000014,871,1,1438965995877,1438965996536,305,385,0,0,0,4,5,1,45,0004-00-0001-27.png,0005-00-0001-80.png
00000014,872,0,1438965997568,1438965997588,522,454,0,0,0,3,2,1,32,0003-00-0000-84.png,0002-00-0000-35.png
00000014,873,1,1438966000646,1438966001362,394,374,0,0,0,3,4,1,34,0003-00-0001-77.png,0004-00-0001-20.png
00000014,874,1,1438966002407,1438966003028,316,378,0,0,0,1,2,1,12,0001-00-0001-89.png,0002-00-0001-18.png
00000014,875,0,1438966003946,1438966004592,900,385,0,0,0,4,5,1,45,0004-00-0001-30.png,0005-00-0000-69.png
00000014,876,0,1438966007444,1438966007476,521,376,0,0,0,4,3,1,43,0004-00-0001-16.png,0003-00-0001-56.png
00000014,877,0,1438966010444,1438966010468,506,410,0,0,0,3,2,1,32,0003-00-0001-41.png,0002-00-0001-08.png
00000014,878,1,1438966013397,1438966014157,890,348,0,0,0,2,1,1,21,0002-00-0001-40.png,0001-00-0000-43.png
00000014,879,0,1438966015138,1438966015166,513,481,0,0,0,5,4,1,54,0005-00-0000-31.png,0004-00-0000-03.png
00000014,880,1,1438966018264,1438966018879,340,470,0,0,0,2,3,1,23,0002-00-0000-99.png,0003-00-0001-36.png
00000014,881,0,1438966019756,1438966019780,516,420,0,0,0,2,1,1,21,0002-00-0000-69.png,0001-00-0000-43.png
00000014,882,1,1438966022673,1438966023380,305,348,0,0,0,4,5,1,45,0004-00-0000-75.png,0005-00-0000-80.png
00000014,883,1,1438966024277,1438966024297,522,403,0,0,0,2,3,1,23,0002-00-0001-50.png,0003-00-0001-18.png
00000014,884,1,1438966025302,1438966025914,316,376,0,0,0,1,2,1,12,0001-00-0000-85.png,0002-00-0000-38.png
00000014,885,1,1438966027278,1438966028135,902,469,0,0,0,3,2,1,32,0003-00-0000-88.png,0002-00-0001-78.png
00000014,886,1,1438966029151,1438966029863,934,415,0,0,0,4,3,1,43,0004-00-0000-24.png,0003-00-0001-31.png
00000014,887,1,1438966030737,1438966031530,400,370,0,0,0,3,4,1,34,0003-00-0001-05.png,0004-00-0000-47.png
00000014,888,0,1438966032397,1438966032421,510,443,0,0,0,5,4,1,54,0005-00-0000-22.png,0004-00-0001-97.png
00000014,889,0,1438966035672,1438966036211,929,402,0,0,0,3,4,1,34,0003-00-0000-44.png,0004-00-0000-50.png
00000014,890,1,1438966039134,1438966039162,473,443,0,0,0,4,5,1,45,0004-00-0000-66.png,0005-00-0001-28.png
00000014,891,1,1438966040310,1438966040843,917,371,0,0,0,2,1,1,21,0002-00-0001-58.png,0001-00-0000-29.png
00000014,892,1,1438966041717,1438966042398,401,358,0,0,0,1,2,1,12,0001-00-0001-43.png,0002-00-0001-61.png
00000014,893,0,1438966043289,1438966043309,511,436,0,0,0,3,2,1,32,0003-00-0001-32.png,0002-00-0001-24.png
00000014,894,1,1438966046208,1438966046233,519,481,0,0,0,2,3,1,23,0002-00-0000-66.png,0003-00-0001-54.png
00000014,895,0,1438966047286,1438966048012,340,361,0,0,0,4,3,1,43,0004-00-0001-90.png,0003-00-0001-77.png
00000014,896,1,1438966050979,1438966051738,877,326,0,0,0,5,4,1,54,0005-00-0000-39.png,0004-00-0001-26.png
00000014,897,0,1438966052604,1438966052670,522,495,0,0,0,3,2,1,32,0003-00-0000-77.png,0002-00-0000-35.png
00000014,898,0,1438966055504,1438966056144,315,390,0,0,0,5,4,1,54,0005-00-0000-11.png,0004-00-0000-70.png
00000014,899,1,1438966065560,1438966066050,356,289,0,0,0,2,3,1,23,0002-00-0000-63.png,0003-00-0000-04.png
00000014,900,1,1438966066986,1438966067687,915,397,0,0,0,2,1,1,21,0002-00-0000-42.png,0001-00-0001-96.png
00000014,901,1,1438966068604,1438966069405,350,345,0,0,0,4,5,1,45,0004-00-0000-26.png,0005-00-0000-70.png
00000014,902,1,1438966070526,1438966071099,417,496,0,0,0,1,2,1,12,0001-00-0000-19.png,0002-00-0000-42.png
00000014,903,1,1438966071960,1438966072576,401,358,0,0,0,3,4,1,34,0003-00-0000-94.png,0004-00-0000-48.png
00000014,904,1,1438966073594,1438966074178,929,391,0,0,0,4,3,1,43,0004-00-0000-80.png,0003-00-0000-30.png
00000014,905,1,1438966075134,1438966075162,523,467,0,0,0,1,2,1,12,0001-00-0000-33.png,0002-00-0000-84.png
00000014,906,1,1438966076516,1438966077100,890,369,0,0,0,3,2,1,32,0003-00-0000-63.png,0002-00-0001-64.png
00000014,907,1,1438966078587,1438966079206,322,405,0,0,0,3,4,1,34,0003-00-0000-31.png,0004-00-0001-39.png
00000014,908,1,1438966080183,1438966080917,896,463,0,0,0,2,1,1,21,0002-00-0000-34.png,0001-00-0001-81.png
00000014,909,1,1438966081802,1438966081818,497,454,0,0,0,2,3,1,23,0002-00-0000-73.png,0003-00-0001-42.png
00000014,910,1,1438966082917,1438966083534,905,401,0,0,0,4,3,1,43,0004-00-0001-53.png,0003-00-0000-82.png
00000014,911,1,1438966084435,1438966085022,862,514,0,0,0,5,4,1,54,0005-00-0000-74.png,0004-00-0000-55.png
00000014,912,0,1438966086055,1438966086860,881,364,0,0,0,4,5,1,45,0004-00-0001-61.png,0005-00-0000-82.png
00000014,913,1,1438966089921,1438966090408,323,394,0,0,0,2,3,1,23,0002-00-0000-28.png,0003-00-0000-34.png
00000014,914,1,1438966091334,1438966091365,495,429,0,0,0,3,4,1,34,0003-00-0001-13.png,0004-00-0001-75.png
00000014,915,1,1438966092357,1438966092369,518,474,0,0,0,1,2,1,12,0001-00-0001-59.png,0002-00-0000-45.png
00000014,916,1,1438966093544,1438966094069,913,365,0,0,0,4,3,1,43,0004-00-0000-78.png,0003-00-0001-44.png
00000014,917,0,1438966095022,1438966095705,350,358,0,0,0,3,2,1,32,0003-00-0000-72.png,0002-00-0000-65.png
00000014,918,0,1438966098558,1438966098578,513,410,0,0,0,2,1,1,21,0002-00-0000-40.png,0001-00-0000-32.png
00000014,919,1,1438966101477,1438966101505,513,391,0,0,0,4,5,1,45,0004-00-0001-10.png,0005-00-0001-44.png
00000014,920,0,1438966102554,1438966103116,315,397,0,0,0,5,4,1,54,0005-00-0001-36.png,0004-00-0000-39.png
00000014,921,1,1438966106213,1438966106716,315,372,0,0,0,2,3,1,23,0002-00-0000-81.png,0003-00-0000-52.png
00000014,922,1,1438966107661,1438966108317,903,334,0,0,0,4,3,1,43,0004-00-0000-88.png,0003-00-0000-95.png
00000014,923,1,1438966109273,1438966110041,389,450,0,0,0,4,5,1,45,0004-00-0000-31.png,0005-00-0001-43.png
00000014,924,0,1438966110950,1438966110982,504,427,0,0,0,5,4,1,54,0005-00-0001-02.png,0004-00-0001-83.png
00000014,925,1,1438966113869,1438966113897,493,396,0,0,0,1,2,1,12,0001-00-0001-32.png,0002-00-0001-11.png
00000014,926,1,1438966114917,1438966115533,875,408,0,0,0,3,2,1,32,0003-00-0000-65.png,0002-00-0000-69.png
00000014,927,0,1438966116476,1438966117224,335,405,0,0,0,2,1,1,21,0002-00-0000-61.png,0001-00-0000-57.png
00000014,928,0,1438966120093,1438966120685,905,364,0,0,0,3,4,1,34,0003-00-0001-56.png,0004-00-0001-55.png
00000014,929,0,1438966123551,1438966123575,491,451,0,0,0,5,4,1,54,0005-00-0000-20.png,0004-00-0000-69.png
00000014,930,1,1438966126928,1438966127668,870,368,0,0,0,3,2,1,32,0003-00-0001-63.png,0002-00-0000-06.png
00000014,931,1,1438966128591,1438966128611,522,480,0,0,0,2,3,1,23,0002-00-0001-48.png,0003-00-0000-35.png
00000014,932,0,1438966129693,1438966130284,876,339,0,0,0,4,5,1,45,0004-00-0000-11.png,0005-00-0000-40.png
00000014,933,0,1438966133356,1438966134081,928,449,0,0,0,1,2,1,12,0001-00-0001-23.png,0002-00-0000-53.png
00000014,934,1,1438966136938,1438966137538,888,514,0,0,0,4,3,1,43,0004-00-0001-48.png,0003-00-0001-81.png
00000014,935,1,1438966138508,1438966139060,299,379,0,0,0,3,4,1,34,0003-00-0001-75.png,0004-00-0001-42.png
00000014,936,0,1438966139987,1438966140003,504,423,0,0,0,2,1,1,21,0002-00-0000-12.png,0001-00-0001-43.png
00000014,937,0,1438966142867,1438966142883,493,418,0,0,0,4,3,1,43,0004-00-0000-25.png,0003-00-0001-46.png
00000014,938,1,1438966145837,1438966145861,519,422,0,0,0,2,3,1,23,0002-00-0001-59.png,0003-00-0000-09.png
00000014,939,0,1438966146806,1438966147320,350,358,0,0,0,5,4,1,54,0005-00-0000-26.png,0004-00-0001-16.png
00000014,940,0,1438966150361,1438966150965,871,470,0,0,0,1,2,1,12,0001-00-0000-22.png,0002-00-0001-35.png
00000014,941,0,1438966153993,1438966154558,376,332,0,0,0,3,2,1,32,0003-00-0001-76.png,0002-00-0001-04.png
00000014,942,0,1438966157537,1438966157549,484,412,0,0,0,2,1,1,21,0002-00-0001-38.png,0001-00-0000-29.png
