subject_id,trial,correct_response,stim_time,response_time,x_coord,y_coord,trial_timeout,timeout_time,interTrial_timeout,left_rank,right_rank,distance,joint_rank,left_image,right_image
00000014,1,0,1438611929496,1438611930080,414,490,0,0,0,4,3,1,43,0004-00-0001-67.png,0003-00-0001-23.png
00000014,2,1,1438611930956,1438611931602,940,547,0,0,0,3,2,1,32,0003-00-0000-43.png,0002-00-0001-74.png
00000014,3,1,1438611932765,1438611933238,338,443,0,0,0,4,5,1,45,0004-00-0000-52.png,0005-00-0000-44.png
00000014,4,0,1438611934434,1438611934941,299,452,0,0,0,2,1,1,21,0002-00-0001-67.png,0001-00-0000-54.png
00000014,5,0,1438611936054,1438611936454,292,443,0,0,0,5,4,1,54,0005-00-0000-71.png,0004-00-0000-11.png
00000014,6,1,1438611942607,1438611943241,381,277,0,0,0,1,2,1,12,0001-00-0001-27.png,0002-00-0000-42.png
00000014,7,1,1438611944383,1438611944878,332,453,0,0,0,3,4,1,34,0003-00-0001-34.png,0004-00-0000-04.png
00000014,8,1,1438611945846,1438611946304,325,419,0,0,0,2,3,1,23,0002-00-0000-17.png,0003-00-0001-22.png
00000014,9,1,1438611951532,1438611951943,309,423,0,0,0,3,4,1,34,0003-00-0001-02.png,0004-00-0000-53.png
00000014,10,1,1438611953041,1438611953444,333,414,0,0,0,2,3,1,23,0002-00-0000-76.png,0003-00-0000-94.png
00000014,11,0,1438611954720,1438611955244,324,431,0,0,0,5,4,1,54,0005-00-0000-50.png,0004-00-0000-89.png
00000014,12,0,1438611959182,1438611959696,307,463,0,0,0,4,3,1,43,0004-00-0000-67.png,0003-00-0000-62.png
00000014,13,1,1438611960793,1438611961326,336,450,0,0,0,4,5,1,45,0004-00-0000-30.png,0005-00-0001-31.png
00000014,14,1,1438611962293,1438611962703,355,410,0,0,0,1,2,1,12,0001-00-0000-66.png,0002-00-0001-55.png
00000014,15,0,1438611963533,1438611964085,304,409,0,0,0,2,1,1,21,0002-00-0000-68.png,0001-00-0000-76.png
00000014,16,0,1438611973428,1438611973782,328,350,0,0,0,3,2,1,32,0003-00-0001-59.png,0002-00-0000-64.png
00000014,17,0,1438611975066,1438611975086,504,473,0,0,0,5,4,1,54,0005-00-0000-32.png,0004-00-0000-68.png
00000014,18,1,1438611976310,1438611976797,261,423,0,0,0,2,3,1,23,0002-00-0001-84.png,0003-00-0000-35.png
00000014,19,0,1438611978325,1438611979137,318,503,0,0,0,2,1,1,21,0002-00-0000-79.png,0001-00-0000-70.png
00000014,20,1,1438611982274,1438611982746,279,408,0,0,0,4,5,1,45,0004-00-0000-59.png,0005-00-0001-80.png
00000014,21,1,1438611985144,1438611985769,426,562,0,0,0,3,4,1,34,0003-00-0001-53.png,0004-00-0000-85.png
00000014,22,0,1438611988492,1438611989072,366,542,0,0,0,3,2,1,32,0003-00-0001-01.png,0002-00-0000-52.png
00000014,23,1,1438611992897,1438611993433,332,426,0,0,0,1,2,1,12,0001-00-0000-96.png,0002-00-0001-47.png
00000014,24,0,1438611994551,1438611994994,279,392,0,0,0,4,3,1,43,0004-00-0001-04.png,0003-00-0000-15.png
00000014,25,0,1438611996427,1438611996465,523,517,0,0,0,5,4,1,54,0005-00-0000-74.png,0004-00-0001-77.png
00000014,26,0,1438611997462,1438611997468,504,488,0,0,0,2,1,1,21,0002-00-0001-14.png,0001-00-0001-17.png
00000014,27,0,1438611998665,1438611999244,350,423,0,0,0,4,3,1,43,0004-00-0000-66.png,0003-00-0000-75.png
00000014,28,1,1438612000375,1438612001124,908,437,0,0,0,3,2,1,32,0003-00-0001-25.png,0002-00-0000-27.png
00000014,29,1,1438612002450,1438612003414,305,383,0,0,0,1,2,1,12,0001-00-0000-17.png,0002-00-0000-43.png
00000014,30,1,1438612004798,1438612004832,511,459,0,0,0,2,3,1,23,0002-00-0000-74.png,0003-00-0001-60.png
00000014,31,1,1438612006091,1438612006592,354,498,0,0,0,4,5,1,45,0004-00-0001-52.png,0005-00-0001-44.png
00000014,32,1,1438612009539,1438612010102,329,407,0,0,0,3,4,1,34,0003-00-0000-02.png,0004-00-0001-27.png
00000014,33,0,1438612011634,1438612012101,296,389,0,0,0,3,2,1,32,0003-00-0000-77.png,0002-00-0000-02.png
00000014,34,0,1438612015123,1438612015666,333,438,0,0,0,5,4,1,54,0005-00-0001-74.png,0004-00-0001-11.png
00000014,35,1,1438612016635,1438612016663,520,488,0,0,0,2,3,1,23,0002-00-0001-42.png,0003-00-0000-19.png
00000014,36,0,1438612018151,1438612018650,330,375,0,0,0,2,1,1,21,0002-00-0000-88.png,0001-00-0000-48.png
00000014,37,0,1438612020074,1438612020570,308,418,0,0,0,4,3,1,43,0004-00-0000-13.png,0003-00-0000-39.png
00000014,38,0,1438612021760,1438612022410,890,483,0,0,0,3,4,1,34,0003-00-0000-45.png,0004-00-0001-08.png
00000014,39,1,1438612023558,1438612024226,360,441,0,0,0,1,2,1,12,0001-00-0001-57.png,0002-00-0001-21.png
00000014,40,1,1438612025509,1438612026015,330,408,0,0,0,4,5,1,45,0004-00-0001-21.png,0005-00-0000-47.png
00000014,41,0,1438612027701,1438612028215,315,412,0,0,0,4,3,1,43,0004-00-0001-09.png,0003-00-0000-96.png
00000014,42,1,1438612029367,1438612029831,327,412,0,0,0,2,3,1,23,0002-00-0000-01.png,0003-00-0001-05.png
00000014,43,0,1438612031114,1438612031726,343,417,0,0,0,3,2,1,32,0003-00-0001-91.png,0002-00-0000-35.png
00000014,44,1,1438612032548,1438612033216,350,391,0,0,0,3,4,1,34,0003-00-0000-93.png,0004-00-0001-97.png
00000014,45,0,1438612034523,1438612035129,310,401,0,0,0,2,1,1,21,0002-00-0000-85.png,0001-00-0000-78.png
00000014,46,1,1438612036870,1438612037440,356,405,0,0,0,1,2,1,12,0001-00-0001-03.png,0002-00-0000-61.png
00000014,47,1,1438612038495,1438612039264,899,459,0,0,0,5,4,1,54,0005-00-0000-95.png,0004-00-0001-61.png
00000014,48,1,1438612040385,1438612040978,329,420,0,0,0,4,5,1,45,0004-00-0001-27.png,0005-00-0000-02.png
00000014,49,1,1438612042339,1438612043044,322,418,0,0,0,3,4,1,34,0003-00-0001-14.png,0004-00-0001-72.png
00000014,50,0,1438612044310,1438612044984,328,397,0,0,0,2,1,1,21,0002-00-0001-24.png,0001-00-0000-79.png
00000014,51,0,1438612046130,1438612046174,507,507,0,0,0,5,4,1,54,0005-00-0001-37.png,0004-00-0001-55.png
00000014,52,1,1438612068145,1438612068878,330,488,0,0,0,1,2,1,12,0001-00-0001-24.png,0002-00-0000-05.png
00000014,53,0,1438612071209,1438612080766,369,548,0,0,0,3,2,1,32,0003-00-0000-90.png,0002-00-0000-09.png
00000014,54,1,1438612081754,1438612082172,345,516,0,0,0,4,5,1,45,0004-00-0000-67.png,0005-00-0000-88.png
00000014,55,0,1438612083545,1438612084054,309,412,0,0,0,4,3,1,43,0004-00-0001-69.png,0003-00-0001-42.png
00000014,56,1,1438612085176,1438612085917,311,334,0,0,0,2,3,1,23,0002-00-0000-18.png,0003-00-0000-66.png
00000014,57,0,1438612087197,1438612087570,347,393,0,0,0,4,3,1,43,0004-00-0000-72.png,0003-00-0001-75.png
00000014,58,1,1438612088839,1438612089515,946,394,0,0,0,3,2,1,32,0003-00-0000-32.png,0002-00-0000-44.png
00000014,59,0,1438612090721,1438612091276,299,445,0,0,0,5,4,1,54,0005-00-0001-44.png,0004-00-0001-36.png
00000014,60,1,1438612092619,1438612093257,298,396,0,0,0,2,3,1,23,0002-00-0000-58.png,0003-00-0001-50.png
00000014,61,0,1438612095687,1438612096330,327,436,0,0,0,2,1,1,21,0002-00-0001-59.png,0001-00-0000-25.png
00000014,62,1,1438612097378,1438612097990,273,423,0,0,0,3,4,1,34,0003-00-0000-52.png,0004-00-0001-91.png
00000014,63,0,1438612099288,1438612099921,905,324,0,0,0,4,5,1,45,0004-00-0001-75.png,0005-00-0001-75.png
00000014,64,1,1438612109416,1438612110812,222,462,0,0,0,1,2,1,12,0001-00-0000-32.png,0002-00-0001-26.png
00000014,65,0,1438612113581,1438612114063,402,527,0,0,0,2,1,1,21,0002-00-0001-26.png,0001-00-0001-53.png
00000014,66,1,1438612115048,1438612115518,336,499,0,0,0,2,3,1,23,0002-00-0000-53.png,0003-00-0000-77.png
00000014,67,1,1438612117189,1438612117724,371,418,0,0,0,3,4,1,34,0003-00-0001-08.png,0004-00-0001-94.png
00000014,68,1,1438612119326,1438612119796,332,404,0,0,0,4,5,1,45,0004-00-0001-08.png,0005-00-0001-31.png
00000014,69,0,1438612121284,1438612121809,300,397,0,0,0,3,2,1,32,0003-00-0000-36.png,0002-00-0000-29.png
00000014,70,0,1438612123005,1438612123396,303,403,0,0,0,4,3,1,43,0004-00-0001-55.png,0003-00-0001-34.png
00000014,71,0,1438612124861,1438612125315,325,422,0,0,0,5,4,1,54,0005-00-0000-29.png,0004-00-0001-76.png
00000014,72,1,1438612126790,1438612127322,273,419,0,0,0,1,2,1,12,0001-00-0000-69.png,0002-00-0001-30.png
00000014,73,0,1438612128889,1438612129471,327,405,0,0,0,5,4,1,54,0005-00-0001-53.png,0004-00-0001-99.png
00000014,74,1,1438612130385,1438612130809,329,403,0,0,0,1,2,1,12,0001-00-0001-02.png,0002-00-0000-81.png
00000014,75,0,1438612132827,1438612133310,327,399,0,0,0,3,2,1,32,0003-00-0001-74.png,0002-00-0001-37.png
00000014,76,0,1438612134194,1438612134697,340,445,0,0,0,4,3,1,43,0004-00-0001-55.png,0003-00-0001-58.png
00000014,77,1,1438612135822,1438612135878,491,495,0,0,0,3,4,1,34,0003-00-0001-49.png,0004-00-0001-65.png
00000014,78,1,1438612137368,1438612137897,319,387,0,0,0,2,3,1,23,0002-00-0001-77.png,0003-00-0001-10.png
00000014,79,1,1438612139233,1438612139760,355,399,0,0,0,4,5,1,45,0004-00-0001-41.png,0005-00-0001-64.png
00000014,80,0,1438612141159,1438612141623,318,408,0,0,0,2,1,1,21,0002-00-0000-88.png,0001-00-0001-81.png
00000014,81,1,1438612143058,1438612143930,330,419,0,0,0,1,2,1,12,0001-00-0000-11.png,0002-00-0001-08.png
00000014,82,0,1438612144908,1438612145423,321,395,0,0,0,4,3,1,43,0004-00-0001-10.png,0003-00-0000-67.png
00000014,83,1,1438612146246,1438612146703,346,390,0,0,0,4,5,1,45,0004-00-0000-86.png,0005-00-0001-86.png
00000014,84,0,1438612147700,1438612148205,197,462,0,0,0,3,2,1,32,0003-00-0000-62.png,0002-00-0001-04.png
00000014,85,1,1438612149249,1438612149265,504,462,0,0,0,2,3,1,23,0002-00-0001-28.png,0003-00-0001-74.png
00000014,86,0,1438612150304,1438612150953,950,352,0,0,0,3,4,1,34,0003-00-0000-28.png,0004-00-0001-47.png
00000014,87,0,1438612151893,1438612152344,325,420,0,0,0,5,4,1,54,0005-00-0001-05.png,0004-00-0001-13.png
00000014,88,0,1438612153525,1438612154006,273,373,0,0,0,2,1,1,21,0002-00-0001-01.png,0001-00-0001-77.png
00000014,89,1,1438612155142,1438612155637,325,422,0,0,0,3,4,1,34,0003-00-0001-91.png,0004-00-0000-86.png
00000014,90,1,1438612156644,1438612157257,341,375,0,0,0,1,2,1,12,0001-00-0001-77.png,0002-00-0000-40.png
00000014,91,1,1438612158274,1438612167442,376,396,0,0,0,4,5,1,45,0004-00-0001-11.png,0005-00-0000-36.png
00000014,92,0,1438612168568,1438612169035,222,372,0,0,0,5,4,1,54,0005-00-0001-03.png,0004-00-0001-09.png
00000014,93,1,1438612169959,1438612170329,375,461,0,0,0,2,3,1,23,0002-00-0001-59.png,0003-00-0001-33.png
00000014,94,0,1438612171301,1438612171861,324,373,0,0,0,4,3,1,43,0004-00-0000-53.png,0003-00-0000-19.png
00000014,95,0,1438612172692,1438612172712,504,410,0,0,0,2,1,1,21,0002-00-0001-49.png,0001-00-0001-36.png
00000014,96,0,1438612173955,1438612173980,521,440,0,0,0,3,2,1,32,0003-00-0001-26.png,0002-00-0000-75.png
00000014,97,0,1438612174837,1438612175496,333,533,0,0,0,5,4,1,54,0005-00-0000-56.png,0004-00-0001-25.png
00000014,98,0,1438612176696,1438612177258,410,550,0,0,0,2,1,1,21,0002-00-0001-48.png,0001-00-0000-48.png
00000014,99,0,1438612180945,1438612181392,248,462,0,0,0,3,2,1,32,0003-00-0001-07.png,0002-00-0001-42.png
00000014,100,1,1438612182686,1438612182702,504,477,0,0,0,3,4,1,34,0003-00-0000-34.png,0004-00-0000-11.png
00000014,101,1,1438612183734,1438612184216,346,393,0,0,0,1,2,1,12,0001-00-0000-32.png,0002-00-0000-05.png
00000014,102,1,1438612185214,1438612185728,326,401,0,0,0,2,3,1,23,0002-00-0001-50.png,0003-00-0000-24.png
00000014,103,1,1438612186737,1438612186769,513,462,0,0,0,4,5,1,45,0004-00-0000-42.png,0005-00-0001-08.png
00000014,104,0,1438612187909,1438612188411,320,412,0,0,0,4,3,1,43,0004-00-0000-63.png,0003-00-0001-61.png
00000014,105,1,1438612189443,1438612190086,931,369,0,0,0,2,1,1,21,0002-00-0001-78.png,0001-00-0001-65.png
00000014,106,0,1438612191089,1438612191125,518,501,0,0,0,3,2,1,32,0003-00-0001-13.png,0002-00-0000-00.png
00000014,107,0,1438612192700,1438612192708,510,440,0,0,0,5,4,1,54,0005-00-0001-16.png,0004-00-0000-07.png
00000014,108,0,1438612194031,1438612194055,504,480,0,0,0,4,3,1,43,0004-00-0001-69.png,0003-00-0000-30.png
00000014,109,1,1438612194932,1438612195380,360,476,0,0,0,1,2,1,12,0001-00-0001-32.png,0002-00-0001-58.png
00000014,110,1,1438612196328,1438612197019,399,558,0,0,0,4,5,1,45,0004-00-0001-58.png,0005-00-0000-08.png
00000014,111,1,1438612197968,1438612197984,517,452,0,0,0,2,3,1,23,0002-00-0000-29.png,0003-00-0000-08.png
00000014,112,1,1438612199122,1438612199609,350,410,0,0,0,3,4,1,34,0003-00-0000-16.png,0004-00-0001-67.png
00000014,113,1,1438612200605,1438612200677,489,488,0,0,0,4,5,1,45,0004-00-0000-91.png,0005-00-0000-43.png
00000014,114,0,1438612201696,1438612202280,416,505,0,0,0,5,4,1,54,0005-00-0000-63.png,0004-00-0001-24.png
00000014,115,1,1438612203224,1438612203236,504,398,0,0,0,3,4,1,34,0003-00-0000-98.png,0004-00-0000-93.png
00000014,116,0,1438612204240,1438612204799,328,399,0,0,0,2,1,1,21,0002-00-0000-83.png,0001-00-0001-69.png
00000014,117,1,1438612205650,1438612206103,322,396,0,0,0,1,2,1,12,0001-00-0001-06.png,0002-00-0001-22.png
00000014,118,1,1438612206961,1438612214429,371,514,0,0,0,2,3,1,23,0002-00-0001-64.png,0003-00-0001-09.png
00000014,119,0,1438612215825,1438612216402,389,539,0,0,0,4,3,1,43,0004-00-0001-72.png,0003-00-0000-31.png
00000014,120,1,1438612217433,1438612217958,925,386,0,0,0,3,2,1,32,0003-00-0001-84.png,0002-00-0001-71.png
00000014,121,1,1438612218956,1438612224317,298,397,0,0,0,3,4,1,34,0003-00-0000-83.png,0004-00-0000-68.png
00000014,122,0,1438612226807,1438612227243,375,470,0,0,0,2,1,1,21,0002-00-0001-81.png,0001-00-0001-06.png
00000014,123,0,1438612228171,1438612228175,504,445,0,0,0,3,2,1,32,0003-00-0000-79.png,0002-00-0000-31.png
00000014,124,1,1438612229172,1438612229666,324,388,0,0,0,2,3,1,23,0002-00-0000-70.png,0003-00-0000-25.png
00000014,125,0,1438612230612,1438612231149,325,397,0,0,0,5,4,1,54,0005-00-0000-09.png,0004-00-0000-15.png
00000014,126,0,1438612235404,1438612235906,345,407,0,0,0,4,3,1,43,0004-00-0001-02.png,0003-00-0000-62.png
00000014,127,0,1438612237014,1438612237865,924,440,0,0,0,4,5,1,45,0004-00-0000-98.png,0005-00-0000-34.png
00000014,128,1,1438612238923,1438612239378,402,488,0,0,0,1,2,1,12,0001-00-0001-10.png,0002-00-0000-61.png
00000014,129,0,1438612240315,1438612240889,369,365,0,0,0,3,2,1,32,0003-00-0000-00.png,0002-00-0001-67.png
00000014,130,1,1438612241896,1438612243005,952,436,0,0,0,2,1,1,21,0002-00-0000-96.png,0001-00-0001-49.png
00000014,131,1,1438612243953,1438612244444,409,494,0,0,0,4,5,1,45,0004-00-0000-04.png,0005-00-0000-26.png
00000014,132,1,1438612245360,1438612246032,955,350,0,0,0,5,4,1,54,0005-00-0001-28.png,0004-00-0000-54.png
00000014,133,1,1438612247072,1438612247076,523,419,0,0,0,3,4,1,34,0003-00-0000-64.png,0004-00-0000-09.png
00000014,134,1,1438612248146,1438612248622,332,396,0,0,0,1,2,1,12,0001-00-0001-94.png,0002-00-0000-37.png
00000014,135,1,1438612249557,1438612250082,293,390,0,0,0,2,3,1,23,0002-00-0001-06.png,0003-00-0000-42.png
00000014,136,0,1438612251043,1438612251637,414,502,0,0,0,4,3,1,43,0004-00-0001-48.png,0003-00-0000-69.png
00000014,137,1,1438612252567,1438612252975,350,371,0,0,0,4,5,1,45,0004-00-0000-71.png,0005-00-0000-36.png
00000014,138,1,1438612253868,1438612254392,294,401,0,0,0,2,3,1,23,0002-00-0000-87.png,0003-00-0000-22.png
00000014,139,0,1438612255319,1438612255355,518,450,0,0,0,2,1,1,21,0002-00-0001-47.png,0001-00-0001-19.png
00000014,140,1,1438612256441,1438612256461,490,421,0,0,0,1,2,1,12,0001-00-0001-86.png,0002-00-0000-76.png
00000014,141,0,1438612257393,1438612257906,356,393,0,0,0,4,3,1,43,0004-00-0000-38.png,0003-00-0001-51.png
00000014,142,0,1438612259028,1438612259527,343,398,0,0,0,5,4,1,54,0005-00-0000-75.png,0004-00-0001-19.png
00000014,143,1,1438612260507,1438612261032,314,419,0,0,0,3,4,1,34,0003-00-0000-14.png,0004-00-0000-42.png
00000014,144,1,1438612261907,1438612262483,925,386,0,0,0,3,2,1,32,0003-00-0000-55.png,0002-00-0001-57.png
00000014,145,0,1438612263419,1438612263427,513,433,0,0,0,2,1,1,21,0002-00-0000-29.png,0001-00-0000-40.png
00000014,146,0,1438612264270,1438612264797,439,491,0,0,0,4,3,1,43,0004-00-0000-69.png,0003-00-0000-60.png
00000014,147,1,1438612265734,1438612266280,350,396,0,0,0,3,4,1,34,0003-00-0000-80.png,0004-00-0000-32.png
00000014,148,1,1438612267194,1438612267218,498,495,0,0,0,4,5,1,45,0004-00-0001-76.png,0005-00-0001-65.png
00000014,149,1,1438612268288,1438612268887,925,410,0,0,0,3,2,1,32,0003-00-0000-14.png,0002-00-0000-10.png
00000014,150,0,1438612269934,1438612270393,338,397,0,0,0,5,4,1,54,0005-00-0000-89.png,0004-00-0000-63.png
00000014,151,1,1438612271567,1438612271576,495,410,0,0,0,2,3,1,23,0002-00-0000-36.png,0003-00-0000-62.png
00000014,152,1,1438612272571,1438612272587,515,410,0,0,0,1,2,1,12,0001-00-0001-87.png,0002-00-0000-05.png
00000014,153,1,1438612273707,1438612274185,322,403,0,0,0,4,5,1,45,0004-00-0001-58.png,0005-00-0001-37.png
00000014,154,1,1438612275214,1438612275877,952,381,0,0,0,5,4,1,54,0005-00-0001-40.png,0004-00-0001-64.png
00000014,155,1,1438612276824,1438612277526,350,345,0,0,0,3,4,1,34,0003-00-0000-48.png,0004-00-0001-04.png
00000014,156,0,1438612278555,1438612278591,487,490,0,0,0,4,3,1,43,0004-00-0001-25.png,0003-00-0000-77.png
00000014,157,1,1438612279726,1438612279746,504,425,0,0,0,1,2,1,12,0001-00-0000-08.png,0002-00-0000-41.png
00000014,158,1,1438612280721,1438612281258,320,407,0,0,0,2,3,1,23,0002-00-0000-31.png,0003-00-0001-35.png
00000014,159,0,1438612282213,1438612282241,496,442,0,0,0,2,1,1,21,0002-00-0001-52.png,0001-00-0000-40.png
00000014,160,0,1438612283086,1438612283098,516,436,0,0,0,3,2,1,32,0003-00-0000-81.png,0002-00-0000-80.png
00000014,161,0,1438612284239,1438612284267,497,417,0,0,0,4,3,1,43,0004-00-0000-46.png,0003-00-0001-97.png
00000014,162,1,1438612285183,1438612285191,504,439,0,0,0,4,5,1,45,0004-00-0001-13.png,0005-00-0000-48.png
00000014,163,1,1438612286178,1438612286824,385,494,0,0,0,3,4,1,34,0003-00-0000-51.png,0004-00-0001-16.png
00000014,164,1,1438612287817,1438612287833,504,425,0,0,0,1,2,1,12,0001-00-0001-14.png,0002-00-0000-39.png
00000014,165,0,1438612288931,1438612289503,400,448,0,0,0,5,4,1,54,0005-00-0001-78.png,0004-00-0000-46.png
00000014,166,1,1438612290392,1438612290436,505,512,0,0,0,2,3,1,23,0002-00-0001-54.png,0003-00-0001-73.png
00000014,167,1,1438612291475,1438612292066,956,402,0,0,0,3,2,1,32,0003-00-0000-36.png,0002-00-0001-26.png
00000014,168,1,1438612293046,1438612294189,931,402,0,0,0,2,1,1,21,0002-00-0000-22.png,0001-00-0001-64.png
00000014,169,1,1438612295153,1438612295773,310,374,0,0,0,2,3,1,23,0002-00-0000-55.png,0003-00-0001-02.png
00000014,170,1,1438612296693,1438612297336,948,367,0,0,0,3,2,1,32,0003-00-0000-91.png,0002-00-0001-01.png
00000014,171,1,1438612298421,1438612298473,522,497,0,0,0,1,2,1,12,0001-00-0000-21.png,0002-00-0000-84.png
00000014,172,1,1438612299624,1438612300228,913,410,0,0,0,5,4,1,54,0005-00-0000-06.png,0004-00-0001-92.png
00000014,173,1,1438612301226,1438612301932,344,353,0,0,0,3,4,1,34,0003-00-0000-95.png,0004-00-0000-15.png
00000014,174,0,1438612302894,1438612302910,504,421,0,0,0,2,1,1,21,0002-00-0001-83.png,0001-00-0001-21.png
00000014,175,0,1438612303760,1438612304369,272,352,0,0,0,4,3,1,43,0004-00-0000-18.png,0003-00-0001-73.png
00000014,176,1,1438612305317,1438612305779,360,470,0,0,0,4,5,1,45,0004-00-0001-48.png,0005-00-0000-67.png
00000014,177,1,1438612306759,1438612307469,901,417,0,0,0,2,1,1,21,0002-00-0001-41.png,0001-00-0000-12.png
00000014,178,1,1438612308448,1438612309079,325,397,0,0,0,3,4,1,34,0003-00-0001-80.png,0004-00-0000-83.png
00000014,179,0,1438612310039,1438612310055,519,418,0,0,0,4,3,1,43,0004-00-0000-19.png,0003-00-0000-37.png
00000014,180,1,1438612311162,1438612311694,364,475,0,0,0,1,2,1,12,0001-00-0001-90.png,0002-00-0000-74.png
00000014,181,1,1438612312625,1438612312655,504,473,0,0,0,2,3,1,23,0002-00-0001-82.png,0003-00-0001-93.png
00000014,182,0,1438612313734,1438612314257,354,392,0,0,0,3,2,1,32,0003-00-0000-02.png,0002-00-0001-43.png
00000014,183,0,1438612315293,1438612315373,493,462,0,0,0,5,4,1,54,0005-00-0001-55.png,0004-00-0000-12.png
00000014,184,1,1438612316207,1438612316637,340,394,0,0,0,4,5,1,45,0004-00-0000-98.png,0005-00-0000-05.png
00000014,185,0,1438612317480,1438612317553,516,493,0,0,0,3,2,1,32,0003-00-0001-04.png,0002-00-0000-00.png
00000014,186,0,1438612318494,1438612318510,484,468,0,0,0,5,4,1,54,0005-00-0001-20.png,0004-00-0001-76.png
00000014,187,1,1438612319369,1438612319813,376,410,0,0,0,3,4,1,34,0003-00-0001-61.png,0004-00-0001-16.png
00000014,188,0,1438612320770,1438612321336,248,462,0,0,0,2,1,1,21,0002-00-0000-74.png,0001-00-0001-99.png
00000014,189,1,1438612322319,1438612322337,497,400,0,0,0,4,5,1,45,0004-00-0001-11.png,0005-00-0000-57.png
00000014,190,1,1438612323411,1438612324013,340,386,0,0,0,1,2,1,12,0001-00-0001-41.png,0002-00-0000-37.png
00000014,191,0,1438612324983,1438612324991,515,462,0,0,0,4,3,1,43,0004-00-0000-56.png,0003-00-0001-12.png
00000014,192,1,1438612325843,1438612326268,350,415,0,0,0,2,3,1,23,0002-00-0000-67.png,0003-00-0001-61.png
00000014,193,0,1438612327177,1438612327222,512,439,0,0,0,2,1,1,21,0002-00-0000-80.png,0001-00-0000-40.png
00000014,194,1,1438612328134,1438612328509,273,346,0,0,0,2,3,1,23,0002-00-0000-29.png,0003-00-0001-25.png
00000014,195,1,1438612329594,1438612329650,509,516,0,0,0,4,5,1,45,0004-00-0000-10.png,0005-00-0001-27.png
00000014,196,1,1438612330800,1438612330900,517,538,0,0,0,3,4,1,34,0003-00-0001-39.png,0004-00-0001-38.png
00000014,197,1,1438612332041,1438612332636,363,391,0,0,0,1,2,1,12,0001-00-0001-50.png,0002-00-0000-69.png
00000014,198,0,1438612334224,1438612334778,324,389,0,0,0,4,3,1,43,0004-00-0001-00.png,0003-00-0001-98.png
00000014,199,0,1438612335846,1438612335918,495,507,0,0,0,3,2,1,32,0003-00-0001-00.png,0002-00-0001-79.png
00000014,200,0,1438612336877,1438612336897,513,454,0,0,0,5,4,1,54,0005-00-0001-76.png,0004-00-0000-38.png
00000014,201,0,1438612337794,1438612338108,507,436,0,0,0,4,3,1,43,0004-00-0001-45.png,0003-00-0001-54.png
00000014,202,1,1438612339072,1438612339132,485,455,0,0,0,3,4,1,34,0003-00-0000-29.png,0004-00-0000-32.png
00000014,203,0,1438612340090,1438612340604,319,394,0,0,0,3,2,1,32,0003-00-0001-18.png,0002-00-0001-67.png
00000014,204,1,1438612341569,1438612341597,512,428,0,0,0,4,5,1,45,0004-00-0001-17.png,0005-00-0000-86.png
00000014,205,1,1438612342624,1438612342648,516,463,0,0,0,2,3,1,23,0002-00-0000-85.png,0003-00-0000-80.png
00000014,206,1,1438612343786,1438612344417,904,350,0,0,0,5,4,1,54,0005-00-0000-46.png,0004-00-0001-18.png
00000014,207,1,1438612345554,1438612345590,519,436,0,0,0,1,2,1,12,0001-00-0001-90.png,0002-00-0001-70.png
00000014,208,1,1438612346619,1438612347222,889,338,0,0,0,2,1,1,21,0002-00-0000-74.png,0001-00-0001-18.png
00000014,209,0,1438612348219,1438612348883,955,401,0,0,0,1,2,1,12,0001-00-0001-09.png,0002-00-0001-95.png
00000014,210,0,1438612350520,1438612350548,513,436,0,0,0,4,3,1,43,0004-00-0001-13.png,0003-00-0001-31.png
00000014,211,0,1438612351436,1438612351464,512,523,0,0,0,5,4,1,54,0005-00-0001-07.png,0004-00-0000-25.png
00000014,212,1,1438612352531,1438612353175,312,416,0,0,0,4,5,1,45,0004-00-0000-78.png,0005-00-0001-97.png
00000014,213,0,1438612354311,1438612354931,886,320,0,0,0,2,3,1,23,0002-00-0001-41.png,0003-00-0001-31.png
00000014,214,0,1438612356338,1438612356354,434,454,0,0,0,3,2,1,32,0003-00-0001-25.png,0002-00-0001-05.png
00000014,215,1,1438612357818,1438612357842,515,398,0,0,0,3,4,1,34,0003-00-0001-40.png,0004-00-0001-53.png
00000014,216,1,1438612358852,1438612359461,931,367,0,0,0,2,1,1,21,0002-00-0000-74.png,0001-00-0000-52.png
00000014,217,1,1438612360399,1438612360997,235,436,0,0,0,1,2,1,12,0001-00-0000-56.png,0002-00-0000-50.png
00000014,218,0,1438612362002,1438612362046,500,489,0,0,0,5,4,1,54,0005-00-0000-26.png,0004-00-0001-45.png
00000014,219,1,1438612362946,1438612362962,478,424,0,0,0,3,4,1,34,0003-00-0001-23.png,0004-00-0000-53.png
00000014,220,0,1438612364017,1438612364513,351,376,0,0,0,2,1,1,21,0002-00-0001-46.png,0001-00-0001-02.png
00000014,221,0,1438612366008,1438612366032,478,426,0,0,0,3,2,1,32,0003-00-0000-40.png,0002-00-0001-65.png
00000014,222,1,1438612366980,1438612367008,504,448,0,0,0,4,5,1,45,0004-00-0001-37.png,0005-00-0001-93.png
00000014,223,0,1438612367987,1438612368003,517,454,0,0,0,4,3,1,43,0004-00-0000-71.png,0003-00-0000-28.png
00000014,224,1,1438612368856,1438612369346,376,358,0,0,0,2,3,1,23,0002-00-0000-72.png,0003-00-0001-89.png
00000014,225,1,1438612370292,1438612370820,387,482,0,0,0,4,5,1,45,0004-00-0000-06.png,0005-00-0000-44.png
00000014,226,0,1438612371762,1438612371770,510,421,0,0,0,3,2,1,32,0003-00-0001-97.png,0002-00-0001-44.png
00000014,227,0,1438612372628,1438612373163,299,388,0,0,0,5,4,1,54,0005-00-0001-41.png,0004-00-0001-00.png
00000014,228,1,1438612374088,1438612374096,474,445,0,0,0,1,2,1,12,0001-00-0000-51.png,0002-00-0001-97.png
00000014,229,1,1438612375349,1438612375433,522,531,0,0,0,3,4,1,34,0003-00-0001-84.png,0004-00-0000-65.png
00000014,230,1,1438612376449,1438612377120,959,415,0,0,0,4,3,1,43,0004-00-0001-96.png,0003-00-0000-38.png
00000014,231,1,1438612378160,1438612378789,941,373,0,0,0,2,1,1,21,0002-00-0001-96.png,0001-00-0001-82.png
00000014,232,1,1438612379733,1438612380238,347,402,0,0,0,2,3,1,23,0002-00-0001-57.png,0003-00-0001-02.png
00000014,233,1,1438612381183,1438612381259,495,462,0,0,0,3,4,1,34,0003-00-0001-90.png,0004-00-0000-57.png
00000014,234,1,1438612382447,1438612383045,411,493,0,0,0,4,5,1,45,0004-00-0000-37.png,0005-00-0000-39.png
00000014,235,0,1438612384076,1438612384144,490,517,0,0,0,3,2,1,32,0003-00-0000-62.png,0002-00-0001-65.png
00000014,236,0,1438612385151,1438612385194,453,482,0,0,0,2,1,1,21,0002-00-0000-71.png,0001-00-0000-88.png
00000014,237,1,1438612386144,1438612386556,327,401,0,0,0,2,3,1,23,0002-00-0000-74.png,0003-00-0001-42.png
00000014,238,1,1438612387474,1438612387482,498,454,0,0,0,1,2,1,12,0001-00-0000-22.png,0002-00-0000-42.png
00000014,239,0,1438612388569,1438612389153,350,378,0,0,0,4,3,1,43,0004-00-0001-60.png,0003-00-0000-72.png
00000014,240,0,1438612390189,1438612390245,486,472,0,0,0,5,4,1,54,0005-00-0001-49.png,0004-00-0000-23.png
00000014,241,0,1438612391092,1438612391158,502,507,0,0,0,4,3,1,43,0004-00-0001-90.png,0003-00-0001-25.png
00000014,242,1,1438612392150,1438612392170,453,477,0,0,0,3,4,1,34,0003-00-0001-05.png,0004-00-0001-03.png
00000014,243,0,1438612393119,1438612393127,510,420,0,0,0,2,1,1,21,0002-00-0001-87.png,0001-00-0001-81.png
00000014,244,1,1438612394362,1438612394921,384,482,0,0,0,4,5,1,45,0004-00-0000-32.png,0005-00-0001-45.png
00000014,245,0,1438612395813,1438612395833,505,419,0,0,0,5,4,1,54,0005-00-0001-43.png,0004-00-0001-79.png
00000014,246,0,1438612396797,1438612397372,383,462,0,0,0,3,2,1,32,0003-00-0000-71.png,0002-00-0000-31.png
00000014,247,1,1438612398305,1438612398353,478,462,0,0,0,2,3,1,23,0002-00-0000-33.png,0003-00-0000-16.png
00000014,248,1,1438612399270,1438612399370,501,493,0,0,0,1,2,1,12,0001-00-0001-95.png,0002-00-0001-40.png
00000014,249,1,1438612400326,1438612409800,401,449,0,0,0,2,3,1,23,0002-00-0000-97.png,0003-00-0000-10.png
00000014,250,0,1438612411192,1438612411698,376,501,0,0,0,5,4,1,54,0005-00-0001-58.png,0004-00-0000-21.png
00000014,251,0,1438612412548,1438612413102,197,478,0,0,0,2,1,1,21,0002-00-0000-79.png,0001-00-0000-68.png
00000014,252,0,1438612414224,1438612414837,898,458,0,0,0,3,4,1,34,0003-00-0001-06.png,0004-00-0001-80.png
00000014,253,0,1438612415895,1438612416360,311,397,0,0,0,3,2,1,32,0003-00-0001-51.png,0002-00-0000-75.png
00000014,254,0,1438612417246,1438612417981,256,381,0,0,0,4,3,1,43,0004-00-0000-18.png,0003-00-0001-74.png
00000014,255,1,1438612418927,1438612419379,337,374,0,0,0,1,2,1,12,0001-00-0000-98.png,0002-00-0001-44.png
00000014,256,0,1438612420268,1438612420820,903,440,0,0,0,4,5,1,45,0004-00-0001-53.png,0005-00-0001-06.png
00000014,257,1,1438612421644,1438612421692,518,436,0,0,0,1,2,1,12,0001-00-0000-23.png,0002-00-0000-14.png
00000014,258,0,1438612422666,1438612423142,305,393,0,0,0,5,4,1,54,0005-00-0001-25.png,0004-00-0000-38.png
00000014,259,0,1438612424322,1438612424338,484,426,0,0,0,2,1,1,21,0002-00-0000-72.png,0001-00-0000-00.png
00000014,260,0,1438612425821,1438612425837,504,410,0,0,0,4,3,1,43,0004-00-0000-40.png,0003-00-0000-88.png
00000014,261,1,1438612426905,1438612427482,955,357,0,0,0,3,2,1,32,0003-00-0000-65.png,0002-00-0000-84.png
00000014,262,1,1438612428477,1438612428999,264,397,0,0,0,2,3,1,23,0002-00-0001-57.png,0003-00-0001-29.png
00000014,263,0,1438612429987,1438612430611,949,382,0,0,0,4,5,1,45,0004-00-0001-00.png,0005-00-0000-58.png
00000014,264,1,1438612431508,1438612431568,494,438,0,0,0,3,4,1,34,0003-00-0001-12.png,0004-00-0000-09.png
00000014,265,1,1438612432480,1438612433013,401,358,0,0,0,3,4,1,34,0003-00-0000-26.png,0004-00-0001-41.png
00000014,266,1,1438612433936,1438612434434,384,367,0,0,0,1,2,1,12,0001-00-0001-84.png,0002-00-0000-61.png
00000014,267,0,1438612435818,1438612435868,478,454,0,0,0,3,2,1,32,0003-00-0001-23.png,0002-00-0000-58.png
00000014,268,0,1438612437082,1438612437086,464,398,0,0,0,5,4,1,54,0005-00-0000-65.png,0004-00-0001-87.png
00000014,269,0,1438612438312,1438612438328,453,400,0,0,0,2,1,1,21,0002-00-0000-47.png,0001-00-0001-24.png
00000014,270,1,1438612439482,1438612439989,299,397,0,0,0,4,5,1,45,0004-00-0000-43.png,0005-00-0001-71.png
00000014,271,1,1438612440981,1438612440989,496,445,0,0,0,2,3,1,23,0002-00-0001-86.png,0003-00-0000-63.png
00000014,272,0,1438612441990,1438612442062,504,520,0,0,0,4,3,1,43,0004-00-0000-88.png,0003-00-0000-49.png
00000014,273,0,1438612442900,1438612443127,513,410,0,0,0,4,3,1,43,0004-00-0000-64.png,0003-00-0001-64.png
00000014,274,0,1438612444637,1438612444665,478,410,0,0,0,5,4,1,54,0005-00-0001-93.png,0004-00-0000-43.png
00000014,275,0,1438612445693,1438612445697,486,434,0,0,0,2,1,1,21,0002-00-0001-66.png,0001-00-0000-61.png
00000014,276,1,1438612446639,1438612447121,320,357,0,0,0,4,5,1,45,0004-00-0001-07.png,0005-00-0000-12.png
00000014,277,1,1438612447987,1438612448551,355,383,0,0,0,2,3,1,23,0002-00-0000-83.png,0003-00-0001-62.png
00000014,278,1,1438612449472,1438612449504,521,454,0,0,0,1,2,1,12,0001-00-0000-02.png,0002-00-0000-41.png
00000014,279,1,1438612450611,1438612450671,522,495,0,0,0,3,4,1,34,0003-00-0000-76.png,0004-00-0000-43.png
00000014,280,1,1438612451768,1438612452368,972,342,0,0,0,3,2,1,32,0003-00-0001-97.png,0002-00-0001-05.png
00000014,281,0,1438612453389,1438612453931,313,398,0,0,0,5,4,1,54,0005-00-0001-48.png,0004-00-0001-70.png
00000014,282,1,1438612454966,1438612455078,504,514,0,0,0,3,4,1,34,0003-00-0000-41.png,0004-00-0000-34.png
00000014,283,0,1438612456093,1438612456143,478,505,0,0,0,2,1,1,21,0002-00-0001-06.png,0001-00-0001-99.png
00000014,284,1,1438612457254,1438612457278,501,439,0,0,0,2,3,1,23,0002-00-0000-53.png,0003-00-0001-77.png
00000014,285,0,1438612458228,1438612458756,375,384,0,0,0,4,3,1,43,0004-00-0000-37.png,0003-00-0000-29.png
00000014,286,0,1438612459680,1438612460227,938,372,0,0,0,4,5,1,45,0004-00-0001-73.png,0005-00-0001-62.png
00000014,287,0,1438612461199,1438612461227,510,450,0,0,0,3,2,1,32,0003-00-0001-95.png,0002-00-0001-85.png
00000014,288,0,1438612462110,1438612462668,944,431,0,0,0,1,2,1,12,0001-00-0000-54.png,0002-00-0000-27.png
00000014,289,1,1438612464280,1438612464826,414,502,0,0,0,4,5,1,45,0004-00-0000-06.png,0005-00-0000-02.png
00000014,290,1,1438612466326,1438612466350,509,453,0,0,0,2,3,1,23,0002-00-0000-00.png,0003-00-0000-98.png
00000014,291,0,1438612467338,1438612467948,951,358,0,0,0,3,4,1,34,0003-00-0001-65.png,0004-00-0001-86.png
00000014,292,0,1438612468892,1438612469398,299,397,0,0,0,3,2,1,32,0003-00-0000-93.png,0002-00-0000-62.png
00000014,293,1,1438612470362,1438612470378,503,436,0,0,0,1,2,1,12,0001-00-0001-06.png,0002-00-0000-10.png
00000014,294,0,1438612471334,1438612471921,401,397,0,0,0,5,4,1,54,0005-00-0000-52.png,0004-00-0001-72.png
00000014,295,0,1438612472793,1438612473218,287,358,0,0,0,4,3,1,43,0004-00-0000-89.png,0003-00-0001-90.png
00000014,296,0,1438612474637,1438612474669,479,491,0,0,0,2,1,1,21,0002-00-0000-41.png,0001-00-0000-97.png
00000014,297,0,1438612476512,1438612476991,366,495,0,0,0,5,4,1,54,0005-00-0000-39.png,0004-00-0001-53.png
00000014,298,1,1438612478081,1438612478097,486,410,0,0,0,3,4,1,34,0003-00-0000-62.png,0004-00-0001-58.png
00000014,299,0,1438612479033,1438612479562,335,387,0,0,0,2,1,1,21,0002-00-0001-28.png,0001-00-0000-32.png
00000014,300,1,1438612480595,1438612481222,425,400,0,0,0,1,2,1,12,0001-00-0000-88.png,0002-00-0001-36.png
00000014,301,1,1438612482203,1438612482772,427,397,0,0,0,2,3,1,23,0002-00-0001-26.png,0003-00-0001-55.png
00000014,302,0,1438612483717,1438612483741,518,430,0,0,0,3,2,1,32,0003-00-0001-20.png,0002-00-0001-30.png
00000014,303,0,1438612484578,1438612485116,383,368,0,0,0,4,3,1,43,0004-00-0000-29.png,0003-00-0000-09.png
00000014,304,1,1438612486182,1438612486198,495,425,0,0,0,4,5,1,45,0004-00-0000-73.png,0005-00-0001-66.png
00000014,305,1,1438612487156,1438612487255,488,559,0,0,0,4,5,1,45,0004-00-0001-61.png,0005-00-0001-72.png
00000014,306,0,1438612488386,1438612488933,900,324,0,0,0,3,4,1,34,0003-00-0000-00.png,0004-00-0001-33.png
00000014,307,0,1438612489776,1438612489820,453,534,0,0,0,3,2,1,32,0003-00-0001-62.png,0002-00-0001-21.png
00000014,308,0,1438612490932,1438612491013,504,488,0,0,0,4,3,1,43,0004-00-0001-96.png,0003-00-0000-96.png
00000014,309,1,1438612492033,1438612492720,950,353,0,0,0,2,1,1,21,0002-00-0000-90.png,0001-00-0001-65.png
00000014,310,0,1438612493646,1438612493702,492,513,0,0,0,5,4,1,54,0005-00-0001-42.png,0004-00-0000-33.png
00000014,311,1,1438612494548,1438612495041,305,359,0,0,0,2,3,1,23,0002-00-0001-86.png,0003-00-0001-47.png
00000014,312,1,1438612496487,1438612496503,478,400,0,0,0,1,2,1,12,0001-00-0000-66.png,0002-00-0001-42.png
00000014,313,0,1438612497512,1438612498140,929,364,0,0,0,1,2,1,12,0001-00-0000-78.png,0002-00-0001-97.png
00000014,314,0,1438612499389,1438612499861,299,358,0,0,0,2,1,1,21,0002-00-0001-47.png,0001-00-0001-46.png
00000014,315,1,1438612500900,1438612501448,383,401,0,0,0,4,5,1,45,0004-00-0000-87.png,0005-00-0001-44.png
00000014,316,0,1438612502441,1438612503048,925,475,0,0,0,3,4,1,34,0003-00-0000-09.png,0004-00-0001-81.png
00000014,317,1,1438612503969,1438612504704,332,465,0,0,0,2,3,1,23,0002-00-0001-13.png,0003-00-0000-59.png
00000014,318,0,1438612505640,1438612505648,512,437,0,0,0,4,3,1,43,0004-00-0000-48.png,0003-00-0001-63.png
00000014,319,0,1438612506521,1438612506533,518,410,0,0,0,3,2,1,32,0003-00-0000-21.png,0002-00-0001-72.png
00000014,320,0,1438612507438,1438612507842,356,352,0,0,0,5,4,1,54,0005-00-0001-03.png,0004-00-0001-11.png
00000014,321,1,1438612509215,1438612509231,520,384,0,0,0,1,2,1,12,0001-00-0001-77.png,0002-00-0001-78.png
00000014,322,1,1438612510180,1438612510333,509,531,0,0,0,4,5,1,45,0004-00-0000-71.png,0005-00-0001-34.png
00000014,323,0,1438612511632,1438612511640,505,463,0,0,0,5,4,1,54,0005-00-0000-77.png,0004-00-0000-97.png
00000014,324,1,1438612512695,1438612513209,293,374,0,0,0,2,3,1,23,0002-00-0001-03.png,0003-00-0001-77.png
00000014,325,0,1438612514176,1438612514192,507,427,0,0,0,2,1,1,21,0002-00-0001-45.png,0001-00-0000-79.png
00000014,326,0,1438612515016,1438612515659,870,314,0,0,0,3,4,1,34,0003-00-0000-89.png,0004-00-0000-52.png
00000014,327,0,1438612516668,1438612517130,328,401,0,0,0,4,3,1,43,0004-00-0000-15.png,0003-00-0001-33.png
00000014,328,0,1438612518199,1438612518665,323,346,0,0,0,3,2,1,32,0003-00-0000-90.png,0002-00-0001-24.png
00000014,329,0,1438612519671,1438612519707,496,558,0,0,0,2,1,1,21,0002-00-0000-77.png,0001-00-0001-01.png
00000014,330,1,1438612520780,1438612521382,374,429,0,0,0,1,2,1,12,0001-00-0000-86.png,0002-00-0000-92.png
00000014,331,1,1438612522315,1438612522888,336,430,0,0,0,3,4,1,34,0003-00-0001-32.png,0004-00-0000-04.png
00000014,332,1,1438612523854,1438612524494,940,386,0,0,0,3,2,1,32,0003-00-0001-63.png,0002-00-0000-43.png
00000014,333,1,1438612525514,1438612526079,363,490,0,0,0,4,5,1,45,0004-00-0000-82.png,0005-00-0000-21.png
00000014,334,1,1438612527023,1438612527039,510,394,0,0,0,2,3,1,23,0002-00-0000-23.png,0003-00-0000-57.png
00000014,335,0,1438612528178,1438612528792,290,375,0,0,0,5,4,1,54,0005-00-0001-60.png,0004-00-0001-48.png
00000014,336,0,1438612529994,1438612530094,504,514,0,0,0,4,3,1,43,0004-00-0000-29.png,0003-00-0001-66.png
00000014,337,1,1438612530985,1438612531674,248,396,0,0,0,3,4,1,34,0003-00-0001-33.png,0004-00-0001-33.png
00000014,338,1,1438612532660,1438612533175,348,395,0,0,0,2,3,1,23,0002-00-0000-09.png,0003-00-0000-28.png
00000014,339,1,1438612534170,1438612534194,484,444,0,0,0,4,5,1,45,0004-00-0000-14.png,0005-00-0000-65.png
00000014,340,0,1438612535273,1438612535741,337,392,0,0,0,3,2,1,32,0003-00-0000-69.png,0002-00-0000-87.png
00000014,341,0,1438612536580,1438612537160,389,371,0,0,0,2,1,1,21,0002-00-0001-42.png,0001-00-0000-72.png
00000014,342,1,1438612538045,1438612538592,350,397,0,0,0,1,2,1,12,0001-00-0000-31.png,0002-00-0000-54.png
00000014,343,0,1438612539545,1438612539549,497,406,0,0,0,5,4,1,54,0005-00-0000-45.png,0004-00-0000-84.png
00000014,344,0,1438612540577,1438612540693,490,514,0,0,0,4,3,1,43,0004-00-0001-50.png,0003-00-0000-33.png
00000014,345,0,1438612541897,1438612541954,491,479,0,0,0,4,3,1,43,0004-00-0000-26.png,0003-00-0000-39.png
00000014,346,1,1438612542915,1438612543468,881,349,0,0,0,3,2,1,32,0003-00-0000-34.png,0002-00-0000-45.png
00000014,347,0,1438612544474,1438612545021,956,375,0,0,0,1,2,1,12,0001-00-0000-32.png,0002-00-0000-09.png
00000014,348,1,1438612545979,1438612546465,376,370,0,0,0,3,4,1,34,0003-00-0000-79.png,0004-00-0000-77.png
00000014,349,1,1438612547445,1438612548049,376,396,0,0,0,2,3,1,23,0002-00-0000-46.png,0003-00-0001-32.png
00000014,350,0,1438612549054,1438612549062,504,426,0,0,0,2,1,1,21,0002-00-0000-57.png,0001-00-0001-49.png
00000014,351,1,1438612549936,1438612549944,515,437,0,0,0,4,5,1,45,0004-00-0000-74.png,0005-00-0000-52.png
00000014,352,0,1438612550962,1438612551093,519,541,0,0,0,5,4,1,54,0005-00-0000-26.png,0004-00-0001-49.png
00000014,353,0,1438612551967,1438612552664,946,368,0,0,0,1,2,1,12,0001-00-0000-26.png,0002-00-0001-35.png
00000014,354,0,1438612553635,1438612554224,927,409,0,0,0,3,4,1,34,0003-00-0000-27.png,0004-00-0001-19.png
00000014,355,1,1438612555146,1438612555690,366,481,0,0,0,4,5,1,45,0004-00-0000-77.png,0005-00-0000-86.png
00000014,356,1,1438612556550,1438612557283,358,365,0,0,0,2,3,1,23,0002-00-0001-09.png,0003-00-0000-46.png
00000014,357,0,1438612558266,1438612558282,493,396,0,0,0,5,4,1,54,0005-00-0000-90.png,0004-00-0001-21.png
00000014,358,0,1438612559147,1438612559717,379,420,0,0,0,4,3,1,43,0004-00-0001-45.png,0003-00-0000-34.png
00000014,359,1,1438612560546,1438612561129,922,368,0,0,0,3,2,1,32,0003-00-0000-04.png,0002-00-0000-79.png
00000014,360,0,1438612562062,1438612562086,497,426,0,0,0,2,1,1,21,0002-00-0000-57.png,0001-00-0000-38.png
00000014,361,0,1438612563205,1438612563740,376,398,0,0,0,4,3,1,43,0004-00-0001-37.png,0003-00-0000-79.png
00000014,362,1,1438612564643,1438612564738,504,488,0,0,0,4,5,1,45,0004-00-0001-60.png,0005-00-0001-45.png
00000014,363,0,1438612565668,1438612566304,388,372,0,0,0,5,4,1,54,0005-00-0001-64.png,0004-00-0001-63.png
00000014,364,0,1438612567344,1438612567901,880,355,0,0,0,1,2,1,12,0001-00-0000-87.png,0002-00-0001-64.png
00000014,365,1,1438612568767,1438612569281,367,505,0,0,0,2,3,1,23,0002-00-0001-40.png,0003-00-0000-30.png
00000014,366,0,1438612570150,1438612570166,494,410,0,0,0,3,2,1,32,0003-00-0000-08.png,0002-00-0001-28.png
00000014,367,0,1438612571035,1438612571051,498,426,0,0,0,2,1,1,21,0002-00-0001-99.png,0001-00-0001-04.png
00000014,368,1,1438612572236,1438612572244,513,410,0,0,0,3,4,1,34,0003-00-0001-92.png,0004-00-0000-08.png
00000014,369,0,1438612573201,1438612573319,510,534,0,0,0,3,2,1,32,0003-00-0000-95.png,0002-00-0001-08.png
00000014,370,1,1438612574172,1438612574789,374,408,0,0,0,1,2,1,12,0001-00-0000-84.png,0002-00-0000-33.png
00000014,371,1,1438612575726,1438612575758,510,468,0,0,0,3,4,1,34,0003-00-0000-47.png,0004-00-0001-52.png
00000014,372,1,1438612576756,1438612576776,515,397,0,0,0,4,5,1,45,0004-00-0001-13.png,0005-00-0000-72.png
00000014,373,1,1438612577913,1438612578705,380,344,0,0,0,2,3,1,23,0002-00-0000-25.png,0003-00-0000-94.png
00000014,374,0,1438612579631,1438612579667,504,448,0,0,0,5,4,1,54,0005-00-0001-91.png,0004-00-0001-21.png
00000014,375,0,1438612581152,1438612581196,478,448,0,0,0,2,1,1,21,0002-00-0000-36.png,0001-00-0000-97.png
00000014,376,0,1438612582054,1438612582517,340,390,0,0,0,4,3,1,43,0004-00-0001-95.png,0003-00-0001-98.png
00000014,377,1,1438612583642,1438612583662,478,399,0,0,0,3,4,1,34,0003-00-0001-11.png,0004-00-0001-18.png
00000014,378,0,1438612584596,1438612584608,504,436,0,0,0,5,4,1,54,0005-00-0001-28.png,0004-00-0000-43.png
00000014,379,0,1438612585743,1438612585779,491,436,0,0,0,4,3,1,43,0004-00-0000-69.png,0003-00-0001-36.png
00000014,380,0,1438612586644,1438612587180,902,492,0,0,0,2,3,1,23,0002-00-0001-10.png,0003-00-0000-98.png
00000014,381,1,1438612588033,1438612588545,927,356,0,0,0,2,1,1,21,0002-00-0000-70.png,0001-00-0001-60.png
00000014,382,1,1438612589459,1438612590140,875,318,0,0,0,3,2,1,32,0003-00-0001-23.png,0002-00-0001-16.png
00000014,383,1,1438612591099,1438612591135,482,507,0,0,0,4,5,1,45,0004-00-0000-16.png,0005-00-0001-73.png
00000014,384,0,1438612592129,1438612592757,927,357,0,0,0,1,2,1,12,0001-00-0001-73.png,0002-00-0000-59.png
00000014,385,0,1438612593799,1438612593835,496,453,0,0,0,2,1,1,21,0002-00-0001-33.png,0001-00-0000-88.png
00000014,386,1,1438612594830,1438612595284,257,446,0,0,0,3,4,1,34,0003-00-0001-09.png,0004-00-0001-49.png
00000014,387,1,1438612596683,1438612597224,370,487,0,0,0,1,2,1,12,0001-00-0000-76.png,0002-00-0000-39.png
00000014,388,0,1438612598194,1438612598210,485,440,0,0,0,3,2,1,32,0003-00-0001-90.png,0002-00-0000-84.png
00000014,389,0,1438612599077,1438612599627,350,384,0,0,0,5,4,1,54,0005-00-0001-67.png,0004-00-0000-03.png
00000014,390,1,1438612600507,1438612600543,495,431,0,0,0,2,3,1,23,0002-00-0000-86.png,0003-00-0000-67.png
00000014,391,0,1438612601479,1438612602174,924,456,0,0,0,4,5,1,45,0004-00-0000-61.png,0005-00-0001-43.png
00000014,392,0,1438612603030,1438612603058,514,427,0,0,0,4,3,1,43,0004-00-0000-31.png,0003-00-0001-57.png
00000014,393,1,1438612603902,1438612604915,874,358,0,0,0,4,3,1,43,0004-00-0001-86.png,0003-00-0001-87.png
00000014,394,0,1438612605862,1438612606401,952,384,0,0,0,3,4,1,34,0003-00-0001-58.png,0004-00-0000-73.png
00000014,395,0,1438612607583,1438612608080,355,488,0,0,0,5,4,1,54,0005-00-0001-95.png,0004-00-0000-29.png
00000014,396,1,1438612608942,1438612608962,504,371,0,0,0,4,5,1,45,0004-00-0000-43.png,0005-00-0000-09.png
00000014,397,0,1438612610514,1438612611128,345,489,0,0,0,2,1,1,21,0002-00-0000-80.png,0001-00-0001-71.png
00000014,398,1,1438612612065,1438612612081,504,401,0,0,0,2,3,1,23,0002-00-0000-36.png,0003-00-0000-23.png
00000014,399,0,1438612613026,1438612613046,504,454,0,0,0,3,2,1,32,0003-00-0001-87.png,0002-00-0001-91.png
00000014,400,1,1438612613864,1438612613888,504,446,0,0,0,1,2,1,12,0001-00-0001-74.png,0002-00-0001-29.png
00000014,401,1,1438612614927,1438612615454,374,358,0,0,0,1,2,1,12,0001-00-0001-33.png,0002-00-0000-42.png
00000014,402,0,1438612616418,1438612616435,504,441,0,0,0,5,4,1,54,0005-00-0001-51.png,0004-00-0001-83.png
00000014,403,1,1438612617294,1438612617811,939,358,0,0,0,3,2,1,32,0003-00-0000-42.png,0002-00-0001-50.png
00000014,404,1,1438612618882,1438612619450,875,362,0,0,0,2,1,1,21,0002-00-0001-30.png,0001-00-0000-19.png
00000014,405,1,1438612620513,1438612620578,509,520,0,0,0,3,4,1,34,0003-00-0001-11.png,0004-00-0000-21.png
00000014,406,0,1438612621704,1438612622448,929,401,0,0,0,2,3,1,23,0002-00-0000-33.png,0003-00-0001-28.png
00000014,407,1,1438612623428,1438612623921,319,394,0,0,0,4,5,1,45,0004-00-0000-74.png,0005-00-0000-88.png
00000014,408,1,1438612624913,1438612625543,955,402,0,0,0,4,3,1,43,0004-00-0000-59.png,0003-00-0000-12.png
00000014,409,1,1438612626490,1438612627110,366,366,0,0,0,4,5,1,45,0004-00-0001-17.png,0005-00-0000-88.png
00000014,410,0,1438612628063,1438612628755,953,373,0,0,0,2,3,1,23,0002-00-0000-47.png,0003-00-0000-76.png
00000014,411,0,1438612629621,1438612630042,334,397,0,0,0,4,3,1,43,0004-00-0000-67.png,0003-00-0000-89.png
00000014,412,0,1438612631320,1438612631368,504,462,0,0,0,5,4,1,54,0005-00-0001-27.png,0004-00-0000-54.png
00000014,413,0,1438612632285,1438612632981,901,450,0,0,0,1,2,1,12,0001-00-0001-20.png,0002-00-0001-75.png
00000014,414,1,1438612633858,1438612634411,288,415,0,0,0,3,4,1,34,0003-00-0000-28.png,0004-00-0000-77.png
00000014,415,1,1438612635378,1438612635967,931,458,0,0,0,3,2,1,32,0003-00-0000-74.png,0002-00-0001-05.png
00000014,416,0,1438612636938,1438612636962,523,426,0,0,0,2,1,1,21,0002-00-0000-01.png,0001-00-0000-18.png
00000014,417,1,1438612638159,1438612638694,311,405,0,0,0,2,3,1,23,0002-00-0000-88.png,0003-00-0001-81.png
00000014,418,0,1438612639669,1438612639733,510,497,0,0,0,5,4,1,54,0005-00-0000-73.png,0004-00-0001-41.png
00000014,419,1,1438612640576,1438612640592,507,454,0,0,0,4,5,1,45,0004-00-0000-03.png,0005-00-0000-46.png
00000014,420,1,1438612641578,1438612641594,519,436,0,0,0,3,4,1,34,0003-00-0000-95.png,0004-00-0001-49.png
00000014,421,1,1438612642708,1438612643323,938,371,0,0,0,2,1,1,21,0002-00-0001-34.png,0001-00-0000-20.png
00000014,422,0,1438612644411,1438612645001,861,362,0,0,0,1,2,1,12,0001-00-0001-76.png,0002-00-0000-35.png
00000014,423,0,1438612646269,1438612646277,510,393,0,0,0,4,3,1,43,0004-00-0001-67.png,0003-00-0000-97.png
00000014,424,1,1438612647337,1438612647885,939,397,0,0,0,3,2,1,32,0003-00-0001-84.png,0002-00-0001-52.png
00000014,425,0,1438612648882,1438612649483,332,395,0,0,0,2,1,1,21,0002-00-0001-27.png,0001-00-0000-42.png
00000014,426,0,1438612650695,1438612650723,504,436,0,0,0,4,3,1,43,0004-00-0001-07.png,0003-00-0001-52.png
00000014,427,1,1438612652181,1438612652655,366,508,0,0,0,3,4,1,34,0003-00-0000-69.png,0004-00-0000-23.png
00000014,428,0,1438612653562,1438612654443,408,395,0,0,0,5,4,1,54,0005-00-0001-89.png,0004-00-0000-07.png
00000014,429,1,1438612655318,1438612655932,350,371,0,0,0,2,3,1,23,0002-00-0001-37.png,0003-00-0001-80.png
00000014,430,1,1438612656912,1438612657513,932,449,0,0,0,3,2,1,32,0003-00-0000-70.png,0002-00-0000-40.png
00000014,431,0,1438612658590,1438612659196,938,409,0,0,0,1,2,1,12,0001-00-0000-40.png,0002-00-0000-63.png
00000014,432,1,1438612660089,1438612660101,478,410,0,0,0,4,5,1,45,0004-00-0001-17.png,0005-00-0001-41.png
00000014,433,1,1438612661044,1438612661613,360,372,0,0,0,3,4,1,34,0003-00-0001-39.png,0004-00-0000-90.png
00000014,434,0,1438612662566,1438612663397,934,416,0,0,0,4,5,1,45,0004-00-0001-77.png,0005-00-0000-54.png
00000014,435,0,1438612664533,1438612664549,504,453,0,0,0,2,1,1,21,0002-00-0000-80.png,0001-00-0001-10.png
00000014,436,1,1438612665391,1438612665415,504,436,0,0,0,1,2,1,12,0001-00-0000-37.png,0002-00-0000-07.png
00000014,437,0,1438612666398,1438612666446,507,516,0,0,0,5,4,1,54,0005-00-0001-54.png,0004-00-0000-24.png
00000014,438,0,1438612667394,1438612667402,516,399,0,0,0,3,2,1,32,0003-00-0001-21.png,0002-00-0000-66.png
00000014,439,0,1438612668514,1438612669028,376,371,0,0,0,4,3,1,43,0004-00-0001-35.png,0003-00-0000-53.png
00000014,440,1,1438612669966,1438612670421,333,380,0,0,0,2,3,1,23,0002-00-0000-03.png,0003-00-0000-78.png
00000014,441,1,1438612671806,1438612671822,520,436,0,0,0,2,3,1,23,0002-00-0000-90.png,0003-00-0000-05.png
00000014,442,0,1438612672990,1438612673532,401,358,0,0,0,2,1,1,21,0002-00-0000-76.png,0001-00-0001-70.png
00000014,443,0,1438612674479,1438612674499,455,437,0,0,0,5,4,1,54,0005-00-0000-81.png,0004-00-0000-30.png
00000014,444,1,1438612675539,1438612675976,314,387,0,0,0,4,5,1,45,0004-00-0001-35.png,0005-00-0001-85.png
00000014,445,0,1438612676893,1438612677543,925,449,0,0,0,1,2,1,12,0001-00-0001-12.png,0002-00-0000-02.png
00000014,446,0,1438612678444,1438612678453,478,409,0,0,0,3,2,1,32,0003-00-0000-74.png,0002-00-0000-04.png
00000014,447,1,1438612679586,1438612680080,337,402,0,0,0,3,4,1,34,0003-00-0001-57.png,0004-00-0000-19.png
00000014,448,1,1438612681015,1438612681578,878,349,0,0,0,4,3,1,43,0004-00-0001-23.png,0003-00-0000-49.png
00000014,449,0,1438612682609,1438612683329,953,393,0,0,0,2,3,1,23,0002-00-0001-26.png,0003-00-0000-30.png
00000014,450,1,1438612684161,1438612684692,295,400,0,0,0,4,5,1,45,0004-00-0000-03.png,0005-00-0000-28.png
00000014,451,0,1438612685650,1438612686239,384,393,0,0,0,5,4,1,54,0005-00-0001-70.png,0004-00-0000-33.png
00000014,452,1,1438612687201,1438612687253,482,521,0,0,0,3,4,1,34,0003-00-0000-21.png,0004-00-0001-32.png
00000014,453,1,1438612688545,1438612688561,504,532,0,0,0,1,2,1,12,0001-00-0000-33.png,0002-00-0001-97.png
00000014,454,1,1438612689597,1438612690222,937,372,0,0,0,2,1,1,21,0002-00-0001-37.png,0001-00-0000-82.png
00000014,455,0,1438612691274,1438612691958,295,368,0,0,0,3,2,1,32,0003-00-0000-07.png,0002-00-0000-69.png
00000014,456,0,1438612693582,1438612694163,299,358,0,0,0,4,3,1,43,0004-00-0000-69.png,0003-00-0000-45.png
00000014,457,0,1438612695229,1438612695772,236,450,0,0,0,2,1,1,21,0002-00-0000-01.png,0001-00-0000-05.png
00000014,458,1,1438612696671,1438612697122,316,416,0,0,0,4,5,1,45,0004-00-0000-83.png,0005-00-0000-21.png
00000014,459,0,1438612698082,1438612698098,494,452,0,0,0,4,3,1,43,0004-00-0000-89.png,0003-00-0000-00.png
00000014,460,1,1438612698954,1438612699600,418,496,0,0,0,3,4,1,34,0003-00-0000-25.png,0004-00-0000-78.png
00000014,461,1,1438612700685,1438612701237,401,410,0,0,0,1,2,1,12,0001-00-0000-58.png,0002-00-0001-90.png
00000014,462,1,1438612702722,1438612703241,350,397,0,0,0,2,3,1,23,0002-00-0001-85.png,0003-00-0001-96.png
00000014,463,0,1438612704313,1438612704856,319,410,0,0,0,3,2,1,32,0003-00-0000-98.png,0002-00-0000-28.png
00000014,464,0,1438612705902,1438612705910,491,408,0,0,0,5,4,1,54,0005-00-0000-31.png,0004-00-0001-40.png
00000014,465,1,1438612707142,1438612707735,938,398,0,0,0,3,2,1,32,0003-00-0000-64.png,0002-00-0001-06.png
00000014,466,1,1438612708656,1438612709304,319,394,0,0,0,3,4,1,34,0003-00-0001-93.png,0004-00-0000-43.png
00000014,467,0,1438612710255,1438612710772,952,365,0,0,0,4,5,1,45,0004-00-0001-02.png,0005-00-0001-72.png
00000014,468,0,1438612711663,1438612712169,334,397,0,0,0,4,3,1,43,0004-00-0001-44.png,0003-00-0001-53.png
00000014,469,0,1438612713103,1438612713757,312,370,0,0,0,5,4,1,54,0005-00-0001-13.png,0004-00-0001-55.png
00000014,470,1,1438612714822,1438612715293,313,381,0,0,0,1,2,1,12,0001-00-0001-69.png,0002-00-0000-15.png
00000014,471,0,1438612716193,1438612716771,348,412,0,0,0,2,1,1,21,0002-00-0001-53.png,0001-00-0000-07.png
00000014,472,1,1438612718145,1438612718193,504,480,0,0,0,2,3,1,23,0002-00-0001-28.png,0003-00-0000-90.png
00000014,473,0,1438612719784,1438612720388,915,375,0,0,0,4,5,1,45,0004-00-0001-58.png,0005-00-0001-44.png
00000014,474,1,1438612721653,1438612721697,504,458,0,0,0,1,2,1,12,0001-00-0001-52.png,0002-00-0000-76.png
00000014,475,1,1438612722696,1438612723242,338,414,0,0,0,2,3,1,23,0002-00-0001-79.png,0003-00-0001-76.png
00000014,476,0,1438612724185,1438612724197,478,424,0,0,0,2,1,1,21,0002-00-0001-03.png,0001-00-0000-40.png
00000014,477,0,1438612725455,1438612725467,442,410,0,0,0,4,3,1,43,0004-00-0000-32.png,0003-00-0001-62.png
00000014,478,1,1438612726372,1438612726392,497,402,0,0,0,3,4,1,34,0003-00-0001-13.png,0004-00-0001-65.png
00000014,479,0,1438612727356,1438612727400,518,462,0,0,0,3,2,1,32,0003-00-0000-86.png,0002-00-0001-55.png
00000014,480,1,1438612728226,1438612728887,972,368,0,0,0,5,4,1,54,0005-00-0000-69.png,0004-00-0001-01.png
00000014,481,1,1438612730009,1438612730518,330,400,0,0,0,2,3,1,23,0002-00-0001-24.png,0003-00-0001-61.png
00000014,482,0,1438612731510,1438612732028,318,410,0,0,0,4,3,1,43,0004-00-0000-19.png,0003-00-0001-50.png
00000014,483,1,1438612733255,1438612733784,355,378,0,0,0,3,4,1,34,0003-00-0001-20.png,0004-00-0001-02.png
00000014,484,1,1438612734765,1438612735370,401,384,0,0,0,4,5,1,45,0004-00-0000-57.png,0005-00-0000-91.png
00000014,485,0,1438612736338,1438612736354,485,418,0,0,0,3,2,1,32,0003-00-0000-28.png,0002-00-0001-31.png
00000014,486,0,1438612737489,1438612738008,377,502,0,0,0,5,4,1,54,0005-00-0000-83.png,0004-00-0000-05.png
00000014,487,0,1438612738860,1438612739382,369,388,0,0,0,2,1,1,21,0002-00-0001-03.png,0001-00-0000-90.png
00000014,488,1,1438612740271,1438612740291,469,446,0,0,0,1,2,1,12,0001-00-0001-74.png,0002-00-0000-32.png
00000014,489,1,1438612741257,1438612741273,504,462,0,0,0,4,5,1,45,0004-00-0001-05.png,0005-00-0001-41.png
00000014,490,1,1438612742362,1438612742931,343,384,0,0,0,3,4,1,34,0003-00-0001-15.png,0004-00-0000-80.png
00000014,491,0,1438612743901,1438612743921,504,423,0,0,0,2,1,1,21,0002-00-0000-87.png,0001-00-0001-61.png
00000014,492,1,1438612744813,1438612744841,499,482,0,0,0,2,3,1,23,0002-00-0001-68.png,0003-00-0001-09.png
00000014,493,0,1438612745930,1438612746501,316,428,0,0,0,5,4,1,54,0005-00-0000-88.png,0004-00-0000-18.png
00000014,494,0,1438612747609,1438612747633,497,443,0,0,0,3,2,1,32,0003-00-0001-82.png,0002-00-0000-64.png
00000014,495,1,1438612748665,1438612748669,485,421,0,0,0,1,2,1,12,0001-00-0001-39.png,0002-00-0000-34.png
00000014,496,0,1438612749777,1438612750288,340,414,0,0,0,4,3,1,43,0004-00-0000-84.png,0003-00-0001-66.png
00000014,497,1,1438612751215,1438612751239,504,436,0,0,0,1,2,1,12,0001-00-0001-83.png,0002-00-0000-05.png
00000014,498,1,1438612752249,1438612752788,372,463,0,0,0,3,4,1,34,0003-00-0000-95.png,0004-00-0001-66.png
00000014,499,0,1438612753772,1438612753836,490,564,0,0,0,4,3,1,43,0004-00-0001-41.png,0003-00-0001-70.png
00000014,500,0,1438612754669,1438612755255,931,376,0,0,0,2,3,1,23,0002-00-0000-51.png,0003-00-0000-77.png
00000014,501,1,1438612756094,1438612756600,325,383,0,0,0,4,5,1,45,0004-00-0000-50.png,0005-00-0000-68.png
00000014,502,0,1438612757544,1438612757565,478,426,0,0,0,2,1,1,21,0002-00-0000-48.png,0001-00-0000-58.png
00000014,503,1,1438612758728,1438612759350,955,375,0,0,0,3,2,1,32,0003-00-0000-54.png,0002-00-0000-94.png
00000014,504,0,1438612760823,1438612761367,357,368,0,0,0,5,4,1,54,0005-00-0001-54.png,0004-00-0000-36.png
00000014,505,1,1438612762355,1438612762371,504,410,0,0,0,2,3,1,23,0002-00-0000-62.png,0003-00-0001-12.png
00000014,506,1,1438612763336,1438612763883,317,427,0,0,0,3,4,1,34,0003-00-0000-08.png,0004-00-0000-58.png
00000014,507,0,1438612764870,1438612764894,505,451,0,0,0,3,2,1,32,0003-00-0001-40.png,0002-00-0001-10.png
00000014,508,0,1438612765783,1438612766311,322,409,0,0,0,5,4,1,54,0005-00-0000-22.png,0004-00-0000-15.png
00000014,509,1,1438612767343,1438612768028,396,494,0,0,0,1,2,1,12,0001-00-0001-69.png,0002-00-0000-10.png
00000014,510,0,1438612769008,1438612769562,319,395,0,0,0,2,1,1,21,0002-00-0000-03.png,0001-00-0001-56.png
00000014,511,0,1438612770714,1438612771220,309,402,0,0,0,4,3,1,43,0004-00-0001-03.png,0003-00-0000-22.png
00000014,512,1,1438612772169,1438612772865,375,466,0,0,0,4,5,1,45,0004-00-0000-36.png,0005-00-0000-34.png
00000014,513,1,1438612773813,1438612773829,507,429,0,0,0,1,2,1,12,0001-00-0001-34.png,0002-00-0000-53.png
00000014,514,1,1438612775026,1438612775548,293,395,0,0,0,2,3,1,23,0002-00-0001-39.png,0003-00-0001-62.png
00000014,515,0,1438612776524,1438612777187,876,361,0,0,0,4,5,1,45,0004-00-0000-05.png,0005-00-0001-88.png
00000014,516,0,1438612778106,1438612778142,476,455,0,0,0,2,1,1,21,0002-00-0001-09.png,0001-00-0001-97.png
00000014,517,0,1438612779268,1438612779751,350,344,0,0,0,4,3,1,43,0004-00-0001-46.png,0003-00-0000-89.png
00000014,518,0,1438612781006,1438612781046,508,437,0,0,0,3,2,1,32,0003-00-0000-01.png,0002-00-0000-01.png
00000014,519,0,1438612782160,1438612782184,478,436,0,0,0,5,4,1,54,0005-00-0001-99.png,0004-00-0000-29.png
00000014,520,1,1438612783223,1438612783291,480,495,0,0,0,3,4,1,34,0003-00-0001-80.png,0004-00-0001-71.png
00000014,521,0,1438612784255,1438612784819,376,410,0,0,0,4,3,1,43,0004-00-0001-45.png,0003-00-0000-27.png
00000014,522,0,1438612785724,1438612785748,504,420,0,0,0,2,1,1,21,0002-00-0000-95.png,0001-00-0000-58.png
00000014,523,1,1438612786700,1438612786803,476,530,0,0,0,4,5,1,45,0004-00-0000-66.png,0005-00-0001-48.png
00000014,524,1,1438612787775,1438612788399,314,415,0,0,0,3,4,1,34,0003-00-0001-39.png,0004-00-0001-40.png
00000014,525,1,1438612789354,1438612789900,328,390,0,0,0,1,2,1,12,0001-00-0000-95.png,0002-00-0001-72.png
00000014,526,1,1438612790904,1438612790912,467,421,0,0,0,2,3,1,23,0002-00-0001-12.png,0003-00-0001-22.png
00000014,527,0,1438612792019,1438612792055,523,453,0,0,0,5,4,1,54,0005-00-0001-22.png,0004-00-0000-19.png
00000014,528,0,1438612793088,1438612793116,472,427,0,0,0,3,2,1,32,0003-00-0000-71.png,0002-00-0001-79.png
00000014,529,1,1438612794131,1438612794748,863,358,0,0,0,3,2,1,32,0003-00-0001-99.png,0002-00-0000-20.png
00000014,530,0,1438612795766,1438612796314,929,389,0,0,0,3,4,1,34,0003-00-0000-95.png,0004-00-0001-01.png
00000014,531,0,1438612797285,1438612797866,899,475,0,0,0,1,2,1,12,0001-00-0001-68.png,0002-00-0001-64.png
00000014,532,1,1438612798864,1438612799363,376,358,0,0,0,2,3,1,23,0002-00-0000-37.png,0003-00-0000-82.png
00000014,533,1,1438612800362,1438612800932,376,384,0,0,0,4,5,1,45,0004-00-0001-85.png,0005-00-0000-61.png
00000014,534,0,1438612801925,1438612801961,496,453,0,0,0,5,4,1,54,0005-00-0001-67.png,0004-00-0001-73.png
00000014,535,0,1438612803216,1438612803232,478,400,0,0,0,2,1,1,21,0002-00-0000-08.png,0001-00-0000-07.png
00000014,536,0,1438612804102,1438612804591,363,486,0,0,0,4,3,1,43,0004-00-0001-66.png,0003-00-0001-10.png
00000014,537,1,1438612805435,1438612805966,350,384,0,0,0,4,5,1,45,0004-00-0001-62.png,0005-00-0001-63.png
00000014,538,1,1438612806841,1438612806861,498,427,0,0,0,2,3,1,23,0002-00-0000-03.png,0003-00-0001-50.png
00000014,539,0,1438612808530,1438612808542,492,436,0,0,0,4,3,1,43,0004-00-0000-61.png,0003-00-0000-95.png
00000014,540,1,1438612809396,1438612809428,504,421,0,0,0,1,2,1,12,0001-00-0001-18.png,0002-00-0001-10.png
00000014,541,0,1438612810503,1438612811190,357,342,0,0,0,2,1,1,21,0002-00-0001-38.png,0001-00-0000-62.png
00000014,542,1,1438612812171,1438612812755,873,352,0,0,0,3,2,1,32,0003-00-0000-08.png,0002-00-0001-56.png
00000014,543,1,1438612813722,1438612814299,937,463,0,0,0,5,4,1,54,0005-00-0001-91.png,0004-00-0000-24.png
00000014,544,0,1438612815292,1438612815848,938,398,0,0,0,3,4,1,34,0003-00-0000-22.png,0004-00-0000-58.png
00000014,545,0,1438612816711,1438612817268,317,409,0,0,0,2,1,1,21,0002-00-0001-08.png,0001-00-0001-61.png
00000014,546,1,1438612818095,1438612818596,381,514,0,0,0,4,5,1,45,0004-00-0000-29.png,0005-00-0001-40.png
00000014,547,1,1438612819576,1438612819584,483,441,0,0,0,1,2,1,12,0001-00-0001-91.png,0002-00-0000-01.png
00000014,548,1,1438612820693,1438612821350,953,389,0,0,0,3,2,1,32,0003-00-0001-07.png,0002-00-0000-09.png
00000014,549,0,1438612822448,1438612822947,281,394,0,0,0,5,4,1,54,0005-00-0001-75.png,0004-00-0000-62.png
00000014,550,1,1438612823806,1438612823822,494,455,0,0,0,2,3,1,23,0002-00-0000-62.png,0003-00-0000-78.png
00000014,551,1,1438612824779,1438612825462,309,383,0,0,0,3,4,1,34,0003-00-0000-67.png,0004-00-0000-52.png
00000014,552,0,1438612826382,1438612826449,489,488,0,0,0,4,3,1,43,0004-00-0000-93.png,0003-00-0001-76.png
00000014,553,0,1438612827850,1438612827858,504,410,0,0,0,5,4,1,54,0005-00-0001-68.png,0004-00-0001-36.png
00000014,554,0,1438612828926,1438612829500,423,556,0,0,0,3,2,1,32,0003-00-0001-98.png,0002-00-0001-00.png
00000014,555,0,1438612830461,1438612830473,468,436,0,0,0,4,3,1,43,0004-00-0001-26.png,0003-00-0001-72.png
00000014,556,1,1438612831439,1438612831935,354,381,0,0,0,4,5,1,45,0004-00-0000-37.png,0005-00-0001-23.png
00000014,557,0,1438612832921,1438612834139,960,368,0,0,0,3,4,1,34,0003-00-0001-42.png,0004-00-0000-47.png
00000014,558,0,1438612835026,1438612835551,926,411,0,0,0,2,3,1,23,0002-00-0001-38.png,0003-00-0000-94.png
00000014,559,0,1438612836717,1438612837187,359,367,0,0,0,2,1,1,21,0002-00-0000-45.png,0001-00-0001-57.png
00000014,560,1,1438612838365,1438612839079,383,461,0,0,0,1,2,1,12,0001-00-0000-81.png,0002-00-0001-05.png
00000014,561,0,1438612840104,1438612840124,517,422,0,0,0,4,3,1,43,0004-00-0000-58.png,0003-00-0001-08.png
00000014,562,1,1438612841088,1438612841707,931,349,0,0,0,3,2,1,32,0003-00-0000-11.png,0002-00-0001-36.png
00000014,563,1,1438612842690,1438612842714,506,443,0,0,0,2,3,1,23,0002-00-0000-47.png,0003-00-0001-86.png
00000014,564,1,1438612843802,1438612844318,376,371,0,0,0,3,4,1,34,0003-00-0001-53.png,0004-00-0000-41.png
00000014,565,1,1438612845325,1438612845398,505,520,0,0,0,4,5,1,45,0004-00-0001-76.png,0005-00-0001-24.png
00000014,566,0,1438612846605,1438612847125,323,384,0,0,0,5,4,1,54,0005-00-0000-68.png,0004-00-0001-37.png
00000014,567,1,1438612848076,1438612848607,401,410,0,0,0,1,2,1,12,0001-00-0000-00.png,0002-00-0001-76.png
00000014,568,0,1438612849576,1438612849596,514,436,0,0,0,2,1,1,21,0002-00-0001-06.png,0001-00-0000-83.png
00000014,569,0,1438612850530,1438612850538,475,392,0,0,0,3,2,1,32,0003-00-0000-72.png,0002-00-0000-24.png
00000014,570,0,1438612851769,1438612852418,386,493,0,0,0,5,4,1,54,0005-00-0001-08.png,0004-00-0001-74.png
00000014,571,1,1438612853577,1438612854144,318,446,0,0,0,4,5,1,45,0004-00-0000-39.png,0005-00-0001-96.png
00000014,572,1,1438612855120,1438612855136,497,417,0,0,0,1,2,1,12,0001-00-0001-10.png,0002-00-0001-55.png
00000014,573,0,1438612856215,1438612856818,312,383,0,0,0,2,1,1,21,0002-00-0000-12.png,0001-00-0000-31.png
00000014,574,1,1438612857915,1438612858568,401,384,0,0,0,2,3,1,23,0002-00-0000-52.png,0003-00-0001-72.png
00000014,575,1,1438612859515,1438612859531,504,443,0,0,0,3,4,1,34,0003-00-0001-06.png,0004-00-0000-55.png
00000014,576,1,1438612860619,1438612861317,955,349,0,0,0,4,3,1,43,0004-00-0000-25.png,0003-00-0000-12.png
00000014,577,0,1438612862285,1438612862289,504,422,0,0,0,5,4,1,54,0005-00-0000-41.png,0004-00-0001-78.png
00000014,578,0,1438612863211,1438612863674,363,398,0,0,0,2,1,1,21,0002-00-0001-79.png,0001-00-0000-24.png
00000014,579,0,1438612864591,1438612865025,331,390,0,0,0,4,3,1,43,0004-00-0000-34.png,0003-00-0000-05.png
00000014,580,1,1438612865848,1438612865860,504,394,0,0,0,4,5,1,45,0004-00-0000-95.png,0005-00-0001-60.png
00000014,581,1,1438612866818,1438612866902,519,527,0,0,0,3,4,1,34,0003-00-0001-44.png,0004-00-0000-68.png
00000014,582,0,1438612868011,1438612868046,504,503,0,0,0,3,2,1,32,0003-00-0000-91.png,0002-00-0000-43.png
00000014,583,1,1438612870158,1438612870748,344,392,0,0,0,1,2,1,12,0001-00-0000-09.png,0002-00-0001-90.png
00000014,584,1,1438612871698,1438612872301,401,410,0,0,0,2,3,1,23,0002-00-0000-48.png,0003-00-0000-86.png
00000014,585,0,1438612873279,1438612873303,504,510,0,0,0,3,2,1,32,0003-00-0001-69.png,0002-00-0001-00.png
00000014,586,0,1438612874241,1438612874265,515,478,0,0,0,2,1,1,21,0002-00-0000-95.png,0001-00-0000-97.png
00000014,587,1,1438612875264,1438612875776,350,397,0,0,0,3,4,1,34,0003-00-0000-79.png,0004-00-0000-97.png
00000014,588,0,1438612876685,1438612877386,376,404,0,0,0,5,4,1,54,0005-00-0000-75.png,0004-00-0000-82.png
00000014,589,1,1438612878243,1438612878715,341,494,0,0,0,1,2,1,12,0001-00-0000-74.png,0002-00-0000-02.png
00000014,590,1,1438612879837,1438612880389,376,358,0,0,0,2,3,1,23,0002-00-0001-43.png,0003-00-0000-18.png
00000014,591,0,1438612881416,1438612881432,495,480,0,0,0,4,3,1,43,0004-00-0001-11.png,0003-00-0000-95.png
00000014,592,1,1438612882705,1438612883261,320,382,0,0,0,4,5,1,45,0004-00-0000-10.png,0005-00-0001-44.png
00000014,593,1,1438612884230,1438612884835,350,345,0,0,0,2,3,1,23,0002-00-0001-60.png,0003-00-0001-50.png
00000014,594,0,1438612885827,1438612886434,310,374,0,0,0,3,2,1,32,0003-00-0001-12.png,0002-00-0001-53.png
00000014,595,1,1438612887851,1438612888369,409,419,0,0,0,4,5,1,45,0004-00-0000-39.png,0005-00-0001-22.png
00000014,596,1,1438612889287,1438612889890,921,397,0,0,0,4,3,1,43,0004-00-0000-05.png,0003-00-0001-86.png
00000014,597,0,1438612890908,1438612891658,315,386,0,0,0,5,4,1,54,0005-00-0000-94.png,0004-00-0001-71.png
00000014,598,1,1438612892795,1438612892882,453,490,0,0,0,1,2,1,12,0001-00-0001-29.png,0002-00-0001-70.png
00000014,599,0,1438612893869,1438612893881,478,464,0,0,0,2,1,1,21,0002-00-0000-87.png,0001-00-0000-95.png
00000014,600,1,1438612894770,1438612895305,379,469,0,0,0,3,4,1,34,0003-00-0001-27.png,0004-00-0000-88.png
00000014,601,1,1438612896300,1438612896316,520,428,0,0,0,2,3,1,23,0002-00-0001-78.png,0003-00-0001-78.png
00000014,602,0,1438612897516,1438612898077,399,359,0,0,0,4,3,1,43,0004-00-0000-89.png,0003-00-0001-13.png
00000014,603,0,1438612899023,1438612899563,338,424,0,0,0,5,4,1,54,0005-00-0000-41.png,0004-00-0001-91.png
00000014,604,1,1438612901191,1438612901247,487,462,0,0,0,3,4,1,34,0003-00-0000-14.png,0004-00-0000-94.png
00000014,605,1,1438612902296,1438612902328,515,529,0,0,0,1,2,1,12,0001-00-0000-63.png,0002-00-0000-48.png
00000014,606,1,1438612903359,1438612903941,340,392,0,0,0,4,5,1,45,0004-00-0000-84.png,0005-00-0000-12.png
00000014,607,0,1438612904938,1438612904950,490,415,0,0,0,2,1,1,21,0002-00-0000-20.png,0001-00-0001-77.png
00000014,608,0,1438612906280,1438612906304,478,452,0,0,0,3,2,1,32,0003-00-0000-27.png,0002-00-0001-38.png
00000014,609,0,1438612907206,1438612907250,468,462,0,0,0,5,4,1,54,0005-00-0000-64.png,0004-00-0000-73.png
00000014,610,1,1438612908413,1438612908450,478,488,0,0,0,1,2,1,12,0001-00-0001-73.png,0002-00-0000-74.png
00000014,611,1,1438612909386,1438612909434,504,514,0,0,0,2,3,1,23,0002-00-0001-47.png,0003-00-0000-26.png
00000014,612,0,1438612910494,1438612911029,369,487,0,0,0,2,1,1,21,0002-00-0000-80.png,0001-00-0000-22.png
00000014,613,1,1438612911983,1438612912525,378,400,0,0,0,4,5,1,45,0004-00-0001-33.png,0005-00-0001-96.png
00000014,614,0,1438612913443,1438612913459,486,437,0,0,0,3,2,1,32,0003-00-0001-99.png,0002-00-0001-24.png
00000014,615,0,1438612914676,1438612914739,476,491,0,0,0,4,3,1,43,0004-00-0001-18.png,0003-00-0001-89.png
00000014,616,1,1438612915818,1438612916404,383,412,0,0,0,3,4,1,34,0003-00-0001-38.png,0004-00-0000-71.png
00000014,617,0,1438612917356,1438612917364,510,421,0,0,0,4,3,1,43,0004-00-0000-25.png,0003-00-0000-84.png
00000014,618,0,1438612918508,1438612919094,391,413,0,0,0,5,4,1,54,0005-00-0001-88.png,0004-00-0000-89.png
00000014,619,1,1438612920100,1438612920116,486,409,0,0,0,2,3,1,23,0002-00-0000-44.png,0003-00-0000-94.png
00000014,620,1,1438612921109,1438612921121,516,450,0,0,0,1,2,1,12,0001-00-0001-62.png,0002-00-0000-21.png
00000014,621,0,1438612922136,1438612922657,319,394,0,0,0,3,2,1,32,0003-00-0001-60.png,0002-00-0000-47.png
00000014,622,1,1438612923797,1438612924384,318,420,0,0,0,3,4,1,34,0003-00-0000-96.png,0004-00-0000-30.png
00000014,623,1,1438612925316,1438612925332,462,444,0,0,0,4,5,1,45,0004-00-0000-33.png,0005-00-0000-99.png
00000014,624,0,1438612926450,1438612926483,504,450,0,0,0,2,1,1,21,0002-00-0001-21.png,0001-00-0000-82.png
00000014,625,0,1438612927314,1438612927875,367,481,0,0,0,2,1,1,21,0002-00-0001-49.png,0001-00-0000-86.png
00000014,626,1,1438612928719,1438612929413,309,365,0,0,0,3,4,1,34,0003-00-0001-51.png,0004-00-0000-61.png
00000014,627,0,1438612930373,1438612930916,367,402,0,0,0,4,3,1,43,0004-00-0000-15.png,0003-00-0000-04.png
00000014,628,1,1438612931852,1438612931864,478,448,0,0,0,4,5,1,45,0004-00-0001-57.png,0005-00-0001-53.png
00000014,629,1,1438612932891,1438612933430,318,395,0,0,0,1,2,1,12,0001-00-0001-41.png,0002-00-0000-96.png
00000014,630,0,1438612934399,1438612934419,504,450,0,0,0,5,4,1,54,0005-00-0001-12.png,0004-00-0001-30.png
00000014,631,0,1438612935274,1438612935917,331,393,0,0,0,3,2,1,32,0003-00-0001-91.png,0002-00-0000-38.png
00000014,632,1,1438612936884,1438612937493,343,420,0,0,0,2,3,1,23,0002-00-0000-67.png,0003-00-0000-95.png
00000014,633,1,1438612938353,1438612939073,952,386,0,0,0,2,1,1,21,0002-00-0000-68.png,0001-00-0001-44.png
00000014,634,1,1438612940055,1438612940684,332,367,0,0,0,3,4,1,34,0003-00-0000-65.png,0004-00-0001-16.png
00000014,635,1,1438612941705,1438612942347,902,493,0,0,0,5,4,1,54,0005-00-0000-23.png,0004-00-0001-87.png
00000014,636,1,1438612944000,1438612944592,927,393,0,0,0,4,3,1,43,0004-00-0001-35.png,0003-00-0001-60.png
00000014,637,1,1438612945525,1438612945562,517,447,0,0,0,2,3,1,23,0002-00-0001-55.png,0003-00-0001-36.png
00000014,638,1,1438612946702,1438612946806,508,557,0,0,0,4,5,1,45,0004-00-0000-02.png,0005-00-0001-01.png
00000014,639,0,1438612948073,1438612948622,299,396,0,0,0,3,2,1,32,0003-00-0000-88.png,0002-00-0001-79.png
00000014,640,1,1438612949471,1438612950175,392,509,0,0,0,1,2,1,12,0001-00-0001-20.png,0002-00-0001-79.png
00000014,641,1,1438612951629,1438612951649,478,436,0,0,0,2,3,1,23,0002-00-0000-62.png,0003-00-0001-30.png
00000014,642,1,1438612952675,1438612953317,978,357,0,0,0,3,2,1,32,0003-00-0000-20.png,0002-00-0000-61.png
00000014,643,0,1438612954754,1438612955415,927,385,0,0,0,1,2,1,12,0001-00-0001-38.png,0002-00-0001-45.png
00000014,644,0,1438612956331,1438612956835,358,394,0,0,0,5,4,1,54,0005-00-0000-64.png,0004-00-0000-94.png
00000014,645,0,1438612958052,1438612958068,478,452,0,0,0,4,3,1,43,0004-00-0000-66.png,0003-00-0001-82.png
00000014,646,1,1438612958926,1438612958946,478,437,0,0,0,4,5,1,45,0004-00-0001-97.png,0005-00-0000-04.png
00000014,647,1,1438612959900,1438612960466,337,397,0,0,0,3,4,1,34,0003-00-0001-46.png,0004-00-0000-21.png
00000014,648,0,1438612962034,1438612962531,385,392,0,0,0,2,1,1,21,0002-00-0001-07.png,0001-00-0001-76.png
00000014,649,1,1438612963575,1438612964266,415,384,0,0,0,1,2,1,12,0001-00-0000-21.png,0002-00-0000-30.png
00000014,650,1,1438612965356,1438612965372,497,443,0,0,0,2,3,1,23,0002-00-0000-33.png,0003-00-0000-96.png
00000014,651,0,1438612966549,1438612967200,389,477,0,0,0,4,3,1,43,0004-00-0000-07.png,0003-00-0000-57.png
00000014,652,1,1438612968567,1438612968583,502,437,0,0,0,3,4,1,34,0003-00-0001-18.png,0004-00-0001-49.png
00000014,653,1,1438612969500,1438612969536,478,473,0,0,0,4,5,1,45,0004-00-0000-93.png,0005-00-0000-42.png
00000014,654,0,1438612970695,1438612971218,336,419,0,0,0,5,4,1,54,0005-00-0000-39.png,0004-00-0001-51.png
00000014,655,0,1438612972471,1438612973032,385,536,0,0,0,2,1,1,21,0002-00-0001-97.png,0001-00-0000-27.png
00000014,656,0,1438612973913,1438612973929,504,399,0,0,0,3,2,1,32,0003-00-0000-49.png,0002-00-0000-29.png
00000014,657,0,1438612974912,1438612974948,478,479,0,0,0,5,4,1,54,0005-00-0000-43.png,0004-00-0000-68.png
00000014,658,0,1438612975887,1438612976345,280,381,0,0,0,2,1,1,21,0002-00-0000-06.png,0001-00-0001-76.png
00000014,659,1,1438612977185,1438612977239,478,483,0,0,0,3,4,1,34,0003-00-0001-25.png,0004-00-0000-40.png
00000014,660,1,1438612978207,1438612978819,319,394,0,0,0,2,3,1,23,0002-00-0000-98.png,0003-00-0001-58.png
00000014,661,1,1438612979847,1438612980425,350,383,0,0,0,1,2,1,12,0001-00-0001-91.png,0002-00-0001-34.png
00000014,662,1,1438612981396,1438612981981,318,421,0,0,0,4,5,1,45,0004-00-0000-18.png,0005-00-0000-43.png
00000014,663,0,1438612983073,1438612983675,286,397,0,0,0,4,3,1,43,0004-00-0001-20.png,0003-00-0001-46.png
00000014,664,1,1438612984606,1438612985209,875,514,0,0,0,3,2,1,32,0003-00-0000-78.png,0002-00-0001-81.png
00000014,665,0,1438612986162,1438612986669,382,472,0,0,0,4,3,1,43,0004-00-0001-80.png,0003-00-0001-17.png
00000014,666,1,1438612987493,1438612987983,363,371,0,0,0,2,3,1,23,0002-00-0000-59.png,0003-00-0000-75.png
00000014,667,1,1438612988956,1438612989607,342,380,0,0,0,3,4,1,34,0003-00-0001-29.png,0004-00-0001-93.png
00000014,668,0,1438612990608,1438612991112,350,384,0,0,0,3,2,1,32,0003-00-0000-93.png,0002-00-0000-28.png
00000014,669,1,1438612992011,1438612992815,899,463,0,0,0,2,1,1,21,0002-00-0001-51.png,0001-00-0001-39.png
00000014,670,0,1438612993788,1438612993808,492,425,0,0,0,5,4,1,54,0005-00-0001-11.png,0004-00-0000-73.png
00000014,671,1,1438612994969,1438612994989,507,428,0,0,0,1,2,1,12,0001-00-0000-75.png,0002-00-0000-50.png
00000014,672,1,1438612995935,1438612995979,491,505,0,0,0,4,5,1,45,0004-00-0001-62.png,0005-00-0000-24.png
00000014,673,1,1438612997042,1438612997575,346,364,0,0,0,2,3,1,23,0002-00-0001-39.png,0003-00-0001-93.png
00000014,674,0,1438612998550,1438612998610,470,508,0,0,0,3,2,1,32,0003-00-0000-03.png,0002-00-0001-11.png
00000014,675,1,1438612999471,1438612999982,286,410,0,0,0,1,2,1,12,0001-00-0001-57.png,0002-00-0001-08.png
00000014,676,0,1438613000923,1438613001670,961,377,0,0,0,3,4,1,34,0003-00-0000-86.png,0004-00-0000-10.png
00000014,677,0,1438613002510,1438613002530,460,392,0,0,0,2,1,1,21,0002-00-0000-95.png,0001-00-0001-63.png
00000014,678,1,1438613003841,1438613003853,478,462,0,0,0,4,5,1,45,0004-00-0001-91.png,0005-00-0000-42.png
00000014,679,0,1438613004775,1438613005319,360,400,0,0,0,4,3,1,43,0004-00-0000-38.png,0003-00-0000-53.png
00000014,680,0,1438613006523,1438613006532,467,410,0,0,0,5,4,1,54,0005-00-0000-11.png,0004-00-0001-11.png
00000014,681,1,1438613007538,1438613008064,928,415,0,0,0,5,4,1,54,0005-00-0001-26.png,0004-00-0000-54.png
00000014,682,1,1438613009021,1438613009565,367,368,0,0,0,2,3,1,23,0002-00-0000-82.png,0003-00-0000-34.png
00000014,683,0,1438613010524,1438613011157,926,383,0,0,0,1,2,1,12,0001-00-0001-15.png,0002-00-0000-62.png
00000014,684,1,1438613012177,1438613012644,325,410,0,0,0,4,5,1,45,0004-00-0001-92.png,0005-00-0000-02.png
00000014,685,1,1438613013591,1438613013644,504,470,0,0,0,3,4,1,34,0003-00-0000-22.png,0004-00-0000-84.png
00000014,686,0,1438613014645,1438613015189,317,391,0,0,0,2,1,1,21,0002-00-0000-34.png,0001-00-0001-69.png
00000014,687,0,1438613016374,1438613017015,376,384,0,0,0,3,2,1,32,0003-00-0001-16.png,0002-00-0000-33.png
00000014,688,0,1438613018408,1438613018468,478,471,0,0,0,4,3,1,43,0004-00-0000-76.png,0003-00-0001-34.png
00000014,689,1,1438613019311,1438613019978,401,436,0,0,0,3,4,1,34,0003-00-0000-58.png,0004-00-0000-68.png
00000014,690,0,1438613020914,1438613021014,491,541,0,0,0,5,4,1,54,0005-00-0000-00.png,0004-00-0000-01.png
00000014,691,0,1438613022207,1438613022756,336,408,0,0,0,4,3,1,43,0004-00-0001-83.png,0003-00-0001-21.png
00000014,692,0,1438613023654,1438613023690,504,436,0,0,0,3,2,1,32,0003-00-0001-36.png,0002-00-0001-42.png
00000014,693,1,1438613024672,1438613024681,504,426,0,0,0,1,2,1,12,0001-00-0001-16.png,0002-00-0000-02.png
00000014,694,0,1438613025985,1438613026049,488,514,0,0,0,2,1,1,21,0002-00-0000-47.png,0001-00-0001-37.png
00000014,695,1,1438613027164,1438613027200,499,440,0,0,0,2,3,1,23,0002-00-0000-48.png,0003-00-0000-13.png
00000014,696,1,1438613028199,1438613028773,317,391,0,0,0,4,5,1,45,0004-00-0000-49.png,0005-00-0000-54.png
00000014,697,0,1438613029820,1438613029840,495,494,0,0,0,5,4,1,54,0005-00-0000-30.png,0004-00-0000-81.png
00000014,698,0,1438613031060,1438613031108,487,471,0,0,0,4,3,1,43,0004-00-0000-79.png,0003-00-0000-47.png
00000014,699,1,1438613032013,1438613032033,504,461,0,0,0,2,3,1,23,0002-00-0001-57.png,0003-00-0000-50.png
00000014,700,1,1438613032979,1438613033547,382,394,0,0,0,1,2,1,12,0001-00-0000-78.png,0002-00-0000-15.png
00000014,701,1,1438613034538,1438613035052,391,481,0,0,0,4,5,1,45,0004-00-0001-60.png,0005-00-0001-51.png
00000014,702,1,1438613036041,1438613036077,494,494,0,0,0,3,4,1,34,0003-00-0000-95.png,0004-00-0000-19.png
00000014,703,1,1438613037343,1438613037965,913,358,0,0,0,2,1,1,21,0002-00-0001-37.png,0001-00-0001-58.png
00000014,704,0,1438613038980,1438613039013,493,539,0,0,0,3,2,1,32,0003-00-0001-12.png,0002-00-0001-30.png
00000014,705,1,1438613039863,1438613040482,939,372,0,0,0,3,2,1,32,0003-00-0000-97.png,0002-00-0001-72.png
00000014,706,1,1438613041535,1438613042127,310,414,0,0,0,4,5,1,45,0004-00-0000-55.png,0005-00-0000-71.png
00000014,707,1,1438613043125,1438613043767,913,443,0,0,0,5,4,1,54,0005-00-0001-73.png,0004-00-0000-64.png
00000014,708,0,1438613044786,1438613045302,315,402,0,0,0,4,3,1,43,0004-00-0000-93.png,0003-00-0000-74.png
00000014,709,0,1438613046401,1438613047045,925,388,0,0,0,3,4,1,34,0003-00-0001-62.png,0004-00-0001-89.png
00000014,710,1,1438613048120,1438613048176,488,462,0,0,0,1,2,1,12,0001-00-0001-24.png,0002-00-0001-84.png
00000014,711,0,1438613049085,1438613049113,520,429,0,0,0,2,1,1,21,0002-00-0000-55.png,0001-00-0000-23.png
00000014,712,1,1438613049946,1438613050561,322,413,0,0,0,2,3,1,23,0002-00-0000-25.png,0003-00-0001-56.png
00000014,713,1,1438613051479,1438613052160,319,394,0,0,0,1,2,1,12,0001-00-0000-93.png,0002-00-0000-12.png
00000014,714,1,1438613053844,1438613053872,478,470,0,0,0,4,5,1,45,0004-00-0000-47.png,0005-00-0000-08.png
00000014,715,1,1438613054978,1438613054990,509,484,0,0,0,3,4,1,34,0003-00-0000-75.png,0004-00-0001-01.png
00000014,716,1,1438613056033,1438613056053,511,422,0,0,0,2,3,1,23,0002-00-0000-25.png,0003-00-0000-68.png
00000014,717,1,1438613057154,1438613057720,871,367,0,0,0,3,2,1,32,0003-00-0000-27.png,0002-00-0000-44.png
00000014,718,0,1438613058779,1438613058867,509,551,0,0,0,2,1,1,21,0002-00-0000-41.png,0001-00-0001-16.png
00000014,719,0,1438613059871,1438613060382,382,514,0,0,0,5,4,1,54,0005-00-0000-70.png,0004-00-0000-90.png
00000014,720,0,1438613061241,1438613061822,391,502,0,0,0,4,3,1,43,0004-00-0001-23.png,0003-00-0001-84.png
00000014,721,0,1438613063418,1438613063426,471,417,0,0,0,4,3,1,43,0004-00-0001-34.png,0003-00-0001-64.png
00000014,722,1,1438613064446,1438613065106,912,490,0,0,0,2,1,1,21,0002-00-0001-05.png,0001-00-0001-42.png
00000014,723,0,1438613066010,1438613066042,484,446,0,0,0,3,2,1,32,0003-00-0001-42.png,0002-00-0001-03.png
00000014,724,1,1438613067046,1438613067732,374,471,0,0,0,2,3,1,23,0002-00-0000-67.png,0003-00-0000-00.png
00000014,725,1,1438613068674,1438613068686,521,429,0,0,0,3,4,1,34,0003-00-0000-49.png,0004-00-0000-17.png
00000014,726,1,1438613069828,1438613070410,407,381,0,0,0,4,5,1,45,0004-00-0000-47.png,0005-00-0001-55.png
00000014,727,1,1438613071376,1438613071392,484,429,0,0,0,1,2,1,12,0001-00-0001-56.png,0002-00-0000-26.png
00000014,728,0,1438613072531,1438613072595,502,458,0,0,0,5,4,1,54,0005-00-0000-62.png,0004-00-0001-30.png
00000014,729,0,1438613073934,1438613073997,463,479,0,0,0,3,2,1,32,0003-00-0001-29.png,0002-00-0000-08.png
00000014,730,1,1438613074842,1438613075356,928,391,0,0,0,5,4,1,54,0005-00-0000-45.png,0004-00-0000-24.png
00000014,731,1,1438613076277,1438613076819,376,384,0,0,0,2,3,1,23,0002-00-0001-95.png,0003-00-0000-03.png
00000014,732,0,1438613077828,1438613077848,497,453,0,0,0,2,1,1,21,0002-00-0000-93.png,0001-00-0001-67.png
00000014,733,0,1438613078841,1438613079373,379,493,0,0,0,4,3,1,43,0004-00-0001-25.png,0003-00-0000-17.png
00000014,734,1,1438613080457,1438613080477,467,414,0,0,0,3,4,1,34,0003-00-0000-34.png,0004-00-0000-80.png
00000014,735,1,1438613082486,1438613082502,497,454,0,0,0,4,5,1,45,0004-00-0001-12.png,0005-00-0000-46.png
00000014,736,0,1438613083504,1438613084154,929,395,0,0,0,1,2,1,12,0001-00-0000-52.png,0002-00-0000-40.png
00000014,737,1,1438613085356,1438613085376,472,454,0,0,0,1,2,1,12,0001-00-0001-55.png,0002-00-0001-24.png
00000014,738,0,1438613086393,1438613087010,376,371,0,0,0,3,2,1,32,0003-00-0000-80.png,0002-00-0000-85.png
00000014,739,0,1438613087969,1438613088624,926,383,0,0,0,4,5,1,45,0004-00-0000-72.png,0005-00-0000-53.png
00000014,740,0,1438613089601,1438613090106,327,380,0,0,0,2,1,1,21,0002-00-0001-19.png,0001-00-0001-18.png
00000014,741,1,1438613091328,1438613091349,441,424,0,0,0,3,4,1,34,0003-00-0000-80.png,0004-00-0000-94.png
00000014,742,1,1438613092880,1438613093431,315,416,0,0,0,2,3,1,23,0002-00-0001-53.png,0003-00-0000-15.png
00000014,743,0,1438613094383,1438613094957,333,418,0,0,0,4,3,1,43,0004-00-0001-73.png,0003-00-0001-11.png
00000014,744,0,1438613096012,1438613096512,350,396,0,0,0,5,4,1,54,0005-00-0000-78.png,0004-00-0000-79.png
00000014,745,1,1438613097751,1438613097769,521,443,0,0,0,1,2,1,12,0001-00-0000-81.png,0002-00-0000-44.png
00000014,746,0,1438613098702,1438613099317,926,360,0,0,0,4,5,1,45,0004-00-0001-68.png,0005-00-0000-54.png
00000014,747,0,1438613100464,1438613100973,344,392,0,0,0,4,3,1,43,0004-00-0000-88.png,0003-00-0001-83.png
00000014,748,0,1438613101871,1438613101899,502,479,0,0,0,2,1,1,21,0002-00-0000-19.png,0001-00-0001-31.png
00000014,749,1,1438613102903,1438613103384,333,419,0,0,0,2,3,1,23,0002-00-0000-41.png,0003-00-0001-31.png
00000014,750,0,1438613104823,1438613105385,319,375,0,0,0,3,2,1,32,0003-00-0001-79.png,0002-00-0000-19.png
00000014,751,1,1438613106561,1438613107187,912,399,0,0,0,5,4,1,54,0005-00-0000-77.png,0004-00-0000-50.png
00000014,752,1,1438613108193,1438613108205,510,416,0,0,0,3,4,1,34,0003-00-0000-36.png,0004-00-0001-49.png
00000014,753,0,1438613109218,1438613109854,336,397,0,0,0,2,1,1,21,0002-00-0001-98.png,0001-00-0001-22.png
00000014,754,1,1438613110848,1438613110856,478,429,0,0,0,4,5,1,45,0004-00-0001-88.png,0005-00-0000-12.png
00000014,755,0,1438613111842,1438613112398,233,462,0,0,0,4,3,1,43,0004-00-0000-30.png,0003-00-0001-83.png
00000014,756,0,1438613113248,1438613113742,900,377,0,0,0,1,2,1,12,0001-00-0001-70.png,0002-00-0000-43.png
00000014,757,0,1438613114733,1438613115258,359,397,0,0,0,3,2,1,32,0003-00-0001-63.png,0002-00-0001-22.png
00000014,758,1,1438613116430,1438613116446,489,424,0,0,0,3,4,1,34,0003-00-0000-12.png,0004-00-0000-96.png
00000014,759,1,1438613117397,1438613117425,519,462,0,0,0,2,3,1,23,0002-00-0000-76.png,0003-00-0000-76.png
00000014,760,1,1438613118440,1438613119027,898,480,0,0,0,5,4,1,54,0005-00-0000-34.png,0004-00-0001-08.png
00000014,761,1,1438613120060,1438613121706,901,443,0,0,0,2,1,1,21,0002-00-0001-66.png,0001-00-0000-86.png
00000014,762,1,1438613122675,1438613123320,952,382,0,0,0,3,2,1,32,0003-00-0001-08.png,0002-00-0001-65.png
00000014,763,0,1438613124310,1438613124896,924,457,0,0,0,1,2,1,12,0001-00-0000-81.png,0002-00-0000-69.png
00000014,764,0,1438613126150,1438613126665,910,492,0,0,0,3,4,1,34,0003-00-0001-91.png,0004-00-0000-58.png
00000014,765,0,1438613127651,1438613128103,309,400,0,0,0,5,4,1,54,0005-00-0001-76.png,0004-00-0001-02.png
00000014,766,1,1438613129320,1438613129348,476,426,0,0,0,2,3,1,23,0002-00-0000-47.png,0003-00-0000-16.png
00000014,767,0,1438613130773,1438613131318,197,474,0,0,0,4,3,1,43,0004-00-0000-63.png,0003-00-0001-13.png
00000014,768,1,1438613132360,1438613133110,337,448,0,0,0,4,5,1,45,0004-00-0001-35.png,0005-00-0001-51.png
00000014,769,0,1438613134031,1438613134047,512,410,0,0,0,3,2,1,32,0003-00-0000-74.png,0002-00-0001-47.png
00000014,770,1,1438613134902,1438613135416,334,399,0,0,0,2,3,1,23,0002-00-0001-79.png,0003-00-0001-08.png
00000014,771,1,1438613136348,1438613137011,925,382,0,0,0,5,4,1,54,0005-00-0001-68.png,0004-00-0001-80.png
00000014,772,1,1438613137976,1438613138012,478,497,0,0,0,1,2,1,12,0001-00-0000-42.png,0002-00-0001-40.png
00000014,773,1,1438613139486,1438613139506,478,399,0,0,0,4,5,1,45,0004-00-0000-07.png,0005-00-0001-40.png
00000014,774,0,1438613140517,1438613141044,376,384,0,0,0,2,1,1,21,0002-00-0000-11.png,0001-00-0001-47.png
00000014,775,1,1438613142240,1438613142264,504,446,0,0,0,3,4,1,34,0003-00-0000-72.png,0004-00-0001-22.png
00000014,776,0,1438613143401,1438613143425,518,436,0,0,0,4,3,1,43,0004-00-0000-25.png,0003-00-0000-81.png
00000014,777,0,1438613144634,1438613144650,493,424,0,0,0,2,1,1,21,0002-00-0001-27.png,0001-00-0001-58.png
00000014,778,0,1438613145689,1438613146202,387,515,0,0,0,5,4,1,54,0005-00-0001-98.png,0004-00-0001-33.png
00000014,779,0,1438613147048,1438613147064,501,426,0,0,0,4,3,1,43,0004-00-0000-24.png,0003-00-0001-16.png
00000014,780,1,1438613148457,1438613148496,504,446,0,0,0,2,3,1,23,0002-00-0001-29.png,0003-00-0001-42.png
00000014,781,1,1438613149410,1438613149929,324,398,0,0,0,4,5,1,45,0004-00-0000-35.png,0005-00-0001-37.png
00000014,782,1,1438613150954,1438613150982,490,448,0,0,0,1,2,1,12,0001-00-0000-91.png,0002-00-0000-31.png
00000014,783,1,1438613152098,1438613152818,291,384,0,0,0,3,4,1,34,0003-00-0000-59.png,0004-00-0001-51.png
00000014,784,1,1438613153795,1438613154400,933,429,0,0,0,3,2,1,32,0003-00-0001-13.png,0002-00-0000-28.png
00000014,785,0,1438613155375,1438613155395,485,446,0,0,0,2,1,1,21,0002-00-0000-58.png,0001-00-0000-32.png
00000014,786,0,1438613156638,1438613156712,492,505,0,0,0,5,4,1,54,0005-00-0000-77.png,0004-00-0000-45.png
00000014,787,1,1438613157689,1438613158181,862,370,0,0,0,3,2,1,32,0003-00-0000-40.png,0002-00-0001-98.png
00000014,788,1,1438613159100,1438613159120,472,428,0,0,0,1,2,1,12,0001-00-0000-78.png,0002-00-0001-43.png
00000014,789,1,1438613160094,1438613160771,923,481,0,0,0,4,3,1,43,0004-00-0001-26.png,0003-00-0001-54.png
00000014,790,0,1438613161726,1438613162793,944,375,0,0,0,3,4,1,34,0003-00-0000-21.png,0004-00-0001-97.png
00000014,791,0,1438613164246,1438613164803,915,397,0,0,0,4,5,1,45,0004-00-0001-22.png,0005-00-0001-52.png
00000014,792,1,1438613165766,1438613166397,392,495,0,0,0,2,3,1,23,0002-00-0000-38.png,0003-00-0001-70.png
00000014,793,0,1438613167481,1438613167982,929,374,0,0,0,1,2,1,12,0001-00-0000-82.png,0002-00-0000-45.png
00000014,794,1,1438613168867,1438613169405,898,483,0,0,0,3,2,1,32,0003-00-0000-80.png,0002-00-0001-10.png
00000014,795,0,1438613170340,1438613170887,344,395,0,0,0,5,4,1,54,0005-00-0000-32.png,0004-00-0001-16.png
00000014,796,1,1438613172218,1438613172286,510,497,0,0,0,2,3,1,23,0002-00-0000-17.png,0003-00-0001-84.png
00000014,797,0,1438613173261,1438613173933,350,358,0,0,0,2,1,1,21,0002-00-0001-14.png,0001-00-0001-64.png
00000014,798,0,1438613175150,1438613175665,905,453,0,0,0,3,4,1,34,0003-00-0000-97.png,0004-00-0000-98.png
00000014,799,0,1438613176789,1438613176835,497,455,0,0,0,4,3,1,43,0004-00-0001-71.png,0003-00-0001-75.png
00000014,800,1,1438613177665,1438613178146,331,401,0,0,0,4,5,1,45,0004-00-0000-76.png,0005-00-0001-43.png
00000014,801,1,1438613179561,1438613180111,349,397,0,0,0,2,3,1,23,0002-00-0001-31.png,0003-00-0000-35.png
00000014,802,0,1438613181123,1438613181159,508,520,0,0,0,5,4,1,54,0005-00-0001-63.png,0004-00-0001-46.png
00000014,803,1,1438613182174,1438613182815,926,398,0,0,0,3,2,1,32,0003-00-0000-14.png,0002-00-0000-09.png
00000014,804,1,1438613183725,1438613183753,511,444,0,0,0,4,5,1,45,0004-00-0001-65.png,0005-00-0001-61.png
00000014,805,1,1438613185058,1438613185688,376,332,0,0,0,3,4,1,34,0003-00-0001-04.png,0004-00-0000-42.png
00000014,806,0,1438613186668,1438613186680,491,394,0,0,0,2,1,1,21,0002-00-0000-82.png,0001-00-0001-52.png
00000014,807,0,1438613187562,1438613188145,895,472,0,0,0,1,2,1,12,0001-00-0001-81.png,0002-00-0001-07.png
00000014,808,0,1438613189039,1438613189562,360,391,0,0,0,4,3,1,43,0004-00-0001-32.png,0003-00-0000-64.png
00000014,809,0,1438613190481,1438613191045,325,450,0,0,0,5,4,1,54,0005-00-0001-64.png,0004-00-0001-17.png
00000014,810,1,1438613191954,1438613192441,358,366,0,0,0,3,4,1,34,0003-00-0001-72.png,0004-00-0000-66.png
00000014,811,1,1438613193394,1438613193422,498,454,0,0,0,4,5,1,45,0004-00-0001-80.png,0005-00-0001-42.png
00000014,812,0,1438613194478,1438613195044,323,424,0,0,0,2,1,1,21,0002-00-0000-97.png,0001-00-0001-15.png
00000014,813,0,1438613196979,1438613197015,517,436,0,0,0,4,3,1,43,0004-00-0000-50.png,0003-00-0000-94.png
00000014,814,0,1438613213670,1438613214201,312,392,0,0,0,3,2,1,32,0003-00-0000-70.png,0002-00-0000-67.png
00000014,815,1,1438613215036,1438613215470,354,379,0,0,0,2,3,1,23,0002-00-0001-93.png,0003-00-0001-19.png
00000014,816,1,1438613216433,1438613217020,388,458,0,0,0,1,2,1,12,0001-00-0001-37.png,0002-00-0001-25.png
00000014,817,0,1438613217934,1438613217982,492,421,0,0,0,4,3,1,43,0004-00-0001-59.png,0003-00-0001-41.png
00000014,818,1,1438613219110,1438613219663,944,398,0,0,0,3,2,1,32,0003-00-0000-96.png,0002-00-0001-20.png
00000014,819,1,1438613220534,1438613221125,350,384,0,0,0,4,5,1,45,0004-00-0001-18.png,0005-00-0000-95.png
00000014,820,1,1438613222037,1438613222041,502,443,0,0,0,3,4,1,34,0003-00-0000-61.png,0004-00-0000-20.png
00000014,821,0,1438613222955,1438613223019,501,469,0,0,0,2,1,1,21,0002-00-0000-83.png,0001-00-0000-69.png
00000014,822,1,1438613240825,1438613241292,339,391,0,0,0,1,2,1,12,0001-00-0001-62.png,0002-00-0001-15.png
00000014,823,0,1438613242387,1438613242938,374,515,0,0,0,5,4,1,54,0005-00-0001-08.png,0004-00-0000-81.png
00000014,824,1,1438613243895,1438613244451,364,502,0,0,0,2,3,1,23,0002-00-0001-94.png,0003-00-0001-13.png
00000014,825,0,1438613245436,1438613246014,908,489,0,0,0,4,5,1,45,0004-00-0001-23.png,0005-00-0000-82.png
00000014,826,1,1438613247138,1438613247681,390,514,0,0,0,2,3,1,23,0002-00-0001-76.png,0003-00-0000-70.png
00000014,827,0,1438613248616,1438613249263,907,491,0,0,0,3,4,1,34,0003-00-0001-38.png,0004-00-0001-22.png
00000014,828,1,1438613250436,1438613250472,505,466,0,0,0,1,2,1,12,0001-00-0000-73.png,0002-00-0000-30.png
00000014,829,0,1438613251438,1438613252005,324,390,0,0,0,5,4,1,54,0005-00-0000-43.png,0004-00-0001-04.png
00000014,830,1,1438613253317,1438613253830,928,375,0,0,0,3,2,1,32,0003-00-0000-52.png,0002-00-0000-24.png
00000014,831,0,1438613254791,1438613254811,513,455,0,0,0,2,1,1,21,0002-00-0000-29.png,0001-00-0000-74.png
00000014,832,0,1438613255903,1438613256472,345,399,0,0,0,4,3,1,43,0004-00-0001-44.png,0003-00-0000-94.png
00000014,833,1,1438613257460,1438613257945,391,506,0,0,0,4,5,1,45,0004-00-0000-87.png,0005-00-0001-49.png
00000014,834,1,1438613258853,1438613259450,928,389,0,0,0,3,2,1,32,0003-00-0001-88.png,0002-00-0000-44.png
00000014,835,1,1438613260387,1438613260937,931,402,0,0,0,5,4,1,54,0005-00-0001-38.png,0004-00-0000-35.png
00000014,836,1,1438613261877,1438613261889,519,436,0,0,0,3,4,1,34,0003-00-0000-13.png,0004-00-0000-89.png
00000014,837,0,1438613262915,1438613262927,517,472,0,0,0,4,3,1,43,0004-00-0001-43.png,0003-00-0000-12.png
00000014,838,1,1438613263818,1438613263834,471,438,0,0,0,2,3,1,23,0002-00-0000-25.png,0003-00-0001-66.png
00000014,839,0,1438613264792,1438613265370,926,397,0,0,0,1,2,1,12,0001-00-0000-44.png,0002-00-0000-43.png
00000014,840,0,1438613266245,1438613266782,391,507,0,0,0,2,1,1,21,0002-00-0001-79.png,0001-00-0001-14.png
00000014,841,1,1438613268025,1438613268068,510,490,0,0,0,2,3,1,23,0002-00-0001-50.png,0003-00-0001-34.png
00000014,842,0,1438613287146,1438613287618,324,401,0,0,0,4,3,1,43,0004-00-0000-60.png,0003-00-0001-66.png
00000014,843,1,1438613304973,1438613305549,289,361,0,0,0,3,4,1,34,0003-00-0000-68.png,0004-00-0000-68.png
00000014,844,0,1438613306970,1438613306990,478,423,0,0,0,5,4,1,54,0005-00-0000-38.png,0004-00-0001-29.png
00000014,845,1,1438613307914,1438613308377,311,370,0,0,0,1,2,1,12,0001-00-0001-34.png,0002-00-0001-58.png
00000014,846,0,1438613309234,1438613309840,344,389,0,0,0,3,2,1,32,0003-00-0000-51.png,0002-00-0001-68.png
00000014,847,0,1438613310736,1438613310756,487,436,0,0,0,2,1,1,21,0002-00-0000-92.png,0001-00-0000-20.png
00000014,848,1,1438613311737,1438613311769,511,484,0,0,0,4,5,1,45,0004-00-0000-91.png,0005-00-0001-36.png
00000014,849,0,1438613312644,1438613313221,392,502,0,0,0,5,4,1,54,0005-00-0000-89.png,0004-00-0001-16.png
00000014,850,1,1438613314312,1438613314814,936,399,0,0,0,3,2,1,32,0003-00-0000-14.png,0002-00-0000-90.png
00000014,851,1,1438613315706,1438613316238,323,394,0,0,0,2,3,1,23,0002-00-0001-88.png,0003-00-0001-11.png
00000014,852,0,1438613317117,1438613317657,350,398,0,0,0,2,1,1,21,0002-00-0001-71.png,0001-00-0001-55.png
00000014,853,1,1438613318638,1438613319212,358,386,0,0,0,4,5,1,45,0004-00-0001-53.png,0005-00-0000-42.png
00000014,854,1,1438613320134,1438613320154,514,488,0,0,0,3,4,1,34,0003-00-0001-46.png,0004-00-0001-55.png
00000014,855,1,1438613321040,1438613321060,521,455,0,0,0,1,2,1,12,0001-00-0000-10.png,0002-00-0001-11.png
00000014,856,0,1438613322006,1438613322548,350,375,0,0,0,4,3,1,43,0004-00-0000-81.png,0003-00-0001-67.png
00000014,857,1,1438613323485,1438613323521,496,451,0,0,0,3,4,1,34,0003-00-0001-25.png,0004-00-0000-51.png
00000014,858,0,1438613324388,1438613324428,489,503,0,0,0,5,4,1,54,0005-00-0001-77.png,0004-00-0001-85.png
00000014,859,1,1438613325921,1438613325937,517,403,0,0,0,1,2,1,12,0001-00-0001-15.png,0002-00-0000-06.png
00000014,860,1,1438613326823,1438613327399,423,512,0,0,0,4,5,1,45,0004-00-0001-03.png,0005-00-0001-45.png
00000014,861,0,1438613328225,1438613328799,340,371,0,0,0,2,1,1,21,0002-00-0001-12.png,0001-00-0001-29.png
00000014,862,0,1438613348020,1438613348456,373,405,0,0,0,4,3,1,43,0004-00-0000-87.png,0003-00-0001-15.png
00000014,863,0,1438613349347,1438613349808,322,395,0,0,0,3,2,1,32,0003-00-0000-70.png,0002-00-0000-05.png
00000014,864,1,1438613350683,1438613351149,336,424,0,0,0,2,3,1,23,0002-00-0000-82.png,0003-00-0001-39.png
00000014,865,1,1438613352067,1438613352083,515,436,0,0,0,2,3,1,23,0002-00-0001-02.png,0003-00-0000-60.png
00000014,866,1,1438613353536,1438613353564,492,423,0,0,0,3,4,1,34,0003-00-0001-67.png,0004-00-0000-79.png
00000014,867,0,1438613354532,1438613355107,235,462,0,0,0,4,3,1,43,0004-00-0000-89.png,0003-00-0000-48.png
00000014,868,0,1438613356558,1438613357178,311,413,0,0,0,2,1,1,21,0002-00-0001-40.png,0001-00-0001-53.png
00000014,869,1,1438613358276,1438613358913,339,412,0,0,0,4,5,1,45,0004-00-0000-64.png,0005-00-0001-87.png
00000014,870,1,1438613359818,1438613359838,520,462,0,0,0,1,2,1,12,0001-00-0001-40.png,0002-00-0001-68.png
00000014,871,0,1438613361467,1438613361483,491,424,0,0,0,3,2,1,32,0003-00-0001-18.png,0002-00-0000-13.png
00000014,872,0,1438613362588,1438613362616,504,478,0,0,0,5,4,1,54,0005-00-0001-94.png,0004-00-0000-97.png
00000014,873,0,1438613363671,1438613364367,909,514,0,0,0,4,5,1,45,0004-00-0000-00.png,0005-00-0000-43.png
00000014,874,1,1438613365485,1438613366049,313,467,0,0,0,1,2,1,12,0001-00-0000-68.png,0002-00-0001-85.png
00000014,875,0,1438613366952,1438613367553,376,397,0,0,0,3,2,1,32,0003-00-0000-83.png,0002-00-0000-51.png
00000014,876,1,1438613368790,1438613368806,491,488,0,0,0,3,4,1,34,0003-00-0000-30.png,0004-00-0001-48.png
00000014,877,0,1438613369766,1438613369782,503,544,0,0,0,4,3,1,43,0004-00-0001-00.png,0003-00-0000-03.png
00000014,878,0,1438613370625,1438613370674,502,501,0,0,0,5,4,1,54,0005-00-0000-28.png,0004-00-0000-91.png
00000014,879,0,1438613371702,1438613371726,522,455,0,0,0,2,1,1,21,0002-00-0001-42.png,0001-00-0001-97.png
00000014,880,1,1438613396481,1438613396985,358,405,0,0,0,2,3,1,23,0002-00-0001-81.png,0003-00-0000-21.png
00000014,881,1,1438613398047,1438613398630,303,390,0,0,0,2,3,1,23,0002-00-0000-31.png,0003-00-0000-85.png
00000014,882,0,1438613399653,1438613400238,390,476,0,0,0,4,3,1,43,0004-00-0000-75.png,0003-00-0000-50.png
00000014,883,1,1438613401163,1438613401179,507,478,0,0,0,1,2,1,12,0001-00-0000-84.png,0002-00-0001-26.png
00000014,884,0,1438613402163,1438613402207,516,502,0,0,0,3,2,1,32,0003-00-0001-08.png,0002-00-0001-12.png
00000014,885,0,1438613403048,1438613403080,478,446,0,0,0,5,4,1,54,0005-00-0000-86.png,0004-00-0000-32.png
00000014,886,1,1438613404104,1438613404142,522,480,0,0,0,3,4,1,34,0003-00-0001-58.png,0004-00-0001-40.png
00000014,887,1,1438613405119,1438613405693,337,389,0,0,0,4,5,1,45,0004-00-0001-24.png,0005-00-0000-40.png
00000014,888,0,1438613406658,1438613407206,344,417,0,0,0,2,1,1,21,0002-00-0001-66.png,0001-00-0000-21.png
00000014,889,0,1438613408584,1438613408596,478,421,0,0,0,3,2,1,32,0003-00-0000-64.png,0002-00-0001-12.png
00000014,890,1,1438613409609,1438613410037,334,428,0,0,0,4,5,1,45,0004-00-0000-39.png,0005-00-0001-81.png
00000014,891,1,1438613410929,1438613410957,512,495,0,0,0,3,4,1,34,0003-00-0001-76.png,0004-00-0001-26.png
00000014,892,0,1438613411896,1438613412512,324,413,0,0,0,2,1,1,21,0002-00-0001-60.png,0001-00-0000-41.png
00000014,893,0,1438613413392,1438613413798,311,405,0,0,0,4,3,1,43,0004-00-0000-03.png,0003-00-0001-10.png
00000014,894,1,1438613415006,1438613415062,511,480,0,0,0,2,3,1,23,0002-00-0000-84.png,0003-00-0000-16.png
00000014,895,1,1438613415955,1438613416511,326,400,0,0,0,1,2,1,12,0001-00-0001-22.png,0002-00-0001-37.png
00000014,896,0,1438613417476,1438613418010,312,410,0,0,0,5,4,1,54,0005-00-0000-63.png,0004-00-0000-77.png
00000014,897,0,1438613419119,1438613419139,478,462,0,0,0,3,2,1,32,0003-00-0001-86.png,0002-00-0000-96.png
00000014,898,1,1438613420073,1438613420097,504,452,0,0,0,4,5,1,45,0004-00-0001-63.png,0005-00-0001-27.png
00000014,899,0,1438613420957,1438613421643,924,455,0,0,0,3,4,1,34,0003-00-0000-31.png,0004-00-0001-50.png
00000014,900,1,1438613422763,1438613422791,519,449,0,0,0,1,2,1,12,0001-00-0000-61.png,0002-00-0000-40.png
00000014,901,0,1438613423731,1438613423755,503,511,0,0,0,5,4,1,54,0005-00-0000-99.png,0004-00-0001-26.png
00000014,902,0,1438613424849,1438613424861,510,446,0,0,0,4,3,1,43,0004-00-0001-35.png,0003-00-0001-71.png
00000014,903,1,1438613425854,1438613425874,504,462,0,0,0,2,3,1,23,0002-00-0000-08.png,0003-00-0000-22.png
00000014,904,0,1438613426738,1438613427381,386,509,0,0,0,2,1,1,21,0002-00-0000-25.png,0001-00-0001-58.png
00000014,905,0,1438613428219,1438613428739,328,420,0,0,0,5,4,1,54,0005-00-0000-29.png,0004-00-0000-41.png
00000014,906,1,1438613429602,1438613430060,889,419,0,0,0,3,2,1,32,0003-00-0000-86.png,0002-00-0000-41.png
00000014,907,1,1438613431015,1438613431721,295,418,0,0,0,3,4,1,34,0003-00-0000-14.png,0004-00-0000-80.png
00000014,908,1,1438613432634,1438613432658,504,474,0,0,0,1,2,1,12,0001-00-0000-34.png,0002-00-0001-32.png
00000014,909,1,1438613433657,1438613433673,508,450,0,0,0,4,5,1,45,0004-00-0000-99.png,0005-00-0001-14.png
00000014,910,1,1438613435625,1438613435641,478,436,0,0,0,2,3,1,23,0002-00-0000-44.png,0003-00-0000-27.png
00000014,911,0,1438613436670,1438613437191,391,507,0,0,0,2,1,1,21,0002-00-0000-24.png,0001-00-0001-52.png
00000014,912,0,1438613438167,1438613438769,400,425,0,0,0,4,3,1,43,0004-00-0000-08.png,0003-00-0001-87.png
00000014,913,0,1438613439647,1438613440364,926,385,0,0,0,3,4,1,34,0003-00-0000-49.png,0004-00-0001-95.png
00000014,914,1,1438613441543,1438613441593,517,460,0,0,0,1,2,1,12,0001-00-0001-03.png,0002-00-0000-50.png
00000014,915,0,1438613442437,1438613442477,504,477,0,0,0,5,4,1,54,0005-00-0001-46.png,0004-00-0000-91.png
00000014,916,0,1438613443362,1438613443386,504,400,0,0,0,2,1,1,21,0002-00-0001-41.png,0001-00-0000-95.png
00000014,917,0,1438613444215,1438613444684,376,410,0,0,0,3,2,1,32,0003-00-0000-56.png,0002-00-0000-23.png
00000014,918,0,1438613453413,1438613453871,300,423,0,0,0,4,3,1,43,0004-00-0000-35.png,0003-00-0001-72.png
00000014,919,1,1438613457971,1438613457987,511,469,0,0,0,2,3,1,23,0002-00-0001-60.png,0003-00-0001-97.png
00000014,920,0,1438613459008,1438613459733,924,399,0,0,0,4,5,1,45,0004-00-0000-69.png,0005-00-0000-16.png
00000014,921,1,1438613460886,1438613461404,332,401,0,0,0,4,5,1,45,0004-00-0001-78.png,0005-00-0000-36.png
00000014,922,1,1438613462386,1438613462494,507,563,0,0,0,3,4,1,34,0003-00-0001-48.png,0004-00-0000-07.png
00000014,923,0,1438613463907,1438613464510,419,408,0,0,0,2,1,1,21,0002-00-0000-23.png,0001-00-0000-13.png
00000014,924,1,1438613465454,1438613465482,508,409,0,0,0,2,3,1,23,0002-00-0000-87.png,0003-00-0000-74.png
00000014,925,1,1438613466473,1438613467074,904,419,0,0,0,5,4,1,54,0005-00-0000-63.png,0004-00-0000-97.png
00000014,926,1,1438613468122,1438613468734,899,482,0,0,0,3,2,1,32,0003-00-0000-95.png,0002-00-0001-89.png
00000014,927,0,1438613469661,1438613470324,366,403,0,0,0,4,3,1,43,0004-00-0001-03.png,0003-00-0001-82.png
00000014,928,1,1438613471538,1438613471586,489,469,0,0,0,1,2,1,12,0001-00-0001-30.png,0002-00-0000-36.png
00000014,929,1,1438613472987,1438613473015,504,477,0,0,0,3,4,1,34,0003-00-0000-35.png,0004-00-0001-89.png
00000014,930,0,1438613473952,1438613473992,493,498,0,0,0,4,3,1,43,0004-00-0001-29.png,0003-00-0001-78.png
00000014,931,0,1438613474822,1438613475113,478,451,0,0,0,5,4,1,54,0005-00-0001-94.png,0004-00-0001-84.png
00000014,932,0,1438613475998,1438613476671,926,371,0,0,0,1,2,1,12,0001-00-0000-01.png,0002-00-0000-07.png
00000014,933,1,1438613477837,1438613477853,503,443,0,0,0,2,3,1,23,0002-00-0000-67.png,0003-00-0000-08.png
00000014,934,0,1438613479162,1438613479722,344,421,0,0,0,2,1,1,21,0002-00-0000-49.png,0001-00-0001-45.png
00000014,935,1,1438613480797,1438613481556,913,356,0,0,0,3,2,1,32,0003-00-0000-24.png,0002-00-0000-56.png
00000014,936,1,1438613482416,1438613483027,344,434,0,0,0,4,5,1,45,0004-00-0001-55.png,0005-00-0000-20.png
00000014,937,1,1438613484069,1438613484718,935,414,0,0,0,3,2,1,32,0003-00-0001-38.png,0002-00-0000-02.png
00000014,938,1,1438613485650,1438613485674,513,462,0,0,0,1,2,1,12,0001-00-0000-98.png,0002-00-0001-51.png
00000014,939,0,1438613486743,1438613487236,350,384,0,0,0,4,3,1,43,0004-00-0000-21.png,0003-00-0001-49.png
00000014,940,1,1438613488111,1438613488628,387,507,0,0,0,2,3,1,23,0002-00-0001-18.png,0003-00-0001-49.png
00000014,941,0,1438613490292,1438613490850,878,495,0,0,0,4,5,1,45,0004-00-0000-02.png,0005-00-0001-30.png
00000014,942,0,1438613491978,1438613492577,905,420,0,0,0,3,4,1,34,0003-00-0000-01.png,0004-00-0001-09.png
