subject_id,trial,correct_response,stim_time,response_time,x_coord,y_coord,trial_timeout,timeout_time,interTrial_timeout,left_rank,right_rank,distance,joint_rank,left_image,right_image
00000009,1,1,1441294493171,1441294493585,1117,408,0,0,0,4,3,1,43,0004-00-0001-26.png,0003-00-0004-50.png
00000009,2,0,1441294495622,1441294496178,959,327,0,0,0,3,4,1,34,0003-00-0007-83.png,0004-00-0000-37.png
00000009,3,0,1441294499031,1441294499043,939,368,0,0,0,2,3,1,23,0002-00-0005-56.png,0003-00-0005-69.png
00000009,4,0,1441294502080,1441294502108,990,373,0,0,0,1,2,1,12,0001-00-0004-29.png,0002-00-0005-68.png
00000009,5,1,1441294505343,1441294505926,976,384,0,0,0,2,1,1,21,0002-00-0003-59.png,0001-00-0000-88.png
00000009,6,0,1441294506981,1441294507005,874,379,0,0,0,4,5,1,45,0004-00-0005-90.png,0005-00-0000-51.png
00000009,7,1,1441294510202,1441294510799,1135,285,0,0,0,3,2,1,32,0003-00-0006-69.png,0002-00-0006-94.png
00000009,8,1,1441294511709,1441294511837,1016,472,0,0,0,5,4,1,54,0005-00-0001-94.png,0004-00-0009-81.png
00000009,9,1,1441294513105,1441294513173,944,391,0,0,0,2,1,1,21,0002-00-0009-66.png,0001-00-0003-67.png
00000009,10,0,1441294514734,1441294514806,931,392,0,0,0,4,5,1,45,0004-00-0007-76.png,0005-00-0008-45.png
00000009,11,1,1441294517833,1441294518381,964,316,0,0,0,5,4,1,54,0005-00-0005-42.png,0004-00-0008-54.png
00000009,12,0,1441294519209,1441294519367,985,490,0,0,0,1,2,1,12,0001-00-0008-35.png,0002-00-0001-76.png
00000009,13,0,1441294522382,1441294523131,290,346,0,0,0,4,3,1,43,0004-00-0009-18.png,0003-00-0004-93.png
00000009,14,0,1441294526091,1441294526155,862,481,0,0,0,2,3,1,23,0002-00-0007-46.png,0003-00-0008-56.png
00000009,15,0,1441294529160,1441294529703,990,316,0,0,0,3,4,1,34,0003-00-0005-25.png,0004-00-0009-78.png
00000009,16,1,1441294532966,1441294533006,866,308,0,0,0,3,2,1,32,0003-00-0005-34.png,0002-00-0001-26.png
00000009,17,0,1441294534081,1441294534137,939,424,0,0,0,1,2,1,12,0001-00-0000-10.png,0002-00-0002-45.png
00000009,18,0,1441294537350,1441294537354,888,320,0,0,0,4,5,1,45,0004-00-0006-20.png,0005-00-0000-58.png
00000009,19,0,1441294540542,1441294540594,866,299,0,0,0,2,3,1,23,0002-00-0000-51.png,0003-00-0000-41.png
00000009,20,1,1441294543858,1441294543906,942,305,0,0,0,2,1,1,21,0002-00-0000-78.png,0001-00-0001-85.png
00000009,21,0,1441294544939,1441294545015,1021,451,0,0,0,3,4,1,34,0003-00-0000-41.png,0004-00-0003-24.png
00000009,22,0,1441294548149,1441294548865,475,221,0,0,0,5,4,1,54,0005-00-0001-56.png,0004-00-0002-45.png
00000009,23,1,1441294552112,1441294552655,1118,306,0,0,0,4,3,1,43,0004-00-0002-56.png,0003-00-0005-77.png
00000009,24,1,1441294553608,1441294553676,942,466,0,0,0,3,2,1,32,0003-00-0001-90.png,0002-00-0008-91.png
00000009,25,0,1441294555045,1441294555077,897,410,0,0,0,4,5,1,45,0004-00-0001-72.png,0005-00-0005-99.png
00000009,26,1,1441294559002,1441294559606,939,344,0,0,0,3,2,1,32,0003-00-0001-94.png,0002-00-0007-57.png
00000009,27,0,1441294560499,1441294560551,964,398,0,0,0,2,3,1,23,0002-00-0008-29.png,0003-00-0008-85.png
00000009,28,0,1441294563693,1441294564188,939,370,0,0,0,3,4,1,34,0003-00-0006-64.png,0004-00-0009-78.png
00000009,29,1,1441294567352,1441294567449,955,299,0,0,0,4,3,1,43,0004-00-0004-31.png,0003-00-0002-40.png
00000009,30,1,1441294568453,1441294568532,945,425,0,0,0,5,4,1,54,0005-00-0009-24.png,0004-00-0004-05.png
00000009,31,1,1441294569921,1441294569961,888,419,0,0,0,2,1,1,21,0002-00-0005-58.png,0001-00-0005-68.png
00000009,32,0,1441294571660,1441294571688,896,410,0,0,0,1,2,1,12,0001-00-0004-03.png,0002-00-0002-80.png
00000009,33,1,1441294574731,1441294575346,467,241,0,0,0,1,2,1,12,0001-00-0006-16.png,0002-00-0009-02.png
00000009,34,1,1441294576355,1441294576407,937,409,0,0,0,2,1,1,21,0002-00-0000-09.png,0001-00-0008-22.png
00000009,35,0,1441294577577,1441294577625,894,438,0,0,0,4,5,1,45,0004-00-0004-49.png,0005-00-0008-52.png
00000009,36,1,1441294580725,1441294581269,323,396,0,0,0,2,3,1,23,0002-00-0005-17.png,0003-00-0000-91.png
00000009,37,1,1441294582207,1441294582267,888,462,0,0,0,5,4,1,54,0005-00-0005-81.png,0004-00-0006-85.png
00000009,38,0,1441294583575,1441294583647,913,427,0,0,0,3,4,1,34,0003-00-0008-88.png,0004-00-0009-77.png
00000009,39,1,1441294586666,1441294586774,955,283,0,0,0,4,3,1,43,0004-00-0000-08.png,0003-00-0007-43.png
00000009,40,1,1441294587800,1441294587858,958,419,0,0,0,3,2,1,32,0003-00-0006-72.png,0002-00-0001-84.png
00000009,41,1,1441294589032,1441294589112,878,436,0,0,0,5,4,1,54,0005-00-0008-67.png,0004-00-0003-18.png
00000009,42,1,1441294590360,1441294591274,360,403,0,0,0,4,5,1,45,0004-00-0000-03.png,0005-00-0006-20.png
00000009,43,1,1441294592243,1441294592291,876,421,0,0,0,3,2,1,32,0003-00-0009-69.png,0002-00-0008-21.png
00000009,44,0,1441294593590,1441294593678,870,436,0,0,0,1,2,1,12,0001-00-0000-16.png,0002-00-0004-88.png
00000009,45,1,1441294596765,1441294597363,312,353,0,0,0,3,4,1,34,0003-00-0002-49.png,0004-00-0009-43.png
00000009,46,0,1441294598221,1441294598399,958,417,0,0,0,2,3,1,23,0002-00-0009-15.png,0003-00-0007-51.png
00000009,47,1,1441294601400,1441294601459,890,399,0,0,0,2,1,1,21,0002-00-0002-35.png,0001-00-0002-89.png
00000009,48,1,1441294602345,1441294602434,884,440,0,0,0,4,3,1,43,0004-00-0001-29.png,0003-00-0001-28.png
00000009,49,1,1441294603578,1441294603654,903,416,0,0,0,2,1,1,21,0002-00-0004-59.png,0001-00-0007-59.png
00000009,50,0,1441294604918,1441294604998,921,429,0,0,0,2,3,1,23,0002-00-0001-13.png,0003-00-0007-33.png
00000009,51,1,1441294608112,1441294608640,924,303,0,0,0,5,4,1,54,0005-00-0006-80.png,0004-00-0001-70.png
00000009,52,1,1441294610110,1441294610224,905,383,0,0,0,4,3,1,43,0004-00-0001-66.png,0003-00-0005-60.png
00000009,53,1,1441294611388,1441294611984,919,481,0,0,0,3,2,1,32,0003-00-0004-06.png,0002-00-0003-46.png
00000009,54,0,1441294612961,1441294613009,866,402,0,0,0,4,5,1,45,0004-00-0008-00.png,0005-00-0005-54.png
00000009,55,0,1441294616150,1441294616414,950,361,0,0,0,1,2,1,12,0001-00-0006-83.png,0002-00-0002-85.png
00000009,56,0,1441294619429,1441294620023,905,331,0,0,0,3,4,1,34,0003-00-0007-40.png,0004-00-0001-96.png
00000009,57,0,1441294623222,1441294623721,886,338,0,0,0,1,2,1,12,0001-00-0004-66.png,0002-00-0007-36.png
00000009,58,0,1441294626853,1441294627412,943,321,0,0,0,3,4,1,34,0003-00-0003-66.png,0004-00-0004-48.png
00000009,59,1,1441294630565,1441294631152,958,343,0,0,0,5,4,1,54,0005-00-0007-85.png,0004-00-0001-92.png
00000009,60,1,1441294632077,1441294632206,939,462,0,0,0,2,1,1,21,0002-00-0003-92.png,0001-00-0000-36.png
00000009,61,1,1441294633419,1441294633530,913,425,0,0,0,3,2,1,32,0003-00-0009-12.png,0002-00-0004-45.png
00000009,62,1,1441294634713,1441294634745,889,386,0,0,0,4,3,1,43,0004-00-0000-30.png,0003-00-0005-75.png
00000009,63,0,1441294636675,1441294636717,913,384,0,0,0,4,5,1,45,0004-00-0006-13.png,0005-00-0005-52.png
00000009,64,1,1441294639940,1441294640632,350,391,0,0,0,2,3,1,23,0002-00-0003-47.png,0003-00-0006-02.png
00000009,65,1,1441294641465,1441294641569,862,424,0,0,0,3,2,1,32,0003-00-0004-31.png,0002-00-0008-11.png
00000009,66,0,1441294642791,1441294642851,862,423,0,0,0,1,2,1,12,0001-00-0008-27.png,0002-00-0006-96.png
00000009,67,0,1441294645951,1441294646510,437,257,0,0,0,2,1,1,21,0002-00-0003-84.png,0001-00-0006-74.png
00000009,68,0,1441294649422,1441294650025,1041,253,0,0,0,2,3,1,23,0002-00-0009-23.png,0003-00-0002-94.png
00000009,69,0,1441294653159,1441294653752,454,256,0,0,0,5,4,1,54,0005-00-0001-59.png,0004-00-0005-35.png
00000009,70,0,1441294656692,1441294657240,961,312,0,0,0,3,4,1,34,0003-00-0003-93.png,0004-00-0007-47.png
00000009,71,0,1441294660411,1441294661056,404,284,0,0,0,4,3,1,43,0004-00-0008-20.png,0003-00-0004-39.png
00000009,72,0,1441294663938,1441294664598,939,306,0,0,0,4,5,1,45,0004-00-0009-31.png,0005-00-0001-35.png
00000009,73,1,1441294667743,1441294668341,425,294,0,0,0,4,5,1,45,0004-00-0007-87.png,0005-00-0001-76.png
00000009,74,0,1441294669274,1441294669322,913,421,0,0,0,2,3,1,23,0002-00-0009-90.png,0003-00-0004-06.png
00000009,75,0,1441294672466,1441294672490,873,303,0,0,0,3,4,1,34,0003-00-0009-34.png,0004-00-0005-82.png
00000009,76,1,1441294675665,1441294676546,376,291,0,0,0,1,2,1,12,0001-00-0001-00.png,0002-00-0008-00.png
00000009,77,1,1441294677472,1441294677532,924,436,0,0,0,4,3,1,43,0004-00-0003-45.png,0003-00-0000-31.png
00000009,78,1,1441294678804,1441294678864,919,426,0,0,0,5,4,1,54,0005-00-0004-73.png,0004-00-0005-47.png
00000009,79,1,1441294679985,1441294681282,924,368,0,0,0,3,2,1,32,0003-00-0001-41.png,0002-00-0002-36.png
00000009,80,1,1441294683073,1441294683161,913,384,0,0,0,2,1,1,21,0002-00-0008-06.png,0001-00-0004-16.png
00000009,81,0,1441294686019,1441294686677,939,400,0,0,0,3,4,1,34,0003-00-0007-06.png,0004-00-0001-77.png
00000009,82,1,1441294690163,1441294690812,475,265,0,0,0,4,5,1,45,0004-00-0009-52.png,0005-00-0001-28.png
00000009,83,0,1441294691713,1441294691805,946,402,0,0,0,1,2,1,12,0001-00-0009-58.png,0002-00-0003-33.png
00000009,84,0,1441294694822,1441294695474,347,362,0,0,0,2,1,1,21,0002-00-0005-33.png,0001-00-0005-84.png
00000009,85,1,1441294698677,1441294698725,1021,310,0,0,0,3,2,1,32,0003-00-0002-86.png,0002-00-0002-26.png
00000009,86,1,1441294699591,1441294699848,913,446,0,0,0,5,4,1,54,0005-00-0009-76.png,0004-00-0006-08.png
00000009,87,0,1441294700995,1441294701110,930,443,0,0,0,2,3,1,23,0002-00-0004-05.png,0003-00-0005-96.png
00000009,88,1,1441294704255,1441294704303,1020,307,0,0,0,4,3,1,43,0004-00-0004-60.png,0003-00-0003-82.png
00000009,89,1,1441294705247,1441294705340,928,410,0,0,0,2,1,1,21,0002-00-0006-34.png,0001-00-0004-87.png
00000009,90,1,1441294706519,1441294706595,913,449,0,0,0,3,2,1,32,0003-00-0005-37.png,0002-00-0002-72.png
00000009,91,0,1441294707772,1441294707828,888,426,0,0,0,3,4,1,34,0003-00-0006-56.png,0004-00-0000-76.png
00000009,92,0,1441294710813,1441294710821,990,488,0,0,0,2,3,1,23,0002-00-0004-67.png,0003-00-0000-62.png
00000009,93,0,1441294713944,1441294714518,508,248,0,0,0,4,3,1,43,0004-00-0003-18.png,0003-00-0006-21.png
00000009,94,1,1441294717508,1441294718399,334,352,0,0,0,1,2,1,12,0001-00-0003-89.png,0002-00-0006-23.png
00000009,95,1,1441294719306,1441294719418,913,436,0,0,0,5,4,1,54,0005-00-0009-61.png,0004-00-0003-68.png
00000009,96,1,1441294720509,1441294721903,356,370,0,0,0,4,5,1,45,0004-00-0005-16.png,0005-00-0002-23.png
00000009,97,1,1441294722819,1441294722895,922,429,0,0,0,2,1,1,21,0002-00-0003-27.png,0001-00-0001-69.png
00000009,98,0,1441294723941,1441294725139,913,345,0,0,0,1,2,1,12,0001-00-0007-27.png,0002-00-0009-76.png
00000009,99,0,1441294728030,1441294728729,1041,279,0,0,0,4,5,1,45,0004-00-0002-19.png,0005-00-0001-48.png
00000009,100,1,1441294731585,1441294732217,429,279,0,0,0,2,3,1,23,0002-00-0009-67.png,0003-00-0005-09.png
00000009,101,1,1441294733128,1441294733208,888,427,0,0,0,3,2,1,32,0003-00-0009-19.png,0002-00-0008-37.png
00000009,102,0,1441294734411,1441294734471,862,462,0,0,0,3,4,1,34,0003-00-0001-75.png,0004-00-0006-90.png
00000009,103,1,1441294737633,1441294737806,862,410,0,0,0,4,3,1,43,0004-00-0000-09.png,0003-00-0005-15.png
00000009,104,1,1441294738665,1441294738773,924,436,0,0,0,5,4,1,54,0005-00-0007-74.png,0004-00-0007-35.png
00000009,105,0,1441294742514,1441294743242,947,379,0,0,0,3,4,1,34,0003-00-0005-53.png,0004-00-0006-22.png
00000009,106,1,1441294746113,1441294746795,460,255,0,0,0,4,5,1,45,0004-00-0000-36.png,0005-00-0004-38.png
00000009,107,1,1441294747637,1441294747717,888,447,0,0,0,4,3,1,43,0004-00-0003-65.png,0003-00-0000-88.png
00000009,108,0,1441294748819,1441294748883,895,455,0,0,0,2,3,1,23,0002-00-0006-28.png,0003-00-0006-00.png
00000009,109,0,1441294752093,1441294752129,859,303,0,0,0,1,2,1,12,0001-00-0001-36.png,0002-00-0004-09.png
00000009,110,1,1441294755319,1441294755363,865,302,0,0,0,5,4,1,54,0005-00-0009-92.png,0004-00-0001-09.png
00000009,111,1,1441294756234,1441294756352,897,429,0,0,0,2,1,1,21,0002-00-0002-55.png,0001-00-0008-03.png
00000009,112,1,1441294757419,1441294757487,888,422,0,0,0,3,2,1,32,0003-00-0008-60.png,0002-00-0009-25.png
00000009,113,1,1441294758609,1441294758645,924,444,0,0,0,5,4,1,54,0005-00-0009-20.png,0004-00-0008-67.png
00000009,114,0,1441294759899,1441294759951,882,419,0,0,0,2,3,1,23,0002-00-0007-74.png,0003-00-0003-94.png
00000009,115,0,1441294762993,1441294763125,990,269,0,0,0,1,2,1,12,0001-00-0000-29.png,0002-00-0007-50.png
00000009,116,1,1441294766173,1441294766988,331,363,0,0,0,3,4,1,34,0003-00-0000-61.png,0004-00-0005-72.png
00000009,117,0,1441294767861,1441294767949,871,410,0,0,0,4,5,1,45,0004-00-0000-22.png,0005-00-0009-18.png
00000009,118,1,1441294771022,1441294771853,1045,279,0,0,0,2,1,1,21,0002-00-0003-00.png,0001-00-0008-36.png
00000009,119,1,1441294773745,1441294774352,997,325,0,0,0,4,3,1,43,0004-00-0001-22.png,0003-00-0006-48.png
00000009,120,1,1441294775171,1441294775235,917,408,0,0,0,3,2,1,32,0003-00-0007-57.png,0002-00-0001-63.png
00000009,121,0,1441294776158,1441294776255,888,448,0,0,0,1,2,1,12,0001-00-0009-64.png,0002-00-0005-61.png
00000009,122,0,1441294779351,1441294779929,354,366,0,0,0,5,4,1,54,0005-00-0003-58.png,0004-00-0004-99.png
00000009,123,1,1441294782823,1441294782856,891,451,0,0,0,4,3,1,43,0004-00-0008-71.png,0003-00-0005-62.png
00000009,124,1,1441294783761,1441294783885,913,448,0,0,0,3,2,1,32,0003-00-0002-46.png,0002-00-0008-30.png
00000009,125,0,1441294784942,1441294785030,862,476,0,0,0,3,4,1,34,0003-00-0006-88.png,0004-00-0009-00.png
00000009,126,1,1441294788204,1441294788846,450,256,0,0,0,2,3,1,23,0002-00-0005-56.png,0003-00-0009-19.png
00000009,127,0,1441294790476,1441294790556,912,361,0,0,0,4,5,1,45,0004-00-0008-19.png,0005-00-0000-07.png
00000009,128,1,1441294793679,1441294794511,914,327,0,0,0,2,1,1,21,0002-00-0003-46.png,0001-00-0004-77.png
00000009,129,1,1441294796478,1441294797149,1063,279,0,0,0,3,2,1,32,0003-00-0004-91.png,0002-00-0000-74.png
00000009,130,1,1441294798018,1441294798075,888,462,0,0,0,5,4,1,54,0005-00-0009-79.png,0004-00-0004-70.png
00000009,131,0,1441294799162,1441294799214,862,421,0,0,0,4,5,1,45,0004-00-0002-94.png,0005-00-0006-53.png
00000009,132,1,1441294802355,1441294802391,938,332,0,0,0,2,1,1,21,0002-00-0009-59.png,0001-00-0001-17.png
00000009,133,0,1441294803369,1441294803445,928,472,0,0,0,2,3,1,23,0002-00-0002-56.png,0003-00-0006-41.png
00000009,134,0,1441294806479,1441294806515,885,386,0,0,0,3,4,1,34,0003-00-0003-67.png,0004-00-0002-42.png
00000009,135,0,1441294809637,1441294810264,1064,278,0,0,0,1,2,1,12,0001-00-0006-15.png,0002-00-0006-80.png
00000009,136,0,1441294813102,1441294813727,358,372,0,0,0,4,3,1,43,0004-00-0007-87.png,0003-00-0003-31.png
00000009,137,1,1441294816623,1441294816643,913,384,0,0,0,5,4,1,54,0005-00-0007-08.png,0004-00-0006-96.png
00000009,138,1,1441294817596,1441294817794,939,447,0,0,0,2,1,1,21,0002-00-0009-52.png,0001-00-0000-17.png
00000009,139,1,1441294818899,1441294819000,894,451,0,0,0,4,3,1,43,0004-00-0008-07.png,0003-00-0000-70.png
00000009,140,0,1441294820219,1441294820288,898,462,0,0,0,3,4,1,34,0003-00-0002-75.png,0004-00-0001-39.png
00000009,141,1,1441294823440,1441294824167,374,400,0,0,0,1,2,1,12,0001-00-0004-67.png,0002-00-0003-05.png
00000009,142,0,1441294825018,1441294825090,939,410,0,0,0,2,3,1,23,0002-00-0000-92.png,0003-00-0009-67.png
00000009,143,1,1441294828060,1441294828645,939,399,0,0,0,3,2,1,32,0003-00-0004-93.png,0002-00-0006-00.png
00000009,144,0,1441294829490,1441294829562,939,414,0,0,0,4,5,1,45,0004-00-0001-75.png,0005-00-0006-46.png
00000009,145,1,1441294832514,1441294833130,426,267,0,0,0,3,4,1,34,0003-00-0000-74.png,0004-00-0005-46.png
00000009,146,1,1441294833991,1441294834079,920,426,0,0,0,4,3,1,43,0004-00-0000-68.png,0003-00-0003-08.png
00000009,147,1,1441294835374,1441294835465,888,450,0,0,0,3,2,1,32,0003-00-0002-15.png,0002-00-0002-72.png
00000009,148,0,1441294836469,1441294837252,939,541,0,0,0,2,3,1,23,0002-00-0008-14.png,0003-00-0004-18.png
00000009,149,0,1441294840282,1441294841036,455,273,0,0,0,5,4,1,54,0005-00-0004-82.png,0004-00-0003-27.png
00000009,150,1,1441294844208,1441294844236,902,351,0,0,0,2,1,1,21,0002-00-0008-73.png,0001-00-0008-28.png
00000009,151,0,1441294845102,1441294845193,906,469,0,0,0,4,5,1,45,0004-00-0008-06.png,0005-00-0007-64.png
00000009,152,1,1441294848372,1441294848969,427,253,0,0,0,1,2,1,12,0001-00-0008-12.png,0002-00-0006-14.png
00000009,153,1,1441294850703,1441294851252,935,351,0,0,0,3,2,1,32,0003-00-0002-30.png,0002-00-0004-07.png
00000009,154,0,1441294852726,1441294852853,913,399,0,0,0,4,5,1,45,0004-00-0002-71.png,0005-00-0002-50.png
00000009,155,0,1441294855935,1441294856063,1050,309,0,0,0,1,2,1,12,0001-00-0006-89.png,0002-00-0007-70.png
00000009,156,0,1441294859293,1441294859401,1029,275,0,0,0,3,4,1,34,0003-00-0006-78.png,0004-00-0002-39.png
00000009,157,0,1441294862540,1441294862628,862,444,0,0,0,2,3,1,23,0002-00-0006-16.png,0003-00-0007-05.png
00000009,158,1,1441294865670,1441294865698,907,355,0,0,0,5,4,1,54,0005-00-0003-76.png,0004-00-0009-82.png
00000009,159,1,1441294866552,1441294866643,887,389,0,0,0,4,3,1,43,0004-00-0003-39.png,0003-00-0001-62.png
00000009,160,1,1441294867649,1441294867756,888,425,0,0,0,2,1,1,21,0002-00-0008-79.png,0001-00-0003-89.png
00000009,161,1,1441294868882,1441294868965,884,452,0,0,0,3,2,1,32,0003-00-0007-62.png,0002-00-0007-93.png
00000009,162,1,1441294870182,1441294870230,862,446,0,0,0,2,1,1,21,0002-00-0001-27.png,0001-00-0008-89.png
00000009,163,0,1441294871346,1441294871410,881,419,0,0,0,4,5,1,45,0004-00-0005-11.png,0005-00-0009-62.png
00000009,164,1,1441294875412,1441294876103,462,253,0,0,0,3,4,1,34,0003-00-0000-39.png,0004-00-0003-32.png
00000009,165,0,1441294877010,1441294877157,913,452,0,0,0,1,2,1,12,0001-00-0001-39.png,0002-00-0002-28.png
00000009,166,0,1441294880299,1441294880893,990,398,0,0,0,2,3,1,23,0002-00-0009-51.png,0003-00-0005-33.png
00000009,167,0,1441294883967,1441294884622,426,305,0,0,0,4,3,1,43,0004-00-0005-45.png,0003-00-0007-65.png
00000009,168,1,1441294887760,1441294887812,983,359,0,0,0,5,4,1,54,0005-00-0004-39.png,0004-00-0008-09.png
00000009,169,0,1441294888654,1441294888810,939,436,0,0,0,2,3,1,23,0002-00-0009-69.png,0003-00-0005-88.png
00000009,170,0,1441294891855,1441294892443,434,280,0,0,0,2,1,1,21,0002-00-0009-06.png,0001-00-0007-28.png
00000009,171,1,1441294895512,1441294896082,913,322,0,0,0,3,2,1,32,0003-00-0008-87.png,0002-00-0009-13.png
00000009,172,0,1441294897682,1441294898375,440,287,0,0,0,5,4,1,54,0005-00-0009-49.png,0004-00-0005-03.png
00000009,173,0,1441294901610,1441294902290,458,248,0,0,0,4,3,1,43,0004-00-0002-61.png,0003-00-0001-39.png
00000009,174,0,1441294905521,1441294906113,905,328,0,0,0,3,4,1,34,0003-00-0002-33.png,0004-00-0008-67.png
00000009,175,1,1441294908930,1441294909614,355,342,0,0,0,1,2,1,12,0001-00-0002-77.png,0002-00-0005-69.png
00000009,176,0,1441294910478,1441294910594,931,443,0,0,0,4,5,1,45,0004-00-0008-73.png,0005-00-0004-51.png
00000009,177,0,1441294913661,1441294914217,912,330,0,0,0,1,2,1,12,0001-00-0004-43.png,0002-00-0000-78.png
00000009,178,1,1441294917385,1441294917944,938,337,0,0,0,2,1,1,21,0002-00-0003-79.png,0001-00-0005-64.png
00000009,179,1,1441294918776,1441294918848,927,436,0,0,0,4,3,1,43,0004-00-0007-70.png,0003-00-0002-78.png
00000009,180,0,1441294919920,1441294919988,888,449,0,0,0,4,5,1,45,0004-00-0009-24.png,0005-00-0003-88.png
00000009,181,1,1441294923495,1441294924231,946,403,0,0,0,3,2,1,32,0003-00-0009-47.png,0002-00-0007-15.png
00000009,182,0,1441294925713,1441294925946,964,419,0,0,0,3,4,1,34,0003-00-0003-10.png,0004-00-0008-70.png
00000009,183,1,1441294931132,1441294931814,959,314,0,0,0,5,4,1,54,0005-00-0003-81.png,0004-00-0004-68.png
00000009,184,0,1441294933398,1441294933623,964,384,0,0,0,2,3,1,23,0002-00-0004-15.png,0003-00-0005-64.png
00000009,185,0,1441294937870,1441294938436,915,350,0,0,0,3,4,1,34,0003-00-0002-34.png,0004-00-0005-21.png
00000009,186,0,1441294941428,1441294941436,481,466,0,0,0,3,2,1,32,0003-00-0008-24.png,0002-00-0007-39.png
00000009,187,0,1441294944627,1441294945240,1102,293,0,0,0,2,3,1,23,0002-00-0003-00.png,0003-00-0007-86.png
00000009,188,1,1441294948404,1441294948975,919,324,0,0,0,2,1,1,21,0002-00-0008-66.png,0001-00-0004-14.png
00000009,189,0,1441294950491,1441294950696,947,384,0,0,0,1,2,1,12,0001-00-0006-05.png,0002-00-0008-09.png
00000009,190,1,1441294953784,1441294954709,913,321,0,0,0,5,4,1,54,0005-00-0007-58.png,0004-00-0009-21.png
00000009,191,0,1441294956215,1441294956287,914,380,0,0,0,4,5,1,45,0004-00-0009-22.png,0005-00-0004-20.png
00000009,192,1,1441294959433,1441294960246,910,275,0,0,0,4,3,1,43,0004-00-0008-28.png,0003-00-0008-92.png
00000009,193,1,1441294961094,1441294962365,328,377,0,0,0,4,5,1,45,0004-00-0007-82.png,0005-00-0009-61.png
00000009,194,0,1441294963299,1441294963464,939,498,0,0,0,2,3,1,23,0002-00-0005-63.png,0003-00-0008-84.png
00000009,195,1,1441294966887,1441294967384,934,328,0,0,0,3,2,1,32,0003-00-0001-65.png,0002-00-0001-16.png
00000009,196,0,1441294968733,1441294968798,917,355,0,0,0,3,4,1,34,0003-00-0003-99.png,0004-00-0007-24.png
00000009,197,1,1441294971905,1441294971941,913,364,0,0,0,2,1,1,21,0002-00-0002-76.png,0001-00-0000-79.png
00000009,198,1,1441294972868,1441294972964,964,449,0,0,0,4,3,1,43,0004-00-0007-75.png,0003-00-0006-53.png
00000009,199,1,1441294973887,1441294973923,923,462,0,0,0,5,4,1,54,0005-00-0000-90.png,0004-00-0003-05.png
00000009,200,0,1441294975104,1441294975184,930,444,0,0,0,1,2,1,12,0001-00-0007-22.png,0002-00-0007-08.png
00000009,201,0,1441294978246,1441294978933,459,250,0,0,0,4,3,1,43,0004-00-0005-63.png,0003-00-0003-07.png
00000009,202,1,1441294982094,1441294982940,453,218,0,0,0,2,3,1,23,0002-00-0009-70.png,0003-00-0002-57.png
00000009,203,0,1441294983921,1441294984029,964,498,0,0,0,3,4,1,34,0003-00-0004-77.png,0004-00-0003-25.png
00000009,204,0,1441294987199,1441294987881,1096,286,0,0,0,1,2,1,12,0001-00-0004-68.png,0002-00-0006-14.png
00000009,205,1,1441294990985,1441294991729,1091,304,0,0,0,3,2,1,32,0003-00-0007-34.png,0002-00-0001-66.png
00000009,206,1,1441294993151,1441294993239,941,382,0,0,0,5,4,1,54,0005-00-0008-14.png,0004-00-0003-56.png
00000009,207,1,1441294994351,1441294994450,969,463,0,0,0,2,1,1,21,0002-00-0000-22.png,0001-00-0004-10.png
00000009,208,0,1441294995466,1441294995592,913,436,0,0,0,4,5,1,45,0004-00-0004-96.png,0005-00-0005-81.png
00000009,209,0,1441294998505,1441294999168,1046,303,0,0,0,1,2,1,12,0001-00-0001-68.png,0002-00-0002-93.png
00000009,210,0,1441295002314,1441295002954,354,373,0,0,0,2,1,1,21,0002-00-0002-40.png,0001-00-0000-53.png
00000009,211,0,1441295006069,1441295006193,1007,266,0,0,0,4,5,1,45,0004-00-0006-49.png,0005-00-0007-69.png
00000009,212,1,1441295009278,1441295009886,904,332,0,0,0,5,4,1,54,0005-00-0006-65.png,0004-00-0002-61.png
00000009,213,1,1441295010730,1441295011040,1016,558,0,0,0,3,2,1,32,0003-00-0009-01.png,0002-00-0004-13.png
00000009,214,1,1441295012239,1441295012336,975,462,0,0,0,4,3,1,43,0004-00-0009-91.png,0003-00-0006-59.png
00000009,215,0,1441295013532,1441295013690,951,462,0,0,0,3,4,1,34,0003-00-0002-92.png,0004-00-0006-71.png
00000009,216,0,1441295016742,1441295016758,888,420,0,0,0,2,3,1,23,0002-00-0002-36.png,0003-00-0001-14.png
00000009,217,1,1441295019731,1441295020363,938,328,0,0,0,5,4,1,54,0005-00-0001-19.png,0004-00-0005-93.png
00000009,218,1,1441295021929,1441295022139,956,399,0,0,0,3,2,1,32,0003-00-0003-88.png,0002-00-0000-12.png
00000009,219,1,1441295023495,1441295023595,964,448,0,0,0,4,3,1,43,0004-00-0005-63.png,0003-00-0004-46.png
00000009,220,0,1441295024594,1441295024678,939,452,0,0,0,1,2,1,12,0001-00-0008-65.png,0002-00-0000-94.png
00000009,221,1,1441295027625,1441295028437,1067,279,0,0,0,2,1,1,21,0002-00-0009-96.png,0001-00-0005-04.png
00000009,222,0,1441295029890,1441295030045,954,410,0,0,0,3,4,1,34,0003-00-0001-76.png,0004-00-0002-46.png
00000009,223,1,1441295033080,1441295033817,464,270,0,0,0,4,5,1,45,0004-00-0006-58.png,0005-00-0005-24.png
00000009,224,0,1441295034746,1441295034794,956,488,0,0,0,2,3,1,23,0002-00-0007-59.png,0003-00-0003-58.png
00000009,225,0,1441295037768,1441295037800,913,488,0,0,0,2,3,1,23,0002-00-0000-36.png,0003-00-0002-82.png
00000009,226,0,1441295040969,1441295041041,904,297,0,0,0,1,2,1,12,0001-00-0003-05.png,0002-00-0000-89.png
00000009,227,0,1441295044268,1441295044940,455,269,0,0,0,5,4,1,54,0005-00-0000-99.png,0004-00-0006-04.png
00000009,228,1,1441295048115,1441295048301,862,332,0,0,0,2,1,1,21,0002-00-0009-40.png,0001-00-0006-82.png
00000009,229,1,1441295049199,1441295049428,977,435,0,0,0,3,2,1,32,0003-00-0007-35.png,0002-00-0005-32.png
00000009,230,0,1441295050526,1441295050608,950,436,0,0,0,4,5,1,45,0004-00-0000-93.png,0005-00-0009-91.png
00000009,231,0,1441295053870,1441295054581,516,221,0,0,0,4,3,1,43,0004-00-0001-61.png,0003-00-0001-59.png
00000009,232,0,1441295057684,1441295058200,944,336,0,0,0,3,4,1,34,0003-00-0007-98.png,0004-00-0002-50.png
00000009,233,0,1441295061063,1441295061643,1090,277,0,0,0,2,3,1,23,0002-00-0001-73.png,0003-00-0004-84.png
00000009,234,1,1441295064909,1441295065454,938,337,0,0,0,3,2,1,32,0003-00-0000-65.png,0002-00-0009-90.png
00000009,235,0,1441295067008,1441295067251,964,419,0,0,0,1,2,1,12,0001-00-0007-20.png,0002-00-0008-21.png
00000009,236,1,1441295070357,1441295070957,1083,304,0,0,0,2,1,1,21,0002-00-0000-39.png,0001-00-0008-44.png
00000009,237,1,1441295072371,1441295072671,926,410,0,0,0,4,3,1,43,0004-00-0000-02.png,0003-00-0006-94.png
00000009,238,0,1441295074071,1441295074119,949,410,0,0,0,3,4,1,34,0003-00-0009-30.png,0004-00-0009-34.png
00000009,239,1,1441295077282,1441295078029,937,325,0,0,0,5,4,1,54,0005-00-0004-15.png,0004-00-0003-80.png
00000009,240,1,1441295078947,1441295080646,435,252,0,0,0,4,5,1,45,0004-00-0002-31.png,0005-00-0005-25.png
00000009,241,1,1441295081642,1441295081734,954,462,0,0,0,3,2,1,32,0003-00-0009-24.png,0002-00-0006-78.png
00000009,242,0,1441295082794,1441295082867,904,436,0,0,0,2,3,1,23,0002-00-0000-40.png,0003-00-0005-13.png
00000009,243,0,1441295086354,1441295086957,964,395,0,0,0,1,2,1,12,0001-00-0009-51.png,0002-00-0007-91.png
00000009,244,0,1441295089993,1441295090585,492,262,0,0,0,4,3,1,43,0004-00-0004-13.png,0003-00-0008-96.png
00000009,245,0,1441295094086,1441295094764,467,273,0,0,0,5,4,1,54,0005-00-0006-53.png,0004-00-0009-79.png
00000009,246,0,1441295097852,1441295098443,954,350,0,0,0,3,4,1,34,0003-00-0008-17.png,0004-00-0001-87.png
00000009,247,0,1441295101522,1441295102195,361,365,0,0,0,2,1,1,21,0002-00-0002-94.png,0001-00-0000-32.png
00000009,248,1,1441295105026,1441295106074,332,360,0,0,0,4,5,1,45,0004-00-0004-41.png,0005-00-0002-98.png
00000009,249,1,1441295107066,1441295107154,945,505,0,0,0,4,3,1,43,0004-00-0009-50.png,0003-00-0009-79.png
00000009,250,1,1441295108654,1441295109544,370,343,0,0,0,1,2,1,12,0001-00-0000-72.png,0002-00-0007-00.png
00000009,251,1,1441295110662,1441295111836,1044,263,0,0,0,5,4,1,54,0005-00-0009-82.png,0004-00-0008-06.png
00000009,252,1,1441295112770,1441295112846,929,436,0,0,0,3,2,1,32,0003-00-0007-36.png,0002-00-0009-77.png
00000009,253,0,1441295113850,1441295113890,913,436,0,0,0,4,5,1,45,0004-00-0009-09.png,0005-00-0005-41.png
00000009,254,0,1441295117003,1441295117189,888,436,0,0,0,2,3,1,23,0002-00-0009-68.png,0003-00-0009-43.png
00000009,255,1,1441295120272,1441295120846,1121,304,0,0,0,2,1,1,21,0002-00-0003-33.png,0001-00-0003-14.png
00000009,256,0,1441295122427,1441295122557,930,410,0,0,0,3,4,1,34,0003-00-0005-14.png,0004-00-0004-55.png
00000009,257,0,1441295125739,1441295126473,350,371,0,0,0,2,1,1,21,0002-00-0008-58.png,0001-00-0000-90.png
00000009,258,0,1441295129672,1441295130264,949,327,0,0,0,3,4,1,34,0003-00-0009-05.png,0004-00-0008-93.png
00000009,259,0,1441295133550,1441295134493,1105,279,0,0,0,2,3,1,23,0002-00-0004-66.png,0003-00-0002-71.png
00000009,260,1,1441295137632,1441295138341,937,331,0,0,0,4,3,1,43,0004-00-0003-90.png,0003-00-0001-81.png
00000009,261,0,1441295139202,1441295139289,990,426,0,0,0,4,5,1,45,0004-00-0005-28.png,0005-00-0008-74.png
00000009,262,0,1441295142663,1441295143298,1067,279,0,0,0,1,2,1,12,0001-00-0005-23.png,0002-00-0006-37.png
00000009,263,1,1441295146467,1441295147087,1064,301,0,0,0,5,4,1,54,0005-00-0007-57.png,0004-00-0008-09.png
00000009,264,1,1441295148493,1441295148624,947,403,0,0,0,3,2,1,32,0003-00-0003-00.png,0002-00-0009-96.png
00000009,265,1,1441295149705,1441295149789,918,444,0,0,0,3,2,1,32,0003-00-0000-19.png,0002-00-0006-03.png
00000009,266,0,1441295150999,1441295151079,928,443,0,0,0,2,3,1,23,0002-00-0002-12.png,0003-00-0000-92.png
00000009,267,0,1441295154606,1441295155395,956,328,0,0,0,4,5,1,45,0004-00-0002-69.png,0005-00-0005-81.png
00000009,268,1,1441295158600,1441295159249,480,255,0,0,0,1,2,1,12,0001-00-0001-63.png,0002-00-0000-32.png
00000009,269,1,1441295160175,1441295160287,939,498,0,0,0,4,3,1,43,0004-00-0008-42.png,0003-00-0005-38.png
00000009,270,1,1441295161352,1441295161420,888,448,0,0,0,2,1,1,21,0002-00-0004-24.png,0001-00-0006-83.png
00000009,271,1,1441295162495,1441295162578,906,469,0,0,0,5,4,1,54,0005-00-0004-98.png,0004-00-0005-90.png
00000009,272,0,1441295163808,1441295163856,892,473,0,0,0,3,4,1,34,0003-00-0005-02.png,0004-00-0006-06.png
00000009,273,0,1441295167000,1441295167028,959,353,0,0,0,2,3,1,23,0002-00-0003-85.png,0003-00-0009-27.png
00000009,274,1,1441295170123,1441295170763,916,337,0,0,0,5,4,1,54,0005-00-0000-45.png,0004-00-0002-14.png
00000009,275,1,1441295172242,1441295172417,939,401,0,0,0,2,1,1,21,0002-00-0001-77.png,0001-00-0007-63.png
00000009,276,0,1441295173546,1441295173606,913,436,0,0,0,1,2,1,12,0001-00-0008-19.png,0002-00-0002-86.png
00000009,277,0,1441295176745,1441295177384,339,372,0,0,0,4,3,1,43,0004-00-0007-58.png,0003-00-0005-37.png
00000009,278,1,1441295180273,1441295181265,467,256,0,0,0,4,5,1,45,0004-00-0005-82.png,0005-00-0001-63.png
00000009,279,0,1441295182107,1441295182179,888,436,0,0,0,3,4,1,34,0003-00-0005-76.png,0004-00-0004-97.png
00000009,280,1,1441295185394,1441295185973,939,328,0,0,0,3,2,1,32,0003-00-0005-48.png,0002-00-0006-31.png
00000009,281,0,1441295187487,1441295187626,939,384,0,0,0,4,5,1,45,0004-00-0008-35.png,0005-00-0001-65.png
00000009,282,0,1441295191174,1441295191813,1087,282,0,0,0,3,4,1,34,0003-00-0001-96.png,0004-00-0003-50.png
00000009,283,1,1441295194983,1441295195585,1042,302,0,0,0,3,2,1,32,0003-00-0003-85.png,0002-00-0007-20.png
00000009,284,0,1441295196987,1441295197234,969,384,0,0,0,1,2,1,12,0001-00-0009-54.png,0002-00-0006-93.png
00000009,285,1,1441295200309,1441295201044,912,335,0,0,0,4,3,1,43,0004-00-0006-94.png,0003-00-0002-77.png
00000009,286,1,1441295202481,1441295202640,940,383,0,0,0,5,4,1,54,0005-00-0005-51.png,0004-00-0004-57.png
00000009,287,0,1441295203993,1441295204077,960,436,0,0,0,2,3,1,23,0002-00-0006-07.png,0003-00-0002-28.png
00000009,288,1,1441295207057,1441295207708,1089,255,0,0,0,2,1,1,21,0002-00-0009-24.png,0001-00-0006-65.png
00000009,289,1,1441295208550,1441295208626,998,410,0,0,0,2,1,1,21,0002-00-0007-11.png,0001-00-0009-76.png
00000009,290,1,1441295209478,1441295209558,902,436,0,0,0,5,4,1,54,0005-00-0009-13.png,0004-00-0006-01.png
00000009,291,0,1441295210849,1441295210881,913,462,0,0,0,1,2,1,12,0001-00-0008-75.png,0002-00-0003-69.png
00000009,292,1,1441295213710,1441295214337,946,325,0,0,0,3,2,1,32,0003-00-0001-83.png,0002-00-0004-66.png
00000009,293,0,1441295215748,1441295215867,937,395,0,0,0,2,3,1,23,0002-00-0001-16.png,0003-00-0007-46.png
00000009,294,0,1441295218941,1441295218957,911,355,0,0,0,3,4,1,34,0003-00-0001-53.png,0004-00-0009-18.png
00000009,295,0,1441295221946,1441295222847,349,345,0,0,0,4,3,1,43,0004-00-0005-08.png,0003-00-0001-94.png
00000009,296,0,1441295226381,1441295226945,1042,281,0,0,0,4,5,1,45,0004-00-0008-91.png,0005-00-0009-89.png
00000009,297,0,1441295230037,1441295230615,965,331,0,0,0,1,2,1,12,0001-00-0009-05.png,0002-00-0008-85.png
00000009,298,1,1441295233746,1441295234379,1143,279,0,0,0,3,2,1,32,0003-00-0003-59.png,0002-00-0002-31.png
00000009,299,1,1441295235215,1441295235432,964,453,0,0,0,2,1,1,21,0002-00-0001-77.png,0001-00-0003-59.png
00000009,300,1,1441295236657,1441295236705,913,397,0,0,0,5,4,1,54,0005-00-0007-97.png,0004-00-0003-19.png
00000009,301,0,1441295237989,1441295238081,929,436,0,0,0,2,3,1,23,0002-00-0004-93.png,0003-00-0002-47.png
00000009,302,0,1441295241221,1441295241939,453,264,0,0,0,4,3,1,43,0004-00-0007-15.png,0003-00-0003-55.png
00000009,303,0,1441295245117,1441295245648,922,350,0,0,0,4,5,1,45,0004-00-0001-04.png,0005-00-0001-62.png
00000009,304,1,1441295248873,1441295249646,390,341,0,0,0,3,4,1,34,0003-00-0006-17.png,0004-00-0000-18.png
00000009,305,1,1441295250620,1441295250648,888,376,0,0,0,5,4,1,54,0005-00-0003-93.png,0004-00-0006-41.png
00000009,306,1,1441295251874,1441295251939,901,427,0,0,0,3,2,1,32,0003-00-0000-83.png,0002-00-0003-13.png
00000009,307,0,1441295253122,1441295253225,906,442,0,0,0,3,4,1,34,0003-00-0003-84.png,0004-00-0003-02.png
00000009,308,1,1441295256431,1441295256579,880,407,0,0,0,4,3,1,43,0004-00-0004-88.png,0003-00-0000-11.png
00000009,309,0,1441295257490,1441295257610,903,436,0,0,0,1,2,1,12,0001-00-0008-98.png,0002-00-0008-53.png
00000009,310,0,1441295260497,1441295260557,996,411,0,0,0,2,3,1,23,0002-00-0002-77.png,0003-00-0004-38.png
00000009,311,0,1441295263824,1441295264507,350,377,0,0,0,2,1,1,21,0002-00-0000-24.png,0001-00-0004-13.png
00000009,312,1,1441295267433,1441295268542,430,254,0,0,0,4,5,1,45,0004-00-0006-39.png,0005-00-0007-89.png
00000009,313,1,1441295269401,1441295269548,913,462,0,0,0,5,4,1,54,0005-00-0008-77.png,0004-00-0006-33.png
00000009,314,0,1441295270933,1441295271111,939,436,0,0,0,4,5,1,45,0004-00-0008-80.png,0005-00-0008-00.png
00000009,315,0,1441295274421,1441295274985,436,273,0,0,0,4,3,1,43,0004-00-0007-59.png,0003-00-0002-78.png
00000009,316,0,1441295278125,1441295278841,968,330,0,0,0,3,4,1,34,0003-00-0009-18.png,0004-00-0003-37.png
00000009,317,0,1441295282368,1441295282392,887,330,0,0,0,2,3,1,23,0002-00-0009-49.png,0003-00-0000-92.png
00000009,318,1,1441295285629,1441295286327,939,401,0,0,0,3,2,1,32,0003-00-0002-46.png,0002-00-0008-23.png
00000009,319,1,1441295287148,1441295287492,997,482,0,0,0,2,1,1,21,0002-00-0008-72.png,0001-00-0000-27.png
00000009,320,0,1441295288680,1441295288835,925,462,0,0,0,1,2,1,12,0001-00-0005-58.png,0002-00-0000-46.png
00000009,321,1,1441295291897,1441295292505,374,335,0,0,0,4,5,1,45,0004-00-0009-93.png,0005-00-0005-51.png
00000009,322,0,1441295293403,1441295293487,930,462,0,0,0,1,2,1,12,0001-00-0001-61.png,0002-00-0007-18.png
00000009,323,0,1441295296586,1441295297283,357,393,0,0,0,4,3,1,43,0004-00-0003-95.png,0003-00-0000-23.png
00000009,324,0,1441295300444,1441295300484,1013,358,0,0,0,2,3,1,23,0002-00-0002-48.png,0003-00-0002-29.png
00000009,325,1,1441295303458,1441295303534,972,409,0,0,0,2,1,1,21,0002-00-0002-37.png,0001-00-0008-15.png
00000009,326,0,1441295304518,1441295304626,964,426,0,0,0,3,4,1,34,0003-00-0002-23.png,0004-00-0002-48.png
00000009,327,1,1441295307601,1441295307669,904,394,0,0,0,5,4,1,54,0005-00-0000-09.png,0004-00-0009-20.png
00000009,328,1,1441295308533,1441295308641,939,436,0,0,0,3,2,1,32,0003-00-0009-66.png,0002-00-0002-37.png
00000009,329,0,1441295309893,1441295309981,882,454,0,0,0,2,3,1,23,0002-00-0008-70.png,0003-00-0002-25.png
00000009,330,1,1441295312907,1441295313625,444,247,0,0,0,4,5,1,45,0004-00-0001-72.png,0005-00-0007-69.png
00000009,331,1,1441295314535,1441295314615,939,462,0,0,0,4,3,1,43,0004-00-0000-96.png,0003-00-0003-45.png
00000009,332,0,1441295315766,1441295315838,888,462,0,0,0,3,4,1,34,0003-00-0006-17.png,0004-00-0001-59.png
00000009,333,0,1441295318780,1441295319450,454,241,0,0,0,5,4,1,54,0005-00-0000-84.png,0004-00-0000-36.png
00000009,334,1,1441295322626,1441295322654,976,334,0,0,0,2,1,1,21,0002-00-0004-43.png,0001-00-0006-34.png
00000009,335,1,1441295323601,1441295323705,919,507,0,0,0,3,2,1,32,0003-00-0007-70.png,0002-00-0005-96.png
00000009,336,0,1441295324701,1441295324769,888,473,0,0,0,1,2,1,12,0001-00-0002-97.png,0002-00-0003-39.png
00000009,337,1,1441295327618,1441295327654,910,407,0,0,0,3,2,1,32,0003-00-0008-69.png,0002-00-0001-46.png
00000009,338,0,1441295328766,1441295328852,964,410,0,0,0,3,4,1,34,0003-00-0007-38.png,0004-00-0001-25.png
00000009,339,0,1441295332412,1441295333117,942,333,0,0,0,1,2,1,12,0001-00-0005-56.png,0002-00-0002-25.png
00000009,340,0,1441295336268,1441295337028,919,346,0,0,0,2,3,1,23,0002-00-0007-73.png,0003-00-0009-22.png
00000009,341,0,1441295340255,1441295340259,861,296,0,0,0,4,5,1,45,0004-00-0004-23.png,0005-00-0000-18.png
00000009,342,1,1441295343366,1441295344059,969,374,0,0,0,4,3,1,43,0004-00-0005-47.png,0003-00-0002-47.png
00000009,343,1,1441295345006,1441295345078,964,401,0,0,0,2,1,1,21,0002-00-0008-48.png,0001-00-0004-10.png
00000009,344,1,1441295346154,1441295346238,862,448,0,0,0,5,4,1,54,0005-00-0006-43.png,0004-00-0009-61.png
00000009,345,0,1441295347605,1441295347751,888,447,0,0,0,2,3,1,23,0002-00-0004-15.png,0003-00-0009-29.png
00000009,346,1,1441295350839,1441295350867,862,384,0,0,0,4,3,1,43,0004-00-0007-11.png,0003-00-0001-42.png
00000009,347,1,1441295351903,1441295352010,939,446,0,0,0,2,1,1,21,0002-00-0008-80.png,0001-00-0007-19.png
00000009,348,0,1441295353102,1441295353177,879,462,0,0,0,3,4,1,34,0003-00-0005-90.png,0004-00-0003-10.png
00000009,349,0,1441295356095,1441295356115,862,368,0,0,0,4,5,1,45,0004-00-0008-20.png,0005-00-0007-88.png
00000009,350,1,1441295359254,1441295359282,978,331,0,0,0,5,4,1,54,0005-00-0001-30.png,0004-00-0004-17.png
00000009,351,0,1441295360157,1441295360265,939,450,0,0,0,1,2,1,12,0001-00-0001-60.png,0002-00-0005-73.png
00000009,352,1,1441295363337,1441295363944,937,342,0,0,0,3,2,1,32,0003-00-0005-08.png,0002-00-0004-47.png
00000009,353,0,1441295365462,1441295365624,934,403,0,0,0,4,5,1,45,0004-00-0002-47.png,0005-00-0007-65.png
00000009,354,1,1441295368547,1441295368567,518,452,0,0,0,2,3,1,23,0002-00-0007-26.png,0003-00-0008-79.png
00000009,355,1,1441295369409,1441295369605,951,462,0,0,0,2,1,1,21,0002-00-0009-27.png,0001-00-0009-75.png
00000009,356,0,1441295370807,1441295371024,928,488,0,0,0,1,2,1,12,0001-00-0009-89.png,0002-00-0003-58.png
00000009,357,1,1441295374042,1441295374676,1051,279,0,0,0,3,2,1,32,0003-00-0007-62.png,0002-00-0001-45.png
00000009,358,1,1441295376136,1441295376456,952,438,0,0,0,4,3,1,43,0004-00-0001-04.png,0003-00-0006-50.png
00000009,359,1,1441295377823,1441295377887,922,462,0,0,0,5,4,1,54,0005-00-0000-79.png,0004-00-0008-97.png
00000009,360,0,1441295379157,1441295379255,907,469,0,0,0,3,4,1,34,0003-00-0003-49.png,0004-00-0003-95.png
00000009,361,0,1441295382139,1441295382147,862,384,0,0,0,3,4,1,34,0003-00-0005-85.png,0004-00-0002-72.png
00000009,362,0,1441295385310,1441295385885,1092,263,0,0,0,2,3,1,23,0002-00-0001-32.png,0003-00-0003-38.png
00000009,363,0,1441295388936,1441295389491,1067,295,0,0,0,1,2,1,12,0001-00-0008-34.png,0002-00-0005-08.png
00000009,364,0,1441295392663,1441295393256,349,375,0,0,0,4,3,1,43,0004-00-0008-80.png,0003-00-0000-81.png
00000009,365,1,1441295396310,1441295396346,912,382,0,0,0,3,2,1,32,0003-00-0000-73.png,0002-00-0001-28.png
00000009,366,0,1441295397325,1441295397400,939,421,0,0,0,4,5,1,45,0004-00-0001-26.png,0005-00-0001-19.png
00000009,367,0,1441295400573,1441295401144,445,248,0,0,0,2,1,1,21,0002-00-0002-48.png,0001-00-0005-45.png
00000009,368,1,1441295404316,1441295404958,911,353,0,0,0,5,4,1,54,0005-00-0008-18.png,0004-00-0007-86.png
00000009,369,1,1441295405792,1441295405848,918,463,0,0,0,5,4,1,54,0005-00-0000-81.png,0004-00-0000-61.png
00000009,370,1,1441295407267,1441295407371,920,453,0,0,0,3,2,1,32,0003-00-0007-84.png,0002-00-0008-81.png
00000009,371,1,1441295408624,1441295408704,904,462,0,0,0,4,3,1,43,0004-00-0000-65.png,0003-00-0001-72.png
00000009,372,1,1441295410052,1441295410127,904,462,0,0,0,2,1,1,21,0002-00-0000-39.png,0001-00-0002-94.png
00000009,373,0,1441295411624,1441295411689,905,481,0,0,0,3,4,1,34,0003-00-0002-60.png,0004-00-0004-55.png
00000009,374,1,1441295414885,1441295415531,473,272,0,0,0,4,5,1,45,0004-00-0004-52.png,0005-00-0006-00.png
00000009,375,0,1441295416390,1441295416482,921,480,0,0,0,1,2,1,12,0001-00-0008-02.png,0002-00-0003-77.png
00000009,376,0,1441295419623,1441295419679,965,326,0,0,0,2,3,1,23,0002-00-0007-93.png,0003-00-0009-11.png
00000009,377,1,1441295422832,1441295422844,915,378,0,0,0,4,3,1,43,0004-00-0003-92.png,0003-00-0004-15.png
00000009,378,1,1441295423835,1441295423879,947,428,0,0,0,2,1,1,21,0002-00-0001-10.png,0001-00-0008-59.png
00000009,379,0,1441295424926,1441295425012,905,470,0,0,0,4,5,1,45,0004-00-0000-41.png,0005-00-0003-09.png
00000009,380,1,1441295428178,1441295428977,486,245,0,0,0,1,2,1,12,0001-00-0005-51.png,0002-00-0009-76.png
00000009,381,1,1441295430522,1441295430641,972,405,0,0,0,5,4,1,54,0005-00-0009-79.png,0004-00-0003-04.png
00000009,382,1,1441295431864,1441295431932,924,445,0,0,0,3,2,1,32,0003-00-0009-98.png,0002-00-0002-70.png
00000009,383,0,1441295433145,1441295433157,917,441,0,0,0,3,4,1,34,0003-00-0008-53.png,0004-00-0008-58.png
00000009,384,0,1441295436307,1441295436347,928,337,0,0,0,2,3,1,23,0002-00-0008-12.png,0003-00-0006-67.png
00000009,385,1,1441295439249,1441295439277,905,412,0,0,0,2,1,1,21,0002-00-0008-34.png,0001-00-0005-43.png
00000009,386,1,1441295440120,1441295440223,913,462,0,0,0,3,2,1,32,0003-00-0009-71.png,0002-00-0009-64.png
00000009,387,1,1441295441623,1441295441683,903,462,0,0,0,4,3,1,43,0004-00-0006-64.png,0003-00-0001-83.png
00000009,388,0,1441295442742,1441295442802,888,460,0,0,0,3,4,1,34,0003-00-0003-85.png,0004-00-0008-09.png
00000009,389,0,1441295445846,1441295445894,927,378,0,0,0,1,2,1,12,0001-00-0000-51.png,0002-00-0004-23.png
00000009,390,0,1441295449097,1441295449117,943,306,0,0,0,2,3,1,23,0002-00-0005-00.png,0003-00-0001-55.png
00000009,391,1,1441295452108,1441295452208,869,406,0,0,0,5,4,1,54,0005-00-0006-18.png,0004-00-0000-90.png
00000009,392,0,1441295453048,1441295453191,929,436,0,0,0,4,5,1,45,0004-00-0001-78.png,0005-00-0001-36.png
00000009,393,1,1441295456348,1441295456370,947,333,0,0,0,4,3,1,43,0004-00-0007-05.png,0003-00-0001-84.png
00000009,394,0,1441295457292,1441295457324,938,461,0,0,0,3,4,1,34,0003-00-0007-30.png,0004-00-0009-75.png
00000009,395,0,1441295460562,1441295461324,464,259,0,0,0,3,2,1,32,0003-00-0001-73.png,0002-00-0005-71.png
00000009,396,1,1441295464199,1441295464816,461,294,0,0,0,1,2,1,12,0001-00-0008-51.png,0002-00-0004-76.png
00000009,397,1,1441295465739,1441295465803,929,436,0,0,0,5,4,1,54,0005-00-0007-46.png,0004-00-0009-76.png
00000009,398,1,1441295467149,1441295467223,913,462,0,0,0,2,1,1,21,0002-00-0005-61.png,0001-00-0002-20.png
00000009,399,0,1441295468768,1441295468871,913,436,0,0,0,4,5,1,45,0004-00-0002-07.png,0005-00-0006-82.png
00000009,400,1,1441295471963,1441295472555,456,282,0,0,0,2,3,1,23,0002-00-0004-80.png,0003-00-0006-83.png
00000009,401,1,1441295473441,1441295473481,913,410,0,0,0,3,2,1,32,0003-00-0008-85.png,0002-00-0001-91.png
00000009,402,0,1441295474701,1441295474753,883,441,0,0,0,3,4,1,34,0003-00-0005-59.png,0004-00-0003-54.png
00000009,403,0,1441295478094,1441295478668,500,248,0,0,0,4,3,1,43,0004-00-0007-63.png,0003-00-0008-98.png
00000009,404,0,1441295481522,1441295481602,865,401,0,0,0,1,2,1,12,0001-00-0008-55.png,0002-00-0001-75.png
00000009,405,0,1441295484751,1441295484799,935,341,0,0,0,4,5,1,45,0004-00-0006-21.png,0005-00-0005-58.png
00000009,406,1,1441295487941,1441295488808,940,302,0,0,0,5,4,1,54,0005-00-0000-98.png,0004-00-0006-29.png
00000009,407,1,1441295489633,1441295489880,964,478,0,0,0,2,1,1,21,0002-00-0002-77.png,0001-00-0003-56.png
00000009,408,0,1441295491031,1441295491158,932,447,0,0,0,2,3,1,23,0002-00-0008-80.png,0003-00-0004-19.png
00000009,409,0,1441295494175,1441295494937,1062,280,0,0,0,3,4,1,34,0003-00-0004-87.png,0004-00-0000-27.png
00000009,410,1,1441295498039,1441295498067,913,358,0,0,0,5,4,1,54,0005-00-0006-55.png,0004-00-0005-46.png
00000009,411,1,1441295498901,1441295498996,913,436,0,0,0,4,3,1,43,0004-00-0000-02.png,0003-00-0002-86.png
00000009,412,0,1441295500223,1441295501664,1012,261,0,0,0,1,2,1,12,0001-00-0008-72.png,0002-00-0006-98.png
00000009,413,0,1441295504494,1441295505410,408,289,0,0,0,2,1,1,21,0002-00-0003-83.png,0001-00-0006-73.png
00000009,414,0,1441295508434,1441295509149,966,321,0,0,0,2,3,1,23,0002-00-0005-65.png,0003-00-0007-49.png
00000009,415,0,1441295512055,1441295512127,886,411,0,0,0,4,5,1,45,0004-00-0007-70.png,0005-00-0009-86.png
00000009,416,1,1441295515331,1441295516029,975,303,0,0,0,3,2,1,32,0003-00-0009-47.png,0002-00-0003-40.png
00000009,417,1,1441295516898,1441295518216,914,342,0,0,0,4,3,1,43,0004-00-0009-31.png,0003-00-0003-72.png
00000009,418,0,1441295519137,1441295519213,1001,436,0,0,0,1,2,1,12,0001-00-0005-70.png,0002-00-0007-76.png
00000009,419,0,1441295522139,1441295522171,863,440,0,0,0,2,3,1,23,0002-00-0004-64.png,0003-00-0006-77.png
00000009,420,1,1441295525368,1441295526305,951,325,0,0,0,2,1,1,21,0002-00-0005-04.png,0001-00-0001-09.png
00000009,421,1,1441295527676,1441295527859,957,390,0,0,0,3,2,1,32,0003-00-0004-58.png,0002-00-0000-05.png
00000009,422,0,1441295529022,1441295529042,913,432,0,0,0,4,5,1,45,0004-00-0001-45.png,0005-00-0008-62.png
00000009,423,1,1441295532224,1441295533275,1077,250,0,0,0,5,4,1,54,0005-00-0008-69.png,0004-00-0003-44.png
00000009,424,0,1441295534757,1441295534817,950,384,0,0,0,3,4,1,34,0003-00-0004-28.png,0004-00-0000-64.png
00000009,425,1,1441295537959,1441295538748,932,334,0,0,0,2,1,1,21,0002-00-0004-63.png,0001-00-0001-00.png
00000009,426,0,1441295540110,1441295540290,945,405,0,0,0,1,2,1,12,0001-00-0003-92.png,0002-00-0006-93.png
00000009,427,1,1441295543323,1441295543946,484,249,0,0,0,2,3,1,23,0002-00-0008-79.png,0003-00-0005-38.png
00000009,428,0,1441295544843,1441295544949,939,454,0,0,0,3,4,1,34,0003-00-0009-90.png,0004-00-0000-06.png
00000009,429,1,1441295548051,1441295548099,959,351,0,0,0,5,4,1,54,0005-00-0007-09.png,0004-00-0001-37.png
00000009,430,1,1441295548933,1441295549022,885,445,0,0,0,3,2,1,32,0003-00-0006-33.png,0002-00-0008-11.png
00000009,431,1,1441295550187,1441295550247,885,447,0,0,0,4,3,1,43,0004-00-0007-32.png,0003-00-0004-45.png
00000009,432,0,1441295551338,1441295551402,905,462,0,0,0,4,5,1,45,0004-00-0003-48.png,0005-00-0008-14.png
00000009,433,0,1441295554639,1441295555364,1050,282,0,0,0,1,2,1,12,0001-00-0002-08.png,0002-00-0000-66.png
00000009,434,1,1441295558237,1441295559809,933,313,0,0,0,4,3,1,43,0004-00-0006-35.png,0003-00-0003-34.png
00000009,435,1,1441295561286,1441295561367,940,396,0,0,0,3,2,1,32,0003-00-0003-41.png,0002-00-0004-48.png
00000009,436,0,1441295562628,1441295562724,897,462,0,0,0,4,5,1,45,0004-00-0003-99.png,0005-00-0005-47.png
00000009,437,0,1441295565860,1441295565888,890,380,0,0,0,3,4,1,34,0003-00-0007-80.png,0004-00-0000-13.png
00000009,438,0,1441295569020,1441295569048,915,352,0,0,0,2,3,1,23,0002-00-0002-14.png,0003-00-0001-19.png
00000009,439,0,1441295571908,1441295572566,456,279,0,0,0,2,1,1,21,0002-00-0006-20.png,0001-00-0004-57.png
00000009,440,1,1441295575697,1441295576274,931,337,0,0,0,5,4,1,54,0005-00-0004-84.png,0004-00-0005-40.png
00000009,441,0,1441295577763,1441295578071,939,419,0,0,0,3,4,1,34,0003-00-0000-46.png,0004-00-0004-58.png
00000009,442,1,1441295581064,1441295581107,888,364,0,0,0,2,1,1,21,0002-00-0000-78.png,0001-00-0001-63.png
00000009,443,0,1441295581998,1441295582074,913,410,0,0,0,1,2,1,12,0001-00-0009-02.png,0002-00-0003-35.png
00000009,444,1,1441295585178,1441295585210,888,358,0,0,0,4,3,1,43,0004-00-0006-21.png,0003-00-0004-21.png
00000009,445,1,1441295586073,1441295586173,913,425,0,0,0,3,2,1,32,0003-00-0005-91.png,0002-00-0007-26.png
00000009,446,1,1441295587592,1441295587769,897,487,0,0,0,5,4,1,54,0005-00-0002-15.png,0004-00-0008-53.png
00000009,447,0,1441295588949,1441295589005,880,463,0,0,0,4,5,1,45,0004-00-0001-96.png,0005-00-0000-87.png
00000009,448,1,1441295592146,1441295593035,442,231,0,0,0,2,3,1,23,0002-00-0007-00.png,0003-00-0008-37.png
00000009,449,1,1441295594544,1441295594846,979,380,0,0,0,4,3,1,43,0004-00-0009-81.png,0003-00-0009-19.png
00000009,450,0,1441295596048,1441295596148,913,447,0,0,0,4,5,1,45,0004-00-0002-09.png,0005-00-0005-12.png
00000009,451,1,1441295599151,1441295600076,327,350,0,0,0,3,4,1,34,0003-00-0004-00.png,0004-00-0009-74.png
00000009,452,1,1441295600966,1441295601046,888,449,0,0,0,2,1,1,21,0002-00-0006-67.png,0001-00-0007-09.png
00000009,453,1,1441295602131,1441295602159,859,472,0,0,0,5,4,1,54,0005-00-0001-99.png,0004-00-0006-95.png
00000009,454,1,1441295603461,1441295603521,882,445,0,0,0,3,2,1,32,0003-00-0002-40.png,0002-00-0003-09.png
00000009,455,0,1441295604703,1441295604747,874,499,0,0,0,2,3,1,23,0002-00-0008-03.png,0003-00-0003-69.png
00000009,456,0,1441295607995,1441295608003,943,328,0,0,0,1,2,1,12,0001-00-0008-66.png,0002-00-0007-42.png
00000009,457,1,1441295611122,1441295611974,1092,283,0,0,0,2,1,1,21,0002-00-0002-08.png,0001-00-0009-27.png
00000009,458,0,1441295613468,1441295613577,942,423,0,0,0,2,3,1,23,0002-00-0002-28.png,0003-00-0005-81.png
00000009,459,0,1441295616739,1441295616763,939,315,0,0,0,4,5,1,45,0004-00-0006-06.png,0005-00-0004-51.png
00000009,460,1,1441295619714,1441295620447,1092,270,0,0,0,3,2,1,32,0003-00-0005-07.png,0002-00-0007-64.png
00000009,461,1,1441295622083,1441295622115,911,364,0,0,0,4,3,1,43,0004-00-0005-09.png,0003-00-0001-09.png
00000009,462,0,1441295623345,1441295623418,888,425,0,0,0,3,4,1,34,0003-00-0003-21.png,0004-00-0000-71.png
00000009,463,1,1441295626648,1441295627398,471,236,0,0,0,1,2,1,12,0001-00-0008-93.png,0002-00-0009-24.png
00000009,464,1,1441295628892,1441295629176,929,410,0,0,0,5,4,1,54,0005-00-0004-09.png,0004-00-0008-05.png
00000009,465,0,1441295630332,1441295630405,888,421,0,0,0,2,3,1,23,0002-00-0008-22.png,0003-00-0001-53.png
00000009,466,0,1441295633572,1441295634142,1057,279,0,0,0,3,4,1,34,0003-00-0000-67.png,0004-00-0008-38.png
00000009,467,1,1441295637259,1441295637944,445,285,0,0,0,4,5,1,45,0004-00-0007-99.png,0005-00-0004-38.png
00000009,468,1,1441295638800,1441295638884,913,436,0,0,0,2,1,1,21,0002-00-0009-05.png,0001-00-0009-18.png
00000009,469,1,1441295640048,1441295640132,877,462,0,0,0,4,3,1,43,0004-00-0006-76.png,0003-00-0003-65.png
00000009,470,0,1441295641224,1441295641264,871,466,0,0,0,1,2,1,12,0001-00-0005-37.png,0002-00-0000-35.png
00000009,471,1,1441295644134,1441295644749,898,327,0,0,0,3,2,1,32,0003-00-0006-47.png,0002-00-0005-76.png
00000009,472,1,1441295646169,1441295646343,900,436,0,0,0,5,4,1,54,0005-00-0009-60.png,0004-00-0008-20.png
00000009,473,0,1441295647449,1441295647559,879,462,0,0,0,1,2,1,12,0001-00-0002-77.png,0002-00-0003-61.png
00000009,474,0,1441295650564,1441295651246,934,339,0,0,0,4,5,1,45,0004-00-0009-74.png,0005-00-0006-65.png
00000009,475,0,1441295654440,1441295654468,913,358,0,0,0,3,4,1,34,0003-00-0007-27.png,0004-00-0004-12.png
00000009,476,1,1441295657562,1441295658276,1072,280,0,0,0,3,2,1,32,0003-00-0009-48.png,0002-00-0003-67.png
00000009,477,0,1441295660601,1441295661286,477,254,0,0,0,2,1,1,21,0002-00-0008-47.png,0001-00-0002-08.png
00000009,478,1,1441295664329,1441295664405,989,380,0,0,0,5,4,1,54,0005-00-0009-99.png,0004-00-0006-75.png
00000009,479,1,1441295665845,1441295666088,955,405,0,0,0,4,3,1,43,0004-00-0009-20.png,0003-00-0007-05.png
00000009,480,0,1441295667237,1441295667309,939,452,0,0,0,2,3,1,23,0002-00-0003-27.png,0003-00-0002-11.png
00000009,481,1,1441295670241,1441295670956,918,332,0,0,0,2,1,1,21,0002-00-0003-76.png,0001-00-0003-18.png
00000009,482,1,1441295672425,1441295672518,938,405,0,0,0,5,4,1,54,0005-00-0004-81.png,0004-00-0000-35.png
00000009,483,0,1441295673745,1441295673809,888,436,0,0,0,4,5,1,45,0004-00-0005-97.png,0005-00-0004-38.png
00000009,484,1,1441295676966,1441295677603,484,243,0,0,0,1,2,1,12,0001-00-0009-98.png,0002-00-0007-11.png
00000009,485,1,1441295678528,1441295678626,903,488,0,0,0,4,3,1,43,0004-00-0005-90.png,0003-00-0004-78.png
00000009,486,1,1441295679826,1441295679901,898,436,0,0,0,3,2,1,32,0003-00-0009-42.png,0002-00-0008-94.png
00000009,487,0,1441295681070,1441295681110,902,484,0,0,0,2,3,1,23,0002-00-0004-07.png,0003-00-0001-79.png
00000009,488,0,1441295684292,1441295684989,919,332,0,0,0,3,4,1,34,0003-00-0001-27.png,0004-00-0009-97.png
00000009,489,1,1441295687929,1441295688981,415,279,0,0,0,2,3,1,23,0002-00-0000-78.png,0003-00-0005-61.png
00000009,490,0,1441295689847,1441295690755,432,268,0,0,0,2,1,1,21,0002-00-0007-11.png,0001-00-0007-87.png
00000009,491,1,1441295693919,1441295693959,958,301,0,0,0,4,3,1,43,0004-00-0005-94.png,0003-00-0002-81.png
00000009,492,1,1441295696148,1441295696768,459,237,0,0,0,3,4,1,34,0003-00-0003-83.png,0004-00-0006-26.png
00000009,493,0,1441295698171,1441295698334,955,384,0,0,0,4,5,1,45,0004-00-0002-00.png,0005-00-0006-52.png
00000009,494,1,1441295701543,1441295702175,1092,295,0,0,0,3,2,1,32,0003-00-0003-54.png,0002-00-0003-91.png
00000009,495,1,1441295703538,1441295703657,961,395,0,0,0,5,4,1,54,0005-00-0005-76.png,0004-00-0003-03.png
00000009,496,0,1441295704690,1441295704782,903,462,0,0,0,1,2,1,12,0001-00-0003-53.png,0002-00-0009-07.png
00000009,497,1,1441295707612,1441295708357,465,253,0,0,0,2,3,1,23,0002-00-0000-20.png,0003-00-0005-95.png
00000009,498,1,1441295709857,1441295709964,974,376,0,0,0,5,4,1,54,0005-00-0009-16.png,0004-00-0005-85.png
00000009,499,1,1441295711092,1441295711121,865,416,0,0,0,4,3,1,43,0004-00-0007-92.png,0003-00-0002-05.png
00000009,500,0,1441295712293,1441295712349,888,436,0,0,0,1,2,1,12,0001-00-0001-51.png,0002-00-0003-45.png
00000009,501,0,1441295715342,1441295715366,877,332,0,0,0,4,5,1,45,0004-00-0006-72.png,0005-00-0003-61.png
00000009,502,0,1441295718336,1441295718360,967,367,0,0,0,3,4,1,34,0003-00-0000-09.png,0004-00-0008-47.png
00000009,503,1,1441295721396,1441295721992,937,330,0,0,0,3,2,1,32,0003-00-0001-38.png,0002-00-0009-80.png
00000009,504,1,1441295722886,1441295723029,939,425,0,0,0,2,1,1,21,0002-00-0004-21.png,0001-00-0009-14.png
00000009,505,0,1441295724186,1441295724286,939,436,0,0,0,3,4,1,34,0003-00-0009-35.png,0004-00-0003-54.png
00000009,506,1,1441295727567,1441295728120,950,354,0,0,0,5,4,1,54,0005-00-0003-01.png,0004-00-0003-72.png
00000009,507,0,1441295729614,1441295729784,927,410,0,0,0,4,5,1,45,0004-00-0009-24.png,0005-00-0000-68.png
00000009,508,1,1441295732609,1441295733209,1042,284,0,0,0,3,2,1,32,0003-00-0001-32.png,0002-00-0007-71.png
00000009,509,0,1441295734719,1441295734897,972,384,0,0,0,1,2,1,12,0001-00-0001-14.png,0002-00-0001-42.png
00000009,510,1,1441295737733,1441295738378,453,278,0,0,0,2,3,1,23,0002-00-0007-54.png,0003-00-0000-68.png
00000009,511,1,1441295739219,1441295739263,893,395,0,0,0,2,1,1,21,0002-00-0006-11.png,0001-00-0003-74.png
00000009,512,1,1441295740592,1441295740660,924,436,0,0,0,4,3,1,43,0004-00-0000-30.png,0003-00-0006-56.png
00000009,513,0,1441295741771,1441295741816,888,410,0,0,0,2,3,1,23,0002-00-0009-17.png,0003-00-0003-77.png
00000009,514,1,1441295744650,1441295744682,884,333,0,0,0,2,1,1,21,0002-00-0006-99.png,0001-00-0000-13.png
00000009,515,1,1441295745541,1441295745613,935,415,0,0,0,3,2,1,32,0003-00-0001-61.png,0002-00-0004-61.png
00000009,516,0,1441295746443,1441295746519,913,436,0,0,0,4,5,1,45,0004-00-0004-63.png,0005-00-0008-47.png
00000009,517,0,1441295749409,1441295750307,454,235,0,0,0,4,3,1,43,0004-00-0006-09.png,0003-00-0002-70.png
00000009,518,0,1441295753541,1441295754136,1069,275,0,0,0,3,4,1,34,0003-00-0009-92.png,0004-00-0007-06.png
00000009,519,1,1441295757212,1441295757859,463,273,0,0,0,1,2,1,12,0001-00-0003-45.png,0002-00-0008-84.png
00000009,520,1,1441295759446,1441295759566,969,353,0,0,0,5,4,1,54,0005-00-0001-52.png,0004-00-0004-69.png
00000009,521,0,1441295760691,1441295760779,897,436,0,0,0,4,5,1,45,0004-00-0001-97.png,0005-00-0000-11.png
00000009,522,0,1441295763609,1441295763633,857,416,0,0,0,2,3,1,23,0002-00-0000-46.png,0003-00-0007-23.png
00000009,523,1,1441295766689,1441295767290,936,316,0,0,0,2,1,1,21,0002-00-0007-00.png,0001-00-0008-80.png
00000009,524,0,1441295768845,1441295768885,913,384,0,0,0,1,2,1,12,0001-00-0001-71.png,0002-00-0004-16.png
00000009,525,0,1441295772046,1441295772760,481,257,0,0,0,4,3,1,43,0004-00-0000-12.png,0003-00-0003-97.png
00000009,526,1,1441295775980,1441295776628,959,339,0,0,0,5,4,1,54,0005-00-0000-18.png,0004-00-0009-96.png
00000009,527,0,1441295777977,1441295778139,964,368,0,0,0,3,4,1,34,0003-00-0003-57.png,0004-00-0001-90.png
00000009,528,1,1441295781290,1441295781870,943,330,0,0,0,3,2,1,32,0003-00-0003-70.png,0002-00-0005-58.png
00000009,529,1,1441295783314,1441295783446,950,392,0,0,0,4,3,1,43,0004-00-0007-40.png,0003-00-0004-70.png
00000009,530,1,1441295784653,1441295784689,907,421,0,0,0,5,4,1,54,0005-00-0000-81.png,0004-00-0004-63.png
00000009,531,0,1441295785865,1441295785909,913,408,0,0,0,4,5,1,45,0004-00-0002-08.png,0005-00-0008-62.png
00000009,532,0,1441295788912,1441295789435,939,326,0,0,0,1,2,1,12,0001-00-0006-48.png,0002-00-0009-76.png
00000009,533,1,1441295792536,1441295793640,419,234,0,0,0,3,4,1,34,0003-00-0005-40.png,0004-00-0008-67.png
00000009,534,1,1441295794561,1441295794613,913,410,0,0,0,3,2,1,32,0003-00-0009-35.png,0002-00-0003-07.png
00000009,535,1,1441295795674,1441295795737,888,462,0,0,0,2,1,1,21,0002-00-0006-10.png,0001-00-0009-98.png
00000009,536,0,1441295796747,1441295796791,894,465,0,0,0,2,3,1,23,0002-00-0009-36.png,0003-00-0004-17.png
00000009,537,0,1441295800437,1441295801078,1092,263,0,0,0,2,3,1,23,0002-00-0008-45.png,0003-00-0005-96.png
00000009,538,1,1441295803962,1441295804680,466,279,0,0,0,4,5,1,45,0004-00-0004-50.png,0005-00-0008-83.png
00000009,539,1,1441295805542,1441295805630,939,397,0,0,0,5,4,1,54,0005-00-0006-75.png,0004-00-0002-63.png
00000009,540,1,1441295806863,1441295806963,905,442,0,0,0,2,1,1,21,0002-00-0007-82.png,0001-00-0006-12.png
00000009,541,0,1441295807996,1441295808028,918,414,0,0,0,1,2,1,12,0001-00-0009-76.png,0002-00-0003-91.png
00000009,542,0,1441295811168,1441295811725,457,257,0,0,0,3,2,1,32,0003-00-0003-83.png,0002-00-0001-84.png
00000009,543,0,1441295814597,1441295815416,430,262,0,0,0,4,3,1,43,0004-00-0003-63.png,0003-00-0007-21.png
00000009,544,0,1441295818393,1441295818445,956,383,0,0,0,3,4,1,34,0003-00-0005-91.png,0004-00-0006-44.png
00000009,545,1,1441295821653,1441295822282,453,228,0,0,0,1,2,1,12,0001-00-0008-93.png,0002-00-0004-09.png
00000009,546,1,1441295823098,1441295823220,930,436,0,0,0,2,1,1,21,0002-00-0002-51.png,0001-00-0005-07.png
00000009,547,1,1441295824164,1441295824188,888,410,0,0,0,4,3,1,43,0004-00-0003-64.png,0003-00-0007-53.png
00000009,548,0,1441295825249,1441295825289,913,422,0,0,0,4,5,1,45,0004-00-0001-06.png,0005-00-0005-38.png
00000009,549,1,1441295828170,1441295828190,919,361,0,0,0,5,4,1,54,0005-00-0003-97.png,0004-00-0000-31.png
00000009,550,0,1441295829044,1441295829172,913,426,0,0,0,3,4,1,34,0003-00-0000-54.png,0004-00-0002-23.png
00000009,551,1,1441295832044,1441295832142,893,378,0,0,0,3,2,1,32,0003-00-0009-74.png,0002-00-0005-73.png
00000009,552,0,1441295833000,1441295833101,923,462,0,0,0,2,3,1,23,0002-00-0006-39.png,0003-00-0006-58.png
00000009,553,0,1441295835938,1441295836010,868,417,0,0,0,3,4,1,34,0003-00-0001-58.png,0004-00-0001-76.png
00000009,554,1,1441295838856,1441295839564,1064,281,0,0,0,2,1,1,21,0002-00-0008-44.png,0001-00-0005-69.png
00000009,555,0,1441295840963,1441295841050,942,388,0,0,0,1,2,1,12,0001-00-0007-74.png,0002-00-0002-58.png
00000009,556,1,1441295844189,1441295844217,888,367,0,0,0,3,2,1,32,0003-00-0002-12.png,0002-00-0002-38.png
00000009,557,1,1441295845726,1441295845850,966,360,0,0,0,5,4,1,54,0005-00-0003-86.png,0004-00-0002-04.png
00000009,558,1,1441295846959,1441295847961,346,351,0,0,0,2,3,1,23,0002-00-0009-01.png,0003-00-0009-85.png
00000009,559,0,1441295848907,1441295848947,910,395,0,0,0,4,5,1,45,0004-00-0008-10.png,0005-00-0008-88.png
00000009,560,0,1441295851980,1441295852695,376,347,0,0,0,4,3,1,43,0004-00-0008-23.png,0003-00-0007-41.png
00000009,561,1,1441295855827,1441295855843,941,378,0,0,0,4,3,1,43,0004-00-0006-84.png,0003-00-0001-43.png
00000009,562,1,1441295857184,1441295857366,956,389,0,0,0,2,1,1,21,0002-00-0004-51.png,0001-00-0005-31.png
00000009,563,0,1441295858508,1441295858584,903,436,0,0,0,1,2,1,12,0001-00-0002-08.png,0002-00-0000-29.png
00000009,564,0,1441295861799,1441295861807,941,327,0,0,0,4,5,1,45,0004-00-0002-82.png,0005-00-0006-01.png
00000009,565,0,1441295864859,1441295864871,919,387,0,0,0,3,4,1,34,0003-00-0000-13.png,0004-00-0009-11.png
00000009,566,0,1441295867799,1441295868395,930,325,0,0,0,2,3,1,23,0002-00-0001-86.png,0003-00-0007-88.png
00000009,567,0,1441295871287,1441295872452,428,254,0,0,0,5,4,1,54,0005-00-0000-78.png,0004-00-0004-66.png
00000009,568,1,1441295875643,1441295876219,948,340,0,0,0,3,2,1,32,0003-00-0009-60.png,0002-00-0005-66.png
00000009,569,1,1441295877071,1441295877135,964,410,0,0,0,2,1,1,21,0002-00-0003-80.png,0001-00-0008-13.png
00000009,570,1,1441295878223,1441295878243,894,422,0,0,0,5,4,1,54,0005-00-0009-17.png,0004-00-0006-77.png
00000009,571,0,1441295879415,1441295879495,913,449,0,0,0,3,4,1,34,0003-00-0006-21.png,0004-00-0002-76.png
00000009,572,1,1441295882357,1441295882393,952,373,0,0,0,3,2,1,32,0003-00-0001-60.png,0002-00-0003-53.png
00000009,573,0,1441295883269,1441295883354,942,419,0,0,0,1,2,1,12,0001-00-0005-55.png,0002-00-0001-60.png
00000009,574,0,1441295886446,1441295886482,914,357,0,0,0,2,3,1,23,0002-00-0000-45.png,0003-00-0006-20.png
00000009,575,1,1441295889622,1441295889666,961,332,0,0,0,4,3,1,43,0004-00-0007-29.png,0003-00-0007-07.png
00000009,576,0,1441295890508,1441295890622,939,426,0,0,0,4,5,1,45,0004-00-0003-54.png,0005-00-0009-07.png
00000009,577,0,1441295893598,1441295894335,373,348,0,0,0,5,4,1,54,0005-00-0002-43.png,0004-00-0009-16.png
00000009,578,1,1441295897313,1441295897349,1037,390,0,0,0,4,3,1,43,0004-00-0007-24.png,0003-00-0008-31.png
00000009,579,0,1441295898270,1441295898338,945,440,0,0,0,2,3,1,23,0002-00-0009-11.png,0003-00-0007-51.png
00000009,580,1,1441295901558,1441295902214,439,251,0,0,0,1,2,1,12,0001-00-0008-04.png,0002-00-0004-08.png
00000009,581,0,1441295903044,1441295903156,913,448,0,0,0,3,4,1,34,0003-00-0008-47.png,0004-00-0006-39.png
00000009,582,1,1441295905997,1441295906049,861,499,0,0,0,3,2,1,32,0003-00-0000-58.png,0002-00-0006-09.png
00000009,583,1,1441295906933,1441295907005,949,433,0,0,0,2,1,1,21,0002-00-0003-70.png,0001-00-0002-73.png
00000009,584,0,1441295907818,1441295907909,904,462,0,0,0,4,5,1,45,0004-00-0008-08.png,0005-00-0003-98.png
00000009,585,0,1441295911028,1441295911056,886,385,0,0,0,2,3,1,23,0002-00-0006-01.png,0003-00-0001-00.png
00000009,586,0,1441295914227,1441295915019,963,318,0,0,0,1,2,1,12,0001-00-0007-79.png,0002-00-0009-43.png
00000009,587,1,1441295918044,1441295918876,964,303,0,0,0,2,1,1,21,0002-00-0002-76.png,0001-00-0006-90.png
00000009,588,1,1441295919716,1441295919792,939,462,0,0,0,5,4,1,54,0005-00-0000-87.png,0004-00-0009-49.png
00000009,589,0,1441295920863,1441295920907,913,410,0,0,0,4,5,1,45,0004-00-0005-27.png,0005-00-0004-24.png
00000009,590,0,1441295924095,1441295924628,1093,276,0,0,0,3,4,1,34,0003-00-0005-02.png,0004-00-0001-71.png
00000009,591,1,1441295927903,1441295928489,1092,279,0,0,0,3,2,1,32,0003-00-0008-51.png,0002-00-0001-88.png
00000009,592,0,1441295929348,1441295930319,448,265,0,0,0,4,3,1,43,0004-00-0005-91.png,0003-00-0003-46.png
00000009,593,1,1441295933472,1441295934107,967,341,0,0,0,4,3,1,43,0004-00-0002-12.png,0003-00-0004-19.png
00000009,594,0,1441295935469,1441295935675,964,410,0,0,0,4,5,1,45,0004-00-0009-44.png,0005-00-0007-88.png
00000009,595,1,1441295938802,1441295940231,1097,270,0,0,0,3,2,1,32,0003-00-0004-18.png,0002-00-0005-23.png
00000009,596,1,1441295941615,1441295942561,461,267,0,0,0,1,2,1,12,0001-00-0003-23.png,0002-00-0003-36.png
00000009,597,1,1441295943886,1441295944407,975,465,0,0,0,5,4,1,54,0005-00-0009-05.png,0004-00-0001-72.png
00000009,598,1,1441295945330,1441295946331,474,247,0,0,0,2,3,1,23,0002-00-0000-92.png,0003-00-0006-73.png
00000009,599,1,1441295948045,1441295948173,957,402,0,0,0,2,1,1,21,0002-00-0008-70.png,0001-00-0007-19.png
00000009,600,0,1441295949294,1441295949335,944,431,0,0,0,3,4,1,34,0003-00-0009-17.png,0004-00-0000-91.png
00000009,601,0,1441295952316,1441295952478,862,410,0,0,0,4,5,1,45,0004-00-0006-72.png,0005-00-0003-08.png
00000009,602,1,1441295956013,1441295956631,1068,292,0,0,0,5,4,1,54,0005-00-0009-23.png,0004-00-0005-93.png
00000009,603,0,1441295957455,1441295957530,964,428,0,0,0,3,4,1,34,0003-00-0003-48.png,0004-00-0003-63.png
00000009,604,1,1441295960624,1441295961274,914,336,0,0,0,2,1,1,21,0002-00-0000-95.png,0001-00-0006-64.png
00000009,605,0,1441295962728,1441295962836,964,384,0,0,0,1,2,1,12,0001-00-0001-94.png,0002-00-0008-75.png
00000009,606,1,1441295965967,1441295966035,932,359,0,0,0,4,3,1,43,0004-00-0004-98.png,0003-00-0002-22.png
00000009,607,1,1441295966861,1441295966979,907,480,0,0,0,3,2,1,32,0003-00-0005-04.png,0002-00-0002-01.png
00000009,608,0,1441295968252,1441295968324,913,436,0,0,0,2,3,1,23,0002-00-0005-18.png,0003-00-0004-81.png
00000009,609,0,1441295971543,1441295971563,938,374,0,0,0,1,2,1,12,0001-00-0007-07.png,0002-00-0009-66.png
00000009,610,0,1441295974445,1441295975007,1063,279,0,0,0,4,5,1,45,0004-00-0008-14.png,0005-00-0009-72.png
00000009,611,0,1441295979145,1441295979765,456,272,0,0,0,2,1,1,21,0002-00-0000-72.png,0001-00-0009-19.png
00000009,612,1,1441295982793,1441295982809,887,408,0,0,0,5,4,1,54,0005-00-0008-29.png,0004-00-0007-80.png
00000009,613,1,1441295983784,1441295983879,964,375,0,0,0,4,3,1,43,0004-00-0003-16.png,0003-00-0008-35.png
00000009,614,1,1441295984914,1441295984986,918,434,0,0,0,3,2,1,32,0003-00-0001-66.png,0002-00-0002-97.png
00000009,615,0,1441295986198,1441295986238,909,417,0,0,0,2,3,1,23,0002-00-0003-46.png,0003-00-0003-66.png
00000009,616,0,1441295989399,1441295989451,894,344,0,0,0,3,4,1,34,0003-00-0002-30.png,0004-00-0005-15.png
00000009,617,1,1441295992401,1441295992966,1065,299,0,0,0,5,4,1,54,0005-00-0002-27.png,0004-00-0003-32.png
00000009,618,1,1441295993809,1441295993857,939,424,0,0,0,2,1,1,21,0002-00-0000-78.png,0001-00-0008-81.png
00000009,619,0,1441295995001,1441295995072,922,462,0,0,0,4,5,1,45,0004-00-0009-77.png,0005-00-0002-57.png
00000009,620,0,1441295998075,1441295998659,1067,278,0,0,0,1,2,1,12,0001-00-0004-18.png,0002-00-0005-93.png
00000009,621,0,1441296001820,1441296002556,485,239,0,0,0,4,3,1,43,0004-00-0000-63.png,0003-00-0004-68.png
00000009,622,0,1441296005687,1441296005699,890,379,0,0,0,2,3,1,23,0002-00-0005-96.png,0003-00-0004-56.png
00000009,623,1,1441296008857,1441296009405,1091,302,0,0,0,3,2,1,32,0003-00-0004-55.png,0002-00-0003-50.png
00000009,624,0,1441296010992,1441296011092,939,410,0,0,0,3,4,1,34,0003-00-0002-69.png,0004-00-0003-48.png
00000009,625,1,1441296014055,1441296014654,466,254,0,0,0,1,2,1,12,0001-00-0003-23.png,0002-00-0007-87.png
00000009,626,0,1441296015513,1441296015640,939,454,0,0,0,3,4,1,34,0003-00-0009-04.png,0004-00-0002-17.png
00000009,627,1,1441296018776,1441296018836,932,348,0,0,0,2,1,1,21,0002-00-0009-07.png,0001-00-0005-08.png
00000009,628,0,1441296020391,1441296020541,964,422,0,0,0,2,3,1,23,0002-00-0003-03.png,0003-00-0005-94.png
00000009,629,1,1441296024082,1441296024785,453,265,0,0,0,4,5,1,45,0004-00-0008-35.png,0005-00-0006-62.png
00000009,630,1,1441296025660,1441296025753,939,436,0,0,0,4,3,1,43,0004-00-0008-56.png,0003-00-0009-15.png
00000009,631,1,1441296026862,1441296026922,881,445,0,0,0,3,2,1,32,0003-00-0000-10.png,0002-00-0004-13.png
00000009,632,1,1441296028115,1441296028155,888,461,0,0,0,5,4,1,54,0005-00-0002-47.png,0004-00-0002-50.png
00000009,633,1,1441296029407,1441296029498,902,462,0,0,0,4,3,1,43,0004-00-0007-27.png,0003-00-0001-04.png
00000009,634,0,1441296030787,1441296030851,932,472,0,0,0,3,4,1,34,0003-00-0004-14.png,0004-00-0005-82.png
00000009,635,0,1441296034435,1441296034467,897,331,0,0,0,4,5,1,45,0004-00-0009-36.png,0005-00-0009-58.png
00000009,636,1,1441296037507,1441296038169,1091,288,0,0,0,3,2,1,32,0003-00-0003-64.png,0002-00-0009-18.png
00000009,637,1,1441296039582,1441296039720,981,384,0,0,0,2,1,1,21,0002-00-0002-77.png,0001-00-0003-93.png
00000009,638,0,1441296040836,1441296040892,898,438,0,0,0,1,2,1,12,0001-00-0006-51.png,0002-00-0003-44.png
00000009,639,1,1441296043820,1441296044699,428,274,0,0,0,2,3,1,23,0002-00-0002-92.png,0003-00-0000-47.png
00000009,640,1,1441296045534,1441296045657,928,436,0,0,0,5,4,1,54,0005-00-0004-12.png,0004-00-0002-10.png
00000009,641,0,1441296046688,1441296047468,913,556,0,0,0,3,4,1,34,0003-00-0008-02.png,0004-00-0009-82.png
00000009,642,0,1441296050644,1441296050692,962,364,0,0,0,4,5,1,45,0004-00-0006-83.png,0005-00-0000-70.png
00000009,643,1,1441296053754,1441296054410,1092,291,0,0,0,5,4,1,54,0005-00-0000-43.png,0004-00-0001-80.png
00000009,644,0,1441296055951,1441296056079,982,395,0,0,0,2,3,1,23,0002-00-0002-20.png,0003-00-0005-97.png
00000009,645,1,1441296059022,1441296059636,1070,276,0,0,0,3,2,1,32,0003-00-0006-44.png,0002-00-0004-38.png
00000009,646,0,1441296061065,1441296061141,951,397,0,0,0,1,2,1,12,0001-00-0008-21.png,0002-00-0006-86.png
00000009,647,1,1441296064178,1441296064881,933,314,0,0,0,2,1,1,21,0002-00-0007-80.png,0001-00-0006-80.png
00000009,648,1,1441296066226,1441296066274,939,384,0,0,0,4,3,1,43,0004-00-0005-62.png,0003-00-0007-84.png
00000009,649,1,1441296067365,1441296067397,885,417,0,0,0,2,1,1,21,0002-00-0008-06.png,0001-00-0005-53.png
00000009,650,1,1441296068865,1441296068909,942,422,0,0,0,3,2,1,32,0003-00-0001-64.png,0002-00-0003-46.png
00000009,651,1,1441296070018,1441296070062,891,462,0,0,0,4,3,1,43,0004-00-0009-76.png,0003-00-0009-70.png
00000009,652,0,1441296071339,1441296071371,887,437,0,0,0,3,4,1,34,0003-00-0004-22.png,0004-00-0007-83.png
00000009,653,1,1441296074501,1441296075187,491,260,0,0,0,1,2,1,12,0001-00-0002-69.png,0002-00-0001-61.png
00000009,654,0,1441296076556,1441296076677,957,408,0,0,0,4,5,1,45,0004-00-0000-25.png,0005-00-0007-21.png
00000009,655,1,1441296080206,1441296080808,470,276,0,0,0,2,3,1,23,0002-00-0007-51.png,0003-00-0001-86.png
00000009,656,1,1441296082321,1441296082867,975,436,0,0,0,5,4,1,54,0005-00-0009-20.png,0004-00-0000-13.png
00000009,657,1,1441296083963,1441296084071,930,436,0,0,0,4,3,1,43,0004-00-0009-41.png,0003-00-0009-25.png
00000009,658,1,1441296085123,1441296085143,893,465,0,0,0,2,1,1,21,0002-00-0004-26.png,0001-00-0005-97.png
00000009,659,0,1441296086447,1441296086499,890,461,0,0,0,3,4,1,34,0003-00-0004-90.png,0004-00-0004-57.png
00000009,660,1,1441296089695,1441296090266,920,351,0,0,0,5,4,1,54,0005-00-0009-25.png,0004-00-0005-70.png
00000009,661,0,1441296091721,1441296091773,913,410,0,0,0,1,2,1,12,0001-00-0003-25.png,0002-00-0002-30.png
00000009,662,1,1441296094783,1441296095429,482,268,0,0,0,2,3,1,23,0002-00-0002-58.png,0003-00-0008-83.png
00000009,663,0,1441296096321,1441296096385,956,436,0,0,0,4,5,1,45,0004-00-0006-28.png,0005-00-0007-00.png
00000009,664,1,1441296099561,1441296099601,932,363,0,0,0,3,2,1,32,0003-00-0002-68.png,0002-00-0001-40.png
00000009,665,0,1441296101186,1441296101213,939,397,0,0,0,4,5,1,45,0004-00-0009-84.png,0005-00-0007-36.png
00000009,666,1,1441296104273,1441296105122,493,258,0,0,0,3,4,1,34,0003-00-0001-44.png,0004-00-0009-38.png
00000009,667,1,1441296106059,1441296106107,913,436,0,0,0,5,4,1,54,0005-00-0002-86.png,0004-00-0002-49.png
00000009,668,0,1441296107101,1441296107173,919,453,0,0,0,1,2,1,12,0001-00-0005-65.png,0002-00-0001-45.png
00000009,669,1,1441296110069,1441296110716,934,323,0,0,0,2,1,1,21,0002-00-0006-41.png,0001-00-0008-62.png
00000009,670,1,1441296112327,1441296112410,932,425,0,0,0,3,2,1,32,0003-00-0008-37.png,0002-00-0003-07.png
00000009,671,1,1441296113529,1441296113585,915,440,0,0,0,4,3,1,43,0004-00-0004-64.png,0003-00-0008-43.png
00000009,672,0,1441296114773,1441296114825,912,438,0,0,0,2,3,1,23,0002-00-0009-22.png,0003-00-0003-53.png
00000009,673,1,1441296117994,1441296118010,941,366,0,0,0,2,1,1,21,0002-00-0003-43.png,0001-00-0003-81.png
00000009,674,0,1441296118897,1441296119028,947,453,0,0,0,1,2,1,12,0001-00-0000-27.png,0002-00-0001-17.png
00000009,675,1,1441296122140,1441296123318,419,260,0,0,0,4,5,1,45,0004-00-0005-95.png,0005-00-0005-62.png
00000009,676,0,1441296124293,1441296124381,939,428,0,0,0,2,3,1,23,0002-00-0008-26.png,0003-00-0007-38.png
00000009,677,0,1441296127552,1441296127596,917,350,0,0,0,3,4,1,34,0003-00-0006-49.png,0004-00-0002-28.png
00000009,678,1,1441296130682,1441296130714,913,384,0,0,0,4,3,1,43,0004-00-0004-44.png,0003-00-0000-14.png
00000009,679,1,1441296131547,1441296131587,866,463,0,0,0,3,2,1,32,0003-00-0006-03.png,0002-00-0005-65.png
00000009,680,1,1441296133017,1441296133089,923,436,0,0,0,5,4,1,54,0005-00-0008-99.png,0004-00-0004-93.png
00000009,681,0,1441296134209,1441296134253,911,463,0,0,0,3,4,1,34,0003-00-0005-82.png,0004-00-0006-03.png
00000009,682,0,1441296137282,1441296137946,473,254,0,0,0,4,3,1,43,0004-00-0005-46.png,0003-00-0001-31.png
00000009,683,0,1441296141215,1441296141475,882,352,0,0,0,2,3,1,23,0002-00-0004-44.png,0003-00-0003-04.png
00000009,684,0,1441296144677,1441296145330,465,254,0,0,0,2,1,1,21,0002-00-0007-07.png,0001-00-0000-04.png
00000009,685,1,1441296148534,1441296148554,934,360,0,0,0,3,2,1,32,0003-00-0000-20.png,0002-00-0003-27.png
00000009,686,1,1441296149396,1441296149559,913,462,0,0,0,5,4,1,54,0005-00-0008-45.png,0004-00-0000-07.png
00000009,687,0,1441296150680,1441296150708,914,442,0,0,0,1,2,1,12,0001-00-0005-75.png,0002-00-0003-16.png
00000009,688,0,1441296153941,1441296154614,958,320,0,0,0,4,5,1,45,0004-00-0007-13.png,0005-00-0007-32.png
00000009,689,1,1441296157785,1441296158433,454,279,0,0,0,2,3,1,23,0002-00-0001-69.png,0003-00-0004-46.png
00000009,690,0,1441296159400,1441296159432,974,437,0,0,0,1,2,1,12,0001-00-0009-18.png,0002-00-0001-95.png
00000009,691,0,1441296162565,1441296162597,890,358,0,0,0,3,4,1,34,0003-00-0004-39.png,0004-00-0006-23.png
00000009,692,1,1441296165494,1441296166218,507,254,0,0,0,4,5,1,45,0004-00-0003-62.png,0005-00-0005-58.png
00000009,693,1,1441296167095,1441296167155,913,410,0,0,0,5,4,1,54,0005-00-0004-45.png,0004-00-0004-88.png
00000009,694,1,1441296168325,1441296168413,905,464,0,0,0,4,3,1,43,0004-00-0004-77.png,0003-00-0000-56.png
00000009,695,1,1441296169390,1441296169463,904,488,0,0,0,2,1,1,21,0002-00-0000-15.png,0001-00-0005-58.png
00000009,696,1,1441296170711,1441296170802,879,485,0,0,0,3,2,1,32,0003-00-0000-58.png,0002-00-0003-67.png
00000009,697,1,1441296172123,1441296172143,912,470,0,0,0,3,2,1,32,0003-00-0008-93.png,0002-00-0008-79.png
00000009,698,1,1441296173353,1441296173421,905,490,0,0,0,2,1,1,21,0002-00-0005-32.png,0001-00-0006-75.png
00000009,699,0,1441296174780,1441296174808,880,483,0,0,0,4,5,1,45,0004-00-0007-08.png,0005-00-0006-07.png
00000009,700,0,1441296178373,1441296178422,913,322,0,0,0,1,2,1,12,0001-00-0006-44.png,0002-00-0004-73.png
00000009,701,0,1441296181534,1441296181566,939,370,0,0,0,3,4,1,34,0003-00-0001-67.png,0004-00-0002-55.png
00000009,702,1,1441296184753,1441296184769,915,380,0,0,0,5,4,1,54,0005-00-0009-33.png,0004-00-0007-19.png
00000009,703,1,1441296185605,1441296185721,960,413,0,0,0,4,3,1,43,0004-00-0003-51.png,0003-00-0003-13.png
00000009,704,0,1441296186803,1441296186871,890,462,0,0,0,2,3,1,23,0002-00-0005-91.png,0003-00-0002-17.png
00000009,705,1,1441296189889,1441296189913,860,404,0,0,0,2,1,1,21,0002-00-0001-66.png,0001-00-0003-27.png
00000009,706,0,1441296190764,1441296190879,930,436,0,0,0,1,2,1,12,0001-00-0007-87.png,0002-00-0003-42.png
00000009,707,0,1441296193856,1441296193936,875,422,0,0,0,3,4,1,34,0003-00-0008-54.png,0004-00-0003-24.png
00000009,708,1,1441296197206,1441296197861,1096,276,0,0,0,3,2,1,32,0003-00-0004-30.png,0002-00-0007-03.png
00000009,709,1,1441296199488,1441296200179,463,260,0,0,0,2,3,1,23,0002-00-0000-42.png,0003-00-0002-49.png
00000009,710,1,1441296201101,1441296201161,939,447,0,0,0,5,4,1,54,0005-00-0004-22.png,0004-00-0006-80.png
00000009,711,0,1441296202160,1441296202204,886,467,0,0,0,4,5,1,45,0004-00-0004-79.png,0005-00-0003-24.png
00000009,712,1,1441296205483,1441296205515,944,315,0,0,0,4,3,1,43,0004-00-0000-22.png,0003-00-0004-53.png
00000009,713,0,1441296206343,1441296206432,924,410,0,0,0,4,5,1,45,0004-00-0007-49.png,0005-00-0004-90.png
00000009,714,1,1441296209477,1441296209505,888,384,0,0,0,2,1,1,21,0002-00-0001-56.png,0001-00-0006-29.png
00000009,715,0,1441296210359,1441296210447,913,410,0,0,0,2,3,1,23,0002-00-0001-81.png,0003-00-0003-17.png
00000009,716,1,1441296213298,1441296213895,941,362,0,0,0,3,2,1,32,0003-00-0006-12.png,0002-00-0005-45.png
00000009,717,0,1441296215327,1441296215414,925,393,0,0,0,3,4,1,34,0003-00-0006-50.png,0004-00-0005-03.png
00000009,718,1,1441296218499,1441296219265,936,341,0,0,0,5,4,1,54,0005-00-0000-08.png,0004-00-0009-07.png
00000009,719,1,1441296220682,1441296220771,937,384,0,0,0,4,3,1,43,0004-00-0001-09.png,0003-00-0006-08.png
00000009,720,0,1441296222153,1441296222236,913,453,0,0,0,1,2,1,12,0001-00-0006-95.png,0002-00-0001-20.png
00000009,721,0,1441296225234,1441296225817,453,243,0,0,0,2,1,1,21,0002-00-0002-72.png,0001-00-0008-35.png
00000009,722,1,1441296228693,1441296228733,951,349,0,0,0,5,4,1,54,0005-00-0006-24.png,0004-00-0002-82.png
00000009,723,0,1441296229587,1441296229702,964,428,0,0,0,3,4,1,34,0003-00-0007-54.png,0004-00-0002-09.png
00000009,724,1,1441296232799,1441296232827,905,389,0,0,0,3,2,1,32,0003-00-0000-75.png,0002-00-0007-82.png
00000009,725,0,1441296233681,1441296234815,345,402,0,0,0,4,3,1,43,0004-00-0000-89.png,0003-00-0008-62.png
00000009,726,0,1441296238065,1441296238713,1071,279,0,0,0,1,2,1,12,0001-00-0002-64.png,0002-00-0009-63.png
00000009,727,1,1441296241882,1441296242425,454,306,0,0,0,4,5,1,45,0004-00-0000-70.png,0005-00-0003-23.png
00000009,728,0,1441296243253,1441296243368,964,452,0,0,0,2,3,1,23,0002-00-0005-22.png,0003-00-0007-43.png
00000009,729,1,1441296246274,1441296247188,448,242,0,0,0,4,5,1,45,0004-00-0003-41.png,0005-00-0001-45.png
00000009,730,1,1441296248103,1441296248251,939,446,0,0,0,5,4,1,54,0005-00-0004-12.png,0004-00-0009-22.png
00000009,731,1,1441296249345,1441296249425,913,448,0,0,0,3,2,1,32,0003-00-0000-72.png,0002-00-0006-28.png
00000009,732,0,1441296250583,1441296250615,939,477,0,0,0,3,4,1,34,0003-00-0001-85.png,0004-00-0003-38.png
00000009,733,1,1441296254034,1441296254656,489,239,0,0,0,2,3,1,23,0002-00-0002-87.png,0003-00-0009-90.png
00000009,734,1,1441296256087,1441296256191,960,365,0,0,0,2,1,1,21,0002-00-0005-30.png,0001-00-0006-43.png
00000009,735,0,1441296257290,1441296257414,904,462,0,0,0,1,2,1,12,0001-00-0001-80.png,0002-00-0004-25.png
00000009,736,1,1441296260602,1441296260650,971,301,0,0,0,4,3,1,43,0004-00-0004-51.png,0003-00-0007-71.png
00000009,737,0,1441296261524,1441296261620,923,488,0,0,0,3,4,1,34,0003-00-0006-09.png,0004-00-0006-16.png
00000009,738,1,1441296264766,1441296265424,454,262,0,0,0,2,3,1,23,0002-00-0004-30.png,0003-00-0007-34.png
00000009,739,1,1441296266912,1441296267011,963,409,0,0,0,5,4,1,54,0005-00-0002-80.png,0004-00-0008-97.png
00000009,740,1,1441296268178,1441296268213,909,440,0,0,0,2,1,1,21,0002-00-0007-16.png,0001-00-0000-29.png
00000009,741,0,1441296269871,1441296269923,880,461,0,0,0,4,5,1,45,0004-00-0002-96.png,0005-00-0000-47.png
00000009,742,1,1441296272912,1441296273646,968,404,0,0,0,3,2,1,32,0003-00-0003-72.png,0002-00-0006-77.png
00000009,743,1,1441296274470,1441296274554,944,435,0,0,0,4,3,1,43,0004-00-0007-74.png,0003-00-0005-46.png
00000009,744,0,1441296276071,1441296276136,910,435,0,0,0,1,2,1,12,0001-00-0006-64.png,0002-00-0004-71.png
00000009,745,0,1441296279245,1441296279989,498,260,0,0,0,3,2,1,32,0003-00-0004-37.png,0002-00-0009-76.png
00000009,746,0,1441296284978,1441296285689,467,276,0,0,0,2,1,1,21,0002-00-0005-19.png,0001-00-0002-93.png
00000009,747,0,1441296288810,1441296289439,940,363,0,0,0,2,3,1,23,0002-00-0000-00.png,0003-00-0000-38.png
00000009,748,1,1441296292531,1441296292583,888,384,0,0,0,4,3,1,43,0004-00-0002-50.png,0003-00-0005-10.png
00000009,749,0,1441296293443,1441296293519,939,410,0,0,0,4,5,1,45,0004-00-0009-94.png,0005-00-0009-45.png
00000009,750,1,1441296296624,1441296297301,493,249,0,0,0,3,4,1,34,0003-00-0002-56.png,0004-00-0009-83.png
00000009,751,0,1441296298708,1441296298882,968,380,0,0,0,1,2,1,12,0001-00-0009-15.png,0002-00-0003-25.png
00000009,752,1,1441296301856,1441296301896,883,438,0,0,0,5,4,1,54,0005-00-0005-03.png,0004-00-0001-34.png
00000009,753,0,1441296302840,1441296303011,951,436,0,0,0,2,3,1,23,0002-00-0001-91.png,0003-00-0002-26.png
00000009,754,0,1441296305846,1441296306472,922,325,0,0,0,1,2,1,12,0001-00-0000-91.png,0002-00-0005-34.png
00000009,755,1,1441296309601,1441296310231,1060,288,0,0,0,2,1,1,21,0002-00-0008-35.png,0001-00-0007-59.png
00000009,756,1,1441296311691,1441296311786,971,394,0,0,0,5,4,1,54,0005-00-0002-67.png,0004-00-0003-65.png
00000009,757,0,1441296312929,1441296312973,913,436,0,0,0,3,4,1,34,0003-00-0004-72.png,0004-00-0002-72.png
00000009,758,0,1441296316009,1441296316084,914,373,0,0,0,4,5,1,45,0004-00-0002-00.png,0005-00-0007-14.png
00000009,759,0,1441296318952,1441296319597,435,263,0,0,0,4,3,1,43,0004-00-0003-96.png,0003-00-0005-78.png
00000009,760,0,1441296322501,1441296323405,447,255,0,0,0,3,2,1,32,0003-00-0007-31.png,0002-00-0002-30.png
00000009,761,0,1441296326596,1441296327284,1085,272,0,0,0,3,4,1,34,0003-00-0009-96.png,0004-00-0009-77.png
00000009,762,0,1441296330449,1441296330521,938,348,0,0,0,1,2,1,12,0001-00-0003-71.png,0002-00-0003-72.png
00000009,763,0,1441296333641,1441296334296,483,256,0,0,0,2,1,1,21,0002-00-0000-86.png,0001-00-0003-30.png
00000009,764,1,1441296337226,1441296337810,1062,298,0,0,0,3,2,1,32,0003-00-0006-11.png,0002-00-0003-32.png
00000009,765,1,1441296339206,1441296340489,1036,280,0,0,0,4,3,1,43,0004-00-0004-19.png,0003-00-0007-11.png
00000009,766,1,1441296341947,1441296342057,977,410,0,0,0,5,4,1,54,0005-00-0008-56.png,0004-00-0004-40.png
00000009,767,0,1441296343069,1441296343121,913,441,0,0,0,2,3,1,23,0002-00-0001-85.png,0003-00-0005-94.png
00000009,768,1,1441296346320,1441296347074,449,266,0,0,0,4,5,1,45,0004-00-0003-64.png,0005-00-0004-33.png
00000009,769,1,1441296348425,1441296348527,976,410,0,0,0,5,4,1,54,0005-00-0004-64.png,0004-00-0003-00.png
00000009,770,0,1441296349589,1441296349702,913,475,0,0,0,4,5,1,45,0004-00-0008-66.png,0005-00-0008-69.png
00000009,771,0,1441296352901,1441296352909,982,346,0,0,0,3,4,1,34,0003-00-0002-99.png,0004-00-0006-05.png
00000009,772,1,1441296356040,1441296356080,948,351,0,0,0,2,1,1,21,0002-00-0003-32.png,0001-00-0004-11.png
00000009,773,0,1441296357507,1441296357571,939,384,0,0,0,1,2,1,12,0001-00-0002-09.png,0002-00-0001-11.png
00000009,774,1,1441296360530,1441296361150,1063,282,0,0,0,3,2,1,32,0003-00-0006-76.png,0002-00-0006-40.png
00000009,775,1,1441296362617,1441296362736,955,412,0,0,0,4,3,1,43,0004-00-0004-47.png,0003-00-0006-20.png
00000009,776,0,1441296363877,1441296363941,913,439,0,0,0,2,3,1,23,0002-00-0007-68.png,0003-00-0006-82.png
00000009,777,0,1441296366808,1441296366860,890,397,0,0,0,3,4,1,34,0003-00-0002-41.png,0004-00-0003-49.png
00000009,778,1,1441296370057,1441296370635,948,335,0,0,0,3,2,1,32,0003-00-0007-00.png,0002-00-0002-34.png
00000009,779,1,1441296372070,1441296372158,962,406,0,0,0,2,1,1,21,0002-00-0003-83.png,0001-00-0008-77.png
00000009,780,1,1441296373178,1441296373221,915,443,0,0,0,4,3,1,43,0004-00-0007-76.png,0003-00-0008-31.png
00000009,781,0,1441296374360,1441296374416,909,445,0,0,0,4,5,1,45,0004-00-0002-62.png,0005-00-0002-74.png
00000009,782,1,1441296377612,1441296378236,427,395,0,0,0,2,3,1,23,0002-00-0007-40.png,0003-00-0001-67.png
00000009,783,1,1441296379608,1441296379696,964,384,0,0,0,5,4,1,54,0005-00-0008-41.png,0004-00-0008-43.png
00000009,784,0,1441296380631,1441296380707,901,436,0,0,0,1,2,1,12,0001-00-0002-96.png,0002-00-0007-19.png
00000009,785,0,1441296383774,1441296383865,990,352,0,0,0,1,2,1,12,0001-00-0006-46.png,0002-00-0006-16.png
00000009,786,1,1441296387401,1441296387433,1007,355,0,0,0,2,1,1,21,0002-00-0002-80.png,0001-00-0001-63.png
00000009,787,1,1441296388279,1441296388382,939,446,0,0,0,4,3,1,43,0004-00-0008-68.png,0003-00-0005-64.png
00000009,788,0,1441296389435,1441296389527,913,477,0,0,0,3,4,1,34,0003-00-0001-03.png,0004-00-0001-04.png
00000009,789,1,1441296392507,1441296393072,488,267,0,0,0,2,3,1,23,0002-00-0007-77.png,0003-00-0008-15.png
00000009,790,1,1441296394571,1441296394655,965,383,0,0,0,3,2,1,32,0003-00-0007-96.png,0002-00-0007-05.png
00000009,791,1,1441296395755,1441296395807,891,438,0,0,0,5,4,1,54,0005-00-0002-31.png,0004-00-0003-68.png
00000009,792,0,1441296397094,1441296397158,911,465,0,0,0,4,5,1,45,0004-00-0003-70.png,0005-00-0005-74.png
00000009,793,0,1441296400663,1441296400703,957,332,0,0,0,4,5,1,45,0004-00-0009-38.png,0005-00-0001-86.png
00000009,794,1,1441296403983,1441296404039,939,319,0,0,0,4,3,1,43,0004-00-0005-49.png,0003-00-0005-71.png
00000009,795,1,1441296404916,1441296404985,888,448,0,0,0,5,4,1,54,0005-00-0007-68.png,0004-00-0005-30.png
00000009,796,0,1441296406050,1441296406094,888,447,0,0,0,2,3,1,23,0002-00-0003-16.png,0003-00-0000-63.png
00000009,797,0,1441296409669,1441296410328,467,274,0,0,0,3,2,1,32,0003-00-0000-58.png,0002-00-0006-80.png
00000009,798,0,1441296413535,1441296414230,510,265,0,0,0,2,1,1,21,0002-00-0000-08.png,0001-00-0003-10.png
00000009,799,0,1441296417367,1441296417403,921,362,0,0,0,1,2,1,12,0001-00-0003-14.png,0002-00-0002-57.png
00000009,800,0,1441296420522,1441296421183,1067,280,0,0,0,3,4,1,34,0003-00-0003-63.png,0004-00-0006-18.png
00000009,801,1,1441296424288,1441296424308,877,358,0,0,0,2,1,1,21,0002-00-0001-12.png,0001-00-0001-26.png
00000009,802,1,1441296425228,1441296425364,927,436,0,0,0,4,3,1,43,0004-00-0000-38.png,0003-00-0002-90.png
00000009,803,0,1441296426430,1441296426498,904,464,0,0,0,3,4,1,34,0003-00-0004-50.png,0004-00-0009-04.png
00000009,804,1,1441296429672,1441296430285,1068,275,0,0,0,3,2,1,32,0003-00-0000-87.png,0002-00-0000-91.png
00000009,805,0,1441296431687,1441296431747,955,411,0,0,0,4,5,1,45,0004-00-0000-81.png,0005-00-0003-40.png
00000009,806,1,1441296434671,1441296435275,1063,272,0,0,0,5,4,1,54,0005-00-0004-86.png,0004-00-0007-61.png
00000009,807,0,1441296436717,1441296436848,957,401,0,0,0,2,3,1,23,0002-00-0000-07.png,0003-00-0004-34.png
00000009,808,0,1441296439868,1441296440531,1067,294,0,0,0,1,2,1,12,0001-00-0007-95.png,0002-00-0001-60.png
00000009,809,0,1441296443714,1441296444439,1072,279,0,0,0,2,3,1,23,0002-00-0007-16.png,0003-00-0002-92.png
00000009,810,1,1441296447671,1441296448248,478,280,0,0,0,1,2,1,12,0001-00-0004-99.png,0002-00-0008-62.png
00000009,811,1,1441296449127,1441296449191,950,421,0,0,0,5,4,1,54,0005-00-0006-47.png,0004-00-0009-33.png
00000009,812,1,1441296450191,1441296450253,913,436,0,0,0,2,1,1,21,0002-00-0003-46.png,0001-00-0005-29.png
00000009,813,0,1441296451322,1441296451390,902,442,0,0,0,3,4,1,34,0003-00-0004-66.png,0004-00-0001-99.png
00000009,814,1,1441296454235,1441296455128,924,308,0,0,0,4,3,1,43,0004-00-0001-49.png,0003-00-0007-72.png
00000009,815,0,1441296456622,1441296456736,929,436,0,0,0,4,5,1,45,0004-00-0004-11.png,0005-00-0006-74.png
00000009,816,1,1441296459943,1441296460483,1045,299,0,0,0,3,2,1,32,0003-00-0008-35.png,0002-00-0001-43.png
00000009,817,0,1441296461926,1441296462031,939,384,0,0,0,1,2,1,12,0001-00-0003-78.png,0002-00-0008-59.png
00000009,818,1,1441296465214,1441296465278,958,328,0,0,0,2,1,1,21,0002-00-0002-13.png,0001-00-0008-48.png
00000009,819,0,1441296466156,1441296467303,927,353,0,0,0,3,4,1,34,0003-00-0005-80.png,0004-00-0007-68.png
00000009,820,0,1441296470435,1441296470487,905,352,0,0,0,4,5,1,45,0004-00-0000-36.png,0005-00-0005-37.png
00000009,821,1,1441296473615,1441296474200,361,384,0,0,0,2,3,1,23,0002-00-0001-42.png,0003-00-0002-01.png
00000009,822,1,1441296476484,1441296477171,1095,262,0,0,0,5,4,1,54,0005-00-0008-67.png,0004-00-0005-54.png
00000009,823,1,1441296478603,1441296478643,913,406,0,0,0,4,3,1,43,0004-00-0008-49.png,0003-00-0002-94.png
00000009,824,1,1441296479794,1441296479842,906,442,0,0,0,3,2,1,32,0003-00-0009-26.png,0002-00-0001-28.png
00000009,825,1,1441296481043,1441296481087,917,470,0,0,0,2,1,1,21,0002-00-0003-67.png,0001-00-0004-38.png
00000009,826,1,1441296482209,1441296482261,917,464,0,0,0,5,4,1,54,0005-00-0006-72.png,0004-00-0006-24.png
00000009,827,1,1441296483549,1441296483609,891,429,0,0,0,4,3,1,43,0004-00-0001-75.png,0003-00-0007-33.png
00000009,828,1,1441296484940,1441296484980,896,469,0,0,0,3,2,1,32,0003-00-0007-63.png,0002-00-0005-37.png
00000009,829,0,1441296486250,1441296486318,907,499,0,0,0,3,4,1,34,0003-00-0000-30.png,0004-00-0004-00.png
00000009,830,0,1441296489294,1441296489342,885,450,0,0,0,2,3,1,23,0002-00-0001-96.png,0003-00-0002-09.png
00000009,831,1,1441296492264,1441296492967,401,410,0,0,0,4,5,1,45,0004-00-0002-38.png,0005-00-0007-86.png
00000009,832,0,1441296494411,1441296495552,949,410,0,0,0,1,2,1,12,0001-00-0007-03.png,0002-00-0007-75.png
00000009,833,0,1441296503701,1441296503737,913,358,0,0,0,2,3,1,23,0002-00-0008-08.png,0003-00-0003-12.png
00000009,834,0,1441296552799,1441296553347,1041,307,0,0,0,3,4,1,34,0003-00-0000-67.png,0004-00-0002-71.png
00000009,835,0,1441296564902,1441296565482,1044,419,0,0,0,4,5,1,45,0004-00-0009-67.png,0005-00-0007-08.png
00000009,836,0,1441296658204,1441296658722,381,357,0,0,0,3,2,1,32,0003-00-0003-93.png,0002-00-0001-52.png
00000009,837,1,1441296671815,1441296671871,503,527,0,0,0,1,2,1,12,0001-00-0005-55.png,0002-00-0003-54.png
00000009,838,1,1441296675417,1441296675472,877,363,0,0,0,5,4,1,54,0005-00-0009-18.png,0004-00-0006-55.png
00000009,839,0,1441296676489,1441296677418,477,256,0,0,0,2,1,1,21,0002-00-0008-65.png,0001-00-0003-03.png
00000009,840,1,1441296680562,1441296681087,940,368,0,0,0,4,3,1,43,0004-00-0008-81.png,0003-00-0000-56.png
00000009,841,1,1441296682884,1441296683600,405,372,0,0,0,4,5,1,45,0004-00-0002-18.png,0005-00-0008-32.png
00000009,842,0,1441296689914,1441296690010,939,369,0,0,0,3,4,1,34,0003-00-0004-78.png,0004-00-0006-87.png
00000009,843,1,1441296693491,1441296694063,951,392,0,0,0,2,1,1,21,0002-00-0003-73.png,0001-00-0002-67.png
00000009,844,1,1441296696491,1441296697107,302,471,0,0,0,1,2,1,12,0001-00-0009-43.png,0002-00-0001-95.png
00000009,845,0,1441296699146,1441296700669,1143,296,0,0,0,2,3,1,23,0002-00-0002-45.png,0003-00-0000-59.png
00000009,846,0,1441296703741,1441296704423,477,280,0,0,0,4,3,1,43,0004-00-0001-22.png,0003-00-0003-08.png
00000009,847,1,1441296707624,1441296707644,931,327,0,0,0,3,2,1,32,0003-00-0000-21.png,0002-00-0003-42.png
00000009,848,1,1441296708506,1441296708688,950,410,0,0,0,5,4,1,54,0005-00-0006-34.png,0004-00-0002-11.png
00000009,849,1,1441296709577,1441296709747,939,445,0,0,0,5,4,1,54,0005-00-0003-44.png,0004-00-0005-94.png
00000009,850,0,1441296710771,1441296710850,904,417,0,0,0,3,4,1,34,0003-00-0003-10.png,0004-00-0009-41.png
00000009,851,1,1441296713805,1441296714398,1062,301,0,0,0,3,2,1,32,0003-00-0009-71.png,0002-00-0003-88.png
00000009,852,1,1441296715721,1441296715753,939,358,0,0,0,4,3,1,43,0004-00-0004-50.png,0003-00-0002-09.png
00000009,853,0,1441296716753,1441296716833,913,447,0,0,0,2,3,1,23,0002-00-0004-23.png,0003-00-0003-75.png
00000009,854,0,1441296719863,1441296719895,944,404,0,0,0,1,2,1,12,0001-00-0001-41.png,0002-00-0002-30.png
00000009,855,1,1441296722804,1441296723417,1018,304,0,0,0,2,1,1,21,0002-00-0004-40.png,0001-00-0001-81.png
00000009,856,0,1441296724706,1441296724734,893,397,0,0,0,4,5,1,45,0004-00-0008-02.png,0005-00-0007-91.png
00000009,857,1,1441296727762,1441296728460,933,350,0,0,0,2,1,1,21,0002-00-0001-11.png,0001-00-0008-14.png
00000009,858,0,1441296729790,1441296730179,956,436,0,0,0,3,4,1,34,0003-00-0000-01.png,0004-00-0001-74.png
00000009,859,1,1441296733019,1441296733622,910,343,0,0,0,3,2,1,32,0003-00-0007-06.png,0002-00-0005-38.png
00000009,860,1,1441296734967,1441296735231,955,436,0,0,0,5,4,1,54,0005-00-0009-67.png,0004-00-0003-50.png
00000009,861,0,1441296736315,1441296736391,924,436,0,0,0,4,5,1,45,0004-00-0005-46.png,0005-00-0008-92.png
00000009,862,0,1441296739522,1441296740122,444,279,0,0,0,4,3,1,43,0004-00-0009-22.png,0003-00-0002-44.png
00000009,863,0,1441296743059,1441296743668,906,351,0,0,0,1,2,1,12,0001-00-0006-00.png,0002-00-0001-02.png
00000009,864,1,1441296746687,1441296747341,399,304,0,0,0,2,3,1,23,0002-00-0002-97.png,0003-00-0004-30.png
00000009,865,1,1441296748790,1441296748929,990,384,0,0,0,5,4,1,54,0005-00-0006-06.png,0004-00-0009-26.png
00000009,866,1,1441296749916,1441296749983,964,424,0,0,0,4,3,1,43,0004-00-0004-00.png,0003-00-0006-91.png
00000009,867,0,1441296751144,1441296751176,893,440,0,0,0,2,3,1,23,0002-00-0006-56.png,0003-00-0002-38.png
00000009,868,1,1441296754096,1441296754108,508,423,0,0,0,3,4,1,34,0003-00-0009-00.png,0004-00-0009-22.png
00000009,869,0,1441296755039,1441296761242,313,476,0,0,0,2,1,1,21,0002-00-0001-53.png,0001-00-0009-22.png
00000009,870,1,1441296770111,1441296770816,1102,312,0,0,0,3,2,1,32,0003-00-0009-20.png,0002-00-0008-02.png
00000009,871,0,1441296771740,1441296772782,992,355,0,0,0,1,2,1,12,0001-00-0009-81.png,0002-00-0003-15.png
00000009,872,1,1441296775950,1441296776573,466,303,0,0,0,4,5,1,45,0004-00-0009-14.png,0005-00-0002-47.png
00000009,873,1,1441296778104,1441296778140,886,387,0,0,0,5,4,1,54,0005-00-0000-13.png,0004-00-0009-76.png
00000009,874,0,1441296779082,1441296779137,913,488,0,0,0,4,5,1,45,0004-00-0004-42.png,0005-00-0009-52.png
00000009,875,0,1441296782327,1441296782910,907,360,0,0,0,3,4,1,34,0003-00-0005-07.png,0004-00-0007-46.png
00000009,876,1,1441296786212,1441296786848,919,318,0,0,0,2,1,1,21,0002-00-0007-16.png,0001-00-0001-37.png
00000009,877,1,1441296788537,1441296789154,1047,277,0,0,0,3,2,1,32,0003-00-0009-69.png,0002-00-0001-30.png
00000009,878,1,1441296790585,1441296790637,964,396,0,0,0,4,3,1,43,0004-00-0000-30.png,0003-00-0000-97.png
00000009,879,0,1441296791746,1441296791816,939,436,0,0,0,2,3,1,23,0002-00-0000-86.png,0003-00-0003-89.png
00000009,880,1,1441296795058,1441296795704,475,258,0,0,0,1,2,1,12,0001-00-0009-46.png,0002-00-0004-94.png
00000009,881,0,1441296797273,1441296797365,992,394,0,0,0,3,4,1,34,0003-00-0005-10.png,0004-00-0007-75.png
00000009,882,1,1441296801041,1441296801664,930,353,0,0,0,2,1,1,21,0002-00-0000-50.png,0001-00-0001-24.png
00000009,883,0,1441296803146,1441296803178,976,324,0,0,0,4,5,1,45,0004-00-0002-39.png,0005-00-0006-03.png
00000009,884,0,1441296807004,1441296807561,383,350,0,0,0,4,3,1,43,0004-00-0000-10.png,0003-00-0002-61.png
00000009,885,1,1441296811314,1441296811344,895,377,0,0,0,3,2,1,32,0003-00-0006-15.png,0002-00-0001-16.png
00000009,886,0,1441296812386,1441296812477,913,426,0,0,0,2,3,1,23,0002-00-0003-69.png,0003-00-0009-57.png
00000009,887,1,1441296816315,1441296816844,1041,275,0,0,0,5,4,1,54,0005-00-0006-16.png,0004-00-0008-26.png
00000009,888,0,1441296817682,1441296817853,943,439,0,0,0,1,2,1,12,0001-00-0009-66.png,0002-00-0002-92.png
00000009,889,0,1441296820904,1441296821450,452,317,0,0,0,2,1,1,21,0002-00-0002-79.png,0001-00-0003-02.png
00000009,890,1,1441296824363,1441296824917,918,358,0,0,0,5,4,1,54,0005-00-0009-94.png,0004-00-0009-27.png
00000009,891,0,1441296826559,1441296827424,923,304,0,0,0,3,4,1,34,0003-00-0007-48.png,0004-00-0001-91.png
00000009,892,1,1441296830475,1441296831079,965,333,0,0,0,4,3,1,43,0004-00-0009-50.png,0003-00-0004-21.png
00000009,893,1,1441296831970,1441296832963,456,301,0,0,0,4,5,1,45,0004-00-0004-04.png,0005-00-0001-65.png
00000009,894,0,1441296833848,1441296833940,966,409,0,0,0,2,3,1,23,0002-00-0000-11.png,0003-00-0006-35.png
00000009,895,0,1441296837986,1441296838456,944,338,0,0,0,1,2,1,12,0001-00-0005-46.png,0002-00-0003-03.png
00000009,896,1,1441296841880,1441296841936,994,298,0,0,0,3,2,1,32,0003-00-0007-21.png,0002-00-0006-23.png
00000009,897,0,1441296842866,1441296842938,964,410,0,0,0,1,2,1,12,0001-00-0002-62.png,0002-00-0004-38.png
00000009,898,0,1441296848074,1441296848734,965,338,0,0,0,2,3,1,23,0002-00-0008-56.png,0003-00-0003-68.png
00000009,899,0,1441296851572,1441296852305,941,359,0,0,0,3,4,1,34,0003-00-0008-96.png,0004-00-0002-39.png
00000009,900,0,1441296855594,1441296856155,329,364,0,0,0,3,2,1,32,0003-00-0002-33.png,0002-00-0002-41.png
00000009,901,1,1441296860167,1441296860219,888,358,0,0,0,5,4,1,54,0005-00-0007-19.png,0004-00-0001-15.png
00000009,902,1,1441296861192,1441296861339,998,436,0,0,0,4,3,1,43,0004-00-0005-80.png,0003-00-0002-44.png
00000009,903,1,1441296862369,1441296862446,946,426,0,0,0,2,1,1,21,0002-00-0005-13.png,0001-00-0009-84.png
00000009,904,0,1441296863881,1441296863913,902,410,0,0,0,4,5,1,45,0004-00-0008-00.png,0005-00-0008-72.png
00000009,905,1,1441296867248,1441296867774,1091,308,0,0,0,5,4,1,54,0005-00-0004-27.png,0004-00-0000-31.png
00000009,906,1,1441296869415,1441296869451,924,364,0,0,0,4,3,1,43,0004-00-0007-98.png,0003-00-0004-73.png
00000009,907,1,1441296870499,1441296870531,921,402,0,0,0,2,1,1,21,0002-00-0006-35.png,0001-00-0007-70.png
00000009,908,0,1441296871583,1441296871643,956,457,0,0,0,2,3,1,23,0002-00-0006-47.png,0003-00-0005-58.png
00000009,909,1,1441296875957,1441296876552,1119,308,0,0,0,3,2,1,32,0003-00-0007-59.png,0002-00-0003-96.png
00000009,910,0,1441296878102,1441296878154,903,387,0,0,0,4,5,1,45,0004-00-0004-05.png,0005-00-0001-63.png
00000009,911,1,1441296881145,1441296881722,450,328,0,0,0,1,2,1,12,0001-00-0002-85.png,0002-00-0000-50.png
00000009,912,0,1441296883147,1441296883251,964,373,0,0,0,3,4,1,34,0003-00-0006-80.png,0004-00-0001-75.png
00000009,913,0,1441296886788,1441296887331,1071,283,0,0,0,1,2,1,12,0001-00-0004-64.png,0002-00-0007-42.png
00000009,914,1,1441296890203,1441296891176,430,280,0,0,0,2,3,1,23,0002-00-0005-18.png,0003-00-0000-09.png
00000009,915,1,1441296892578,1441296892610,964,332,0,0,0,4,3,1,43,0004-00-0009-10.png,0003-00-0000-99.png
00000009,916,0,1441296893601,1441296893661,899,456,0,0,0,4,5,1,45,0004-00-0008-22.png,0005-00-0003-14.png
00000009,917,1,1441296899747,1441296899787,888,392,0,0,0,2,1,1,21,0002-00-0006-50.png,0001-00-0007-61.png
00000009,918,0,1441296900867,1441296900919,974,358,0,0,0,3,4,1,34,0003-00-0009-43.png,0004-00-0001-77.png
00000009,919,1,1441296903886,1441296904442,1078,304,0,0,0,3,2,1,32,0003-00-0006-91.png,0002-00-0007-80.png
00000009,920,1,1441296905834,1441296905889,992,362,0,0,0,5,4,1,54,0005-00-0007-87.png,0004-00-0009-19.png
00000009,921,1,1441296906801,1441296906869,929,436,0,0,0,2,1,1,21,0002-00-0001-44.png,0001-00-0002-28.png
00000009,922,0,1441296908002,1441296908050,927,387,0,0,0,1,2,1,12,0001-00-0003-94.png,0002-00-0001-99.png
00000009,923,1,1441296911373,1441296911964,437,273,0,0,0,2,3,1,23,0002-00-0000-44.png,0003-00-0002-41.png
00000009,924,0,1441296913468,1441296913622,955,410,0,0,0,3,4,1,34,0003-00-0002-77.png,0004-00-0000-05.png
00000009,925,1,1441296916540,1441296916576,913,449,0,0,0,4,3,1,43,0004-00-0002-86.png,0003-00-0005-94.png
00000009,926,0,1441296917454,1441296917546,943,443,0,0,0,4,5,1,45,0004-00-0000-18.png,0005-00-0007-15.png
00000009,927,1,1441296920733,1441296921321,921,340,0,0,0,3,2,1,32,0003-00-0009-70.png,0002-00-0003-62.png
00000009,928,1,1441296922730,1441296922833,964,371,0,0,0,5,4,1,54,0005-00-0003-24.png,0004-00-0001-70.png
00000009,929,1,1441296923912,1441296923952,928,430,0,0,0,4,3,1,43,0004-00-0000-31.png,0003-00-0001-77.png
00000009,930,0,1441296925004,1441296925056,885,436,0,0,0,3,4,1,34,0003-00-0008-84.png,0004-00-0004-75.png
00000009,931,0,1441296928211,1441296928826,939,340,0,0,0,2,3,1,23,0002-00-0007-09.png,0003-00-0001-22.png
00000009,932,0,1441296932023,1441296932648,467,279,0,0,0,5,4,1,54,0005-00-0001-63.png,0004-00-0004-31.png
00000009,933,0,1441296936474,1441296936719,933,423,0,0,0,4,5,1,45,0004-00-0000-48.png,0005-00-0007-63.png
00000009,934,0,1441296939950,1441296940514,1067,316,0,0,0,1,2,1,12,0001-00-0003-03.png,0002-00-0001-97.png
00000009,935,0,1441296943715,1441296944327,439,318,0,0,0,2,1,1,21,0002-00-0000-10.png,0001-00-0003-55.png
00000009,936,1,1441296948906,1441296949416,917,365,0,0,0,3,2,1,32,0003-00-0002-06.png,0002-00-0004-75.png
00000009,937,0,1441296950281,1441296950436,915,390,0,0,0,4,5,1,45,0004-00-0008-01.png,0005-00-0006-70.png
00000009,938,1,1441296953504,1441296954048,450,303,0,0,0,2,3,1,23,0002-00-0007-03.png,0003-00-0008-11.png
00000009,939,1,1441296955501,1441296955655,966,370,0,0,0,4,3,1,43,0004-00-0004-82.png,0003-00-0001-90.png
00000009,940,1,1441296956715,1441296956743,885,391,0,0,0,5,4,1,54,0005-00-0008-58.png,0004-00-0001-23.png
00000009,941,0,1441296958057,1441296958126,928,427,0,0,0,1,2,1,12,0001-00-0005-77.png,0002-00-0000-23.png
