subject_id,trial,correct_response,stim_time,response_time,x_coord,y_coord,trial_timeout,timeout_time,interTrial_timeout,left_rank,right_rank,distance,joint_rank,left_image,right_image
00000014,1,1,1440427018238,1440427018793,897,515,0,0,0,3,2,1,32,0003-00-0008-00.png,0002-00-0004-69.png
00000014,2,0,1440427019833,1440427020377,341,363,0,0,0,4,3,1,43,0004-00-0007-23.png,0003-00-0003-28.png
00000014,3,0,1440427024642,1440427025213,955,375,0,0,0,2,3,1,23,0002-00-0002-60.png,0003-00-0007-66.png
00000014,4,1,1440427028419,1440427029113,353,409,0,0,0,4,5,1,45,0004-00-0000-63.png,0005-00-0006-55.png
00000014,5,1,1440427030287,1440427030749,956,376,0,0,0,5,4,1,54,0005-00-0001-69.png,0004-00-0008-65.png
00000014,6,0,1440427032343,1440427032850,397,401,0,0,0,2,1,1,21,0002-00-0009-04.png,0001-00-0009-94.png
00000014,7,1,1440427037542,1440427037990,364,382,0,0,0,1,2,1,12,0001-00-0001-32.png,0002-00-0008-52.png
00000014,8,1,1440427039148,1440427039636,346,392,0,0,0,3,4,1,34,0003-00-0004-48.png,0004-00-0004-63.png
00000014,9,1,1440427041508,1440427042024,376,540,0,0,0,1,2,1,12,0001-00-0001-35.png,0002-00-0001-95.png
00000014,10,1,1440427043382,1440427043847,939,358,0,0,0,2,1,1,21,0002-00-0009-49.png,0001-00-0006-89.png
00000014,11,1,1440427045028,1440427045580,865,395,0,0,0,3,2,1,32,0003-00-0009-79.png,0002-00-0000-35.png
00000014,12,0,1440427046815,1440427047349,926,410,0,0,0,3,4,1,34,0003-00-0001-85.png,0004-00-0008-84.png
00000014,13,0,1440427050233,1440427050301,484,444,0,0,0,5,4,1,54,0005-00-0005-78.png,0004-00-0002-09.png
00000014,14,0,1440427053278,1440427053322,472,446,0,0,0,4,3,1,43,0004-00-0009-72.png,0003-00-0001-57.png
00000014,15,0,1440427056585,1440427057076,900,476,0,0,0,2,3,1,23,0002-00-0004-05.png,0003-00-0008-93.png
00000014,16,0,1440427060234,1440427060797,888,332,0,0,0,4,5,1,45,0004-00-0007-82.png,0005-00-0003-21.png
00000014,17,0,1440427063901,1440427064522,949,392,0,0,0,3,4,1,34,0003-00-0000-95.png,0004-00-0009-27.png
00000014,18,1,1440427067941,1440427068416,354,352,0,0,0,1,2,1,12,0001-00-0002-82.png,0002-00-0004-34.png
00000014,19,0,1440427069606,1440427070216,858,367,0,0,0,4,5,1,45,0004-00-0002-15.png,0005-00-0004-86.png
00000014,20,1,1440427073103,1440427073604,887,457,0,0,0,2,1,1,21,0002-00-0000-06.png,0001-00-0000-85.png
00000014,21,1,1440427074634,1440427075299,922,342,0,0,0,5,4,1,54,0005-00-0007-64.png,0004-00-0007-28.png
00000014,22,0,1440427076329,1440427076787,350,389,0,0,0,4,3,1,43,0004-00-0001-15.png,0003-00-0000-95.png
00000014,23,1,1440427079654,1440427079692,471,443,0,0,0,2,3,1,23,0002-00-0001-18.png,0003-00-0000-36.png
00000014,24,0,1440427080775,1440427081253,375,393,0,0,0,3,2,1,32,0003-00-0006-86.png,0002-00-0006-18.png
00000014,25,0,1440427084155,1440427084163,443,436,0,0,0,2,1,1,21,0002-00-0007-97.png,0001-00-0003-77.png
00000014,26,0,1440427087065,1440427087113,501,447,0,0,0,4,3,1,43,0004-00-0000-60.png,0003-00-0008-59.png
00000014,27,0,1440427090060,1440427090084,476,416,0,0,0,5,4,1,54,0005-00-0002-74.png,0004-00-0007-08.png
00000014,28,0,1440427093131,1440427093638,331,348,0,0,0,3,2,1,32,0003-00-0007-56.png,0002-00-0007-39.png
00000014,29,1,1440427096995,1440427097479,336,370,0,0,0,2,3,1,23,0002-00-0005-61.png,0003-00-0006-55.png
00000014,30,0,1440427098573,1440427099133,888,371,0,0,0,3,4,1,34,0003-00-0009-48.png,0004-00-0001-03.png
00000014,31,1,1440427102055,1440427102084,427,442,0,0,0,4,5,1,45,0004-00-0001-99.png,0005-00-0007-87.png
00000014,32,1,1440427103219,1440427103714,335,397,0,0,0,1,2,1,12,0001-00-0007-32.png,0002-00-0009-92.png
00000014,33,1,1440427104870,1440427105350,370,467,0,0,0,2,3,1,23,0002-00-0004-53.png,0003-00-0008-08.png
00000014,34,0,1440427106440,1440427106965,351,393,0,0,0,2,1,1,21,0002-00-0006-37.png,0001-00-0004-94.png
00000014,35,1,1440427109857,1440427109893,498,425,0,0,0,1,2,1,12,0001-00-0002-81.png,0002-00-0001-03.png
00000014,36,0,1440427111000,1440427111456,347,387,0,0,0,5,4,1,54,0005-00-0009-12.png,0004-00-0005-26.png
00000014,37,1,1440427114521,1440427114995,326,368,0,0,0,3,4,1,34,0003-00-0008-42.png,0004-00-0002-41.png
00000014,38,1,1440427116002,1440427116496,304,379,0,0,0,4,5,1,45,0004-00-0001-73.png,0005-00-0003-70.png
00000014,39,1,1440427117641,1440427118226,877,443,0,0,0,3,2,1,32,0003-00-0004-18.png,0002-00-0006-81.png
00000014,40,1,1440427119281,1440427119833,880,374,0,0,0,4,3,1,43,0004-00-0000-96.png,0003-00-0008-74.png
00000014,41,0,1440427120901,1440427121369,331,402,0,0,0,2,1,1,21,0002-00-0006-19.png,0001-00-0004-84.png
00000014,42,1,1440427124398,1440427124851,328,379,0,0,0,4,5,1,45,0004-00-0001-95.png,0005-00-0000-53.png
00000014,43,1,1440427125911,1440427126429,306,407,0,0,0,3,4,1,34,0003-00-0004-08.png,0004-00-0004-87.png
00000014,44,1,1440427128016,1440427128511,328,386,0,0,0,2,3,1,23,0002-00-0005-34.png,0003-00-0007-89.png
00000014,45,0,1440427129589,1440427130183,334,393,0,0,0,3,2,1,32,0003-00-0007-45.png,0002-00-0007-37.png
00000014,46,1,1440427133322,1440427133799,899,397,0,0,0,5,4,1,54,0005-00-0004-75.png,0004-00-0007-63.png
00000014,47,1,1440427134996,1440427135526,869,315,0,0,0,4,3,1,43,0004-00-0009-62.png,0003-00-0003-76.png
00000014,48,1,1440427136765,1440427137219,273,372,0,0,0,1,2,1,12,0001-00-0007-83.png,0002-00-0003-24.png
00000014,49,1,1440427138324,1440427138889,899,358,0,0,0,2,1,1,21,0002-00-0002-28.png,0001-00-0001-03.png
00000014,50,1,1440427139966,1440427140480,880,350,0,0,0,3,2,1,32,0003-00-0001-24.png,0002-00-0005-41.png
00000014,51,1,1440427141585,1440427142109,299,384,0,0,0,1,2,1,12,0001-00-0004-06.png,0002-00-0008-26.png
00000014,52,0,1440427143246,1440427143940,906,350,0,0,0,3,4,1,34,0003-00-0001-97.png,0004-00-0000-35.png
00000014,53,1,1440427146832,1440427146868,498,402,0,0,0,4,5,1,45,0004-00-0002-54.png,0005-00-0007-79.png
00000014,54,0,1440427147946,1440427148556,869,369,0,0,0,2,3,1,23,0002-00-0009-94.png,0003-00-0009-36.png
00000014,55,0,1440427151533,1440427151561,510,418,0,0,0,5,4,1,54,0005-00-0001-75.png,0004-00-0005-81.png
00000014,56,1,1440427154682,1440427155295,872,432,0,0,0,4,3,1,43,0004-00-0003-15.png,0003-00-0007-95.png
00000014,57,1,1440427156323,1440427156772,354,367,0,0,0,1,2,1,12,0001-00-0009-38.png,0002-00-0005-28.png
00000014,58,1,1440427157754,1440427158308,384,490,0,0,0,3,4,1,34,0003-00-0000-07.png,0004-00-0009-70.png
00000014,59,0,1440427159254,1440427159730,323,392,0,0,0,3,2,1,32,0003-00-0003-72.png,0002-00-0007-94.png
00000014,60,0,1440427168382,1440427168826,339,451,0,0,0,4,3,1,43,0004-00-0007-81.png,0003-00-0001-33.png
00000014,61,0,1440427171771,1440427171807,488,393,0,0,0,5,4,1,54,0005-00-0001-99.png,0004-00-0005-76.png
00000014,62,1,1440427174989,1440427175513,922,340,0,0,0,2,1,1,21,0002-00-0000-39.png,0001-00-0008-15.png
00000014,63,0,1440427176653,1440427177204,878,348,0,0,0,2,3,1,23,0002-00-0004-18.png,0003-00-0008-19.png
00000014,64,0,1440427180103,1440427180856,930,369,0,0,0,4,5,1,45,0004-00-0005-24.png,0005-00-0002-33.png
00000014,65,0,1440427183716,1440427183776,452,404,0,0,0,5,4,1,54,0005-00-0006-89.png,0004-00-0008-99.png
00000014,66,1,1440427186881,1440427187332,331,340,0,0,0,2,3,1,23,0002-00-0007-18.png,0003-00-0003-40.png
00000014,67,1,1440427188391,1440427188920,376,369,0,0,0,1,2,1,12,0001-00-0002-99.png,0002-00-0006-32.png
00000014,68,0,1440427190060,1440427190542,304,372,0,0,0,4,3,1,43,0004-00-0003-82.png,0003-00-0007-33.png
00000014,69,1,1440427193669,1440427194231,908,366,0,0,0,3,2,1,32,0003-00-0000-08.png,0002-00-0003-96.png
00000014,70,1,1440427195329,1440427195874,300,369,0,0,0,4,5,1,45,0004-00-0006-64.png,0005-00-0001-14.png
00000014,71,1,1440427196928,1440427197480,335,397,0,0,0,3,4,1,34,0003-00-0005-23.png,0004-00-0008-89.png
00000014,72,1,1440427198743,1440427199237,928,387,0,0,0,2,1,1,21,0002-00-0003-24.png,0001-00-0004-51.png
00000014,73,1,1440427200323,1440427200822,346,383,0,0,0,1,2,1,12,0001-00-0009-66.png,0002-00-0004-01.png
00000014,74,1,1440427202167,1440427202720,875,443,0,0,0,2,1,1,21,0002-00-0003-06.png,0001-00-0000-41.png
00000014,75,1,1440427203778,1440427204390,893,367,0,0,0,5,4,1,54,0005-00-0005-42.png,0004-00-0002-59.png
00000014,76,0,1440427205447,1440427205962,877,459,0,0,0,2,3,1,23,0002-00-0007-52.png,0003-00-0004-72.png
00000014,77,1,1440427208808,1440427209348,888,347,0,0,0,3,2,1,32,0003-00-0004-65.png,0002-00-0001-72.png
00000014,78,1,1440427210435,1440427210935,353,378,0,0,0,4,5,1,45,0004-00-0005-70.png,0005-00-0007-56.png
00000014,79,0,1440427212044,1440427212549,358,371,0,0,0,4,3,1,43,0004-00-0001-83.png,0003-00-0005-82.png
00000014,80,0,1440427215786,1440427216386,899,361,0,0,0,3,4,1,34,0003-00-0004-95.png,0004-00-0003-46.png
00000014,81,0,1440427219387,1440427219411,489,395,0,0,0,2,1,1,21,0002-00-0005-64.png,0001-00-0008-75.png
00000014,82,1,1440427222586,1440427223088,919,406,0,0,0,5,4,1,54,0005-00-0003-01.png,0004-00-0000-16.png
00000014,83,0,1440427224076,1440427224627,875,386,0,0,0,3,4,1,34,0003-00-0009-66.png,0004-00-0003-65.png
00000014,84,0,1440427227505,1440427227573,504,446,0,0,0,3,2,1,32,0003-00-0006-43.png,0002-00-0001-84.png
00000014,85,1,1440427230538,1440427230982,356,365,0,0,0,4,5,1,45,0004-00-0003-65.png,0005-00-0006-08.png
00000014,86,1,1440427232029,1440427232559,350,372,0,0,0,1,2,1,12,0001-00-0006-97.png,0002-00-0005-89.png
00000014,87,1,1440427233686,1440427234371,350,346,0,0,0,2,3,1,23,0002-00-0005-44.png,0003-00-0007-56.png
00000014,88,1,1440427235448,1440427236001,863,386,0,0,0,4,3,1,43,0004-00-0009-20.png,0003-00-0007-79.png
00000014,89,1,1440427237104,1440427237647,879,375,0,0,0,3,2,1,32,0003-00-0000-08.png,0002-00-0008-57.png
00000014,90,1,1440427238718,1440427239275,872,386,0,0,0,5,4,1,54,0005-00-0003-04.png,0004-00-0006-93.png
00000014,91,1,1440427240358,1440427240881,376,353,0,0,0,2,3,1,23,0002-00-0009-36.png,0003-00-0001-75.png
00000014,92,1,1440427242043,1440427242553,874,489,0,0,0,2,1,1,21,0002-00-0002-04.png,0001-00-0000-85.png
00000014,93,1,1440427243678,1440427244288,880,349,0,0,0,4,3,1,43,0004-00-0005-43.png,0003-00-0005-43.png
00000014,94,1,1440427245418,1440427245912,334,371,0,0,0,1,2,1,12,0001-00-0009-26.png,0002-00-0000-18.png
00000014,95,0,1440427247114,1440427247632,897,374,0,0,0,3,4,1,34,0003-00-0001-89.png,0004-00-0003-48.png
00000014,96,1,1440427250628,1440427250652,453,421,0,0,0,4,5,1,45,0004-00-0003-58.png,0005-00-0009-73.png
00000014,97,1,1440427251721,1440427252243,862,395,0,0,0,5,4,1,54,0005-00-0000-15.png,0004-00-0004-50.png
00000014,98,1,1440427253324,1440427253858,309,354,0,0,0,2,3,1,23,0002-00-0005-33.png,0003-00-0006-65.png
00000014,99,1,1440427255004,1440427255690,874,455,0,0,0,4,3,1,43,0004-00-0001-07.png,0003-00-0002-51.png
00000014,100,0,1440427256748,1440427257896,927,409,0,0,0,3,4,1,34,0003-00-0006-22.png,0004-00-0003-29.png
00000014,101,1,1440427260887,1440427260968,463,488,0,0,0,1,2,1,12,0001-00-0000-12.png,0002-00-0009-89.png
00000014,102,1,1440427262013,1440427262551,894,368,0,0,0,3,2,1,32,0003-00-0008-94.png,0002-00-0007-81.png
00000014,103,1,1440427263566,1440427264140,905,401,0,0,0,2,1,1,21,0002-00-0007-92.png,0001-00-0005-39.png
00000014,104,1,1440427265612,1440427266176,343,371,0,0,0,4,5,1,45,0004-00-0006-03.png,0005-00-0007-55.png
00000014,105,1,1440427267307,1440427267846,350,475,0,0,0,4,5,1,45,0004-00-0001-18.png,0005-00-0005-65.png
00000014,106,1,1440427269012,1440427269591,913,357,0,0,0,4,3,1,43,0004-00-0009-13.png,0003-00-0007-81.png
00000014,107,1,1440427270572,1440427271132,895,419,0,0,0,5,4,1,54,0005-00-0007-42.png,0004-00-0009-93.png
00000014,108,1,1440427272233,1440427272933,894,367,0,0,0,2,1,1,21,0002-00-0008-99.png,0001-00-0005-50.png
00000014,109,1,1440427274001,1440427274518,339,389,0,0,0,1,2,1,12,0001-00-0007-69.png,0002-00-0005-68.png
00000014,110,1,1440427275667,1440427276244,401,474,0,0,0,2,3,1,23,0002-00-0004-38.png,0003-00-0006-98.png
00000014,111,1,1440427277328,1440427277983,877,371,0,0,0,3,2,1,32,0003-00-0006-90.png,0002-00-0004-05.png
00000014,112,1,1440427279077,1440427279678,350,371,0,0,0,3,4,1,34,0003-00-0005-15.png,0004-00-0003-69.png
00000014,113,1,1440427280757,1440427281463,880,391,0,0,0,3,2,1,32,0003-00-0008-54.png,0002-00-0001-11.png
00000014,114,1,1440427282669,1440427283242,349,383,0,0,0,4,5,1,45,0004-00-0004-61.png,0005-00-0002-56.png
00000014,115,0,1440427284316,1440427284903,378,385,0,0,0,2,1,1,21,0002-00-0001-15.png,0001-00-0008-82.png
00000014,116,1,1440427287947,1440427287971,478,426,0,0,0,1,2,1,12,0001-00-0001-24.png,0002-00-0009-40.png
00000014,117,0,1440427289045,1440427289738,881,375,0,0,0,2,3,1,23,0002-00-0008-56.png,0003-00-0009-64.png
00000014,118,1,1440427292636,1440427292693,504,462,0,0,0,3,4,1,34,0003-00-0004-62.png,0004-00-0000-48.png
00000014,119,0,1440427293871,1440427294358,376,408,0,0,0,4,3,1,43,0004-00-0007-24.png,0003-00-0009-03.png
00000014,120,0,1440427297419,1440427297874,312,378,0,0,0,5,4,1,54,0005-00-0000-54.png,0004-00-0009-07.png
00000014,121,1,1440427301075,1440427301594,311,341,0,0,0,1,2,1,12,0001-00-0000-16.png,0002-00-0001-92.png
00000014,122,1,1440427302627,1440427303259,913,372,0,0,0,5,4,1,54,0005-00-0007-26.png,0004-00-0009-72.png
00000014,123,1,1440427304337,1440427304892,888,385,0,0,0,4,3,1,43,0004-00-0004-72.png,0003-00-0008-05.png
00000014,124,0,1440427306048,1440427306601,873,386,0,0,0,4,5,1,45,0004-00-0001-59.png,0005-00-0005-26.png
00000014,125,0,1440427309484,1440427310079,898,448,0,0,0,2,3,1,23,0002-00-0000-33.png,0003-00-0007-42.png
00000014,126,1,1440427313192,1440427313915,926,397,0,0,0,2,1,1,21,0002-00-0006-33.png,0001-00-0000-89.png
00000014,127,0,1440427314940,1440427315496,900,383,0,0,0,3,4,1,34,0003-00-0007-15.png,0004-00-0000-54.png
00000014,128,0,1440427318347,1440427318403,487,474,0,0,0,3,2,1,32,0003-00-0002-52.png,0002-00-0003-12.png
00000014,129,1,1440427321410,1440427321969,900,385,0,0,0,3,2,1,32,0003-00-0003-79.png,0002-00-0001-86.png
00000014,130,1,1440427323031,1440427323566,880,376,0,0,0,5,4,1,54,0005-00-0000-30.png,0004-00-0006-72.png
00000014,131,1,1440427324661,1440427325226,350,475,0,0,0,3,4,1,34,0003-00-0006-49.png,0004-00-0004-16.png
00000014,132,1,1440427326386,1440427327014,367,446,0,0,0,4,5,1,45,0004-00-0009-73.png,0005-00-0002-78.png
00000014,133,0,1440427328137,1440427329113,420,401,0,0,0,4,3,1,43,0004-00-0002-33.png,0003-00-0000-56.png
00000014,134,1,1440427332106,1440427332162,467,499,0,0,0,1,2,1,12,0001-00-0008-38.png,0002-00-0008-39.png
00000014,135,1,1440427333204,1440427333754,351,408,0,0,0,2,3,1,23,0002-00-0004-47.png,0003-00-0007-30.png
00000014,136,0,1440427334888,1440427335421,273,396,0,0,0,2,1,1,21,0002-00-0007-33.png,0001-00-0009-36.png
00000014,137,1,1440427338272,1440427338312,476,472,0,0,0,3,4,1,34,0003-00-0007-78.png,0004-00-0008-03.png
00000014,138,1,1440427339350,1440427340372,388,397,0,0,0,1,2,1,12,0001-00-0002-21.png,0002-00-0009-31.png
00000014,139,1,1440427341476,1440427342159,879,392,0,0,0,5,4,1,54,0005-00-0006-95.png,0004-00-0008-74.png
00000014,140,0,1440427343195,1440427343803,359,352,0,0,0,2,1,1,21,0002-00-0001-44.png,0001-00-0007-19.png
00000014,141,0,1440427346714,1440427346789,477,532,0,0,0,3,2,1,32,0003-00-0004-80.png,0002-00-0000-77.png
00000014,142,1,1440427349691,1440427349768,439,503,0,0,0,2,3,1,23,0002-00-0003-99.png,0003-00-0002-39.png
00000014,143,1,1440427350778,1440427351332,350,388,0,0,0,4,5,1,45,0004-00-0006-13.png,0005-00-0006-72.png
00000014,144,1,1440427352444,1440427353056,876,383,0,0,0,4,3,1,43,0004-00-0003-41.png,0003-00-0002-13.png
00000014,145,1,1440427354133,1440427354694,894,393,0,0,0,2,1,1,21,0002-00-0008-68.png,0001-00-0007-12.png
00000014,146,0,1440427355768,1440427356341,337,391,0,0,0,3,2,1,32,0003-00-0001-18.png,0002-00-0005-93.png
00000014,147,1,1440427359604,1440427360186,343,347,0,0,0,4,5,1,45,0004-00-0006-74.png,0005-00-0009-30.png
00000014,148,1,1440427361239,1440427361809,395,400,0,0,0,2,3,1,23,0002-00-0000-95.png,0003-00-0005-23.png
00000014,149,1,1440427362839,1440427363916,324,404,0,0,0,3,4,1,34,0003-00-0000-53.png,0004-00-0008-22.png
00000014,150,1,1440427364971,1440427365579,867,379,0,0,0,5,4,1,54,0005-00-0007-30.png,0004-00-0009-14.png
00000014,151,1,1440427366621,1440427367163,332,390,0,0,0,1,2,1,12,0001-00-0004-23.png,0002-00-0009-16.png
00000014,152,1,1440427368370,1440427369106,874,346,0,0,0,4,3,1,43,0004-00-0005-09.png,0003-00-0004-32.png
00000014,153,1,1440427370176,1440427370710,368,470,0,0,0,1,2,1,12,0001-00-0001-11.png,0002-00-0007-38.png
00000014,154,1,1440427371814,1440427372341,913,396,0,0,0,5,4,1,54,0005-00-0007-79.png,0004-00-0004-69.png
00000014,155,1,1440427373469,1440427374073,375,388,0,0,0,4,5,1,45,0004-00-0003-55.png,0005-00-0001-72.png
00000014,156,1,1440427375169,1440427375772,904,427,0,0,0,3,2,1,32,0003-00-0000-86.png,0002-00-0002-27.png
00000014,157,0,1440427376839,1440427377466,867,385,0,0,0,3,4,1,34,0003-00-0000-73.png,0004-00-0004-34.png
00000014,158,0,1440427380437,1440427380510,465,474,0,0,0,4,3,1,43,0004-00-0001-47.png,0003-00-0008-00.png
00000014,159,0,1440427383548,1440427383612,514,513,0,0,0,2,1,1,21,0002-00-0006-69.png,0001-00-0004-19.png
00000014,160,1,1440427386639,1440427387138,354,402,0,0,0,2,3,1,23,0002-00-0000-55.png,0003-00-0008-21.png
00000014,161,0,1440427388237,1440427388794,889,386,0,0,0,3,4,1,34,0003-00-0007-91.png,0004-00-0007-91.png
00000014,162,0,1440427391934,1440427392552,362,358,0,0,0,2,1,1,21,0002-00-0009-12.png,0001-00-0006-27.png
00000014,163,0,1440427395496,1440427395560,478,472,0,0,0,4,3,1,43,0004-00-0003-67.png,0003-00-0004-27.png
00000014,164,1,1440427398684,1440427399151,376,357,0,0,0,2,3,1,23,0002-00-0005-30.png,0003-00-0009-59.png
00000014,165,1,1440427400275,1440427400869,325,397,0,0,0,4,5,1,45,0004-00-0003-82.png,0005-00-0003-95.png
00000014,166,1,1440427401991,1440427402529,367,470,0,0,0,1,2,1,12,0001-00-0002-86.png,0002-00-0008-89.png
00000014,167,1,1440427403643,1440427404305,875,357,0,0,0,5,4,1,54,0005-00-0001-80.png,0004-00-0009-58.png
00000014,168,0,1440427405401,1440427405948,324,384,0,0,0,3,2,1,32,0003-00-0002-81.png,0002-00-0001-43.png
00000014,169,0,1440427408791,1440427408847,520,482,0,0,0,5,4,1,54,0005-00-0003-19.png,0004-00-0009-13.png
00000014,170,0,1440427412003,1440427412548,370,512,0,0,0,3,2,1,32,0003-00-0001-56.png,0002-00-0002-39.png
00000014,171,1,1440427415751,1440427416311,325,372,0,0,0,3,4,1,34,0003-00-0009-56.png,0004-00-0009-41.png
00000014,172,0,1440427417309,1440427417853,899,385,0,0,0,1,2,1,12,0001-00-0007-66.png,0002-00-0002-88.png
00000014,173,0,1440427420916,1440427421429,876,416,0,0,0,4,5,1,45,0004-00-0005-51.png,0005-00-0004-54.png
00000014,174,1,1440427424434,1440427424470,469,462,0,0,0,2,3,1,23,0002-00-0001-30.png,0003-00-0009-75.png
00000014,175,1,1440427425519,1440427426144,862,383,0,0,0,4,3,1,43,0004-00-0003-40.png,0003-00-0005-42.png
00000014,176,0,1440427427169,1440427427765,366,394,0,0,0,2,1,1,21,0002-00-0002-23.png,0001-00-0008-40.png
00000014,177,0,1440427430685,1440427430753,490,477,0,0,0,4,3,1,43,0004-00-0006-44.png,0003-00-0006-07.png
00000014,178,1,1440427433808,1440427434323,322,380,0,0,0,2,3,1,23,0002-00-0007-88.png,0003-00-0009-75.png
00000014,179,0,1440427435309,1440427435866,875,410,0,0,0,3,4,1,34,0003-00-0006-43.png,0004-00-0009-55.png
00000014,180,1,1440427439016,1440427439595,364,453,0,0,0,4,5,1,45,0004-00-0007-14.png,0005-00-0009-97.png
00000014,181,1,1440427440616,1440427441149,875,476,0,0,0,3,2,1,32,0003-00-0009-18.png,0002-00-0006-65.png
00000014,182,1,1440427442235,1440427442789,874,384,0,0,0,2,1,1,21,0002-00-0008-45.png,0001-00-0002-75.png
00000014,183,1,1440427443883,1440427444447,899,360,0,0,0,5,4,1,54,0005-00-0002-62.png,0004-00-0009-81.png
00000014,184,1,1440427445475,1440427446035,335,374,0,0,0,1,2,1,12,0001-00-0003-65.png,0002-00-0002-08.png
00000014,185,0,1440427447214,1440427447728,882,384,0,0,0,3,4,1,34,0003-00-0009-25.png,0004-00-0001-01.png
00000014,186,0,1440427450721,1440427450797,520,462,0,0,0,4,3,1,43,0004-00-0002-32.png,0003-00-0008-95.png
00000014,187,1,1440427453674,1440427453698,504,436,0,0,0,2,3,1,23,0002-00-0006-46.png,0003-00-0006-24.png
00000014,188,0,1440427454766,1440427455254,395,490,0,0,0,3,2,1,32,0003-00-0000-46.png,0002-00-0006-18.png
00000014,189,0,1440427458434,1440427458989,357,375,0,0,0,2,1,1,21,0002-00-0009-27.png,0001-00-0006-63.png
00000014,190,1,1440427462113,1440427462635,322,383,0,0,0,1,2,1,12,0001-00-0001-74.png,0002-00-0008-92.png
00000014,191,1,1440427463673,1440427464229,869,485,0,0,0,5,4,1,54,0005-00-0005-61.png,0004-00-0006-42.png
00000014,192,0,1440427465302,1440427465836,906,401,0,0,0,4,5,1,45,0004-00-0003-73.png,0005-00-0003-05.png
00000014,193,0,1440427468858,1440427468882,513,410,0,0,0,3,2,1,32,0003-00-0000-77.png,0002-00-0007-77.png
00000014,194,1,1440427471859,1440427472388,363,345,0,0,0,3,4,1,34,0003-00-0003-29.png,0004-00-0008-81.png
00000014,195,1,1440427473359,1440427473905,900,371,0,0,0,4,3,1,43,0004-00-0004-24.png,0003-00-0004-39.png
00000014,196,1,1440427474930,1440427475499,352,395,0,0,0,2,3,1,23,0002-00-0003-18.png,0003-00-0009-14.png
00000014,197,1,1440427476620,1440427477146,924,386,0,0,0,5,4,1,54,0005-00-0005-27.png,0004-00-0002-17.png
00000014,198,1,1440427478355,1440427478893,313,368,0,0,0,1,2,1,12,0001-00-0003-72.png,0002-00-0006-95.png
00000014,199,1,1440427479981,1440427480546,875,488,0,0,0,2,1,1,21,0002-00-0000-21.png,0001-00-0000-10.png
00000014,200,1,1440427481671,1440427482190,325,398,0,0,0,4,5,1,45,0004-00-0007-47.png,0005-00-0008-21.png
00000014,201,1,1440427483342,1440427484013,901,372,0,0,0,2,1,1,21,0002-00-0005-07.png,0001-00-0003-75.png
00000014,202,1,1440427485160,1440427485772,310,381,0,0,0,1,2,1,12,0001-00-0009-15.png,0002-00-0005-52.png
00000014,203,1,1440427486949,1440427487503,880,402,0,0,0,5,4,1,54,0005-00-0007-39.png,0004-00-0006-87.png
00000014,204,0,1440427488699,1440427489341,901,390,0,0,0,4,5,1,45,0004-00-0009-53.png,0005-00-0004-79.png
00000014,205,1,1440427492386,1440427492878,368,401,0,0,0,2,3,1,23,0002-00-0009-62.png,0003-00-0009-26.png
00000014,206,0,1440427493907,1440427494456,861,515,0,0,0,3,4,1,34,0003-00-0000-97.png,0004-00-0007-58.png
00000014,207,0,1440427497555,1440427498075,299,371,0,0,0,3,2,1,32,0003-00-0004-92.png,0002-00-0004-04.png
00000014,208,0,1440427501010,1440427501058,478,452,0,0,0,4,3,1,43,0004-00-0006-74.png,0003-00-0006-67.png
00000014,209,1,1440427504183,1440427504787,927,383,0,0,0,4,3,1,43,0004-00-0001-95.png,0003-00-0007-88.png
00000014,210,0,1440427505800,1440427506339,350,410,0,0,0,5,4,1,54,0005-00-0001-15.png,0004-00-0003-42.png
00000014,211,0,1440427509242,1440427509747,879,401,0,0,0,3,4,1,34,0003-00-0005-71.png,0004-00-0001-52.png
00000014,212,1,1440427512751,1440427512773,417,433,0,0,0,4,5,1,45,0004-00-0003-00.png,0005-00-0008-45.png
00000014,213,1,1440427513801,1440427514385,884,391,0,0,0,3,2,1,32,0003-00-0002-15.png,0002-00-0003-16.png
00000014,214,0,1440427515671,1440427516216,876,398,0,0,0,2,3,1,23,0002-00-0004-68.png,0003-00-0005-87.png
00000014,215,1,1440427519249,1440427519801,439,404,0,0,0,1,2,1,12,0001-00-0001-21.png,0002-00-0000-46.png
00000014,216,1,1440427520757,1440427521385,925,363,0,0,0,2,1,1,21,0002-00-0009-98.png,0001-00-0006-72.png
00000014,217,1,1440427522419,1440427522982,876,398,0,0,0,2,1,1,21,0002-00-0009-85.png,0001-00-0008-23.png
00000014,218,1,1440427524101,1440427525111,328,427,0,0,0,4,5,1,45,0004-00-0002-69.png,0005-00-0002-18.png
00000014,219,1,1440427526147,1440427526677,868,483,0,0,0,5,4,1,54,0005-00-0009-73.png,0004-00-0003-59.png
00000014,220,1,1440427527707,1440427528310,294,394,0,0,0,3,4,1,34,0003-00-0005-92.png,0004-00-0006-22.png
00000014,221,1,1440427529357,1440427529917,331,384,0,0,0,1,2,1,12,0001-00-0001-41.png,0002-00-0001-12.png
00000014,222,1,1440427530967,1440427531511,873,491,0,0,0,4,3,1,43,0004-00-0009-07.png,0003-00-0002-90.png
00000014,223,0,1440427532567,1440427533100,904,401,0,0,0,2,3,1,23,0002-00-0009-40.png,0003-00-0007-40.png
00000014,224,0,1440427536163,1440427536700,314,413,0,0,0,3,2,1,32,0003-00-0000-76.png,0002-00-0000-76.png
00000014,225,0,1440427539742,1440427540254,354,402,0,0,0,2,1,1,21,0002-00-0004-79.png,0001-00-0008-02.png
00000014,226,1,1440427543297,1440427543815,355,380,0,0,0,3,4,1,34,0003-00-0001-72.png,0004-00-0002-35.png
00000014,227,0,1440427544909,1440427545486,904,390,0,0,0,2,3,1,23,0002-00-0009-28.png,0003-00-0000-38.png
00000014,228,0,1440427548646,1440427549147,352,407,0,0,0,5,4,1,54,0005-00-0005-05.png,0004-00-0006-32.png
00000014,229,0,1440427552174,1440427552190,478,445,0,0,0,4,3,1,43,0004-00-0002-02.png,0003-00-0009-33.png
00000014,230,1,1440427555375,1440427555878,348,359,0,0,0,4,5,1,45,0004-00-0003-85.png,0005-00-0008-63.png
00000014,231,0,1440427556914,1440427557444,376,384,0,0,0,3,2,1,32,0003-00-0005-05.png,0002-00-0008-34.png
00000014,232,1,1440427560561,1440427561027,361,371,0,0,0,1,2,1,12,0001-00-0003-67.png,0002-00-0009-29.png
00000014,233,1,1440427562020,1440427562597,904,390,0,0,0,3,2,1,32,0003-00-0004-61.png,0002-00-0001-51.png
00000014,234,1,1440427563633,1440427564225,377,488,0,0,0,1,2,1,12,0001-00-0003-14.png,0002-00-0000-29.png
00000014,235,1,1440427565252,1440427565795,341,383,0,0,0,3,4,1,34,0003-00-0002-06.png,0004-00-0006-75.png
00000014,236,0,1440427566943,1440427567532,395,485,0,0,0,4,3,1,43,0004-00-0007-92.png,0003-00-0006-30.png
00000014,237,1,1440427578798,1440427579299,352,370,0,0,0,2,3,1,23,0002-00-0009-80.png,0003-00-0002-98.png
00000014,238,1,1440427580431,1440427580932,953,409,0,0,0,2,1,1,21,0002-00-0007-38.png,0001-00-0003-81.png
00000014,239,1,1440427581962,1440427582628,869,368,0,0,0,5,4,1,54,0005-00-0001-10.png,0004-00-0000-95.png
00000014,240,0,1440427583780,1440427584426,877,389,0,0,0,4,5,1,45,0004-00-0006-86.png,0005-00-0000-02.png
00000014,241,1,1440427587635,1440427588228,322,466,0,0,0,1,2,1,12,0001-00-0008-70.png,0002-00-0008-88.png
00000014,242,1,1440427589701,1440427590221,911,417,0,0,0,2,1,1,21,0002-00-0000-75.png,0001-00-0008-29.png
00000014,243,0,1440427591203,1440427591885,905,388,0,0,0,2,3,1,23,0002-00-0002-04.png,0003-00-0007-23.png
00000014,244,0,1440427595019,1440427595476,360,475,0,0,0,3,2,1,32,0003-00-0004-93.png,0002-00-0004-68.png
00000014,245,1,1440427598357,1440427598865,892,426,0,0,0,5,4,1,54,0005-00-0004-68.png,0004-00-0004-23.png
00000014,246,0,1440427599870,1440427600385,875,476,0,0,0,3,4,1,34,0003-00-0002-97.png,0004-00-0003-39.png
00000014,247,0,1440427603348,1440427603364,473,446,0,0,0,4,3,1,43,0004-00-0005-25.png,0003-00-0002-98.png
00000014,248,1,1440427606240,1440427606248,453,439,0,0,0,4,5,1,45,0004-00-0007-72.png,0005-00-0008-59.png
00000014,249,0,1440427607679,1440427608211,863,449,0,0,0,3,4,1,34,0003-00-0009-68.png,0004-00-0005-91.png
00000014,250,1,1440427611707,1440427612126,350,384,0,0,0,2,3,1,23,0002-00-0008-10.png,0003-00-0002-98.png
00000014,251,1,1440427613085,1440427614066,292,395,0,0,0,4,5,1,45,0004-00-0009-75.png,0005-00-0000-51.png
00000014,252,0,1440427615104,1440427615645,325,384,0,0,0,2,1,1,21,0002-00-0006-44.png,0001-00-0006-98.png
00000014,253,0,1440427618800,1440427619397,311,358,0,0,0,5,4,1,54,0005-00-0007-49.png,0004-00-0007-17.png
00000014,254,0,1440427622249,1440427622775,326,404,0,0,0,4,3,1,43,0004-00-0000-15.png,0003-00-0000-34.png
00000014,255,0,1440427625698,1440427626204,879,375,0,0,0,1,2,1,12,0001-00-0009-45.png,0002-00-0001-89.png
00000014,256,0,1440427629159,1440427629201,467,422,0,0,0,3,2,1,32,0003-00-0004-00.png,0002-00-0006-34.png
00000014,257,0,1440427632725,1440427633187,352,373,0,0,0,5,4,1,54,0005-00-0005-64.png,0004-00-0003-96.png
00000014,258,0,1440427636172,1440427636216,453,467,0,0,0,4,3,1,43,0004-00-0009-52.png,0003-00-0005-77.png
00000014,259,0,1440427639225,1440427639300,518,500,0,0,0,3,2,1,32,0003-00-0008-63.png,0002-00-0003-26.png
00000014,260,1,1440427642304,1440427642348,496,482,0,0,0,1,2,1,12,0001-00-0002-74.png,0002-00-0005-01.png
00000014,261,1,1440427643398,1440427643900,361,371,0,0,0,4,5,1,45,0004-00-0002-30.png,0005-00-0009-54.png
00000014,262,0,1440427645038,1440427645559,861,424,0,0,0,3,4,1,34,0003-00-0001-65.png,0004-00-0007-17.png
00000014,263,0,1440427648726,1440427649191,398,366,0,0,0,2,1,1,21,0002-00-0008-15.png,0001-00-0005-88.png
00000014,264,1,1440427652161,1440427652181,453,399,0,0,0,2,3,1,23,0002-00-0002-61.png,0003-00-0009-03.png
00000014,265,1,1440427653277,1440427653822,353,410,0,0,0,1,2,1,12,0001-00-0001-99.png,0002-00-0003-70.png
00000014,266,1,1440427654848,1440427655421,903,389,0,0,0,3,2,1,32,0003-00-0000-82.png,0002-00-0002-57.png
00000014,267,1,1440427656478,1440427656988,401,397,0,0,0,3,4,1,34,0003-00-0009-96.png,0004-00-0001-25.png
00000014,268,1,1440427658053,1440427658598,877,493,0,0,0,2,1,1,21,0002-00-0009-44.png,0001-00-0005-30.png
00000014,269,0,1440427659638,1440427660169,314,388,0,0,0,4,3,1,43,0004-00-0007-24.png,0003-00-0007-25.png
00000014,270,0,1440427663732,1440427664284,348,387,0,0,0,5,4,1,54,0005-00-0004-53.png,0004-00-0002-63.png
00000014,271,1,1440427667602,1440427668150,299,360,0,0,0,2,3,1,23,0002-00-0007-19.png,0003-00-0003-95.png
00000014,272,1,1440427669208,1440427669727,321,376,0,0,0,4,5,1,45,0004-00-0000-98.png,0005-00-0006-79.png
00000014,273,1,1440427670801,1440427671290,893,403,0,0,0,3,2,1,32,0003-00-0007-16.png,0002-00-0002-79.png
00000014,274,1,1440427672338,1440427672919,376,397,0,0,0,4,5,1,45,0004-00-0008-53.png,0005-00-0006-95.png
00000014,275,1,1440427673959,1440427674516,876,409,0,0,0,4,3,1,43,0004-00-0002-18.png,0003-00-0003-30.png
00000014,276,1,1440427675670,1440427676166,342,388,0,0,0,1,2,1,12,0001-00-0001-42.png,0002-00-0002-92.png
00000014,277,0,1440427677220,1440427678230,389,476,0,0,0,2,1,1,21,0002-00-0008-98.png,0001-00-0006-09.png
00000014,278,0,1440427681384,1440427681976,325,345,0,0,0,5,4,1,54,0005-00-0000-64.png,0004-00-0009-46.png
00000014,279,1,1440427684871,1440427684927,453,472,0,0,0,2,3,1,23,0002-00-0006-18.png,0003-00-0008-17.png
00000014,280,1,1440427685913,1440427686408,347,391,0,0,0,3,4,1,34,0003-00-0000-51.png,0004-00-0008-90.png
00000014,281,1,1440427687415,1440427688031,875,410,0,0,0,3,2,1,32,0003-00-0000-67.png,0002-00-0002-20.png
00000014,282,1,1440427689449,1440427689956,870,394,0,0,0,4,3,1,43,0004-00-0003-69.png,0003-00-0003-69.png
00000014,283,1,1440427690962,1440427691499,401,384,0,0,0,3,4,1,34,0003-00-0001-88.png,0004-00-0009-79.png
00000014,284,1,1440427692494,1440427693267,869,383,0,0,0,2,1,1,21,0002-00-0005-08.png,0001-00-0004-09.png
00000014,285,1,1440427694173,1440427694802,365,412,0,0,0,4,5,1,45,0004-00-0008-76.png,0005-00-0004-03.png
00000014,286,1,1440427695814,1440427696401,318,390,0,0,0,1,2,1,12,0001-00-0000-62.png,0002-00-0004-52.png
00000014,287,1,1440427697429,1440427698012,390,385,0,0,0,2,3,1,23,0002-00-0009-07.png,0003-00-0002-36.png
00000014,288,1,1440427699064,1440427699617,910,419,0,0,0,5,4,1,54,0005-00-0005-24.png,0004-00-0003-29.png
00000014,289,0,1440427700674,1440427701837,929,415,0,0,0,3,4,1,34,0003-00-0007-20.png,0004-00-0003-33.png
00000014,290,1,1440427705030,1440427705531,401,423,0,0,0,1,2,1,12,0001-00-0000-90.png,0002-00-0007-56.png
00000014,291,0,1440427706588,1440427707116,862,398,0,0,0,4,5,1,45,0004-00-0004-45.png,0005-00-0002-50.png
00000014,292,1,1440427710168,1440427710692,890,484,0,0,0,2,1,1,21,0002-00-0007-01.png,0001-00-0005-89.png
00000014,293,0,1440427711665,1440427712239,391,390,0,0,0,3,2,1,32,0003-00-0009-93.png,0002-00-0005-14.png
00000014,294,0,1440427715264,1440427715803,900,385,0,0,0,2,3,1,23,0002-00-0008-74.png,0003-00-0008-47.png
00000014,295,0,1440427718920,1440427718964,515,494,0,0,0,4,3,1,43,0004-00-0004-13.png,0003-00-0001-81.png
00000014,296,0,1440427721863,1440427721868,471,453,0,0,0,5,4,1,54,0005-00-0008-39.png,0004-00-0005-17.png
00000014,297,1,1440427724752,1440427724800,504,477,0,0,0,4,5,1,45,0004-00-0003-04.png,0005-00-0002-32.png
00000014,298,0,1440427725788,1440427726327,341,388,0,0,0,4,3,1,43,0004-00-0000-78.png,0003-00-0005-76.png
00000014,299,0,1440427729162,1440427729711,381,383,0,0,0,5,4,1,54,0005-00-0008-90.png,0004-00-0009-07.png
00000014,300,1,1440427732882,1440427733473,416,521,0,0,0,1,2,1,12,0001-00-0008-68.png,0002-00-0001-99.png
00000014,301,1,1440427734574,1440427735129,873,490,0,0,0,3,2,1,32,0003-00-0002-25.png,0002-00-0003-12.png
00000014,302,0,1440427736153,1440427736660,877,485,0,0,0,3,4,1,34,0003-00-0003-68.png,0004-00-0003-92.png
00000014,303,0,1440427739731,1440427739787,504,510,0,0,0,2,1,1,21,0002-00-0000-90.png,0001-00-0005-31.png
00000014,304,1,1440427742871,1440427743365,401,384,0,0,0,2,3,1,23,0002-00-0001-92.png,0003-00-0007-42.png
00000014,305,1,1440427744346,1440427744855,925,397,0,0,0,2,1,1,21,0002-00-0006-27.png,0001-00-0008-27.png
00000014,306,1,1440427745852,1440427746351,323,397,0,0,0,1,2,1,12,0001-00-0004-14.png,0002-00-0002-42.png
00000014,307,1,1440427747412,1440427747935,876,392,0,0,0,5,4,1,54,0005-00-0003-97.png,0004-00-0007-62.png
00000014,308,1,1440427748992,1440427749562,411,493,0,0,0,2,3,1,23,0002-00-0003-45.png,0003-00-0004-22.png
00000014,309,1,1440427750602,1440427751204,339,392,0,0,0,4,5,1,45,0004-00-0006-04.png,0005-00-0004-98.png
00000014,310,0,1440427752223,1440427752723,352,377,0,0,0,3,2,1,32,0003-00-0008-82.png,0002-00-0009-27.png
00000014,311,0,1440427755558,1440427756116,337,358,0,0,0,4,3,1,43,0004-00-0009-78.png,0003-00-0008-64.png
00000014,312,1,1440427759087,1440427759613,363,371,0,0,0,3,4,1,34,0003-00-0009-39.png,0004-00-0002-43.png
00000014,313,0,1440427760610,1440427761177,875,386,0,0,0,2,3,1,23,0002-00-0009-71.png,0003-00-0008-24.png
00000014,314,0,1440427764034,1440427764520,350,384,0,0,0,4,3,1,43,0004-00-0002-67.png,0003-00-0007-60.png
00000014,315,1,1440427767371,1440427768006,879,325,0,0,0,5,4,1,54,0005-00-0005-28.png,0004-00-0005-00.png
00000014,316,1,1440427769018,1440427769593,900,371,0,0,0,2,1,1,21,0002-00-0003-05.png,0001-00-0006-10.png
00000014,317,1,1440427770597,1440427771150,875,396,0,0,0,3,2,1,32,0003-00-0004-34.png,0002-00-0001-84.png
00000014,318,1,1440427772158,1440427772742,360,400,0,0,0,4,5,1,45,0004-00-0008-58.png,0005-00-0003-81.png
00000014,319,1,1440427773818,1440427774292,323,397,0,0,0,1,2,1,12,0001-00-0007-69.png,0002-00-0002-34.png
00000014,320,1,1440427775340,1440427776397,403,393,0,0,0,3,4,1,34,0003-00-0005-65.png,0004-00-0006-21.png
00000014,321,0,1440427777421,1440427777947,222,462,0,0,0,5,4,1,54,0005-00-0004-02.png,0004-00-0003-96.png
00000014,322,0,1440427780784,1440427780800,512,419,0,0,0,4,3,1,43,0004-00-0000-20.png,0003-00-0005-78.png
00000014,323,0,1440427783963,1440427784417,899,422,0,0,0,3,4,1,34,0003-00-0008-85.png,0004-00-0006-93.png
00000014,324,1,1440427787289,1440427787337,478,436,0,0,0,2,3,1,23,0002-00-0002-61.png,0003-00-0006-97.png
00000014,325,0,1440427788368,1440427788828,376,358,0,0,0,3,2,1,32,0003-00-0007-11.png,0002-00-0008-95.png
00000014,326,1,1440427791836,1440427791891,518,491,0,0,0,1,2,1,12,0001-00-0001-04.png,0002-00-0003-36.png
00000014,327,0,1440427792887,1440427793452,326,390,0,0,0,2,1,1,21,0002-00-0008-58.png,0001-00-0005-22.png
00000014,328,1,1440427796606,1440427797165,334,371,0,0,0,4,5,1,45,0004-00-0001-15.png,0005-00-0007-24.png
00000014,329,0,1440427798176,1440427799128,414,396,0,0,0,4,3,1,43,0004-00-0007-73.png,0003-00-0009-02.png
00000014,330,0,1440427802233,1440427802253,453,445,0,0,0,5,4,1,54,0005-00-0005-06.png,0004-00-0006-46.png
00000014,331,0,1440427805300,1440427805803,923,352,0,0,0,2,3,1,23,0002-00-0009-43.png,0003-00-0009-40.png
00000014,332,0,1440427808742,1440427808826,478,541,0,0,0,3,2,1,32,0003-00-0009-54.png,0002-00-0000-49.png
00000014,333,0,1440427811755,1440427811789,485,443,0,0,0,2,1,1,21,0002-00-0003-12.png,0001-00-0002-81.png
00000014,334,1,1440427816141,1440427816727,316,414,0,0,0,4,5,1,45,0004-00-0004-28.png,0005-00-0005-01.png
00000014,335,1,1440427817693,1440427818277,465,397,0,0,0,3,4,1,34,0003-00-0001-75.png,0004-00-0009-00.png
00000014,336,1,1440427819302,1440427819920,411,501,0,0,0,1,2,1,12,0001-00-0007-98.png,0002-00-0007-84.png
00000014,337,1,1440427820911,1440427821853,350,395,0,0,0,4,5,1,45,0004-00-0005-22.png,0005-00-0009-42.png
00000014,338,1,1440427822862,1440427823466,902,423,0,0,0,4,3,1,43,0004-00-0000-87.png,0003-00-0008-33.png
00000014,339,0,1440427824491,1440427824965,901,409,0,0,0,3,4,1,34,0003-00-0004-63.png,0004-00-0001-03.png
00000014,340,1,1440427828021,1440427828481,414,371,0,0,0,2,3,1,23,0002-00-0008-81.png,0003-00-0008-32.png
00000014,341,0,1440427829510,1440427830081,905,402,0,0,0,1,2,1,12,0001-00-0008-52.png,0002-00-0007-93.png
00000014,342,1,1440427833078,1440427833676,870,471,0,0,0,5,4,1,54,0005-00-0006-30.png,0004-00-0007-41.png
00000014,343,0,1440427834646,1440427835166,365,382,0,0,0,2,1,1,21,0002-00-0009-30.png,0001-00-0009-64.png
00000014,344,1,1440427838158,1440427838806,902,384,0,0,0,3,2,1,32,0003-00-0007-18.png,0002-00-0009-60.png
00000014,345,1,1440427839786,1440427840354,878,389,0,0,0,2,1,1,21,0002-00-0002-34.png,0001-00-0007-63.png
00000014,346,1,1440427841348,1440427841991,880,402,0,0,0,4,3,1,43,0004-00-0004-88.png,0003-00-0006-19.png
00000014,347,0,1440427842993,1440427843567,319,408,0,0,0,3,2,1,32,0003-00-0000-34.png,0002-00-0008-99.png
00000014,348,1,1440427846701,1440427847166,376,410,0,0,0,1,2,1,12,0001-00-0000-25.png,0002-00-0005-01.png
00000014,349,1,1440427848134,1440427848807,899,483,0,0,0,5,4,1,54,0005-00-0006-74.png,0004-00-0000-79.png
00000014,350,0,1440427849804,1440427850378,865,430,0,0,0,4,5,1,45,0004-00-0001-26.png,0005-00-0008-24.png
00000014,351,1,1440427853432,1440427853488,491,478,0,0,0,3,4,1,34,0003-00-0009-03.png,0004-00-0007-07.png
00000014,352,0,1440427854489,1440427855031,876,390,0,0,0,2,3,1,23,0002-00-0008-55.png,0003-00-0009-09.png
00000014,353,0,1440427858063,1440427858119,494,498,0,0,0,4,3,1,43,0004-00-0007-38.png,0003-00-0007-96.png
00000014,354,0,1440427861250,1440427861785,337,406,0,0,0,3,2,1,32,0003-00-0007-74.png,0002-00-0009-33.png
00000014,355,1,1440427864971,1440427865450,317,377,0,0,0,3,4,1,34,0003-00-0002-39.png,0004-00-0007-72.png
00000014,356,0,1440427866451,1440427866983,376,358,0,0,0,2,1,1,21,0002-00-0005-96.png,0001-00-0004-71.png
00000014,357,1,1440427870616,1440427871146,325,371,0,0,0,1,2,1,12,0001-00-0004-99.png,0002-00-0004-69.png
00000014,358,0,1440427872621,1440427873115,888,386,0,0,0,2,3,1,23,0002-00-0004-18.png,0003-00-0008-88.png
00000014,359,0,1440427876170,1440427876894,862,475,0,0,0,4,5,1,45,0004-00-0008-61.png,0005-00-0007-63.png
00000014,360,0,1440427879757,1440427879833,503,543,0,0,0,5,4,1,54,0005-00-0000-74.png,0004-00-0000-16.png
00000014,361,1,1440427883006,1440427883552,351,369,0,0,0,1,2,1,12,0001-00-0005-52.png,0002-00-0001-35.png
00000014,362,0,1440427884489,1440427885108,360,381,0,0,0,3,2,1,32,0003-00-0004-96.png,0002-00-0006-63.png
00000014,363,0,1440427888015,1440427888689,955,391,0,0,0,3,4,1,34,0003-00-0006-10.png,0004-00-0006-73.png
00000014,364,0,1440427891845,1440427892326,338,371,0,0,0,5,4,1,54,0005-00-0007-68.png,0004-00-0001-93.png
00000014,365,0,1440427895711,1440427896296,935,474,0,0,0,2,3,1,23,0002-00-0009-79.png,0003-00-0001-26.png
00000014,366,1,1440427899853,1440427900345,924,379,0,0,0,2,1,1,21,0002-00-0005-99.png,0001-00-0005-30.png
00000014,367,0,1440427901384,1440427901949,875,398,0,0,0,4,5,1,45,0004-00-0006-27.png,0005-00-0008-87.png
00000014,368,0,1440427904850,1440427905367,322,384,0,0,0,4,3,1,43,0004-00-0001-05.png,0003-00-0001-82.png
00000014,369,1,1440427908615,1440427909210,319,359,0,0,0,2,3,1,23,0002-00-0003-59.png,0003-00-0004-10.png
00000014,370,0,1440427910188,1440427910692,879,375,0,0,0,4,5,1,45,0004-00-0009-21.png,0005-00-0008-24.png
00000014,371,1,1440427913876,1440427914309,879,401,0,0,0,2,1,1,21,0002-00-0009-93.png,0001-00-0003-47.png
00000014,372,1,1440427915296,1440427915899,350,345,0,0,0,1,2,1,12,0001-00-0004-96.png,0002-00-0001-62.png
00000014,373,1,1440427916938,1440427917468,870,472,0,0,0,4,3,1,43,0004-00-0000-23.png,0003-00-0000-56.png
00000014,374,0,1440427918506,1440427919059,376,384,0,0,0,3,2,1,32,0003-00-0008-35.png,0002-00-0003-88.png
00000014,375,1,1440427922144,1440427922788,914,449,0,0,0,5,4,1,54,0005-00-0001-56.png,0004-00-0009-00.png
00000014,376,1,1440427923714,1440427924273,437,505,0,0,0,3,4,1,34,0003-00-0003-67.png,0004-00-0003-63.png
00000014,377,0,1440427925291,1440427925826,905,401,0,0,0,2,3,1,23,0002-00-0009-40.png,0003-00-0006-06.png
00000014,378,1,1440427928662,1440427928690,487,436,0,0,0,4,5,1,45,0004-00-0006-06.png,0005-00-0003-78.png
00000014,379,1,1440427929686,1440427930205,879,401,0,0,0,4,3,1,43,0004-00-0005-35.png,0003-00-0008-74.png
00000014,380,1,1440427931199,1440427931815,875,397,0,0,0,2,1,1,21,0002-00-0001-65.png,0001-00-0006-26.png
00000014,381,1,1440427932827,1440427933373,901,409,0,0,0,5,4,1,54,0005-00-0009-27.png,0004-00-0002-18.png
00000014,382,0,1440427934356,1440427934932,879,375,0,0,0,3,4,1,34,0003-00-0000-09.png,0004-00-0005-05.png
00000014,383,1,1440427937783,1440427937791,472,469,0,0,0,1,2,1,12,0001-00-0007-71.png,0002-00-0000-02.png
00000014,384,1,1440427938828,1440427939447,870,368,0,0,0,3,2,1,32,0003-00-0004-48.png,0002-00-0004-31.png
00000014,385,0,1440427940454,1440427941061,874,397,0,0,0,1,2,1,12,0001-00-0009-37.png,0002-00-0008-41.png
00000014,386,0,1440427944226,1440427944687,325,395,0,0,0,2,1,1,21,0002-00-0006-57.png,0001-00-0000-17.png
00000014,387,0,1440427947743,1440427948239,904,401,0,0,0,2,3,1,23,0002-00-0006-81.png,0003-00-0006-43.png
00000014,388,0,1440427951242,1440427951286,496,506,0,0,0,4,3,1,43,0004-00-0007-68.png,0003-00-0006-63.png
00000014,389,1,1440427954323,1440427954794,340,389,0,0,0,4,5,1,45,0004-00-0002-35.png,0005-00-0000-56.png
00000014,390,1,1440427955863,1440427956405,924,362,0,0,0,5,4,1,54,0005-00-0001-99.png,0004-00-0009-83.png
00000014,391,0,1440427957464,1440427957996,401,410,0,0,0,3,2,1,32,0003-00-0002-12.png,0002-00-0000-62.png
00000014,392,1,1440427960942,1440427960962,492,440,0,0,0,3,4,1,34,0003-00-0009-39.png,0004-00-0005-82.png
00000014,393,0,1440427961956,1440427962536,321,386,0,0,0,3,2,1,32,0003-00-0008-35.png,0002-00-0002-01.png
00000014,394,1,1440427965681,1440427966156,392,402,0,0,0,4,5,1,45,0004-00-0007-32.png,0005-00-0007-52.png
00000014,395,0,1440427967216,1440427967736,906,419,0,0,0,1,2,1,12,0001-00-0004-38.png,0002-00-0004-43.png
00000014,396,0,1440427970661,1440427971210,912,424,0,0,0,2,3,1,23,0002-00-0004-19.png,0003-00-0009-05.png
00000014,397,0,1440427974420,1440427974444,519,497,0,0,0,5,4,1,54,0005-00-0002-39.png,0004-00-0002-97.png
00000014,398,0,1440427977560,1440427978083,864,411,0,0,0,3,4,1,34,0003-00-0002-03.png,0004-00-0009-73.png
00000014,399,1,1440427981353,1440427981918,905,401,0,0,0,4,3,1,43,0004-00-0005-73.png,0003-00-0001-86.png
00000014,400,0,1440427982975,1440427983516,374,501,0,0,0,2,1,1,21,0002-00-0004-50.png,0001-00-0003-58.png
00000014,401,0,1440427990651,1440427991148,325,378,0,0,0,5,4,1,54,0005-00-0007-36.png,0004-00-0002-24.png
00000014,402,1,1440427999743,1440428000230,947,419,0,0,0,3,2,1,32,0003-00-0006-25.png,0002-00-0002-56.png
00000014,403,1,1440428003183,1440428003709,874,490,0,0,0,4,3,1,43,0004-00-0001-59.png,0003-00-0001-16.png
00000014,404,0,1440428005031,1440428005577,880,402,0,0,0,1,2,1,12,0001-00-0001-75.png,0002-00-0008-27.png
00000014,405,1,1440428008501,1440428008996,341,383,0,0,0,2,3,1,23,0002-00-0008-13.png,0003-00-0003-12.png
00000014,406,0,1440428009961,1440428010563,898,378,0,0,0,4,5,1,45,0004-00-0006-60.png,0005-00-0006-46.png
00000014,407,0,1440428013628,1440428014131,412,406,0,0,0,2,1,1,21,0002-00-0000-60.png,0001-00-0000-40.png
00000014,408,1,1440428017227,1440428017670,321,389,0,0,0,3,4,1,34,0003-00-0006-09.png,0004-00-0004-53.png
00000014,409,1,1440428018616,1440428019146,885,491,0,0,0,3,2,1,32,0003-00-0004-79.png,0002-00-0005-26.png
00000014,410,1,1440428020146,1440428020679,869,393,0,0,0,2,1,1,21,0002-00-0004-11.png,0001-00-0008-06.png
00000014,411,0,1440428021675,1440428022207,879,402,0,0,0,4,5,1,45,0004-00-0001-71.png,0005-00-0001-12.png
00000014,412,1,1440428025454,1440428026581,314,398,0,0,0,2,3,1,23,0002-00-0005-72.png,0003-00-0007-87.png
00000014,413,1,1440428027581,1440428028128,875,356,0,0,0,4,3,1,43,0004-00-0005-04.png,0003-00-0000-12.png
00000014,414,0,1440428029102,1440428029753,903,388,0,0,0,1,2,1,12,0001-00-0007-87.png,0002-00-0009-89.png
00000014,415,1,1440428032998,1440428033479,878,365,0,0,0,5,4,1,54,0005-00-0007-80.png,0004-00-0005-04.png
00000014,416,0,1440428034488,1440428035047,928,387,0,0,0,3,4,1,34,0003-00-0000-11.png,0004-00-0008-45.png
00000014,417,1,1440428037934,1440428038461,273,436,0,0,0,1,2,1,12,0001-00-0009-03.png,0002-00-0003-32.png
00000014,418,1,1440428039528,1440428040018,913,358,0,0,0,4,3,1,43,0004-00-0003-61.png,0003-00-0006-06.png
00000014,419,1,1440428041077,1440428041611,342,388,0,0,0,4,5,1,45,0004-00-0007-51.png,0005-00-0007-25.png
00000014,420,1,1440428042757,1440428043660,304,404,0,0,0,3,4,1,34,0003-00-0006-43.png,0004-00-0006-38.png
00000014,421,0,1440428044802,1440428045328,875,435,0,0,0,2,3,1,23,0002-00-0001-75.png,0003-00-0007-09.png
00000014,422,1,1440428048452,1440428049002,922,393,0,0,0,2,1,1,21,0002-00-0003-06.png,0001-00-0007-93.png
00000014,423,0,1440428050014,1440428050596,359,397,0,0,0,3,2,1,32,0003-00-0008-52.png,0002-00-0002-40.png
00000014,424,1,1440428053557,1440428054143,931,402,0,0,0,5,4,1,54,0005-00-0006-40.png,0004-00-0009-22.png
00000014,425,1,1440428055119,1440428056159,404,509,0,0,0,3,4,1,34,0003-00-0003-32.png,0004-00-0007-59.png
00000014,426,1,1440428057187,1440428057848,873,431,0,0,0,5,4,1,54,0005-00-0000-61.png,0004-00-0000-60.png
00000014,427,0,1440428058885,1440428059421,408,403,0,0,0,3,2,1,32,0003-00-0003-67.png,0002-00-0003-52.png
00000014,428,1,1440428062333,1440428062357,504,426,0,0,0,1,2,1,12,0001-00-0004-10.png,0002-00-0006-19.png
00000014,429,1,1440428063375,1440428063914,870,384,0,0,0,2,1,1,21,0002-00-0008-38.png,0001-00-0004-16.png
00000014,430,1,1440428064985,1440428065536,876,382,0,0,0,4,3,1,43,0004-00-0003-69.png,0003-00-0005-86.png
00000014,431,1,1440428066598,1440428067063,365,397,0,0,0,2,3,1,23,0002-00-0002-08.png,0003-00-0003-22.png
00000014,432,1,1440428068060,1440428068659,344,409,0,0,0,4,5,1,45,0004-00-0002-74.png,0005-00-0000-66.png
00000014,433,1,1440428069557,1440428070128,239,462,0,0,0,1,2,1,12,0001-00-0004-77.png,0002-00-0005-19.png
00000014,434,0,1440428071075,1440428071676,873,510,0,0,0,3,4,1,34,0003-00-0009-11.png,0004-00-0003-18.png
00000014,435,0,1440428076038,1440428076604,926,410,0,0,0,4,5,1,45,0004-00-0003-79.png,0005-00-0009-49.png
00000014,436,0,1440428081116,1440428081140,470,410,0,0,0,4,3,1,43,0004-00-0003-00.png,0003-00-0000-03.png
00000014,437,1,1440428084137,1440428084607,302,404,0,0,0,2,3,1,23,0002-00-0007-11.png,0003-00-0005-94.png
00000014,438,1,1440428085658,1440428086204,862,410,0,0,0,2,1,1,21,0002-00-0007-00.png,0001-00-0006-85.png
00000014,439,1,1440428087190,1440428087772,915,425,0,0,0,5,4,1,54,0005-00-0008-18.png,0004-00-0002-56.png
00000014,440,1,1440428088695,1440428089336,880,418,0,0,0,3,2,1,32,0003-00-0000-17.png,0002-00-0003-44.png
00000014,441,0,1440428090279,1440428090900,389,397,0,0,0,5,4,1,54,0005-00-0006-30.png,0004-00-0003-16.png
00000014,442,1,1440428094126,1440428094553,877,495,0,0,0,2,1,1,21,0002-00-0003-99.png,0001-00-0003-42.png
00000014,443,1,1440428095476,1440428096109,350,399,0,0,0,4,5,1,45,0004-00-0001-28.png,0005-00-0001-05.png
00000014,444,1,1440428097087,1440428097629,358,375,0,0,0,1,2,1,12,0001-00-0007-05.png,0002-00-0000-76.png
00000014,445,1,1440428098623,1440428099178,349,397,0,0,0,2,3,1,23,0002-00-0003-64.png,0003-00-0009-29.png
00000014,446,0,1440428100157,1440428100726,427,384,0,0,0,4,3,1,43,0004-00-0004-22.png,0003-00-0002-87.png
00000014,447,0,1440428105066,1440428105569,895,420,0,0,0,3,4,1,34,0003-00-0003-14.png,0004-00-0008-52.png
00000014,448,1,1440428108544,1440428109160,875,384,0,0,0,3,2,1,32,0003-00-0005-57.png,0002-00-0005-29.png
00000014,449,0,1440428110085,1440428110676,432,479,0,0,0,4,3,1,43,0004-00-0007-81.png,0003-00-0005-54.png
00000014,450,1,1440428115441,1440428116218,877,418,0,0,0,3,2,1,32,0003-00-0006-40.png,0002-00-0003-22.png
00000014,451,0,1440428123969,1440428124519,914,371,0,0,0,1,2,1,12,0001-00-0002-95.png,0002-00-0000-57.png
00000014,452,1,1440428127668,1440428128132,366,402,0,0,0,3,4,1,34,0003-00-0008-75.png,0004-00-0007-19.png
00000014,453,1,1440428129100,1440428129769,887,509,0,0,0,2,1,1,21,0002-00-0008-97.png,0001-00-0007-74.png
00000014,454,0,1440428141112,1440428141727,982,402,0,0,0,2,3,1,23,0002-00-0007-16.png,0003-00-0003-10.png
00000014,455,1,1440428145665,1440428146248,921,472,0,0,0,5,4,1,54,0005-00-0007-99.png,0004-00-0007-83.png
00000014,456,1,1440428147236,1440428147812,362,398,0,0,0,4,5,1,45,0004-00-0000-89.png,0005-00-0001-96.png
00000014,457,1,1440428148786,1440428149355,349,432,0,0,0,4,5,1,45,0004-00-0003-70.png,0005-00-0003-04.png
00000014,458,1,1440428150345,1440428151007,359,411,0,0,0,3,4,1,34,0003-00-0002-53.png,0004-00-0009-50.png
00000014,459,1,1440428151971,1440428152553,862,436,0,0,0,3,2,1,32,0003-00-0008-87.png,0002-00-0003-17.png
00000014,460,1,1440428153507,1440428154061,897,430,0,0,0,4,3,1,43,0004-00-0004-78.png,0003-00-0001-61.png
00000014,461,1,1440428155037,1440428155627,376,387,0,0,0,1,2,1,12,0001-00-0001-53.png,0002-00-0000-82.png
00000014,462,1,1440428156597,1440428157159,222,488,0,0,0,2,3,1,23,0002-00-0003-90.png,0003-00-0009-87.png
00000014,463,0,1440428158206,1440428158820,325,449,0,0,0,2,1,1,21,0002-00-0007-23.png,0001-00-0005-88.png
00000014,464,0,1440428162142,1440428162606,348,400,0,0,0,5,4,1,54,0005-00-0007-30.png,0004-00-0003-97.png
00000014,465,1,1440428165569,1440428165617,504,410,0,0,0,3,4,1,34,0003-00-0001-98.png,0004-00-0008-00.png
00000014,466,1,1440428166582,1440428167174,876,503,0,0,0,4,3,1,43,0004-00-0009-97.png,0003-00-0003-72.png
00000014,467,1,1440428168192,1440428168759,923,394,0,0,0,2,1,1,21,0002-00-0002-02.png,0001-00-0006-47.png
00000014,468,1,1440428169756,1440428170273,864,511,0,0,0,5,4,1,54,0005-00-0002-34.png,0004-00-0003-22.png
00000014,469,1,1440428171256,1440428171767,346,394,0,0,0,1,2,1,12,0001-00-0005-18.png,0002-00-0004-06.png
00000014,470,0,1440428172885,1440428173453,365,395,0,0,0,3,2,1,32,0003-00-0001-37.png,0002-00-0005-04.png
00000014,471,1,1440428176492,1440428177016,248,462,0,0,0,2,3,1,23,0002-00-0006-57.png,0003-00-0000-18.png
00000014,472,1,1440428177931,1440428178500,366,389,0,0,0,4,5,1,45,0004-00-0007-87.png,0005-00-0007-42.png
00000014,473,0,1440428179562,1440428180089,867,511,0,0,0,2,3,1,23,0002-00-0000-85.png,0003-00-0002-06.png
00000014,474,0,1440428183252,1440428183696,299,396,0,0,0,4,3,1,43,0004-00-0003-85.png,0003-00-0006-23.png
00000014,475,0,1440428186728,1440428187364,280,391,0,0,0,5,4,1,54,0005-00-0007-82.png,0004-00-0006-72.png
00000014,476,0,1440428190581,1440428191073,336,371,0,0,0,2,1,1,21,0002-00-0007-69.png,0001-00-0005-58.png
00000014,477,1,1440428194578,1440428195054,376,424,0,0,0,4,5,1,45,0004-00-0000-57.png,0005-00-0003-20.png
00000014,478,1,1440428196499,1440428196980,339,420,0,0,0,1,2,1,12,0001-00-0006-41.png,0002-00-0000-04.png
00000014,479,1,1440428198038,1440428198593,879,390,0,0,0,3,2,1,32,0003-00-0005-58.png,0002-00-0001-94.png
00000014,480,0,1440428199638,1440428200170,889,483,0,0,0,3,4,1,34,0003-00-0007-60.png,0004-00-0008-71.png
00000014,481,0,1440428203086,1440428203106,499,416,0,0,0,5,4,1,54,0005-00-0003-63.png,0004-00-0008-95.png
00000014,482,1,1440428206059,1440428206135,452,504,0,0,0,4,5,1,45,0004-00-0004-73.png,0005-00-0002-56.png
00000014,483,0,1440428207060,1440428207610,907,419,0,0,0,3,4,1,34,0003-00-0007-35.png,0004-00-0001-37.png
00000014,484,1,1440428210679,1440428211155,393,404,0,0,0,2,3,1,23,0002-00-0003-82.png,0003-00-0009-54.png
00000014,485,0,1440428212121,1440428212634,879,401,0,0,0,1,2,1,12,0001-00-0004-38.png,0002-00-0005-63.png
00000014,486,1,1440428215755,1440428216275,899,490,0,0,0,3,2,1,32,0003-00-0000-15.png,0002-00-0007-48.png
00000014,487,1,1440428217229,1440428217839,875,403,0,0,0,4,3,1,43,0004-00-0005-15.png,0003-00-0009-64.png
00000014,488,1,1440428218808,1440428219468,915,413,0,0,0,2,1,1,21,0002-00-0008-46.png,0001-00-0000-08.png
00000014,489,0,1440428220487,1440428221062,391,476,0,0,0,5,4,1,54,0005-00-0008-35.png,0004-00-0005-46.png
00000014,490,1,1440428223934,1440428223954,522,377,0,0,0,4,5,1,45,0004-00-0004-68.png,0005-00-0009-94.png
00000014,491,1,1440428224950,1440428225452,401,384,0,0,0,1,2,1,12,0001-00-0006-62.png,0002-00-0005-62.png
00000014,492,0,1440428226471,1440428227110,877,390,0,0,0,3,4,1,34,0003-00-0008-57.png,0004-00-0007-04.png
00000014,493,1,1440428230168,1440428230774,901,383,0,0,0,2,1,1,21,0002-00-0000-29.png,0001-00-0005-25.png
00000014,494,1,1440428231717,1440428232240,375,402,0,0,0,2,3,1,23,0002-00-0007-84.png,0003-00-0008-48.png
00000014,495,0,1440428233300,1440428233822,376,397,0,0,0,4,3,1,43,0004-00-0006-55.png,0003-00-0009-22.png
00000014,496,1,1440428236915,1440428237523,900,385,0,0,0,3,2,1,32,0003-00-0005-64.png,0002-00-0006-35.png
00000014,497,0,1440428238464,1440428239030,388,502,0,0,0,3,2,1,32,0003-00-0004-63.png,0002-00-0009-98.png
00000014,498,1,1440428242132,1440428242588,294,393,0,0,0,1,2,1,12,0001-00-0004-19.png,0002-00-0008-97.png
00000014,499,1,1440428243535,1440428244081,886,398,0,0,0,4,3,1,43,0004-00-0008-28.png,0003-00-0000-03.png
00000014,500,0,1440428245116,1440428245732,890,393,0,0,0,2,3,1,23,0002-00-0005-94.png,0003-00-0003-12.png
00000014,501,1,1440428248641,1440428249186,892,455,0,0,0,5,4,1,54,0005-00-0006-07.png,0004-00-0009-45.png
00000014,502,1,1440428250165,1440428250915,401,514,0,0,0,4,5,1,45,0004-00-0004-31.png,0005-00-0001-41.png
00000014,503,0,1440428251952,1440428252484,874,501,0,0,0,3,4,1,34,0003-00-0004-20.png,0004-00-0001-93.png
00000014,504,0,1440428255558,1440428256096,294,364,0,0,0,2,1,1,21,0002-00-0000-46.png,0001-00-0004-82.png
00000014,505,1,1440428259223,1440428259776,939,371,0,0,0,3,2,1,32,0003-00-0005-05.png,0002-00-0005-59.png
00000014,506,1,1440428260807,1440428261352,926,371,0,0,0,5,4,1,54,0005-00-0007-53.png,0004-00-0006-07.png
00000014,507,0,1440428262387,1440428262911,895,368,0,0,0,2,3,1,23,0002-00-0008-37.png,0003-00-0000-95.png
00000014,508,1,1440428265993,1440428266561,925,397,0,0,0,4,3,1,43,0004-00-0009-62.png,0003-00-0001-07.png
00000014,509,1,1440428267475,1440428268045,361,426,0,0,0,4,5,1,45,0004-00-0007-77.png,0005-00-0000-82.png
00000014,510,1,1440428269056,1440428269629,366,407,0,0,0,3,4,1,34,0003-00-0004-10.png,0004-00-0004-66.png
00000014,511,0,1440428270653,1440428271785,383,393,0,0,0,2,1,1,21,0002-00-0005-74.png,0001-00-0003-00.png
00000014,512,1,1440428274690,1440428275192,364,390,0,0,0,1,2,1,12,0001-00-0004-96.png,0002-00-0007-37.png
00000014,513,1,1440428276143,1440428276710,880,401,0,0,0,5,4,1,54,0005-00-0004-75.png,0004-00-0008-34.png
00000014,514,1,1440428277781,1440428278309,401,401,0,0,0,3,4,1,34,0003-00-0007-14.png,0004-00-0009-50.png
00000014,515,0,1440428279361,1440428280011,879,402,0,0,0,2,3,1,23,0002-00-0002-85.png,0003-00-0005-33.png
00000014,516,1,1440428283017,1440428283037,522,402,0,0,0,1,2,1,12,0001-00-0003-34.png,0002-00-0003-11.png
00000014,517,0,1440428284028,1440428284546,323,404,0,0,0,3,2,1,32,0003-00-0005-21.png,0002-00-0009-98.png
00000014,518,1,1440428287608,1440428288073,890,494,0,0,0,4,3,1,43,0004-00-0001-89.png,0003-00-0000-12.png
00000014,519,0,1440428288971,1440428289497,900,437,0,0,0,4,5,1,45,0004-00-0004-81.png,0005-00-0002-32.png
00000014,520,0,1440428292436,1440428292452,472,428,0,0,0,2,1,1,21,0002-00-0002-44.png,0001-00-0008-07.png
00000014,521,1,1440428295660,1440428296243,858,461,0,0,0,2,1,1,21,0002-00-0002-31.png,0001-00-0003-36.png
00000014,522,1,1440428297219,1440428298189,401,410,0,0,0,4,5,1,45,0004-00-0004-98.png,0005-00-0000-55.png
00000014,523,0,1440428299178,1440428299802,368,436,0,0,0,4,3,1,43,0004-00-0006-51.png,0003-00-0003-93.png
00000014,524,0,1440428303162,1440428304155,375,409,0,0,0,5,4,1,54,0005-00-0006-13.png,0004-00-0000-98.png
00000014,525,0,1440428307025,1440428307514,903,468,0,0,0,3,4,1,34,0003-00-0007-15.png,0004-00-0009-91.png
00000014,526,1,1440428310564,1440428311083,866,400,0,0,0,3,2,1,32,0003-00-0001-41.png,0002-00-0008-86.png
00000014,527,0,1440428312097,1440428312629,875,423,0,0,0,2,3,1,23,0002-00-0002-83.png,0003-00-0007-53.png
00000014,528,1,1440428315575,1440428316060,351,384,0,0,0,1,2,1,12,0001-00-0006-74.png,0002-00-0007-98.png
00000014,529,1,1440428317027,1440428317627,862,454,0,0,0,5,4,1,54,0005-00-0002-02.png,0004-00-0007-42.png
00000014,530,1,1440428318621,1440428319577,305,441,0,0,0,4,5,1,45,0004-00-0000-29.png,0005-00-0000-60.png
00000014,531,1,1440428321051,1440428321596,364,395,0,0,0,3,4,1,34,0003-00-0000-98.png,0004-00-0005-19.png
00000014,532,0,1440428322534,1440428323173,353,402,0,0,0,2,1,1,21,0002-00-0008-40.png,0001-00-0002-47.png
00000014,533,1,1440428327224,1440428327788,325,383,0,0,0,2,3,1,23,0002-00-0003-02.png,0003-00-0005-07.png
00000014,534,0,1440428328821,1440428329324,388,502,0,0,0,3,2,1,32,0003-00-0007-98.png,0002-00-0008-32.png
00000014,535,1,1440428332227,1440428332251,497,401,0,0,0,1,2,1,12,0001-00-0009-34.png,0002-00-0004-01.png
00000014,536,0,1440428333274,1440428333791,427,518,0,0,0,4,3,1,43,0004-00-0003-82.png,0003-00-0006-82.png
00000014,537,0,1440428337001,1440428337539,904,363,0,0,0,2,3,1,23,0002-00-0001-10.png,0003-00-0004-51.png
00000014,538,1,1440428340531,1440428341066,862,358,0,0,0,4,3,1,43,0004-00-0008-73.png,0003-00-0007-66.png
00000014,539,1,1440428342081,1440428342611,912,399,0,0,0,2,1,1,21,0002-00-0003-83.png,0001-00-0009-11.png
00000014,540,0,1440428343624,1440428344182,879,427,0,0,0,1,2,1,12,0001-00-0009-48.png,0002-00-0004-78.png
00000014,541,0,1440428347157,1440428347717,380,415,0,0,0,3,2,1,32,0003-00-0001-12.png,0002-00-0006-66.png
00000014,542,1,1440428350893,1440428351439,325,371,0,0,0,4,5,1,45,0004-00-0001-82.png,0005-00-0001-73.png
00000014,543,0,1440428352445,1440428352965,896,420,0,0,0,3,4,1,34,0003-00-0000-38.png,0004-00-0008-57.png
00000014,544,0,1440428355955,1440428355971,484,410,0,0,0,5,4,1,54,0005-00-0001-81.png,0004-00-0001-66.png
00000014,545,0,1440428359001,1440428359432,354,382,0,0,0,3,2,1,32,0003-00-0005-95.png,0002-00-0007-16.png
00000014,546,0,1440428362455,1440428363033,929,375,0,0,0,2,3,1,23,0002-00-0005-72.png,0003-00-0001-95.png
00000014,547,0,1440428365921,1440428365929,503,440,0,0,0,5,4,1,54,0005-00-0005-14.png,0004-00-0004-25.png
00000014,548,0,1440428369005,1440428369493,901,383,0,0,0,3,4,1,34,0003-00-0002-47.png,0004-00-0007-11.png
00000014,549,1,1440428372409,1440428373045,953,356,0,0,0,4,3,1,43,0004-00-0009-49.png,0003-00-0003-25.png
00000014,550,0,1440428374003,1440428374528,868,419,0,0,0,4,5,1,45,0004-00-0007-18.png,0005-00-0001-45.png
00000014,551,1,1440428377409,1440428377421,494,415,0,0,0,1,2,1,12,0001-00-0000-01.png,0002-00-0005-20.png
00000014,552,0,1440428378426,1440428378979,334,360,0,0,0,2,1,1,21,0002-00-0006-07.png,0001-00-0006-23.png
00000014,553,1,1440428381921,1440428382448,876,485,0,0,0,4,3,1,43,0004-00-0003-03.png,0003-00-0009-26.png
00000014,554,0,1440428383464,1440428383916,350,384,0,0,0,5,4,1,54,0005-00-0008-86.png,0004-00-0007-02.png
00000014,555,0,1440428387150,1440428387575,352,371,0,0,0,2,1,1,21,0002-00-0000-55.png,0001-00-0006-99.png
00000014,556,1,1440428390715,1440428391267,389,488,0,0,0,3,4,1,34,0003-00-0003-86.png,0004-00-0003-68.png
00000014,557,1,1440428392268,1440428392834,395,361,0,0,0,4,5,1,45,0004-00-0001-21.png,0005-00-0006-16.png
00000014,558,1,1440428393858,1440428394434,864,457,0,0,0,3,2,1,32,0003-00-0006-23.png,0002-00-0004-92.png
00000014,559,1,1440428395429,1440428396044,248,472,0,0,0,1,2,1,12,0001-00-0006-31.png,0002-00-0003-43.png
00000014,560,0,1440428397098,1440428397679,875,386,0,0,0,2,3,1,23,0002-00-0008-53.png,0003-00-0006-60.png
00000014,561,1,1440428401161,1440428401674,861,491,0,0,0,3,2,1,32,0003-00-0007-10.png,0002-00-0002-29.png
00000014,562,0,1440428402703,1440428403226,222,462,0,0,0,5,4,1,54,0005-00-0002-98.png,0004-00-0004-46.png
00000014,563,1,1440428408627,1440428409100,373,360,0,0,0,1,2,1,12,0001-00-0005-14.png,0002-00-0007-39.png
00000014,564,1,1440428410156,1440428411130,370,426,0,0,0,4,5,1,45,0004-00-0002-28.png,0005-00-0001-35.png
00000014,565,1,1440428412145,1440428412645,893,485,0,0,0,2,1,1,21,0002-00-0008-07.png,0001-00-0002-53.png
00000014,566,0,1440428413671,1440428414198,319,421,0,0,0,4,3,1,43,0004-00-0000-63.png,0003-00-0007-99.png
00000014,567,1,1440428418972,1440428419455,325,384,0,0,0,2,3,1,23,0002-00-0009-38.png,0003-00-0007-39.png
00000014,568,0,1440428420523,1440428421055,878,419,0,0,0,3,4,1,34,0003-00-0002-11.png,0004-00-0006-96.png
00000014,569,1,1440428424200,1440428424836,900,475,0,0,0,4,3,1,43,0004-00-0004-00.png,0003-00-0005-92.png
00000014,570,0,1440428425833,1440428426369,351,389,0,0,0,5,4,1,54,0005-00-0004-07.png,0004-00-0007-15.png
00000014,571,0,1440428430242,1440428430262,522,420,0,0,0,2,1,1,21,0002-00-0001-23.png,0001-00-0003-67.png
00000014,572,0,1440428433170,1440428433689,895,420,0,0,0,3,4,1,34,0003-00-0004-32.png,0004-00-0003-48.png
00000014,573,0,1440428437306,1440428437858,900,475,0,0,0,2,3,1,23,0002-00-0006-83.png,0003-00-0007-93.png
00000014,574,1,1440428440704,1440428441152,386,370,0,0,0,4,5,1,45,0004-00-0009-73.png,0005-00-0009-73.png
00000014,575,1,1440428442167,1440428442692,878,387,0,0,0,3,2,1,32,0003-00-0007-80.png,0002-00-0004-43.png
00000014,576,1,1440428443749,1440428444259,398,392,0,0,0,1,2,1,12,0001-00-0007-27.png,0002-00-0007-49.png
00000014,577,1,1440428445309,1440428446325,900,410,0,0,0,2,1,1,21,0002-00-0000-60.png,0001-00-0003-80.png
00000014,578,0,1440428447286,1440428447776,350,403,0,0,0,3,2,1,32,0003-00-0008-95.png,0002-00-0008-28.png
00000014,579,1,1440428453499,1440428454004,299,397,0,0,0,3,4,1,34,0003-00-0004-99.png,0004-00-0002-64.png
00000014,580,1,1440428454997,1440428455561,376,358,0,0,0,2,3,1,23,0002-00-0001-30.png,0003-00-0000-77.png
00000014,581,1,1440428456557,1440428456573,453,453,0,0,0,1,2,1,12,0001-00-0004-85.png,0002-00-0009-10.png
00000014,582,1,1440428457700,1440428458742,888,516,0,0,0,5,4,1,54,0005-00-0005-17.png,0004-00-0008-60.png
00000014,583,1,1440428459696,1440428460269,863,423,0,0,0,4,3,1,43,0004-00-0009-28.png,0003-00-0001-05.png
00000014,584,1,1440428461249,1440428461849,304,399,0,0,0,4,5,1,45,0004-00-0001-06.png,0005-00-0001-15.png
00000014,585,1,1440428462807,1440428463320,379,402,0,0,0,4,5,1,45,0004-00-0004-22.png,0005-00-0004-30.png
00000014,586,1,1440428464397,1440428464929,891,429,0,0,0,3,2,1,32,0003-00-0005-02.png,0002-00-0004-04.png
00000014,587,1,1440428465867,1440428466526,875,371,0,0,0,2,1,1,21,0002-00-0000-93.png,0001-00-0007-07.png
00000014,588,1,1440428467488,1440428468048,427,384,0,0,0,3,4,1,34,0003-00-0009-28.png,0004-00-0000-94.png
00000014,589,1,1440428469028,1440428469969,435,419,0,0,0,2,3,1,23,0002-00-0002-83.png,0003-00-0003-82.png
00000014,590,1,1440428471045,1440428472166,888,489,0,0,0,4,3,1,43,0004-00-0009-92.png,0003-00-0000-21.png
00000014,591,0,1440428473122,1440428474062,401,384,0,0,0,5,4,1,54,0005-00-0001-34.png,0004-00-0006-13.png
00000014,592,1,1440428521609,1440428522023,327,405,0,0,0,1,2,1,12,0001-00-0000-11.png,0002-00-0001-10.png
00000014,593,1,1440428522899,1440428523442,386,397,0,0,0,4,5,1,45,0004-00-0001-13.png,0005-00-0007-93.png
00000014,594,1,1440428524330,1440428524883,883,429,0,0,0,3,2,1,32,0003-00-0001-77.png,0002-00-0003-11.png
00000014,595,1,1440428525741,1440428526414,885,425,0,0,0,5,4,1,54,0005-00-0005-32.png,0004-00-0006-61.png
00000014,596,1,1440428527648,1440428528257,906,470,0,0,0,2,1,1,21,0002-00-0009-54.png,0001-00-0004-54.png
00000014,597,1,1440428529580,1440428546277,417,445,0,0,0,1,2,1,12,0001-00-0005-46.png,0002-00-0003-24.png
00000014,598,1,1440428547354,1440428547921,290,405,0,0,0,3,4,1,34,0003-00-0001-35.png,0004-00-0009-59.png
00000014,599,1,1440428548818,1440428548854,478,562,0,0,0,2,3,1,23,0002-00-0004-72.png,0003-00-0005-82.png
00000014,600,1,1440428549861,1440428550355,879,429,0,0,0,4,3,1,43,0004-00-0009-07.png,0003-00-0006-35.png
00000014,601,0,1440428551201,1440428551834,376,416,0,0,0,2,1,1,21,0002-00-0000-48.png,0001-00-0005-35.png
00000014,602,1,1440428560536,1440428561066,289,345,0,0,0,4,5,1,45,0004-00-0006-97.png,0005-00-0002-88.png
00000014,603,1,1440428562079,1440428562626,313,371,0,0,0,1,2,1,12,0001-00-0008-78.png,0002-00-0008-59.png
00000014,604,1,1440428563454,1440428563985,900,397,0,0,0,3,2,1,32,0003-00-0001-14.png,0002-00-0004-50.png
00000014,605,0,1440428565247,1440428565885,878,416,0,0,0,3,4,1,34,0003-00-0001-26.png,0004-00-0000-86.png
00000014,606,0,1440428581012,1440428581526,872,485,0,0,0,2,3,1,23,0002-00-0006-93.png,0003-00-0004-95.png
00000014,607,1,1440428584649,1440428585118,879,375,0,0,0,5,4,1,54,0005-00-0008-77.png,0004-00-0007-06.png
00000014,608,0,1440428586122,1440428586672,339,408,0,0,0,4,3,1,43,0004-00-0002-48.png,0003-00-0005-97.png
00000014,609,0,1440428591226,1440428591745,317,424,0,0,0,5,4,1,54,0005-00-0004-07.png,0004-00-0001-38.png
00000014,610,1,1440428597859,1440428598358,296,377,0,0,0,4,5,1,45,0004-00-0002-40.png,0005-00-0006-93.png
00000014,611,1,1440428599276,1440428599791,379,407,0,0,0,1,2,1,12,0001-00-0004-92.png,0002-00-0003-46.png
00000014,612,1,1440428600736,1440428601352,390,420,0,0,0,3,4,1,34,0003-00-0002-84.png,0004-00-0005-95.png
00000014,613,0,1440428602507,1440428603093,862,392,0,0,0,2,3,1,23,0002-00-0009-87.png,0003-00-0000-63.png
00000014,614,1,1440428622379,1440428622837,905,367,0,0,0,3,2,1,32,0003-00-0002-26.png,0002-00-0009-91.png
00000014,615,0,1440428623930,1440428624450,306,345,0,0,0,2,1,1,21,0002-00-0000-38.png,0001-00-0007-00.png
00000014,616,0,1440428627323,1440428627800,344,376,0,0,0,4,3,1,43,0004-00-0000-14.png,0003-00-0009-51.png
00000014,617,0,1440428630832,1440428631276,413,398,0,0,0,5,4,1,54,0005-00-0008-86.png,0004-00-0009-98.png
00000014,618,0,1440428634409,1440428634926,386,521,0,0,0,3,2,1,32,0003-00-0007-41.png,0002-00-0003-35.png
00000014,619,0,1440428645021,1440428645521,350,371,0,0,0,4,3,1,43,0004-00-0008-52.png,0003-00-0003-20.png
00000014,620,0,1440428648395,1440428648950,952,384,0,0,0,3,4,1,34,0003-00-0001-02.png,0004-00-0000-80.png
00000014,621,0,1440428653074,1440428653579,895,420,0,0,0,1,2,1,12,0001-00-0000-95.png,0002-00-0006-53.png
00000014,622,0,1440428656487,1440428656955,373,464,0,0,0,2,1,1,21,0002-00-0005-13.png,0001-00-0009-95.png
00000014,623,1,1440428660364,1440428660858,326,381,0,0,0,2,3,1,23,0002-00-0009-69.png,0003-00-0004-68.png
00000014,624,1,1440428661807,1440428662368,399,397,0,0,0,4,5,1,45,0004-00-0009-08.png,0005-00-0005-42.png
00000014,625,0,1440428663346,1440428663382,504,473,0,0,0,3,2,1,32,0003-00-0004-98.png,0002-00-0009-78.png
00000014,626,1,1440428666725,1440428667241,361,365,0,0,0,3,4,1,34,0003-00-0004-35.png,0004-00-0008-10.png
00000014,627,1,1440428668226,1440428668747,862,398,0,0,0,4,3,1,43,0004-00-0004-31.png,0003-00-0001-20.png
00000014,628,1,1440428669737,1440428670254,908,366,0,0,0,2,1,1,21,0002-00-0006-19.png,0001-00-0008-44.png
00000014,629,1,1440428671179,1440428671721,350,410,0,0,0,4,5,1,45,0004-00-0003-53.png,0005-00-0000-53.png
00000014,630,0,1440428672677,1440428673201,879,429,0,0,0,1,2,1,12,0001-00-0004-49.png,0002-00-0005-96.png
00000014,631,0,1440428677775,1440428678292,330,401,0,0,0,5,4,1,54,0005-00-0006-64.png,0004-00-0001-75.png
00000014,632,1,1440428682516,1440428683042,376,396,0,0,0,2,3,1,23,0002-00-0007-91.png,0003-00-0008-25.png
00000014,633,1,1440428684037,1440428684591,875,397,0,0,0,5,4,1,54,0005-00-0004-17.png,0004-00-0006-94.png
00000014,634,0,1440428685607,1440428686607,453,384,0,0,0,3,2,1,32,0003-00-0004-88.png,0002-00-0008-32.png
00000014,635,0,1440428690020,1440428690036,506,480,0,0,0,4,3,1,43,0004-00-0009-29.png,0003-00-0002-33.png
00000014,636,1,1440428693166,1440428693194,517,475,0,0,0,1,2,1,12,0001-00-0002-69.png,0002-00-0000-83.png
00000014,637,1,1440428694220,1440428694758,862,431,0,0,0,2,1,1,21,0002-00-0009-25.png,0001-00-0003-37.png
00000014,638,1,1440428695756,1440428696255,393,417,0,0,0,3,4,1,34,0003-00-0005-95.png,0004-00-0009-69.png
00000014,639,1,1440428697254,1440428698237,453,384,0,0,0,4,5,1,45,0004-00-0008-50.png,0005-00-0007-65.png
00000014,640,1,1440428699292,1440428699838,400,359,0,0,0,2,3,1,23,0002-00-0008-63.png,0003-00-0004-26.png
00000014,641,0,1440428700838,1440428701853,412,488,0,0,0,2,1,1,21,0002-00-0001-20.png,0001-00-0005-81.png
00000014,642,0,1440428704694,1440428705200,904,401,0,0,0,1,2,1,12,0001-00-0001-17.png,0002-00-0001-66.png
00000014,643,0,1440428708086,1440428708553,337,392,0,0,0,5,4,1,54,0005-00-0007-71.png,0004-00-0009-28.png
00000014,644,1,1440428711794,1440428711862,504,488,0,0,0,2,3,1,23,0002-00-0006-67.png,0003-00-0000-06.png
00000014,645,0,1440428712857,1440428713398,401,402,0,0,0,3,2,1,32,0003-00-0002-64.png,0002-00-0001-37.png
00000014,646,1,1440428716285,1440428716783,416,477,0,0,0,3,4,1,34,0003-00-0007-03.png,0004-00-0007-55.png
00000014,647,0,1440428717777,1440428718338,869,397,0,0,0,4,5,1,45,0004-00-0007-69.png,0005-00-0008-15.png
00000014,648,0,1440428721294,1440428721789,413,502,0,0,0,4,3,1,43,0004-00-0001-03.png,0003-00-0006-33.png
00000014,649,1,1440428724660,1440428724680,501,444,0,0,0,2,3,1,23,0002-00-0008-20.png,0003-00-0006-08.png
00000014,650,1,1440428725649,1440428726668,516,412,0,0,0,4,5,1,45,0004-00-0000-00.png,0005-00-0004-37.png
00000014,651,0,1440428727645,1440428728205,885,491,0,0,0,3,4,1,34,0003-00-0008-07.png,0004-00-0006-48.png
00000014,652,0,1440428731452,1440428731927,360,398,0,0,0,2,1,1,21,0002-00-0008-07.png,0001-00-0004-24.png
00000014,653,0,1440428734851,1440428734859,493,467,0,0,0,5,4,1,54,0005-00-0004-63.png,0004-00-0000-58.png
00000014,654,0,1440428737728,1440428737752,487,462,0,0,0,4,3,1,43,0004-00-0004-47.png,0003-00-0008-57.png
00000014,655,0,1440428740813,1440428740833,490,490,0,0,0,3,2,1,32,0003-00-0004-78.png,0002-00-0000-34.png
00000014,656,1,1440428743673,1440428743705,446,522,0,0,0,1,2,1,12,0001-00-0003-29.png,0002-00-0008-32.png
00000014,657,1,1440428745147,1440428746150,927,469,0,0,0,3,2,1,32,0003-00-0003-01.png,0002-00-0007-40.png
00000014,658,0,1440428747113,1440428747658,877,417,0,0,0,3,4,1,34,0003-00-0007-90.png,0004-00-0006-19.png
00000014,659,1,1440428750713,1440428750749,469,495,0,0,0,1,2,1,12,0001-00-0005-56.png,0002-00-0000-27.png
00000014,660,1,1440428751726,1440428752331,862,398,0,0,0,4,3,1,43,0004-00-0004-16.png,0003-00-0003-29.png
00000014,661,0,1440428753406,1440428753931,887,490,0,0,0,2,3,1,23,0002-00-0007-58.png,0003-00-0006-99.png
00000014,662,1,1440428756962,1440428757398,895,472,0,0,0,5,4,1,54,0005-00-0002-69.png,0004-00-0002-48.png
00000014,663,1,1440428758367,1440428759383,367,428,0,0,0,4,5,1,45,0004-00-0000-47.png,0005-00-0005-81.png
00000014,664,1,1440428760769,1440428761228,927,391,0,0,0,2,1,1,21,0002-00-0008-46.png,0001-00-0000-76.png
00000014,665,0,1440428762221,1440428763106,361,430,0,0,0,3,2,1,32,0003-00-0007-84.png,0002-00-0002-07.png
00000014,666,1,1440428765997,1440428766512,898,432,0,0,0,2,1,1,21,0002-00-0006-27.png,0001-00-0004-43.png
00000014,667,1,1440428767447,1440428767974,335,380,0,0,0,4,5,1,45,0004-00-0005-81.png,0005-00-0005-59.png
00000014,668,1,1440428768978,1440428769513,880,394,0,0,0,4,3,1,43,0004-00-0002-22.png,0003-00-0009-00.png
00000014,669,1,1440428770538,1440428771032,345,414,0,0,0,2,3,1,23,0002-00-0002-79.png,0003-00-0000-86.png
00000014,670,1,1440428772025,1440428772531,362,403,0,0,0,1,2,1,12,0001-00-0001-60.png,0002-00-0007-30.png
00000014,671,0,1440428773619,1440428773655,453,505,0,0,0,5,4,1,54,0005-00-0002-52.png,0004-00-0000-63.png
00000014,672,1,1440428776639,1440428776699,523,496,0,0,0,3,4,1,34,0003-00-0009-49.png,0004-00-0000-13.png
00000014,673,0,1440428777652,1440428778641,386,404,0,0,0,4,3,1,43,0004-00-0006-32.png,0003-00-0002-32.png
00000014,674,0,1440428781707,1440428782205,875,409,0,0,0,2,3,1,23,0002-00-0002-91.png,0003-00-0001-30.png
00000014,675,1,1440428785203,1440428785211,465,410,0,0,0,1,2,1,12,0001-00-0002-68.png,0002-00-0008-16.png
00000014,676,1,1440428786201,1440428787674,908,410,0,0,0,3,2,1,32,0003-00-0006-27.png,0002-00-0007-73.png
00000014,677,1,1440428788645,1440428789190,885,360,0,0,0,2,1,1,21,0002-00-0006-05.png,0001-00-0009-16.png
00000014,678,1,1440428790164,1440428791219,875,383,0,0,0,5,4,1,54,0005-00-0007-83.png,0004-00-0006-80.png
00000014,679,0,1440428792202,1440428792848,880,375,0,0,0,3,4,1,34,0003-00-0002-51.png,0004-00-0003-61.png
00000014,680,1,1440428795806,1440428795826,504,441,0,0,0,4,5,1,45,0004-00-0001-24.png,0005-00-0002-48.png
00000014,681,1,1440428796743,1440428797324,367,387,0,0,0,1,2,1,12,0001-00-0001-72.png,0002-00-0001-70.png
00000014,682,1,1440428798303,1440428798838,875,423,0,0,0,3,2,1,32,0003-00-0007-10.png,0002-00-0008-48.png
00000014,683,0,1440428799869,1440428799889,504,474,0,0,0,2,1,1,21,0002-00-0003-13.png,0001-00-0005-29.png
00000014,684,1,1440428803036,1440428803555,333,395,0,0,0,4,5,1,45,0004-00-0001-16.png,0005-00-0002-55.png
00000014,685,1,1440428804525,1440428805116,867,465,0,0,0,4,3,1,43,0004-00-0003-66.png,0003-00-0009-35.png
00000014,686,0,1440428806116,1440428806674,336,398,0,0,0,5,4,1,54,0005-00-0004-50.png,0004-00-0000-34.png
00000014,687,1,1440428809590,1440428809610,483,486,0,0,0,3,4,1,34,0003-00-0005-76.png,0004-00-0005-44.png
00000014,688,1,1440428810556,1440428811140,347,354,0,0,0,2,3,1,23,0002-00-0007-31.png,0003-00-0004-30.png
00000014,689,1,1440428812106,1440428812609,878,404,0,0,0,5,4,1,54,0005-00-0004-08.png,0004-00-0008-97.png
00000014,690,1,1440428813663,1440428813683,458,529,0,0,0,1,2,1,12,0001-00-0002-30.png,0002-00-0000-76.png
00000014,691,0,1440428814906,1440428815850,389,418,0,0,0,2,1,1,21,0002-00-0003-53.png,0001-00-0006-58.png
00000014,692,0,1440428819042,1440428819637,356,382,0,0,0,4,3,1,43,0004-00-0004-37.png,0003-00-0002-66.png
00000014,693,0,1440428822530,1440428823098,375,381,0,0,0,3,2,1,32,0003-00-0004-20.png,0002-00-0007-56.png
00000014,694,1,1440428826219,1440428826247,508,490,0,0,0,4,5,1,45,0004-00-0001-20.png,0005-00-0002-92.png
00000014,695,0,1440428827686,1440428828302,876,450,0,0,0,3,4,1,34,0003-00-0006-31.png,0004-00-0000-03.png
00000014,696,0,1440428831445,1440428832096,904,376,0,0,0,2,3,1,23,0002-00-0009-13.png,0003-00-0000-14.png
00000014,697,0,1440428835130,1440428835746,889,403,0,0,0,4,5,1,45,0004-00-0009-30.png,0005-00-0004-55.png
00000014,698,1,1440428838800,1440428839374,903,363,0,0,0,5,4,1,54,0005-00-0006-66.png,0004-00-0004-75.png
00000014,699,1,1440428840767,1440428841302,879,401,0,0,0,4,3,1,43,0004-00-0005-87.png,0003-00-0001-13.png
00000014,700,0,1440428842267,1440428842802,875,385,0,0,0,3,4,1,34,0003-00-0005-09.png,0004-00-0007-84.png
00000014,701,1,1440428845755,1440428846273,901,409,0,0,0,2,1,1,21,0002-00-0006-70.png,0001-00-0007-23.png
00000014,702,1,1440428847279,1440428847752,363,423,0,0,0,2,3,1,23,0002-00-0005-26.png,0003-00-0005-27.png
00000014,703,0,1440428848717,1440428849796,427,386,0,0,0,3,2,1,32,0003-00-0001-15.png,0002-00-0005-71.png
00000014,704,1,1440428852792,1440428852812,460,488,0,0,0,1,2,1,12,0001-00-0001-40.png,0002-00-0001-57.png
00000014,705,0,1440428853728,1440428854250,870,420,0,0,0,1,2,1,12,0001-00-0008-58.png,0002-00-0001-72.png
00000014,706,0,1440428857824,1440428858371,323,409,0,0,0,2,1,1,21,0002-00-0007-62.png,0001-00-0005-29.png
00000014,707,1,1440428861437,1440428861963,350,420,0,0,0,3,4,1,34,0003-00-0001-57.png,0004-00-0002-04.png
00000014,708,1,1440428862939,1440428863496,869,482,0,0,0,4,3,1,43,0004-00-0008-43.png,0003-00-0003-04.png
00000014,709,0,1440428864500,1440428865078,366,384,0,0,0,5,4,1,54,0005-00-0002-54.png,0004-00-0008-49.png
00000014,710,1,1440428868184,1440428868741,901,410,0,0,0,3,2,1,32,0003-00-0008-62.png,0002-00-0005-36.png
00000014,711,0,1440428869738,1440428870274,868,483,0,0,0,2,3,1,23,0002-00-0002-97.png,0003-00-0009-64.png
00000014,712,1,1440428873411,1440428873908,376,372,0,0,0,4,5,1,45,0004-00-0004-32.png,0005-00-0006-22.png
00000014,713,1,1440428874845,1440428875424,875,397,0,0,0,5,4,1,54,0005-00-0005-25.png,0004-00-0009-60.png
00000014,714,1,1440428876406,1440428876995,872,459,0,0,0,4,3,1,43,0004-00-0005-33.png,0003-00-0009-03.png
00000014,715,0,1440428877975,1440428878511,879,401,0,0,0,4,5,1,45,0004-00-0006-79.png,0005-00-0004-83.png
00000014,716,0,1440428881502,1440428881530,495,469,0,0,0,2,1,1,21,0002-00-0002-33.png,0001-00-0007-33.png
00000014,717,0,1440428884369,1440428884841,876,496,0,0,0,3,4,1,34,0003-00-0006-76.png,0004-00-0003-39.png
00000014,718,1,1440428887954,1440428888470,320,395,0,0,0,1,2,1,12,0001-00-0000-85.png,0002-00-0004-01.png
00000014,719,1,1440428889372,1440428890048,910,399,0,0,0,3,2,1,32,0003-00-0007-32.png,0002-00-0005-47.png
00000014,720,0,1440428891007,1440428891581,916,418,0,0,0,2,3,1,23,0002-00-0008-37.png,0003-00-0001-11.png
00000014,721,0,1440428894563,1440428895088,416,522,0,0,0,5,4,1,54,0005-00-0004-83.png,0004-00-0000-73.png
00000014,722,1,1440428898051,1440428898067,467,461,0,0,0,4,5,1,45,0004-00-0009-77.png,0005-00-0009-90.png
00000014,723,1,1440428899023,1440428899586,419,480,0,0,0,3,4,1,34,0003-00-0006-69.png,0004-00-0005-85.png
00000014,724,1,1440428900567,1440428901598,336,424,0,0,0,1,2,1,12,0001-00-0006-57.png,0002-00-0007-82.png
00000014,725,1,1440428902634,1440428903173,900,397,0,0,0,2,1,1,21,0002-00-0009-03.png,0001-00-0008-45.png
00000014,726,0,1440428904142,1440428904657,879,375,0,0,0,2,3,1,23,0002-00-0008-49.png,0003-00-0006-53.png
00000014,727,0,1440428907739,1440428907817,520,541,0,0,0,4,3,1,43,0004-00-0001-03.png,0003-00-0001-97.png
00000014,728,0,1440428910810,1440428910838,490,449,0,0,0,3,2,1,32,0003-00-0001-38.png,0002-00-0004-79.png
00000014,729,1,1440428914090,1440428914597,418,495,0,0,0,2,3,1,23,0002-00-0005-97.png,0003-00-0001-74.png
00000014,730,0,1440428915603,1440428916125,874,387,0,0,0,4,5,1,45,0004-00-0000-92.png,0005-00-0008-81.png
00000014,731,1,1440428919816,1440428920272,926,417,0,0,0,4,3,1,43,0004-00-0007-00.png,0003-00-0008-54.png
00000014,732,0,1440428921307,1440428921831,862,502,0,0,0,3,4,1,34,0003-00-0000-91.png,0004-00-0006-41.png
00000014,733,1,1440428925352,1440428925827,356,392,0,0,0,1,2,1,12,0001-00-0003-24.png,0002-00-0004-09.png
00000014,734,1,1440428926813,1440428927447,877,490,0,0,0,2,1,1,21,0002-00-0001-93.png,0001-00-0006-73.png
00000014,735,1,1440428928473,1440428929500,900,397,0,0,0,3,2,1,32,0003-00-0007-63.png,0002-00-0006-93.png
00000014,736,1,1440428930440,1440428931555,867,485,0,0,0,5,4,1,54,0005-00-0008-87.png,0004-00-0006-34.png
00000014,737,0,1440428932536,1440428933059,365,389,0,0,0,4,3,1,43,0004-00-0008-57.png,0003-00-0002-98.png
00000014,738,1,1440428937563,1440428938578,948,495,0,0,0,2,1,1,21,0002-00-0008-29.png,0001-00-0000-40.png
00000014,739,1,1440428939489,1440428939996,891,496,0,0,0,3,2,1,32,0003-00-0003-14.png,0002-00-0002-56.png
00000014,740,0,1440428940989,1440428941546,892,374,0,0,0,2,3,1,23,0002-00-0007-65.png,0003-00-0007-28.png
00000014,741,0,1440428944539,1440428945027,901,384,0,0,0,3,4,1,34,0003-00-0006-12.png,0004-00-0009-91.png
00000014,742,1,1440428947959,1440428947971,472,432,0,0,0,4,5,1,45,0004-00-0009-76.png,0005-00-0001-33.png
00000014,743,1,1440428948913,1440428949452,412,496,0,0,0,1,2,1,12,0001-00-0003-27.png,0002-00-0006-10.png
00000014,744,1,1440428950429,1440428950978,857,488,0,0,0,5,4,1,54,0005-00-0003-41.png,0004-00-0000-32.png
00000014,745,0,1440428952053,1440428952561,881,475,0,0,0,2,3,1,23,0002-00-0008-52.png,0003-00-0000-39.png
00000014,746,0,1440428955979,1440428956427,335,397,0,0,0,3,2,1,32,0003-00-0004-78.png,0002-00-0009-72.png
00000014,747,1,1440428959658,1440428960172,388,354,0,0,0,4,5,1,45,0004-00-0003-99.png,0005-00-0005-37.png
00000014,748,1,1440428961207,1440428961734,903,402,0,0,0,4,3,1,43,0004-00-0003-09.png,0003-00-0001-50.png
00000014,749,1,1440428962767,1440428963720,401,397,0,0,0,3,4,1,34,0003-00-0003-86.png,0004-00-0003-95.png
00000014,750,1,1440428964744,1440428965366,907,363,0,0,0,5,4,1,54,0005-00-0003-18.png,0004-00-0000-55.png
00000014,751,1,1440428966303,1440428966984,903,413,0,0,0,2,1,1,21,0002-00-0003-33.png,0001-00-0006-84.png
00000014,752,1,1440428968003,1440428968521,359,401,0,0,0,1,2,1,12,0001-00-0008-08.png,0002-00-0005-95.png
00000014,753,1,1440428969555,1440428970129,352,353,0,0,0,1,2,1,12,0001-00-0004-16.png,0002-00-0006-97.png
00000014,754,1,1440428971254,1440428971798,875,384,0,0,0,2,1,1,21,0002-00-0009-65.png,0001-00-0006-40.png
00000014,755,1,1440428972812,1440428973978,902,375,0,0,0,3,2,1,32,0003-00-0009-72.png,0002-00-0005-12.png
00000014,756,0,1440428974948,1440428975497,857,392,0,0,0,3,4,1,34,0003-00-0005-04.png,0004-00-0001-45.png
00000014,757,1,1440428978372,1440428978408,512,470,0,0,0,2,3,1,23,0002-00-0006-36.png,0003-00-0006-40.png
00000014,758,0,1440428979390,1440428979851,351,410,0,0,0,4,3,1,43,0004-00-0007-47.png,0003-00-0002-88.png
00000014,759,0,1440428982781,1440428982829,469,507,0,0,0,5,4,1,54,0005-00-0001-22.png,0004-00-0006-27.png
00000014,760,1,1440428985878,1440428985919,513,520,0,0,0,4,5,1,45,0004-00-0005-45.png,0005-00-0005-57.png
00000014,761,0,1440428986866,1440428987819,440,423,0,0,0,3,2,1,32,0003-00-0007-75.png,0002-00-0003-42.png
00000014,762,1,1440428991397,1440428991828,311,393,0,0,0,4,5,1,45,0004-00-0009-30.png,0005-00-0008-14.png
00000014,763,0,1440428992738,1440428993271,857,487,0,0,0,2,3,1,23,0002-00-0000-78.png,0003-00-0004-38.png
00000014,764,1,1440428996364,1440428996891,277,484,0,0,0,3,4,1,34,0003-00-0004-15.png,0004-00-0008-86.png
00000014,765,0,1440428997797,1440428998334,894,380,0,0,0,1,2,1,12,0001-00-0009-79.png,0002-00-0008-18.png
00000014,766,1,1440429002508,1440429003462,886,490,0,0,0,4,3,1,43,0004-00-0008-28.png,0003-00-0009-90.png
00000014,767,1,1440429004385,1440429004934,875,409,0,0,0,2,1,1,21,0002-00-0009-91.png,0001-00-0004-63.png
00000014,768,0,1440429005996,1440429006963,401,410,0,0,0,5,4,1,54,0005-00-0000-51.png,0004-00-0000-39.png
00000014,769,0,1440429009883,1440429010292,325,411,0,0,0,4,3,1,43,0004-00-0001-06.png,0003-00-0004-29.png
00000014,770,1,1440429014495,1440429014947,359,399,0,0,0,2,3,1,23,0002-00-0003-05.png,0003-00-0007-78.png
00000014,771,0,1440429015885,1440429016418,900,385,0,0,0,1,2,1,12,0001-00-0001-76.png,0002-00-0004-69.png
00000014,772,1,1440429019332,1440429020542,952,384,0,0,0,2,1,1,21,0002-00-0000-18.png,0001-00-0004-60.png
00000014,773,1,1440429021428,1440429022015,432,504,0,0,0,3,4,1,34,0003-00-0003-95.png,0004-00-0007-95.png
00000014,774,1,1440429022986,1440429023482,401,410,0,0,0,4,5,1,45,0004-00-0005-05.png,0005-00-0009-12.png
00000014,775,0,1440429024531,1440429025125,360,397,0,0,0,3,2,1,32,0003-00-0001-51.png,0002-00-0007-71.png
00000014,776,0,1440429028335,1440429028890,392,376,0,0,0,5,4,1,54,0005-00-0005-77.png,0004-00-0009-56.png
00000014,777,0,1440429032003,1440429032534,888,414,0,0,0,3,4,1,34,0003-00-0004-01.png,0004-00-0001-76.png
00000014,778,0,1440429035451,1440429035471,494,465,0,0,0,2,1,1,21,0002-00-0006-35.png,0001-00-0006-01.png
00000014,779,1,1440429038523,1440429038578,477,535,0,0,0,1,2,1,12,0001-00-0003-83.png,0002-00-0002-27.png
00000014,780,1,1440429039546,1440429040511,320,440,0,0,0,2,3,1,23,0002-00-0000-77.png,0003-00-0004-83.png
00000014,781,1,1440429041493,1440429042125,890,405,0,0,0,5,4,1,54,0005-00-0005-31.png,0004-00-0002-21.png
00000014,782,1,1440429043084,1440429043626,900,386,0,0,0,3,2,1,32,0003-00-0007-58.png,0002-00-0003-90.png
00000014,783,1,1440429044605,1440429045120,916,401,0,0,0,4,3,1,43,0004-00-0004-74.png,0003-00-0001-35.png
00000014,784,1,1440429046065,1440429046663,376,332,0,0,0,4,5,1,45,0004-00-0001-02.png,0005-00-0002-73.png
00000014,785,0,1440429047576,1440429048158,920,397,0,0,0,3,4,1,34,0003-00-0002-84.png,0004-00-0001-28.png
00000014,786,0,1440429051301,1440429051827,321,392,0,0,0,4,3,1,43,0004-00-0003-23.png,0003-00-0000-60.png
00000014,787,1,1440429054682,1440429055225,880,427,0,0,0,5,4,1,54,0005-00-0000-25.png,0004-00-0007-28.png
00000014,788,1,1440429056133,1440429056849,893,390,0,0,0,2,1,1,21,0002-00-0002-55.png,0001-00-0009-31.png
00000014,789,0,1440429057811,1440429058442,902,390,0,0,0,2,3,1,23,0002-00-0001-51.png,0003-00-0001-73.png
00000014,790,1,1440429061706,1440429062120,347,388,0,0,0,1,2,1,12,0001-00-0009-88.png,0002-00-0006-95.png
00000014,791,1,1440429063048,1440429063629,427,384,0,0,0,4,5,1,45,0004-00-0002-55.png,0005-00-0000-41.png
00000014,792,1,1440429064629,1440429065206,878,401,0,0,0,3,2,1,32,0003-00-0008-47.png,0002-00-0009-91.png
00000014,793,1,1440429066160,1440429066625,427,358,0,0,0,4,5,1,45,0004-00-0007-47.png,0005-00-0000-44.png
00000014,794,0,1440429067669,1440429068240,478,384,0,0,0,2,1,1,21,0002-00-0000-64.png,0001-00-0007-38.png
00000014,795,1,1440429071136,1440429071184,478,477,0,0,0,1,2,1,12,0001-00-0009-99.png,0002-00-0008-01.png
00000014,796,1,1440429072162,1440429073270,901,468,0,0,0,3,2,1,32,0003-00-0001-66.png,0002-00-0009-43.png
00000014,797,1,1440429074197,1440429074832,876,408,0,0,0,4,3,1,43,0004-00-0000-21.png,0003-00-0005-38.png
00000014,798,1,1440429075883,1440429076432,349,423,0,0,0,2,3,1,23,0002-00-0006-29.png,0003-00-0002-38.png
00000014,799,1,1440429077416,1440429078459,396,452,0,0,0,3,4,1,34,0003-00-0008-44.png,0004-00-0000-71.png
00000014,800,0,1440429079390,1440429079410,504,436,0,0,0,5,4,1,54,0005-00-0005-12.png,0004-00-0007-71.png
00000014,801,0,1440429082314,1440429082354,478,514,0,0,0,5,4,1,54,0005-00-0006-22.png,0004-00-0002-96.png
00000014,802,1,1440429085645,1440429086130,299,383,0,0,0,1,2,1,12,0001-00-0008-59.png,0002-00-0000-90.png
00000014,803,0,1440429087087,1440429087657,879,460,0,0,0,2,3,1,23,0002-00-0007-54.png,0003-00-0006-34.png
00000014,804,1,1440429090632,1440429091195,875,476,0,0,0,4,3,1,43,0004-00-0009-10.png,0003-00-0000-06.png
00000014,805,1,1440429092124,1440429092644,361,412,0,0,0,4,5,1,45,0004-00-0007-93.png,0005-00-0005-35.png
00000014,806,1,1440429093695,1440429094772,900,385,0,0,0,2,1,1,21,0002-00-0004-67.png,0001-00-0007-03.png
00000014,807,1,1440429095722,1440429096253,374,397,0,0,0,3,4,1,34,0003-00-0005-54.png,0004-00-0000-28.png
00000014,808,1,1440429097273,1440429097834,900,397,0,0,0,3,2,1,32,0003-00-0006-32.png,0002-00-0006-78.png
00000014,809,0,1440429098843,1440429099895,296,528,0,0,0,5,4,1,54,0005-00-0009-78.png,0004-00-0007-65.png
00000014,810,0,1440429106594,1440429107049,896,367,0,0,0,3,4,1,34,0003-00-0009-70.png,0004-00-0003-80.png
00000014,811,1,1440429112090,1440429112118,478,514,0,0,0,1,2,1,12,0001-00-0007-81.png,0002-00-0004-50.png
00000014,812,1,1440429113424,1440429113904,901,410,0,0,0,3,2,1,32,0003-00-0005-52.png,0002-00-0008-58.png
00000014,813,1,1440429115074,1440429115586,890,510,0,0,0,2,1,1,21,0002-00-0001-51.png,0001-00-0003-31.png
00000014,814,1,1440429116652,1440429117208,384,397,0,0,0,2,3,1,23,0002-00-0002-29.png,0003-00-0004-58.png
00000014,815,1,1440429118690,1440429119207,879,402,0,0,0,4,3,1,43,0004-00-0005-12.png,0003-00-0002-57.png
00000014,816,1,1440429120246,1440429121333,348,397,0,0,0,4,5,1,45,0004-00-0002-38.png,0005-00-0009-83.png
00000014,817,0,1440429122941,1440429123899,410,418,0,0,0,2,1,1,21,0002-00-0005-66.png,0001-00-0009-28.png
00000014,818,1,1440429127017,1440429127452,391,481,0,0,0,2,3,1,23,0002-00-0006-86.png,0003-00-0001-77.png
00000014,819,0,1440429128470,1440429129078,880,375,0,0,0,1,2,1,12,0001-00-0003-20.png,0002-00-0003-50.png
00000014,820,1,1440429132008,1440429132554,350,371,0,0,0,4,5,1,45,0004-00-0003-24.png,0005-00-0007-45.png
00000014,821,1,1440429133479,1440429134045,900,391,0,0,0,4,3,1,43,0004-00-0004-59.png,0003-00-0007-05.png
00000014,822,1,1440429135009,1440429135577,880,417,0,0,0,3,2,1,32,0003-00-0001-65.png,0002-00-0003-49.png
00000014,823,1,1440429136626,1440429137160,867,483,0,0,0,5,4,1,54,0005-00-0005-86.png,0004-00-0009-95.png
00000014,824,0,1440429138098,1440429138768,881,391,0,0,0,3,4,1,34,0003-00-0001-95.png,0004-00-0003-38.png
00000014,825,1,1440429142559,1440429143021,384,495,0,0,0,1,2,1,12,0001-00-0009-38.png,0002-00-0000-76.png
00000014,826,1,1440429143932,1440429144447,904,402,0,0,0,2,1,1,21,0002-00-0002-55.png,0001-00-0004-99.png
00000014,827,1,1440429145393,1440429145976,875,383,0,0,0,5,4,1,54,0005-00-0003-51.png,0004-00-0004-03.png
00000014,828,1,1440429146895,1440429147484,873,482,0,0,0,4,3,1,43,0004-00-0009-48.png,0003-00-0003-98.png
00000014,829,1,1440429148486,1440429149015,412,494,0,0,0,4,5,1,45,0004-00-0001-48.png,0005-00-0000-60.png
00000014,830,0,1440429150065,1440429150607,894,397,0,0,0,2,3,1,23,0002-00-0004-23.png,0003-00-0002-16.png
00000014,831,1,1440429153848,1440429154435,395,485,0,0,0,3,4,1,34,0003-00-0002-77.png,0004-00-0001-75.png
00000014,832,0,1440429155620,1440429157122,438,500,0,0,0,3,2,1,32,0003-00-0005-76.png,0002-00-0003-19.png
00000014,833,0,1440429160259,1440429160788,318,391,0,0,0,3,2,1,32,0003-00-0003-80.png,0002-00-0004-06.png
00000014,834,1,1440429163737,1440429164184,325,408,0,0,0,3,4,1,34,0003-00-0002-26.png,0004-00-0007-11.png
00000014,835,1,1440429165172,1440429165656,391,502,0,0,0,1,2,1,12,0001-00-0009-88.png,0002-00-0009-20.png
00000014,836,1,1440429166652,1440429167174,888,358,0,0,0,5,4,1,54,0005-00-0005-12.png,0004-00-0001-88.png
00000014,837,1,1440429168224,1440429168759,376,405,0,0,0,4,5,1,45,0004-00-0001-36.png,0005-00-0005-59.png
00000014,838,0,1440429169833,1440429170492,387,345,0,0,0,2,1,1,21,0002-00-0002-85.png,0001-00-0000-63.png
00000014,839,0,1440429173585,1440429174798,886,377,0,0,0,2,3,1,23,0002-00-0001-42.png,0003-00-0004-92.png
00000014,840,1,1440429177809,1440429178338,879,453,0,0,0,4,3,1,43,0004-00-0007-66.png,0003-00-0003-94.png
00000014,841,1,1440429179303,1440429179835,901,383,0,0,0,3,2,1,32,0003-00-0000-35.png,0002-00-0006-91.png
00000014,842,0,1440429180800,1440429181785,401,384,0,0,0,4,3,1,43,0004-00-0006-69.png,0003-00-0008-36.png
00000014,843,1,1440429185004,1440429185498,338,374,0,0,0,1,2,1,12,0001-00-0004-59.png,0002-00-0009-44.png
00000014,844,0,1440429186458,1440429187495,879,401,0,0,0,4,5,1,45,0004-00-0004-87.png,0005-00-0004-80.png
00000014,845,1,1440429190510,1440429190526,490,444,0,0,0,3,4,1,34,0003-00-0006-81.png,0004-00-0003-30.png
00000014,846,1,1440429191497,1440429192022,904,390,0,0,0,5,4,1,54,0005-00-0005-25.png,0004-00-0002-06.png
00000014,847,1,1440429192976,1440429193573,376,370,0,0,0,2,3,1,23,0002-00-0009-77.png,0003-00-0008-31.png
00000014,848,1,1440429194538,1440429195615,914,495,0,0,0,2,1,1,21,0002-00-0003-47.png,0001-00-0004-02.png
00000014,849,1,1440429196526,1440429197080,874,385,0,0,0,5,4,1,54,0005-00-0004-84.png,0004-00-0003-66.png
00000014,850,1,1440429198103,1440429198623,875,410,0,0,0,2,1,1,21,0002-00-0003-72.png,0001-00-0002-91.png
00000014,851,0,1440429199565,1440429201028,371,389,0,0,0,3,2,1,32,0003-00-0004-44.png,0002-00-0006-30.png
00000014,852,0,1440429204159,1440429204661,893,390,0,0,0,3,4,1,34,0003-00-0005-75.png,0004-00-0000-48.png
00000014,853,1,1440429207552,1440429207564,503,428,0,0,0,2,3,1,23,0002-00-0007-30.png,0003-00-0006-87.png
00000014,854,1,1440429208540,1440429209077,925,387,0,0,0,4,3,1,43,0004-00-0006-41.png,0003-00-0000-61.png
00000014,855,1,1440429210030,1440429210058,504,450,0,0,0,1,2,1,12,0001-00-0001-73.png,0002-00-0009-06.png
00000014,856,0,1440429211273,1440429211799,879,426,0,0,0,4,5,1,45,0004-00-0007-39.png,0005-00-0001-74.png
00000014,857,1,1440429215029,1440429215511,376,397,0,0,0,3,4,1,34,0003-00-0001-67.png,0004-00-0000-75.png
00000014,858,1,1440429216510,1440429217033,875,404,0,0,0,2,1,1,21,0002-00-0009-78.png,0001-00-0000-44.png
00000014,859,0,1440429217950,1440429218515,879,402,0,0,0,2,3,1,23,0002-00-0009-94.png,0003-00-0000-62.png
00000014,860,1,1440429221508,1440429221524,491,467,0,0,0,1,2,1,12,0001-00-0001-15.png,0002-00-0002-85.png
00000014,861,1,1440429222481,1440429222982,350,384,0,0,0,4,5,1,45,0004-00-0006-30.png,0005-00-0004-79.png
00000014,862,1,1440429223932,1440429224506,872,507,0,0,0,4,3,1,43,0004-00-0003-64.png,0003-00-0007-31.png
00000014,863,0,1440429225520,1440429226055,401,410,0,0,0,5,4,1,54,0005-00-0009-00.png,0004-00-0002-95.png
00000014,864,0,1440429229208,1440429229790,366,401,0,0,0,3,2,1,32,0003-00-0003-08.png,0002-00-0005-85.png
00000014,865,1,1440429232677,1440429233424,885,365,0,0,0,5,4,1,54,0005-00-0008-42.png,0004-00-0009-78.png
00000014,866,1,1440429234764,1440429235832,873,386,0,0,0,3,2,1,32,0003-00-0001-01.png,0002-00-0004-20.png
00000014,867,0,1440429236744,1440429237268,903,491,0,0,0,2,3,1,23,0002-00-0008-45.png,0003-00-0003-77.png
00000014,868,1,1440429240358,1440429241175,305,386,0,0,0,3,4,1,34,0003-00-0001-22.png,0004-00-0009-26.png
00000014,869,1,1440429242170,1440429242655,875,397,0,0,0,4,3,1,43,0004-00-0009-14.png,0003-00-0002-66.png
00000014,870,0,1440429243700,1440429243738,504,509,0,0,0,2,1,1,21,0002-00-0001-47.png,0001-00-0003-72.png
00000014,871,1,1440429246781,1440429247281,299,410,0,0,0,4,5,1,45,0004-00-0003-92.png,0005-00-0003-04.png
00000014,872,1,1440429248182,1440429248203,478,478,0,0,0,1,2,1,12,0001-00-0001-76.png,0002-00-0004-58.png
00000014,873,1,1440429249373,1440429249866,898,482,0,0,0,4,3,1,43,0004-00-0003-12.png,0003-00-0001-88.png
00000014,874,1,1440429250826,1440429251379,926,385,0,0,0,2,1,1,21,0002-00-0000-34.png,0001-00-0005-76.png
00000014,875,0,1440429252413,1440429254010,414,383,0,0,0,5,4,1,54,0005-00-0008-84.png,0004-00-0009-49.png
00000014,876,0,1440429257075,1440429257083,523,443,0,0,0,3,2,1,32,0003-00-0005-02.png,0002-00-0000-99.png
00000014,877,1,1440429259952,1440429259992,517,475,0,0,0,3,4,1,34,0003-00-0000-83.png,0004-00-0003-28.png
00000014,878,0,1440429260929,1440429261499,875,410,0,0,0,2,3,1,23,0002-00-0003-14.png,0003-00-0006-97.png
00000014,879,1,1440429264525,1440429264581,483,486,0,0,0,1,2,1,12,0001-00-0009-73.png,0002-00-0000-02.png
00000014,880,0,1440429265541,1440429266074,905,400,0,0,0,4,5,1,45,0004-00-0006-15.png,0005-00-0005-57.png
00000014,881,0,1440429269071,1440429269590,325,438,0,0,0,4,3,1,43,0004-00-0002-17.png,0003-00-0005-52.png
00000014,882,0,1440429272928,1440429273383,385,406,0,0,0,2,1,1,21,0002-00-0002-49.png,0001-00-0002-95.png
00000014,883,0,1440429276405,1440429276919,912,398,0,0,0,3,4,1,34,0003-00-0000-72.png,0004-00-0000-19.png
00000014,884,1,1440429280144,1440429280581,337,403,0,0,0,1,2,1,12,0001-00-0006-80.png,0002-00-0007-95.png
00000014,885,1,1440429281495,1440429282077,881,391,0,0,0,5,4,1,54,0005-00-0009-82.png,0004-00-0005-49.png
00000014,886,1,1440429283602,1440429284145,352,389,0,0,0,4,5,1,45,0004-00-0003-24.png,0005-00-0007-05.png
00000014,887,1,1440429285110,1440429285657,860,482,0,0,0,3,2,1,32,0003-00-0004-89.png,0002-00-0006-90.png
00000014,888,1,1440429286629,1440429287176,426,497,0,0,0,2,3,1,23,0002-00-0007-83.png,0003-00-0003-22.png
00000014,889,1,1440429288213,1440429288789,248,462,0,0,0,4,5,1,45,0004-00-0008-77.png,0005-00-0000-62.png
00000014,890,0,1440429289832,1440429290384,879,376,0,0,0,2,3,1,23,0002-00-0007-43.png,0003-00-0001-30.png
00000014,891,0,1440429293505,1440429293535,523,499,0,0,0,5,4,1,54,0005-00-0008-56.png,0004-00-0009-21.png
00000014,892,1,1440429296488,1440429296967,312,397,0,0,0,1,2,1,12,0001-00-0004-85.png,0002-00-0003-86.png
00000014,893,0,1440429297942,1440429298531,875,384,0,0,0,3,4,1,34,0003-00-0002-54.png,0004-00-0001-83.png
00000014,894,0,1440429301398,1440429301438,427,497,0,0,0,2,1,1,21,0002-00-0003-99.png,0001-00-0006-48.png
00000014,895,0,1440429304469,1440429305160,299,345,0,0,0,3,2,1,32,0003-00-0007-95.png,0002-00-0004-68.png
00000014,896,1,1440429308386,1440429308830,937,372,0,0,0,4,3,1,43,0004-00-0008-15.png,0003-00-0000-61.png
00000014,897,1,1440429309799,1440429310288,921,393,0,0,0,5,4,1,54,0005-00-0005-47.png,0004-00-0004-75.png
00000014,898,1,1440429311316,1440429311854,875,371,0,0,0,4,3,1,43,0004-00-0006-38.png,0003-00-0006-15.png
00000014,899,1,1440429312857,1440429313829,920,397,0,0,0,2,1,1,21,0002-00-0006-69.png,0001-00-0009-92.png
00000014,900,1,1440429314806,1440429315461,325,357,0,0,0,3,4,1,34,0003-00-0006-86.png,0004-00-0008-18.png
00000014,901,0,1440429316476,1440429316994,863,443,0,0,0,2,3,1,23,0002-00-0002-46.png,0003-00-0000-23.png
00000014,902,0,1440429320002,1440429320636,876,477,0,0,0,1,2,1,12,0001-00-0008-56.png,0002-00-0009-02.png
00000014,903,1,1440429323549,1440429324017,412,398,0,0,0,4,5,1,45,0004-00-0000-55.png,0005-00-0001-17.png
00000014,904,1,1440429324982,1440429325494,887,398,0,0,0,3,2,1,32,0003-00-0003-26.png,0002-00-0005-15.png
00000014,905,0,1440429326484,1440429327015,248,488,0,0,0,3,2,1,32,0003-00-0004-42.png,0002-00-0009-65.png
00000014,906,1,1440429329900,1440429330576,900,475,0,0,0,2,1,1,21,0002-00-0001-79.png,0001-00-0001-46.png
00000014,907,1,1440429331512,1440429332064,858,487,0,0,0,5,4,1,54,0005-00-0001-99.png,0004-00-0004-04.png
00000014,908,1,1440429333032,1440429333080,495,488,0,0,0,1,2,1,12,0001-00-0005-03.png,0002-00-0002-36.png
00000014,909,1,1440429334175,1440429334758,330,370,0,0,0,3,4,1,34,0003-00-0004-39.png,0004-00-0003-88.png
00000014,910,0,1440429335794,1440429336836,952,397,0,0,0,2,3,1,23,0002-00-0002-85.png,0003-00-0003-87.png
00000014,911,1,1440429339825,1440429339845,518,410,0,0,0,4,5,1,45,0004-00-0000-62.png,0005-00-0003-53.png
00000014,912,1,1440429340764,1440429341316,887,398,0,0,0,4,3,1,43,0004-00-0002-76.png,0003-00-0005-17.png
00000014,913,0,1440429342265,1440429343849,919,401,0,0,0,4,5,1,45,0004-00-0009-11.png,0005-00-0009-06.png
00000014,914,0,1440429346824,1440429347361,951,359,0,0,0,2,3,1,23,0002-00-0007-24.png,0003-00-0009-74.png
00000014,915,1,1440429350469,1440429351048,874,371,0,0,0,4,3,1,43,0004-00-0007-06.png,0003-00-0003-36.png
00000014,916,0,1440429352015,1440429352515,369,401,0,0,0,2,1,1,21,0002-00-0000-20.png,0001-00-0006-16.png
00000014,917,1,1440429355470,1440429356012,326,372,0,0,0,3,4,1,34,0003-00-0007-63.png,0004-00-0003-61.png
00000014,918,1,1440429356971,1440429357536,333,419,0,0,0,1,2,1,12,0001-00-0005-11.png,0002-00-0000-50.png
00000014,919,0,1440429358552,1440429359062,391,480,0,0,0,3,2,1,32,0003-00-0001-94.png,0002-00-0002-70.png
00000014,920,0,1440429362017,1440429362049,478,503,0,0,0,5,4,1,54,0005-00-0003-87.png,0004-00-0001-33.png
00000014,921,0,1440429365221,1440429365671,864,483,0,0,0,2,3,1,23,0002-00-0007-95.png,0003-00-0003-89.png
00000014,922,1,1440429372678,1440429373105,899,482,0,0,0,2,1,1,21,0002-00-0000-93.png,0001-00-0003-86.png
00000014,923,0,1440429374130,1440429374845,896,376,0,0,0,3,4,1,34,0003-00-0007-28.png,0004-00-0002-26.png
00000014,924,1,1440429377746,1440429377786,473,489,0,0,0,1,2,1,12,0001-00-0001-27.png,0002-00-0009-21.png
00000014,925,0,1440429378769,1440429379354,312,397,0,0,0,4,3,1,43,0004-00-0004-29.png,0003-00-0002-75.png
00000014,926,1,1440429382825,1440429383297,879,427,0,0,0,3,2,1,32,0003-00-0001-33.png,0002-00-0002-53.png
00000014,927,1,1440429384197,1440429384770,427,384,0,0,0,4,5,1,45,0004-00-0000-54.png,0005-00-0008-82.png
00000014,928,0,1440429385779,1440429386320,346,440,0,0,0,5,4,1,54,0005-00-0003-75.png,0004-00-0000-10.png
00000014,929,1,1440429389365,1440429389389,516,503,0,0,0,1,2,1,12,0001-00-0002-91.png,0002-00-0000-94.png
00000014,930,1,1440429390328,1440429391317,417,492,0,0,0,2,3,1,23,0002-00-0000-12.png,0003-00-0004-09.png
00000014,931,1,1440429392308,1440429392913,896,404,0,0,0,3,2,1,32,0003-00-0001-85.png,0002-00-0006-89.png
00000014,932,1,1440429393914,1440429394462,900,423,0,0,0,5,4,1,54,0005-00-0001-49.png,0004-00-0000-32.png
00000014,933,0,1440429395477,1440429396123,905,364,0,0,0,3,4,1,34,0003-00-0007-96.png,0004-00-0007-65.png
00000014,934,0,1440429398959,1440429399003,470,454,0,0,0,2,1,1,21,0002-00-0004-94.png,0001-00-0006-22.png
00000014,935,0,1440429401844,1440429401876,519,442,0,0,0,4,3,1,43,0004-00-0009-74.png,0003-00-0001-71.png
00000014,936,1,1440429405037,1440429405546,390,392,0,0,0,4,5,1,45,0004-00-0002-88.png,0005-00-0004-15.png
00000014,937,1,1440429406498,1440429407061,862,488,0,0,0,2,1,1,21,0002-00-0004-87.png,0001-00-0004-97.png
00000014,938,1,1440429408070,1440429408580,891,470,0,0,0,4,3,1,43,0004-00-0009-75.png,0003-00-0003-77.png
00000014,939,1,1440429409527,1440429410512,952,409,0,0,0,3,2,1,32,0003-00-0004-51.png,0002-00-0003-43.png
00000014,940,1,1440429411449,1440429412011,347,396,0,0,0,2,3,1,23,0002-00-0001-92.png,0003-00-0009-70.png
00000014,941,1,1440429413019,1440429413578,350,410,0,0,0,1,2,1,12,0001-00-0008-89.png,0002-00-0007-56.png
00000014,942,0,1440429414608,1440429415156,878,386,0,0,0,3,4,1,34,0003-00-0008-66.png,0004-00-0000-59.png
