subject_id,trial,correct_response,stim_time,response_time,x_coord,y_coord,trial_timeout,timeout_time,interTrial_timeout,left_rank,right_rank,distance,joint_rank,left_image,right_image
00000014,1,1,1439392007392,1439392008046,959,345,0,0,0,3,2,1,32,0003-00-0000-41.png,0002-00-0000-70.png
00000014,2,1,1439392009309,1439392009812,357,401,0,0,0,3,4,1,34,0003-00-0000-75.png,0004-00-0001-26.png
00000014,3,0,1439392011038,1439392011552,400,394,0,0,0,4,3,1,43,0004-00-0000-32.png,0003-00-0000-40.png
00000014,4,1,1439392014503,1439392015139,924,457,0,0,0,5,4,1,54,0005-00-0000-49.png,0004-00-0001-54.png
00000014,5,0,1439392016066,1439392016651,972,366,0,0,0,2,3,1,23,0002-00-0001-82.png,0003-00-0000-96.png
00000014,6,1,1439392019830,1439392020375,367,366,0,0,0,4,5,1,45,0004-00-0001-20.png,0005-00-0000-85.png
00000014,7,0,1439392021447,1439392021997,955,410,0,0,0,1,2,1,12,0001-00-0001-62.png,0002-00-0001-01.png
00000014,8,1,1439392024842,1439392025550,967,337,0,0,0,2,1,1,21,0002-00-0001-27.png,0001-00-0001-57.png
00000014,9,1,1439392026533,1439392027202,376,371,0,0,0,2,3,1,23,0002-00-0000-38.png,0003-00-0001-20.png
00000014,10,1,1439392028189,1439392028806,894,341,0,0,0,3,2,1,32,0003-00-0001-83.png,0002-00-0000-23.png
00000014,11,1,1439392029828,1439392030641,338,370,0,0,0,3,4,1,34,0003-00-0000-56.png,0004-00-0000-21.png
00000014,12,1,1439392031593,1439392032136,927,384,0,0,0,2,1,1,21,0002-00-0000-17.png,0001-00-0001-42.png
00000014,13,1,1439392033115,1439392034079,913,358,0,0,0,5,4,1,54,0005-00-0000-67.png,0004-00-0000-26.png
00000014,14,0,1439392035047,1439392035644,922,399,0,0,0,1,2,1,12,0001-00-0001-71.png,0002-00-0000-27.png
00000014,15,0,1439392038693,1439392039280,899,358,0,0,0,4,5,1,45,0004-00-0000-72.png,0005-00-0000-86.png
00000014,16,1,1439392042165,1439392042684,955,400,0,0,0,4,3,1,43,0004-00-0001-52.png,0003-00-0000-24.png
00000014,17,1,1439392043615,1439392044184,926,384,0,0,0,3,2,1,32,0003-00-0001-81.png,0002-00-0000-95.png
00000014,18,0,1439392045103,1439392045821,938,436,0,0,0,1,2,1,12,0001-00-0000-57.png,0002-00-0001-87.png
00000014,19,0,1439392048787,1439392049519,938,397,0,0,0,2,3,1,23,0002-00-0000-93.png,0003-00-0001-04.png
00000014,20,0,1439392052536,1439392053248,898,312,0,0,0,4,5,1,45,0004-00-0001-02.png,0005-00-0000-98.png
00000014,21,1,1439392056102,1439392056897,1002,344,0,0,0,4,3,1,43,0004-00-0001-51.png,0003-00-0000-54.png
00000014,22,0,1439392057965,1439392058673,982,349,0,0,0,3,4,1,34,0003-00-0001-55.png,0004-00-0001-09.png
00000014,23,1,1439392061542,1439392062305,950,412,0,0,0,5,4,1,54,0005-00-0001-07.png,0004-00-0001-75.png
00000014,24,1,1439392063381,1439392063956,931,400,0,0,0,2,1,1,21,0002-00-0000-43.png,0001-00-0000-00.png
00000014,25,1,1439392064903,1439392065719,947,367,0,0,0,4,3,1,43,0004-00-0000-62.png,0003-00-0000-86.png
00000014,26,0,1439392066741,1439392067449,423,373,0,0,0,2,1,1,21,0002-00-0001-62.png,0001-00-0000-22.png
00000014,27,1,1439392070574,1439392071430,974,392,0,0,0,3,2,1,32,0003-00-0000-07.png,0002-00-0000-23.png
00000014,28,1,1439392072397,1439392073050,376,398,0,0,0,4,5,1,45,0004-00-0001-85.png,0005-00-0000-88.png
00000014,29,1,1439392073976,1439392074632,437,514,0,0,0,3,4,1,34,0003-00-0001-65.png,0004-00-0001-38.png
00000014,30,0,1439392075694,1439392076595,862,358,0,0,0,1,2,1,12,0001-00-0001-62.png,0002-00-0001-72.png
00000014,31,1,1439392079489,1439392079992,957,373,0,0,0,5,4,1,54,0005-00-0001-92.png,0004-00-0000-54.png
00000014,32,0,1439392080981,1439392081567,938,371,0,0,0,2,3,1,23,0002-00-0001-09.png,0003-00-0000-87.png
00000014,33,1,1439392084567,1439392085165,912,502,0,0,0,2,1,1,21,0002-00-0001-47.png,0001-00-0000-24.png
00000014,34,1,1439392086159,1439392086698,954,415,0,0,0,4,3,1,43,0004-00-0000-29.png,0003-00-0000-12.png
00000014,35,1,1439392090719,1439392091321,357,371,0,0,0,2,3,1,23,0002-00-0000-03.png,0003-00-0000-40.png
00000014,36,1,1439392092270,1439392092893,318,374,0,0,0,3,4,1,34,0003-00-0001-82.png,0004-00-0001-96.png
00000014,37,0,1439392093882,1439392094612,945,352,0,0,0,4,5,1,45,0004-00-0001-99.png,0005-00-0001-12.png
00000014,38,0,1439392097626,1439392098300,356,360,0,0,0,3,2,1,32,0003-00-0000-67.png,0002-00-0001-48.png
00000014,39,1,1439392101434,1439392102329,928,358,0,0,0,5,4,1,54,0005-00-0001-62.png,0004-00-0000-96.png
00000014,40,0,1439392103202,1439392103771,939,488,0,0,0,1,2,1,12,0001-00-0000-32.png,0002-00-0001-79.png
00000014,41,1,1439392107199,1439392107778,926,463,0,0,0,5,4,1,54,0005-00-0001-46.png,0004-00-0001-65.png
00000014,42,1,1439392108731,1439392109612,925,484,0,0,0,4,3,1,43,0004-00-0001-78.png,0003-00-0001-93.png
00000014,43,0,1439392110468,1439392110508,522,455,0,0,0,3,2,1,32,0003-00-0001-43.png,0002-00-0000-72.png
00000014,44,1,1439392113387,1439392113890,913,306,0,0,0,2,1,1,21,0002-00-0001-55.png,0001-00-0000-13.png
00000014,45,0,1439392114840,1439392115412,925,458,0,0,0,2,3,1,23,0002-00-0001-61.png,0003-00-0000-51.png
00000014,46,0,1439392123181,1439392123899,982,349,0,0,0,3,4,1,34,0003-00-0000-95.png,0004-00-0001-67.png
00000014,47,1,1439392126800,1439392127501,381,353,0,0,0,4,5,1,45,0004-00-0000-90.png,0005-00-0000-33.png
00000014,48,0,1439392128668,1439392129635,900,514,0,0,0,1,2,1,12,0001-00-0001-49.png,0002-00-0001-41.png
00000014,49,1,1439392134226,1439392134932,248,384,0,0,0,3,4,1,34,0003-00-0000-21.png,0004-00-0000-71.png
00000014,50,1,1439392135947,1439392136898,962,398,0,0,0,5,4,1,54,0005-00-0000-56.png,0004-00-0000-60.png
00000014,51,1,1439392137805,1439392137842,523,442,0,0,0,2,3,1,23,0002-00-0001-49.png,0003-00-0001-69.png
00000014,52,0,1439392138898,1439392139451,902,466,0,0,0,1,2,1,12,0001-00-0000-10.png,0002-00-0000-09.png
00000014,53,1,1439392142366,1439392143156,358,366,0,0,0,4,5,1,45,0004-00-0000-77.png,0005-00-0000-39.png
00000014,54,1,1439392144066,1439392144632,977,384,0,0,0,4,3,1,43,0004-00-0000-96.png,0003-00-0000-66.png
00000014,55,1,1439392145549,1439392146287,951,408,0,0,0,3,2,1,32,0003-00-0001-35.png,0002-00-0000-82.png
00000014,56,1,1439392147216,1439392147800,931,389,0,0,0,2,1,1,21,0002-00-0001-02.png,0001-00-0000-66.png
00000014,57,0,1439392148696,1439392149323,927,366,0,0,0,4,5,1,45,0004-00-0000-83.png,0005-00-0001-10.png
00000014,58,0,1439392152273,1439392152856,990,374,0,0,0,3,4,1,34,0003-00-0001-02.png,0004-00-0000-14.png
00000014,59,1,1439392155942,1439392156484,888,384,0,0,0,2,1,1,21,0002-00-0001-00.png,0001-00-0001-40.png
00000014,60,1,1439392157505,1439392158067,880,333,0,0,0,4,3,1,43,0004-00-0000-16.png,0003-00-0001-29.png
00000014,61,1,1439392159022,1439392159854,933,348,0,0,0,5,4,1,54,0005-00-0001-80.png,0004-00-0001-06.png
00000014,62,1,1439392160872,1439392161464,913,439,0,0,0,3,2,1,32,0003-00-0000-47.png,0002-00-0001-97.png
00000014,63,0,1439392162431,1439392162965,952,346,0,0,0,2,3,1,23,0002-00-0001-56.png,0003-00-0000-21.png
00000014,64,1,1439392165976,1439392166578,402,374,0,0,0,1,2,1,12,0001-00-0001-67.png,0002-00-0000-18.png
00000014,65,0,1439392167488,1439392168628,954,376,0,0,0,2,3,1,23,0002-00-0000-71.png,0003-00-0000-85.png
00000014,66,1,1439392172893,1439392173419,946,371,0,0,0,5,4,1,54,0005-00-0000-26.png,0004-00-0001-90.png
00000014,67,0,1439392174416,1439392175096,940,374,0,0,0,3,4,1,34,0003-00-0001-73.png,0004-00-0001-58.png
00000014,68,1,1439392178298,1439392178895,950,387,0,0,0,4,3,1,43,0004-00-0000-14.png,0003-00-0000-30.png
00000014,69,0,1439392179830,1439392180573,382,375,0,0,0,3,2,1,32,0003-00-0001-32.png,0002-00-0000-96.png
00000014,70,1,1439392183544,1439392184129,954,388,0,0,0,2,1,1,21,0002-00-0001-72.png,0001-00-0000-20.png
00000014,71,0,1439392185070,1439392185646,927,382,0,0,0,4,5,1,45,0004-00-0001-68.png,0005-00-0000-43.png
00000014,72,1,1439392188515,1439392189439,441,468,0,0,0,1,2,1,12,0001-00-0000-33.png,0002-00-0001-20.png
00000014,73,1,1439392190315,1439392190888,924,486,0,0,0,5,4,1,54,0005-00-0000-37.png,0004-00-0000-32.png
00000014,74,1,1439392191817,1439392192616,377,367,0,0,0,1,2,1,12,0001-00-0000-34.png,0002-00-0000-42.png
00000014,75,0,1439392193495,1439392194059,925,387,0,0,0,3,4,1,34,0003-00-0000-09.png,0004-00-0001-14.png
00000014,76,1,1439392197051,1439392197645,870,340,0,0,0,3,2,1,32,0003-00-0000-53.png,0002-00-0001-11.png
00000014,77,0,1439392198665,1439392199216,914,449,0,0,0,4,5,1,45,0004-00-0000-71.png,0005-00-0000-01.png
00000014,78,0,1439392202316,1439392202371,511,456,0,0,0,2,1,1,21,0002-00-0000-92.png,0001-00-0001-96.png
00000014,79,0,1439392208274,1439392208837,955,348,0,0,0,2,3,1,23,0002-00-0001-00.png,0003-00-0000-22.png
00000014,80,1,1439392211961,1439392212612,928,373,0,0,0,4,3,1,43,0004-00-0000-23.png,0003-00-0001-61.png
00000014,81,1,1439392213573,1439392214164,956,374,0,0,0,4,3,1,43,0004-00-0001-87.png,0003-00-0000-65.png
00000014,82,0,1439392215140,1439392215788,924,457,0,0,0,2,3,1,23,0002-00-0001-80.png,0003-00-0000-14.png
00000014,83,0,1439392218786,1439392218810,510,461,0,0,0,3,2,1,32,0003-00-0001-49.png,0002-00-0000-03.png
00000014,84,0,1439392222388,1439392223289,376,410,0,0,0,5,4,1,54,0005-00-0000-24.png,0004-00-0000-64.png
00000014,85,1,1439392226626,1439392227460,374,499,0,0,0,4,5,1,45,0004-00-0000-00.png,0005-00-0001-30.png
00000014,86,0,1439392228459,1439392229146,388,398,0,0,0,2,1,1,21,0002-00-0000-14.png,0001-00-0001-00.png
00000014,87,0,1439392232137,1439392232762,972,393,0,0,0,3,4,1,34,0003-00-0000-40.png,0004-00-0001-51.png
00000014,88,0,1439392236474,1439392237174,899,448,0,0,0,1,2,1,12,0001-00-0000-80.png,0002-00-0001-37.png
00000014,89,1,1439392240127,1439392240694,379,470,0,0,0,3,4,1,34,0003-00-0000-09.png,0004-00-0001-48.png
00000014,90,0,1439392241661,1439392242600,383,371,0,0,0,3,2,1,32,0003-00-0000-37.png,0002-00-0001-19.png
00000014,91,0,1439392245442,1439392246008,913,502,0,0,0,2,3,1,23,0002-00-0001-87.png,0003-00-0001-50.png
00000014,92,0,1439392249004,1439392249581,976,384,0,0,0,1,2,1,12,0001-00-0000-90.png,0002-00-0001-44.png
00000014,93,0,1439392252690,1439392253463,974,409,0,0,0,4,5,1,45,0004-00-0000-35.png,0005-00-0000-69.png
00000014,94,1,1439392256388,1439392257278,977,333,0,0,0,5,4,1,54,0005-00-0001-48.png,0004-00-0000-07.png
00000014,95,1,1439392258306,1439392258868,927,486,0,0,0,2,1,1,21,0002-00-0000-25.png,0001-00-0000-88.png
00000014,96,1,1439392259867,1439392260433,931,351,0,0,0,4,3,1,43,0004-00-0000-86.png,0003-00-0001-96.png
00000014,97,1,1439392261446,1439392262106,913,411,0,0,0,3,2,1,32,0003-00-0000-91.png,0002-00-0000-60.png
00000014,98,0,1439392263106,1439392263661,937,372,0,0,0,2,3,1,23,0002-00-0000-48.png,0003-00-0001-33.png
00000014,99,1,1439392266486,1439392267410,388,345,0,0,0,4,5,1,45,0004-00-0001-25.png,0005-00-0000-11.png
00000014,100,0,1439392268291,1439392268916,905,402,0,0,0,3,4,1,34,0003-00-0001-49.png,0004-00-0001-79.png
00000014,101,0,1439392272040,1439392272816,888,306,0,0,0,1,2,1,12,0001-00-0001-26.png,0002-00-0000-91.png
00000014,102,1,1439392275708,1439392276294,951,384,0,0,0,5,4,1,54,0005-00-0001-50.png,0004-00-0000-50.png
00000014,103,1,1439392277348,1439392277942,900,501,0,0,0,2,1,1,21,0002-00-0000-71.png,0001-00-0001-45.png
00000014,104,0,1439392278893,1439392279673,376,371,0,0,0,4,3,1,43,0004-00-0000-00.png,0003-00-0000-04.png
00000014,105,1,1439392282736,1439392283370,376,363,0,0,0,4,5,1,45,0004-00-0000-21.png,0005-00-0000-63.png
00000014,106,1,1439392284343,1439392284920,892,484,0,0,0,2,1,1,21,0002-00-0001-27.png,0001-00-0001-60.png
00000014,107,0,1439392285876,1439392286724,347,381,0,0,0,3,2,1,32,0003-00-0000-83.png,0002-00-0001-51.png
00000014,108,0,1439392289720,1439392290527,950,365,0,0,0,1,2,1,12,0001-00-0000-77.png,0002-00-0001-20.png
00000014,109,0,1439392296713,1439392297800,923,410,0,0,0,3,4,1,34,0003-00-0000-60.png,0004-00-0001-40.png
00000014,110,1,1439392301020,1439392301693,934,447,0,0,0,4,3,1,43,0004-00-0001-04.png,0003-00-0000-29.png
00000014,111,1,1439392302731,1439392303371,971,392,0,0,0,5,4,1,54,0005-00-0000-76.png,0004-00-0000-66.png
00000014,112,0,1439392304309,1439392305414,929,410,0,0,0,2,3,1,23,0002-00-0000-02.png,0003-00-0001-03.png
00000014,113,1,1439392308293,1439392309079,390,485,0,0,0,2,3,1,23,0002-00-0001-89.png,0003-00-0000-36.png
00000014,114,0,1439392310025,1439392310599,936,439,0,0,0,1,2,1,12,0001-00-0000-47.png,0002-00-0000-63.png
00000014,115,0,1439392313484,1439392314636,889,370,0,0,0,4,5,1,45,0004-00-0000-91.png,0005-00-0001-83.png
00000014,116,0,1439392317539,1439392318393,360,357,0,0,0,3,2,1,32,0003-00-0000-89.png,0002-00-0000-96.png
00000014,117,1,1439392321235,1439392322050,388,370,0,0,0,3,4,1,34,0003-00-0000-66.png,0004-00-0001-62.png
00000014,118,1,1439392323042,1439392323617,889,470,0,0,0,2,1,1,21,0002-00-0000-94.png,0001-00-0001-91.png
00000014,119,0,1439392324646,1439392325416,345,348,0,0,0,5,4,1,54,0005-00-0000-96.png,0004-00-0001-82.png
00000014,120,0,1439392328510,1439392328526,490,441,0,0,0,4,3,1,43,0004-00-0001-64.png,0003-00-0000-20.png
00000014,121,1,1439392332216,1439392332852,412,475,0,0,0,3,4,1,34,0003-00-0000-12.png,0004-00-0001-32.png
00000014,122,1,1439392333819,1439392334523,339,358,0,0,0,2,3,1,23,0002-00-0001-62.png,0003-00-0001-43.png
00000014,123,1,1439392335471,1439392336150,367,377,0,0,0,4,5,1,45,0004-00-0001-51.png,0005-00-0000-01.png
00000014,124,1,1439392337154,1439392337869,953,365,0,0,0,5,4,1,54,0005-00-0001-68.png,0004-00-0000-31.png
00000014,125,1,1439392338856,1439392339424,913,395,0,0,0,4,3,1,43,0004-00-0000-72.png,0003-00-0001-01.png
00000014,126,0,1439392340486,1439392341370,402,352,0,0,0,2,1,1,21,0002-00-0001-59.png,0001-00-0000-80.png
00000014,127,1,1439392344330,1439392344953,978,370,0,0,0,3,2,1,32,0003-00-0000-76.png,0002-00-0001-26.png
00000014,128,1,1439392345941,1439392346582,248,436,0,0,0,1,2,1,12,0001-00-0001-26.png,0002-00-0000-27.png
00000014,129,0,1439392347591,1439392348154,898,346,0,0,0,4,5,1,45,0004-00-0000-11.png,0005-00-0000-81.png
00000014,130,1,1439392351196,1439392352288,434,393,0,0,0,3,4,1,34,0003-00-0000-11.png,0004-00-0001-86.png
00000014,131,1,1439392353602,1439392354245,376,384,0,0,0,1,2,1,12,0001-00-0000-99.png,0002-00-0000-90.png
00000014,132,1,1439392355174,1439392355792,929,387,0,0,0,3,2,1,32,0003-00-0000-56.png,0002-00-0000-97.png
00000014,133,1,1439392356755,1439392357448,401,502,0,0,0,2,3,1,23,0002-00-0000-15.png,0003-00-0000-02.png
00000014,134,0,1439392358404,1439392359077,420,480,0,0,0,4,3,1,43,0004-00-0001-07.png,0003-00-0001-70.png
00000014,135,1,1439392362218,1439392362995,923,461,0,0,0,2,1,1,21,0002-00-0001-91.png,0001-00-0001-37.png
00000014,136,0,1439392363971,1439392364804,413,464,0,0,0,5,4,1,54,0005-00-0000-19.png,0004-00-0001-97.png
00000014,137,1,1439392369126,1439392369774,331,377,0,0,0,4,5,1,45,0004-00-0001-79.png,0005-00-0001-27.png
00000014,138,1,1439392370756,1439392371425,350,449,0,0,0,3,4,1,34,0003-00-0000-47.png,0004-00-0001-38.png
00000014,139,0,1439392372562,1439392373675,421,541,0,0,0,3,2,1,32,0003-00-0000-74.png,0002-00-0000-08.png
00000014,140,1,1439392376778,1439392376810,513,482,0,0,0,2,3,1,23,0002-00-0001-37.png,0003-00-0000-14.png
00000014,141,1,1439392377823,1439392378349,886,429,0,0,0,4,3,1,43,0004-00-0001-14.png,0003-00-0000-09.png
00000014,142,1,1439392379709,1439392380392,376,384,0,0,0,1,2,1,12,0001-00-0001-21.png,0002-00-0000-86.png
00000014,143,1,1439392381367,1439392381896,921,420,0,0,0,5,4,1,54,0005-00-0000-43.png,0004-00-0000-23.png
00000014,144,0,1439392382880,1439392383559,349,392,0,0,0,2,1,1,21,0002-00-0001-95.png,0001-00-0001-75.png
00000014,145,0,1439392386605,1439392387210,880,374,0,0,0,3,4,1,34,0003-00-0001-37.png,0004-00-0001-14.png
00000014,146,0,1439392390163,1439392390822,354,401,0,0,0,2,1,1,21,0002-00-0000-44.png,0001-00-0001-56.png
00000014,147,1,1439392393706,1439392394450,222,436,0,0,0,4,5,1,45,0004-00-0001-03.png,0005-00-0000-08.png
00000014,148,0,1439392395474,1439392396077,900,397,0,0,0,1,2,1,12,0001-00-0001-17.png,0002-00-0001-36.png
00000014,149,1,1439392399300,1439392400528,901,397,0,0,0,5,4,1,54,0005-00-0000-11.png,0004-00-0000-12.png
00000014,150,0,1439392401455,1439392402095,887,514,0,0,0,2,3,1,23,0002-00-0001-31.png,0003-00-0000-19.png
00000014,151,0,1439392404960,1439392405792,325,372,0,0,0,4,3,1,43,0004-00-0000-43.png,0003-00-0001-37.png
00000014,152,1,1439392408973,1439392409802,952,382,0,0,0,3,2,1,32,0003-00-0001-04.png,0002-00-0001-73.png
00000014,153,0,1439392410785,1439392411381,931,402,0,0,0,3,4,1,34,0003-00-0001-47.png,0004-00-0000-97.png
00000014,154,1,1439392414409,1439392414971,915,475,0,0,0,2,1,1,21,0002-00-0000-46.png,0001-00-0000-55.png
00000014,155,0,1439392415925,1439392416548,923,429,0,0,0,2,3,1,23,0002-00-0001-42.png,0003-00-0000-19.png
00000014,156,0,1439392419656,1439392420488,346,360,0,0,0,3,2,1,32,0003-00-0000-09.png,0002-00-0000-27.png
00000014,157,1,1439392423545,1439392423561,522,377,0,0,0,1,2,1,12,0001-00-0000-30.png,0002-00-0001-52.png
00000014,158,1,1439392424561,1439392425647,953,384,0,0,0,5,4,1,54,0005-00-0000-60.png,0004-00-0001-99.png
00000014,159,0,1439392426630,1439392427377,358,360,0,0,0,4,3,1,43,0004-00-0000-01.png,0003-00-0000-08.png
00000014,160,1,1439392430221,1439392431090,333,345,0,0,0,4,5,1,45,0004-00-0001-98.png,0005-00-0001-48.png
00000014,161,1,1439392432109,1439392432758,376,384,0,0,0,1,2,1,12,0001-00-0001-23.png,0002-00-0001-42.png
00000014,162,1,1439392433777,1439392434359,956,374,0,0,0,4,3,1,43,0004-00-0001-29.png,0003-00-0001-67.png
00000014,163,0,1439392435417,1439392435982,925,387,0,0,0,4,5,1,45,0004-00-0001-67.png,0005-00-0000-72.png
00000014,164,0,1439392438975,1439392439595,328,372,0,0,0,3,2,1,32,0003-00-0000-22.png,0002-00-0001-77.png
00000014,165,1,1439392442438,1439392443139,956,375,0,0,0,5,4,1,54,0005-00-0001-39.png,0004-00-0000-91.png
00000014,166,0,1439392444373,1439392444981,944,382,0,0,0,2,3,1,23,0002-00-0001-95.png,0003-00-0000-67.png
00000014,167,1,1439392447917,1439392448719,388,364,0,0,0,3,4,1,34,0003-00-0001-82.png,0004-00-0000-76.png
00000014,168,1,1439392449658,1439392450226,914,372,0,0,0,2,1,1,21,0002-00-0001-46.png,0001-00-0000-67.png
00000014,169,1,1439392451237,1439392451902,898,405,0,0,0,2,1,1,21,0002-00-0001-59.png,0001-00-0000-36.png
00000014,170,1,1439392452938,1439392453592,890,485,0,0,0,3,2,1,32,0003-00-0001-62.png,0002-00-0000-59.png
00000014,171,0,1439392454638,1439392455322,922,471,0,0,0,2,3,1,23,0002-00-0000-71.png,0003-00-0001-85.png
00000014,172,1,1439392463083,1439392463581,964,410,0,0,0,4,3,1,43,0004-00-0001-80.png,0003-00-0001-55.png
00000014,173,1,1439392464800,1439392465451,376,332,0,0,0,1,2,1,12,0001-00-0000-18.png,0002-00-0001-83.png
00000014,174,0,1439392466567,1439392467145,953,383,0,0,0,3,4,1,34,0003-00-0001-42.png,0004-00-0000-13.png
00000014,175,1,1439392469994,1439392470527,878,494,0,0,0,5,4,1,54,0005-00-0000-85.png,0004-00-0000-23.png
00000014,176,1,1439392471579,1439392472294,337,376,0,0,0,4,5,1,45,0004-00-0000-90.png,0005-00-0000-79.png
00000014,177,1,1439392473318,1439392473912,930,418,0,0,0,5,4,1,54,0005-00-0001-47.png,0004-00-0001-22.png
00000014,178,1,1439392474918,1439392475672,400,358,0,0,0,4,5,1,45,0004-00-0000-51.png,0005-00-0001-32.png
00000014,179,0,1439392476689,1439392477388,898,481,0,0,0,2,3,1,23,0002-00-0001-13.png,0003-00-0000-15.png
00000014,180,0,1439392480423,1439392480455,522,403,0,0,0,3,2,1,32,0003-00-0001-07.png,0002-00-0000-19.png
00000014,181,0,1439392483584,1439392484157,384,394,0,0,0,2,1,1,21,0002-00-0000-15.png,0001-00-0001-03.png
00000014,182,1,1439392487048,1439392487788,381,400,0,0,0,1,2,1,12,0001-00-0000-41.png,0002-00-0001-12.png
00000014,183,1,1439392488751,1439392489473,376,410,0,0,0,3,4,1,34,0003-00-0000-30.png,0004-00-0001-05.png
00000014,184,1,1439392490513,1439392491174,939,372,0,0,0,4,3,1,43,0004-00-0001-37.png,0003-00-0001-11.png
00000014,185,1,1439392492163,1439392492757,951,371,0,0,0,3,2,1,32,0003-00-0001-56.png,0002-00-0001-63.png
00000014,186,0,1439392493781,1439392494449,337,393,0,0,0,4,3,1,43,0004-00-0000-47.png,0003-00-0000-63.png
00000014,187,1,1439392497345,1439392497389,522,402,0,0,0,2,3,1,23,0002-00-0001-65.png,0003-00-0000-96.png
00000014,188,0,1439392498370,1439392499031,930,427,0,0,0,1,2,1,12,0001-00-0000-93.png,0002-00-0001-09.png
00000014,189,1,1439392502049,1439392502900,401,384,0,0,0,3,4,1,34,0003-00-0001-22.png,0004-00-0001-53.png
00000014,190,0,1439392503898,1439392504579,366,394,0,0,0,5,4,1,54,0005-00-0001-48.png,0004-00-0000-28.png
00000014,191,0,1439392507435,1439392508295,908,489,0,0,0,4,5,1,45,0004-00-0000-41.png,0005-00-0000-90.png
00000014,192,1,1439392511682,1439392512274,930,375,0,0,0,2,1,1,21,0002-00-0001-10.png,0001-00-0001-63.png
00000014,193,0,1439392513300,1439392513795,953,404,0,0,0,2,3,1,23,0002-00-0000-61.png,0003-00-0000-37.png
00000014,194,1,1439392517043,1439392517661,925,509,0,0,0,2,1,1,21,0002-00-0000-60.png,0001-00-0000-91.png
00000014,195,1,1439392518707,1439392519262,954,388,0,0,0,5,4,1,54,0005-00-0000-84.png,0004-00-0000-31.png
00000014,196,0,1439392520663,1439392521262,879,507,0,0,0,4,5,1,45,0004-00-0000-88.png,0005-00-0000-78.png
00000014,197,1,1439392524241,1439392525290,893,510,0,0,0,3,2,1,32,0003-00-0001-20.png,0002-00-0000-42.png
00000014,198,1,1439392526166,1439392526210,516,456,0,0,0,3,4,1,34,0003-00-0001-52.png,0004-00-0001-90.png
00000014,199,1,1439392527322,1439392527934,887,518,0,0,0,4,3,1,43,0004-00-0000-95.png,0003-00-0000-60.png
00000014,200,0,1439392528933,1439392529531,911,398,0,0,0,1,2,1,12,0001-00-0000-98.png,0002-00-0000-11.png
00000014,201,1,1439392533098,1439392533710,938,398,0,0,0,3,2,1,32,0003-00-0000-49.png,0002-00-0000-20.png
00000014,202,1,1439392534636,1439392535210,875,358,0,0,0,4,3,1,43,0004-00-0000-13.png,0003-00-0001-87.png
00000014,203,0,1439392536201,1439392536790,930,375,0,0,0,3,4,1,34,0003-00-0000-48.png,0004-00-0001-04.png
00000014,204,1,1439392539837,1439392540385,902,466,0,0,0,5,4,1,54,0005-00-0000-84.png,0004-00-0001-31.png
00000014,205,0,1439392541395,1439392542102,363,400,0,0,0,2,1,1,21,0002-00-0000-84.png,0001-00-0000-72.png
00000014,206,1,1439392544979,1439392545613,387,516,0,0,0,1,2,1,12,0001-00-0000-66.png,0002-00-0000-67.png
00000014,207,1,1439392546481,1439392547205,353,377,0,0,0,4,5,1,45,0004-00-0001-49.png,0005-00-0000-65.png
00000014,208,0,1439392548202,1439392549032,946,392,0,0,0,2,3,1,23,0002-00-0001-87.png,0003-00-0001-10.png
00000014,209,1,1439392551923,1439392552592,356,472,0,0,0,3,4,1,34,0003-00-0000-36.png,0004-00-0001-24.png
00000014,210,1,1439392553546,1439392554204,937,372,0,0,0,4,3,1,43,0004-00-0001-21.png,0003-00-0000-29.png
00000014,211,0,1439392555137,1439392555675,930,401,0,0,0,2,3,1,23,0002-00-0000-19.png,0003-00-0000-98.png
00000014,212,0,1439392558813,1439392559513,950,359,0,0,0,4,5,1,45,0004-00-0001-03.png,0005-00-0000-37.png
00000014,213,1,1439392562440,1439392562468,522,452,0,0,0,1,2,1,12,0001-00-0000-88.png,0002-00-0001-17.png
00000014,214,0,1439392563626,1439392564416,438,518,0,0,0,2,1,1,21,0002-00-0000-84.png,0001-00-0001-69.png
00000014,215,1,1439392569375,1439392570194,926,397,0,0,0,5,4,1,54,0005-00-0001-60.png,0004-00-0000-95.png
00000014,216,0,1439392571187,1439392571898,348,388,0,0,0,3,2,1,32,0003-00-0001-13.png,0002-00-0001-40.png
00000014,217,1,1439392574885,1439392575580,357,392,0,0,0,1,2,1,12,0001-00-0001-05.png,0002-00-0001-70.png
00000014,218,1,1439392576473,1439392577217,414,502,0,0,0,4,5,1,45,0004-00-0001-19.png,0005-00-0001-53.png
00000014,219,0,1439392578204,1439392578900,427,358,0,0,0,3,2,1,32,0003-00-0000-61.png,0002-00-0001-38.png
00000014,220,1,1439392581939,1439392582558,922,393,0,0,0,4,3,1,43,0004-00-0000-71.png,0003-00-0001-55.png
00000014,221,1,1439392583459,1439392584419,922,431,0,0,0,5,4,1,54,0005-00-0000-56.png,0004-00-0001-38.png
00000014,222,0,1439392585339,1439392586134,384,385,0,0,0,2,1,1,21,0002-00-0000-87.png,0001-00-0000-34.png
00000014,223,1,1439392589506,1439392590158,350,414,0,0,0,2,3,1,23,0002-00-0001-17.png,0003-00-0001-06.png
00000014,224,0,1439392591115,1439392591659,930,427,0,0,0,3,4,1,34,0003-00-0000-56.png,0004-00-0001-05.png
00000014,225,1,1439392594516,1439392595159,895,472,0,0,0,4,3,1,43,0004-00-0000-03.png,0003-00-0001-97.png
00000014,226,0,1439392596071,1439392596630,938,424,0,0,0,3,4,1,34,0003-00-0001-56.png,0004-00-0001-43.png
00000014,227,0,1439392600016,1439392600048,518,429,0,0,0,3,2,1,32,0003-00-0000-67.png,0002-00-0001-51.png
00000014,228,1,1439392603116,1439392603989,393,496,0,0,0,2,3,1,23,0002-00-0000-19.png,0003-00-0000-02.png
00000014,229,1,1439392604917,1439392605545,916,482,0,0,0,5,4,1,54,0005-00-0001-40.png,0004-00-0001-61.png
00000014,230,1,1439392606505,1439392606537,522,492,0,0,0,1,2,1,12,0001-00-0000-48.png,0002-00-0001-27.png
00000014,231,1,1439392607789,1439392607825,504,488,0,0,0,4,5,1,45,0004-00-0001-21.png,0005-00-0001-98.png
00000014,232,1,1439392609203,1439392609775,927,423,0,0,0,2,1,1,21,0002-00-0000-12.png,0001-00-0000-74.png
00000014,233,1,1439392610949,1439392611494,931,427,0,0,0,2,1,1,21,0002-00-0000-06.png,0001-00-0000-88.png
00000014,234,1,1439392612601,1439392613381,376,382,0,0,0,4,5,1,45,0004-00-0000-49.png,0005-00-0001-50.png
00000014,235,0,1439392614430,1439392615173,394,403,0,0,0,3,2,1,32,0003-00-0000-58.png,0002-00-0001-53.png
00000014,236,1,1439392618005,1439392618662,372,367,0,0,0,2,3,1,23,0002-00-0000-95.png,0003-00-0001-83.png
00000014,237,0,1439392619617,1439392620607,954,389,0,0,0,3,4,1,34,0003-00-0000-90.png,0004-00-0000-07.png
00000014,238,0,1439392623672,1439392623720,518,488,0,0,0,4,3,1,43,0004-00-0000-59.png,0003-00-0001-96.png
00000014,239,0,1439392626682,1439392626706,514,382,0,0,0,5,4,1,54,0005-00-0001-04.png,0004-00-0001-56.png
00000014,240,1,1439392631103,1439392631733,413,528,0,0,0,1,2,1,12,0001-00-0000-22.png,0002-00-0001-92.png
00000014,241,1,1439392633040,1439392633629,927,460,0,0,0,5,4,1,54,0005-00-0000-17.png,0004-00-0001-92.png
00000014,242,1,1439392634940,1439392635728,350,398,0,0,0,4,5,1,45,0004-00-0001-69.png,0005-00-0001-58.png
00000014,243,1,1439392636638,1439392637360,917,440,0,0,0,2,1,1,21,0002-00-0000-53.png,0001-00-0000-65.png
00000014,244,1,1439392638369,1439392639081,375,408,0,0,0,1,2,1,12,0001-00-0001-16.png,0002-00-0001-66.png
00000014,245,1,1439392639978,1439392640810,305,418,0,0,0,3,4,1,34,0003-00-0000-47.png,0004-00-0000-76.png
00000014,246,1,1439392641735,1439392642436,352,405,0,0,0,2,3,1,23,0002-00-0001-06.png,0003-00-0001-06.png
00000014,247,1,1439392643427,1439392644050,905,402,0,0,0,4,3,1,43,0004-00-0000-46.png,0003-00-0000-26.png
00000014,248,1,1439392644977,1439392645641,921,430,0,0,0,3,2,1,32,0003-00-0001-86.png,0002-00-0000-00.png
00000014,249,0,1439392647101,1439392647823,901,436,0,0,0,2,3,1,23,0002-00-0000-60.png,0003-00-0001-01.png
00000014,250,1,1439392650787,1439392651749,928,412,0,0,0,4,3,1,43,0004-00-0001-32.png,0003-00-0000-19.png
00000014,251,1,1439392652701,1439392653724,893,529,0,0,0,5,4,1,54,0005-00-0000-39.png,0004-00-0000-29.png
00000014,252,1,1439392654655,1439392654693,504,462,0,0,0,3,4,1,34,0003-00-0000-01.png,0004-00-0001-42.png
00000014,253,1,1439392655787,1439392656358,377,414,0,0,0,1,2,1,12,0001-00-0000-45.png,0002-00-0000-88.png
00000014,254,1,1439392657275,1439392658101,378,420,0,0,0,4,5,1,45,0004-00-0001-09.png,0005-00-0001-11.png
00000014,255,1,1439392659106,1439392659754,926,424,0,0,0,3,2,1,32,0003-00-0000-74.png,0002-00-0001-88.png
00000014,256,1,1439392660865,1439392661469,875,549,0,0,0,2,1,1,21,0002-00-0001-48.png,0001-00-0001-42.png
00000014,257,0,1439392662385,1439392662421,504,471,0,0,0,4,3,1,43,0004-00-0001-13.png,0003-00-0000-97.png
00000014,258,1,1439392665635,1439392666410,345,373,0,0,0,3,4,1,34,0003-00-0000-19.png,0004-00-0000-94.png
00000014,259,1,1439392667435,1439392668144,369,391,0,0,0,4,5,1,45,0004-00-0000-43.png,0005-00-0000-64.png
00000014,260,1,1439392669106,1439392669770,920,421,0,0,0,3,2,1,32,0003-00-0000-75.png,0002-00-0000-79.png
00000014,261,0,1439392670735,1439392671366,904,453,0,0,0,2,3,1,23,0002-00-0001-90.png,0003-00-0001-62.png
00000014,262,1,1439392674311,1439392674888,401,410,0,0,0,1,2,1,12,0001-00-0001-67.png,0002-00-0001-91.png
00000014,263,1,1439392675842,1439392676422,925,437,0,0,0,2,1,1,21,0002-00-0001-94.png,0001-00-0001-52.png
00000014,264,1,1439392677397,1439392678248,899,501,0,0,0,5,4,1,54,0005-00-0000-35.png,0004-00-0001-24.png
00000014,265,1,1439392679220,1439392679837,907,515,0,0,0,4,3,1,43,0004-00-0001-40.png,0003-00-0000-31.png
00000014,266,1,1439392680762,1439392681485,345,375,0,0,0,4,5,1,45,0004-00-0001-52.png,0005-00-0000-70.png
00000014,267,0,1439392682460,1439392683063,931,401,0,0,0,1,2,1,12,0001-00-0001-19.png,0002-00-0001-58.png
00000014,268,1,1439392685988,1439392686048,467,485,0,0,0,3,4,1,34,0003-00-0001-27.png,0004-00-0001-65.png
00000014,269,0,1439392687031,1439392687059,504,478,0,0,0,2,1,1,21,0002-00-0000-96.png,0001-00-0000-51.png
00000014,270,0,1439392690081,1439392690093,509,396,0,0,0,5,4,1,54,0005-00-0000-10.png,0004-00-0001-99.png
00000014,271,1,1439392693125,1439392693835,389,485,0,0,0,2,3,1,23,0002-00-0000-71.png,0003-00-0000-42.png
00000014,272,1,1439392694766,1439392695533,903,443,0,0,0,3,2,1,32,0003-00-0000-59.png,0002-00-0000-62.png
00000014,273,0,1439392696500,1439392697176,427,489,0,0,0,4,3,1,43,0004-00-0001-25.png,0003-00-0001-74.png
00000014,274,1,1439392700346,1439392700907,371,367,0,0,0,1,2,1,12,0001-00-0000-81.png,0002-00-0000-36.png
00000014,275,1,1439392701817,1439392701848,514,451,0,0,0,3,4,1,34,0003-00-0001-62.png,0004-00-0001-87.png
00000014,276,1,1439392703005,1439392703546,887,502,0,0,0,3,2,1,32,0003-00-0000-68.png,0002-00-0000-17.png
00000014,277,1,1439392704651,1439392705209,925,424,0,0,0,5,4,1,54,0005-00-0001-57.png,0004-00-0001-21.png
00000014,278,1,1439392706174,1439392706865,931,419,0,0,0,2,1,1,21,0002-00-0001-60.png,0001-00-0000-28.png
00000014,279,0,1439392707781,1439392708370,931,417,0,0,0,2,3,1,23,0002-00-0000-23.png,0003-00-0001-88.png
00000014,280,0,1439392711276,1439392712126,926,383,0,0,0,4,5,1,45,0004-00-0000-25.png,0005-00-0000-68.png
00000014,281,1,1439392714953,1439392714989,522,452,0,0,0,1,2,1,12,0001-00-0001-67.png,0002-00-0000-87.png
00000014,282,1,1439392716502,1439392717064,901,476,0,0,0,4,3,1,43,0004-00-0001-32.png,0003-00-0001-16.png
00000014,283,0,1439392718001,1439392718562,870,368,0,0,0,3,4,1,34,0003-00-0000-66.png,0004-00-0000-63.png
00000014,284,1,1439392721463,1439392721504,519,425,0,0,0,2,3,1,23,0002-00-0000-66.png,0003-00-0000-01.png
00000014,285,1,1439392722520,1439392723175,925,489,0,0,0,5,4,1,54,0005-00-0000-32.png,0004-00-0001-77.png
00000014,286,1,1439392724121,1439392725019,905,427,0,0,0,3,2,1,32,0003-00-0000-52.png,0002-00-0000-87.png
00000014,287,1,1439392725928,1439392726529,944,433,0,0,0,2,1,1,21,0002-00-0000-54.png,0001-00-0001-02.png
00000014,288,0,1439392727460,1439392728486,870,418,0,0,0,4,5,1,45,0004-00-0001-86.png,0005-00-0000-28.png
00000014,289,1,1439392731622,1439392732365,378,380,0,0,0,2,3,1,23,0002-00-0000-58.png,0003-00-0001-65.png
00000014,290,1,1439392733301,1439392734127,409,368,0,0,0,4,5,1,45,0004-00-0001-40.png,0005-00-0000-45.png
00000014,291,0,1439392735075,1439392735115,523,454,0,0,0,2,1,1,21,0002-00-0000-42.png,0001-00-0000-54.png
00000014,292,1,1439392738073,1439392738820,930,427,0,0,0,3,2,1,32,0003-00-0000-98.png,0002-00-0000-24.png
00000014,293,0,1439392739735,1439392740573,925,413,0,0,0,3,4,1,34,0003-00-0000-21.png,0004-00-0000-52.png
00000014,294,1,1439392743696,1439392744602,395,528,0,0,0,1,2,1,12,0001-00-0000-19.png,0002-00-0001-49.png
00000014,295,0,1439392745445,1439392746266,370,391,0,0,0,4,3,1,43,0004-00-0001-67.png,0003-00-0000-81.png
00000014,296,1,1439392749186,1439392749854,926,436,0,0,0,5,4,1,54,0005-00-0001-68.png,0004-00-0001-46.png
00000014,297,0,1439392750710,1439392750750,504,466,0,0,0,3,2,1,32,0003-00-0000-03.png,0002-00-0000-83.png
00000014,298,1,1439392753834,1439392754700,859,347,0,0,0,5,4,1,54,0005-00-0001-39.png,0004-00-0000-89.png
00000014,299,1,1439392755607,1439392756271,930,403,0,0,0,2,1,1,21,0002-00-0000-65.png,0001-00-0000-08.png
00000014,300,1,1439392757265,1439392757994,399,502,0,0,0,2,3,1,23,0002-00-0000-56.png,0003-00-0000-49.png
00000014,301,0,1439392758985,1439392759563,925,411,0,0,0,1,2,1,12,0001-00-0001-48.png,0002-00-0000-25.png
00000014,302,0,1439392762535,1439392763143,938,424,0,0,0,3,4,1,34,0003-00-0000-20.png,0004-00-0001-14.png
00000014,303,0,1439392766467,1439392767019,874,397,0,0,0,4,5,1,45,0004-00-0000-95.png,0005-00-0001-63.png
00000014,304,0,1439392770101,1439392770876,335,396,0,0,0,4,3,1,43,0004-00-0000-56.png,0003-00-0001-86.png
00000014,305,0,1439392773757,1439392773793,504,396,0,0,0,3,2,1,32,0003-00-0000-27.png,0002-00-0001-31.png
00000014,306,0,1439392776710,1439392777504,927,409,0,0,0,1,2,1,12,0001-00-0001-89.png,0002-00-0001-35.png
00000014,307,1,1439392780526,1439392781442,965,397,0,0,0,5,4,1,54,0005-00-0001-55.png,0004-00-0001-83.png
00000014,308,0,1439392782323,1439392782977,374,485,0,0,0,4,3,1,43,0004-00-0000-06.png,0003-00-0001-19.png
00000014,309,0,1439392785842,1439392785886,491,514,0,0,0,2,1,1,21,0002-00-0000-98.png,0001-00-0000-45.png
00000014,310,0,1439392789123,1439392789762,862,445,0,0,0,3,4,1,34,0003-00-0001-04.png,0004-00-0000-52.png
00000014,311,1,1439392792779,1439392792859,509,505,0,0,0,4,5,1,45,0004-00-0000-82.png,0005-00-0001-18.png
00000014,312,0,1439392793794,1439392794432,873,517,0,0,0,2,3,1,23,0002-00-0000-90.png,0003-00-0001-92.png
00000014,313,0,1439392797489,1439392797525,522,428,0,0,0,4,3,1,43,0004-00-0000-94.png,0003-00-0001-65.png
00000014,314,0,1439392800638,1439392801234,911,418,0,0,0,2,3,1,23,0002-00-0000-17.png,0003-00-0000-14.png
00000014,315,1,1439392804094,1439392804865,876,409,0,0,0,5,4,1,54,0005-00-0001-11.png,0004-00-0001-62.png
00000014,316,0,1439392805834,1439392806640,925,387,0,0,0,1,2,1,12,0001-00-0000-46.png,0002-00-0001-41.png
00000014,317,0,1439392809979,1439392810816,401,410,0,0,0,2,1,1,21,0002-00-0001-90.png,0001-00-0000-65.png
00000014,318,1,1439392813724,1439392814725,361,481,0,0,0,4,5,1,45,0004-00-0001-11.png,0005-00-0000-29.png
00000014,319,1,1439392815689,1439392816274,923,404,0,0,0,3,2,1,32,0003-00-0001-08.png,0002-00-0001-44.png
00000014,320,1,1439392817135,1439392817175,511,444,0,0,0,3,4,1,34,0003-00-0001-69.png,0004-00-0000-44.png
00000014,321,0,1439392818353,1439392818951,918,416,0,0,0,3,4,1,34,0003-00-0000-18.png,0004-00-0001-14.png
00000014,322,1,1439392821879,1439392822395,875,358,0,0,0,4,3,1,43,0004-00-0001-38.png,0003-00-0000-37.png
00000014,323,1,1439392823321,1439392824163,409,473,0,0,0,4,5,1,45,0004-00-0000-30.png,0005-00-0000-18.png
00000014,324,0,1439392824996,1439392825630,905,428,0,0,0,1,2,1,12,0001-00-0000-64.png,0002-00-0000-93.png
00000014,325,1,1439392828765,1439392829462,334,384,0,0,0,2,3,1,23,0002-00-0001-50.png,0003-00-0001-63.png
00000014,326,1,1439392830356,1439392830932,898,534,0,0,0,2,1,1,21,0002-00-0001-63.png,0001-00-0001-16.png
00000014,327,1,1439392831817,1439392832440,906,428,0,0,0,3,2,1,32,0003-00-0000-88.png,0002-00-0000-88.png
00000014,328,1,1439392833502,1439392834033,922,446,0,0,0,5,4,1,54,0005-00-0001-01.png,0004-00-0000-54.png
00000014,329,1,1439392835104,1439392835775,374,406,0,0,0,2,3,1,23,0002-00-0000-25.png,0003-00-0000-40.png
00000014,330,0,1439392836706,1439392837311,894,418,0,0,0,3,4,1,34,0003-00-0000-59.png,0004-00-0000-93.png
00000014,331,0,1439392840610,1439392841297,376,410,0,0,0,2,1,1,21,0002-00-0001-05.png,0001-00-0000-77.png
00000014,332,1,1439392844299,1439392844323,517,435,0,0,0,4,5,1,45,0004-00-0001-54.png,0005-00-0000-26.png
00000014,333,1,1439392845266,1439392845839,931,401,0,0,0,5,4,1,54,0005-00-0000-80.png,0004-00-0000-24.png
00000014,334,1,1439392846767,1439392847837,877,515,0,0,0,3,2,1,32,0003-00-0000-38.png,0002-00-0001-73.png
00000014,335,1,1439392848681,1439392848717,517,436,0,0,0,1,2,1,12,0001-00-0000-41.png,0002-00-0000-05.png
00000014,336,0,1439392849904,1439392850607,394,391,0,0,0,4,3,1,43,0004-00-0001-06.png,0003-00-0000-59.png
00000014,337,0,1439392853657,1439392853722,522,479,0,0,0,4,3,1,43,0004-00-0000-97.png,0003-00-0001-83.png
00000014,338,1,1439392856722,1439392856750,504,346,0,0,0,2,3,1,23,0002-00-0000-91.png,0003-00-0001-71.png
00000014,339,1,1439392857738,1439392858298,925,404,0,0,0,3,2,1,32,0003-00-0000-39.png,0002-00-0000-03.png
00000014,340,1,1439392859258,1439392860619,880,406,0,0,0,5,4,1,54,0005-00-0000-52.png,0004-00-0000-79.png
00000014,341,1,1439392861546,1439392862287,351,377,0,0,0,4,5,1,45,0004-00-0000-38.png,0005-00-0001-96.png
00000014,342,0,1439392863322,1439392864072,271,488,0,0,0,2,1,1,21,0002-00-0000-91.png,0001-00-0001-10.png
00000014,343,1,1439392867008,1439392867671,363,491,0,0,0,1,2,1,12,0001-00-0001-30.png,0002-00-0000-73.png
00000014,344,0,1439392868516,1439392869315,963,398,0,0,0,3,4,1,34,0003-00-0000-15.png,0004-00-0001-65.png
00000014,345,1,1439392872219,1439392872806,350,395,0,0,0,1,2,1,12,0001-00-0000-11.png,0002-00-0000-04.png
00000014,346,1,1439392873697,1439392874440,326,373,0,0,0,4,5,1,45,0004-00-0001-30.png,0005-00-0000-98.png
00000014,347,0,1439392875366,1439392876060,422,418,0,0,0,4,3,1,43,0004-00-0000-65.png,0003-00-0001-58.png
00000014,348,1,1439392879108,1439392879892,931,406,0,0,0,5,4,1,54,0005-00-0000-60.png,0004-00-0000-27.png
00000014,349,1,1439392880747,1439392881416,880,553,0,0,0,2,1,1,21,0002-00-0001-52.png,0001-00-0000-61.png
00000014,350,1,1439392882322,1439392882934,901,462,0,0,0,3,2,1,32,0003-00-0000-15.png,0002-00-0000-62.png
00000014,351,1,1439392883892,1439392884531,380,401,0,0,0,2,3,1,23,0002-00-0000-17.png,0003-00-0000-84.png
00000014,352,0,1439392885483,1439392886191,928,467,0,0,0,3,4,1,34,0003-00-0001-30.png,0004-00-0001-93.png
00000014,353,0,1439392889152,1439392890001,414,401,0,0,0,4,3,1,43,0004-00-0000-30.png,0003-00-0000-41.png
00000014,354,1,1439392893146,1439392893805,340,380,0,0,0,3,4,1,34,0003-00-0001-51.png,0004-00-0001-58.png
00000014,355,0,1439392894734,1439392895350,901,450,0,0,0,1,2,1,12,0001-00-0000-08.png,0002-00-0001-21.png
00000014,356,1,1439392898378,1439392898429,514,461,0,0,0,2,3,1,23,0002-00-0000-21.png,0003-00-0000-42.png
00000014,357,1,1439392899367,1439392900072,425,506,0,0,0,4,5,1,45,0004-00-0000-51.png,0005-00-0001-73.png
00000014,358,1,1439392900953,1439392901593,925,422,0,0,0,3,2,1,32,0003-00-0000-41.png,0002-00-0001-34.png
00000014,359,1,1439392902527,1439392903128,912,424,0,0,0,2,1,1,21,0002-00-0001-15.png,0001-00-0001-59.png
00000014,360,1,1439392904065,1439392904608,927,443,0,0,0,5,4,1,54,0005-00-0001-40.png,0004-00-0000-97.png
00000014,361,1,1439392905543,1439392906128,931,427,0,0,0,4,3,1,43,0004-00-0001-68.png,0003-00-0000-82.png
00000014,362,0,1439392907117,1439392907650,956,427,0,0,0,2,3,1,23,0002-00-0001-29.png,0003-00-0000-39.png
00000014,363,1,1439392910534,1439392911377,370,398,0,0,0,4,5,1,45,0004-00-0001-86.png,0005-00-0000-44.png
00000014,364,1,1439392912217,1439392912866,914,423,0,0,0,3,2,1,32,0003-00-0001-47.png,0002-00-0001-97.png
00000014,365,0,1439392913733,1439392914353,930,427,0,0,0,1,2,1,12,0001-00-0000-73.png,0002-00-0001-85.png
00000014,366,1,1439392917223,1439392917251,489,440,0,0,0,3,4,1,34,0003-00-0000-69.png,0004-00-0001-22.png
00000014,367,1,1439392918200,1439392918728,899,490,0,0,0,2,1,1,21,0002-00-0001-65.png,0001-00-0001-26.png
00000014,368,1,1439392919677,1439392920329,928,417,0,0,0,5,4,1,54,0005-00-0001-67.png,0004-00-0001-94.png
00000014,369,1,1439392921288,1439392922184,925,489,0,0,0,4,3,1,43,0004-00-0000-05.png,0003-00-0001-93.png
00000014,370,1,1439392923107,1439392923987,900,395,0,0,0,5,4,1,54,0005-00-0001-30.png,0004-00-0001-06.png
00000014,371,1,1439392924947,1439392925717,399,384,0,0,0,2,3,1,23,0002-00-0001-96.png,0003-00-0001-24.png
00000014,372,0,1439392926753,1439392927694,941,401,0,0,0,4,5,1,45,0004-00-0001-10.png,0005-00-0001-67.png
00000014,373,1,1439392930667,1439392931568,356,373,0,0,0,3,4,1,34,0003-00-0001-14.png,0004-00-0001-25.png
00000014,374,1,1439392932468,1439392933232,901,434,0,0,0,2,1,1,21,0002-00-0001-79.png,0001-00-0001-06.png
00000014,375,1,1439392934243,1439392934953,919,442,0,0,0,3,2,1,32,0003-00-0001-92.png,0002-00-0000-26.png
00000014,376,1,1439392935917,1439392936557,360,417,0,0,0,1,2,1,12,0001-00-0000-86.png,0002-00-0000-19.png
00000014,377,1,1439392937447,1439392938090,930,427,0,0,0,4,3,1,43,0004-00-0001-62.png,0003-00-0000-92.png
00000014,378,1,1439392939042,1439392939613,876,535,0,0,0,3,2,1,32,0003-00-0001-09.png,0002-00-0001-20.png
00000014,379,0,1439392940584,1439392941204,862,393,0,0,0,1,2,1,12,0001-00-0001-50.png,0002-00-0001-40.png
00000014,380,0,1439392944153,1439392944177,522,452,0,0,0,5,4,1,54,0005-00-0001-46.png,0004-00-0000-65.png
00000014,381,1,1439392947253,1439392947336,504,514,0,0,0,2,3,1,23,0002-00-0001-01.png,0003-00-0000-90.png
00000014,382,0,1439392948300,1439392948324,495,436,0,0,0,2,1,1,21,0002-00-0000-23.png,0001-00-0001-24.png
00000014,383,0,1439392951165,1439392951753,925,437,0,0,0,3,4,1,34,0003-00-0001-68.png,0004-00-0000-47.png
00000014,384,1,1439392954606,1439392955354,360,527,0,0,0,4,5,1,45,0004-00-0001-54.png,0005-00-0000-09.png
00000014,385,0,1439392956408,1439392956923,926,397,0,0,0,4,5,1,45,0004-00-0000-94.png,0005-00-0000-10.png
00000014,386,0,1439392960044,1439392960108,506,510,0,0,0,3,2,1,32,0003-00-0001-75.png,0002-00-0001-19.png
00000014,387,0,1439392963338,1439392964061,944,392,0,0,0,2,3,1,23,0002-00-0000-92.png,0003-00-0001-46.png
00000014,388,1,1439392967041,1439392967077,496,427,0,0,0,1,2,1,12,0001-00-0001-56.png,0002-00-0001-70.png
00000014,389,1,1439392968044,1439392968629,919,443,0,0,0,4,3,1,43,0004-00-0001-67.png,0003-00-0001-38.png
00000014,390,0,1439392969627,1439392970254,925,438,0,0,0,3,4,1,34,0003-00-0001-02.png,0004-00-0000-74.png
00000014,391,1,1439392973141,1439392973915,902,520,0,0,0,2,1,1,21,0002-00-0000-72.png,0001-00-0001-97.png
00000014,392,1,1439392974773,1439392975748,956,401,0,0,0,5,4,1,54,0005-00-0001-89.png,0004-00-0000-31.png
00000014,393,0,1439392976703,1439392977483,377,499,0,0,0,5,4,1,54,0005-00-0000-54.png,0004-00-0000-28.png
00000014,394,1,1439392980614,1439392981411,299,462,0,0,0,1,2,1,12,0001-00-0001-37.png,0002-00-0001-93.png
00000014,395,0,1439392982436,1439392983058,949,434,0,0,0,2,3,1,23,0002-00-0000-48.png,0003-00-0001-46.png
00000014,396,0,1439392985911,1439392986617,949,408,0,0,0,4,5,1,45,0004-00-0000-39.png,0005-00-0001-44.png
00000014,397,1,1439392990053,1439392990519,924,404,0,0,0,3,2,1,32,0003-00-0000-36.png,0002-00-0001-61.png
00000014,398,1,1439392991450,1439392992006,925,490,0,0,0,4,3,1,43,0004-00-0001-77.png,0003-00-0000-80.png
00000014,399,0,1439392993042,1439392993692,347,383,0,0,0,2,1,1,21,0002-00-0000-45.png,0001-00-0000-27.png
00000014,400,1,1439392996737,1439392996801,517,514,0,0,0,3,4,1,34,0003-00-0001-40.png,0004-00-0000-27.png
00000014,401,1,1439392997752,1439392998385,373,393,0,0,0,2,3,1,23,0002-00-0001-17.png,0003-00-0001-23.png
00000014,402,1,1439392999334,1439392999898,928,417,0,0,0,4,3,1,43,0004-00-0001-93.png,0003-00-0000-90.png
00000014,403,1,1439393000901,1439393001467,880,531,0,0,0,3,2,1,32,0003-00-0000-96.png,0002-00-0001-74.png
00000014,404,1,1439393002887,1439393003392,393,402,0,0,0,1,2,1,12,0001-00-0000-45.png,0002-00-0000-09.png
00000014,405,1,1439393004339,1439393005126,337,397,0,0,0,4,5,1,45,0004-00-0001-63.png,0005-00-0000-91.png
00000014,406,0,1439393006237,1439393006851,377,423,0,0,0,2,1,1,21,0002-00-0001-14.png,0001-00-0001-90.png
00000014,407,1,1439393009974,1439393010661,926,409,0,0,0,5,4,1,54,0005-00-0000-13.png,0004-00-0001-50.png
00000014,408,0,1439393011619,1439393012213,905,454,0,0,0,3,4,1,34,0003-00-0000-49.png,0004-00-0001-19.png
00000014,409,0,1439393015179,1439393015222,519,410,0,0,0,4,3,1,43,0004-00-0000-76.png,0003-00-0000-85.png
00000014,410,0,1439393018212,1439393018232,495,348,0,0,0,3,2,1,32,0003-00-0000-05.png,0002-00-0000-83.png
00000014,411,0,1439393021066,1439393021660,953,382,0,0,0,2,3,1,23,0002-00-0000-39.png,0003-00-0001-26.png
00000014,412,1,1439393024894,1439393025494,359,501,0,0,0,1,2,1,12,0001-00-0001-32.png,0002-00-0001-77.png
00000014,413,0,1439393026382,1439393027418,329,373,0,0,0,5,4,1,54,0005-00-0000-59.png,0004-00-0000-55.png
00000014,414,1,1439393031304,1439393031978,382,391,0,0,0,3,4,1,34,0003-00-0000-44.png,0004-00-0001-31.png
00000014,415,0,1439393032922,1439393033687,900,396,0,0,0,4,5,1,45,0004-00-0001-90.png,0005-00-0000-22.png
00000014,416,0,1439393036647,1439393037397,369,371,0,0,0,2,1,1,21,0002-00-0001-18.png,0001-00-0001-24.png
00000014,417,1,1439393041730,1439393042555,352,401,0,0,0,4,5,1,45,0004-00-0000-45.png,0005-00-0001-65.png
00000014,418,0,1439393043423,1439393043471,504,462,0,0,0,2,1,1,21,0002-00-0000-14.png,0001-00-0001-84.png
00000014,419,0,1439393046593,1439393047378,952,410,0,0,0,1,2,1,12,0001-00-0000-31.png,0002-00-0001-11.png
00000014,420,1,1439393050664,1439393051348,313,362,0,0,0,3,4,1,34,0003-00-0001-40.png,0004-00-0001-16.png
00000014,421,1,1439393052293,1439393052881,919,492,0,0,0,3,2,1,32,0003-00-0001-73.png,0002-00-0001-29.png
00000014,422,0,1439393053781,1439393054398,906,467,0,0,0,2,3,1,23,0002-00-0000-95.png,0003-00-0001-62.png
00000014,423,1,1439393057358,1439393058007,904,480,0,0,0,5,4,1,54,0005-00-0000-46.png,0004-00-0000-33.png
00000014,424,1,1439393058937,1439393059575,927,422,0,0,0,4,3,1,43,0004-00-0001-53.png,0003-00-0000-43.png
00000014,425,1,1439393060600,1439393061124,930,401,0,0,0,4,3,1,43,0004-00-0001-34.png,0003-00-0000-65.png
00000014,426,1,1439393062037,1439393062814,376,398,0,0,0,4,5,1,45,0004-00-0001-67.png,0005-00-0000-25.png
00000014,427,0,1439393063808,1439393064540,350,398,0,0,0,3,2,1,32,0003-00-0000-85.png,0002-00-0000-36.png
00000014,428,1,1439393067434,1439393067474,518,455,0,0,0,2,3,1,23,0002-00-0001-40.png,0003-00-0001-53.png
00000014,429,0,1439393068490,1439393068973,939,410,0,0,0,3,4,1,34,0003-00-0001-26.png,0004-00-0000-14.png
00000014,430,1,1439393072413,1439393072951,359,410,0,0,0,1,2,1,12,0001-00-0001-52.png,0002-00-0000-36.png
00000014,431,1,1439393073784,1439393074742,907,490,0,0,0,2,1,1,21,0002-00-0001-10.png,0001-00-0001-54.png
00000014,432,1,1439393075643,1439393076222,943,418,0,0,0,5,4,1,54,0005-00-0001-58.png,0004-00-0001-09.png
00000014,433,1,1439393077164,1439393077789,913,437,0,0,0,3,2,1,32,0003-00-0001-27.png,0002-00-0000-80.png
00000014,434,0,1439393078705,1439393079347,364,423,0,0,0,4,3,1,43,0004-00-0001-10.png,0003-00-0001-06.png
00000014,435,0,1439393082333,1439393083162,395,390,0,0,0,2,1,1,21,0002-00-0000-60.png,0001-00-0001-44.png
00000014,436,1,1439393086316,1439393086965,931,454,0,0,0,5,4,1,54,0005-00-0001-20.png,0004-00-0001-18.png
00000014,437,0,1439393087878,1439393088731,955,401,0,0,0,3,4,1,34,0003-00-0000-75.png,0004-00-0000-00.png
00000014,438,1,1439393091652,1439393092331,412,370,0,0,0,4,5,1,45,0004-00-0000-85.png,0005-00-0000-67.png
00000014,439,1,1439393093194,1439393093816,376,410,0,0,0,1,2,1,12,0001-00-0001-52.png,0002-00-0001-35.png
00000014,440,1,1439393094744,1439393095363,411,560,0,0,0,2,3,1,23,0002-00-0000-24.png,0003-00-0001-12.png
00000014,441,1,1439393096306,1439393096864,349,404,0,0,0,3,4,1,34,0003-00-0001-27.png,0004-00-0001-32.png
00000014,442,0,1439393098124,1439393098735,898,517,0,0,0,1,2,1,12,0001-00-0000-90.png,0002-00-0000-72.png
00000014,443,1,1439393102038,1439393102923,435,394,0,0,0,4,5,1,45,0004-00-0001-48.png,0005-00-0000-62.png
00000014,444,0,1439393103802,1439393103826,478,462,0,0,0,5,4,1,54,0005-00-0000-32.png,0004-00-0000-02.png
00000014,445,1,1439393106950,1439393107742,927,410,0,0,0,4,3,1,43,0004-00-0000-03.png,0003-00-0001-58.png
00000014,446,0,1439393108689,1439393109298,366,422,0,0,0,3,2,1,32,0003-00-0000-69.png,0002-00-0001-85.png
00000014,447,0,1439393112563,1439393113102,950,410,0,0,0,2,3,1,23,0002-00-0001-54.png,0003-00-0000-39.png
00000014,448,0,1439393116022,1439393116062,493,482,0,0,0,2,1,1,21,0002-00-0000-40.png,0001-00-0001-80.png
00000014,449,1,1439393119614,1439393120317,341,395,0,0,0,2,3,1,23,0002-00-0000-15.png,0003-00-0001-23.png
00000014,450,1,1439393121230,1439393122052,925,410,0,0,0,5,4,1,54,0005-00-0000-20.png,0004-00-0001-67.png
00000014,451,1,1439393123002,1439393123701,370,412,0,0,0,4,5,1,45,0004-00-0000-39.png,0005-00-0000-79.png
00000014,452,0,1439393124733,1439393125333,900,424,0,0,0,3,4,1,34,0003-00-0000-16.png,0004-00-0000-19.png
00000014,453,1,1439393128226,1439393128258,495,402,0,0,0,1,2,1,12,0001-00-0000-04.png,0002-00-0000-06.png
00000014,454,0,1439393129252,1439393129276,520,462,0,0,0,4,3,1,43,0004-00-0000-07.png,0003-00-0001-60.png
00000014,455,1,1439393132242,1439393132851,947,419,0,0,0,2,1,1,21,0002-00-0001-58.png,0001-00-0000-39.png
00000014,456,1,1439393133765,1439393134336,952,423,0,0,0,3,2,1,32,0003-00-0001-56.png,0002-00-0001-26.png
00000014,457,0,1439393135245,1439393135886,929,376,0,0,0,4,5,1,45,0004-00-0000-80.png,0005-00-0001-36.png
00000014,458,1,1439393138751,1439393139468,350,476,0,0,0,3,4,1,34,0003-00-0000-21.png,0004-00-0000-68.png
00000014,459,1,1439393140343,1439393140387,498,426,0,0,0,2,3,1,23,0002-00-0000-75.png,0003-00-0001-24.png
00000014,460,0,1439393141458,1439393141988,913,398,0,0,0,1,2,1,12,0001-00-0001-17.png,0002-00-0000-80.png
00000014,461,1,1439393145143,1439393145801,930,427,0,0,0,2,1,1,21,0002-00-0001-05.png,0001-00-0000-14.png
00000014,462,1,1439393146703,1439393147320,956,401,0,0,0,4,3,1,43,0004-00-0001-20.png,0003-00-0001-67.png
00000014,463,1,1439393148253,1439393148854,875,371,0,0,0,3,2,1,32,0003-00-0000-99.png,0002-00-0000-37.png
00000014,464,0,1439393149784,1439393150587,378,395,0,0,0,5,4,1,54,0005-00-0001-88.png,0004-00-0001-52.png
00000014,465,1,1439393153470,1439393154114,391,402,0,0,0,2,3,1,23,0002-00-0001-50.png,0003-00-0000-36.png
00000014,466,0,1439393155131,1439393155845,388,410,0,0,0,4,3,1,43,0004-00-0001-89.png,0003-00-0001-73.png
00000014,467,0,1439393158727,1439393158751,520,410,0,0,0,3,2,1,32,0003-00-0000-37.png,0002-00-0001-83.png
00000014,468,1,1439393161624,1439393162414,955,375,0,0,0,5,4,1,54,0005-00-0001-04.png,0004-00-0001-77.png
00000014,469,0,1439393163310,1439393163929,881,527,0,0,0,3,4,1,34,0003-00-0001-55.png,0004-00-0001-80.png
00000014,470,0,1439393167028,1439393167071,510,448,0,0,0,2,1,1,21,0002-00-0000-01.png,0001-00-0000-16.png
00000014,471,0,1439393169976,1439393170600,923,460,0,0,0,1,2,1,12,0001-00-0001-28.png,0002-00-0000-81.png
00000014,472,1,1439393173607,1439393173631,485,476,0,0,0,4,5,1,45,0004-00-0000-57.png,0005-00-0001-16.png
00000014,473,1,1439393174651,1439393175185,938,424,0,0,0,2,1,1,21,0002-00-0001-53.png,0001-00-0000-81.png
00000014,474,1,1439393176139,1439393177081,926,423,0,0,0,5,4,1,54,0005-00-0000-53.png,0004-00-0001-97.png
00000014,475,0,1439393177977,1439393178638,911,452,0,0,0,1,2,1,12,0001-00-0000-21.png,0002-00-0001-57.png
00000014,476,0,1439393181483,1439393182227,385,477,0,0,0,3,2,1,32,0003-00-0001-88.png,0002-00-0001-22.png
00000014,477,0,1439393185082,1439393185118,498,427,0,0,0,4,3,1,43,0004-00-0000-56.png,0003-00-0000-06.png
00000014,478,1,1439393188580,1439393189239,338,415,0,0,0,2,3,1,23,0002-00-0000-34.png,0003-00-0000-33.png
00000014,479,1,1439393190077,1439393190892,395,448,0,0,0,3,4,1,34,0003-00-0001-23.png,0004-00-0000-10.png
00000014,480,1,1439393192052,1439393192782,439,527,0,0,0,4,5,1,45,0004-00-0000-21.png,0005-00-0001-93.png
00000014,481,1,1439393193829,1439393194411,364,414,0,0,0,2,3,1,23,0002-00-0001-50.png,0003-00-0000-19.png
00000014,482,1,1439393195529,1439393196329,900,502,0,0,0,5,4,1,54,0005-00-0001-25.png,0004-00-0000-43.png
00000014,483,1,1439393197277,1439393198070,892,483,0,0,0,3,2,1,32,0003-00-0001-89.png,0002-00-0000-12.png
00000014,484,1,1439393199007,1439393199055,509,493,0,0,0,1,2,1,12,0001-00-0001-83.png,0002-00-0001-18.png
00000014,485,0,1439393200219,1439393200871,376,397,0,0,0,4,3,1,43,0004-00-0001-97.png,0003-00-0001-12.png
00000014,486,1,1439393203921,1439393204561,339,368,0,0,0,3,4,1,34,0003-00-0000-26.png,0004-00-0001-73.png
00000014,487,0,1439393205477,1439393206267,349,378,0,0,0,2,1,1,21,0002-00-0001-55.png,0001-00-0001-06.png
00000014,488,1,1439393209182,1439393209222,516,514,0,0,0,4,5,1,45,0004-00-0001-18.png,0005-00-0000-68.png
00000014,489,1,1439393210308,1439393210871,862,384,0,0,0,2,1,1,21,0002-00-0001-69.png,0001-00-0000-38.png
00000014,490,1,1439393211839,1439393212349,904,429,0,0,0,4,3,1,43,0004-00-0000-31.png,0003-00-0001-96.png
00000014,491,1,1439393213299,1439393213943,911,451,0,0,0,5,4,1,54,0005-00-0000-28.png,0004-00-0001-32.png
00000014,492,0,1439393214857,1439393215457,912,424,0,0,0,2,3,1,23,0002-00-0000-34.png,0003-00-0000-13.png
00000014,493,1,1439393218960,1439393219616,369,397,0,0,0,4,5,1,45,0004-00-0001-20.png,0005-00-0000-61.png
00000014,494,0,1439393220492,1439393221093,862,398,0,0,0,1,2,1,12,0001-00-0000-83.png,0002-00-0001-97.png
00000014,495,0,1439393224079,1439393224732,870,367,0,0,0,3,4,1,34,0003-00-0001-11.png,0004-00-0001-62.png
00000014,496,0,1439393227752,1439393227788,520,514,0,0,0,3,2,1,32,0003-00-0001-51.png,0002-00-0000-95.png
00000014,497,0,1439393230787,1439393231388,933,448,0,0,0,1,2,1,12,0001-00-0000-90.png,0002-00-0000-27.png
00000014,498,1,1439393234573,1439393235252,318,399,0,0,0,3,4,1,34,0003-00-0001-36.png,0004-00-0000-35.png
00000014,499,0,1439393236174,1439393237054,395,513,0,0,0,2,1,1,21,0002-00-0000-13.png,0001-00-0001-72.png
00000014,500,0,1439393239959,1439393240718,319,374,0,0,0,3,2,1,32,0003-00-0000-00.png,0002-00-0001-41.png
00000014,501,1,1439393243566,1439393244189,375,392,0,0,0,2,3,1,23,0002-00-0001-76.png,0003-00-0001-64.png
00000014,502,1,1439393245138,1439393246092,902,448,0,0,0,4,3,1,43,0004-00-0000-39.png,0003-00-0001-93.png
00000014,503,1,1439393247004,1439393247763,899,464,0,0,0,5,4,1,54,0005-00-0000-98.png,0004-00-0000-94.png
00000014,504,0,1439393248716,1439393249387,927,442,0,0,0,4,5,1,45,0004-00-0001-75.png,0005-00-0001-22.png
00000014,505,0,1439393252803,1439393253746,899,385,0,0,0,4,5,1,45,0004-00-0001-26.png,0005-00-0000-17.png
00000014,506,1,1439393256801,1439393257393,364,423,0,0,0,2,3,1,23,0002-00-0001-65.png,0003-00-0000-02.png
00000014,507,1,1439393258417,1439393258959,925,423,0,0,0,5,4,1,54,0005-00-0000-21.png,0004-00-0000-47.png
00000014,508,1,1439393259966,1439393260627,373,411,0,0,0,3,4,1,34,0003-00-0001-49.png,0004-00-0000-69.png
00000014,509,1,1439393261621,1439393262223,900,438,0,0,0,3,2,1,32,0003-00-0001-10.png,0002-00-0001-36.png
00000014,510,1,1439393263176,1439393263831,920,423,0,0,0,4,3,1,43,0004-00-0000-51.png,0003-00-0001-71.png
00000014,511,0,1439393264780,1439393265373,877,545,0,0,0,1,2,1,12,0001-00-0000-70.png,0002-00-0001-03.png
00000014,512,1,1439393268395,1439393269012,928,413,0,0,0,2,1,1,21,0002-00-0001-64.png,0001-00-0000-74.png
00000014,513,1,1439393269870,1439393270715,963,424,0,0,0,2,1,1,21,0002-00-0001-55.png,0001-00-0000-64.png
00000014,514,0,1439393272107,1439393272661,895,524,0,0,0,1,2,1,12,0001-00-0001-54.png,0002-00-0001-34.png
00000014,515,1,1439393275847,1439393276529,350,397,0,0,0,4,5,1,45,0004-00-0001-76.png,0005-00-0001-92.png
00000014,516,1,1439393277471,1439393278052,926,410,0,0,0,3,2,1,32,0003-00-0001-08.png,0002-00-0001-61.png
00000014,517,1,1439393278925,1439393279571,930,402,0,0,0,5,4,1,54,0005-00-0000-21.png,0004-00-0001-25.png
00000014,518,0,1439393280577,1439393281544,355,392,0,0,0,4,3,1,43,0004-00-0001-60.png,0003-00-0000-57.png
00000014,519,1,1439393284680,1439393285445,321,399,0,0,0,2,3,1,23,0002-00-0000-73.png,0003-00-0001-98.png
00000014,520,0,1439393286350,1439393286976,929,453,0,0,0,3,4,1,34,0003-00-0000-05.png,0004-00-0000-74.png
00000014,521,0,1439393290008,1439393290032,520,411,0,0,0,2,1,1,21,0002-00-0000-09.png,0001-00-0000-10.png
00000014,522,0,1439393293093,1439393293945,898,507,0,0,0,2,3,1,23,0002-00-0000-42.png,0003-00-0000-40.png
00000014,523,0,1439393297245,1439393297933,376,497,0,0,0,3,2,1,32,0003-00-0000-71.png,0002-00-0000-78.png
00000014,524,1,1439393301106,1439393301709,321,398,0,0,0,1,2,1,12,0001-00-0001-26.png,0002-00-0000-06.png
00000014,525,1,1439393302678,1439393303412,927,409,0,0,0,5,4,1,54,0005-00-0001-98.png,0004-00-0000-84.png
00000014,526,1,1439393304389,1439393305036,364,401,0,0,0,3,4,1,34,0003-00-0001-44.png,0004-00-0000-57.png
00000014,527,1,1439393306029,1439393306719,248,462,0,0,0,4,5,1,45,0004-00-0000-79.png,0005-00-0000-36.png
00000014,528,1,1439393307737,1439393308724,907,526,0,0,0,4,3,1,43,0004-00-0001-71.png,0003-00-0001-86.png
00000014,529,0,1439393309695,1439393310272,363,416,0,0,0,2,1,1,21,0002-00-0000-03.png,0001-00-0001-78.png
00000014,530,1,1439393313222,1439393314102,930,428,0,0,0,4,3,1,43,0004-00-0001-26.png,0003-00-0001-00.png
00000014,531,1,1439393315030,1439393315609,930,439,0,0,0,3,2,1,32,0003-00-0001-24.png,0002-00-0001-56.png
00000014,532,1,1439393316540,1439393317239,371,398,0,0,0,4,5,1,45,0004-00-0000-78.png,0005-00-0000-24.png
00000014,533,1,1439393318297,1439393318939,401,517,0,0,0,2,3,1,23,0002-00-0000-83.png,0003-00-0001-16.png
00000014,534,0,1439393319866,1439393320747,906,527,0,0,0,3,4,1,34,0003-00-0001-43.png,0004-00-0001-05.png
00000014,535,1,1439393323715,1439393324463,900,515,0,0,0,5,4,1,54,0005-00-0000-91.png,0004-00-0000-42.png
00000014,536,1,1439393325378,1439393326092,368,436,0,0,0,1,2,1,12,0001-00-0000-83.png,0002-00-0001-37.png
00000014,537,0,1439393327055,1439393327662,952,434,0,0,0,2,3,1,23,0002-00-0000-45.png,0003-00-0000-61.png
00000014,538,0,1439393331808,1439393332661,867,480,0,0,0,3,4,1,34,0003-00-0001-39.png,0004-00-0000-21.png
00000014,539,0,1439393335722,1439393336520,951,423,0,0,0,1,2,1,12,0001-00-0001-95.png,0002-00-0001-94.png
00000014,540,0,1439393339478,1439393340193,941,396,0,0,0,4,5,1,45,0004-00-0001-77.png,0005-00-0000-49.png
00000014,541,0,1439393343034,1439393343719,401,384,0,0,0,4,3,1,43,0004-00-0000-41.png,0003-00-0000-40.png
00000014,542,0,1439393346991,1439393347766,427,384,0,0,0,2,1,1,21,0002-00-0000-20.png,0001-00-0001-69.png
00000014,543,1,1439393351643,1439393352294,931,483,0,0,0,3,2,1,32,0003-00-0000-66.png,0002-00-0001-32.png
00000014,544,1,1439393353356,1439393353921,902,403,0,0,0,5,4,1,54,0005-00-0001-70.png,0004-00-0001-05.png
00000014,545,1,1439393354843,1439393355480,939,438,0,0,0,4,3,1,43,0004-00-0001-56.png,0003-00-0000-94.png
00000014,546,0,1439393356454,1439393357233,862,410,0,0,0,1,2,1,12,0001-00-0001-45.png,0002-00-0000-66.png
00000014,547,1,1439393360369,1439393361352,366,502,0,0,0,3,4,1,34,0003-00-0001-33.png,0004-00-0000-79.png
00000014,548,1,1439393362318,1439393362921,932,415,0,0,0,5,4,1,54,0005-00-0001-03.png,0004-00-0001-46.png
00000014,549,1,1439393363855,1439393364549,862,410,0,0,0,3,2,1,32,0003-00-0001-76.png,0002-00-0001-85.png
00000014,550,1,1439393365468,1439393365492,504,452,0,0,0,4,5,1,45,0004-00-0000-87.png,0005-00-0001-25.png
00000014,551,0,1439393366600,1439393367548,929,410,0,0,0,2,3,1,23,0002-00-0000-07.png,0003-00-0001-06.png
00000014,552,1,1439393370457,1439393371399,926,521,0,0,0,2,1,1,21,0002-00-0000-00.png,0001-00-0001-23.png
00000014,553,0,1439393372318,1439393372960,339,398,0,0,0,3,2,1,32,0003-00-0001-87.png,0002-00-0000-27.png
00000014,554,0,1439393376090,1439393376878,924,459,0,0,0,4,5,1,45,0004-00-0001-42.png,0005-00-0001-87.png
00000014,555,1,1439393379987,1439393380027,508,463,0,0,0,1,2,1,12,0001-00-0001-70.png,0002-00-0001-99.png
00000014,556,1,1439393381031,1439393381818,386,392,0,0,0,2,3,1,23,0002-00-0000-47.png,0003-00-0001-77.png
00000014,557,0,1439393382823,1439393383694,364,407,0,0,0,5,4,1,54,0005-00-0001-04.png,0004-00-0000-74.png
00000014,558,1,1439393386574,1439393387192,890,516,0,0,0,4,3,1,43,0004-00-0000-76.png,0003-00-0000-23.png
00000014,559,0,1439393388200,1439393388771,376,423,0,0,0,2,1,1,21,0002-00-0000-71.png,0001-00-0000-96.png
00000014,560,1,1439393391958,1439393391998,514,537,0,0,0,3,4,1,34,0003-00-0001-08.png,0004-00-0000-46.png
00000014,561,0,1439393392980,1439393393581,928,415,0,0,0,1,2,1,12,0001-00-0001-88.png,0002-00-0000-61.png
00000014,562,0,1439393396624,1439393397259,952,403,0,0,0,3,4,1,34,0003-00-0000-02.png,0004-00-0000-15.png
00000014,563,1,1439393400351,1439393401003,924,410,0,0,0,5,4,1,54,0005-00-0000-52.png,0004-00-0000-20.png
00000014,564,1,1439393401913,1439393402654,935,413,0,0,0,2,1,1,21,0002-00-0000-39.png,0001-00-0000-26.png
00000014,565,0,1439393403594,1439393403618,520,455,0,0,0,3,2,1,32,0003-00-0001-21.png,0002-00-0001-46.png
00000014,566,1,1439393406690,1439393406758,515,561,0,0,0,2,3,1,23,0002-00-0000-50.png,0003-00-0001-77.png
00000014,567,1,1439393407718,1439393408329,894,563,0,0,0,4,3,1,43,0004-00-0001-96.png,0003-00-0000-23.png
00000014,568,0,1439393409328,1439393410025,872,384,0,0,0,4,5,1,45,0004-00-0000-74.png,0005-00-0000-43.png
00000014,569,0,1439393412941,1439393412949,517,421,0,0,0,2,1,1,21,0002-00-0001-39.png,0001-00-0001-22.png
00000014,570,0,1439393416121,1439393416939,386,517,0,0,0,4,3,1,43,0004-00-0001-63.png,0003-00-0000-23.png
00000014,571,0,1439393419835,1439393420567,879,358,0,0,0,1,2,1,12,0001-00-0001-72.png,0002-00-0000-27.png
00000014,572,1,1439393423876,1439393423900,515,477,0,0,0,3,4,1,34,0003-00-0001-26.png,0004-00-0001-92.png
00000014,573,1,1439393424890,1439393425414,920,441,0,0,0,5,4,1,54,0005-00-0001-22.png,0004-00-0000-03.png
00000014,574,0,1439393426359,1439393427007,925,462,0,0,0,2,3,1,23,0002-00-0001-53.png,0003-00-0000-05.png
00000014,575,1,1439393430105,1439393431079,952,435,0,0,0,3,2,1,32,0003-00-0001-83.png,0002-00-0000-05.png
00000014,576,1,1439393432033,1439393432769,372,404,0,0,0,4,5,1,45,0004-00-0000-51.png,0005-00-0000-94.png
00000014,577,1,1439393433796,1439393434450,387,410,0,0,0,3,4,1,34,0003-00-0000-68.png,0004-00-0000-22.png
00000014,578,1,1439393435463,1439393436074,877,547,0,0,0,3,2,1,32,0003-00-0000-60.png,0002-00-0001-15.png
00000014,579,1,1439393437035,1439393437537,947,420,0,0,0,4,3,1,43,0004-00-0000-94.png,0003-00-0000-38.png
00000014,580,0,1439393438580,1439393439141,913,424,0,0,0,2,3,1,23,0002-00-0000-96.png,0003-00-0001-13.png
00000014,581,1,1439393442115,1439393443331,928,469,0,0,0,5,4,1,54,0005-00-0000-16.png,0004-00-0000-16.png
00000014,582,1,1439393444266,1439393444953,376,410,0,0,0,1,2,1,12,0001-00-0001-52.png,0002-00-0000-63.png
00000014,583,1,1439393445935,1439393446670,907,516,0,0,0,2,1,1,21,0002-00-0001-62.png,0001-00-0000-14.png
00000014,584,1,1439393447652,1439393447688,512,471,0,0,0,4,5,1,45,0004-00-0001-92.png,0005-00-0001-65.png
00000014,585,1,1439393448782,1439393449486,381,418,0,0,0,4,5,1,45,0004-00-0000-11.png,0005-00-0000-87.png
00000014,586,0,1439393450519,1439393451183,344,377,0,0,0,2,1,1,21,0002-00-0001-62.png,0001-00-0001-54.png
00000014,587,1,1439393454234,1439393454947,937,450,0,0,0,4,3,1,43,0004-00-0000-22.png,0003-00-0000-82.png
00000014,588,0,1439393455903,1439393456600,928,401,0,0,0,3,4,1,34,0003-00-0000-94.png,0004-00-0001-50.png
00000014,589,1,1439393459774,1439393460946,887,440,0,0,0,5,4,1,54,0005-00-0001-12.png,0004-00-0001-86.png
00000014,590,1,1439393461818,1439393462496,928,415,0,0,0,3,2,1,32,0003-00-0000-78.png,0002-00-0000-40.png
00000014,591,1,1439393463381,1439393464077,365,416,0,0,0,2,3,1,23,0002-00-0000-37.png,0003-00-0000-27.png
00000014,592,0,1439393465017,1439393465690,927,433,0,0,0,1,2,1,12,0001-00-0000-27.png,0002-00-0000-74.png
00000014,593,0,1439393468799,1439393469371,356,430,0,0,0,2,1,1,21,0002-00-0001-74.png,0001-00-0000-02.png
00000014,594,1,1439393472231,1439393472913,361,410,0,0,0,3,4,1,34,0003-00-0001-22.png,0004-00-0001-11.png
00000014,595,1,1439393473952,1439393474588,348,410,0,0,0,1,2,1,12,0001-00-0000-16.png,0002-00-0001-94.png
00000014,596,1,1439393475632,1439393476207,914,422,0,0,0,5,4,1,54,0005-00-0001-49.png,0004-00-0001-54.png
00000014,597,1,1439393477109,1439393477768,905,427,0,0,0,4,3,1,43,0004-00-0000-89.png,0003-00-0001-65.png
00000014,598,1,1439393478655,1439393479411,350,404,0,0,0,2,3,1,23,0002-00-0000-10.png,0003-00-0001-03.png
00000014,599,0,1439393480461,1439393481256,401,449,0,0,0,3,2,1,32,0003-00-0001-35.png,0002-00-0000-84.png
00000014,600,0,1439393484254,1439393485014,931,428,0,0,0,4,5,1,45,0004-00-0000-14.png,0005-00-0000-69.png
00000014,601,1,1439393487978,1439393488921,862,358,0,0,0,3,2,1,32,0003-00-0000-36.png,0002-00-0001-19.png
00000014,602,1,1439393489863,1439393490446,907,527,0,0,0,2,1,1,21,0002-00-0000-08.png,0001-00-0000-30.png
00000014,603,1,1439393491377,1439393492286,925,508,0,0,0,4,3,1,43,0004-00-0001-45.png,0003-00-0001-69.png
00000014,604,1,1439393493187,1439393493979,404,404,0,0,0,4,5,1,45,0004-00-0001-66.png,0005-00-0000-39.png
00000014,605,1,1439393494931,1439393495619,401,424,0,0,0,1,2,1,12,0001-00-0001-91.png,0002-00-0000-87.png
00000014,606,1,1439393496648,1439393497279,913,424,0,0,0,5,4,1,54,0005-00-0001-43.png,0004-00-0000-34.png
00000014,607,0,1439393498221,1439393498960,864,414,0,0,0,3,4,1,34,0003-00-0000-33.png,0004-00-0001-98.png
00000014,608,1,1439393504829,1439393505532,371,367,0,0,0,2,3,1,23,0002-00-0001-79.png,0003-00-0001-46.png
00000014,609,0,1439393506447,1439393507101,858,529,0,0,0,3,4,1,34,0003-00-0000-29.png,0004-00-0001-79.png
00000014,610,1,1439393512759,1439393513568,899,527,0,0,0,4,3,1,43,0004-00-0001-00.png,0003-00-0000-11.png
00000014,611,0,1439393514488,1439393515139,926,461,0,0,0,1,2,1,12,0001-00-0001-89.png,0002-00-0000-64.png
00000014,612,0,1439393518202,1439393519025,373,431,0,0,0,2,1,1,21,0002-00-0001-14.png,0001-00-0001-30.png
00000014,613,0,1439393521951,1439393522911,903,497,0,0,0,4,5,1,45,0004-00-0001-35.png,0005-00-0000-72.png
00000014,614,0,1439393526336,1439393527236,875,397,0,0,0,2,3,1,23,0002-00-0000-82.png,0003-00-0000-94.png
00000014,615,0,1439393530850,1439393531731,361,395,0,0,0,5,4,1,54,0005-00-0001-43.png,0004-00-0001-73.png
00000014,616,0,1439393534625,1439393534673,503,465,0,0,0,3,2,1,32,0003-00-0001-50.png,0002-00-0001-59.png
00000014,617,1,1439393537958,1439393538574,358,390,0,0,0,2,3,1,23,0002-00-0000-54.png,0003-00-0001-55.png
00000014,618,0,1439393539659,1439393540243,901,437,0,0,0,3,4,1,34,0003-00-0001-96.png,0004-00-0001-85.png
00000014,619,0,1439393543070,1439393543094,499,472,0,0,0,4,3,1,43,0004-00-0001-71.png,0003-00-0000-88.png
00000014,620,1,1439393546413,1439393547097,874,527,0,0,0,2,1,1,21,0002-00-0000-04.png,0001-00-0001-58.png
00000014,621,1,1439393548250,1439393548967,355,393,0,0,0,4,5,1,45,0004-00-0001-40.png,0005-00-0000-03.png
00000014,622,0,1439393550053,1439393550877,925,438,0,0,0,1,2,1,12,0001-00-0001-75.png,0002-00-0000-96.png
00000014,623,1,1439393553945,1439393554506,921,524,0,0,0,3,2,1,32,0003-00-0001-05.png,0002-00-0000-61.png
00000014,624,1,1439393555446,1439393556013,938,450,0,0,0,5,4,1,54,0005-00-0001-85.png,0004-00-0000-14.png
00000014,625,1,1439393556927,1439393557901,900,438,0,0,0,2,1,1,21,0002-00-0000-13.png,0001-00-0000-23.png
00000014,626,0,1439393558814,1439393559800,919,389,0,0,0,4,5,1,45,0004-00-0001-16.png,0005-00-0000-48.png
00000014,627,0,1439393562635,1439393563259,340,399,0,0,0,4,3,1,43,0004-00-0001-94.png,0003-00-0001-12.png
00000014,628,1,1439393566229,1439393566863,379,406,0,0,0,3,4,1,34,0003-00-0000-16.png,0004-00-0001-67.png
00000014,629,0,1439393567800,1439393567828,523,452,0,0,0,3,2,1,32,0003-00-0000-98.png,0002-00-0001-89.png
00000014,630,0,1439393570720,1439393571552,927,423,0,0,0,1,2,1,12,0001-00-0001-98.png,0002-00-0001-02.png
00000014,631,1,1439393574654,1439393575271,870,420,0,0,0,5,4,1,54,0005-00-0001-64.png,0004-00-0001-65.png
00000014,632,1,1439393576267,1439393577010,299,436,0,0,0,2,3,1,23,0002-00-0000-31.png,0003-00-0000-11.png
00000014,633,0,1439393578047,1439393579151,901,463,0,0,0,1,2,1,12,0001-00-0001-15.png,0002-00-0001-64.png
00000014,634,1,1439393582316,1439393582946,938,450,0,0,0,3,2,1,32,0003-00-0000-18.png,0002-00-0001-03.png
00000014,635,1,1439393583956,1439393584584,341,397,0,0,0,3,4,1,34,0003-00-0001-53.png,0004-00-0000-28.png
00000014,636,1,1439393585603,1439393586454,896,498,0,0,0,5,4,1,54,0005-00-0001-23.png,0004-00-0000-77.png
00000014,637,0,1439393587303,1439393588118,925,441,0,0,0,4,5,1,45,0004-00-0001-45.png,0005-00-0001-28.png
00000014,638,1,1439393591222,1439393592038,401,462,0,0,0,2,3,1,23,0002-00-0001-27.png,0003-00-0001-68.png
00000014,639,0,1439393592910,1439393593616,401,436,0,0,0,4,3,1,43,0004-00-0001-60.png,0003-00-0000-15.png
00000014,640,1,1439393596581,1439393597235,883,526,0,0,0,2,1,1,21,0002-00-0000-47.png,0001-00-0001-98.png
00000014,641,0,1439393598160,1439393598188,518,472,0,0,0,4,3,1,43,0004-00-0000-59.png,0003-00-0000-63.png
00000014,642,1,1439393601358,1439393602289,393,389,0,0,0,4,5,1,45,0004-00-0001-23.png,0005-00-0001-10.png
00000014,643,1,1439393603136,1439393603848,425,564,0,0,0,1,2,1,12,0001-00-0000-60.png,0002-00-0001-17.png
00000014,644,1,1439393605016,1439393605871,952,409,0,0,0,5,4,1,54,0005-00-0001-23.png,0004-00-0001-26.png
00000014,645,0,1439393606786,1439393607469,900,488,0,0,0,3,4,1,34,0003-00-0001-75.png,0004-00-0000-32.png
00000014,646,1,1439393610541,1439393611799,336,455,0,0,0,2,3,1,23,0002-00-0000-14.png,0003-00-0000-79.png
00000014,647,1,1439393612661,1439393613362,901,450,0,0,0,3,2,1,32,0003-00-0000-75.png,0002-00-0001-23.png
00000014,648,1,1439393614316,1439393615041,924,404,0,0,0,2,1,1,21,0002-00-0001-07.png,0001-00-0001-90.png
00000014,649,1,1439393615997,1439393616561,919,441,0,0,0,3,2,1,32,0003-00-0001-34.png,0002-00-0000-24.png
00000014,650,1,1439393617548,1439393618467,919,414,0,0,0,2,1,1,21,0002-00-0000-01.png,0001-00-0001-00.png
00000014,651,1,1439393619356,1439393620077,378,420,0,0,0,4,5,1,45,0004-00-0000-35.png,0005-00-0001-56.png
00000014,652,0,1439393621005,1439393621042,511,493,0,0,0,4,3,1,43,0004-00-0001-99.png,0003-00-0001-64.png
00000014,653,0,1439393624142,1439393624711,918,439,0,0,0,2,3,1,23,0002-00-0000-06.png,0003-00-0001-61.png
00000014,654,1,1439393627553,1439393627573,508,445,0,0,0,3,4,1,34,0003-00-0000-42.png,0004-00-0001-22.png
00000014,655,0,1439393629007,1439393629844,873,533,0,0,0,1,2,1,12,0001-00-0000-31.png,0002-00-0001-21.png
00000014,656,0,1439393632842,1439393632902,520,459,0,0,0,5,4,1,54,0005-00-0001-05.png,0004-00-0000-25.png
00000014,657,1,1439393635742,1439393635786,504,497,0,0,0,3,4,1,34,0003-00-0001-63.png,0004-00-0001-51.png
00000014,658,1,1439393636856,1439393637357,925,409,0,0,0,2,1,1,21,0002-00-0001-34.png,0001-00-0001-67.png
00000014,659,0,1439393638321,1439393639226,925,385,0,0,0,1,2,1,12,0001-00-0000-75.png,0002-00-0000-79.png
00000014,660,0,1439393642672,1439393643447,401,424,0,0,0,3,2,1,32,0003-00-0000-44.png,0002-00-0000-53.png
00000014,661,1,1439393646287,1439393647060,914,398,0,0,0,5,4,1,54,0005-00-0001-66.png,0004-00-0000-51.png
00000014,662,1,1439393648051,1439393648844,337,411,0,0,0,4,5,1,45,0004-00-0000-51.png,0005-00-0000-45.png
00000014,663,0,1439393650039,1439393650713,355,422,0,0,0,4,3,1,43,0004-00-0001-91.png,0003-00-0000-75.png
00000014,664,0,1439393653919,1439393654466,953,410,0,0,0,2,3,1,23,0002-00-0000-47.png,0003-00-0000-39.png
00000014,665,0,1439393657309,1439393658340,910,398,0,0,0,4,5,1,45,0004-00-0000-24.png,0005-00-0000-66.png
00000014,666,1,1439393661217,1439393661994,947,409,0,0,0,2,1,1,21,0002-00-0001-50.png,0001-00-0001-65.png
00000014,667,1,1439393662948,1439393663874,874,501,0,0,0,5,4,1,54,0005-00-0000-57.png,0004-00-0000-10.png
00000014,668,1,1439393664837,1439393664865,521,455,0,0,0,2,3,1,23,0002-00-0001-08.png,0003-00-0001-57.png
00000014,669,1,1439393665890,1439393666630,904,428,0,0,0,4,3,1,43,0004-00-0001-14.png,0003-00-0000-78.png
00000014,670,1,1439393667559,1439393668156,876,529,0,0,0,3,2,1,32,0003-00-0001-22.png,0002-00-0001-63.png
00000014,671,0,1439393669067,1439393670252,927,424,0,0,0,3,4,1,34,0003-00-0001-98.png,0004-00-0001-90.png
00000014,672,0,1439393673142,1439393674039,862,358,0,0,0,1,2,1,12,0001-00-0001-29.png,0002-00-0001-48.png
00000014,673,1,1439393676996,1439393677535,903,518,0,0,0,5,4,1,54,0005-00-0000-32.png,0004-00-0001-54.png
00000014,674,1,1439393678512,1439393679140,877,403,0,0,0,3,2,1,32,0003-00-0000-50.png,0002-00-0001-17.png
00000014,675,0,1439393680089,1439393680737,963,398,0,0,0,2,3,1,23,0002-00-0001-53.png,0003-00-0000-41.png
00000014,676,1,1439393683764,1439393684518,948,420,0,0,0,2,1,1,21,0002-00-0000-93.png,0001-00-0001-05.png
00000014,677,1,1439393685468,1439393685492,504,436,0,0,0,1,2,1,12,0001-00-0001-17.png,0002-00-0000-43.png
00000014,678,1,1439393686529,1439393687219,376,410,0,0,0,4,5,1,45,0004-00-0000-06.png,0005-00-0001-45.png
00000014,679,0,1439393688212,1439393688823,338,412,0,0,0,4,3,1,43,0004-00-0000-06.png,0003-00-0001-98.png
00000014,680,0,1439393692771,1439393693357,927,410,0,0,0,3,4,1,34,0003-00-0001-03.png,0004-00-0000-67.png
00000014,681,0,1439393696496,1439393697306,928,415,0,0,0,3,4,1,34,0003-00-0001-32.png,0004-00-0000-32.png
00000014,682,1,1439393701525,1439393702218,317,399,0,0,0,1,2,1,12,0001-00-0001-22.png,0002-00-0001-63.png
00000014,683,1,1439393703246,1439393703928,357,436,0,0,0,4,5,1,45,0004-00-0000-70.png,0005-00-0001-79.png
00000014,684,1,1439393704825,1439393705510,907,436,0,0,0,5,4,1,54,0005-00-0001-05.png,0004-00-0000-75.png
00000014,685,0,1439393706476,1439393706504,498,464,0,0,0,4,3,1,43,0004-00-0000-49.png,0003-00-0001-28.png
00000014,686,1,1439393709543,1439393710221,955,418,0,0,0,2,1,1,21,0002-00-0000-42.png,0001-00-0001-90.png
00000014,687,0,1439393711165,1439393711829,914,450,0,0,0,2,3,1,23,0002-00-0001-41.png,0003-00-0001-23.png
00000014,688,1,1439393714941,1439393715456,862,384,0,0,0,3,2,1,32,0003-00-0000-95.png,0002-00-0000-24.png
00000014,689,1,1439393716330,1439393717087,310,400,0,0,0,1,2,1,12,0001-00-0001-11.png,0002-00-0001-82.png
00000014,690,0,1439393718122,1439393718724,872,358,0,0,0,2,3,1,23,0002-00-0000-85.png,0003-00-0001-59.png
00000014,691,1,1439393721967,1439393722727,926,397,0,0,0,5,4,1,54,0005-00-0000-51.png,0004-00-0001-50.png
00000014,692,0,1439393723598,1439393723626,517,448,0,0,0,2,1,1,21,0002-00-0001-03.png,0001-00-0000-22.png
00000014,693,1,1439393726519,1439393727111,905,419,0,0,0,3,2,1,32,0003-00-0000-46.png,0002-00-0001-50.png
00000014,694,1,1439393728027,1439393728797,923,409,0,0,0,4,3,1,43,0004-00-0001-44.png,0003-00-0000-86.png
00000014,695,0,1439393729739,1439393730382,924,412,0,0,0,3,4,1,34,0003-00-0000-75.png,0004-00-0001-88.png
00000014,696,1,1439393733295,1439393733939,359,402,0,0,0,4,5,1,45,0004-00-0001-69.png,0005-00-0000-57.png
00000014,697,1,1439393735018,1439393735624,898,509,0,0,0,3,2,1,32,0003-00-0001-90.png,0002-00-0001-97.png
00000014,698,0,1439393736543,1439393737390,910,400,0,0,0,4,5,1,45,0004-00-0000-69.png,0005-00-0001-51.png
00000014,699,1,1439393740261,1439393741000,940,397,0,0,0,2,1,1,21,0002-00-0000-70.png,0001-00-0000-56.png
00000014,700,1,1439393741974,1439393742510,863,372,0,0,0,5,4,1,54,0005-00-0000-53.png,0004-00-0001-60.png
00000014,701,0,1439393743464,1439393744091,938,451,0,0,0,2,3,1,23,0002-00-0001-45.png,0003-00-0000-93.png
00000014,702,1,1439393747208,1439393747939,324,403,0,0,0,3,4,1,34,0003-00-0000-82.png,0004-00-0001-15.png
00000014,703,1,1439393748928,1439393749640,417,549,0,0,0,1,2,1,12,0001-00-0001-35.png,0002-00-0001-96.png
00000014,704,0,1439393750679,1439393750703,515,454,0,0,0,4,3,1,43,0004-00-0000-31.png,0003-00-0001-39.png
00000014,705,1,1439393753777,1439393754495,928,416,0,0,0,5,4,1,54,0005-00-0000-70.png,0004-00-0001-59.png
00000014,706,1,1439393755418,1439393756274,420,531,0,0,0,2,3,1,23,0002-00-0000-97.png,0003-00-0000-17.png
00000014,707,1,1439393757258,1439393757914,869,524,0,0,0,3,2,1,32,0003-00-0001-93.png,0002-00-0001-43.png
00000014,708,0,1439393758877,1439393758901,514,450,0,0,0,4,3,1,43,0004-00-0001-87.png,0003-00-0000-82.png
00000014,709,0,1439393761846,1439393762538,895,498,0,0,0,1,2,1,12,0001-00-0001-52.png,0002-00-0001-93.png
00000014,710,1,1439393765632,1439393765656,520,459,0,0,0,4,5,1,45,0004-00-0000-91.png,0005-00-0001-23.png
00000014,711,1,1439393766556,1439393766584,510,446,0,0,0,3,4,1,34,0003-00-0001-71.png,0004-00-0000-85.png
00000014,712,0,1439393767583,1439393767643,523,504,0,0,0,2,1,1,21,0002-00-0000-33.png,0001-00-0000-73.png
00000014,713,0,1439393770489,1439393771143,878,533,0,0,0,4,5,1,45,0004-00-0000-28.png,0005-00-0001-25.png
00000014,714,0,1439393774684,1439393775347,384,392,0,0,0,2,1,1,21,0002-00-0000-62.png,0001-00-0000-57.png
00000014,715,0,1439393778272,1439393778336,496,508,0,0,0,4,3,1,43,0004-00-0000-02.png,0003-00-0001-67.png
00000014,716,0,1439393781414,1439393782391,929,375,0,0,0,3,4,1,34,0003-00-0001-19.png,0004-00-0001-69.png
00000014,717,1,1439393785448,1439393786050,951,474,0,0,0,3,2,1,32,0003-00-0001-83.png,0002-00-0001-57.png
00000014,718,1,1439393786994,1439393787763,880,532,0,0,0,5,4,1,54,0005-00-0000-04.png,0004-00-0000-72.png
00000014,719,0,1439393788729,1439393789535,899,463,0,0,0,1,2,1,12,0001-00-0001-64.png,0002-00-0000-95.png
00000014,720,1,1439393792458,1439393793275,413,489,0,0,0,2,3,1,23,0002-00-0001-03.png,0003-00-0001-26.png
00000014,721,1,1439393794238,1439393794979,346,422,0,0,0,2,3,1,23,0002-00-0001-28.png,0003-00-0001-54.png
00000014,722,1,1439393795856,1439393796589,363,416,0,0,0,3,4,1,34,0003-00-0001-35.png,0004-00-0001-17.png
00000014,723,0,1439393797509,1439393798139,924,462,0,0,0,1,2,1,12,0001-00-0000-67.png,0002-00-0001-34.png
00000014,724,1,1439393801083,1439393802055,362,400,0,0,0,4,5,1,45,0004-00-0001-63.png,0005-00-0001-13.png
00000014,725,0,1439393802932,1439393802964,517,504,0,0,0,5,4,1,54,0005-00-0000-12.png,0004-00-0000-24.png
00000014,726,0,1439393806157,1439393806193,506,514,0,0,0,4,3,1,43,0004-00-0000-97.png,0003-00-0001-36.png
00000014,727,0,1439393809041,1439393809735,392,494,0,0,0,3,2,1,32,0003-00-0001-79.png,0002-00-0000-02.png
00000014,728,1,1439393812753,1439393813496,952,398,0,0,0,2,1,1,21,0002-00-0000-71.png,0001-00-0001-43.png
00000014,729,0,1439393814453,1439393815153,350,423,0,0,0,2,1,1,21,0002-00-0001-63.png,0001-00-0000-47.png
00000014,730,1,1439393818144,1439393818196,517,472,0,0,0,1,2,1,12,0001-00-0000-52.png,0002-00-0000-06.png
00000014,731,1,1439393819202,1439393820108,376,371,0,0,0,4,5,1,45,0004-00-0001-04.png,0005-00-0001-61.png
00000014,732,0,1439393821042,1439393821844,901,408,0,0,0,3,4,1,34,0003-00-0001-05.png,0004-00-0000-56.png
00000014,733,0,1439393824701,1439393824990,520,484,0,0,0,4,3,1,43,0004-00-0001-83.png,0003-00-0000-50.png
00000014,734,1,1439393828018,1439393828852,350,384,0,0,0,2,3,1,23,0002-00-0001-90.png,0003-00-0000-70.png
00000014,735,0,1439393829751,1439393830522,412,528,0,0,0,3,2,1,32,0003-00-0000-36.png,0002-00-0000-92.png
00000014,736,1,1439393833405,1439393834142,901,408,0,0,0,5,4,1,54,0005-00-0001-75.png,0004-00-0001-99.png
00000014,737,0,1439393835053,1439393835646,352,432,0,0,0,3,2,1,32,0003-00-0001-57.png,0002-00-0000-87.png
00000014,738,0,1439393838597,1439393839273,914,450,0,0,0,3,4,1,34,0003-00-0000-72.png,0004-00-0001-74.png
00000014,739,1,1439393842160,1439393842914,939,423,0,0,0,5,4,1,54,0005-00-0000-40.png,0004-00-0000-70.png
00000014,740,0,1439393843785,1439393844435,927,449,0,0,0,4,5,1,45,0004-00-0000-44.png,0005-00-0001-40.png
00000014,741,0,1439393847667,1439393848492,925,384,0,0,0,1,2,1,12,0001-00-0000-25.png,0002-00-0000-66.png
00000014,742,0,1439393852785,1439393853467,375,377,0,0,0,2,1,1,21,0002-00-0001-06.png,0001-00-0001-69.png
00000014,743,0,1439393856704,1439393857554,376,397,0,0,0,4,3,1,43,0004-00-0001-64.png,0003-00-0001-18.png
00000014,744,0,1439393860653,1439393861244,913,410,0,0,0,2,3,1,23,0002-00-0001-42.png,0003-00-0001-35.png
00000014,745,0,1439393864347,1439393865093,387,502,0,0,0,3,2,1,32,0003-00-0001-57.png,0002-00-0000-15.png
00000014,746,1,1439393868189,1439393868903,896,394,0,0,0,5,4,1,54,0005-00-0001-34.png,0004-00-0000-97.png
00000014,747,0,1439393869867,1439393870531,362,414,0,0,0,2,1,1,21,0002-00-0000-16.png,0001-00-0000-66.png
00000014,748,1,1439393873683,1439393873715,518,482,0,0,0,1,2,1,12,0001-00-0000-97.png,0002-00-0000-82.png
00000014,749,1,1439393874697,1439393875454,950,411,0,0,0,4,3,1,43,0004-00-0000-59.png,0003-00-0001-05.png
00000014,750,1,1439393876341,1439393877147,368,403,0,0,0,4,5,1,45,0004-00-0000-05.png,0005-00-0000-04.png
00000014,751,1,1439393878063,1439393878749,350,410,0,0,0,3,4,1,34,0003-00-0001-15.png,0004-00-0001-62.png
00000014,752,1,1439393879698,1439393880564,406,429,0,0,0,2,3,1,23,0002-00-0001-50.png,0003-00-0001-35.png
00000014,753,0,1439393881505,1439393882391,930,453,0,0,0,4,5,1,45,0004-00-0000-86.png,0005-00-0000-79.png
00000014,754,1,1439393886343,1439393886916,324,399,0,0,0,1,2,1,12,0001-00-0000-74.png,0002-00-0001-18.png
00000014,755,0,1439393887897,1439393888919,951,438,0,0,0,3,4,1,34,0003-00-0000-55.png,0004-00-0000-79.png
00000014,756,0,1439393891826,1439393892633,930,401,0,0,0,2,3,1,23,0002-00-0000-90.png,0003-00-0001-50.png
00000014,757,1,1439393895814,1439393896539,878,400,0,0,0,3,2,1,32,0003-00-0000-21.png,0002-00-0000-01.png
00000014,758,0,1439393897496,1439393897516,519,453,0,0,0,2,1,1,21,0002-00-0001-69.png,0001-00-0001-56.png
00000014,759,1,1439393900352,1439393901072,953,398,0,0,0,5,4,1,54,0005-00-0000-28.png,0004-00-0001-21.png
00000014,760,1,1439393901982,1439393902684,913,450,0,0,0,4,3,1,43,0004-00-0001-68.png,0003-00-0000-17.png
00000014,761,0,1439393903645,1439393904269,385,431,0,0,0,2,1,1,21,0002-00-0001-89.png,0001-00-0000-12.png
00000014,762,1,1439393907346,1439393907968,956,401,0,0,0,4,3,1,43,0004-00-0000-33.png,0003-00-0001-63.png
00000014,763,0,1439393908833,1439393909788,929,428,0,0,0,3,4,1,34,0003-00-0000-75.png,0004-00-0000-29.png
00000014,764,1,1439393912789,1439393913204,901,475,0,0,0,5,4,1,54,0005-00-0001-59.png,0004-00-0000-02.png
00000014,765,0,1439393914079,1439393915056,928,418,0,0,0,4,5,1,45,0004-00-0000-07.png,0005-00-0000-97.png
00000014,766,1,1439393918435,1439393919158,358,383,0,0,0,1,2,1,12,0001-00-0001-47.png,0002-00-0000-92.png
00000014,767,0,1439393920053,1439393920093,522,404,0,0,0,3,2,1,32,0003-00-0000-96.png,0002-00-0001-47.png
00000014,768,0,1439393923019,1439393923797,977,398,0,0,0,2,3,1,23,0002-00-0000-57.png,0003-00-0001-05.png
00000014,769,1,1439393926988,1439393927543,862,422,0,0,0,3,2,1,32,0003-00-0001-06.png,0002-00-0001-17.png
00000014,770,0,1439393928431,1439393929120,898,535,0,0,0,1,2,1,12,0001-00-0001-07.png,0002-00-0000-99.png
00000014,771,0,1439393932357,1439393932976,875,422,0,0,0,4,5,1,45,0004-00-0000-07.png,0005-00-0001-87.png
00000014,772,1,1439393935958,1439393936580,347,433,0,0,0,2,3,1,23,0002-00-0001-27.png,0003-00-0000-43.png
00000014,773,1,1439393937496,1439393938151,931,453,0,0,0,2,1,1,21,0002-00-0001-73.png,0001-00-0000-71.png
00000014,774,1,1439393939044,1439393939639,862,422,0,0,0,5,4,1,54,0005-00-0001-34.png,0004-00-0000-32.png
00000014,775,1,1439393940625,1439393941282,346,414,0,0,0,3,4,1,34,0003-00-0001-49.png,0004-00-0001-89.png
00000014,776,0,1439393942247,1439393942275,497,480,0,0,0,4,3,1,43,0004-00-0000-17.png,0003-00-0000-88.png
00000014,777,1,1439393945287,1439393945925,354,419,0,0,0,1,2,1,12,0001-00-0000-28.png,0002-00-0001-00.png
00000014,778,0,1439393946806,1439393947555,926,423,0,0,0,3,4,1,34,0003-00-0001-54.png,0004-00-0001-12.png
00000014,779,1,1439393950953,1439393951651,881,543,0,0,0,5,4,1,54,0005-00-0001-22.png,0004-00-0001-99.png
00000014,780,1,1439393952612,1439393953222,906,444,0,0,0,3,2,1,32,0003-00-0000-11.png,0002-00-0000-72.png
00000014,781,1,1439393954090,1439393954778,349,420,0,0,0,4,5,1,45,0004-00-0001-81.png,0005-00-0000-52.png
00000014,782,1,1439393955754,1439393956382,904,454,0,0,0,4,3,1,43,0004-00-0000-05.png,0003-00-0000-06.png
00000014,783,1,1439393957330,1439393957962,894,551,0,0,0,2,1,1,21,0002-00-0001-00.png,0001-00-0001-85.png
00000014,784,0,1439393958869,1439393959760,915,414,0,0,0,2,3,1,23,0002-00-0000-42.png,0003-00-0001-12.png
00000014,785,1,1439393962970,1439393963734,901,410,0,0,0,3,2,1,32,0003-00-0000-28.png,0002-00-0000-75.png
00000014,786,1,1439393964641,1439393964666,501,462,0,0,0,3,4,1,34,0003-00-0000-35.png,0004-00-0001-58.png
00000014,787,1,1439393965729,1439393966333,896,449,0,0,0,2,1,1,21,0002-00-0000-99.png,0001-00-0000-85.png
00000014,788,0,1439393967246,1439393968092,931,417,0,0,0,2,3,1,23,0002-00-0001-09.png,0003-00-0000-52.png
00000014,789,1,1439393971239,1439393971819,927,436,0,0,0,4,3,1,43,0004-00-0001-53.png,0003-00-0000-22.png
00000014,790,1,1439393972722,1439393973770,890,510,0,0,0,5,4,1,54,0005-00-0001-96.png,0004-00-0000-64.png
00000014,791,1,1439393974682,1439393974710,515,451,0,0,0,4,5,1,45,0004-00-0000-69.png,0005-00-0001-21.png
00000014,792,0,1439393975783,1439393976680,861,510,0,0,0,1,2,1,12,0001-00-0000-66.png,0002-00-0001-08.png
00000014,793,1,1439393979875,1439393980622,919,407,0,0,0,4,3,1,43,0004-00-0001-17.png,0003-00-0000-11.png
00000014,794,1,1439393981537,1439393982344,943,461,0,0,0,2,1,1,21,0002-00-0000-69.png,0001-00-0001-46.png
00000014,795,1,1439393983237,1439393983881,946,455,0,0,0,3,2,1,32,0003-00-0000-33.png,0002-00-0001-58.png
00000014,796,0,1439393984728,1439393985461,924,457,0,0,0,3,4,1,34,0003-00-0001-29.png,0004-00-0000-04.png
00000014,797,0,1439393989480,1439393990129,911,552,0,0,0,1,2,1,12,0001-00-0001-23.png,0002-00-0001-41.png
00000014,798,1,1439393993368,1439393994153,373,397,0,0,0,4,5,1,45,0004-00-0001-70.png,0005-00-0001-65.png
00000014,799,1,1439393995021,1439393995745,376,410,0,0,0,2,3,1,23,0002-00-0000-38.png,0003-00-0001-06.png
00000014,800,1,1439393996631,1439393997482,902,521,0,0,0,5,4,1,54,0005-00-0000-15.png,0004-00-0001-29.png
00000014,801,1,1439393998361,1439393998992,919,467,0,0,0,2,1,1,21,0002-00-0000-62.png,0001-00-0001-42.png
00000014,802,0,1439393999911,1439394000568,894,446,0,0,0,4,5,1,45,0004-00-0001-92.png,0005-00-0001-69.png
00000014,803,1,1439394003548,1439394004678,419,428,0,0,0,1,2,1,12,0001-00-0000-88.png,0002-00-0000-11.png
00000014,804,1,1439394006139,1439394006649,902,449,0,0,0,3,2,1,32,0003-00-0000-77.png,0002-00-0000-03.png
00000014,805,1,1439394007554,1439394007578,511,469,0,0,0,3,4,1,34,0003-00-0000-57.png,0004-00-0001-06.png
00000014,806,1,1439394008649,1439394009588,877,430,0,0,0,5,4,1,54,0005-00-0000-25.png,0004-00-0001-00.png
00000014,807,1,1439394010534,1439394011169,890,449,0,0,0,4,3,1,43,0004-00-0000-66.png,0003-00-0001-56.png
00000014,808,1,1439394012113,1439394012897,423,444,0,0,0,2,3,1,23,0002-00-0000-56.png,0003-00-0000-35.png
00000014,809,1,1439394013806,1439394014856,400,419,0,0,0,1,2,1,12,0001-00-0001-14.png,0002-00-0001-35.png
00000014,810,0,1439394016260,1439394016897,364,410,0,0,0,3,2,1,32,0003-00-0000-22.png,0002-00-0001-45.png
00000014,811,1,1439394019905,1439394020587,878,548,0,0,0,2,1,1,21,0002-00-0000-39.png,0001-00-0001-11.png
00000014,812,0,1439394021538,1439394022265,882,415,0,0,0,3,4,1,34,0003-00-0000-42.png,0004-00-0001-20.png
00000014,813,1,1439394025212,1439394025935,912,477,0,0,0,4,3,1,43,0004-00-0000-39.png,0003-00-0001-88.png
00000014,814,0,1439394026855,1439394026875,511,504,0,0,0,5,4,1,54,0005-00-0000-32.png,0004-00-0000-28.png
00000014,815,1,1439394029754,1439394030344,353,381,0,0,0,2,3,1,23,0002-00-0001-60.png,0003-00-0000-53.png
00000014,816,0,1439394031299,1439394032024,937,411,0,0,0,4,5,1,45,0004-00-0000-03.png,0005-00-0000-84.png
00000014,817,1,1439394034996,1439394035641,934,393,0,0,0,5,4,1,54,0005-00-0000-06.png,0004-00-0000-35.png
00000014,818,1,1439394036553,1439394037407,363,398,0,0,0,1,2,1,12,0001-00-0000-93.png,0002-00-0000-75.png
00000014,819,1,1439394038291,1439394038927,874,527,0,0,0,3,2,1,32,0003-00-0000-00.png,0002-00-0000-08.png
00000014,820,1,1439394039840,1439394040580,337,398,0,0,0,4,5,1,45,0004-00-0001-20.png,0005-00-0000-04.png
00000014,821,1,1439394041470,1439394041512,504,452,0,0,0,2,3,1,23,0002-00-0000-06.png,0003-00-0000-43.png
00000014,822,1,1439394042686,1439394043475,905,449,0,0,0,4,3,1,43,0004-00-0001-92.png,0003-00-0001-41.png
00000014,823,1,1439394044402,1439394044447,509,508,0,0,0,3,4,1,34,0003-00-0001-65.png,0004-00-0001-09.png
00000014,824,0,1439394045566,1439394045602,518,482,0,0,0,2,1,1,21,0002-00-0000-21.png,0001-00-0000-91.png
00000014,825,1,1439394048565,1439394049492,417,566,0,0,0,4,5,1,45,0004-00-0000-56.png,0005-00-0001-61.png
00000014,826,0,1439394050385,1439394051316,328,381,0,0,0,3,2,1,32,0003-00-0000-01.png,0002-00-0001-14.png
00000014,827,1,1439394054167,1439394054757,862,421,0,0,0,2,1,1,21,0002-00-0000-30.png,0001-00-0000-48.png
00000014,828,1,1439394055671,1439394056318,342,433,0,0,0,1,2,1,12,0001-00-0001-13.png,0002-00-0001-76.png
00000014,829,1,1439394057217,1439394057863,918,451,0,0,0,5,4,1,54,0005-00-0000-66.png,0004-00-0000-06.png
00000014,830,1,1439394058794,1439394059424,922,446,0,0,0,4,3,1,43,0004-00-0000-02.png,0003-00-0000-91.png
00000014,831,1,1439394060334,1439394061135,343,420,0,0,0,2,3,1,23,0002-00-0000-49.png,0003-00-0001-71.png
00000014,832,0,1439394062154,1439394062767,892,527,0,0,0,3,4,1,34,0003-00-0001-06.png,0004-00-0000-09.png
00000014,833,1,1439394065636,1439394066336,360,432,0,0,0,2,3,1,23,0002-00-0000-55.png,0003-00-0001-06.png
00000014,834,1,1439394067279,1439394067961,390,527,0,0,0,3,4,1,34,0003-00-0001-84.png,0004-00-0001-21.png
00000014,835,1,1439394068865,1439394069854,934,386,0,0,0,5,4,1,54,0005-00-0000-58.png,0004-00-0000-85.png
00000014,836,1,1439394070717,1439394071594,904,428,0,0,0,4,3,1,43,0004-00-0001-73.png,0003-00-0001-02.png
00000014,837,1,1439394072515,1439394073328,402,422,0,0,0,1,2,1,12,0001-00-0000-56.png,0002-00-0001-45.png
00000014,838,0,1439394074236,1439394074878,415,528,0,0,0,3,2,1,32,0003-00-0000-98.png,0002-00-0000-86.png
00000014,839,0,1439394077843,1439394078435,360,443,0,0,0,2,1,1,21,0002-00-0000-04.png,0001-00-0000-94.png
00000014,840,0,1439394081718,1439394082526,909,514,0,0,0,4,5,1,45,0004-00-0000-05.png,0005-00-0001-13.png
00000014,841,1,1439394085526,1439394086188,895,394,0,0,0,3,2,1,32,0003-00-0001-22.png,0002-00-0000-54.png
00000014,842,1,1439394087126,1439394087939,930,401,0,0,0,5,4,1,54,0005-00-0001-15.png,0004-00-0001-13.png
00000014,843,0,1439394088888,1439394089656,877,497,0,0,0,3,4,1,34,0003-00-0001-88.png,0004-00-0000-95.png
00000014,844,0,1439394092545,1439394093203,340,446,0,0,0,4,3,1,43,0004-00-0000-23.png,0003-00-0001-34.png
00000014,845,1,1439394096047,1439394096785,924,431,0,0,0,2,1,1,21,0002-00-0000-34.png,0001-00-0000-22.png
00000014,846,1,1439394097699,1439394098458,354,423,0,0,0,4,5,1,45,0004-00-0001-25.png,0005-00-0000-06.png
00000014,847,1,1439394099430,1439394100112,301,392,0,0,0,1,2,1,12,0001-00-0000-18.png,0002-00-0000-67.png
00000014,848,1,1439394101099,1439394101143,509,474,0,0,0,2,3,1,23,0002-00-0001-13.png,0003-00-0000-09.png
00000014,849,1,1439394102167,1439394102796,422,539,0,0,0,2,3,1,23,0002-00-0000-24.png,0003-00-0001-27.png
00000014,850,1,1439394103802,1439394104490,922,453,0,0,0,4,3,1,43,0004-00-0001-58.png,0003-00-0001-27.png
00000014,851,1,1439394105441,1439394106025,422,517,0,0,0,1,2,1,12,0001-00-0001-13.png,0002-00-0000-05.png
00000014,852,0,1439394107033,1439394107061,510,472,0,0,0,2,1,1,21,0002-00-0000-23.png,0001-00-0000-47.png
00000014,853,1,1439394109893,1439394110546,926,489,0,0,0,3,2,1,32,0003-00-0000-25.png,0002-00-0000-14.png
00000014,854,1,1439394111412,1439394112086,347,438,0,0,0,3,4,1,34,0003-00-0001-61.png,0004-00-0001-44.png
00000014,855,0,1439394113023,1439394113820,346,400,0,0,0,5,4,1,54,0005-00-0000-10.png,0004-00-0001-97.png
00000014,856,1,1439394116828,1439394117703,340,402,0,0,0,4,5,1,45,0004-00-0001-93.png,0005-00-0000-63.png
00000014,857,0,1439394118606,1439394119296,427,410,0,0,0,4,3,1,43,0004-00-0000-67.png,0003-00-0000-25.png
00000014,858,0,1439394122156,1439394122823,927,461,0,0,0,3,4,1,34,0003-00-0001-80.png,0004-00-0000-43.png
00000014,859,1,1439394125713,1439394126592,382,402,0,0,0,2,3,1,23,0002-00-0001-86.png,0003-00-0001-68.png
00000014,860,1,1439394127463,1439394128296,910,426,0,0,0,5,4,1,54,0005-00-0000-77.png,0004-00-0000-92.png
00000014,861,0,1439394129213,1439394129816,899,462,0,0,0,1,2,1,12,0001-00-0000-71.png,0002-00-0000-24.png
00000014,862,0,1439394133083,1439394133944,926,437,0,0,0,4,5,1,45,0004-00-0001-42.png,0005-00-0000-88.png
00000014,863,1,1439394137153,1439394137881,877,493,0,0,0,2,1,1,21,0002-00-0001-38.png,0001-00-0001-54.png
00000014,864,1,1439394138999,1439394139813,927,433,0,0,0,3,2,1,32,0003-00-0001-13.png,0002-00-0001-50.png
00000014,865,0,1439394140692,1439394141335,905,454,0,0,0,1,2,1,12,0001-00-0001-54.png,0002-00-0000-56.png
00000014,866,0,1439394144405,1439394145017,903,545,0,0,0,3,4,1,34,0003-00-0000-60.png,0004-00-0000-75.png
00000014,867,0,1439394150326,1439394151028,331,391,0,0,0,3,2,1,32,0003-00-0001-01.png,0002-00-0001-21.png
00000014,868,1,1439394154086,1439394154711,895,393,0,0,0,4,3,1,43,0004-00-0000-27.png,0003-00-0000-93.png
00000014,869,1,1439394155623,1439394156722,912,425,0,0,0,5,4,1,54,0005-00-0000-70.png,0004-00-0000-53.png
00000014,870,0,1439394157647,1439394158236,389,446,0,0,0,2,1,1,21,0002-00-0000-37.png,0001-00-0001-95.png
00000014,871,0,1439394161644,1439394162600,870,410,0,0,0,4,5,1,45,0004-00-0001-23.png,0005-00-0000-13.png
00000014,872,0,1439394165757,1439394166543,928,493,0,0,0,2,3,1,23,0002-00-0000-21.png,0003-00-0000-78.png
00000014,873,0,1439394169859,1439394170498,393,406,0,0,0,4,3,1,43,0004-00-0001-10.png,0003-00-0000-87.png
00000014,874,0,1439394173689,1439394174491,930,428,0,0,0,4,5,1,45,0004-00-0000-87.png,0005-00-0001-60.png
00000014,875,0,1439394177591,1439394178375,339,403,0,0,0,5,4,1,54,0005-00-0000-26.png,0004-00-0000-38.png
00000014,876,0,1439394181217,1439394182067,874,527,0,0,0,1,2,1,12,0001-00-0000-89.png,0002-00-0000-62.png
00000014,877,1,1439394185315,1439394185880,928,545,0,0,0,3,2,1,32,0003-00-0000-19.png,0002-00-0001-74.png
00000014,878,0,1439394186752,1439394187397,364,428,0,0,0,2,1,1,21,0002-00-0000-24.png,0001-00-0001-50.png
00000014,879,0,1439394190369,1439394191106,870,420,0,0,0,2,3,1,23,0002-00-0001-39.png,0003-00-0000-92.png
00000014,880,1,1439394194160,1439394194909,337,398,0,0,0,3,4,1,34,0003-00-0001-71.png,0004-00-0001-30.png
00000014,881,0,1439394195852,1439394196482,363,424,0,0,0,5,4,1,54,0005-00-0000-55.png,0004-00-0001-59.png
00000014,882,1,1439394199395,1439394199974,370,385,0,0,0,2,3,1,23,0002-00-0000-21.png,0003-00-0001-37.png
00000014,883,1,1439394200960,1439394201556,926,423,0,0,0,3,2,1,32,0003-00-0001-21.png,0002-00-0001-34.png
00000014,884,1,1439394202450,1439394203126,381,410,0,0,0,4,5,1,45,0004-00-0001-06.png,0005-00-0000-47.png
00000014,885,0,1439394204070,1439394204972,926,386,0,0,0,3,4,1,34,0003-00-0001-04.png,0004-00-0000-50.png
00000014,886,1,1439394207930,1439394208465,371,386,0,0,0,1,2,1,12,0001-00-0001-56.png,0002-00-0001-84.png
00000014,887,1,1439394209592,1439394210128,923,406,0,0,0,4,3,1,43,0004-00-0001-66.png,0003-00-0001-36.png
00000014,888,1,1439394211084,1439394211874,892,511,0,0,0,2,1,1,21,0002-00-0001-00.png,0001-00-0001-41.png
00000014,889,0,1439394212857,1439394213417,917,455,0,0,0,1,2,1,12,0001-00-0000-26.png,0002-00-0001-89.png
00000014,890,0,1439394217126,1439394217784,317,428,0,0,0,2,1,1,21,0002-00-0001-28.png,0001-00-0001-00.png
00000014,891,0,1439394220829,1439394221636,940,422,0,0,0,2,3,1,23,0002-00-0000-90.png,0003-00-0000-68.png
00000014,892,0,1439394224764,1439394225421,273,462,0,0,0,4,3,1,43,0004-00-0000-77.png,0003-00-0000-04.png
00000014,893,1,1439394228478,1439394229303,870,498,0,0,0,5,4,1,54,0005-00-0000-74.png,0004-00-0001-00.png
00000014,894,0,1439394230362,1439394230891,924,437,0,0,0,3,4,1,34,0003-00-0000-29.png,0004-00-0000-66.png
00000014,895,1,1439394233940,1439394234595,350,399,0,0,0,4,5,1,45,0004-00-0000-44.png,0005-00-0000-12.png
00000014,896,1,1439394235556,1439394236139,862,411,0,0,0,3,2,1,32,0003-00-0001-98.png,0002-00-0000-85.png
00000014,897,0,1439394237043,1439394237798,248,477,0,0,0,2,1,1,21,0002-00-0000-99.png,0001-00-0000-54.png
00000014,898,1,1439394240658,1439394241246,384,420,0,0,0,1,2,1,12,0001-00-0000-73.png,0002-00-0000-53.png
00000014,899,1,1439394242098,1439394242702,946,444,0,0,0,5,4,1,54,0005-00-0000-16.png,0004-00-0000-46.png
00000014,900,1,1439394244029,1439394244769,929,427,0,0,0,4,3,1,43,0004-00-0001-77.png,0003-00-0000-11.png
00000014,901,1,1439394245688,1439394245716,511,482,0,0,0,4,5,1,45,0004-00-0000-65.png,0005-00-0001-46.png
00000014,902,0,1439394246745,1439394247663,878,454,0,0,0,2,3,1,23,0002-00-0000-68.png,0003-00-0001-24.png
00000014,903,0,1439394251376,1439394252042,927,531,0,0,0,3,4,1,34,0003-00-0000-04.png,0004-00-0000-93.png
00000014,904,1,1439394255001,1439394255600,938,424,0,0,0,3,2,1,32,0003-00-0000-94.png,0002-00-0000-40.png
00000014,905,0,1439394256480,1439394257346,427,499,0,0,0,5,4,1,54,0005-00-0000-89.png,0004-00-0001-02.png
00000014,906,1,1439394260288,1439394260930,320,400,0,0,0,3,4,1,34,0003-00-0001-76.png,0004-00-0001-38.png
00000014,907,0,1439394261850,1439394262461,925,438,0,0,0,4,5,1,45,0004-00-0001-74.png,0005-00-0000-15.png
00000014,908,0,1439394265415,1439394266142,371,511,0,0,0,2,1,1,21,0002-00-0001-51.png,0001-00-0000-65.png
00000014,909,1,1439394269324,1439394269848,925,491,0,0,0,3,2,1,32,0003-00-0000-97.png,0002-00-0000-44.png
00000014,910,0,1439394270834,1439394271757,951,386,0,0,0,1,2,1,12,0001-00-0001-98.png,0002-00-0001-81.png
00000014,911,1,1439394274758,1439394275744,926,410,0,0,0,4,3,1,43,0004-00-0001-53.png,0003-00-0000-56.png
00000014,912,1,1439394276651,1439394277316,393,420,0,0,0,2,3,1,23,0002-00-0001-66.png,0003-00-0001-09.png
00000014,913,1,1439394278594,1439394279171,925,463,0,0,0,5,4,1,54,0005-00-0000-99.png,0004-00-0000-44.png
00000014,914,0,1439394280057,1439394280954,357,446,0,0,0,2,1,1,21,0002-00-0000-87.png,0001-00-0000-46.png
00000014,915,0,1439394283936,1439394284614,397,523,0,0,0,3,2,1,32,0003-00-0000-23.png,0002-00-0000-58.png
00000014,916,1,1439394287624,1439394288421,376,398,0,0,0,3,4,1,34,0003-00-0000-10.png,0004-00-0000-04.png
00000014,917,0,1439394289362,1439394290097,351,411,0,0,0,4,3,1,43,0004-00-0001-22.png,0003-00-0000-32.png
00000014,918,0,1439394293055,1439394293627,924,455,0,0,0,1,2,1,12,0001-00-0001-10.png,0002-00-0001-49.png
00000014,919,0,1439394296737,1439394297483,938,424,0,0,0,2,3,1,23,0002-00-0000-21.png,0003-00-0001-64.png
00000014,920,0,1439394301078,1439394301985,870,420,0,0,0,4,5,1,45,0004-00-0001-38.png,0005-00-0001-24.png
00000014,921,0,1439394304959,1439394305706,930,402,0,0,0,3,4,1,34,0003-00-0000-76.png,0004-00-0000-66.png
00000014,922,0,1439394308734,1439394308776,519,451,0,0,0,3,2,1,32,0003-00-0001-51.png,0002-00-0000-33.png
00000014,923,0,1439394311932,1439394312527,363,430,0,0,0,4,3,1,43,0004-00-0000-74.png,0003-00-0000-01.png
00000014,924,1,1439394315464,1439394316716,477,478,0,0,0,2,3,1,23,0002-00-0000-67.png,0003-00-0001-29.png
00000014,925,1,1439394317692,1439394318251,902,440,0,0,0,2,1,1,21,0002-00-0001-39.png,0001-00-0001-26.png
00000014,926,1,1439394319143,1439394319206,504,448,0,0,0,4,5,1,45,0004-00-0001-71.png,0005-00-0001-82.png
00000014,927,1,1439394320545,1439394321613,927,410,0,0,0,5,4,1,54,0005-00-0001-09.png,0004-00-0000-80.png
00000014,928,1,1439394322488,1439394323156,299,488,0,0,0,1,2,1,12,0001-00-0000-19.png,0002-00-0001-04.png
00000014,929,1,1439394324494,1439394325199,427,436,0,0,0,4,5,1,45,0004-00-0001-10.png,0005-00-0001-59.png
00000014,930,1,1439394326494,1439394327472,872,564,0,0,0,5,4,1,54,0005-00-0001-54.png,0004-00-0001-96.png
00000014,931,0,1439394328332,1439394328360,510,486,0,0,0,4,3,1,43,0004-00-0000-75.png,0003-00-0000-85.png
00000014,932,1,1439394331731,1439394332288,380,400,0,0,0,3,4,1,34,0003-00-0001-14.png,0004-00-0001-45.png
00000014,933,0,1439394333184,1439394333843,925,412,0,0,0,2,3,1,23,0002-00-0000-68.png,0003-00-0001-90.png
00000014,934,1,1439394336821,1439394337419,338,417,0,0,0,1,2,1,12,0001-00-0001-39.png,0002-00-0001-34.png
00000014,935,1,1439394338659,1439394339250,901,479,0,0,0,2,1,1,21,0002-00-0000-05.png,0001-00-0000-46.png
00000014,936,1,1439394340171,1439394340766,901,462,0,0,0,3,2,1,32,0003-00-0001-38.png,0002-00-0000-31.png
00000014,937,1,1439394341672,1439394342529,895,524,0,0,0,4,3,1,43,0004-00-0001-15.png,0003-00-0000-34.png
00000014,938,1,1439394343444,1439394344290,910,399,0,0,0,3,2,1,32,0003-00-0000-14.png,0002-00-0001-77.png
00000014,939,1,1439394345188,1439394345255,516,475,0,0,0,3,4,1,34,0003-00-0001-56.png,0004-00-0001-27.png
00000014,940,1,1439394346211,1439394346984,899,436,0,0,0,2,1,1,21,0002-00-0000-93.png,0001-00-0000-07.png
00000014,941,1,1439394347921,1439394348542,414,517,0,0,0,1,2,1,12,0001-00-0000-76.png,0002-00-0001-66.png
00000014,942,0,1439394349752,1439394349788,504,528,0,0,0,5,4,1,54,0005-00-0000-43.png,0004-00-0000-33.png
