subject_id,trial,correct_response,stim_time,response_time,x_coord,y_coord,trial_timeout,timeout_time,interTrial_timeout,left_rank,right_rank,distance,joint_rank,left_image,right_image
00000014,1,0,1441291834117,1441291834914,908,397,0,0,0,3,4,1,34,0003-00-0004-96.png,0004-00-0007-79.png
00000014,2,0,1441291837784,1441291837812,514,425,0,0,0,4,3,1,43,0004-00-0000-95.png,0003-00-0002-82.png
00000014,3,1,1441291841023,1441291841436,383,420,0,0,0,1,2,1,12,0001-00-0006-01.png,0002-00-0003-26.png
00000014,4,1,1441291843134,1441291843547,339,390,0,0,0,2,3,1,23,0002-00-0007-60.png,0003-00-0009-25.png
00000014,5,0,1441291844514,1441291844937,327,392,0,0,0,5,4,1,54,0005-00-0005-76.png,0004-00-0008-42.png
00000014,6,1,1441291847851,1441291848273,329,392,0,0,0,4,5,1,45,0004-00-0005-11.png,0005-00-0001-85.png
00000014,7,0,1441291849131,1441291849544,330,380,0,0,0,2,1,1,21,0002-00-0001-98.png,0001-00-0004-75.png
00000014,8,0,1441291852445,1441291852469,468,456,0,0,0,3,2,1,32,0003-00-0005-81.png,0002-00-0002-51.png
00000014,9,1,1441291855602,1441291856110,937,424,0,0,0,2,1,1,21,0002-00-0006-83.png,0001-00-0005-93.png
00000014,10,0,1441291857196,1441291857597,305,393,0,0,0,4,3,1,43,0004-00-0009-20.png,0003-00-0002-37.png
00000014,11,1,1441291860564,1441291860628,496,429,0,0,0,3,4,1,34,0003-00-0001-24.png,0004-00-0008-90.png
00000014,12,1,1441291861588,1441291862000,331,410,0,0,0,1,2,1,12,0001-00-0006-62.png,0002-00-0008-59.png
00000014,13,1,1441291863524,1441291864013,870,498,0,0,0,3,2,1,32,0003-00-0000-20.png,0002-00-0002-55.png
00000014,14,1,1441291865534,1441291865934,299,427,0,0,0,2,3,1,23,0002-00-0002-04.png,0003-00-0009-79.png
00000014,15,0,1441291867074,1441291867621,925,397,0,0,0,4,5,1,45,0004-00-0007-79.png,0005-00-0009-09.png
00000014,16,0,1441291870590,1441291870598,509,446,0,0,0,5,4,1,54,0005-00-0005-37.png,0004-00-0002-48.png
00000014,17,1,1441291873615,1441291873623,474,403,0,0,0,2,3,1,23,0002-00-0003-86.png,0003-00-0008-20.png
00000014,18,1,1441291875134,1441291875531,376,396,0,0,0,1,2,1,12,0001-00-0002-74.png,0002-00-0002-38.png
00000014,19,1,1441291876486,1441291877058,366,508,0,0,0,4,5,1,45,0004-00-0006-21.png,0005-00-0004-53.png
00000014,20,0,1441291878549,1441291878964,300,391,0,0,0,2,1,1,21,0002-00-0005-44.png,0001-00-0005-13.png
00000014,21,0,1441291885717,1441291886164,401,436,0,0,0,5,4,1,54,0005-00-0005-36.png,0004-00-0007-84.png
00000014,22,1,1441291890045,1441291890529,882,481,0,0,0,3,2,1,32,0003-00-0009-78.png,0002-00-0005-41.png
00000014,23,0,1441291892277,1441291892705,401,448,0,0,0,4,3,1,43,0004-00-0008-77.png,0003-00-0008-37.png
00000014,24,1,1441291895862,1441291896319,352,440,0,0,0,3,4,1,34,0003-00-0006-55.png,0004-00-0008-47.png
00000014,25,1,1441291897196,1441291897729,876,461,0,0,0,3,2,1,32,0003-00-0002-64.png,0002-00-0003-23.png
00000014,26,0,1441291898633,1441291899151,927,436,0,0,0,1,2,1,12,0001-00-0000-31.png,0002-00-0002-79.png
00000014,27,1,1441291904211,1441291904626,343,430,0,0,0,2,3,1,23,0002-00-0003-96.png,0003-00-0006-65.png
00000014,28,1,1441291905691,1441291948210,405,401,0,0,0,4,5,1,45,0004-00-0001-25.png,0005-00-0008-92.png
00000014,29,1,1441291949249,1441291949811,929,390,0,0,0,5,4,1,54,0005-00-0001-53.png,0004-00-0007-79.png
00000014,30,0,1441291950747,1441291951363,862,507,0,0,0,3,4,1,34,0003-00-0006-93.png,0004-00-0002-42.png
00000014,31,1,1441291955450,1441291955997,906,448,0,0,0,4,3,1,43,0004-00-0001-65.png,0003-00-0003-81.png
00000014,32,0,1441291957359,1441291957741,297,384,0,0,0,2,1,1,21,0002-00-0001-74.png,0001-00-0003-11.png
00000014,33,1,1441291961085,1441291961496,390,502,0,0,0,2,3,1,23,0002-00-0006-01.png,0003-00-0006-65.png
00000014,34,0,1441291962377,1441291962862,357,430,0,0,0,2,1,1,21,0002-00-0005-88.png,0001-00-0002-82.png
00000014,35,1,1441291966054,1441291966492,332,387,0,0,0,4,5,1,45,0004-00-0005-02.png,0005-00-0001-91.png
00000014,36,0,1441291967425,1441291967897,325,436,0,0,0,3,2,1,32,0003-00-0007-81.png,0002-00-0007-02.png
00000014,37,1,1441291971115,1441291971564,362,491,0,0,0,1,2,1,12,0001-00-0009-22.png,0002-00-0005-34.png
00000014,38,1,1441291972484,1441291973494,900,389,0,0,0,4,3,1,43,0004-00-0003-69.png,0003-00-0008-14.png
00000014,39,0,1441291974392,1441291974920,902,388,0,0,0,3,4,1,34,0003-00-0004-42.png,0004-00-0000-98.png
00000014,40,0,1441291978071,1441291978483,312,435,0,0,0,5,4,1,54,0005-00-0003-74.png,0004-00-0000-80.png
00000014,41,1,1441291981597,1441291982094,899,411,0,0,0,3,2,1,32,0003-00-0004-15.png,0002-00-0003-63.png
00000014,42,1,1441291982948,1441291983465,401,410,0,0,0,2,3,1,23,0002-00-0008-22.png,0003-00-0004-24.png
00000014,43,1,1441291984374,1441291984906,905,375,0,0,0,2,1,1,21,0002-00-0006-80.png,0001-00-0005-39.png
00000014,44,0,1441291985910,1441291986798,900,423,0,0,0,1,2,1,12,0001-00-0006-16.png,0002-00-0009-15.png
00000014,45,0,1441291989837,1441291989853,489,438,0,0,0,5,4,1,54,0005-00-0004-78.png,0004-00-0006-99.png
00000014,46,1,1441291992818,1441291993283,311,373,0,0,0,4,5,1,45,0004-00-0002-37.png,0005-00-0005-79.png
00000014,47,0,1441291994220,1441291994734,930,402,0,0,0,3,4,1,34,0003-00-0004-91.png,0004-00-0002-53.png
00000014,48,0,1441291997698,1441291998168,381,490,0,0,0,4,3,1,43,0004-00-0000-15.png,0003-00-0007-73.png
00000014,49,1,1441292001345,1441292001850,952,384,0,0,0,3,2,1,32,0003-00-0000-87.png,0002-00-0002-93.png
00000014,50,0,1441292002796,1441292003310,923,457,0,0,0,2,3,1,23,0002-00-0007-61.png,0003-00-0009-35.png
00000014,51,0,1441292006455,1441292006915,367,402,0,0,0,5,4,1,54,0005-00-0002-70.png,0004-00-0005-51.png
00000014,52,1,1441292009892,1441292009896,517,381,0,0,0,4,5,1,45,0004-00-0002-16.png,0005-00-0005-48.png
00000014,53,0,1441292011026,1441292011476,901,486,0,0,0,3,4,1,34,0003-00-0004-71.png,0004-00-0003-14.png
00000014,54,1,1441292014444,1441292014899,926,423,0,0,0,4,3,1,43,0004-00-0005-71.png,0003-00-0007-68.png
00000014,55,0,1441292015775,1441292016292,939,398,0,0,0,1,2,1,12,0001-00-0008-88.png,0002-00-0001-58.png
00000014,56,1,1441292019401,1441292019835,901,398,0,0,0,2,1,1,21,0002-00-0000-73.png,0001-00-0001-89.png
00000014,57,0,1441292020734,1441292021311,888,396,0,0,0,2,3,1,23,0002-00-0002-97.png,0003-00-0003-01.png
00000014,58,1,1441292025086,1441292025592,901,476,0,0,0,2,1,1,21,0002-00-0000-99.png,0001-00-0002-38.png
00000014,59,0,1441292026550,1441292027081,896,467,0,0,0,3,4,1,34,0003-00-0002-43.png,0004-00-0000-52.png
00000014,60,1,1441292030018,1441292030510,313,389,0,0,0,1,2,1,12,0001-00-0002-65.png,0002-00-0000-83.png
00000014,61,1,1441292031466,1441292031929,895,472,0,0,0,3,2,1,32,0003-00-0000-87.png,0002-00-0008-99.png
00000014,62,1,1441292032897,1441292033395,880,479,0,0,0,4,3,1,43,0004-00-0005-99.png,0003-00-0000-51.png
00000014,63,0,1441292034437,1441292034943,874,386,0,0,0,4,5,1,45,0004-00-0001-37.png,0005-00-0007-79.png
00000014,64,0,1441292038035,1441292038450,317,419,0,0,0,5,4,1,54,0005-00-0003-75.png,0004-00-0005-11.png
00000014,65,1,1441292041495,1441292041994,901,409,0,0,0,5,4,1,54,0005-00-0005-55.png,0004-00-0004-04.png
00000014,66,1,1441292042895,1441292043391,874,483,0,0,0,3,2,1,32,0003-00-0001-84.png,0002-00-0001-67.png
00000014,67,1,1441292044387,1441292044878,927,382,0,0,0,4,3,1,43,0004-00-0008-93.png,0003-00-0004-09.png
00000014,68,0,1441292045816,1441292046321,926,384,0,0,0,2,3,1,23,0002-00-0005-42.png,0003-00-0004-53.png
00000014,69,0,1441292049315,1441292049837,877,494,0,0,0,3,4,1,34,0003-00-0004-05.png,0004-00-0004-71.png
00000014,70,1,1441292052895,1441292053406,391,477,0,0,0,4,5,1,45,0004-00-0002-64.png,0005-00-0003-43.png
00000014,71,1,1441292054782,1441292055259,929,401,0,0,0,2,1,1,21,0002-00-0001-78.png,0001-00-0000-29.png
00000014,72,0,1441292056240,1441292056727,926,384,0,0,0,1,2,1,12,0001-00-0005-95.png,0002-00-0000-66.png
00000014,73,0,1441292059783,1441292060262,875,463,0,0,0,3,4,1,34,0003-00-0000-04.png,0004-00-0005-64.png
00000014,74,0,1441292063228,1441292063771,951,410,0,0,0,1,2,1,12,0001-00-0004-46.png,0002-00-0007-38.png
00000014,75,1,1441292066867,1441292067315,952,398,0,0,0,4,3,1,43,0004-00-0008-69.png,0003-00-0000-12.png
00000014,76,0,1441292068238,1441292068701,949,386,0,0,0,4,5,1,45,0004-00-0009-61.png,0005-00-0008-92.png
00000014,77,1,1441292071588,1441292072155,926,409,0,0,0,2,1,1,21,0002-00-0005-76.png,0001-00-0000-81.png
00000014,78,0,1441292073056,1441292073600,876,424,0,0,0,2,3,1,23,0002-00-0009-14.png,0003-00-0000-19.png
00000014,79,0,1441292076708,1441292077217,400,385,0,0,0,3,2,1,32,0003-00-0001-25.png,0002-00-0004-98.png
00000014,80,1,1441292080116,1441292080607,870,472,0,0,0,5,4,1,54,0005-00-0006-90.png,0004-00-0008-57.png
00000014,81,1,1441292081524,1441292082018,912,476,0,0,0,5,4,1,54,0005-00-0009-64.png,0004-00-0000-82.png
00000014,82,0,1441292083042,1441292083509,900,384,0,0,0,2,3,1,23,0002-00-0002-88.png,0003-00-0000-79.png
00000014,83,1,1441292086343,1441292086819,360,386,0,0,0,1,2,1,12,0001-00-0000-15.png,0002-00-0002-86.png
00000014,84,0,1441292087705,1441292088231,926,383,0,0,0,3,4,1,34,0003-00-0009-78.png,0004-00-0003-98.png
00000014,85,0,1441292091202,1441292091632,370,436,0,0,0,3,2,1,32,0003-00-0008-82.png,0002-00-0005-85.png
00000014,86,1,1441292095031,1441292095501,935,392,0,0,0,2,1,1,21,0002-00-0003-42.png,0001-00-0005-27.png
00000014,87,0,1441292096717,1441292097172,875,396,0,0,0,4,5,1,45,0004-00-0005-23.png,0005-00-0001-99.png
00000014,88,0,1441292100260,1441292100650,384,462,0,0,0,4,3,1,43,0004-00-0009-77.png,0003-00-0008-44.png
00000014,89,0,1441292103747,1441292104191,401,410,0,0,0,4,3,1,43,0004-00-0006-92.png,0003-00-0006-03.png
00000014,90,1,1441292107084,1441292107560,356,368,0,0,0,2,3,1,23,0002-00-0005-65.png,0003-00-0009-80.png
00000014,91,1,1441292108566,1441292109051,887,450,0,0,0,2,1,1,21,0002-00-0003-06.png,0001-00-0002-13.png
00000014,92,0,1441292110029,1441292110533,932,390,0,0,0,1,2,1,12,0001-00-0009-61.png,0002-00-0005-89.png
00000014,93,1,1441292113475,1441292113981,900,423,0,0,0,5,4,1,54,0005-00-0002-50.png,0004-00-0004-62.png
00000014,94,0,1441292114878,1441292115407,905,401,0,0,0,4,5,1,45,0004-00-0008-30.png,0005-00-0006-73.png
00000014,95,1,1441292118343,1441292118826,393,401,0,0,0,3,4,1,34,0003-00-0005-94.png,0004-00-0006-68.png
00000014,96,1,1441292120109,1441292120595,902,424,0,0,0,3,2,1,32,0003-00-0006-02.png,0002-00-0008-55.png
00000014,97,0,1441292121575,1441292122034,401,399,0,0,0,4,3,1,43,0004-00-0006-43.png,0003-00-0007-11.png
00000014,98,1,1441292125215,1441292125689,363,410,0,0,0,4,5,1,45,0004-00-0009-75.png,0005-00-0006-43.png
00000014,99,0,1441292126616,1441292127169,878,443,0,0,0,2,3,1,23,0002-00-0001-01.png,0003-00-0005-40.png
00000014,100,1,1441292130203,1441292130613,350,412,0,0,0,3,4,1,34,0003-00-0003-40.png,0004-00-0007-76.png
00000014,101,1,1441292131511,1441292132053,874,383,0,0,0,2,1,1,21,0002-00-0008-27.png,0001-00-0005-37.png
00000014,102,1,1441292133542,1441292134017,912,397,0,0,0,5,4,1,54,0005-00-0008-78.png,0004-00-0000-70.png
00000014,103,0,1441292135107,1441292135574,870,471,0,0,0,1,2,1,12,0001-00-0000-96.png,0002-00-0002-77.png
00000014,104,0,1441292138470,1441292138943,325,384,0,0,0,3,2,1,32,0003-00-0009-79.png,0002-00-0001-29.png
00000014,105,1,1441292141892,1441292141896,501,491,0,0,0,2,3,1,23,0002-00-0000-46.png,0003-00-0001-65.png
00000014,106,0,1441292143300,1441292143789,903,389,0,0,0,1,2,1,12,0001-00-0001-76.png,0002-00-0003-63.png
00000014,107,0,1441292147034,1441292147438,438,406,0,0,0,4,3,1,43,0004-00-0005-82.png,0003-00-0001-34.png
00000014,108,0,1441292150637,1441292151090,914,398,0,0,0,3,4,1,34,0003-00-0001-97.png,0004-00-0006-31.png
00000014,109,0,1441292154083,1441292154581,414,373,0,0,0,5,4,1,54,0005-00-0007-80.png,0004-00-0000-20.png
00000014,110,1,1441292157482,1441292157502,490,332,0,0,0,4,5,1,45,0004-00-0008-24.png,0005-00-0002-31.png
00000014,111,0,1441292158825,1441292159326,339,422,0,0,0,3,2,1,32,0003-00-0003-51.png,0002-00-0003-87.png
00000014,112,1,1441292162273,1441292162851,888,495,0,0,0,2,1,1,21,0002-00-0007-73.png,0001-00-0003-64.png
00000014,113,1,1441292163802,1441292164326,903,452,0,0,0,2,1,1,21,0002-00-0001-36.png,0001-00-0009-54.png
00000014,114,1,1441292165375,1441292165875,325,424,0,0,0,2,3,1,23,0002-00-0006-48.png,0003-00-0007-49.png
00000014,115,0,1441292167045,1441292167527,904,402,0,0,0,1,2,1,12,0001-00-0001-46.png,0002-00-0008-76.png
00000014,116,0,1441292170572,1441292171065,383,426,0,0,0,3,2,1,32,0003-00-0009-63.png,0002-00-0007-71.png
00000014,117,1,1441292174180,1441292174695,376,346,0,0,0,4,5,1,45,0004-00-0001-36.png,0005-00-0002-16.png
00000014,118,1,1441292176007,1441292176508,869,482,0,0,0,4,3,1,43,0004-00-0006-44.png,0003-00-0004-18.png
00000014,119,1,1441292177540,1441292178062,905,402,0,0,0,5,4,1,54,0005-00-0002-73.png,0004-00-0005-82.png
00000014,120,0,1441292179148,1441292179640,921,393,0,0,0,3,4,1,34,0003-00-0007-83.png,0004-00-0009-74.png
00000014,121,1,1441292182459,1441292182943,431,518,0,0,0,2,3,1,23,0002-00-0005-66.png,0003-00-0002-91.png
00000014,122,1,1441292184390,1441292184864,881,489,0,0,0,4,3,1,43,0004-00-0005-92.png,0003-00-0002-53.png
00000014,123,1,1441292185897,1441292186423,925,386,0,0,0,3,2,1,32,0003-00-0002-04.png,0002-00-0003-90.png
00000014,124,1,1441292187487,1441292187976,905,376,0,0,0,5,4,1,54,0005-00-0008-20.png,0004-00-0007-09.png
00000014,125,0,1441292189106,1441292189618,898,459,0,0,0,1,2,1,12,0001-00-0002-20.png,0002-00-0004-56.png
00000014,126,0,1441292192655,1441292193106,362,397,0,0,0,2,1,1,21,0002-00-0006-81.png,0001-00-0000-53.png
00000014,127,1,1441292196561,1441292196993,362,436,0,0,0,3,4,1,34,0003-00-0009-99.png,0004-00-0001-34.png
00000014,128,1,1441292198052,1441292198987,460,393,0,0,0,4,5,1,45,0004-00-0009-23.png,0005-00-0001-34.png
00000014,129,0,1441292200092,1441292200680,925,387,0,0,0,2,3,1,23,0002-00-0002-81.png,0003-00-0003-58.png
00000014,130,1,1441292203774,1441292204249,938,423,0,0,0,3,2,1,32,0003-00-0001-20.png,0002-00-0000-49.png
00000014,131,1,1441292205235,1441292205749,939,412,0,0,0,5,4,1,54,0005-00-0008-76.png,0004-00-0008-23.png
00000014,132,1,1441292206818,1441292207291,915,396,0,0,0,4,3,1,43,0004-00-0009-19.png,0003-00-0000-73.png
00000014,133,1,1441292208287,1441292208830,347,381,0,0,0,4,5,1,45,0004-00-0005-02.png,0005-00-0005-56.png
00000014,134,0,1441292210007,1441292210581,891,360,0,0,0,3,4,1,34,0003-00-0006-87.png,0004-00-0005-78.png
00000014,135,0,1441292213455,1441292213941,876,396,0,0,0,1,2,1,12,0001-00-0009-05.png,0002-00-0004-99.png
00000014,136,0,1441292216764,1441292217205,317,376,0,0,0,2,1,1,21,0002-00-0006-54.png,0001-00-0005-01.png
00000014,137,1,1441292220601,1441292221112,888,412,0,0,0,3,2,1,32,0003-00-0001-02.png,0002-00-0006-79.png
00000014,138,1,1441292222111,1441292222696,938,372,0,0,0,4,3,1,43,0004-00-0002-33.png,0003-00-0000-15.png
00000014,139,0,1441292223727,1441292224231,926,386,0,0,0,3,4,1,34,0003-00-0009-12.png,0004-00-0008-40.png
00000014,140,1,1441292227200,1441292227204,472,418,0,0,0,4,5,1,45,0004-00-0004-22.png,0005-00-0003-25.png
00000014,141,0,1441292228165,1441292228665,900,411,0,0,0,2,3,1,23,0002-00-0001-33.png,0003-00-0003-34.png
00000014,142,1,1441292231771,1441292232297,433,553,0,0,0,1,2,1,12,0001-00-0009-55.png,0002-00-0004-20.png
00000014,143,1,1441292233281,1441292233795,901,476,0,0,0,5,4,1,54,0005-00-0007-16.png,0004-00-0002-15.png
00000014,144,0,1441292234822,1441292235344,317,427,0,0,0,2,1,1,21,0002-00-0001-61.png,0001-00-0007-86.png
00000014,145,1,1441292238289,1441292238301,509,369,0,0,0,3,4,1,34,0003-00-0008-37.png,0004-00-0004-61.png
00000014,146,0,1441292239287,1441292239807,901,476,0,0,0,2,3,1,23,0002-00-0009-72.png,0003-00-0000-13.png
00000014,147,0,1441292242628,1441292243145,913,398,0,0,0,1,2,1,12,0001-00-0004-52.png,0002-00-0002-05.png
00000014,148,1,1441292245990,1441292246510,924,413,0,0,0,2,1,1,21,0002-00-0009-03.png,0001-00-0008-00.png
00000014,149,1,1441292247379,1441292247909,925,411,0,0,0,4,3,1,43,0004-00-0009-83.png,0003-00-0008-34.png
00000014,150,1,1441292248954,1441292249598,273,333,0,0,0,4,5,1,45,0004-00-0004-73.png,0005-00-0000-79.png
00000014,151,0,1441292250815,1441292251299,331,411,0,0,0,3,2,1,32,0003-00-0000-12.png,0002-00-0003-80.png
00000014,152,0,1441292254280,1441292254743,376,423,0,0,0,5,4,1,54,0005-00-0002-72.png,0004-00-0002-24.png
00000014,153,0,1441292257910,1441292258366,316,410,0,0,0,3,2,1,32,0003-00-0000-98.png,0002-00-0004-94.png
00000014,154,1,1441292261204,1441292261224,521,403,0,0,0,1,2,1,12,0001-00-0006-98.png,0002-00-0003-79.png
00000014,155,0,1441292262562,1441292263421,427,396,0,0,0,2,1,1,21,0002-00-0000-60.png,0001-00-0004-29.png
00000014,156,1,1441292266297,1441292266341,510,486,0,0,0,2,3,1,23,0002-00-0003-50.png,0003-00-0005-72.png
00000014,157,1,1441292267273,1441292267763,926,403,0,0,0,4,3,1,43,0004-00-0006-28.png,0003-00-0004-72.png
00000014,158,0,1441292268774,1441292269296,901,384,0,0,0,3,4,1,34,0003-00-0002-57.png,0004-00-0003-22.png
00000014,159,0,1441292272197,1441292272231,463,398,0,0,0,5,4,1,54,0005-00-0004-19.png,0004-00-0007-52.png
00000014,160,1,1441292275431,1441292275902,400,364,0,0,0,4,5,1,45,0004-00-0007-30.png,0005-00-0003-55.png
00000014,161,1,1441292276761,1441292277299,927,398,0,0,0,3,2,1,32,0003-00-0000-39.png,0002-00-0006-83.png
00000014,162,1,1441292278363,1441292278830,376,398,0,0,0,1,2,1,12,0001-00-0009-71.png,0002-00-0004-26.png
00000014,163,0,1441292279882,1441292280396,875,417,0,0,0,3,4,1,34,0003-00-0003-70.png,0004-00-0008-71.png
00000014,164,0,1441292283299,1441292283319,462,390,0,0,0,2,1,1,21,0002-00-0004-33.png,0001-00-0009-12.png
00000014,165,1,1441292286458,1441292287039,870,368,0,0,0,5,4,1,54,0005-00-0009-87.png,0004-00-0002-71.png
00000014,166,0,1441292287953,1441292288506,922,394,0,0,0,4,5,1,45,0004-00-0007-71.png,0005-00-0009-04.png
00000014,167,0,1441292291444,1441292291958,348,423,0,0,0,4,3,1,43,0004-00-0007-26.png,0003-00-0008-91.png
00000014,168,1,1441292294799,1441292295262,317,395,0,0,0,2,3,1,23,0002-00-0008-93.png,0003-00-0001-93.png
00000014,169,1,1441292296172,1441292296699,926,424,0,0,0,3,2,1,32,0003-00-0001-39.png,0002-00-0000-23.png
00000014,170,0,1441292297713,1441292298246,874,386,0,0,0,4,5,1,45,0004-00-0003-57.png,0005-00-0003-33.png
00000014,171,1,1441292301286,1441292301744,376,522,0,0,0,1,2,1,12,0001-00-0003-12.png,0002-00-0003-22.png
00000014,172,1,1441292302672,1441292302688,504,473,0,0,0,3,4,1,34,0003-00-0003-89.png,0004-00-0003-50.png
00000014,173,1,1441292303960,1441292304447,335,405,0,0,0,2,3,1,23,0002-00-0007-68.png,0003-00-0008-50.png
00000014,174,1,1441292305595,1441292306085,879,401,0,0,0,5,4,1,54,0005-00-0001-59.png,0004-00-0009-35.png
00000014,175,1,1441292307164,1441292307696,891,439,0,0,0,4,3,1,43,0004-00-0008-87.png,0003-00-0005-66.png
00000014,176,1,1441292308684,1441292309776,935,380,0,0,0,2,1,1,21,0002-00-0006-39.png,0001-00-0009-03.png
00000014,177,1,1441292310791,1441292311309,889,397,0,0,0,4,3,1,43,0004-00-0009-85.png,0003-00-0005-61.png
00000014,178,0,1441292312360,1441292312840,875,476,0,0,0,2,3,1,23,0002-00-0008-59.png,0003-00-0003-52.png
00000014,179,1,1441292315749,1441292316231,926,437,0,0,0,2,1,1,21,0002-00-0005-58.png,0001-00-0006-62.png
00000014,180,1,1441292317163,1441292317605,412,424,0,0,0,3,4,1,34,0003-00-0002-57.png,0004-00-0009-22.png
00000014,181,1,1441292318722,1441292319219,905,402,0,0,0,5,4,1,54,0005-00-0007-49.png,0004-00-0006-55.png
00000014,182,1,1441292320341,1441292320951,882,500,0,0,0,3,2,1,32,0003-00-0009-42.png,0002-00-0007-56.png
00000014,183,0,1441292322013,1441292322570,900,412,0,0,0,1,2,1,12,0001-00-0000-89.png,0002-00-0004-91.png
00000014,184,1,1441292325677,1441292326143,325,421,0,0,0,4,5,1,45,0004-00-0007-71.png,0005-00-0006-31.png
00000014,185,1,1441292327484,1441292327993,893,402,0,0,0,5,4,1,54,0005-00-0004-45.png,0004-00-0001-20.png
00000014,186,0,1441292328978,1441292329502,922,394,0,0,0,3,4,1,34,0003-00-0009-62.png,0004-00-0006-86.png
00000014,187,1,1441292332474,1441292332917,391,428,0,0,0,4,5,1,45,0004-00-0002-46.png,0005-00-0009-17.png
00000014,188,0,1441292334255,1441292334708,336,398,0,0,0,4,3,1,43,0004-00-0009-80.png,0003-00-0008-42.png
00000014,189,1,1441292337643,1441292338082,376,358,0,0,0,2,3,1,23,0002-00-0000-19.png,0003-00-0007-81.png
00000014,190,0,1441292338942,1441292338958,504,478,0,0,0,3,2,1,32,0003-00-0006-85.png,0002-00-0009-98.png
00000014,191,0,1441292341897,1441292342514,900,397,0,0,0,1,2,1,12,0001-00-0001-72.png,0002-00-0000-79.png
00000014,192,0,1441292345564,1441292345596,516,459,0,0,0,2,1,1,21,0002-00-0007-65.png,0001-00-0009-45.png
00000014,193,1,1441292348675,1441292349122,282,392,0,0,0,2,3,1,23,0002-00-0003-08.png,0003-00-0008-73.png
00000014,194,1,1441292350085,1441292350568,938,398,0,0,0,3,2,1,32,0003-00-0005-81.png,0002-00-0004-69.png
00000014,195,1,1441292351615,1441292352130,862,475,0,0,0,5,4,1,54,0005-00-0000-96.png,0004-00-0008-89.png
00000014,196,1,1441292353097,1441292353634,899,483,0,0,0,2,1,1,21,0002-00-0003-95.png,0001-00-0006-38.png
00000014,197,0,1441292354705,1441292355195,901,410,0,0,0,4,5,1,45,0004-00-0005-48.png,0005-00-0001-35.png
00000014,198,0,1441292358618,1441292359051,432,431,0,0,0,4,3,1,43,0004-00-0007-59.png,0003-00-0008-73.png
00000014,199,1,1441292362377,1441292362802,248,436,0,0,0,3,4,1,34,0003-00-0004-49.png,0004-00-0006-96.png
00000014,200,0,1441292363741,1441292364227,905,401,0,0,0,1,2,1,12,0001-00-0004-29.png,0002-00-0000-76.png
00000014,201,1,1441292367210,1441292367708,363,397,0,0,0,2,3,1,23,0002-00-0000-08.png,0003-00-0009-17.png
00000014,202,1,1441292368699,1441292369246,907,388,0,0,0,5,4,1,54,0005-00-0009-47.png,0004-00-0002-12.png
00000014,203,1,1441292370218,1441292370733,895,414,0,0,0,3,2,1,32,0003-00-0009-73.png,0002-00-0001-63.png
00000014,204,0,1441292371740,1441292372243,903,390,0,0,0,4,5,1,45,0004-00-0009-42.png,0005-00-0001-18.png
00000014,205,1,1441292375155,1441292375183,519,450,0,0,0,3,4,1,34,0003-00-0005-83.png,0004-00-0003-41.png
00000014,206,0,1441292376180,1441292376662,337,410,0,0,0,4,3,1,43,0004-00-0001-79.png,0003-00-0001-03.png
00000014,207,1,1441292379561,1441292379585,512,440,0,0,0,1,2,1,12,0001-00-0009-36.png,0002-00-0003-38.png
00000014,208,1,1441292380546,1441292381052,894,442,0,0,0,2,1,1,21,0002-00-0002-45.png,0001-00-0006-43.png
00000014,209,0,1441292382107,1441292382611,878,415,0,0,0,3,4,1,34,0003-00-0004-69.png,0004-00-0009-46.png
00000014,210,0,1441292385462,1441292385948,323,386,0,0,0,3,2,1,32,0003-00-0006-94.png,0002-00-0004-67.png
00000014,211,1,1441292388940,1441292389458,325,371,0,0,0,1,2,1,12,0001-00-0003-23.png,0002-00-0009-06.png
00000014,212,1,1441292390415,1441292390927,880,505,0,0,0,2,1,1,21,0002-00-0009-34.png,0001-00-0004-19.png
00000014,213,1,1441292391925,1441292392468,880,401,0,0,0,5,4,1,54,0005-00-0008-07.png,0004-00-0001-13.png
00000014,214,0,1441292393385,1441292393931,914,414,0,0,0,2,3,1,23,0002-00-0005-53.png,0003-00-0004-11.png
00000014,215,1,1441292396802,1441292396838,514,513,0,0,0,4,5,1,45,0004-00-0002-74.png,0005-00-0000-55.png
00000014,216,0,1441292398236,1441292398709,401,384,0,0,0,4,3,1,43,0004-00-0006-95.png,0003-00-0000-54.png
00000014,217,0,1441292401834,1441292402299,896,420,0,0,0,2,3,1,23,0002-00-0009-84.png,0003-00-0002-15.png
00000014,218,0,1441292405386,1441292405773,391,444,0,0,0,3,2,1,32,0003-00-0006-87.png,0002-00-0009-53.png
00000014,219,0,1441292408617,1441292409030,316,436,0,0,0,4,3,1,43,0004-00-0005-71.png,0003-00-0004-81.png
00000014,220,1,1441292412369,1441292412839,312,397,0,0,0,3,4,1,34,0003-00-0009-35.png,0004-00-0000-61.png
00000014,221,0,1441292413682,1441292414230,930,401,0,0,0,1,2,1,12,0001-00-0002-19.png,0002-00-0005-46.png
00000014,222,1,1441292417074,1441292417583,401,423,0,0,0,4,5,1,45,0004-00-0008-27.png,0005-00-0008-18.png
00000014,223,1,1441292418436,1441292418984,879,480,0,0,0,5,4,1,54,0005-00-0002-23.png,0004-00-0004-33.png
00000014,224,1,1441292419962,1441292420486,920,429,0,0,0,2,1,1,21,0002-00-0009-69.png,0001-00-0005-14.png
00000014,225,0,1441292421540,1441292422052,913,398,0,0,0,1,2,1,12,0001-00-0003-04.png,0002-00-0000-34.png
00000014,226,0,1441292425079,1441292425123,505,509,0,0,0,4,3,1,43,0004-00-0006-09.png,0003-00-0009-58.png
00000014,227,0,1441292428000,1441292428436,373,410,0,0,0,5,4,1,54,0005-00-0000-50.png,0004-00-0007-55.png
00000014,228,0,1441292431509,1441292432013,919,440,0,0,0,3,4,1,34,0003-00-0003-20.png,0004-00-0007-74.png
00000014,229,0,1441292435125,1441292435619,927,422,0,0,0,2,3,1,23,0002-00-0008-40.png,0003-00-0000-91.png
00000014,230,0,1441292438514,1441292438522,493,389,0,0,0,2,1,1,21,0002-00-0004-84.png,0001-00-0007-47.png
00000014,231,1,1441292441446,1441292441458,497,393,0,0,0,4,5,1,45,0004-00-0009-26.png,0005-00-0004-70.png
00000014,232,1,1441292442315,1441292442864,874,397,0,0,0,3,2,1,32,0003-00-0008-62.png,0002-00-0005-99.png
00000014,233,0,1441292443876,1441292444376,900,398,0,0,0,3,4,1,34,0003-00-0009-55.png,0004-00-0004-88.png
00000014,234,0,1441292447519,1441292448014,872,397,0,0,0,4,5,1,45,0004-00-0008-46.png,0005-00-0003-67.png
00000014,235,0,1441292450903,1441292451338,358,402,0,0,0,2,1,1,21,0002-00-0005-17.png,0001-00-0008-53.png
00000014,236,0,1441292454606,1441292455174,396,504,0,0,0,5,4,1,54,0005-00-0005-41.png,0004-00-0000-03.png
00000014,237,1,1441292458257,1441292458775,384,394,0,0,0,2,3,1,23,0002-00-0009-10.png,0003-00-0002-97.png
00000014,238,1,1441292459630,1441292460156,325,409,0,0,0,1,2,1,12,0001-00-0003-54.png,0002-00-0000-54.png
00000014,239,1,1441292461114,1441292461636,901,383,0,0,0,3,2,1,32,0003-00-0008-84.png,0002-00-0003-96.png
00000014,240,1,1441292463037,1441292463531,902,467,0,0,0,4,3,1,43,0004-00-0000-11.png,0003-00-0006-18.png
00000014,241,1,1441292464544,1441292465055,887,398,0,0,0,3,2,1,32,0003-00-0000-06.png,0002-00-0009-69.png
00000014,242,1,1441292466114,1441292466637,875,384,0,0,0,5,4,1,54,0005-00-0008-74.png,0004-00-0008-91.png
00000014,243,1,1441292467650,1441292468168,900,409,0,0,0,4,3,1,43,0004-00-0000-90.png,0003-00-0005-29.png
00000014,244,1,1441292469190,1441292469632,321,398,0,0,0,4,5,1,45,0004-00-0004-68.png,0005-00-0001-71.png
00000014,245,1,1441292470652,1441292471145,404,398,0,0,0,1,2,1,12,0001-00-0000-96.png,0002-00-0006-72.png
00000014,246,0,1441292472255,1441292472780,875,424,0,0,0,2,3,1,23,0002-00-0007-62.png,0003-00-0007-65.png
00000014,247,1,1441292475664,1441292476203,411,528,0,0,0,3,4,1,34,0003-00-0002-45.png,0004-00-0005-08.png
00000014,248,0,1441292477206,1441292477695,337,378,0,0,0,2,1,1,21,0002-00-0001-23.png,0001-00-0006-06.png
00000014,249,0,1441292480778,1441292480823,510,495,0,0,0,4,3,1,43,0004-00-0000-68.png,0003-00-0009-69.png
00000014,250,0,1441292483721,1441292483733,504,371,0,0,0,3,2,1,32,0003-00-0002-89.png,0002-00-0002-31.png
00000014,251,0,1441292487610,1441292488109,920,458,0,0,0,3,4,1,34,0003-00-0009-13.png,0004-00-0008-19.png
00000014,252,1,1441292491116,1441292491140,510,438,0,0,0,2,3,1,23,0002-00-0008-35.png,0003-00-0005-57.png
00000014,253,1,1441292492067,1441292492554,889,397,0,0,0,2,1,1,21,0002-00-0002-88.png,0001-00-0005-90.png
00000014,254,0,1441292493502,1441292493993,248,436,0,0,0,5,4,1,54,0005-00-0008-43.png,0004-00-0007-45.png
00000014,255,1,1441292497187,1441292497614,347,366,0,0,0,4,5,1,45,0004-00-0005-15.png,0005-00-0005-75.png
00000014,256,1,1441292498679,1441292499123,330,395,0,0,0,1,2,1,12,0001-00-0005-09.png,0002-00-0000-84.png
00000014,257,1,1441292500171,1441292500748,896,496,0,0,0,3,2,1,32,0003-00-0006-54.png,0002-00-0002-93.png
00000014,258,0,1441292502216,1441292502698,365,494,0,0,0,4,3,1,43,0004-00-0006-83.png,0003-00-0008-49.png
00000014,259,0,1441292505564,1441292506110,900,501,0,0,0,1,2,1,12,0001-00-0000-37.png,0002-00-0005-89.png
00000014,260,1,1441292509263,1441292509807,926,411,0,0,0,5,4,1,54,0005-00-0005-66.png,0004-00-0008-44.png
00000014,261,0,1441292510715,1441292511226,861,502,0,0,0,3,4,1,34,0003-00-0008-86.png,0004-00-0004-07.png
00000014,262,1,1441292514172,1441292514695,926,410,0,0,0,2,1,1,21,0002-00-0007-85.png,0001-00-0006-74.png
00000014,263,1,1441292515632,1441292516475,359,406,0,0,0,4,5,1,45,0004-00-0008-85.png,0005-00-0001-48.png
00000014,264,0,1441292517309,1441292517922,861,482,0,0,0,2,3,1,23,0002-00-0001-58.png,0003-00-0000-57.png
00000014,265,0,1441292521080,1441292521643,963,424,0,0,0,2,3,1,23,0002-00-0009-90.png,0003-00-0009-40.png
00000014,266,1,1441292524506,1441292524953,334,401,0,0,0,3,4,1,34,0003-00-0008-80.png,0004-00-0008-75.png
00000014,267,0,1441292525889,1441292526380,350,436,0,0,0,4,3,1,43,0004-00-0002-59.png,0003-00-0001-64.png
00000014,268,0,1441292529526,1441292530002,401,410,0,0,0,2,1,1,21,0002-00-0009-99.png,0001-00-0001-68.png
00000014,269,0,1441292532967,1441292533520,417,496,0,0,0,3,2,1,32,0003-00-0003-81.png,0002-00-0008-20.png
00000014,270,0,1441292537078,1441292537146,514,518,0,0,0,5,4,1,54,0005-00-0007-90.png,0004-00-0006-78.png
00000014,271,1,1441292540229,1441292540688,420,412,0,0,0,1,2,1,12,0001-00-0003-97.png,0002-00-0008-42.png
00000014,272,0,1441292541571,1441292542142,900,385,0,0,0,4,5,1,45,0004-00-0006-01.png,0005-00-0006-73.png
00000014,273,1,1441292545048,1441292545493,418,402,0,0,0,1,2,1,12,0001-00-0000-13.png,0002-00-0004-34.png
00000014,274,0,1441292546686,1441292547217,875,397,0,0,0,4,5,1,45,0004-00-0002-61.png,0005-00-0009-78.png
00000014,275,0,1441292550224,1441292550252,513,391,0,0,0,4,3,1,43,0004-00-0007-93.png,0003-00-0006-48.png
00000014,276,0,1441292553269,1441292553694,413,438,0,0,0,5,4,1,54,0005-00-0006-06.png,0004-00-0000-01.png
00000014,277,0,1441292558326,1441292558785,363,397,0,0,0,2,1,1,21,0002-00-0001-43.png,0001-00-0006-36.png
00000014,278,1,1441292561716,1441292562192,367,535,0,0,0,3,4,1,34,0003-00-0008-20.png,0004-00-0000-09.png
00000014,279,1,1441292563053,1441292563635,340,381,0,0,0,2,3,1,23,0002-00-0003-00.png,0003-00-0002-10.png
00000014,280,1,1441292564581,1441292565113,877,415,0,0,0,3,2,1,32,0003-00-0007-27.png,0002-00-0009-99.png
00000014,281,0,1441292566061,1441292566567,896,394,0,0,0,3,4,1,34,0003-00-0005-60.png,0004-00-0005-05.png
00000014,282,0,1441292569548,1441292569564,488,433,0,0,0,4,3,1,43,0004-00-0000-03.png,0003-00-0002-25.png
00000014,283,0,1441292572679,1441292573171,328,391,0,0,0,2,1,1,21,0002-00-0007-19.png,0001-00-0005-47.png
00000014,284,0,1441292576265,1441292576770,421,390,0,0,0,3,2,1,32,0003-00-0000-82.png,0002-00-0009-42.png
00000014,285,1,1441292579751,1441292580316,875,502,0,0,0,5,4,1,54,0005-00-0006-66.png,0004-00-0009-96.png
00000014,286,1,1441292581168,1441292581716,253,479,0,0,0,1,2,1,12,0001-00-0003-01.png,0002-00-0004-13.png
00000014,287,0,1441292582666,1441292583232,878,416,0,0,0,2,3,1,23,0002-00-0002-21.png,0003-00-0000-06.png
00000014,288,1,1441292586313,1441292586722,388,436,0,0,0,4,5,1,45,0004-00-0003-18.png,0005-00-0002-84.png
00000014,289,1,1441292587592,1441292588086,866,402,0,0,0,2,1,1,21,0002-00-0005-85.png,0001-00-0000-24.png
00000014,290,0,1441292589097,1441292589556,926,397,0,0,0,4,5,1,45,0004-00-0005-11.png,0005-00-0002-48.png
00000014,291,0,1441292592495,1441292593005,900,489,0,0,0,1,2,1,12,0001-00-0009-37.png,0002-00-0007-88.png
00000014,292,0,1441292596199,1441292596227,494,473,0,0,0,5,4,1,54,0005-00-0002-33.png,0004-00-0005-93.png
00000014,293,1,1441292599213,1441292599217,498,452,0,0,0,2,3,1,23,0002-00-0004-86.png,0003-00-0009-28.png
00000014,294,0,1441292600166,1441292600653,376,384,0,0,0,3,2,1,32,0003-00-0002-94.png,0002-00-0009-84.png
00000014,295,1,1441292603565,1441292604017,353,396,0,0,0,3,4,1,34,0003-00-0007-70.png,0004-00-0007-07.png
00000014,296,0,1441292604896,1441292605506,350,397,0,0,0,4,3,1,43,0004-00-0002-70.png,0003-00-0005-36.png
00000014,297,0,1441292608436,1441292608452,510,444,0,0,0,5,4,1,54,0005-00-0005-90.png,0004-00-0004-62.png
00000014,298,1,1441292611443,1441292611471,485,454,0,0,0,4,5,1,45,0004-00-0005-49.png,0005-00-0009-29.png
00000014,299,1,1441292612809,1441292613262,438,422,0,0,0,2,3,1,23,0002-00-0009-01.png,0003-00-0007-03.png
00000014,300,0,1441292614235,1441292614764,886,398,0,0,0,3,4,1,34,0003-00-0006-31.png,0004-00-0001-45.png
00000014,301,0,1441292617737,1441292618178,401,396,0,0,0,4,3,1,43,0004-00-0002-48.png,0003-00-0009-54.png
00000014,302,0,1441292621163,1441292621187,515,450,0,0,0,3,2,1,32,0003-00-0006-85.png,0002-00-0008-76.png
00000014,303,1,1441292624066,1441292624089,492,390,0,0,0,1,2,1,12,0001-00-0004-24.png,0002-00-0004-31.png
00000014,304,0,1441292624992,1441292625504,361,416,0,0,0,2,1,1,21,0002-00-0002-71.png,0001-00-0002-29.png
00000014,305,0,1441292628460,1441292628484,473,478,0,0,0,3,2,1,32,0003-00-0006-78.png,0002-00-0009-12.png
00000014,306,1,1441292631599,1441292632011,335,384,0,0,0,3,4,1,34,0003-00-0000-07.png,0004-00-0003-80.png
00000014,307,1,1441292632880,1441292633335,358,393,0,0,0,1,2,1,12,0001-00-0006-69.png,0002-00-0007-53.png
00000014,308,1,1441292634401,1441292634873,875,488,0,0,0,5,4,1,54,0005-00-0005-89.png,0004-00-0004-93.png
00000014,309,0,1441292635912,1441292636411,896,394,0,0,0,4,5,1,45,0004-00-0002-79.png,0005-00-0000-10.png
00000014,310,0,1441292639451,1441292639873,388,437,0,0,0,4,3,1,43,0004-00-0006-41.png,0003-00-0004-94.png
00000014,311,1,1441292642930,1441292643378,359,415,0,0,0,2,3,1,23,0002-00-0005-05.png,0003-00-0005-99.png
00000014,312,1,1441292644376,1441292645341,938,398,0,0,0,2,1,1,21,0002-00-0007-55.png,0001-00-0009-29.png
00000014,313,1,1441292646359,1441292646928,937,424,0,0,0,3,2,1,32,0003-00-0005-99.png,0002-00-0004-32.png
00000014,314,1,1441292647936,1441292648439,333,495,0,0,0,2,3,1,23,0002-00-0006-71.png,0003-00-0002-20.png
00000014,315,0,1441292649539,1441292650030,237,488,0,0,0,2,1,1,21,0002-00-0000-52.png,0001-00-0003-43.png
00000014,316,1,1441292653094,1441292653548,887,424,0,0,0,5,4,1,54,0005-00-0005-51.png,0004-00-0008-63.png
00000014,317,1,1441292654779,1441292655291,865,493,0,0,0,4,3,1,43,0004-00-0001-63.png,0003-00-0004-89.png
00000014,318,1,1441292656355,1441292656785,335,387,0,0,0,3,4,1,34,0003-00-0008-11.png,0004-00-0005-21.png
00000014,319,1,1441292657798,1441292658331,337,393,0,0,0,4,5,1,45,0004-00-0000-66.png,0005-00-0002-95.png
00000014,320,1,1441292659427,1441292660408,314,440,0,0,0,1,2,1,12,0001-00-0000-03.png,0002-00-0007-37.png
00000014,321,1,1441292661454,1441292661940,863,449,0,0,0,3,2,1,32,0003-00-0007-92.png,0002-00-0000-19.png
00000014,322,1,1441292662984,1441292663442,376,433,0,0,0,1,2,1,12,0001-00-0002-17.png,0002-00-0009-47.png
00000014,323,1,1441292664476,1441292664981,884,418,0,0,0,5,4,1,54,0005-00-0008-35.png,0004-00-0008-05.png
00000014,324,0,1441292666025,1441292666539,875,423,0,0,0,4,5,1,45,0004-00-0006-69.png,0005-00-0002-54.png
00000014,325,1,1441292669701,1441292670253,901,359,0,0,0,2,1,1,21,0002-00-0008-34.png,0001-00-0004-82.png
00000014,326,1,1441292671225,1441292671726,875,487,0,0,0,4,3,1,43,0004-00-0007-49.png,0003-00-0006-75.png
00000014,327,1,1441292672705,1441292673215,345,409,0,0,0,2,3,1,23,0002-00-0004-08.png,0003-00-0008-08.png
00000014,328,0,1441292674254,1441292674734,896,420,0,0,0,3,4,1,34,0003-00-0009-84.png,0004-00-0004-41.png
00000014,329,1,1441292677790,1441292678343,900,387,0,0,0,4,3,1,43,0004-00-0005-44.png,0003-00-0000-16.png
00000014,330,0,1441292679684,1441292680141,875,411,0,0,0,4,5,1,45,0004-00-0001-40.png,0005-00-0003-38.png
00000014,331,0,1441292683024,1441292683554,385,485,0,0,0,5,4,1,54,0005-00-0004-72.png,0004-00-0000-20.png
00000014,332,1,1441292686518,1441292686550,504,514,0,0,0,1,2,1,12,0001-00-0007-33.png,0002-00-0004-41.png
00000014,333,1,1441292688038,1441292688493,384,420,0,0,0,2,3,1,23,0002-00-0002-37.png,0003-00-0005-44.png
00000014,334,1,1441292689467,1441292689974,860,418,0,0,0,3,2,1,32,0003-00-0004-67.png,0002-00-0000-33.png
00000014,335,0,1441292690999,1441292691537,875,423,0,0,0,3,4,1,34,0003-00-0005-97.png,0004-00-0006-10.png
00000014,336,1,1441292694605,1441292695067,875,397,0,0,0,2,1,1,21,0002-00-0000-36.png,0001-00-0004-68.png
00000014,337,0,1441292696008,1441292696522,875,423,0,0,0,4,5,1,45,0004-00-0008-58.png,0005-00-0003-28.png
00000014,338,1,1441292699503,1441292699511,514,400,0,0,0,1,2,1,12,0001-00-0004-61.png,0002-00-0001-01.png
00000014,339,1,1441292700497,1441292700973,870,394,0,0,0,2,1,1,21,0002-00-0004-78.png,0001-00-0007-19.png
00000014,340,1,1441292701960,1441292702485,912,398,0,0,0,3,2,1,32,0003-00-0006-25.png,0002-00-0002-53.png
00000014,341,0,1441292703522,1441292704003,877,415,0,0,0,3,4,1,34,0003-00-0003-63.png,0004-00-0000-05.png
00000014,342,1,1441292706825,1441292707264,350,410,0,0,0,2,3,1,23,0002-00-0002-57.png,0003-00-0005-99.png
00000014,343,0,1441292708336,1441292708808,299,398,0,0,0,5,4,1,54,0005-00-0004-26.png,0004-00-0005-93.png
00000014,344,0,1441292711858,1441292712345,344,434,0,0,0,4,3,1,43,0004-00-0003-41.png,0003-00-0001-33.png
00000014,345,1,1441292715325,1441292715329,496,494,0,0,0,1,2,1,12,0001-00-0007-51.png,0002-00-0008-80.png
00000014,346,1,1441292716282,1441292716745,898,431,0,0,0,5,4,1,54,0005-00-0001-35.png,0004-00-0005-66.png
00000014,347,1,1441292717746,1441292718262,888,421,0,0,0,3,2,1,32,0003-00-0006-50.png,0002-00-0004-74.png
00000014,348,0,1441292719242,1441292719761,880,402,0,0,0,3,4,1,34,0003-00-0009-49.png,0004-00-0006-88.png
00000014,349,0,1441292722809,1441292723279,370,413,0,0,0,4,3,1,43,0004-00-0001-73.png,0003-00-0008-12.png
00000014,350,0,1441292726102,1441292726593,368,506,0,0,0,2,1,1,21,0002-00-0009-03.png,0001-00-0004-36.png
00000014,351,1,1441292729466,1441292729502,489,495,0,0,0,2,3,1,23,0002-00-0009-75.png,0003-00-0001-46.png
00000014,352,1,1441292730651,1441292731117,358,427,0,0,0,4,5,1,45,0004-00-0004-73.png,0005-00-0005-01.png
00000014,353,1,1441292732187,1441292732688,879,428,0,0,0,5,4,1,54,0005-00-0004-58.png,0004-00-0000-38.png
00000014,354,0,1441292733682,1441292734184,876,408,0,0,0,3,4,1,34,0003-00-0002-38.png,0004-00-0002-74.png
00000014,355,0,1441292737227,1441292737663,415,462,0,0,0,2,1,1,21,0002-00-0003-23.png,0001-00-0002-12.png
00000014,356,1,1441292740520,1441292741016,325,424,0,0,0,2,3,1,23,0002-00-0003-45.png,0003-00-0004-90.png
00000014,357,0,1441292741980,1441292742463,467,443,0,0,0,4,3,1,43,0004-00-0008-65.png,0003-00-0006-06.png
00000014,358,1,1441292745468,1441292745488,495,429,0,0,0,1,2,1,12,0001-00-0001-72.png,0002-00-0006-23.png
00000014,359,1,1441292746819,1441292747320,901,411,0,0,0,3,2,1,32,0003-00-0003-26.png,0002-00-0007-21.png
00000014,360,0,1441292748291,1441292748765,874,490,0,0,0,4,5,1,45,0004-00-0008-79.png,0005-00-0003-77.png
00000014,361,1,1441292751677,1441292752177,879,547,0,0,0,2,1,1,21,0002-00-0005-25.png,0001-00-0007-44.png
00000014,362,0,1441292753009,1441292753540,388,400,0,0,0,4,3,1,43,0004-00-0002-58.png,0003-00-0003-79.png
00000014,363,1,1441292756436,1441292756448,510,409,0,0,0,4,5,1,45,0004-00-0001-14.png,0005-00-0007-27.png
00000014,364,1,1441292757332,1441292757830,344,425,0,0,0,1,2,1,12,0001-00-0005-42.png,0002-00-0009-82.png
00000014,365,0,1441292758888,1441292759378,892,475,0,0,0,3,4,1,34,0003-00-0003-43.png,0004-00-0000-15.png
00000014,366,1,1441292762337,1441292762913,949,405,0,0,0,5,4,1,54,0005-00-0009-44.png,0004-00-0009-66.png
00000014,367,0,1441292763805,1441292763821,478,449,0,0,0,3,2,1,32,0003-00-0009-38.png,0002-00-0000-42.png
00000014,368,1,1441292766675,1441292766683,504,427,0,0,0,2,3,1,23,0002-00-0004-17.png,0003-00-0000-50.png
00000014,369,1,1441292767721,1441292768184,353,359,0,0,0,2,3,1,23,0002-00-0008-26.png,0003-00-0004-50.png
00000014,370,1,1441292769181,1441292769677,877,440,0,0,0,2,1,1,21,0002-00-0003-92.png,0001-00-0004-15.png
00000014,371,1,1441292770672,1441292771198,864,504,0,0,0,3,2,1,32,0003-00-0002-01.png,0002-00-0005-26.png
00000014,372,0,1441292772261,1441292772760,896,420,0,0,0,3,4,1,34,0003-00-0000-31.png,0004-00-0007-94.png
00000014,373,0,1441292775639,1441292775651,504,394,0,0,0,5,4,1,54,0005-00-0009-55.png,0004-00-0004-86.png
00000014,374,1,1441292778641,1441292778649,458,467,0,0,0,4,5,1,45,0004-00-0009-80.png,0005-00-0001-64.png
00000014,375,0,1441292779585,1441292780087,900,436,0,0,0,1,2,1,12,0001-00-0003-59.png,0002-00-0004-43.png
00000014,376,0,1441292782923,1441292782947,510,438,0,0,0,4,3,1,43,0004-00-0003-37.png,0003-00-0004-68.png
00000014,377,1,1441292786247,1441292786691,423,428,0,0,0,1,2,1,12,0001-00-0000-32.png,0002-00-0004-91.png
00000014,378,0,1441292787532,1441292787584,478,462,0,0,0,3,2,1,32,0003-00-0001-55.png,0002-00-0001-58.png
00000014,379,0,1441292790538,1441292790606,516,520,0,0,0,5,4,1,54,0005-00-0001-14.png,0004-00-0004-99.png
00000014,380,0,1441292793518,1441292793538,473,423,0,0,0,4,3,1,43,0004-00-0006-02.png,0003-00-0009-30.png
00000014,381,1,1441292796472,1441292796488,517,414,0,0,0,4,5,1,45,0004-00-0004-37.png,0005-00-0006-26.png
00000014,382,0,1441292797763,1441292798709,926,411,0,0,0,2,3,1,23,0002-00-0006-70.png,0003-00-0000-88.png
00000014,383,0,1441292801736,1441292802320,927,410,0,0,0,3,4,1,34,0003-00-0006-67.png,0004-00-0006-15.png
00000014,384,0,1441292805255,1441292805283,523,453,0,0,0,2,1,1,21,0002-00-0004-61.png,0001-00-0004-79.png
00000014,385,0,1441292808209,1441292808229,516,400,0,0,0,3,2,1,32,0003-00-0001-10.png,0002-00-0005-10.png
00000014,386,1,1441292811312,1441292811814,350,412,0,0,0,3,4,1,34,0003-00-0005-90.png,0004-00-0007-11.png
00000014,387,1,1441292812743,1441292813243,874,501,0,0,0,5,4,1,54,0005-00-0005-25.png,0004-00-0007-64.png
00000014,388,0,1441292814282,1441292814796,874,411,0,0,0,4,5,1,45,0004-00-0007-99.png,0005-00-0009-24.png
00000014,389,0,1441292817937,1441292818337,338,398,0,0,0,2,1,1,21,0002-00-0002-37.png,0001-00-0006-11.png
00000014,390,1,1441292821386,1441292821430,479,462,0,0,0,2,3,1,23,0002-00-0007-52.png,0003-00-0001-55.png
00000014,391,1,1441292822371,1441292822955,380,350,0,0,0,1,2,1,12,0001-00-0007-78.png,0002-00-0003-28.png
00000014,392,0,1441292823923,1441292824394,361,501,0,0,0,4,3,1,43,0004-00-0005-91.png,0003-00-0007-66.png
00000014,393,0,1441292827300,1441292827772,903,417,0,0,0,4,5,1,45,0004-00-0002-98.png,0005-00-0003-38.png
00000014,394,1,1441292830817,1441292831477,894,482,0,0,0,5,4,1,54,0005-00-0007-11.png,0004-00-0000-75.png
00000014,395,1,1441292832326,1441292832844,874,501,0,0,0,3,2,1,32,0003-00-0002-42.png,0002-00-0002-52.png
00000014,396,1,1441292833851,1441292834345,893,484,0,0,0,4,3,1,43,0004-00-0007-11.png,0003-00-0006-30.png
00000014,397,0,1441292835352,1441292835847,875,398,0,0,0,3,4,1,34,0003-00-0007-37.png,0004-00-0001-53.png
00000014,398,1,1441292839121,1441292839588,926,423,0,0,0,2,1,1,21,0002-00-0006-79.png,0001-00-0000-98.png
00000014,399,0,1441292840548,1441292841051,900,423,0,0,0,1,2,1,12,0001-00-0007-84.png,0002-00-0009-48.png
00000014,400,1,1441292844145,1441292844589,391,419,0,0,0,2,3,1,23,0002-00-0003-10.png,0003-00-0007-10.png
00000014,401,1,1441292845476,1441292846006,888,397,0,0,0,2,1,1,21,0002-00-0004-02.png,0001-00-0006-16.png
00000014,402,1,1441292846998,1441292847493,921,394,0,0,0,5,4,1,54,0005-00-0005-68.png,0004-00-0005-47.png
00000014,403,1,1441292848509,1441292848529,504,446,0,0,0,2,3,1,23,0002-00-0001-19.png,0003-00-0002-80.png
00000014,404,1,1441292849600,1441292850094,349,386,0,0,0,4,5,1,45,0004-00-0001-27.png,0005-00-0009-26.png
00000014,405,0,1441292851082,1441292851556,875,481,0,0,0,1,2,1,12,0001-00-0000-95.png,0002-00-0004-01.png
00000014,406,0,1441292854398,1441292854410,520,440,0,0,0,3,2,1,32,0003-00-0004-63.png,0002-00-0004-51.png
00000014,407,1,1441292857383,1441292857828,366,415,0,0,0,3,4,1,34,0003-00-0007-95.png,0004-00-0007-45.png
00000014,408,1,1441292858746,1441292859228,880,507,0,0,0,4,3,1,43,0004-00-0007-67.png,0003-00-0001-62.png
00000014,409,0,1441292860238,1441292860732,889,429,0,0,0,2,3,1,23,0002-00-0008-00.png,0003-00-0005-20.png
00000014,410,1,1441292863721,1441292864250,955,402,0,0,0,2,1,1,21,0002-00-0008-18.png,0001-00-0005-43.png
00000014,411,1,1441292865072,1441292865617,915,423,0,0,0,5,4,1,54,0005-00-0001-50.png,0004-00-0001-86.png
00000014,412,0,1441292866587,1441292867067,339,390,0,0,0,3,2,1,32,0003-00-0000-82.png,0002-00-0008-44.png
00000014,413,1,1441292870182,1441292870596,350,396,0,0,0,4,5,1,45,0004-00-0005-65.png,0005-00-0007-64.png
00000014,414,1,1441292871854,1441292872315,401,423,0,0,0,3,4,1,34,0003-00-0007-16.png,0004-00-0008-59.png
00000014,415,1,1441292873284,1441292873798,886,398,0,0,0,4,3,1,43,0004-00-0003-02.png,0003-00-0007-06.png
00000014,416,1,1441292874794,1441292875312,292,375,0,0,0,1,2,1,12,0001-00-0008-55.png,0002-00-0004-47.png
00000014,417,1,1441292876354,1441292876887,903,418,0,0,0,3,2,1,32,0003-00-0000-67.png,0002-00-0003-79.png
00000014,418,1,1441292877826,1441292878361,875,409,0,0,0,5,4,1,54,0005-00-0008-75.png,0004-00-0004-56.png
00000014,419,0,1441292879350,1441292879825,873,431,0,0,0,3,4,1,34,0003-00-0005-98.png,0004-00-0003-60.png
00000014,420,1,1441292882821,1441292882869,516,470,0,0,0,2,3,1,23,0002-00-0005-32.png,0003-00-0005-81.png
00000014,421,0,1441292883804,1441292883812,478,451,0,0,0,2,1,1,21,0002-00-0002-63.png,0001-00-0002-76.png
00000014,422,0,1441292886947,1441292887402,319,436,0,0,0,4,3,1,43,0004-00-0000-37.png,0003-00-0005-99.png
00000014,423,0,1441292890304,1441292890849,874,489,0,0,0,1,2,1,12,0001-00-0008-99.png,0002-00-0003-25.png
00000014,424,1,1441292894004,1441292894446,325,398,0,0,0,4,5,1,45,0004-00-0005-64.png,0005-00-0006-96.png
00000014,425,1,1441292895293,1441292895321,478,503,0,0,0,4,5,1,45,0004-00-0005-95.png,0005-00-0004-90.png
00000014,426,1,1441292896467,1441292896946,891,432,0,0,0,2,1,1,21,0002-00-0008-48.png,0001-00-0005-64.png
00000014,427,1,1441292897930,1441292898463,325,412,0,0,0,2,3,1,23,0002-00-0004-30.png,0003-00-0006-62.png
00000014,428,0,1441292899510,1441292899944,367,428,0,0,0,4,3,1,43,0004-00-0001-42.png,0003-00-0006-97.png
00000014,429,0,1441292902825,1441292902873,462,478,0,0,0,3,2,1,32,0003-00-0002-08.png,0002-00-0007-00.png
00000014,430,1,1441292905809,1441292906245,376,424,0,0,0,3,4,1,34,0003-00-0006-34.png,0004-00-0006-97.png
00000014,431,0,1441292907170,1441292907206,504,473,0,0,0,5,4,1,54,0005-00-0007-79.png,0004-00-0009-36.png
00000014,432,1,1441292910151,1441292910596,393,402,0,0,0,1,2,1,12,0001-00-0007-52.png,0002-00-0000-91.png
00000014,433,1,1441292911534,1441292912036,870,498,0,0,0,5,4,1,54,0005-00-0005-99.png,0004-00-0003-39.png
00000014,434,1,1441292913045,1441292913568,890,456,0,0,0,2,1,1,21,0002-00-0002-35.png,0001-00-0008-80.png
00000014,435,0,1441292914537,1441292915050,904,403,0,0,0,3,4,1,34,0003-00-0001-02.png,0004-00-0005-21.png
00000014,436,1,1441292918166,1441292918584,913,410,0,0,0,4,3,1,43,0004-00-0008-31.png,0003-00-0009-99.png
00000014,437,1,1441292919849,1441292920297,409,449,0,0,0,2,3,1,23,0002-00-0001-04.png,0003-00-0006-93.png
00000014,438,1,1441292921273,1441292921759,899,412,0,0,0,3,2,1,32,0003-00-0001-56.png,0002-00-0008-00.png
00000014,439,1,1441292922733,1441292923216,342,401,0,0,0,4,5,1,45,0004-00-0002-52.png,0005-00-0008-12.png
00000014,440,1,1441292924263,1441292924765,313,408,0,0,0,1,2,1,12,0001-00-0008-77.png,0002-00-0001-24.png
00000014,441,0,1441292925806,1441292926617,343,375,0,0,0,3,2,1,32,0003-00-0008-62.png,0002-00-0000-07.png
00000014,442,0,1441292929637,1441292930159,875,411,0,0,0,2,3,1,23,0002-00-0001-15.png,0003-00-0003-18.png
00000014,443,0,1441292933233,1441292933716,387,397,0,0,0,2,1,1,21,0002-00-0006-87.png,0001-00-0000-49.png
00000014,444,1,1441292936715,1441292937377,875,429,0,0,0,4,3,1,43,0004-00-0007-70.png,0003-00-0003-22.png
00000014,445,1,1441292938285,1441292938792,369,532,0,0,0,4,5,1,45,0004-00-0001-18.png,0005-00-0004-14.png
00000014,446,0,1441292939905,1441292940396,887,424,0,0,0,3,4,1,34,0003-00-0002-96.png,0004-00-0009-74.png
00000014,447,0,1441292943470,1441292943916,248,475,0,0,0,5,4,1,54,0005-00-0009-59.png,0004-00-0002-85.png
00000014,448,1,1441292946968,1441292946976,511,445,0,0,0,1,2,1,12,0001-00-0005-24.png,0002-00-0003-41.png
00000014,449,1,1441292947956,1441292948419,887,424,0,0,0,4,3,1,43,0004-00-0000-11.png,0003-00-0007-65.png
00000014,450,0,1441292949416,1441292949872,874,410,0,0,0,3,4,1,34,0003-00-0008-08.png,0004-00-0000-96.png
00000014,451,1,1441292953322,1441292953792,944,441,0,0,0,2,1,1,21,0002-00-0007-11.png,0001-00-0005-86.png
00000014,452,1,1441292954654,1441292955163,344,426,0,0,0,1,2,1,12,0001-00-0003-44.png,0002-00-0006-93.png
00000014,453,1,1441292956103,1441292956581,900,423,0,0,0,3,2,1,32,0003-00-0005-50.png,0002-00-0002-05.png
00000014,454,1,1441292957941,1441292958424,368,384,0,0,0,4,5,1,45,0004-00-0002-40.png,0005-00-0008-91.png
00000014,455,0,1441292959443,1441292959937,351,349,0,0,0,5,4,1,54,0005-00-0009-21.png,0004-00-0002-01.png
00000014,456,1,1441292962931,1441292963354,380,405,0,0,0,2,3,1,23,0002-00-0009-25.png,0003-00-0001-12.png
00000014,457,1,1441292964265,1441292964794,894,442,0,0,0,5,4,1,54,0005-00-0009-96.png,0004-00-0008-28.png
00000014,458,0,1441292965764,1441292966242,887,517,0,0,0,3,4,1,34,0003-00-0006-80.png,0004-00-0007-09.png
00000014,459,1,1441292969211,1441292969738,900,436,0,0,0,3,2,1,32,0003-00-0004-44.png,0002-00-0007-86.png
00000014,460,1,1441292970623,1441292971099,376,397,0,0,0,4,5,1,45,0004-00-0007-92.png,0005-00-0000-75.png
00000014,461,0,1441292972141,1441292972635,873,432,0,0,0,1,2,1,12,0001-00-0009-19.png,0002-00-0007-74.png
00000014,462,1,1441292975491,1441292976019,416,521,0,0,0,2,3,1,23,0002-00-0003-55.png,0003-00-0003-89.png
00000014,463,0,1441292976984,1441292977507,401,358,0,0,0,2,1,1,21,0002-00-0005-00.png,0001-00-0006-14.png
00000014,464,0,1441292980430,1441292980466,522,453,0,0,0,4,3,1,43,0004-00-0000-35.png,0003-00-0001-35.png
00000014,465,1,1441292983491,1441292984047,874,515,0,0,0,4,3,1,43,0004-00-0007-62.png,0003-00-0007-00.png
00000014,466,1,1441292984973,1441292985453,894,453,0,0,0,3,2,1,32,0003-00-0001-16.png,0002-00-0003-69.png
00000014,467,1,1441292986403,1441292986451,504,501,0,0,0,4,5,1,45,0004-00-0003-80.png,0005-00-0002-67.png
00000014,468,1,1441292987527,1441292988037,897,407,0,0,0,5,4,1,54,0005-00-0000-57.png,0004-00-0005-86.png
00000014,469,0,1441292989021,1441292989532,918,418,0,0,0,1,2,1,12,0001-00-0008-96.png,0002-00-0005-91.png
00000014,470,0,1441292992515,1441292993061,948,392,0,0,0,2,3,1,23,0002-00-0006-66.png,0003-00-0003-48.png
00000014,471,0,1441292996104,1441292996604,333,389,0,0,0,2,1,1,21,0002-00-0006-07.png,0001-00-0007-97.png
00000014,472,0,1441292999531,1441293000079,891,468,0,0,0,3,4,1,34,0003-00-0002-36.png,0004-00-0007-24.png
00000014,473,1,1441293003191,1441293004178,406,553,0,0,0,3,4,1,34,0003-00-0004-84.png,0004-00-0003-38.png
00000014,474,1,1441293005219,1441293005703,337,446,0,0,0,1,2,1,12,0001-00-0001-22.png,0002-00-0008-16.png
00000014,475,1,1441293006822,1441293007265,342,428,0,0,0,4,5,1,45,0004-00-0007-06.png,0005-00-0002-69.png
00000014,476,0,1441293008716,1441293009180,387,430,0,0,0,4,3,1,43,0004-00-0007-03.png,0003-00-0005-39.png
00000014,477,0,1441293012082,1441293012515,376,423,0,0,0,2,1,1,21,0002-00-0002-64.png,0001-00-0004-78.png
00000014,478,1,1441293015561,1441293016038,905,454,0,0,0,3,2,1,32,0003-00-0000-54.png,0002-00-0007-47.png
00000014,479,0,1441293016945,1441293017426,925,437,0,0,0,2,3,1,23,0002-00-0000-95.png,0003-00-0007-06.png
00000014,480,0,1441293020412,1441293020440,517,462,0,0,0,5,4,1,54,0005-00-0004-67.png,0004-00-0000-06.png
00000014,481,0,1441293023434,1441293023935,273,488,0,0,0,2,1,1,21,0002-00-0000-29.png,0001-00-0006-22.png
00000014,482,1,1441293026953,1441293027404,325,358,0,0,0,3,4,1,34,0003-00-0006-71.png,0004-00-0007-00.png
00000014,483,0,1441293028404,1441293028959,874,475,0,0,0,4,5,1,45,0004-00-0004-54.png,0005-00-0002-62.png
00000014,484,1,1441293032160,1441293032576,890,370,0,0,0,5,4,1,54,0005-00-0004-19.png,0004-00-0006-82.png
00000014,485,1,1441293033611,1441293034049,391,502,0,0,0,2,3,1,23,0002-00-0005-75.png,0003-00-0008-84.png
00000014,486,1,1441293035012,1441293035519,884,417,0,0,0,4,3,1,43,0004-00-0003-45.png,0003-00-0001-38.png
00000014,487,1,1441293036441,1441293036946,363,397,0,0,0,1,2,1,12,0001-00-0004-58.png,0002-00-0000-62.png
00000014,488,1,1441293037959,1441293038426,874,515,0,0,0,3,2,1,32,0003-00-0009-73.png,0002-00-0000-45.png
00000014,489,1,1441293039335,1441293039840,387,431,0,0,0,1,2,1,12,0001-00-0007-46.png,0002-00-0000-65.png
00000014,490,1,1441293040905,1441293041430,877,435,0,0,0,4,3,1,43,0004-00-0007-57.png,0003-00-0009-37.png
00000014,491,0,1441293042436,1441293042936,876,434,0,0,0,3,4,1,34,0003-00-0001-73.png,0004-00-0005-02.png
00000014,492,0,1441293045931,1441293046449,351,334,0,0,0,2,1,1,21,0002-00-0003-79.png,0001-00-0005-54.png
00000014,493,0,1441293049479,1441293050094,905,375,0,0,0,4,5,1,45,0004-00-0003-16.png,0005-00-0004-62.png
00000014,494,1,1441293053536,1441293053991,922,419,0,0,0,3,2,1,32,0003-00-0001-78.png,0002-00-0006-39.png
00000014,495,1,1441293054950,1441293055437,902,442,0,0,0,5,4,1,54,0005-00-0009-12.png,0004-00-0009-79.png
00000014,496,0,1441293056390,1441293056907,877,416,0,0,0,2,3,1,23,0002-00-0007-32.png,0003-00-0008-00.png
00000014,497,1,1441293059826,1441293060318,931,401,0,0,0,4,3,1,43,0004-00-0009-95.png,0003-00-0002-70.png
00000014,498,1,1441293061247,1441293061729,370,512,0,0,0,4,5,1,45,0004-00-0002-89.png,0005-00-0009-12.png
00000014,499,1,1441293062719,1441293063181,329,405,0,0,0,1,2,1,12,0001-00-0007-35.png,0002-00-0001-55.png
00000014,500,1,1441293064147,1441293064649,901,435,0,0,0,2,1,1,21,0002-00-0004-63.png,0001-00-0009-18.png
00000014,501,0,1441293065600,1441293066100,879,427,0,0,0,3,4,1,34,0003-00-0000-85.png,0004-00-0005-47.png
00000014,502,0,1441293069177,1441293069638,421,561,0,0,0,3,2,1,32,0003-00-0007-13.png,0002-00-0001-08.png
00000014,503,1,1441293072461,1441293073004,376,410,0,0,0,2,3,1,23,0002-00-0003-61.png,0003-00-0001-12.png
00000014,504,1,1441293074341,1441293074828,900,410,0,0,0,5,4,1,54,0005-00-0005-20.png,0004-00-0006-17.png
00000014,505,1,1441293075735,1441293076291,337,421,0,0,0,4,5,1,45,0004-00-0006-18.png,0005-00-0004-69.png
00000014,506,1,1441293077297,1441293078226,880,453,0,0,0,5,4,1,54,0005-00-0006-02.png,0004-00-0009-46.png
00000014,507,1,1441293079082,1441293079664,411,547,0,0,0,1,2,1,12,0001-00-0005-01.png,0002-00-0009-57.png
00000014,508,1,1441293080605,1441293081119,888,448,0,0,0,2,1,1,21,0002-00-0002-11.png,0001-00-0002-02.png
00000014,509,1,1441293081987,1441293082523,401,410,0,0,0,3,4,1,34,0003-00-0007-93.png,0004-00-0005-21.png
00000014,510,1,1441293083517,1441293084548,401,397,0,0,0,2,3,1,23,0002-00-0009-83.png,0003-00-0001-90.png
00000014,511,0,1441293085484,1441293085970,319,410,0,0,0,3,2,1,32,0003-00-0004-17.png,0002-00-0002-40.png
00000014,512,1,1441293090482,1441293090914,901,462,0,0,0,4,3,1,43,0004-00-0005-88.png,0003-00-0009-99.png
00000014,513,0,1441293091772,1441293092343,903,442,0,0,0,1,2,1,12,0001-00-0002-87.png,0002-00-0002-38.png
00000014,514,1,1441293095349,1441293095803,340,415,0,0,0,2,3,1,23,0002-00-0007-23.png,0003-00-0008-42.png
00000014,515,0,1441293097160,1441293097641,370,418,0,0,0,4,3,1,43,0004-00-0005-54.png,0003-00-0008-70.png
00000014,516,0,1441293100525,1441293100549,521,427,0,0,0,2,1,1,21,0002-00-0003-51.png,0001-00-0007-42.png
00000014,517,1,1441293104256,1441293104709,927,434,0,0,0,3,2,1,32,0003-00-0005-22.png,0002-00-0003-25.png
00000014,518,0,1441293105679,1441293106168,926,371,0,0,0,3,4,1,34,0003-00-0005-00.png,0004-00-0008-98.png
00000014,519,1,1441293109097,1441293109546,391,529,0,0,0,4,5,1,45,0004-00-0003-06.png,0005-00-0004-04.png
00000014,520,1,1441293110407,1441293110979,899,413,0,0,0,5,4,1,54,0005-00-0009-37.png,0004-00-0006-45.png
00000014,521,1,1441293111929,1441293112423,376,410,0,0,0,1,2,1,12,0001-00-0008-85.png,0002-00-0009-27.png
00000014,522,1,1441293113828,1441293114322,861,408,0,0,0,5,4,1,54,0005-00-0001-41.png,0004-00-0000-78.png
00000014,523,0,1441293115673,1441293116101,871,392,0,0,0,3,4,1,34,0003-00-0002-89.png,0004-00-0001-56.png
00000014,524,1,1441293119100,1441293119579,940,423,0,0,0,4,3,1,43,0004-00-0001-82.png,0003-00-0005-48.png
00000014,525,1,1441293120414,1441293121309,383,521,0,0,0,4,5,1,45,0004-00-0004-82.png,0005-00-0002-23.png
00000014,526,1,1441293122256,1441293122727,393,401,0,0,0,2,3,1,23,0002-00-0004-12.png,0003-00-0006-20.png
00000014,527,1,1441293123724,1441293124196,873,430,0,0,0,3,2,1,32,0003-00-0000-32.png,0002-00-0002-97.png
00000014,528,1,1441293125124,1441293125661,871,406,0,0,0,2,1,1,21,0002-00-0005-88.png,0001-00-0005-85.png
00000014,529,0,1441293127037,1441293127507,367,470,0,0,0,2,1,1,21,0002-00-0008-53.png,0001-00-0008-30.png
00000014,530,1,1441293130461,1441293130477,518,418,0,0,0,3,4,1,34,0003-00-0002-29.png,0004-00-0003-00.png
00000014,531,0,1441293131345,1441293131373,513,470,0,0,0,4,3,1,43,0004-00-0007-60.png,0003-00-0005-57.png
00000014,532,1,1441293134427,1441293134471,510,522,0,0,0,1,2,1,12,0001-00-0002-88.png,0002-00-0001-12.png
00000014,533,0,1441293135799,1441293136243,359,418,0,0,0,3,2,1,32,0003-00-0002-97.png,0002-00-0009-41.png
00000014,534,1,1441293139556,1441293140569,876,494,0,0,0,5,4,1,54,0005-00-0000-85.png,0004-00-0007-36.png
00000014,535,1,1441293141391,1441293141928,414,443,0,0,0,2,3,1,23,0002-00-0006-29.png,0003-00-0008-36.png
00000014,536,1,1441293142904,1441293143460,339,368,0,0,0,4,5,1,45,0004-00-0009-07.png,0005-00-0004-77.png
00000014,537,1,1441293144622,1441293145578,915,415,0,0,0,3,2,1,32,0003-00-0005-13.png,0002-00-0008-08.png
00000014,538,0,1441293146480,1441293147022,414,410,0,0,0,2,1,1,21,0002-00-0006-52.png,0001-00-0003-92.png
00000014,539,1,1441293150314,1441293150786,427,401,0,0,0,3,4,1,34,0003-00-0005-99.png,0004-00-0007-56.png
00000014,540,0,1441293151636,1441293152165,414,410,0,0,0,4,3,1,43,0004-00-0007-98.png,0003-00-0005-04.png
00000014,541,0,1441293155541,1441293156026,874,397,0,0,0,2,3,1,23,0002-00-0000-74.png,0003-00-0000-47.png
00000014,542,0,1441293159431,1441293159914,901,414,0,0,0,4,5,1,45,0004-00-0000-57.png,0005-00-0006-67.png
00000014,543,1,1441293162946,1441293163612,403,510,0,0,0,1,2,1,12,0001-00-0009-58.png,0002-00-0000-11.png
00000014,544,1,1441293164439,1441293165083,888,431,0,0,0,5,4,1,54,0005-00-0005-05.png,0004-00-0001-73.png
00000014,545,0,1441293165938,1441293166462,880,428,0,0,0,2,3,1,23,0002-00-0005-07.png,0003-00-0006-06.png
00000014,546,0,1441293169427,1441293169439,520,488,0,0,0,3,2,1,32,0003-00-0001-68.png,0002-00-0007-24.png
00000014,547,1,1441293172559,1441293173058,393,522,0,0,0,4,5,1,45,0004-00-0004-36.png,0005-00-0001-55.png
00000014,548,0,1441293173894,1441293174424,901,424,0,0,0,3,4,1,34,0003-00-0004-45.png,0004-00-0005-05.png
00000014,549,1,1441293177456,1441293177893,401,436,0,0,0,1,2,1,12,0001-00-0001-26.png,0002-00-0006-89.png
00000014,550,1,1441293178728,1441293179274,913,410,0,0,0,5,4,1,54,0005-00-0009-92.png,0004-00-0005-68.png
00000014,551,1,1441293180272,1441293180793,869,439,0,0,0,4,3,1,43,0004-00-0005-10.png,0003-00-0006-92.png
00000014,552,1,1441293181730,1441293182197,881,405,0,0,0,2,1,1,21,0002-00-0002-05.png,0001-00-0003-38.png
00000014,553,0,1441293183162,1441293183614,875,410,0,0,0,3,4,1,34,0003-00-0000-13.png,0004-00-0005-05.png
00000014,554,1,1441293186470,1441293186510,472,496,0,0,0,4,5,1,45,0004-00-0008-54.png,0005-00-0008-72.png
00000014,555,1,1441293187475,1441293188000,896,420,0,0,0,5,4,1,54,0005-00-0005-52.png,0004-00-0004-64.png
00000014,556,0,1441293188928,1441293188944,478,436,0,0,0,4,3,1,43,0004-00-0000-21.png,0003-00-0007-33.png
00000014,557,1,1441293191898,1441293191910,516,419,0,0,0,1,2,1,12,0001-00-0001-49.png,0002-00-0009-99.png
00000014,558,1,1441293192873,1441293193338,889,423,0,0,0,3,2,1,32,0003-00-0008-34.png,0002-00-0004-84.png
00000014,559,1,1441293194636,1441293195156,442,412,0,0,0,2,3,1,23,0002-00-0002-24.png,0003-00-0005-76.png
00000014,560,1,1441293196009,1441293196515,899,439,0,0,0,2,1,1,21,0002-00-0008-16.png,0001-00-0001-23.png
00000014,561,1,1441293197381,1441293197389,453,436,0,0,0,4,5,1,45,0004-00-0003-56.png,0005-00-0002-84.png
00000014,562,0,1441293198586,1441293199018,876,410,0,0,0,3,4,1,34,0003-00-0006-97.png,0004-00-0008-65.png
00000014,563,0,1441293201903,1441293201923,522,440,0,0,0,4,3,1,43,0004-00-0002-84.png,0003-00-0000-21.png
00000014,564,0,1441293204807,1441293204855,518,455,0,0,0,3,2,1,32,0003-00-0009-18.png,0002-00-0007-47.png
00000014,565,0,1441293207954,1441293207970,516,474,0,0,0,2,1,1,21,0002-00-0003-68.png,0001-00-0002-07.png
00000014,566,1,1441293210877,1441293211382,949,489,0,0,0,5,4,1,54,0005-00-0009-84.png,0004-00-0009-34.png
00000014,567,1,1441293212228,1441293212744,381,413,0,0,0,1,2,1,12,0001-00-0006-13.png,0002-00-0007-23.png
00000014,568,0,1441293213670,1441293214199,875,462,0,0,0,2,3,1,23,0002-00-0008-28.png,0003-00-0006-89.png
00000014,569,1,1441293218304,1441293218753,376,436,0,0,0,2,3,1,23,0002-00-0001-54.png,0003-00-0003-92.png
00000014,570,1,1441293219676,1441293220166,341,419,0,0,0,1,2,1,12,0001-00-0003-15.png,0002-00-0000-47.png
00000014,571,0,1441293221117,1441293221611,874,412,0,0,0,4,5,1,45,0004-00-0008-55.png,0005-00-0004-57.png
00000014,572,0,1441293224473,1441293224485,510,436,0,0,0,2,1,1,21,0002-00-0002-34.png,0001-00-0004-41.png
00000014,573,0,1441293227344,1441293227811,351,402,0,0,0,5,4,1,54,0005-00-0007-59.png,0004-00-0005-43.png
00000014,574,0,1441293230814,1441293231363,372,425,0,0,0,3,2,1,32,0003-00-0005-20.png,0002-00-0008-59.png
00000014,575,0,1441293234352,1441293234372,497,401,0,0,0,4,3,1,43,0004-00-0003-01.png,0003-00-0003-74.png
00000014,576,0,1441293237665,1441293238141,932,426,0,0,0,3,4,1,34,0003-00-0007-94.png,0004-00-0005-67.png
00000014,577,1,1441293241000,1441293241591,954,463,0,0,0,2,1,1,21,0002-00-0005-01.png,0001-00-0001-86.png
00000014,578,1,1441293242439,1441293242950,900,436,0,0,0,5,4,1,54,0005-00-0003-37.png,0004-00-0008-40.png
00000014,579,1,1441293243833,1441293244360,898,430,0,0,0,4,3,1,43,0004-00-0009-92.png,0003-00-0002-48.png
00000014,580,1,1441293245245,1441293245265,481,439,0,0,0,4,5,1,45,0004-00-0004-70.png,0005-00-0004-69.png
00000014,581,1,1441293246428,1441293246879,875,436,0,0,0,3,2,1,32,0003-00-0006-01.png,0002-00-0009-78.png
00000014,582,1,1441293247867,1441293248335,392,432,0,0,0,1,2,1,12,0001-00-0007-02.png,0002-00-0006-62.png
00000014,583,0,1441293249330,1441293249776,874,410,0,0,0,2,3,1,23,0002-00-0008-96.png,0003-00-0001-02.png
00000014,584,0,1441293252848,1441293253316,900,449,0,0,0,3,4,1,34,0003-00-0005-72.png,0004-00-0009-70.png
00000014,585,0,1441293256730,1441293257210,365,550,0,0,0,4,3,1,43,0004-00-0003-70.png,0003-00-0002-69.png
00000014,586,0,1441293260340,1441293260803,307,393,0,0,0,2,1,1,21,0002-00-0005-93.png,0001-00-0000-87.png
00000014,587,1,1441293263689,1441293263713,516,467,0,0,0,3,4,1,34,0003-00-0008-58.png,0004-00-0004-29.png
00000014,588,1,1441293265121,1441293265555,337,402,0,0,0,2,3,1,23,0002-00-0006-07.png,0003-00-0003-53.png
00000014,589,1,1441293266449,1441293266955,416,543,0,0,0,4,5,1,45,0004-00-0003-65.png,0005-00-0001-42.png
00000014,590,0,1441293267926,1441293268405,440,422,0,0,0,5,4,1,54,0005-00-0005-53.png,0004-00-0007-76.png
00000014,591,1,1441293271469,1441293271947,885,442,0,0,0,3,2,1,32,0003-00-0009-43.png,0002-00-0006-63.png
00000014,592,0,1441293272918,1441293273472,898,431,0,0,0,1,2,1,12,0001-00-0006-53.png,0002-00-0004-61.png
00000014,593,0,1441293276390,1441293276955,903,415,0,0,0,2,3,1,23,0002-00-0002-72.png,0003-00-0006-83.png
00000014,594,1,1441293280300,1441293280750,401,358,0,0,0,1,2,1,12,0001-00-0005-40.png,0002-00-0008-80.png
00000014,595,1,1441293281663,1441293282163,958,423,0,0,0,2,1,1,21,0002-00-0003-18.png,0001-00-0004-40.png
00000014,596,0,1441293283109,1441293283567,897,431,0,0,0,4,5,1,45,0004-00-0000-90.png,0005-00-0004-84.png
00000014,597,1,1441293286835,1441293287268,865,508,0,0,0,5,4,1,54,0005-00-0008-25.png,0004-00-0007-68.png
00000014,598,1,1441293288111,1441293288614,873,542,0,0,0,3,2,1,32,0003-00-0006-82.png,0002-00-0004-72.png
00000014,599,1,1441293289525,1441293289537,504,488,0,0,0,3,4,1,34,0003-00-0001-67.png,0004-00-0008-88.png
00000014,600,1,1441293290583,1441293291053,893,432,0,0,0,4,3,1,43,0004-00-0007-21.png,0003-00-0009-99.png
00000014,601,1,1441293292005,1441293292515,875,438,0,0,0,2,1,1,21,0002-00-0005-04.png,0001-00-0006-68.png
00000014,602,1,1441293293494,1441293293514,504,462,0,0,0,3,4,1,34,0003-00-0005-24.png,0004-00-0000-42.png
00000014,603,0,1441293294581,1441293295085,893,434,0,0,0,1,2,1,12,0001-00-0007-48.png,0002-00-0000-93.png
00000014,604,0,1441293299693,1441293300123,350,410,0,0,0,4,3,1,43,0004-00-0002-12.png,0003-00-0001-08.png
00000014,605,1,1441293303642,1441293304071,417,522,0,0,0,4,5,1,45,0004-00-0008-35.png,0005-00-0008-80.png
00000014,606,1,1441293305111,1441293305579,878,417,0,0,0,3,2,1,32,0003-00-0002-11.png,0002-00-0009-23.png
00000014,607,0,1441293306493,1441293307034,875,435,0,0,0,2,3,1,23,0002-00-0004-00.png,0003-00-0003-87.png
00000014,608,0,1441293310115,1441293310531,410,462,0,0,0,5,4,1,54,0005-00-0003-05.png,0004-00-0007-75.png
00000014,609,1,1441293313374,1441293313908,930,498,0,0,0,3,2,1,32,0003-00-0009-79.png,0002-00-0003-50.png
00000014,610,0,1441293314749,1441293315296,925,437,0,0,0,1,2,1,12,0001-00-0007-01.png,0002-00-0009-72.png
00000014,611,1,1441293318707,1441293319138,405,511,0,0,0,4,5,1,45,0004-00-0009-17.png,0005-00-0000-56.png
00000014,612,0,1441293320228,1441293320710,925,411,0,0,0,3,4,1,34,0003-00-0004-82.png,0004-00-0000-38.png
00000014,613,0,1441293323592,1441293323632,516,426,0,0,0,5,4,1,54,0005-00-0000-94.png,0004-00-0001-25.png
00000014,614,1,1441293326785,1441293327282,881,440,0,0,0,4,3,1,43,0004-00-0007-60.png,0003-00-0003-30.png
00000014,615,1,1441293328186,1441293328701,894,455,0,0,0,2,1,1,21,0002-00-0003-04.png,0001-00-0007-66.png
00000014,616,0,1441293329638,1441293330222,926,410,0,0,0,2,3,1,23,0002-00-0003-13.png,0003-00-0000-69.png
00000014,617,0,1441293333282,1441293333753,341,436,0,0,0,2,1,1,21,0002-00-0002-10.png,0001-00-0001-01.png
00000014,618,1,1441293336812,1441293337359,924,380,0,0,0,3,2,1,32,0003-00-0007-63.png,0002-00-0002-53.png
00000014,619,0,1441293338212,1441293338236,504,450,0,0,0,5,4,1,54,0005-00-0003-23.png,0004-00-0007-17.png
00000014,620,1,1441293341945,1441293342394,345,394,0,0,0,4,5,1,45,0004-00-0007-27.png,0005-00-0009-98.png
00000014,621,1,1441293343362,1441293343903,438,533,0,0,0,1,2,1,12,0001-00-0009-20.png,0002-00-0000-75.png
00000014,622,0,1441293344822,1441293345361,330,426,0,0,0,4,3,1,43,0004-00-0003-54.png,0003-00-0003-51.png
00000014,623,1,1441293348439,1441293348507,522,565,0,0,0,3,4,1,34,0003-00-0000-88.png,0004-00-0004-27.png
00000014,624,1,1441293349406,1441293349908,418,428,0,0,0,2,3,1,23,0002-00-0001-32.png,0003-00-0004-08.png
00000014,625,0,1441293350807,1441293350827,479,463,0,0,0,3,2,1,32,0003-00-0000-85.png,0002-00-0008-29.png
00000014,626,0,1441293353956,1441293354443,366,396,0,0,0,5,4,1,54,0005-00-0003-92.png,0004-00-0006-79.png
00000014,627,0,1441293357433,1441293357445,464,423,0,0,0,4,3,1,43,0004-00-0004-34.png,0003-00-0004-34.png
00000014,628,0,1441293360765,1441293361237,881,432,0,0,0,3,4,1,34,0003-00-0005-86.png,0004-00-0004-39.png
00000014,629,0,1441293364144,1441293365226,874,385,0,0,0,2,3,1,23,0002-00-0004-67.png,0003-00-0003-06.png
00000014,630,1,1441293371543,1441293372116,930,454,0,0,0,2,1,1,21,0002-00-0009-26.png,0001-00-0006-33.png
00000014,631,1,1441293372999,1441293373490,340,417,0,0,0,4,5,1,45,0004-00-0008-12.png,0005-00-0004-87.png
00000014,632,1,1441293374439,1441293374467,504,462,0,0,0,1,2,1,12,0001-00-0002-82.png,0002-00-0008-31.png
00000014,633,1,1441293375563,1441293376022,339,429,0,0,0,2,3,1,23,0002-00-0004-14.png,0003-00-0000-52.png
00000014,634,1,1441293376913,1441293377472,864,428,0,0,0,4,3,1,43,0004-00-0009-04.png,0003-00-0004-50.png
00000014,635,1,1441293378400,1441293378861,905,404,0,0,0,5,4,1,54,0005-00-0003-02.png,0004-00-0009-34.png
00000014,636,1,1441293379771,1441293380294,893,422,0,0,0,2,1,1,21,0002-00-0009-54.png,0001-00-0000-22.png
00000014,637,1,1441293381121,1441293381149,517,476,0,0,0,3,4,1,34,0003-00-0001-63.png,0004-00-0005-25.png
00000014,638,1,1441293382341,1441293383533,427,410,0,0,0,4,5,1,45,0004-00-0006-40.png,0005-00-0002-78.png
00000014,639,0,1441293384386,1441293386451,878,428,0,0,0,1,2,1,12,0001-00-0002-59.png,0002-00-0003-21.png
00000014,640,1,1441293394481,1441293394916,907,461,0,0,0,3,2,1,32,0003-00-0001-05.png,0002-00-0000-94.png
00000014,641,1,1441293395769,1441293396295,874,527,0,0,0,3,2,1,32,0003-00-0001-98.png,0002-00-0000-40.png
00000014,642,0,1441293397233,1441293397706,897,432,0,0,0,3,4,1,34,0003-00-0009-86.png,0004-00-0006-59.png
00000014,643,1,1441293400757,1441293401260,319,403,0,0,0,1,2,1,12,0001-00-0002-91.png,0002-00-0004-18.png
00000014,644,1,1441293402281,1441293402733,401,436,0,0,0,2,3,1,23,0002-00-0005-33.png,0003-00-0001-69.png
00000014,645,0,1441293403563,1441293403599,514,536,0,0,0,5,4,1,54,0005-00-0003-70.png,0004-00-0001-05.png
00000014,646,0,1441293406752,1441293407156,401,424,0,0,0,4,3,1,43,0004-00-0001-36.png,0003-00-0007-48.png
00000014,647,1,1441293410578,1441293411016,335,383,0,0,0,4,5,1,45,0004-00-0005-94.png,0005-00-0007-44.png
00000014,648,1,1441293412019,1441293412966,911,518,0,0,0,2,1,1,21,0002-00-0005-66.png,0001-00-0005-90.png
00000014,649,1,1441293413868,1441293414788,427,446,0,0,0,2,3,1,23,0002-00-0006-87.png,0003-00-0007-12.png
00000014,650,1,1441293415695,1441293416220,886,450,0,0,0,4,3,1,43,0004-00-0005-10.png,0003-00-0008-57.png
00000014,651,1,1441293417053,1441293417093,468,475,0,0,0,1,2,1,12,0001-00-0000-89.png,0002-00-0006-90.png
00000014,652,1,1441293418210,1441293418697,863,424,0,0,0,2,1,1,21,0002-00-0009-94.png,0001-00-0007-66.png
00000014,653,0,1441293419722,1441293420869,376,384,0,0,0,3,2,1,32,0003-00-0002-13.png,0002-00-0003-15.png
00000014,654,1,1441293426866,1441293427332,415,538,0,0,0,3,4,1,34,0003-00-0008-48.png,0004-00-0005-75.png
00000014,655,0,1441293428192,1441293428755,881,414,0,0,0,4,5,1,45,0004-00-0004-94.png,0005-00-0002-68.png
00000014,656,0,1441293432369,1441293432766,410,429,0,0,0,5,4,1,54,0005-00-0007-00.png,0004-00-0002-60.png
00000014,657,0,1441293435760,1441293435780,509,454,0,0,0,2,1,1,21,0002-00-0009-31.png,0001-00-0006-07.png
00000014,658,1,1441293438839,1441293439283,902,414,0,0,0,5,4,1,54,0005-00-0004-37.png,0004-00-0000-24.png
00000014,659,0,1441293440312,1441293440843,911,399,0,0,0,4,5,1,45,0004-00-0003-18.png,0005-00-0006-56.png
00000014,660,0,1441293443778,1441293444251,352,398,0,0,0,4,3,1,43,0004-00-0000-32.png,0003-00-0005-14.png
00000014,661,1,1441293448222,1441293448688,343,427,0,0,0,3,4,1,34,0003-00-0001-95.png,0004-00-0008-30.png
00000014,662,0,1441293449980,1441293450472,887,425,0,0,0,2,3,1,23,0002-00-0002-59.png,0003-00-0004-28.png
00000014,663,0,1441293460079,1441293460336,521,441,0,0,0,3,2,1,32,0003-00-0005-67.png,0002-00-0006-68.png
00000014,664,1,1441293464144,1441293464160,509,459,0,0,0,1,2,1,12,0001-00-0001-65.png,0002-00-0008-50.png
00000014,665,1,1441293465088,1441293465617,401,384,0,0,0,3,4,1,34,0003-00-0005-81.png,0004-00-0000-77.png
00000014,666,1,1441293466468,1441293467004,878,444,0,0,0,4,3,1,43,0004-00-0004-66.png,0003-00-0005-14.png
00000014,667,1,1441293467879,1441293472623,996,468,0,0,0,3,2,1,32,0003-00-0006-00.png,0002-00-0006-00.png
00000014,668,1,1441293473504,1441293474069,930,402,0,0,0,5,4,1,54,0005-00-0006-97.png,0004-00-0006-45.png
00000014,669,1,1441293477599,1441293478043,212,488,0,0,0,1,2,1,12,0001-00-0005-78.png,0002-00-0000-73.png
00000014,670,0,1441293478869,1441293478885,475,500,0,0,0,2,1,1,21,0002-00-0007-99.png,0001-00-0006-23.png
00000014,671,1,1441293481740,1441293482153,354,406,0,0,0,4,5,1,45,0004-00-0008-12.png,0005-00-0008-65.png
00000014,672,0,1441293482995,1441293483585,887,399,0,0,0,2,3,1,23,0002-00-0008-46.png,0003-00-0007-95.png
00000014,673,0,1441293486441,1441293486882,375,416,0,0,0,2,1,1,21,0002-00-0004-84.png,0001-00-0009-51.png
00000014,674,1,1441293489813,1441293490208,427,488,0,0,0,2,3,1,23,0002-00-0000-04.png,0003-00-0001-96.png
00000014,675,0,1441293491122,1441293492094,442,535,0,0,0,3,2,1,32,0003-00-0009-40.png,0002-00-0004-67.png
00000014,676,0,1441293495587,1441293495595,518,443,0,0,0,4,3,1,43,0004-00-0005-16.png,0003-00-0007-84.png
00000014,677,1,1441293498444,1441293498460,513,417,0,0,0,3,4,1,34,0003-00-0005-65.png,0004-00-0009-93.png
00000014,678,1,1441293499570,1441293500048,391,523,0,0,0,4,5,1,45,0004-00-0005-32.png,0005-00-0004-61.png
00000014,679,1,1441293500973,1441293501454,401,436,0,0,0,1,2,1,12,0001-00-0002-30.png,0002-00-0005-89.png
00000014,680,1,1441293502423,1441293502939,873,509,0,0,0,5,4,1,54,0005-00-0008-64.png,0004-00-0002-15.png
00000014,681,1,1441293503955,1441293504953,344,405,0,0,0,4,5,1,45,0004-00-0003-33.png,0005-00-0001-81.png
00000014,682,0,1441293505840,1441293505868,491,470,0,0,0,2,1,1,21,0002-00-0004-65.png,0001-00-0007-23.png
00000014,683,0,1441293508941,1441293509353,345,416,0,0,0,4,3,1,43,0004-00-0004-01.png,0003-00-0003-20.png
00000014,684,1,1441293512330,1441293512338,488,423,0,0,0,3,4,1,34,0003-00-0004-83.png,0004-00-0005-81.png
00000014,685,0,1441293513204,1441293513722,401,410,0,0,0,5,4,1,54,0005-00-0005-19.png,0004-00-0004-61.png
00000014,686,0,1441293516862,1441293517356,905,429,0,0,0,1,2,1,12,0001-00-0004-98.png,0002-00-0007-58.png
00000014,687,1,1441293520503,1441293520523,494,455,0,0,0,2,3,1,23,0002-00-0006-42.png,0003-00-0006-29.png
00000014,688,1,1441293521464,1441293521983,906,392,0,0,0,3,2,1,32,0003-00-0007-47.png,0002-00-0006-82.png
00000014,689,1,1441293522914,1441293523425,335,405,0,0,0,2,3,1,23,0002-00-0002-56.png,0003-00-0004-21.png
00000014,690,1,1441293524405,1441293524872,417,424,0,0,0,1,2,1,12,0001-00-0009-88.png,0002-00-0002-73.png
00000014,691,0,1441293525819,1441293526665,453,424,0,0,0,3,2,1,32,0003-00-0002-48.png,0002-00-0009-45.png
00000014,692,0,1441293529575,1441293530027,401,410,0,0,0,5,4,1,54,0005-00-0007-74.png,0004-00-0000-84.png
00000014,693,1,1441293533748,1441293534174,896,524,0,0,0,2,1,1,21,0002-00-0006-43.png,0001-00-0006-25.png
00000014,694,1,1441293535070,1441293535564,399,453,0,0,0,3,4,1,34,0003-00-0004-13.png,0004-00-0004-41.png
00000014,695,1,1441293536494,1441293536522,504,472,0,0,0,4,5,1,45,0004-00-0007-97.png,0005-00-0001-74.png
00000014,696,0,1441293537636,1441293538071,388,462,0,0,0,4,3,1,43,0004-00-0009-44.png,0003-00-0006-82.png
00000014,697,1,1441293541116,1441293541558,376,411,0,0,0,3,4,1,34,0003-00-0009-12.png,0004-00-0009-09.png
00000014,698,1,1441293542525,1441293542999,369,425,0,0,0,1,2,1,12,0001-00-0006-74.png,0002-00-0005-32.png
00000014,699,0,1441293543913,1441293543965,504,488,0,0,0,2,1,1,21,0002-00-0009-22.png,0001-00-0008-67.png
00000014,700,1,1441293547225,1441293547667,860,451,0,0,0,3,2,1,32,0003-00-0003-51.png,0002-00-0003-69.png
00000014,701,1,1441293548524,1441293548552,478,498,0,0,0,4,5,1,45,0004-00-0007-23.png,0005-00-0009-28.png
00000014,702,1,1441293549631,1441293550113,880,428,0,0,0,4,3,1,43,0004-00-0003-03.png,0003-00-0004-37.png
00000014,703,0,1441293550958,1441293551628,866,399,0,0,0,2,3,1,23,0002-00-0008-90.png,0003-00-0007-61.png
00000014,704,0,1441293554638,1441293555090,360,398,0,0,0,5,4,1,54,0005-00-0001-96.png,0004-00-0006-24.png
00000014,705,1,1441293558158,1441293558554,388,413,0,0,0,1,2,1,12,0001-00-0004-78.png,0002-00-0001-70.png
00000014,706,1,1441293559498,1441293560017,875,423,0,0,0,4,3,1,43,0004-00-0009-50.png,0003-00-0003-98.png
00000014,707,0,1441293560929,1441293560957,504,449,0,0,0,5,4,1,54,0005-00-0006-75.png,0004-00-0005-98.png
00000014,708,1,1441293564079,1441293564822,436,419,0,0,0,3,4,1,34,0003-00-0006-61.png,0004-00-0009-42.png
00000014,709,0,1441293565808,1441293566326,424,385,0,0,0,2,1,1,21,0002-00-0007-36.png,0001-00-0001-86.png
00000014,710,1,1441293569206,1441293569210,513,460,0,0,0,4,5,1,45,0004-00-0000-73.png,0005-00-0001-31.png
00000014,711,1,1441293570133,1441293570620,388,410,0,0,0,2,3,1,23,0002-00-0007-15.png,0003-00-0009-60.png
00000014,712,1,1441293571582,1441293572047,904,401,0,0,0,3,2,1,32,0003-00-0007-51.png,0002-00-0000-28.png
00000014,713,1,1441293572953,1441293573424,392,402,0,0,0,2,3,1,23,0002-00-0003-01.png,0003-00-0007-53.png
00000014,714,1,1441293574385,1441293574919,884,418,0,0,0,5,4,1,54,0005-00-0001-17.png,0004-00-0009-35.png
00000014,715,1,1441293575835,1441293576370,900,449,0,0,0,2,1,1,21,0002-00-0002-32.png,0001-00-0008-72.png
00000014,716,0,1441293577335,1441293578144,404,384,0,0,0,3,2,1,32,0003-00-0005-38.png,0002-00-0000-87.png
00000014,717,0,1441293581298,1441293581722,896,419,0,0,0,3,4,1,34,0003-00-0001-34.png,0004-00-0006-15.png
00000014,718,1,1441293584701,1441293584709,503,427,0,0,0,4,5,1,45,0004-00-0003-17.png,0005-00-0003-88.png
00000014,719,1,1441293585565,1441293585577,478,451,0,0,0,1,2,1,12,0001-00-0008-61.png,0002-00-0006-58.png
00000014,720,0,1441293586679,1441293587614,366,440,0,0,0,4,3,1,43,0004-00-0006-49.png,0003-00-0000-50.png
00000014,721,0,1441293593607,1441293594106,911,373,0,0,0,2,3,1,23,0002-00-0006-51.png,0003-00-0004-35.png
00000014,722,1,1441293597204,1441293597212,507,396,0,0,0,4,5,1,45,0004-00-0009-49.png,0005-00-0004-30.png
00000014,723,1,1441293598158,1441293598728,895,402,0,0,0,5,4,1,54,0005-00-0000-70.png,0004-00-0000-20.png
00000014,724,0,1441293599625,1441293600664,375,398,0,0,0,4,3,1,43,0004-00-0008-93.png,0003-00-0006-84.png
00000014,725,0,1441293603645,1441293603653,492,436,0,0,0,3,2,1,32,0003-00-0009-51.png,0002-00-0000-05.png
00000014,726,1,1441293606820,1441293606900,517,488,0,0,0,1,2,1,12,0001-00-0002-49.png,0002-00-0003-63.png
00000014,727,0,1441293607829,1441293608327,415,419,0,0,0,2,1,1,21,0002-00-0006-98.png,0001-00-0003-97.png
00000014,728,1,1441293611354,1441293611362,478,421,0,0,0,3,4,1,34,0003-00-0000-41.png,0004-00-0002-66.png
00000014,729,1,1441293612277,1441293612806,881,402,0,0,0,3,2,1,32,0003-00-0008-74.png,0002-00-0002-32.png
00000014,730,1,1441293613744,1441293613772,503,478,0,0,0,1,2,1,12,0001-00-0006-46.png,0002-00-0000-82.png
00000014,731,1,1441293614812,1441293615360,366,397,0,0,0,3,4,1,34,0003-00-0005-13.png,0004-00-0007-79.png
00000014,732,0,1441293616262,1441293616282,501,478,0,0,0,2,1,1,21,0002-00-0004-65.png,0001-00-0000-52.png
00000014,733,0,1441293619502,1441293619926,380,409,0,0,0,5,4,1,54,0005-00-0008-50.png,0004-00-0009-49.png
00000014,734,1,1441293623150,1441293623601,420,505,0,0,0,4,5,1,45,0004-00-0008-05.png,0005-00-0006-71.png
00000014,735,1,1441293624553,1441293625015,357,427,0,0,0,2,3,1,23,0002-00-0000-85.png,0003-00-0004-27.png
00000014,736,1,1441293625944,1441293626458,901,436,0,0,0,4,3,1,43,0004-00-0005-06.png,0003-00-0006-54.png
00000014,737,0,1441293627410,1441293628355,363,423,0,0,0,5,4,1,54,0005-00-0007-86.png,0004-00-0005-77.png
00000014,738,0,1441293631289,1441293631325,478,489,0,0,0,4,3,1,43,0004-00-0005-33.png,0003-00-0009-69.png
00000014,739,1,1441293635545,1441293636067,384,443,0,0,0,1,2,1,12,0001-00-0003-27.png,0002-00-0007-20.png
00000014,740,1,1441293636984,1441293638371,926,408,0,0,0,3,2,1,32,0003-00-0007-58.png,0002-00-0001-43.png
00000014,741,1,1441293639257,1441293639778,365,441,0,0,0,3,4,1,34,0003-00-0009-58.png,0004-00-0007-03.png
00000014,742,0,1441293640700,1441293641194,441,455,0,0,0,2,1,1,21,0002-00-0000-89.png,0001-00-0007-05.png
00000014,743,1,1441293644166,1441293644591,414,436,0,0,0,4,5,1,45,0004-00-0001-12.png,0005-00-0001-58.png
00000014,744,0,1441293645518,1441293646066,870,550,0,0,0,2,3,1,23,0002-00-0002-58.png,0003-00-0009-13.png
00000014,745,0,1441293649248,1441293649272,513,514,0,0,0,4,3,1,43,0004-00-0006-35.png,0003-00-0002-66.png
00000014,746,0,1441293652633,1441293653075,401,369,0,0,0,5,4,1,54,0005-00-0001-31.png,0004-00-0001-88.png
00000014,747,0,1441293656155,1441293656587,282,418,0,0,0,3,2,1,32,0003-00-0004-39.png,0002-00-0006-34.png
00000014,748,1,1441293659491,1441293659503,478,500,0,0,0,2,3,1,23,0002-00-0006-20.png,0003-00-0002-35.png
00000014,749,1,1441293660449,1441293660966,326,400,0,0,0,4,5,1,45,0004-00-0003-11.png,0005-00-0002-43.png
00000014,750,0,1441293661919,1441293661947,512,436,0,0,0,2,1,1,21,0002-00-0004-84.png,0001-00-0005-69.png
00000014,751,1,1441293664787,1441293665341,332,440,0,0,0,3,4,1,34,0003-00-0007-85.png,0004-00-0008-63.png
00000014,752,0,1441293666332,1441293666858,900,411,0,0,0,1,2,1,12,0001-00-0003-56.png,0002-00-0002-60.png
00000014,753,0,1441293670188,1441293670633,418,509,0,0,0,2,1,1,21,0002-00-0004-52.png,0001-00-0005-84.png
00000014,754,1,1441293673606,1441293673626,516,426,0,0,0,1,2,1,12,0001-00-0003-79.png,0002-00-0009-48.png
00000014,755,0,1441293674471,1441293675482,910,431,0,0,0,3,4,1,34,0003-00-0008-70.png,0004-00-0009-64.png
00000014,756,1,1441293678566,1441293679006,354,409,0,0,0,4,5,1,45,0004-00-0009-43.png,0005-00-0004-35.png
00000014,757,0,1441293679929,1441293679941,478,474,0,0,0,5,4,1,54,0005-00-0005-26.png,0004-00-0003-33.png
00000014,758,0,1441293682847,1441293683336,422,414,0,0,0,4,3,1,43,0004-00-0002-59.png,0003-00-0007-76.png
00000014,759,1,1441293686373,1441293686853,378,412,0,0,0,2,3,1,23,0002-00-0000-28.png,0003-00-0001-13.png
00000014,760,0,1441293687928,1441293688374,376,424,0,0,0,3,2,1,32,0003-00-0000-79.png,0002-00-0001-68.png
00000014,761,0,1441293691292,1441293691316,513,420,0,0,0,2,1,1,21,0002-00-0002-67.png,0001-00-0004-05.png
00000014,762,0,1441293694705,1441293695138,415,502,0,0,0,4,3,1,43,0004-00-0000-45.png,0003-00-0006-18.png
00000014,763,1,1441293697980,1441293698008,459,438,0,0,0,4,5,1,45,0004-00-0008-11.png,0005-00-0005-61.png
00000014,764,0,1441293699006,1441293699458,319,447,0,0,0,3,2,1,32,0003-00-0007-88.png,0002-00-0008-05.png
00000014,765,1,1441293702396,1441293702404,498,401,0,0,0,1,2,1,12,0001-00-0007-24.png,0002-00-0003-62.png
00000014,766,0,1441293703365,1441293703856,882,441,0,0,0,3,4,1,34,0003-00-0002-15.png,0004-00-0009-55.png
00000014,767,1,1441293706731,1441293706735,492,468,0,0,0,2,3,1,23,0002-00-0008-25.png,0003-00-0003-19.png
00000014,768,1,1441293707817,1441293708328,865,484,0,0,0,5,4,1,54,0005-00-0006-87.png,0004-00-0001-48.png
00000014,769,0,1441293709265,1441293709776,900,412,0,0,0,1,2,1,12,0001-00-0006-43.png,0002-00-0002-11.png
00000014,770,0,1441293713130,1441293713579,381,515,0,0,0,2,1,1,21,0002-00-0003-44.png,0001-00-0005-45.png
00000014,771,0,1441293716549,1441293717027,394,535,0,0,0,4,3,1,43,0004-00-0008-83.png,0003-00-0002-79.png
00000014,772,0,1441293720197,1441293721115,920,509,0,0,0,3,4,1,34,0003-00-0001-84.png,0004-00-0007-75.png
00000014,773,1,1441293724009,1441293724447,419,436,0,0,0,2,3,1,23,0002-00-0005-12.png,0003-00-0005-53.png
00000014,774,0,1441293725345,1441293725365,498,455,0,0,0,5,4,1,54,0005-00-0006-55.png,0004-00-0006-53.png
00000014,775,1,1441293728335,1441293728367,519,398,0,0,0,4,5,1,45,0004-00-0001-40.png,0005-00-0008-68.png
00000014,776,1,1441293729240,1441293729786,877,443,0,0,0,3,2,1,32,0003-00-0007-38.png,0002-00-0009-85.png
00000014,777,0,1441293730701,1441293731611,942,396,0,0,0,3,4,1,34,0003-00-0002-24.png,0004-00-0006-99.png
00000014,778,0,1441293734528,1441293735084,912,398,0,0,0,2,3,1,23,0002-00-0002-75.png,0003-00-0002-72.png
00000014,779,1,1441293738223,1441293738235,491,488,0,0,0,1,2,1,12,0001-00-0004-98.png,0002-00-0001-08.png
00000014,780,1,1441293739207,1441293739227,478,436,0,0,0,4,5,1,45,0004-00-0000-23.png,0005-00-0006-96.png
00000014,781,1,1441293740302,1441293741687,906,515,0,0,0,4,3,1,43,0004-00-0001-56.png,0003-00-0003-87.png
00000014,782,1,1441293742626,1441293743114,867,484,0,0,0,3,2,1,32,0003-00-0003-01.png,0002-00-0009-00.png
00000014,783,1,1441293744110,1441293744563,875,410,0,0,0,5,4,1,54,0005-00-0000-24.png,0004-00-0003-70.png
00000014,784,0,1441293745619,1441293745643,515,452,0,0,0,2,1,1,21,0002-00-0003-49.png,0001-00-0007-73.png
00000014,785,0,1441293748589,1441293749532,871,418,0,0,0,3,4,1,34,0003-00-0004-44.png,0004-00-0005-55.png
00000014,786,0,1441293752415,1441293752451,434,446,0,0,0,2,1,1,21,0002-00-0007-81.png,0001-00-0003-25.png
00000014,787,0,1441293755277,1441293755733,289,417,0,0,0,5,4,1,54,0005-00-0008-50.png,0004-00-0005-34.png
00000014,788,1,1441293758751,1441293759275,873,532,0,0,0,4,3,1,43,0004-00-0008-28.png,0003-00-0005-10.png
00000014,789,0,1441293760116,1441293760662,901,437,0,0,0,2,3,1,23,0002-00-0002-71.png,0003-00-0004-00.png
00000014,790,1,1441293763523,1441293763949,352,432,0,0,0,1,2,1,12,0001-00-0000-25.png,0002-00-0006-96.png
00000014,791,1,1441293764846,1441293765330,363,424,0,0,0,4,5,1,45,0004-00-0007-88.png,0005-00-0006-60.png
00000014,792,1,1441293766715,1441293767172,900,437,0,0,0,3,2,1,32,0003-00-0000-32.png,0002-00-0009-85.png
00000014,793,1,1441293768098,1441293768110,489,443,0,0,0,2,3,1,23,0002-00-0007-45.png,0003-00-0006-35.png
00000014,794,1,1441293769200,1441293769714,906,388,0,0,0,2,1,1,21,0002-00-0006-31.png,0001-00-0008-27.png
00000014,795,0,1441293770634,1441293771130,909,365,0,0,0,1,2,1,12,0001-00-0009-07.png,0002-00-0002-49.png
00000014,796,1,1441293775779,1441293776296,892,500,0,0,0,4,3,1,43,0004-00-0004-80.png,0003-00-0001-51.png
00000014,797,0,1441293777687,1441293778140,434,524,0,0,0,5,4,1,54,0005-00-0006-23.png,0004-00-0002-32.png
00000014,798,0,1441293781175,1441293781199,516,436,0,0,0,3,2,1,32,0003-00-0004-23.png,0002-00-0000-61.png
00000014,799,0,1441293784233,1441293784663,857,513,0,0,0,3,4,1,34,0003-00-0002-51.png,0004-00-0000-06.png
00000014,800,1,1441293787503,1441293787943,313,416,0,0,0,4,5,1,45,0004-00-0000-78.png,0005-00-0003-81.png
00000014,801,1,1441293788858,1441293789408,388,423,0,0,0,2,3,1,23,0002-00-0002-93.png,0003-00-0009-36.png
00000014,802,1,1441293790339,1441293790823,906,402,0,0,0,2,1,1,21,0002-00-0002-29.png,0001-00-0002-76.png
00000014,803,1,1441293791789,1441293792291,875,410,0,0,0,4,3,1,43,0004-00-0003-88.png,0003-00-0005-94.png
00000014,804,0,1441293793290,1441293793366,482,526,0,0,0,5,4,1,54,0005-00-0005-84.png,0004-00-0007-05.png
00000014,805,0,1441293796785,1441293797324,350,396,0,0,0,3,2,1,32,0003-00-0007-46.png,0002-00-0007-25.png
00000014,806,1,1441293800276,1441293800308,491,504,0,0,0,1,2,1,12,0001-00-0001-46.png,0002-00-0001-38.png
00000014,807,1,1441293801290,1441293801318,504,502,0,0,0,3,4,1,34,0003-00-0006-33.png,0004-00-0004-51.png
00000014,808,1,1441293802383,1441293803244,401,384,0,0,0,4,5,1,45,0004-00-0004-67.png,0005-00-0003-72.png
00000014,809,0,1441293804221,1441293804708,877,440,0,0,0,4,5,1,45,0004-00-0008-88.png,0005-00-0009-34.png
00000014,810,0,1441293807730,1441293808189,388,487,0,0,0,2,1,1,21,0002-00-0005-93.png,0001-00-0000-53.png
00000014,811,1,1441293811045,1441293811448,376,384,0,0,0,2,3,1,23,0002-00-0008-70.png,0003-00-0005-12.png
00000014,812,1,1441293812412,1441293812906,900,412,0,0,0,4,3,1,43,0004-00-0008-75.png,0003-00-0001-99.png
00000014,813,1,1441293813821,1441293813841,510,445,0,0,0,3,4,1,34,0003-00-0001-98.png,0004-00-0004-53.png
00000014,814,1,1441293814904,1441293815968,919,417,0,0,0,5,4,1,54,0005-00-0007-25.png,0004-00-0004-27.png
00000014,815,0,1441293816880,1441293817379,418,506,0,0,0,3,2,1,32,0003-00-0003-77.png,0002-00-0008-50.png
00000014,816,1,1441293820371,1441293820811,438,407,0,0,0,1,2,1,12,0001-00-0005-45.png,0002-00-0001-55.png
00000014,817,1,1441293821658,1441293822196,895,397,0,0,0,5,4,1,54,0005-00-0003-28.png,0004-00-0006-92.png
00000014,818,1,1441293823194,1441293823218,499,508,0,0,0,4,5,1,45,0004-00-0008-84.png,0005-00-0000-68.png
00000014,819,1,1441293824404,1441293824907,888,410,0,0,0,2,1,1,21,0002-00-0008-56.png,0001-00-0008-79.png
00000014,820,1,1441293825937,1441293826953,457,550,0,0,0,1,2,1,12,0001-00-0002-55.png,0002-00-0002-80.png
00000014,821,0,1441293827911,1441293828854,356,413,0,0,0,3,2,1,32,0003-00-0003-28.png,0002-00-0009-71.png
00000014,822,1,1441293831769,1441293831793,478,448,0,0,0,2,3,1,23,0002-00-0005-35.png,0003-00-0002-40.png
00000014,823,0,1441293832780,1441293833695,867,380,0,0,0,3,4,1,34,0003-00-0003-43.png,0004-00-0002-65.png
00000014,824,0,1441293836877,1441293837344,440,531,0,0,0,4,3,1,43,0004-00-0007-46.png,0003-00-0003-10.png
00000014,825,1,1441293840515,1441293841115,351,368,0,0,0,1,2,1,12,0001-00-0008-68.png,0002-00-0007-18.png
00000014,826,0,1441293842083,1441293842103,488,436,0,0,0,2,1,1,21,0002-00-0003-88.png,0001-00-0003-66.png
00000014,827,0,1441293845028,1441293845072,504,500,0,0,0,4,3,1,43,0004-00-0007-37.png,0003-00-0001-50.png
00000014,828,0,1441293847987,1441293848015,498,468,0,0,0,5,4,1,54,0005-00-0001-38.png,0004-00-0002-44.png
00000014,829,0,1441293851109,1441293851558,904,401,0,0,0,3,4,1,34,0003-00-0007-62.png,0004-00-0007-49.png
00000014,830,1,1441293854636,1441293855154,388,396,0,0,0,2,3,1,23,0002-00-0001-20.png,0003-00-0001-55.png
00000014,831,1,1441293856048,1441293856559,366,391,0,0,0,4,5,1,45,0004-00-0006-52.png,0005-00-0006-19.png
00000014,832,1,1441293857608,1441293858086,880,402,0,0,0,3,2,1,32,0003-00-0006-33.png,0002-00-0004-68.png
00000014,833,0,1441293859525,1441293859573,506,473,0,0,0,5,4,1,54,0005-00-0007-51.png,0004-00-0007-61.png
00000014,834,0,1441293862406,1441293862891,344,395,0,0,0,4,3,1,43,0004-00-0004-97.png,0003-00-0003-74.png
00000014,835,0,1441293866015,1441293866494,337,397,0,0,0,3,2,1,32,0003-00-0002-18.png,0002-00-0001-24.png
00000014,836,1,1441293869588,1441293869994,394,480,0,0,0,4,5,1,45,0004-00-0004-03.png,0005-00-0002-78.png
00000014,837,1,1441293870906,1441293871433,877,544,0,0,0,2,1,1,21,0002-00-0008-55.png,0001-00-0004-18.png
00000014,838,0,1441293872363,1441293872839,908,422,0,0,0,2,3,1,23,0002-00-0001-31.png,0003-00-0001-56.png
00000014,839,1,1441293875917,1441293876395,363,397,0,0,0,3,4,1,34,0003-00-0008-87.png,0004-00-0003-90.png
00000014,840,1,1441293877446,1441293877494,469,462,0,0,0,1,2,1,12,0001-00-0004-01.png,0002-00-0003-90.png
00000014,841,0,1441293878569,1441293879094,399,421,0,0,0,2,1,1,21,0002-00-0006-44.png,0001-00-0005-95.png
00000014,842,1,1441293882192,1441293882641,376,424,0,0,0,1,2,1,12,0001-00-0001-74.png,0002-00-0008-83.png
00000014,843,0,1441293883608,1441293884113,871,471,0,0,0,3,4,1,34,0003-00-0000-47.png,0004-00-0008-87.png
00000014,844,1,1441293887252,1441293887685,861,398,0,0,0,3,2,1,32,0003-00-0000-40.png,0002-00-0002-02.png
00000014,845,0,1441293888635,1441293888683,516,488,0,0,0,5,4,1,54,0005-00-0005-38.png,0004-00-0003-36.png
00000014,846,1,1441293891846,1441293892312,329,442,0,0,0,4,5,1,45,0004-00-0006-86.png,0005-00-0007-73.png
00000014,847,0,1441293893337,1441293893833,900,411,0,0,0,2,3,1,23,0002-00-0009-41.png,0003-00-0001-01.png
00000014,848,0,1441293896973,1441293897395,427,527,0,0,0,4,3,1,43,0004-00-0009-12.png,0003-00-0007-58.png
00000014,849,1,1441293900788,1441293901221,415,538,0,0,0,2,3,1,23,0002-00-0002-64.png,0003-00-0006-03.png
00000014,850,0,1441293902120,1441293902132,478,434,0,0,0,3,2,1,32,0003-00-0002-86.png,0002-00-0000-50.png
00000014,851,1,1441293905012,1441293905020,494,483,0,0,0,3,4,1,34,0003-00-0009-56.png,0004-00-0008-40.png
00000014,852,1,1441293906093,1441293906593,879,427,0,0,0,4,3,1,43,0004-00-0003-70.png,0003-00-0009-99.png
00000014,853,0,1441293907487,1441293907527,515,488,0,0,0,5,4,1,54,0005-00-0005-17.png,0004-00-0005-09.png
00000014,854,0,1441293910547,1441293911063,873,553,0,0,0,1,2,1,12,0001-00-0008-84.png,0002-00-0008-26.png
00000014,855,1,1441293913945,1441293914399,925,464,0,0,0,2,1,1,21,0002-00-0007-47.png,0001-00-0001-26.png
00000014,856,1,1441293915306,1441293915323,504,447,0,0,0,4,5,1,45,0004-00-0000-64.png,0005-00-0000-72.png
00000014,857,0,1441293916453,1441293916918,368,424,0,0,0,4,3,1,43,0004-00-0007-13.png,0003-00-0003-63.png
00000014,858,1,1441293919958,1441293920503,901,409,0,0,0,5,4,1,54,0005-00-0001-83.png,0004-00-0001-41.png
00000014,859,1,1441293921402,1441293921904,374,437,0,0,0,1,2,1,12,0001-00-0005-88.png,0002-00-0007-74.png
00000014,860,1,1441293922860,1441293922900,511,470,0,0,0,3,4,1,34,0003-00-0004-57.png,0004-00-0007-74.png
00000014,861,0,1441293924016,1441293924548,879,480,0,0,0,4,5,1,45,0004-00-0009-96.png,0005-00-0006-39.png
00000014,862,1,1441293928009,1441293928489,414,403,0,0,0,2,3,1,23,0002-00-0000-46.png,0003-00-0001-25.png
00000014,863,1,1441293929442,1441293929924,905,428,0,0,0,2,1,1,21,0002-00-0002-67.png,0001-00-0001-60.png
00000014,864,1,1441293931321,1441293931800,900,416,0,0,0,3,2,1,32,0003-00-0005-55.png,0002-00-0007-26.png
00000014,865,0,1441293932719,1441293933225,867,470,0,0,0,4,5,1,45,0004-00-0001-41.png,0005-00-0009-04.png
00000014,866,0,1441293936167,1441293936921,337,401,0,0,0,5,4,1,54,0005-00-0002-21.png,0004-00-0000-64.png
00000014,867,0,1441293939985,1441293940471,313,443,0,0,0,2,1,1,21,0002-00-0005-10.png,0001-00-0001-81.png
00000014,868,0,1441293943451,1441293943999,391,521,0,0,0,3,2,1,32,0003-00-0004-74.png,0002-00-0007-09.png
00000014,869,1,1441293947390,1441293947939,875,411,0,0,0,4,3,1,43,0004-00-0004-98.png,0003-00-0003-47.png
00000014,870,1,1441293948890,1441293948914,504,479,0,0,0,1,2,1,12,0001-00-0006-81.png,0002-00-0003-97.png
00000014,871,1,1441293950401,1441293950952,417,495,0,0,0,3,4,1,34,0003-00-0007-05.png,0004-00-0003-44.png
00000014,872,1,1441293951920,1441293951940,504,462,0,0,0,2,3,1,23,0002-00-0001-06.png,0003-00-0005-64.png
00000014,873,1,1441293952994,1441293953518,906,415,0,0,0,4,3,1,43,0004-00-0005-09.png,0003-00-0001-93.png
00000014,874,1,1441293954424,1441293955354,872,379,0,0,0,3,2,1,32,0003-00-0009-13.png,0002-00-0001-05.png
00000014,875,0,1441293956253,1441293956289,496,452,0,0,0,5,4,1,54,0005-00-0006-58.png,0004-00-0004-96.png
00000014,876,0,1441293959274,1441293959778,911,424,0,0,0,4,5,1,45,0004-00-0004-96.png,0005-00-0003-36.png
00000014,877,1,1441293964106,1441293964680,926,403,0,0,0,2,1,1,21,0002-00-0004-55.png,0001-00-0004-17.png
00000014,878,1,1441293965554,1441293966052,377,429,0,0,0,1,2,1,12,0001-00-0008-65.png,0002-00-0001-20.png
00000014,879,0,1441293966934,1441293967500,900,437,0,0,0,2,3,1,23,0002-00-0002-67.png,0003-00-0005-30.png
00000014,880,1,1441293970544,1441293970977,332,428,0,0,0,3,4,1,34,0003-00-0007-50.png,0004-00-0001-83.png
00000014,881,0,1441293971907,1441293972452,900,437,0,0,0,1,2,1,12,0001-00-0001-01.png,0002-00-0009-14.png
00000014,882,0,1441293975291,1441293975849,902,468,0,0,0,3,4,1,34,0003-00-0001-47.png,0004-00-0006-08.png
00000014,883,1,1441293978958,1441293979414,920,430,0,0,0,2,1,1,21,0002-00-0003-41.png,0001-00-0006-40.png
00000014,884,0,1441293980281,1441293980309,496,478,0,0,0,5,4,1,54,0005-00-0002-31.png,0004-00-0001-39.png
00000014,885,1,1441293983211,1441293983235,515,462,0,0,0,2,3,1,23,0002-00-0007-13.png,0003-00-0005-74.png
00000014,886,1,1441293984190,1441293984679,875,384,0,0,0,4,3,1,43,0004-00-0008-54.png,0003-00-0003-46.png
00000014,887,1,1441293985609,1441293985637,488,444,0,0,0,4,5,1,45,0004-00-0002-09.png,0005-00-0008-89.png
00000014,888,0,1441293986753,1441293986829,506,533,0,0,0,3,2,1,32,0003-00-0006-26.png,0002-00-0008-91.png
00000014,889,1,1441293989912,1441293990394,376,398,0,0,0,3,4,1,34,0003-00-0006-19.png,0004-00-0002-47.png
00000014,890,1,1441293991404,1441293991886,901,410,0,0,0,4,3,1,43,0004-00-0004-34.png,0003-00-0006-75.png
00000014,891,0,1441293992823,1441293992857,510,472,0,0,0,5,4,1,54,0005-00-0009-03.png,0004-00-0003-00.png
00000014,892,0,1441293996032,1441293996477,401,412,0,0,0,3,2,1,32,0003-00-0007-75.png,0002-00-0004-64.png
00000014,893,1,1441293999579,1441294000034,357,428,0,0,0,1,2,1,12,0001-00-0009-37.png,0002-00-0002-86.png
00000014,894,1,1441294001092,1441294001983,401,410,0,0,0,2,3,1,23,0002-00-0008-22.png,0003-00-0004-45.png
00000014,895,0,1441294002993,1441294002997,478,465,0,0,0,2,1,1,21,0002-00-0006-33.png,0001-00-0005-66.png
00000014,896,1,1441294005828,1441294006289,396,562,0,0,0,4,5,1,45,0004-00-0008-53.png,0005-00-0009-37.png
00000014,897,1,1441294007254,1441294008224,882,406,0,0,0,4,3,1,43,0004-00-0003-37.png,0003-00-0008-60.png
00000014,898,1,1441294009122,1441294009678,865,457,0,0,0,3,2,1,32,0003-00-0005-16.png,0002-00-0007-21.png
00000014,899,1,1441294010604,1441294011118,886,451,0,0,0,2,1,1,21,0002-00-0000-61.png,0001-00-0007-77.png
00000014,900,0,1441294012084,1441294012599,905,420,0,0,0,1,2,1,12,0001-00-0007-99.png,0002-00-0004-65.png
00000014,901,0,1441294015457,1441294015481,497,480,0,0,0,5,4,1,54,0005-00-0003-30.png,0004-00-0004-44.png
00000014,902,1,1441294018533,1441294018978,349,410,0,0,0,3,4,1,34,0003-00-0002-67.png,0004-00-0007-70.png
00000014,903,0,1441294019964,1441294020479,879,454,0,0,0,2,3,1,23,0002-00-0000-29.png,0003-00-0000-98.png
00000014,904,1,1441294025916,1441294026454,386,432,0,0,0,4,5,1,45,0004-00-0002-90.png,0005-00-0004-23.png
00000014,905,1,1441294027623,1441294028138,892,536,0,0,0,2,1,1,21,0002-00-0004-54.png,0001-00-0005-93.png
00000014,906,1,1441294029227,1441294029770,892,452,0,0,0,4,3,1,43,0004-00-0004-00.png,0003-00-0007-57.png
00000014,907,0,1441294031215,1441294031658,883,544,0,0,0,4,5,1,45,0004-00-0008-55.png,0005-00-0003-03.png
00000014,908,0,1441294034522,1441294035134,248,500,0,0,0,5,4,1,54,0005-00-0004-56.png,0004-00-0001-25.png
00000014,909,0,1441294038100,1441294038544,315,435,0,0,0,3,2,1,32,0003-00-0001-62.png,0002-00-0007-76.png
00000014,910,1,1441294041429,1441294041441,506,479,0,0,0,1,2,1,12,0001-00-0006-90.png,0002-00-0004-58.png
00000014,911,1,1441294042395,1441294042850,350,396,0,0,0,2,3,1,23,0002-00-0003-96.png,0003-00-0004-32.png
00000014,912,1,1441294043882,1441294044432,339,431,0,0,0,3,4,1,34,0003-00-0006-74.png,0004-00-0008-94.png
00000014,913,1,1441294045398,1441294045414,510,456,0,0,0,4,5,1,45,0004-00-0005-12.png,0005-00-0004-52.png
00000014,914,0,1441294046438,1441294046518,499,559,0,0,0,3,2,1,32,0003-00-0006-69.png,0002-00-0007-27.png
00000014,915,1,1441294049499,1441294050065,928,417,0,0,0,5,4,1,54,0005-00-0001-23.png,0004-00-0000-21.png
00000014,916,0,1441294050988,1441294051520,902,435,0,0,0,2,3,1,23,0002-00-0006-19.png,0003-00-0009-99.png
00000014,917,1,1441294055215,1441294055719,901,410,0,0,0,2,1,1,21,0002-00-0000-59.png,0001-00-0007-14.png
00000014,918,0,1441294056726,1441294057228,331,410,0,0,0,4,3,1,43,0004-00-0004-59.png,0003-00-0004-64.png
00000014,919,1,1441294060290,1441294060741,423,389,0,0,0,1,2,1,12,0001-00-0000-75.png,0002-00-0000-38.png
00000014,920,1,1441294061622,1441294062517,462,522,0,0,0,3,4,1,34,0003-00-0001-11.png,0004-00-0000-65.png
00000014,921,0,1441294063433,1441294063481,518,462,0,0,0,2,1,1,21,0002-00-0005-75.png,0001-00-0004-45.png
00000014,922,1,1441294066631,1441294067081,410,420,0,0,0,4,5,1,45,0004-00-0007-82.png,0005-00-0001-86.png
00000014,923,1,1441294068065,1441294068089,484,472,0,0,0,1,2,1,12,0001-00-0003-38.png,0002-00-0008-05.png
00000014,924,1,1441294069108,1441294069678,878,401,0,0,0,4,3,1,43,0004-00-0008-26.png,0003-00-0002-50.png
00000014,925,1,1441294070590,1441294071194,366,444,0,0,0,2,3,1,23,0002-00-0002-28.png,0003-00-0002-68.png
00000014,926,0,1441294072088,1441294072124,495,488,0,0,0,5,4,1,54,0005-00-0007-27.png,0004-00-0006-71.png
00000014,927,0,1441294075031,1441294075565,910,446,0,0,0,3,4,1,34,0003-00-0002-23.png,0004-00-0009-61.png
00000014,928,1,1441294078778,1441294079304,887,496,0,0,0,3,2,1,32,0003-00-0003-46.png,0002-00-0004-24.png
00000014,929,0,1441294080166,1441294080743,427,384,0,0,0,2,1,1,21,0002-00-0003-43.png,0001-00-0008-88.png
00000014,930,0,1441294084125,1441294084149,491,462,0,0,0,4,3,1,43,0004-00-0003-94.png,0003-00-0007-17.png
00000014,931,1,1441294087026,1441294087553,412,508,0,0,0,1,2,1,12,0001-00-0007-19.png,0002-00-0005-22.png
00000014,932,1,1441294088569,1441294089035,873,508,0,0,0,5,4,1,54,0005-00-0007-71.png,0004-00-0000-20.png
00000014,933,1,1441294089986,1441294089994,492,476,0,0,0,2,3,1,23,0002-00-0000-25.png,0003-00-0009-53.png
00000014,934,1,1441294091081,1441294091984,386,397,0,0,0,4,5,1,45,0004-00-0004-34.png,0005-00-0002-02.png
00000014,935,1,1441294092921,1441294093484,875,436,0,0,0,3,2,1,32,0003-00-0005-05.png,0002-00-0003-27.png
00000014,936,0,1441294094461,1441294094987,870,523,0,0,0,3,4,1,34,0003-00-0003-44.png,0004-00-0007-23.png
00000014,937,1,1441294098095,1441294098592,862,462,0,0,0,3,2,1,32,0003-00-0003-73.png,0002-00-0007-12.png
00000014,938,0,1441294099790,1441294100312,430,549,0,0,0,4,3,1,43,0004-00-0004-40.png,0003-00-0009-51.png
00000014,939,0,1441294103364,1441294103940,913,423,0,0,0,2,3,1,23,0002-00-0004-71.png,0003-00-0005-86.png
00000014,940,1,1441294107115,1441294107579,401,423,0,0,0,3,4,1,34,0003-00-0000-80.png,0004-00-0005-77.png
00000014,941,0,1441294108453,1441294109010,906,441,0,0,0,4,5,1,45,0004-00-0000-02.png,0005-00-0004-39.png
00000014,942,0,1441294111842,1441294112388,462,457,0,0,0,5,4,1,54,0005-00-0009-78.png,0004-00-0009-17.png
