subject_id,trial,correct_response,stim_time,response_time,x_coord,y_coord,trial_timeout,timeout_time,interTrial_timeout,left_rank,right_rank,distance,joint_rank,left_image,right_image
00000014,1,1,1440515863693,1440515864452,308,358,0,0,0,4,5,1,45,0004-00-0000-14.png,0005-00-0002-81.png
00000014,2,1,1440515865491,1440515865983,891,460,0,0,0,3,2,1,32,0003-00-0007-22.png,0002-00-0001-88.png
00000014,3,0,1440515867009,1440515867402,285,358,0,0,0,2,1,1,21,0002-00-0004-03.png,0001-00-0000-32.png
00000014,4,0,1440515870260,1440515870699,389,494,0,0,0,4,3,1,43,0004-00-0006-18.png,0003-00-0003-21.png
00000014,5,1,1440515873550,1440515873558,492,446,0,0,0,2,3,1,23,0002-00-0004-34.png,0003-00-0004-68.png
00000014,6,0,1440515874658,1440515875132,921,471,0,0,0,3,4,1,34,0003-00-0005-49.png,0004-00-0008-71.png
00000014,7,0,1440515878351,1440515878828,350,423,0,0,0,5,4,1,54,0005-00-0004-34.png,0004-00-0006-68.png
00000014,8,1,1440515881884,1440515882339,334,364,0,0,0,1,2,1,12,0001-00-0001-00.png,0002-00-0006-96.png
00000014,9,0,1440515883521,1440515883920,335,386,0,0,0,4,3,1,43,0004-00-0005-70.png,0003-00-0008-24.png
00000014,10,1,1440515886868,1440515887326,355,393,0,0,0,1,2,1,12,0001-00-0003-91.png,0002-00-0008-14.png
00000014,11,1,1440515888840,1440515889414,252,393,0,0,0,3,4,1,34,0003-00-0000-48.png,0004-00-0002-84.png
00000014,12,1,1440515890578,1440515891144,921,446,0,0,0,3,2,1,32,0003-00-0009-39.png,0002-00-0006-52.png
00000014,13,1,1440515893106,1440515893580,337,451,0,0,0,4,5,1,45,0004-00-0003-60.png,0005-00-0005-11.png
00000014,14,1,1440515895232,1440515895727,922,446,0,0,0,5,4,1,54,0005-00-0009-05.png,0004-00-0001-20.png
00000014,15,1,1440515896941,1440515897434,928,386,0,0,0,2,1,1,21,0002-00-0000-39.png,0001-00-0009-85.png
00000014,16,1,1440515898451,1440515898949,302,385,0,0,0,2,3,1,23,0002-00-0007-47.png,0003-00-0006-62.png
00000014,17,1,1440515899961,1440515900484,890,449,0,0,0,4,3,1,43,0004-00-0008-53.png,0003-00-0009-67.png
00000014,18,0,1440515901607,1440515902219,920,368,0,0,0,3,4,1,34,0003-00-0009-15.png,0004-00-0004-16.png
00000014,19,1,1440515905279,1440515905822,913,436,0,0,0,5,4,1,54,0005-00-0009-49.png,0004-00-0008-51.png
00000014,20,1,1440515907019,1440515908276,978,417,0,0,0,3,2,1,32,0003-00-0008-31.png,0002-00-0000-30.png
00000014,21,1,1440515909848,1440515910291,325,371,0,0,0,4,5,1,45,0004-00-0005-20.png,0005-00-0001-61.png
00000014,22,1,1440515911621,1440515912148,874,438,0,0,0,2,1,1,21,0002-00-0001-87.png,0001-00-0006-77.png
00000014,23,1,1440515913291,1440515913761,318,375,0,0,0,2,3,1,23,0002-00-0007-79.png,0003-00-0003-40.png
00000014,24,1,1440515914902,1440515915373,299,379,0,0,0,1,2,1,12,0001-00-0002-05.png,0002-00-0005-93.png
00000014,25,1,1440515916631,1440515917160,879,427,0,0,0,3,2,1,32,0003-00-0004-61.png,0002-00-0002-93.png
00000014,26,1,1440515918853,1440515919340,346,412,0,0,0,2,3,1,23,0002-00-0007-92.png,0003-00-0004-32.png
00000014,27,1,1440515920456,1440515920984,911,434,0,0,0,4,3,1,43,0004-00-0003-63.png,0003-00-0006-63.png
00000014,28,1,1440515922224,1440515922670,297,396,0,0,0,4,5,1,45,0004-00-0005-61.png,0005-00-0005-58.png
00000014,29,1,1440515924205,1440515924790,913,357,0,0,0,2,1,1,21,0002-00-0005-77.png,0001-00-0009-07.png
00000014,30,1,1440515925985,1440515926557,891,455,0,0,0,5,4,1,54,0005-00-0004-86.png,0004-00-0002-64.png
00000014,31,1,1440515927743,1440515928212,334,402,0,0,0,1,2,1,12,0001-00-0004-15.png,0002-00-0000-08.png
00000014,32,0,1440515929444,1440515929961,880,453,0,0,0,3,4,1,34,0003-00-0000-94.png,0004-00-0005-84.png
00000014,33,1,1440515933132,1440515933614,938,396,0,0,0,4,3,1,43,0004-00-0009-15.png,0003-00-0009-95.png
00000014,34,1,1440515935248,1440515935746,900,409,0,0,0,3,2,1,32,0003-00-0005-71.png,0002-00-0009-77.png
00000014,35,1,1440515936938,1440515937407,320,418,0,0,0,2,3,1,23,0002-00-0002-79.png,0003-00-0009-75.png
00000014,36,1,1440515938708,1440515939239,888,368,0,0,0,2,1,1,21,0002-00-0003-17.png,0001-00-0002-32.png
00000014,37,1,1440515940314,1440515940821,388,489,0,0,0,1,2,1,12,0001-00-0006-38.png,0002-00-0000-60.png
00000014,38,0,1440515941940,1440515942427,875,384,0,0,0,3,4,1,34,0003-00-0008-10.png,0004-00-0002-72.png
00000014,39,1,1440515945267,1440515945743,890,474,0,0,0,5,4,1,54,0005-00-0004-73.png,0004-00-0003-40.png
00000014,40,1,1440515946718,1440515947621,376,358,0,0,0,4,5,1,45,0004-00-0005-97.png,0005-00-0003-45.png
00000014,41,0,1440515948717,1440515949269,888,333,0,0,0,1,2,1,12,0001-00-0000-34.png,0002-00-0009-29.png
00000014,42,0,1440515952425,1440515952869,347,392,0,0,0,4,3,1,43,0004-00-0002-02.png,0003-00-0004-10.png
00000014,43,0,1440515956032,1440515956068,484,420,0,0,0,2,1,1,21,0002-00-0009-99.png,0001-00-0004-81.png
00000014,44,1,1440515958920,1440515959016,429,467,0,0,0,2,3,1,23,0002-00-0002-28.png,0003-00-0000-52.png
00000014,45,1,1440515960137,1440515960671,899,438,0,0,0,5,4,1,54,0005-00-0002-73.png,0004-00-0001-41.png
00000014,46,1,1440515961786,1440515962294,872,455,0,0,0,3,2,1,32,0003-00-0007-89.png,0002-00-0001-53.png
00000014,47,1,1440515963437,1440515963931,300,383,0,0,0,4,5,1,45,0004-00-0001-55.png,0005-00-0001-86.png
00000014,48,0,1440515965057,1440515965591,893,399,0,0,0,3,4,1,34,0003-00-0006-54.png,0004-00-0006-04.png
00000014,49,1,1440515968665,1440515969096,931,375,0,0,0,2,1,1,21,0002-00-0006-86.png,0001-00-0006-38.png
00000014,50,0,1440515970216,1440515970769,899,386,0,0,0,4,5,1,45,0004-00-0003-16.png,0005-00-0007-64.png
00000014,51,0,1440515973763,1440515974338,900,449,0,0,0,3,4,1,34,0003-00-0009-40.png,0004-00-0000-16.png
00000014,52,0,1440515977395,1440515977843,316,387,0,0,0,4,3,1,43,0004-00-0008-58.png,0003-00-0001-91.png
00000014,53,1,1440515980829,1440515980853,484,533,0,0,0,2,3,1,23,0002-00-0006-56.png,0003-00-0002-49.png
00000014,54,1,1440515981814,1440515982316,867,502,0,0,0,5,4,1,54,0005-00-0003-60.png,0004-00-0001-51.png
00000014,55,1,1440515983413,1440515983952,873,483,0,0,0,3,2,1,32,0003-00-0002-65.png,0002-00-0004-68.png
00000014,56,0,1440515985053,1440515985567,880,367,0,0,0,1,2,1,12,0001-00-0004-24.png,0002-00-0005-45.png
00000014,57,1,1440515988620,1440515989100,897,368,0,0,0,2,1,1,21,0002-00-0004-87.png,0001-00-0000-99.png
00000014,58,1,1440515990142,1440515990656,901,468,0,0,0,4,3,1,43,0004-00-0004-85.png,0003-00-0006-30.png
00000014,59,1,1440515991727,1440515992252,421,460,0,0,0,2,3,1,23,0002-00-0002-36.png,0003-00-0008-32.png
00000014,60,1,1440515993333,1440515993859,874,385,0,0,0,3,2,1,32,0003-00-0008-38.png,0002-00-0009-39.png
00000014,61,1,1440515994972,1440515995479,336,405,0,0,0,1,2,1,12,0001-00-0006-08.png,0002-00-0008-67.png
00000014,62,1,1440515996564,1440515997444,356,453,0,0,0,3,4,1,34,0003-00-0001-56.png,0004-00-0008-26.png
00000014,63,1,1440515998540,1440515999027,880,375,0,0,0,5,4,1,54,0005-00-0000-83.png,0004-00-0002-49.png
00000014,64,1,1440516000081,1440516000576,339,394,0,0,0,4,5,1,45,0004-00-0009-19.png,0005-00-0001-39.png
00000014,65,1,1440516001646,1440516002374,321,342,0,0,0,4,5,1,45,0004-00-0007-46.png,0005-00-0003-88.png
00000014,66,1,1440516003417,1440516003947,879,349,0,0,0,4,3,1,43,0004-00-0000-84.png,0003-00-0002-67.png
00000014,67,0,1440516005010,1440516005570,339,365,0,0,0,2,1,1,21,0002-00-0007-54.png,0001-00-0004-86.png
00000014,68,0,1440516008458,1440516008482,510,463,0,0,0,3,2,1,32,0003-00-0006-62.png,0002-00-0007-08.png
00000014,69,1,1440516011618,1440516011622,504,476,0,0,0,1,2,1,12,0001-00-0002-39.png,0002-00-0006-63.png
00000014,70,0,1440516012618,1440516013125,893,391,0,0,0,2,3,1,23,0002-00-0003-68.png,0003-00-0001-24.png
00000014,71,1,1440516016120,1440516016600,324,390,0,0,0,3,4,1,34,0003-00-0006-99.png,0004-00-0000-84.png
00000014,72,1,1440516017572,1440516018115,910,373,0,0,0,5,4,1,54,0005-00-0008-37.png,0004-00-0004-27.png
00000014,73,1,1440516019136,1440516019638,939,397,0,0,0,3,2,1,32,0003-00-0007-22.png,0002-00-0001-25.png
00000014,74,0,1440516020726,1440516021198,343,394,0,0,0,4,3,1,43,0004-00-0008-77.png,0003-00-0004-74.png
00000014,75,0,1440516024107,1440516024135,504,449,0,0,0,5,4,1,54,0005-00-0005-74.png,0004-00-0008-47.png
00000014,76,0,1440516027299,1440516027826,913,423,0,0,0,2,3,1,23,0002-00-0000-20.png,0003-00-0004-25.png
00000014,77,0,1440516030958,1440516031529,918,417,0,0,0,3,4,1,34,0003-00-0004-27.png,0004-00-0007-71.png
00000014,78,1,1440516034384,1440516034388,468,391,0,0,0,1,2,1,12,0001-00-0007-82.png,0002-00-0005-25.png
00000014,79,0,1440516035436,1440516035956,895,368,0,0,0,4,5,1,45,0004-00-0007-93.png,0005-00-0003-05.png
00000014,80,1,1440516039018,1440516039520,900,372,0,0,0,2,1,1,21,0002-00-0003-32.png,0001-00-0003-62.png
00000014,81,0,1440516040467,1440516040977,917,452,0,0,0,1,2,1,12,0001-00-0002-18.png,0002-00-0000-17.png
00000014,82,1,1440516044043,1440516044585,334,387,0,0,0,4,5,1,45,0004-00-0002-37.png,0005-00-0000-81.png
00000014,83,1,1440516045531,1440516046009,901,493,0,0,0,4,3,1,43,0004-00-0004-91.png,0003-00-0002-21.png
00000014,84,0,1440516047120,1440516047657,289,386,0,0,0,5,4,1,54,0005-00-0008-17.png,0004-00-0000-99.png
00000014,85,0,1440516050774,1440516051266,904,387,0,0,0,2,3,1,23,0002-00-0003-18.png,0003-00-0005-99.png
00000014,86,1,1440516054182,1440516054766,920,366,0,0,0,2,1,1,21,0002-00-0009-44.png,0001-00-0005-47.png
00000014,87,0,1440516056170,1440516056622,880,375,0,0,0,3,4,1,34,0003-00-0007-77.png,0004-00-0008-77.png
00000014,88,1,1440516059778,1440516060247,913,416,0,0,0,3,2,1,32,0003-00-0007-36.png,0002-00-0000-17.png
00000014,89,1,1440516061160,1440516061691,376,371,0,0,0,2,3,1,23,0002-00-0004-83.png,0003-00-0002-07.png
00000014,90,1,1440516062669,1440516063246,888,347,0,0,0,5,4,1,54,0005-00-0002-43.png,0004-00-0009-22.png
00000014,91,1,1440516064299,1440516064785,901,476,0,0,0,3,2,1,32,0003-00-0004-78.png,0002-00-0000-17.png
00000014,92,1,1440516065850,1440516066383,899,371,0,0,0,4,3,1,43,0004-00-0000-87.png,0003-00-0009-97.png
00000014,93,0,1440516067480,1440516067995,332,372,0,0,0,2,1,1,21,0002-00-0002-18.png,0001-00-0008-84.png
00000014,94,1,1440516070982,1440516071472,387,471,0,0,0,1,2,1,12,0001-00-0009-53.png,0002-00-0005-97.png
00000014,95,0,1440516072419,1440516072929,875,475,0,0,0,3,4,1,34,0003-00-0005-18.png,0004-00-0000-11.png
00000014,96,1,1440516075926,1440516075950,453,410,0,0,0,4,5,1,45,0004-00-0007-01.png,0005-00-0008-20.png
00000014,97,0,1440516076992,1440516077501,353,411,0,0,0,3,2,1,32,0003-00-0002-88.png,0002-00-0003-95.png
00000014,98,1,1440516080598,1440516081113,923,418,0,0,0,4,3,1,43,0004-00-0005-73.png,0003-00-0001-45.png
00000014,99,1,1440516082131,1440516082655,365,409,0,0,0,3,4,1,34,0003-00-0003-33.png,0004-00-0002-85.png
00000014,100,0,1440516083645,1440516084228,874,358,0,0,0,4,5,1,45,0004-00-0000-69.png,0005-00-0008-95.png
00000014,101,0,1440516087168,1440516087200,486,446,0,0,0,2,1,1,21,0002-00-0007-86.png,0001-00-0009-27.png
00000014,102,1,1440516090296,1440516090809,915,475,0,0,0,5,4,1,54,0005-00-0004-51.png,0004-00-0005-17.png
00000014,103,0,1440516091771,1440516092329,877,387,0,0,0,2,3,1,23,0002-00-0009-35.png,0003-00-0005-23.png
00000014,104,1,1440516095247,1440516095291,492,462,0,0,0,1,2,1,12,0001-00-0001-18.png,0002-00-0005-08.png
00000014,105,1,1440516096303,1440516096802,873,482,0,0,0,5,4,1,54,0005-00-0000-39.png,0004-00-0004-42.png
00000014,106,1,1440516097791,1440516098347,408,405,0,0,0,1,2,1,12,0001-00-0000-15.png,0002-00-0006-14.png
00000014,107,0,1440516099446,1440516099968,895,446,0,0,0,3,4,1,34,0003-00-0004-32.png,0004-00-0009-14.png
00000014,108,1,1440516103061,1440516103637,926,345,0,0,0,3,2,1,32,0003-00-0003-48.png,0002-00-0000-93.png
00000014,109,1,1440516104602,1440516105104,956,349,0,0,0,4,3,1,43,0004-00-0008-34.png,0003-00-0008-18.png
00000014,110,1,1440516106161,1440516106645,316,403,0,0,0,2,3,1,23,0002-00-0009-36.png,0003-00-0006-48.png
00000014,111,1,1440516107821,1440516108312,343,395,0,0,0,4,5,1,45,0004-00-0005-04.png,0005-00-0004-58.png
00000014,112,1,1440516109763,1440516110274,900,502,0,0,0,2,1,1,21,0002-00-0002-54.png,0001-00-0002-86.png
00000014,113,0,1440516111318,1440516111795,376,358,0,0,0,4,3,1,43,0004-00-0009-14.png,0003-00-0001-82.png
00000014,114,1,1440516114707,1440516114727,484,490,0,0,0,4,5,1,45,0004-00-0006-13.png,0005-00-0005-38.png
00000014,115,1,1440516115722,1440516116252,890,374,0,0,0,5,4,1,54,0005-00-0009-36.png,0004-00-0006-74.png
00000014,116,1,1440516117679,1440516118151,420,400,0,0,0,2,3,1,23,0002-00-0009-29.png,0003-00-0009-78.png
00000014,117,1,1440516119127,1440516119684,909,465,0,0,0,3,2,1,32,0003-00-0003-16.png,0002-00-0006-61.png
00000014,118,0,1440516120715,1440516121248,900,391,0,0,0,3,4,1,34,0003-00-0001-14.png,0004-00-0004-27.png
00000014,119,0,1440516124278,1440516124322,505,516,0,0,0,2,1,1,21,0002-00-0001-33.png,0001-00-0007-93.png
00000014,120,1,1440516127609,1440516128118,318,361,0,0,0,1,2,1,12,0001-00-0000-81.png,0002-00-0000-92.png
00000014,121,1,1440516129058,1440516129635,883,473,0,0,0,2,1,1,21,0002-00-0005-73.png,0001-00-0009-38.png
00000014,122,1,1440516130644,1440516131184,879,453,0,0,0,3,2,1,32,0003-00-0001-30.png,0002-00-0005-59.png
00000014,123,0,1440516132260,1440516132895,929,364,0,0,0,3,4,1,34,0003-00-0007-14.png,0004-00-0008-76.png
00000014,124,1,1440516135735,1440516135763,510,488,0,0,0,4,5,1,45,0004-00-0003-96.png,0005-00-0000-00.png
00000014,125,0,1440516137169,1440516137641,946,394,0,0,0,1,2,1,12,0001-00-0007-38.png,0002-00-0005-97.png
00000014,126,1,1440516140597,1440516140605,493,440,0,0,0,2,3,1,23,0002-00-0008-30.png,0003-00-0000-22.png
00000014,127,1,1440516141536,1440516142069,900,385,0,0,0,5,4,1,54,0005-00-0005-21.png,0004-00-0005-40.png
00000014,128,1,1440516143167,1440516143622,908,392,0,0,0,4,3,1,43,0004-00-0004-31.png,0003-00-0007-00.png
00000014,129,0,1440516144681,1440516145571,350,485,0,0,0,2,1,1,21,0002-00-0008-96.png,0001-00-0001-48.png
00000014,130,0,1440516148497,1440516148565,513,494,0,0,0,5,4,1,54,0005-00-0003-95.png,0004-00-0002-97.png
00000014,131,0,1440516151518,1440516151554,491,420,0,0,0,4,3,1,43,0004-00-0004-40.png,0003-00-0006-64.png
00000014,132,1,1440516154610,1440516154666,520,550,0,0,0,2,3,1,23,0002-00-0009-43.png,0003-00-0008-23.png
00000014,133,0,1440516155641,1440516156134,939,371,0,0,0,3,4,1,34,0003-00-0003-68.png,0004-00-0001-14.png
00000014,134,1,1440516159191,1440516159712,927,364,0,0,0,3,2,1,32,0003-00-0008-93.png,0002-00-0004-24.png
00000014,135,0,1440516160724,1440516161455,865,413,0,0,0,4,5,1,45,0004-00-0007-74.png,0005-00-0002-84.png
00000014,136,1,1440516164589,1440516164665,511,559,0,0,0,1,2,1,12,0001-00-0005-30.png,0002-00-0004-35.png
00000014,137,0,1440516166017,1440516166542,401,384,0,0,0,3,2,1,32,0003-00-0005-67.png,0002-00-0003-30.png
00000014,138,0,1440516169607,1440516170147,895,342,0,0,0,2,3,1,23,0002-00-0000-51.png,0003-00-0005-75.png
00000014,139,1,1440516174824,1440516175451,292,375,0,0,0,1,2,1,12,0001-00-0006-36.png,0002-00-0004-97.png
00000014,140,0,1440516176505,1440516177040,376,410,0,0,0,2,1,1,21,0002-00-0006-31.png,0001-00-0009-90.png
00000014,141,0,1440516180161,1440516180640,939,450,0,0,0,3,4,1,34,0003-00-0009-78.png,0004-00-0004-22.png
00000014,142,1,1440516183580,1440516183604,495,414,0,0,0,4,5,1,45,0004-00-0005-43.png,0005-00-0004-55.png
00000014,143,1,1440516184611,1440516185135,907,457,0,0,0,5,4,1,54,0005-00-0001-33.png,0004-00-0008-20.png
00000014,144,1,1440516186173,1440516186685,888,482,0,0,0,4,3,1,43,0004-00-0001-13.png,0003-00-0003-54.png
00000014,145,1,1440516187714,1440516188232,901,384,0,0,0,2,1,1,21,0002-00-0003-88.png,0001-00-0001-17.png
00000014,146,1,1440516189294,1440516189830,340,414,0,0,0,3,4,1,34,0003-00-0009-23.png,0004-00-0007-52.png
00000014,147,0,1440516190957,1440516191509,903,393,0,0,0,2,3,1,23,0002-00-0001-67.png,0003-00-0006-26.png
00000014,148,0,1440516194473,1440516194489,464,447,0,0,0,3,2,1,32,0003-00-0008-07.png,0002-00-0005-34.png
00000014,149,1,1440516197564,1440516198053,388,384,0,0,0,4,5,1,45,0004-00-0004-92.png,0005-00-0000-65.png
00000014,150,1,1440516199039,1440516199667,920,368,0,0,0,4,3,1,43,0004-00-0004-16.png,0003-00-0004-57.png
00000014,151,0,1440516200684,1440516201281,860,457,0,0,0,1,2,1,12,0001-00-0003-96.png,0002-00-0006-33.png
00000014,152,0,1440516204251,1440516204307,446,445,0,0,0,5,4,1,54,0005-00-0004-46.png,0004-00-0009-76.png
00000014,153,0,1440516207237,1440516207281,510,525,0,0,0,3,2,1,32,0003-00-0003-89.png,0002-00-0007-10.png
00000014,154,1,1440516210424,1440516210448,504,488,0,0,0,1,2,1,12,0001-00-0004-66.png,0002-00-0008-27.png
00000014,155,1,1440516211452,1440516211989,384,518,0,0,0,4,5,1,45,0004-00-0003-56.png,0005-00-0002-54.png
00000014,156,1,1440516213077,1440516213573,899,377,0,0,0,5,4,1,54,0005-00-0003-91.png,0004-00-0008-47.png
00000014,157,0,1440516214689,1440516215231,863,344,0,0,0,2,3,1,23,0002-00-0005-35.png,0003-00-0008-04.png
00000014,158,0,1440516218167,1440516218698,886,464,0,0,0,3,4,1,34,0003-00-0005-98.png,0004-00-0005-25.png
00000014,159,1,1440516221992,1440516222504,955,416,0,0,0,2,1,1,21,0002-00-0009-52.png,0001-00-0007-64.png
00000014,160,1,1440516223832,1440516224363,896,394,0,0,0,4,3,1,43,0004-00-0005-35.png,0003-00-0003-07.png
00000014,161,1,1440516225431,1440516225976,888,490,0,0,0,3,2,1,32,0003-00-0005-53.png,0002-00-0004-38.png
00000014,162,0,1440516227021,1440516227555,861,483,0,0,0,3,4,1,34,0003-00-0008-55.png,0004-00-0004-80.png
00000014,163,0,1440516230708,1440516231203,389,528,0,0,0,5,4,1,54,0005-00-0005-15.png,0004-00-0004-27.png
00000014,164,0,1440516234044,1440516234076,446,427,0,0,0,4,3,1,43,0004-00-0005-94.png,0003-00-0002-95.png
00000014,165,0,1440516237257,1440516237766,902,415,0,0,0,1,2,1,12,0001-00-0004-05.png,0002-00-0009-15.png
00000014,166,1,1440516240841,1440516241348,332,379,0,0,0,2,3,1,23,0002-00-0001-59.png,0003-00-0007-61.png
00000014,167,0,1440516242346,1440516243020,901,357,0,0,0,4,5,1,45,0004-00-0009-53.png,0005-00-0004-69.png
00000014,168,0,1440516245924,1440516245960,497,494,0,0,0,2,1,1,21,0002-00-0007-36.png,0001-00-0005-61.png
00000014,169,0,1440516249035,1440516249083,517,497,0,0,0,5,4,1,54,0005-00-0008-80.png,0004-00-0002-11.png
00000014,170,1,1440516252127,1440516252598,298,377,0,0,0,4,5,1,45,0004-00-0007-54.png,0005-00-0008-37.png
00000014,171,1,1440516253576,1440516254104,902,456,0,0,0,2,1,1,21,0002-00-0008-34.png,0001-00-0009-33.png
00000014,172,1,1440516255134,1440516255717,366,483,0,0,0,1,2,1,12,0001-00-0006-76.png,0002-00-0003-95.png
00000014,173,1,1440516256855,1440516257490,917,404,0,0,0,3,2,1,32,0003-00-0008-69.png,0002-00-0006-48.png
00000014,174,1,1440516258761,1440516259236,319,421,0,0,0,2,3,1,23,0002-00-0002-49.png,0003-00-0003-71.png
00000014,175,1,1440516260772,1440516261296,948,355,0,0,0,4,3,1,43,0004-00-0002-61.png,0003-00-0007-81.png
00000014,176,1,1440516262421,1440516262957,395,415,0,0,0,3,4,1,34,0003-00-0008-19.png,0004-00-0006-21.png
00000014,177,1,1440516264011,1440516264604,872,460,0,0,0,3,2,1,32,0003-00-0007-81.png,0002-00-0003-86.png
00000014,178,1,1440516265701,1440516266224,921,389,0,0,0,4,3,1,43,0004-00-0004-43.png,0003-00-0003-52.png
00000014,179,1,1440516267423,1440516267979,398,387,0,0,0,2,3,1,23,0002-00-0000-01.png,0003-00-0005-87.png
00000014,180,1,1440516269121,1440516269637,916,387,0,0,0,5,4,1,54,0005-00-0005-27.png,0004-00-0006-84.png
00000014,181,1,1440516271149,1440516271584,393,392,0,0,0,1,2,1,12,0001-00-0001-57.png,0002-00-0005-39.png
00000014,182,1,1440516272638,1440516273700,287,410,0,0,0,4,5,1,45,0004-00-0006-51.png,0005-00-0003-89.png
00000014,183,0,1440516275173,1440516275687,903,417,0,0,0,3,4,1,34,0003-00-0005-46.png,0004-00-0008-57.png
00000014,184,1,1440516278711,1440516279212,905,427,0,0,0,2,1,1,21,0002-00-0005-02.png,0001-00-0002-94.png
00000014,185,0,1440516280161,1440516280842,927,389,0,0,0,3,4,1,34,0003-00-0001-04.png,0004-00-0005-93.png
00000014,186,1,1440516285121,1440516285737,857,460,0,0,0,5,4,1,54,0005-00-0003-53.png,0004-00-0006-12.png
00000014,187,1,1440516287227,1440516287697,400,513,0,0,0,1,2,1,12,0001-00-0003-26.png,0002-00-0004-12.png
00000014,188,1,1440516289189,1440516289734,901,398,0,0,0,3,2,1,32,0003-00-0007-57.png,0002-00-0004-39.png
00000014,189,1,1440516290736,1440516291260,913,475,0,0,0,4,3,1,43,0004-00-0007-34.png,0003-00-0005-67.png
00000014,190,0,1440516292357,1440516292896,942,375,0,0,0,2,3,1,23,0002-00-0000-15.png,0003-00-0004-35.png
00000014,191,0,1440516296172,1440516296769,925,371,0,0,0,4,5,1,45,0004-00-0004-61.png,0005-00-0007-96.png
00000014,192,0,1440516299841,1440516299857,506,483,0,0,0,2,1,1,21,0002-00-0008-21.png,0001-00-0000-92.png
00000014,193,0,1440516303240,1440516303763,350,410,0,0,0,3,2,1,32,0003-00-0006-49.png,0002-00-0009-15.png
00000014,194,1,1440516306715,1440516306744,487,418,0,0,0,2,3,1,23,0002-00-0004-23.png,0003-00-0001-30.png
00000014,195,1,1440516307661,1440516308203,909,442,0,0,0,4,3,1,43,0004-00-0000-85.png,0003-00-0007-62.png
00000014,196,1,1440516309285,1440516309811,876,390,0,0,0,5,4,1,54,0005-00-0007-11.png,0004-00-0007-74.png
00000014,197,0,1440516310894,1440516311410,870,472,0,0,0,3,4,1,34,0003-00-0005-37.png,0004-00-0003-76.png
00000014,198,1,1440516314360,1440516314898,387,502,0,0,0,1,2,1,12,0001-00-0000-87.png,0002-00-0001-08.png
00000014,199,1,1440516315952,1440516316714,319,395,0,0,0,4,5,1,45,0004-00-0005-27.png,0005-00-0000-91.png
00000014,200,0,1440516317810,1440516318373,335,400,0,0,0,2,1,1,21,0002-00-0009-66.png,0001-00-0006-39.png
00000014,201,1,1440516321527,1440516322030,310,381,0,0,0,4,5,1,45,0004-00-0006-59.png,0005-00-0002-40.png
00000014,202,0,1440516323159,1440516323694,874,501,0,0,0,3,4,1,34,0003-00-0002-18.png,0004-00-0001-99.png
00000014,203,1,1440516327410,1440516327902,299,422,0,0,0,2,3,1,23,0002-00-0007-12.png,0003-00-0006-16.png
00000014,204,1,1440516328932,1440516329506,293,395,0,0,0,1,2,1,12,0001-00-0005-96.png,0002-00-0005-41.png
00000014,205,0,1440516330560,1440516331103,338,410,0,0,0,5,4,1,54,0005-00-0001-12.png,0004-00-0001-06.png
00000014,206,0,1440516335381,1440516335867,401,358,0,0,0,4,3,1,43,0004-00-0008-51.png,0003-00-0005-61.png
00000014,207,1,1440516338970,1440516339559,886,471,0,0,0,3,2,1,32,0003-00-0001-54.png,0002-00-0001-33.png
00000014,208,0,1440516340622,1440516341165,318,420,0,0,0,2,1,1,21,0002-00-0001-64.png,0001-00-0008-93.png
00000014,209,1,1440516346913,1440516347338,317,410,0,0,0,4,5,1,45,0004-00-0006-93.png,0005-00-0008-34.png
00000014,210,0,1440516348398,1440516348944,898,459,0,0,0,2,3,1,23,0002-00-0005-34.png,0003-00-0005-29.png
00000014,211,0,1440516352084,1440516352120,510,482,0,0,0,3,2,1,32,0003-00-0000-64.png,0002-00-0002-94.png
00000014,212,0,1440516354996,1440516355024,499,461,0,0,0,2,1,1,21,0002-00-0009-85.png,0001-00-0001-66.png
00000014,213,1,1440516358088,1440516358108,520,456,0,0,0,3,4,1,34,0003-00-0006-60.png,0004-00-0002-10.png
00000014,214,1,1440516359084,1440516359558,928,389,0,0,0,4,3,1,43,0004-00-0003-56.png,0003-00-0000-90.png
00000014,215,0,1440516360634,1440516361169,906,375,0,0,0,1,2,1,12,0001-00-0003-08.png,0002-00-0006-53.png
00000014,216,0,1440516364111,1440516364135,494,419,0,0,0,5,4,1,54,0005-00-0003-61.png,0004-00-0008-19.png
00000014,217,0,1440516367221,1440516367745,325,390,0,0,0,4,3,1,43,0004-00-0005-98.png,0003-00-0009-66.png
00000014,218,0,1440516370650,1440516370674,498,493,0,0,0,2,1,1,21,0002-00-0005-74.png,0001-00-0006-86.png
00000014,219,1,1440516374417,1440516374931,354,509,0,0,0,3,4,1,34,0003-00-0006-39.png,0004-00-0000-29.png
00000014,220,1,1440516375918,1440516376460,901,450,0,0,0,5,4,1,54,0005-00-0002-81.png,0004-00-0008-88.png
00000014,221,1,1440516377448,1440516378009,315,392,0,0,0,1,2,1,12,0001-00-0000-00.png,0002-00-0007-70.png
00000014,222,1,1440516379003,1440516379556,320,410,0,0,0,4,5,1,45,0004-00-0005-63.png,0005-00-0001-79.png
00000014,223,0,1440516380698,1440516381220,925,462,0,0,0,2,3,1,23,0002-00-0002-01.png,0003-00-0004-01.png
00000014,224,0,1440516384164,1440516384252,487,470,0,0,0,3,2,1,32,0003-00-0008-66.png,0002-00-0001-92.png
00000014,225,1,1440516387386,1440516387860,349,488,0,0,0,1,2,1,12,0001-00-0001-69.png,0002-00-0003-80.png
00000014,226,1,1440516388926,1440516389440,924,380,0,0,0,4,3,1,43,0004-00-0008-51.png,0003-00-0001-51.png
00000014,227,1,1440516390437,1440516390959,918,410,0,0,0,2,1,1,21,0002-00-0005-19.png,0001-00-0001-54.png
00000014,228,1,1440516392047,1440516392557,906,428,0,0,0,3,2,1,32,0003-00-0003-12.png,0002-00-0001-75.png
00000014,229,1,1440516393548,1440516394042,376,397,0,0,0,2,3,1,23,0002-00-0000-15.png,0003-00-0001-89.png
00000014,230,1,1440516395129,1440516395655,335,407,0,0,0,4,5,1,45,0004-00-0006-72.png,0005-00-0002-44.png
00000014,231,0,1440516396814,1440516397343,901,520,0,0,0,3,4,1,34,0003-00-0001-81.png,0004-00-0004-33.png
00000014,232,1,1440516400201,1440516400835,922,367,0,0,0,5,4,1,54,0005-00-0004-72.png,0004-00-0006-49.png
00000014,233,1,1440516401800,1440516402271,401,396,0,0,0,2,3,1,23,0002-00-0000-10.png,0003-00-0002-09.png
00000014,234,1,1440516403322,1440516403911,888,435,0,0,0,2,1,1,21,0002-00-0004-76.png,0001-00-0009-06.png
00000014,235,1,1440516404960,1440516405446,887,509,0,0,0,3,2,1,32,0003-00-0000-64.png,0002-00-0006-90.png
00000014,236,0,1440516406541,1440516407067,887,424,0,0,0,3,4,1,34,0003-00-0003-89.png,0004-00-0002-40.png
00000014,237,1,1440516410073,1440516410599,879,428,0,0,0,4,3,1,43,0004-00-0009-13.png,0003-00-0009-84.png
00000014,238,1,1440516411587,1440516412125,887,398,0,0,0,5,4,1,54,0005-00-0000-97.png,0004-00-0004-46.png
00000014,239,0,1440516413238,1440516413722,880,401,0,0,0,4,5,1,45,0004-00-0007-07.png,0005-00-0000-77.png
00000014,240,1,1440516416757,1440516416773,461,461,0,0,0,1,2,1,12,0001-00-0009-41.png,0002-00-0000-65.png
00000014,241,1,1440516417729,1440516418201,384,393,0,0,0,4,5,1,45,0004-00-0007-93.png,0005-00-0002-43.png
00000014,242,1,1440516419301,1440516419797,316,391,0,0,0,1,2,1,12,0001-00-0006-42.png,0002-00-0008-38.png
00000014,243,0,1440516420899,1440516421460,341,422,0,0,0,2,1,1,21,0002-00-0007-89.png,0001-00-0003-82.png
00000014,244,0,1440516424607,1440516425149,907,384,0,0,0,2,3,1,23,0002-00-0009-23.png,0003-00-0003-66.png
00000014,245,0,1440516428314,1440516428848,383,397,0,0,0,3,2,1,32,0003-00-0002-40.png,0002-00-0005-69.png
00000014,246,0,1440516431931,1440516432483,963,398,0,0,0,3,4,1,34,0003-00-0008-78.png,0004-00-0007-27.png
00000014,247,1,1440516435559,1440516436086,912,371,0,0,0,5,4,1,54,0005-00-0003-18.png,0004-00-0006-91.png
00000014,248,1,1440516437108,1440516437607,875,411,0,0,0,4,3,1,43,0004-00-0003-47.png,0003-00-0000-57.png
00000014,249,0,1440516438660,1440516439213,887,460,0,0,0,2,3,1,23,0002-00-0008-42.png,0003-00-0007-28.png
00000014,250,0,1440516442099,1440516442123,480,460,0,0,0,4,3,1,43,0004-00-0000-47.png,0003-00-0003-44.png
00000014,251,1,1440516445030,1440516445066,507,415,0,0,0,3,4,1,34,0003-00-0006-12.png,0004-00-0004-30.png
00000014,252,1,1440516446056,1440516446607,324,398,0,0,0,1,2,1,12,0001-00-0000-40.png,0002-00-0005-84.png
00000014,253,1,1440516447676,1440516448219,898,487,0,0,0,3,2,1,32,0003-00-0004-03.png,0002-00-0006-92.png
00000014,254,1,1440516449264,1440516449786,389,512,0,0,0,4,5,1,45,0004-00-0007-76.png,0005-00-0008-45.png
00000014,255,1,1440516450831,1440516451412,889,397,0,0,0,5,4,1,54,0005-00-0009-22.png,0004-00-0006-11.png
00000014,256,1,1440516452455,1440516452940,925,385,0,0,0,2,1,1,21,0002-00-0002-43.png,0001-00-0003-26.png
00000014,257,0,1440516454035,1440516454603,883,515,0,0,0,1,2,1,12,0001-00-0006-95.png,0002-00-0004-66.png
00000014,258,1,1440516457449,1440516457497,505,471,0,0,0,2,3,1,23,0002-00-0007-70.png,0003-00-0007-16.png
00000014,259,1,1440516458498,1440516458960,860,509,0,0,0,4,3,1,43,0004-00-0009-22.png,0003-00-0007-22.png
00000014,260,1,1440516460049,1440516460538,340,397,0,0,0,3,4,1,34,0003-00-0006-82.png,0004-00-0001-12.png
00000014,261,0,1440516461628,1440516462248,319,436,0,0,0,2,1,1,21,0002-00-0005-53.png,0001-00-0009-90.png
00000014,262,1,1440516465394,1440516465843,376,358,0,0,0,4,5,1,45,0004-00-0002-02.png,0005-00-0009-92.png
00000014,263,1,1440516466825,1440516467393,902,409,0,0,0,3,2,1,32,0003-00-0009-59.png,0002-00-0001-29.png
00000014,264,1,1440516468680,1440516469171,870,497,0,0,0,5,4,1,54,0005-00-0008-03.png,0004-00-0002-48.png
00000014,265,1,1440516470220,1440516470748,905,416,0,0,0,3,2,1,32,0003-00-0001-22.png,0002-00-0001-28.png
00000014,266,0,1440516471837,1440516472384,402,403,0,0,0,5,4,1,54,0005-00-0002-10.png,0004-00-0008-68.png
00000014,267,0,1440516475450,1440516475486,478,477,0,0,0,2,1,1,21,0002-00-0009-52.png,0001-00-0005-96.png
00000014,268,1,1440516478374,1440516478418,493,489,0,0,0,2,3,1,23,0002-00-0005-28.png,0003-00-0003-93.png
00000014,269,0,1440516479764,1440516480217,899,413,0,0,0,3,4,1,34,0003-00-0007-22.png,0004-00-0009-26.png
00000014,270,0,1440516483202,1440516483206,478,448,0,0,0,4,3,1,43,0004-00-0007-12.png,0003-00-0000-74.png
00000014,271,1,1440516486462,1440516486929,370,488,0,0,0,1,2,1,12,0001-00-0004-37.png,0002-00-0005-90.png
00000014,272,0,1440516487955,1440516488520,870,367,0,0,0,4,5,1,45,0004-00-0006-97.png,0005-00-0005-34.png
00000014,273,1,1440516491613,1440516492157,314,391,0,0,0,3,4,1,34,0003-00-0003-75.png,0004-00-0005-64.png
00000014,274,1,1440516493162,1440516493679,901,475,0,0,0,5,4,1,54,0005-00-0004-56.png,0004-00-0009-83.png
00000014,275,0,1440516494612,1440516495139,338,394,0,0,0,2,1,1,21,0002-00-0005-73.png,0001-00-0005-12.png
00000014,276,1,1440516498446,1440516498935,344,504,0,0,0,1,2,1,12,0001-00-0005-10.png,0002-00-0004-92.png
00000014,277,1,1440516499958,1440516500475,862,397,0,0,0,3,2,1,32,0003-00-0008-42.png,0002-00-0006-88.png
00000014,278,1,1440516501550,1440516502091,299,378,0,0,0,4,5,1,45,0004-00-0002-41.png,0005-00-0008-34.png
00000014,279,1,1440516503134,1440516503681,904,407,0,0,0,4,3,1,43,0004-00-0009-98.png,0003-00-0009-90.png
00000014,280,0,1440516504739,1440516505301,873,509,0,0,0,2,3,1,23,0002-00-0004-02.png,0003-00-0006-26.png
00000014,281,1,1440516508285,1440516508333,516,462,0,0,0,2,3,1,23,0002-00-0004-98.png,0003-00-0009-78.png
00000014,282,1,1440516509318,1440516509849,398,387,0,0,0,1,2,1,12,0001-00-0002-39.png,0002-00-0008-60.png
00000014,283,0,1440516510876,1440516511432,391,402,0,0,0,2,1,1,21,0002-00-0006-28.png,0001-00-0006-07.png
00000014,284,1,1440516514326,1440516514903,925,371,0,0,0,5,4,1,54,0005-00-0009-23.png,0004-00-0007-30.png
00000014,285,1,1440516516245,1440516516827,389,490,0,0,0,4,5,1,45,0004-00-0001-53.png,0005-00-0004-16.png
00000014,286,1,1440516517826,1440516518333,857,527,0,0,0,3,2,1,32,0003-00-0005-20.png,0002-00-0009-81.png
00000014,287,0,1440516519352,1440516519847,858,515,0,0,0,3,4,1,34,0003-00-0003-22.png,0004-00-0009-79.png
00000014,288,0,1440516522815,1440516522851,435,517,0,0,0,4,3,1,43,0004-00-0005-54.png,0003-00-0007-39.png
00000014,289,1,1440516525877,1440516526357,900,423,0,0,0,3,2,1,32,0003-00-0009-29.png,0002-00-0005-90.png
00000014,290,1,1440516527279,1440516527779,857,524,0,0,0,2,1,1,21,0002-00-0005-03.png,0001-00-0004-66.png
00000014,291,1,1440516528838,1440516529307,317,413,0,0,0,1,2,1,12,0001-00-0006-61.png,0002-00-0008-01.png
00000014,292,0,1440516530460,1440516531001,389,476,0,0,0,4,3,1,43,0004-00-0000-92.png,0003-00-0008-84.png
00000014,293,1,1440516533945,1440516533961,513,462,0,0,0,4,5,1,45,0004-00-0008-19.png,0005-00-0002-43.png
00000014,294,0,1440516534870,1440516535378,900,424,0,0,0,3,4,1,34,0003-00-0002-00.png,0004-00-0007-92.png
00000014,295,1,1440516538469,1440516538950,281,419,0,0,0,2,3,1,23,0002-00-0003-63.png,0003-00-0000-57.png
00000014,296,1,1440516539928,1440516541021,896,394,0,0,0,5,4,1,54,0005-00-0008-57.png,0004-00-0009-23.png
00000014,297,1,1440516542016,1440516542510,900,371,0,0,0,5,4,1,54,0005-00-0004-91.png,0004-00-0003-99.png
00000014,298,0,1440516543585,1440516544101,879,452,0,0,0,3,4,1,34,0003-00-0006-72.png,0004-00-0004-56.png
00000014,299,0,1440516547126,1440516547178,518,486,0,0,0,2,1,1,21,0002-00-0000-85.png,0001-00-0003-03.png
00000014,300,1,1440516550351,1440516550845,292,409,0,0,0,1,2,1,12,0001-00-0001-93.png,0002-00-0003-81.png
00000014,301,0,1440516551895,1440516552426,376,384,0,0,0,4,3,1,43,0004-00-0004-69.png,0003-00-0009-97.png
00000014,302,0,1440516555610,1440516556111,904,375,0,0,0,2,3,1,23,0002-00-0008-00.png,0003-00-0000-14.png
00000014,303,0,1440516559730,1440516560149,297,371,0,0,0,3,2,1,32,0003-00-0007-73.png,0002-00-0002-98.png
00000014,304,1,1440516563292,1440516563328,504,452,0,0,0,4,5,1,45,0004-00-0003-17.png,0005-00-0003-08.png
00000014,305,0,1440516564335,1440516564949,299,386,0,0,0,4,3,1,43,0004-00-0008-06.png,0003-00-0003-55.png
00000014,306,0,1440516568041,1440516568569,879,427,0,0,0,2,3,1,23,0002-00-0001-22.png,0003-00-0006-62.png
00000014,307,1,1440516571939,1440516572461,325,397,0,0,0,3,4,1,34,0003-00-0008-46.png,0004-00-0002-74.png
00000014,308,1,1440516573430,1440516574070,900,449,0,0,0,3,2,1,32,0003-00-0004-15.png,0002-00-0005-21.png
00000014,309,1,1440516575067,1440516575588,916,405,0,0,0,2,1,1,21,0002-00-0006-44.png,0001-00-0001-80.png
00000014,310,1,1440516576570,1440516577168,345,397,0,0,0,4,5,1,45,0004-00-0004-82.png,0005-00-0003-56.png
00000014,311,1,1440516578180,1440516578726,880,505,0,0,0,5,4,1,54,0005-00-0000-31.png,0004-00-0000-04.png
00000014,312,1,1440516579729,1440516580199,325,423,0,0,0,1,2,1,12,0001-00-0002-17.png,0002-00-0003-94.png
00000014,313,0,1440516581260,1440516581755,319,421,0,0,0,3,2,1,32,0003-00-0009-99.png,0002-00-0008-46.png
00000014,314,1,1440516584740,1440516584800,490,492,0,0,0,3,4,1,34,0003-00-0007-63.png,0004-00-0000-85.png
00000014,315,1,1440516586161,1440516586687,871,420,0,0,0,5,4,1,54,0005-00-0004-91.png,0004-00-0004-84.png
00000014,316,1,1440516587622,1440516588508,285,397,0,0,0,4,5,1,45,0004-00-0000-86.png,0005-00-0003-11.png
00000014,317,0,1440516589490,1440516589962,928,387,0,0,0,1,2,1,12,0001-00-0003-60.png,0002-00-0003-17.png
00000014,318,1,1440516592949,1440516592985,485,464,0,0,0,2,3,1,23,0002-00-0004-11.png,0003-00-0009-34.png
00000014,319,0,1440516593944,1440516594486,318,421,0,0,0,2,1,1,21,0002-00-0001-64.png,0001-00-0002-28.png
00000014,320,0,1440516597410,1440516597434,513,499,0,0,0,4,3,1,43,0004-00-0000-56.png,0003-00-0004-63.png
00000014,321,1,1440516600447,1440516600471,492,449,0,0,0,1,2,1,12,0001-00-0009-28.png,0002-00-0000-54.png
00000014,322,0,1440516601428,1440516601972,324,391,0,0,0,2,1,1,21,0002-00-0000-79.png,0001-00-0000-22.png
00000014,323,0,1440516604913,1440516604933,472,434,0,0,0,5,4,1,54,0005-00-0006-42.png,0004-00-0004-32.png
00000014,324,1,1440516607835,1440516607879,453,535,0,0,0,4,5,1,45,0004-00-0005-65.png,0005-00-0006-02.png
00000014,325,1,1440516608858,1440516609584,861,463,0,0,0,3,2,1,32,0003-00-0001-62.png,0002-00-0000-42.png
00000014,326,0,1440516610499,1440516611022,925,430,0,0,0,3,4,1,34,0003-00-0004-30.png,0004-00-0004-30.png
00000014,327,1,1440516613966,1440516614440,306,408,0,0,0,2,3,1,23,0002-00-0005-26.png,0003-00-0005-01.png
00000014,328,1,1440516615418,1440516615911,927,423,0,0,0,4,3,1,43,0004-00-0006-18.png,0003-00-0000-12.png
00000014,329,0,1440516616939,1440516617412,880,401,0,0,0,2,3,1,23,0002-00-0006-30.png,0003-00-0006-87.png
00000014,330,0,1440516620295,1440516620315,492,448,0,0,0,2,1,1,21,0002-00-0002-67.png,0001-00-0007-53.png
00000014,331,0,1440516624600,1440516625211,378,387,0,0,0,4,3,1,43,0004-00-0009-00.png,0003-00-0000-05.png
00000014,332,0,1440516628095,1440516628732,954,387,0,0,0,1,2,1,12,0001-00-0007-84.png,0002-00-0006-61.png
00000014,333,0,1440516632098,1440516632687,878,454,0,0,0,3,4,1,34,0003-00-0008-93.png,0004-00-0006-78.png
00000014,334,0,1440516635691,1440516635727,496,497,0,0,0,3,2,1,32,0003-00-0009-94.png,0002-00-0009-99.png
00000014,335,1,1440516638590,1440516639122,889,405,0,0,0,5,4,1,54,0005-00-0004-22.png,0004-00-0004-35.png
00000014,336,1,1440516640096,1440516640629,342,380,0,0,0,4,5,1,45,0004-00-0002-68.png,0005-00-0009-90.png
00000014,337,1,1440516641606,1440516642152,881,382,0,0,0,5,4,1,54,0005-00-0003-76.png,0004-00-0009-38.png
00000014,338,1,1440516643204,1440516643749,908,393,0,0,0,3,2,1,32,0003-00-0001-71.png,0002-00-0004-75.png
00000014,339,0,1440516644766,1440516645295,858,488,0,0,0,2,3,1,23,0002-00-0002-91.png,0003-00-0009-14.png
00000014,340,1,1440516649417,1440516649922,284,406,0,0,0,1,2,1,12,0001-00-0001-67.png,0002-00-0000-87.png
00000014,341,1,1440516650907,1440516651549,913,508,0,0,0,2,1,1,21,0002-00-0005-00.png,0001-00-0004-34.png
00000014,342,1,1440516652528,1440516653037,901,410,0,0,0,4,3,1,43,0004-00-0001-53.png,0003-00-0008-47.png
00000014,343,0,1440516653997,1440516654508,876,409,0,0,0,4,5,1,45,0004-00-0003-51.png,0005-00-0007-14.png
00000014,344,0,1440516657653,1440516658142,885,399,0,0,0,3,4,1,34,0003-00-0009-04.png,0004-00-0000-49.png
00000014,345,0,1440516661064,1440516661096,464,477,0,0,0,3,2,1,32,0003-00-0006-89.png,0002-00-0007-71.png
00000014,346,1,1440516664301,1440516664879,335,398,0,0,0,2,3,1,23,0002-00-0002-69.png,0003-00-0005-96.png
00000014,347,1,1440516665878,1440516666376,901,410,0,0,0,4,3,1,43,0004-00-0009-32.png,0003-00-0007-01.png
00000014,348,1,1440516667354,1440516667891,879,458,0,0,0,5,4,1,54,0005-00-0000-86.png,0004-00-0007-95.png
00000014,349,0,1440516668936,1440516669573,904,387,0,0,0,3,4,1,34,0003-00-0007-14.png,0004-00-0002-59.png
00000014,350,1,1440516672819,1440516673382,366,522,0,0,0,1,2,1,12,0001-00-0002-23.png,0002-00-0001-67.png
00000014,351,1,1440516674322,1440516674799,906,402,0,0,0,2,1,1,21,0002-00-0003-98.png,0001-00-0001-22.png
00000014,352,0,1440516675752,1440516676279,896,420,0,0,0,4,5,1,45,0004-00-0004-49.png,0005-00-0004-65.png
00000014,353,1,1440516679316,1440516679834,392,546,0,0,0,1,2,1,12,0001-00-0004-35.png,0002-00-0006-26.png
00000014,354,1,1440516680771,1440516681519,897,534,0,0,0,4,3,1,43,0004-00-0003-95.png,0003-00-0008-43.png
00000014,355,1,1440516686206,1440516686910,898,517,0,0,0,3,2,1,32,0003-00-0006-61.png,0002-00-0008-55.png
00000014,356,0,1440516688920,1440516689470,888,484,0,0,0,4,5,1,45,0004-00-0000-45.png,0005-00-0005-22.png
00000014,357,1,1440516697973,1440516698609,287,337,0,0,0,3,4,1,34,0003-00-0008-11.png,0004-00-0006-33.png
00000014,358,0,1440516699866,1440516700381,310,399,0,0,0,5,4,1,54,0005-00-0003-44.png,0004-00-0002-79.png
00000014,359,0,1440516705938,1440516706574,311,384,0,0,0,2,1,1,21,0002-00-0003-55.png,0001-00-0002-71.png
00000014,360,1,1440516710192,1440516710697,325,397,0,0,0,2,3,1,23,0002-00-0007-55.png,0003-00-0003-95.png
00000014,361,0,1440516711752,1440516712292,879,480,0,0,0,3,4,1,34,0003-00-0005-27.png,0004-00-0008-78.png
00000014,362,1,1440516715202,1440516715689,323,424,0,0,0,2,3,1,23,0002-00-0007-63.png,0003-00-0001-51.png
00000014,363,1,1440516716611,1440516717105,973,393,0,0,0,4,3,1,43,0004-00-0006-02.png,0003-00-0008-18.png
00000014,364,1,1440516718122,1440516718654,350,403,0,0,0,1,2,1,12,0001-00-0009-23.png,0002-00-0009-75.png
00000014,365,0,1440516719683,1440516720225,880,427,0,0,0,4,5,1,45,0004-00-0002-85.png,0005-00-0009-11.png
00000014,366,0,1440516723148,1440516723180,493,456,0,0,0,5,4,1,54,0005-00-0003-58.png,0004-00-0009-61.png
00000014,367,0,1440516726200,1440516726703,309,400,0,0,0,3,2,1,32,0003-00-0005-04.png,0002-00-0002-40.png
00000014,368,0,1440516729749,1440516729777,494,470,0,0,0,2,1,1,21,0002-00-0009-03.png,0001-00-0007-37.png
00000014,369,0,1440516733247,1440516733835,904,454,0,0,0,3,4,1,34,0003-00-0002-28.png,0004-00-0005-67.png
00000014,370,1,1440516736895,1440516737444,926,410,0,0,0,2,1,1,21,0002-00-0005-97.png,0001-00-0004-95.png
00000014,371,1,1440516738387,1440516738940,869,497,0,0,0,4,3,1,43,0004-00-0009-42.png,0003-00-0000-26.png
00000014,372,0,1440516739876,1440516740409,345,420,0,0,0,3,2,1,32,0003-00-0001-36.png,0002-00-0004-25.png
00000014,373,0,1440516743674,1440516744175,911,399,0,0,0,1,2,1,12,0001-00-0007-03.png,0002-00-0000-40.png
00000014,374,1,1440516747282,1440516747767,321,398,0,0,0,4,5,1,45,0004-00-0008-83.png,0005-00-0004-82.png
00000014,375,0,1440516748812,1440516749345,874,502,0,0,0,2,3,1,23,0002-00-0009-33.png,0003-00-0007-15.png
00000014,376,0,1440516752520,1440516753479,446,512,0,0,0,5,4,1,54,0005-00-0000-20.png,0004-00-0009-25.png
00000014,377,0,1440516756483,1440516757050,876,502,0,0,0,4,5,1,45,0004-00-0003-91.png,0005-00-0007-77.png
00000014,378,1,1440516760201,1440516760209,508,491,0,0,0,3,4,1,34,0003-00-0006-20.png,0004-00-0009-47.png
00000014,379,1,1440516761178,1440516761766,862,410,0,0,0,4,3,1,43,0004-00-0003-00.png,0003-00-0003-34.png
00000014,380,0,1440516762715,1440516763657,453,397,0,0,0,5,4,1,54,0005-00-0006-19.png,0004-00-0008-87.png
00000014,381,0,1440516766641,1440516766645,484,442,0,0,0,2,1,1,21,0002-00-0000-71.png,0001-00-0000-23.png
00000014,382,0,1440516769582,1440516769586,459,422,0,0,0,3,2,1,32,0003-00-0002-15.png,0002-00-0001-09.png
00000014,383,1,1440516772699,1440516773340,386,371,0,0,0,2,3,1,23,0002-00-0006-07.png,0003-00-0004-19.png
00000014,384,0,1440516774324,1440516774924,872,418,0,0,0,1,2,1,12,0001-00-0008-96.png,0002-00-0005-08.png
00000014,385,1,1440516777809,1440516777837,462,488,0,0,0,3,4,1,34,0003-00-0004-37.png,0004-00-0000-83.png
00000014,386,1,1440516778845,1440516779347,293,416,0,0,0,1,2,1,12,0001-00-0000-19.png,0002-00-0001-68.png
00000014,387,0,1440516780396,1440516780958,387,488,0,0,0,3,2,1,32,0003-00-0002-93.png,0002-00-0008-45.png
00000014,388,1,1440516783973,1440516784480,896,497,0,0,0,2,1,1,21,0002-00-0001-51.png,0001-00-0006-01.png
00000014,389,1,1440516785414,1440516786128,902,415,0,0,0,4,3,1,43,0004-00-0006-87.png,0003-00-0006-46.png
00000014,390,0,1440516787094,1440516787665,336,410,0,0,0,5,4,1,54,0005-00-0002-78.png,0004-00-0004-09.png
00000014,391,1,1440516790829,1440516791324,376,384,0,0,0,4,5,1,45,0004-00-0004-59.png,0005-00-0009-19.png
00000014,392,0,1440516792281,1440516792752,905,427,0,0,0,2,3,1,23,0002-00-0006-43.png,0003-00-0002-49.png
00000014,393,0,1440516797197,1440516797776,874,467,0,0,0,3,4,1,34,0003-00-0001-34.png,0004-00-0002-93.png
00000014,394,1,1440516800799,1440516800823,456,466,0,0,0,1,2,1,12,0001-00-0001-19.png,0002-00-0008-80.png
00000014,395,1,1440516801830,1440516802348,888,372,0,0,0,3,2,1,32,0003-00-0002-72.png,0002-00-0005-33.png
00000014,396,1,1440516803394,1440516804038,335,417,0,0,0,4,5,1,45,0004-00-0006-46.png,0005-00-0004-19.png
00000014,397,1,1440516805450,1440516805960,880,401,0,0,0,4,3,1,43,0004-00-0003-96.png,0003-00-0001-20.png
00000014,398,1,1440516807338,1440516807922,879,427,0,0,0,5,4,1,54,0005-00-0002-26.png,0004-00-0005-00.png
00000014,399,1,1440516808885,1440516809472,874,411,0,0,0,2,1,1,21,0002-00-0000-96.png,0001-00-0008-52.png
00000014,400,1,1440516810441,1440516811417,316,443,0,0,0,2,3,1,23,0002-00-0003-55.png,0003-00-0005-80.png
00000014,401,0,1440516812345,1440516812971,887,423,0,0,0,3,4,1,34,0003-00-0002-11.png,0004-00-0008-30.png
00000014,402,1,1440516816242,1440516817249,928,439,0,0,0,5,4,1,54,0005-00-0000-13.png,0004-00-0002-69.png
00000014,403,1,1440516818136,1440516818765,862,528,0,0,0,4,3,1,43,0004-00-0009-35.png,0003-00-0008-47.png
00000014,404,0,1440516819750,1440516820312,862,345,0,0,0,2,3,1,23,0002-00-0000-62.png,0003-00-0003-86.png
00000014,405,1,1440516823381,1440516823385,466,431,0,0,0,1,2,1,12,0001-00-0002-77.png,0002-00-0002-65.png
00000014,406,0,1440516824533,1440516825067,878,417,0,0,0,4,5,1,45,0004-00-0007-72.png,0005-00-0005-73.png
00000014,407,0,1440516828138,1440516828648,376,436,0,0,0,2,1,1,21,0002-00-0001-89.png,0001-00-0005-69.png
00000014,408,0,1440516831615,1440516831640,499,505,0,0,0,3,2,1,32,0003-00-0000-81.png,0002-00-0005-30.png
00000014,409,1,1440516834608,1440516835207,928,416,0,0,0,2,1,1,21,0002-00-0008-17.png,0001-00-0009-04.png
00000014,410,1,1440516836118,1440516836703,426,384,0,0,0,4,5,1,45,0004-00-0002-77.png,0005-00-0009-43.png
00000014,411,0,1440516837689,1440516838235,401,384,0,0,0,5,4,1,54,0005-00-0007-66.png,0004-00-0003-43.png
00000014,412,1,1440516841087,1440516841667,947,367,0,0,0,3,2,1,32,0003-00-0007-20.png,0002-00-0006-36.png
00000014,413,1,1440516842588,1440516842636,516,436,0,0,0,1,2,1,12,0001-00-0000-98.png,0002-00-0003-00.png
00000014,414,1,1440516843757,1440516844221,896,498,0,0,0,4,3,1,43,0004-00-0007-73.png,0003-00-0000-12.png
00000014,415,1,1440516845198,1440516845762,356,425,0,0,0,3,4,1,34,0003-00-0003-11.png,0004-00-0005-99.png
00000014,416,1,1440516846763,1440516847297,380,430,0,0,0,2,3,1,23,0002-00-0004-69.png,0003-00-0000-02.png
00000014,417,0,1440516848283,1440516848299,504,462,0,0,0,4,3,1,43,0004-00-0002-34.png,0003-00-0008-89.png
00000014,418,0,1440516852179,1440516852684,863,527,0,0,0,3,4,1,34,0003-00-0008-78.png,0004-00-0000-86.png
00000014,419,0,1440516855675,1440516856229,390,512,0,0,0,2,1,1,21,0002-00-0006-33.png,0001-00-0007-84.png
00000014,420,1,1440516859243,1440516859247,456,458,0,0,0,4,5,1,45,0004-00-0001-85.png,0005-00-0002-07.png
00000014,421,1,1440516860652,1440516861223,409,522,0,0,0,1,2,1,12,0001-00-0002-81.png,0002-00-0009-84.png
00000014,422,1,1440516862215,1440516862751,883,500,0,0,0,3,2,1,32,0003-00-0005-84.png,0002-00-0009-62.png
00000014,423,0,1440516863796,1440516864295,921,419,0,0,0,2,3,1,23,0002-00-0009-15.png,0003-00-0002-02.png
00000014,424,0,1440516867393,1440516867906,339,418,0,0,0,5,4,1,54,0005-00-0003-72.png,0004-00-0008-17.png
00000014,425,1,1440516870822,1440516871452,938,424,0,0,0,3,2,1,32,0003-00-0003-99.png,0002-00-0009-04.png
00000014,426,0,1440516872412,1440516872429,504,436,0,0,0,4,3,1,43,0004-00-0005-31.png,0003-00-0007-90.png
00000014,427,0,1440516875432,1440516875929,911,425,0,0,0,3,4,1,34,0003-00-0004-15.png,0004-00-0002-12.png
00000014,428,1,1440516879343,1440516879842,397,519,0,0,0,2,3,1,23,0002-00-0002-00.png,0003-00-0008-70.png
00000014,429,1,1440516880953,1440516881441,407,515,0,0,0,1,2,1,12,0001-00-0002-32.png,0002-00-0009-94.png
00000014,430,1,1440516882511,1440516883069,923,403,0,0,0,2,1,1,21,0002-00-0004-33.png,0001-00-0007-67.png
00000014,431,1,1440516883980,1440516884572,360,408,0,0,0,4,5,1,45,0004-00-0008-26.png,0005-00-0002-05.png
00000014,432,0,1440516885610,1440516886214,332,419,0,0,0,5,4,1,54,0005-00-0005-36.png,0004-00-0008-86.png
00000014,433,0,1440516890500,1440516891027,408,398,0,0,0,4,3,1,43,0004-00-0008-63.png,0003-00-0002-15.png
00000014,434,1,1440516893901,1440516894462,952,436,0,0,0,5,4,1,54,0005-00-0001-30.png,0004-00-0000-87.png
00000014,435,0,1440516895479,1440516896003,911,399,0,0,0,3,4,1,34,0003-00-0002-91.png,0004-00-0007-80.png
00000014,436,1,1440516899515,1440516900031,875,502,0,0,0,3,2,1,32,0003-00-0003-02.png,0002-00-0001-89.png
00000014,437,1,1440516900941,1440516901489,362,393,0,0,0,1,2,1,12,0001-00-0002-55.png,0002-00-0004-81.png
00000014,438,1,1440516902546,1440516903091,377,408,0,0,0,4,5,1,45,0004-00-0000-44.png,0005-00-0003-11.png
00000014,439,1,1440516904165,1440516904685,334,392,0,0,0,2,3,1,23,0002-00-0002-97.png,0003-00-0003-58.png
00000014,440,1,1440516905705,1440516906227,935,418,0,0,0,2,1,1,21,0002-00-0007-79.png,0001-00-0001-47.png
00000014,441,0,1440516907204,1440516907688,888,397,0,0,0,4,5,1,45,0004-00-0004-99.png,0005-00-0004-96.png
00000014,442,1,1440516914554,1440516915135,248,358,0,0,0,2,3,1,23,0002-00-0007-14.png,0003-00-0006-64.png
00000014,443,0,1440516916233,1440516916729,882,496,0,0,0,3,4,1,34,0003-00-0006-82.png,0004-00-0009-61.png
00000014,444,0,1440516919680,1440516919708,497,453,0,0,0,5,4,1,54,0005-00-0009-36.png,0004-00-0003-91.png
00000014,445,0,1440516922842,1440516923354,369,487,0,0,0,2,1,1,21,0002-00-0005-16.png,0001-00-0008-47.png
00000014,446,1,1440516926208,1440516926714,362,370,0,0,0,1,2,1,12,0001-00-0003-43.png,0002-00-0008-66.png
00000014,447,1,1440516927652,1440516928135,922,420,0,0,0,3,2,1,32,0003-00-0009-94.png,0002-00-0001-17.png
00000014,448,0,1440516929135,1440516929715,341,395,0,0,0,4,3,1,43,0004-00-0006-54.png,0003-00-0007-53.png
00000014,449,1,1440516933146,1440516933683,350,384,0,0,0,4,5,1,45,0004-00-0002-36.png,0005-00-0004-14.png
00000014,450,0,1440516934679,1440516935213,873,431,0,0,0,3,4,1,34,0003-00-0000-54.png,0004-00-0001-65.png
00000014,451,1,1440516938396,1440516938825,394,401,0,0,0,2,3,1,23,0002-00-0009-36.png,0003-00-0001-00.png
00000014,452,1,1440516939836,1440516940358,891,429,0,0,0,5,4,1,54,0005-00-0008-95.png,0004-00-0006-16.png
00000014,453,1,1440516941416,1440516941898,347,423,0,0,0,1,2,1,12,0001-00-0005-94.png,0002-00-0009-08.png
00000014,454,0,1440516942906,1440516943507,344,420,0,0,0,2,1,1,21,0002-00-0003-95.png,0001-00-0000-33.png
00000014,455,0,1440516946682,1440516946690,490,453,0,0,0,3,2,1,32,0003-00-0005-45.png,0002-00-0002-02.png
00000014,456,0,1440516950121,1440516950554,350,398,0,0,0,4,3,1,43,0004-00-0006-13.png,0003-00-0000-86.png
00000014,457,0,1440516953976,1440516954539,324,423,0,0,0,5,4,1,54,0005-00-0003-65.png,0004-00-0003-83.png
00000014,458,1,1440516962858,1440516963302,867,477,0,0,0,3,2,1,32,0003-00-0005-01.png,0002-00-0008-22.png
00000014,459,0,1440516964492,1440516964986,876,494,0,0,0,2,3,1,23,0002-00-0004-99.png,0003-00-0003-08.png
00000014,460,0,1440516967910,1440516968438,349,502,0,0,0,2,1,1,21,0002-00-0006-08.png,0001-00-0007-15.png
00000014,461,1,1440516971593,1440516972071,931,408,0,0,0,4,3,1,43,0004-00-0000-04.png,0003-00-0000-12.png
00000014,462,1,1440516973004,1440516973617,212,482,0,0,0,4,5,1,45,0004-00-0005-90.png,0005-00-0009-63.png
00000014,463,0,1440516974589,1440516975085,872,509,0,0,0,1,2,1,12,0001-00-0006-60.png,0002-00-0000-40.png
00000014,464,1,1440516978032,1440516978068,523,520,0,0,0,3,4,1,34,0003-00-0000-29.png,0004-00-0006-90.png
00000014,465,0,1440516979472,1440516980045,376,423,0,0,0,4,3,1,43,0004-00-0000-53.png,0003-00-0004-06.png
00000014,466,1,1440516983042,1440516983046,486,458,0,0,0,1,2,1,12,0001-00-0001-16.png,0002-00-0004-93.png
00000014,467,1,1440516984002,1440516984528,365,403,0,0,0,4,5,1,45,0004-00-0007-25.png,0005-00-0000-27.png
00000014,468,1,1440516985872,1440516986364,888,501,0,0,0,2,1,1,21,0002-00-0009-40.png,0001-00-0001-27.png
00000014,469,0,1440516987356,1440516987955,353,410,0,0,0,5,4,1,54,0005-00-0000-64.png,0004-00-0002-22.png
00000014,470,1,1440516990883,1440516990899,444,492,0,0,0,2,3,1,23,0002-00-0002-64.png,0003-00-0001-65.png
00000014,471,1,1440516991803,1440516992380,401,384,0,0,0,3,4,1,34,0003-00-0009-80.png,0004-00-0006-27.png
00000014,472,1,1440516993356,1440516994304,934,434,0,0,0,3,2,1,32,0003-00-0006-46.png,0002-00-0009-58.png
00000014,473,1,1440516995261,1440516995830,411,510,0,0,0,3,4,1,34,0003-00-0005-46.png,0004-00-0002-91.png
00000014,474,0,1440516996825,1440516997332,350,384,0,0,0,4,3,1,43,0004-00-0003-92.png,0003-00-0000-35.png
00000014,475,1,1440517000260,1440517000280,467,410,0,0,0,1,2,1,12,0001-00-0004-08.png,0002-00-0008-68.png
00000014,476,0,1440517001234,1440517001813,322,426,0,0,0,5,4,1,54,0005-00-0007-90.png,0004-00-0003-18.png
00000014,477,0,1440517004715,1440517004739,495,454,0,0,0,2,1,1,21,0002-00-0006-99.png,0001-00-0000-85.png
00000014,478,1,1440517008484,1440517008970,350,370,0,0,0,2,3,1,23,0002-00-0007-65.png,0003-00-0001-37.png
00000014,479,0,1440517010015,1440517010617,879,403,0,0,0,4,5,1,45,0004-00-0001-76.png,0005-00-0005-95.png
00000014,480,0,1440517013709,1440517013737,521,482,0,0,0,3,2,1,32,0003-00-0003-34.png,0002-00-0003-58.png
00000014,481,0,1440517016680,1440517016708,486,517,0,0,0,5,4,1,54,0005-00-0000-19.png,0004-00-0007-31.png
00000014,482,1,1440517019813,1440517019817,484,473,0,0,0,2,3,1,23,0002-00-0006-84.png,0003-00-0003-09.png
00000014,483,0,1440517020758,1440517021873,904,480,0,0,0,1,2,1,12,0001-00-0001-01.png,0002-00-0009-21.png
00000014,484,0,1440517024841,1440517024865,436,542,0,0,0,2,1,1,21,0002-00-0003-57.png,0001-00-0002-76.png
00000014,485,0,1440517027785,1440517028246,317,408,0,0,0,4,3,1,43,0004-00-0006-63.png,0003-00-0004-31.png
00000014,486,1,1440517031109,1440517031157,491,493,0,0,0,4,5,1,45,0004-00-0008-68.png,0005-00-0006-77.png
00000014,487,0,1440517032074,1440517032837,376,358,0,0,0,3,2,1,32,0003-00-0004-10.png,0002-00-0009-84.png
00000014,488,1,1440517035694,1440517036141,319,394,0,0,0,3,4,1,34,0003-00-0006-81.png,0004-00-0001-53.png
00000014,489,1,1440517037110,1440517037620,877,391,0,0,0,2,1,1,21,0002-00-0001-04.png,0001-00-0003-00.png
00000014,490,0,1440517038656,1440517039167,335,398,0,0,0,5,4,1,54,0005-00-0009-63.png,0004-00-0003-82.png
00000014,491,1,1440517042181,1440517042708,376,410,0,0,0,4,5,1,45,0004-00-0003-16.png,0005-00-0009-83.png
00000014,492,0,1440517043663,1440517044167,877,493,0,0,0,2,3,1,23,0002-00-0001-43.png,0003-00-0008-92.png
00000014,493,1,1440517047289,1440517047309,510,464,0,0,0,1,2,1,12,0001-00-0004-69.png,0002-00-0004-81.png
00000014,494,1,1440517048673,1440517049573,873,508,0,0,0,4,3,1,43,0004-00-0005-63.png,0003-00-0003-66.png
00000014,495,0,1440517050502,1440517051025,437,415,0,0,0,3,2,1,32,0003-00-0008-93.png,0002-00-0001-70.png
00000014,496,1,1440517054475,1440517055182,341,371,0,0,0,3,4,1,34,0003-00-0002-73.png,0004-00-0005-69.png
00000014,497,0,1440517056156,1440517056697,376,423,0,0,0,2,1,1,21,0002-00-0004-47.png,0001-00-0008-23.png
00000014,498,1,1440517059864,1440517060467,364,405,0,0,0,4,5,1,45,0004-00-0005-08.png,0005-00-0001-44.png
00000014,499,1,1440517061374,1440517061876,401,384,0,0,0,2,3,1,23,0002-00-0005-78.png,0003-00-0009-66.png
00000014,500,1,1440517062915,1440517063476,875,384,0,0,0,4,3,1,43,0004-00-0006-56.png,0003-00-0003-40.png
00000014,501,1,1440517064453,1440517064941,869,498,0,0,0,5,4,1,54,0005-00-0004-16.png,0004-00-0003-04.png
00000014,502,0,1440517065915,1440517066458,932,414,0,0,0,3,4,1,34,0003-00-0001-63.png,0004-00-0001-51.png
00000014,503,1,1440517069571,1440517070083,360,404,0,0,0,1,2,1,12,0001-00-0007-81.png,0002-00-0006-19.png
00000014,504,0,1440517071002,1440517071588,371,410,0,0,0,3,2,1,32,0003-00-0009-70.png,0002-00-0002-28.png
00000014,505,1,1440517074750,1440517075193,863,473,0,0,0,4,3,1,43,0004-00-0008-26.png,0003-00-0004-41.png
00000014,506,1,1440517076489,1440517077101,336,338,0,0,0,2,3,1,23,0002-00-0004-53.png,0003-00-0006-67.png
00000014,507,1,1440517078130,1440517078618,318,395,0,0,0,1,2,1,12,0001-00-0009-38.png,0002-00-0009-38.png
00000014,508,1,1440517079617,1440517080292,224,435,0,0,0,3,4,1,34,0003-00-0003-70.png,0004-00-0008-90.png
00000014,509,0,1440517081328,1440517081894,413,507,0,0,0,5,4,1,54,0005-00-0000-00.png,0004-00-0004-51.png
00000014,510,1,1440517084874,1440517085375,412,508,0,0,0,4,5,1,45,0004-00-0004-75.png,0005-00-0008-63.png
00000014,511,1,1440517086357,1440517086934,863,459,0,0,0,2,1,1,21,0002-00-0009-18.png,0001-00-0004-88.png
00000014,512,1,1440517087887,1440517088439,913,398,0,0,0,3,2,1,32,0003-00-0004-07.png,0002-00-0000-69.png
00000014,513,1,1440517089397,1440517090052,331,378,0,0,0,4,5,1,45,0004-00-0002-00.png,0005-00-0001-07.png
00000014,514,1,1440517091056,1440517091602,873,388,0,0,0,5,4,1,54,0005-00-0003-78.png,0004-00-0004-05.png
00000014,515,1,1440517092598,1440517093088,880,402,0,0,0,4,3,1,43,0004-00-0007-34.png,0003-00-0002-12.png
00000014,516,1,1440517094133,1440517094639,363,397,0,0,0,1,2,1,12,0001-00-0009-49.png,0002-00-0007-67.png
00000014,517,1,1440517095648,1440517096198,871,404,0,0,0,2,1,1,21,0002-00-0006-67.png,0001-00-0009-05.png
00000014,518,1,1440517097148,1440517097208,478,514,0,0,0,3,4,1,34,0003-00-0002-08.png,0004-00-0003-70.png
00000014,519,1,1440517098688,1440517099216,318,447,0,0,0,2,3,1,23,0002-00-0001-66.png,0003-00-0009-44.png
00000014,520,1,1440517100617,1440517101134,878,416,0,0,0,3,2,1,32,0003-00-0008-41.png,0002-00-0006-10.png
00000014,521,0,1440517102285,1440517102846,339,393,0,0,0,4,3,1,43,0004-00-0005-68.png,0003-00-0007-02.png
00000014,522,1,1440517105912,1440517106482,324,393,0,0,0,3,4,1,34,0003-00-0003-42.png,0004-00-0002-25.png
00000014,523,1,1440517107455,1440517107990,893,405,0,0,0,3,2,1,32,0003-00-0002-94.png,0002-00-0009-09.png
00000014,524,0,1440517108976,1440517109943,919,443,0,0,0,4,5,1,45,0004-00-0000-72.png,0005-00-0006-17.png
00000014,525,1,1440517112840,1440517113516,904,374,0,0,0,5,4,1,54,0005-00-0009-86.png,0004-00-0006-83.png
00000014,526,1,1440517114533,1440517115086,401,410,0,0,0,1,2,1,12,0001-00-0009-29.png,0002-00-0000-74.png
00000014,527,1,1440517116210,1440517116704,354,406,0,0,0,2,3,1,23,0002-00-0008-25.png,0003-00-0009-12.png
00000014,528,1,1440517117807,1440517118328,928,416,0,0,0,2,1,1,21,0002-00-0003-39.png,0001-00-0001-02.png
00000014,529,1,1440517119489,1440517119992,350,411,0,0,0,2,3,1,23,0002-00-0009-18.png,0003-00-0002-24.png
00000014,530,0,1440517121477,1440517122508,940,398,0,0,0,3,4,1,34,0003-00-0009-38.png,0004-00-0009-69.png
00000014,531,0,1440517125434,1440517125454,489,440,0,0,0,5,4,1,54,0005-00-0005-09.png,0004-00-0008-13.png
00000014,532,1,1440517128554,1440517129037,888,384,0,0,0,3,2,1,32,0003-00-0002-15.png,0002-00-0008-18.png
00000014,533,1,1440517130023,1440517130603,344,410,0,0,0,4,5,1,45,0004-00-0000-89.png,0005-00-0005-24.png
00000014,534,1,1440517131650,1440517132179,875,409,0,0,0,2,1,1,21,0002-00-0007-08.png,0001-00-0006-80.png
00000014,535,1,1440517133163,1440517134294,401,410,0,0,0,1,2,1,12,0001-00-0009-83.png,0002-00-0002-40.png
00000014,536,0,1440517135272,1440517135794,336,410,0,0,0,4,3,1,43,0004-00-0008-03.png,0003-00-0005-38.png
00000014,537,0,1440517138738,1440517138754,488,465,0,0,0,3,2,1,32,0003-00-0000-86.png,0002-00-0008-42.png
00000014,538,0,1440517141598,1440517141626,484,437,0,0,0,5,4,1,54,0005-00-0008-70.png,0004-00-0000-43.png
00000014,539,1,1440517144563,1440517144587,483,439,0,0,0,4,5,1,45,0004-00-0003-21.png,0005-00-0000-46.png
00000014,540,0,1440517145617,1440517146135,897,405,0,0,0,2,3,1,23,0002-00-0000-34.png,0003-00-0001-60.png
00000014,541,0,1440517149300,1440517149958,317,388,0,0,0,4,3,1,43,0004-00-0003-52.png,0003-00-0009-02.png
00000014,542,1,1440517152873,1440517152893,506,438,0,0,0,3,4,1,34,0003-00-0007-13.png,0004-00-0001-11.png
00000014,543,0,1440517153855,1440517154330,394,400,0,0,0,2,1,1,21,0002-00-0004-96.png,0001-00-0007-15.png
00000014,544,1,1440517157484,1440517158008,367,484,0,0,0,1,2,1,12,0001-00-0002-31.png,0002-00-0006-49.png
00000014,545,0,1440517158993,1440517159552,903,454,0,0,0,1,2,1,12,0001-00-0001-15.png,0002-00-0000-61.png
00000014,546,1,1440517162561,1440517162589,483,440,0,0,0,4,5,1,45,0004-00-0000-26.png,0005-00-0000-92.png
00000014,547,1,1440517163525,1440517164021,365,390,0,0,0,2,3,1,23,0002-00-0000-17.png,0003-00-0005-30.png
00000014,548,1,1440517165107,1440517165636,864,400,0,0,0,5,4,1,54,0005-00-0001-50.png,0004-00-0002-62.png
00000014,549,1,1440517166696,1440517167250,312,423,0,0,0,3,4,1,34,0003-00-0004-31.png,0004-00-0003-15.png
00000014,550,0,1440517168312,1440517168794,355,425,0,0,0,4,3,1,43,0004-00-0003-40.png,0003-00-0005-64.png
00000014,551,0,1440517171723,1440517171743,493,444,0,0,0,2,1,1,21,0002-00-0006-41.png,0001-00-0009-00.png
00000014,552,0,1440517174817,1440517174833,522,505,0,0,0,3,2,1,32,0003-00-0006-00.png,0002-00-0000-97.png
00000014,553,1,1440517178122,1440517178632,313,398,0,0,0,3,4,1,34,0003-00-0005-14.png,0004-00-0001-62.png
00000014,554,1,1440517179677,1440517180520,295,395,0,0,0,4,5,1,45,0004-00-0006-68.png,0005-00-0005-85.png
00000014,555,0,1440517181654,1440517182134,419,418,0,0,0,2,1,1,21,0002-00-0009-32.png,0001-00-0006-95.png
00000014,556,0,1440517184986,1440517185026,489,450,0,0,0,4,3,1,43,0004-00-0008-55.png,0003-00-0009-86.png
00000014,557,0,1440517188073,1440517188081,470,494,0,0,0,3,2,1,32,0003-00-0003-38.png,0002-00-0003-05.png
00000014,558,0,1440517190920,1440517190948,486,470,0,0,0,5,4,1,54,0005-00-0009-13.png,0004-00-0007-15.png
00000014,559,1,1440517193794,1440517194253,344,385,0,0,0,2,3,1,23,0002-00-0006-48.png,0003-00-0004-48.png
00000014,560,1,1440517195211,1440517195702,350,384,0,0,0,1,2,1,12,0001-00-0008-67.png,0002-00-0008-10.png
00000014,561,1,1440517196750,1440517197281,875,398,0,0,0,5,4,1,54,0005-00-0006-56.png,0004-00-0002-29.png
00000014,562,1,1440517198310,1440517198779,320,392,0,0,0,1,2,1,12,0001-00-0005-90.png,0002-00-0002-87.png
00000014,563,1,1440517199840,1440517200361,400,490,0,0,0,3,4,1,34,0003-00-0007-16.png,0004-00-0008-94.png
00000014,564,0,1440517201493,1440517202004,898,403,0,0,0,2,3,1,23,0002-00-0004-23.png,0003-00-0004-75.png
00000014,565,0,1440517205505,1440517205990,427,436,0,0,0,4,3,1,43,0004-00-0000-35.png,0003-00-0005-91.png
00000014,566,1,1440517209489,1440517209945,901,384,0,0,0,3,2,1,32,0003-00-0002-82.png,0002-00-0000-41.png
00000014,567,0,1440517211062,1440517211620,350,507,0,0,0,2,1,1,21,0002-00-0002-71.png,0001-00-0002-01.png
00000014,568,1,1440517214865,1440517215331,309,371,0,0,0,4,5,1,45,0004-00-0007-73.png,0005-00-0009-98.png
00000014,569,0,1440517216365,1440517217391,944,416,0,0,0,3,4,1,34,0003-00-0003-24.png,0004-00-0001-19.png
00000014,570,0,1440517220311,1440517220328,441,453,0,0,0,4,3,1,43,0004-00-0003-24.png,0003-00-0007-95.png
00000014,571,0,1440517223324,1440517223344,466,489,0,0,0,2,1,1,21,0002-00-0008-13.png,0001-00-0007-50.png
00000014,572,0,1440517226182,1440517226194,523,453,0,0,0,5,4,1,54,0005-00-0008-74.png,0004-00-0004-45.png
00000014,573,1,1440517229033,1440517229061,514,476,0,0,0,2,3,1,23,0002-00-0008-65.png,0003-00-0000-72.png
00000014,574,1,1440517230122,1440517230682,350,344,0,0,0,4,5,1,45,0004-00-0005-54.png,0005-00-0001-02.png
00000014,575,1,1440517231721,1440517232281,876,496,0,0,0,3,2,1,32,0003-00-0006-82.png,0002-00-0004-31.png
00000014,576,0,1440517233431,1440517233971,877,387,0,0,0,1,2,1,12,0001-00-0006-70.png,0002-00-0005-96.png
00000014,577,0,1440517236877,1440517236917,470,455,0,0,0,4,3,1,43,0004-00-0001-28.png,0003-00-0008-44.png
00000014,578,1,1440517240000,1440517240438,313,385,0,0,0,2,3,1,23,0002-00-0000-97.png,0003-00-0007-36.png
00000014,579,1,1440517241382,1440517241914,887,487,0,0,0,2,1,1,21,0002-00-0005-53.png,0001-00-0009-50.png
00000014,580,0,1440517242942,1440517243410,380,407,0,0,0,3,2,1,32,0003-00-0003-07.png,0002-00-0007-69.png
00000014,581,0,1440517246609,1440517247186,317,401,0,0,0,5,4,1,54,0005-00-0006-92.png,0004-00-0002-53.png
00000014,582,1,1440517250235,1440517250671,318,382,0,0,0,1,2,1,12,0001-00-0008-89.png,0002-00-0002-98.png
00000014,583,1,1440517251637,1440517252181,379,406,0,0,0,4,5,1,45,0004-00-0004-28.png,0005-00-0004-08.png
00000014,584,1,1440517253248,1440517253280,504,488,0,0,0,3,4,1,34,0003-00-0004-89.png,0004-00-0002-75.png
00000014,585,1,1440517254420,1440517254930,355,428,0,0,0,2,3,1,23,0002-00-0003-82.png,0003-00-0000-83.png
00000014,586,1,1440517255955,1440517256504,875,502,0,0,0,4,3,1,43,0004-00-0001-02.png,0003-00-0001-49.png
00000014,587,0,1440517257540,1440517258133,879,400,0,0,0,4,5,1,45,0004-00-0008-22.png,0005-00-0000-65.png
00000014,588,0,1440517261017,1440517261045,486,460,0,0,0,5,4,1,54,0005-00-0006-78.png,0004-00-0003-99.png
00000014,589,1,1440517264127,1440517264645,911,412,0,0,0,2,1,1,21,0002-00-0000-73.png,0001-00-0003-49.png
00000014,590,0,1440517265533,1440517266073,345,421,0,0,0,3,2,1,32,0003-00-0004-18.png,0002-00-0008-35.png
00000014,591,0,1440517269026,1440517270005,926,399,0,0,0,3,4,1,34,0003-00-0006-24.png,0004-00-0000-25.png
00000014,592,0,1440517272859,1440517273451,932,390,0,0,0,1,2,1,12,0001-00-0008-66.png,0002-00-0007-18.png
00000014,593,0,1440517276373,1440517276389,456,418,0,0,0,3,2,1,32,0003-00-0003-77.png,0002-00-0004-63.png
00000014,594,0,1440517279750,1440517280292,883,422,0,0,0,3,4,1,34,0003-00-0005-57.png,0004-00-0004-37.png
00000014,595,1,1440517283638,1440517284116,312,409,0,0,0,1,2,1,12,0001-00-0006-04.png,0002-00-0000-78.png
00000014,596,1,1440517284999,1440517285596,361,394,0,0,0,2,3,1,23,0002-00-0005-49.png,0003-00-0007-86.png
00000014,597,1,1440517286590,1440517287119,913,398,0,0,0,2,1,1,21,0002-00-0007-58.png,0001-00-0000-74.png
00000014,598,0,1440517288159,1440517288681,401,384,0,0,0,4,3,1,43,0004-00-0005-17.png,0003-00-0000-96.png
00000014,599,1,1440517291849,1440517292332,874,412,0,0,0,5,4,1,54,0005-00-0004-72.png,0004-00-0004-35.png
00000014,600,0,1440517293349,1440517293891,861,424,0,0,0,4,5,1,45,0004-00-0004-45.png,0005-00-0009-04.png
00000014,601,0,1440517297013,1440517297053,503,496,0,0,0,3,2,1,32,0003-00-0005-72.png,0002-00-0003-69.png
00000014,602,1,1440517300105,1440517300658,294,378,0,0,0,4,5,1,45,0004-00-0004-77.png,0005-00-0005-06.png
00000014,603,0,1440517301619,1440517302168,888,397,0,0,0,1,2,1,12,0001-00-0003-12.png,0002-00-0003-54.png
00000014,604,1,1440517305041,1440517305558,875,410,0,0,0,4,3,1,43,0004-00-0006-84.png,0003-00-0003-08.png
00000014,605,0,1440517306446,1440517306470,478,462,0,0,0,5,4,1,54,0005-00-0002-83.png,0004-00-0003-97.png
00000014,606,1,1440517309493,1440517309517,511,442,0,0,0,3,4,1,34,0003-00-0006-50.png,0004-00-0007-06.png
00000014,607,1,1440517310452,1440517310991,325,385,0,0,0,2,3,1,23,0002-00-0007-19.png,0003-00-0008-94.png
00000014,608,1,1440517311982,1440517312521,862,398,0,0,0,2,1,1,21,0002-00-0002-29.png,0001-00-0004-19.png
00000014,609,1,1440517313564,1440517314073,862,397,0,0,0,4,3,1,43,0004-00-0002-87.png,0003-00-0008-11.png
00000014,610,1,1440517315094,1440517315624,376,397,0,0,0,2,3,1,23,0002-00-0005-65.png,0003-00-0002-65.png
00000014,611,0,1440517316811,1440517316859,450,557,0,0,0,5,4,1,54,0005-00-0006-40.png,0004-00-0006-57.png
00000014,612,0,1440517319731,1440517319739,483,418,0,0,0,2,1,1,21,0002-00-0001-55.png,0001-00-0003-25.png
00000014,613,0,1440517322676,1440517323233,903,402,0,0,0,3,4,1,34,0003-00-0000-96.png,0004-00-0003-30.png
00000014,614,1,1440517326319,1440517326845,303,405,0,0,0,4,5,1,45,0004-00-0002-69.png,0005-00-0001-12.png
00000014,615,1,1440517327806,1440517328363,901,410,0,0,0,3,2,1,32,0003-00-0000-59.png,0002-00-0008-10.png
00000014,616,1,1440517329333,1440517329859,334,378,0,0,0,1,2,1,12,0001-00-0009-22.png,0002-00-0008-36.png
00000014,617,0,1440517330921,1440517331394,376,384,0,0,0,2,1,1,21,0002-00-0008-72.png,0001-00-0004-54.png
00000014,618,1,1440517334378,1440517334398,445,410,0,0,0,1,2,1,12,0001-00-0008-76.png,0002-00-0001-50.png
00000014,619,0,1440517335367,1440517335890,325,412,0,0,0,4,3,1,43,0004-00-0006-62.png,0003-00-0002-88.png
00000014,620,1,1440517339247,1440517339782,901,398,0,0,0,5,4,1,54,0005-00-0003-85.png,0004-00-0005-75.png
00000014,621,1,1440517340761,1440517341283,344,396,0,0,0,3,4,1,34,0003-00-0008-51.png,0004-00-0005-34.png
00000014,622,1,1440517342368,1440517342885,397,492,0,0,0,4,5,1,45,0004-00-0002-62.png,0005-00-0002-19.png
00000014,623,0,1440517343950,1440517344538,867,426,0,0,0,2,3,1,23,0002-00-0008-21.png,0003-00-0006-07.png
00000014,624,0,1440517347555,1440517347578,485,444,0,0,0,3,2,1,32,0003-00-0006-49.png,0002-00-0001-01.png
00000014,625,1,1440517350447,1440517350475,447,454,0,0,0,2,3,1,23,0002-00-0002-51.png,0003-00-0002-70.png
00000014,626,1,1440517351495,1440517352038,880,401,0,0,0,3,2,1,32,0003-00-0007-44.png,0002-00-0002-65.png
00000014,627,0,1440517352995,1440517354440,373,396,0,0,0,4,3,1,43,0004-00-0001-00.png,0003-00-0002-09.png
00000014,628,1,1440517357417,1440517357437,504,398,0,0,0,3,4,1,34,0003-00-0007-69.png,0004-00-0004-71.png
00000014,629,1,1440517358360,1440517359367,934,435,0,0,0,2,1,1,21,0002-00-0009-23.png,0001-00-0006-82.png
00000014,630,0,1440517360320,1440517361036,874,449,0,0,0,4,5,1,45,0004-00-0004-04.png,0005-00-0003-10.png
00000014,631,0,1440517364115,1440517364151,522,472,0,0,0,5,4,1,54,0005-00-0002-60.png,0004-00-0006-91.png
00000014,632,1,1440517367375,1440517367860,376,358,0,0,0,1,2,1,12,0001-00-0000-77.png,0002-00-0002-54.png
00000014,633,1,1440517368756,1440517369321,899,386,0,0,0,3,2,1,32,0003-00-0001-69.png,0002-00-0000-27.png
00000014,634,1,1440517370278,1440517370837,312,423,0,0,0,2,3,1,23,0002-00-0006-82.png,0003-00-0002-20.png
00000014,635,1,1440517371848,1440517372358,334,431,0,0,0,4,5,1,45,0004-00-0006-15.png,0005-00-0009-89.png
00000014,636,1,1440517373439,1440517374002,896,472,0,0,0,5,4,1,54,0005-00-0009-58.png,0004-00-0009-43.png
00000014,637,1,1440517374999,1440517375524,881,416,0,0,0,2,1,1,21,0002-00-0004-16.png,0001-00-0008-71.png
00000014,638,0,1440517376617,1440517377169,416,497,0,0,0,4,3,1,43,0004-00-0001-14.png,0003-00-0000-67.png
00000014,639,1,1440517380173,1440517380213,478,445,0,0,0,3,4,1,34,0003-00-0001-52.png,0004-00-0004-95.png
00000014,640,1,1440517381199,1440517381701,349,410,0,0,0,1,2,1,12,0001-00-0001-93.png,0002-00-0000-90.png
00000014,641,0,1440517382696,1440517383542,352,426,0,0,0,5,4,1,54,0005-00-0006-05.png,0004-00-0004-42.png
00000014,642,1,1440517386384,1440517386416,446,514,0,0,0,2,3,1,23,0002-00-0001-72.png,0003-00-0004-34.png
00000014,643,0,1440517387512,1440517388458,450,514,0,0,0,3,2,1,32,0003-00-0006-61.png,0002-00-0004-50.png
00000014,644,0,1440517391724,1440517392227,401,423,0,0,0,4,3,1,43,0004-00-0005-56.png,0003-00-0007-44.png
00000014,645,1,1440517395361,1440517395965,390,500,0,0,0,4,5,1,45,0004-00-0009-11.png,0005-00-0002-98.png
00000014,646,1,1440517396911,1440517397912,932,403,0,0,0,2,1,1,21,0002-00-0003-30.png,0001-00-0000-06.png
00000014,647,1,1440517398899,1440517399565,367,350,0,0,0,3,4,1,34,0003-00-0008-60.png,0004-00-0005-36.png
00000014,648,1,1440517400665,1440517401251,401,383,0,0,0,1,2,1,12,0001-00-0007-70.png,0002-00-0000-37.png
00000014,649,0,1440517402228,1440517402766,870,472,0,0,0,2,3,1,23,0002-00-0000-27.png,0003-00-0000-00.png
00000014,650,1,1440517406032,1440517406516,314,432,0,0,0,1,2,1,12,0001-00-0005-87.png,0002-00-0001-41.png
00000014,651,1,1440517407545,1440517408054,914,450,0,0,0,2,1,1,21,0002-00-0002-54.png,0001-00-0006-38.png
00000014,652,0,1440517409013,1440517409680,888,410,0,0,0,4,5,1,45,0004-00-0009-89.png,0005-00-0009-64.png
00000014,653,1,1440517413350,1440517413855,416,521,0,0,0,3,4,1,34,0003-00-0001-25.png,0004-00-0007-37.png
00000014,654,0,1440517414768,1440517415345,368,394,0,0,0,4,3,1,43,0004-00-0007-44.png,0003-00-0004-01.png
00000014,655,1,1440517418722,1440517419633,926,450,0,0,0,3,2,1,32,0003-00-0002-82.png,0002-00-0001-81.png
00000014,656,1,1440517420523,1440517421070,886,398,0,0,0,5,4,1,54,0005-00-0009-77.png,0004-00-0008-44.png
00000014,657,0,1440517422064,1440517422570,880,401,0,0,0,4,5,1,45,0004-00-0005-57.png,0005-00-0003-12.png
00000014,658,1,1440517425647,1440517426106,328,397,0,0,0,2,3,1,23,0002-00-0002-89.png,0003-00-0002-91.png
00000014,659,0,1440517427112,1440517427636,857,479,0,0,0,3,4,1,34,0003-00-0000-74.png,0004-00-0000-08.png
00000014,660,0,1440517430610,1440517430626,490,371,0,0,0,3,2,1,32,0003-00-0002-16.png,0002-00-0007-27.png
00000014,661,1,1440517433466,1440517433904,376,384,0,0,0,1,2,1,12,0001-00-0003-49.png,0002-00-0001-53.png
00000014,662,0,1440517434781,1440517434801,449,487,0,0,0,2,1,1,21,0002-00-0001-46.png,0001-00-0000-28.png
00000014,663,0,1440517437831,1440517437855,450,471,0,0,0,4,3,1,43,0004-00-0009-80.png,0003-00-0004-70.png
00000014,664,1,1440517440828,1440517441322,912,372,0,0,0,5,4,1,54,0005-00-0000-08.png,0004-00-0005-40.png
00000014,665,0,1440517442229,1440517442730,890,387,0,0,0,3,4,1,34,0003-00-0002-38.png,0004-00-0006-41.png
00000014,666,0,1440517445644,1440517445684,490,422,0,0,0,4,3,1,43,0004-00-0007-18.png,0003-00-0000-41.png
00000014,667,0,1440517448788,1440517448832,478,492,0,0,0,5,4,1,54,0005-00-0004-45.png,0004-00-0006-73.png
00000014,668,0,1440517452066,1440517452611,874,463,0,0,0,2,3,1,23,0002-00-0004-55.png,0003-00-0002-71.png
00000014,669,0,1440517455655,1440517456180,391,468,0,0,0,3,2,1,32,0003-00-0006-14.png,0002-00-0004-12.png
00000014,670,1,1440517459988,1440517460498,874,488,0,0,0,2,1,1,21,0002-00-0002-16.png,0001-00-0006-17.png
00000014,671,1,1440517461344,1440517461942,399,384,0,0,0,4,5,1,45,0004-00-0007-96.png,0005-00-0000-07.png
00000014,672,1,1440517463010,1440517463520,388,476,0,0,0,1,2,1,12,0001-00-0005-56.png,0002-00-0006-80.png
00000014,673,1,1440517464570,1440517465542,870,360,0,0,0,5,4,1,54,0005-00-0003-99.png,0004-00-0002-59.png
00000014,674,1,1440517466497,1440517467533,454,445,0,0,0,3,4,1,34,0003-00-0004-68.png,0004-00-0005-44.png
00000014,675,1,1440517468526,1440517469051,345,406,0,0,0,2,3,1,23,0002-00-0000-84.png,0003-00-0005-08.png
00000014,676,1,1440517470086,1440517471025,366,376,0,0,0,4,5,1,45,0004-00-0004-89.png,0005-00-0001-30.png
00000014,677,0,1440517472077,1440517472650,885,465,0,0,0,1,2,1,12,0001-00-0008-62.png,0002-00-0003-56.png
00000014,678,0,1440517475527,1440517475559,509,438,0,0,0,4,3,1,43,0004-00-0002-72.png,0003-00-0007-03.png
00000014,679,1,1440517478803,1440517479279,938,410,0,0,0,2,1,1,21,0002-00-0005-19.png,0001-00-0006-52.png
00000014,680,1,1440517480160,1440517480712,901,413,0,0,0,3,2,1,32,0003-00-0008-88.png,0002-00-0004-48.png
00000014,681,0,1440517481632,1440517482133,311,398,0,0,0,2,1,1,21,0002-00-0005-33.png,0001-00-0002-48.png
00000014,682,0,1440517485186,1440517485234,504,475,0,0,0,3,2,1,32,0003-00-0001-54.png,0002-00-0009-37.png
00000014,683,1,1440517488219,1440517488239,446,427,0,0,0,3,4,1,34,0003-00-0006-24.png,0004-00-0007-04.png
00000014,684,0,1440517489175,1440517489680,342,396,0,0,0,4,3,1,43,0004-00-0009-94.png,0003-00-0008-30.png
00000014,685,1,1440517492684,1440517493179,387,410,0,0,0,4,5,1,45,0004-00-0003-10.png,0005-00-0002-68.png
00000014,686,0,1440517494135,1440517494667,900,411,0,0,0,2,3,1,23,0002-00-0004-78.png,0003-00-0000-34.png
00000014,687,0,1440517497601,1440517498079,401,410,0,0,0,5,4,1,54,0005-00-0007-21.png,0004-00-0003-76.png
00000014,688,1,1440517501051,1440517501556,316,417,0,0,0,1,2,1,12,0001-00-0003-06.png,0002-00-0005-21.png
00000014,689,1,1440517502532,1440517502536,497,469,0,0,0,3,4,1,34,0003-00-0008-97.png,0004-00-0003-72.png
00000014,690,1,1440517503695,1440517504213,322,401,0,0,0,4,5,1,45,0004-00-0006-57.png,0005-00-0000-86.png
00000014,691,0,1440517505295,1440517506248,401,384,0,0,0,5,4,1,54,0005-00-0009-64.png,0004-00-0004-17.png
00000014,692,0,1440517509248,1440517509268,515,439,0,0,0,4,3,1,43,0004-00-0008-01.png,0003-00-0006-13.png
00000014,693,0,1440517512150,1440517512614,351,385,0,0,0,2,1,1,21,0002-00-0001-36.png,0001-00-0000-68.png
00000014,694,0,1440517515888,1440517515957,479,536,0,0,0,3,2,1,32,0003-00-0005-62.png,0002-00-0009-15.png
00000014,695,1,1440517519342,1440517519394,520,496,0,0,0,1,2,1,12,0001-00-0007-02.png,0002-00-0000-73.png
00000014,696,0,1440517520340,1440517520897,887,398,0,0,0,2,3,1,23,0002-00-0005-22.png,0003-00-0009-49.png
00000014,697,1,1440517523744,1440517523760,487,392,0,0,0,2,3,1,23,0002-00-0003-40.png,0003-00-0006-22.png
00000014,698,1,1440517524794,1440517525309,932,393,0,0,0,2,1,1,21,0002-00-0007-97.png,0001-00-0003-86.png
00000014,699,0,1440517526223,1440517526782,879,401,0,0,0,3,4,1,34,0003-00-0001-25.png,0004-00-0007-84.png
00000014,700,0,1440517530140,1440517530625,269,421,0,0,0,3,2,1,32,0003-00-0002-83.png,0002-00-0007-38.png
00000014,701,0,1440517533665,1440517534082,376,384,0,0,0,4,3,1,43,0004-00-0000-86.png,0003-00-0004-77.png
00000014,702,0,1440517537115,1440517537139,491,446,0,0,0,5,4,1,54,0005-00-0006-79.png,0004-00-0007-61.png
00000014,703,1,1440517540491,1440517541108,391,462,0,0,0,4,5,1,45,0004-00-0009-50.png,0005-00-0008-24.png
00000014,704,0,1440517542066,1440517543086,900,384,0,0,0,1,2,1,12,0001-00-0000-36.png,0002-00-0002-13.png
00000014,705,0,1440517546240,1440517546280,522,453,0,0,0,3,2,1,32,0003-00-0006-09.png,0002-00-0001-06.png
00000014,706,1,1440517549302,1440517549330,516,519,0,0,0,1,2,1,12,0001-00-0003-71.png,0002-00-0004-66.png
00000014,707,0,1440517550385,1440517550958,873,406,0,0,0,2,3,1,23,0002-00-0006-27.png,0003-00-0004-12.png
00000014,708,1,1440517553940,1440517554554,924,381,0,0,0,5,4,1,54,0005-00-0000-77.png,0004-00-0006-42.png
00000014,709,1,1440517555493,1440517556023,344,411,0,0,0,4,5,1,45,0004-00-0003-44.png,0005-00-0003-35.png
00000014,710,1,1440517557131,1440517558090,901,383,0,0,0,2,1,1,21,0002-00-0005-31.png,0001-00-0007-20.png
00000014,711,1,1440517559030,1440517559602,900,371,0,0,0,4,3,1,43,0004-00-0000-82.png,0003-00-0008-61.png
00000014,712,0,1440517560600,1440517561136,876,436,0,0,0,3,4,1,34,0003-00-0008-83.png,0004-00-0008-38.png
00000014,713,0,1440517564713,1440517565212,417,495,0,0,0,4,3,1,43,0004-00-0001-76.png,0003-00-0001-07.png
00000014,714,1,1440517568188,1440517568790,929,367,0,0,0,5,4,1,54,0005-00-0009-25.png,0004-00-0005-91.png
00000014,715,0,1440517569713,1440517570245,878,469,0,0,0,3,4,1,34,0003-00-0002-23.png,0004-00-0002-37.png
00000014,716,1,1440517573402,1440517573822,342,411,0,0,0,4,5,1,45,0004-00-0002-40.png,0005-00-0000-39.png
00000014,717,1,1440517574712,1440517575232,344,422,0,0,0,1,2,1,12,0001-00-0001-35.png,0002-00-0006-15.png
00000014,718,0,1440517576686,1440517577232,880,401,0,0,0,2,3,1,23,0002-00-0006-92.png,0003-00-0001-35.png
00000014,719,0,1440517580305,1440517580335,501,493,0,0,0,2,1,1,21,0002-00-0005-83.png,0001-00-0005-14.png
00000014,720,1,1440517583364,1440517584048,913,476,0,0,0,3,2,1,32,0003-00-0002-19.png,0002-00-0003-84.png
00000014,721,1,1440517584995,1440517585631,900,371,0,0,0,3,2,1,32,0003-00-0009-11.png,0002-00-0009-57.png
00000014,722,1,1440517586625,1440517586637,478,462,0,0,0,2,3,1,23,0002-00-0001-71.png,0003-00-0006-13.png
00000014,723,0,1440517587788,1440517588311,401,358,0,0,0,5,4,1,54,0005-00-0008-46.png,0004-00-0000-65.png
00000014,724,1,1440517591406,1440517591905,879,402,0,0,0,2,1,1,21,0002-00-0000-66.png,0001-00-0007-08.png
00000014,725,0,1440517592881,1440517593392,900,412,0,0,0,4,5,1,45,0004-00-0007-12.png,0005-00-0004-96.png
00000014,726,1,1440517596365,1440517596405,449,438,0,0,0,3,4,1,34,0003-00-0007-46.png,0004-00-0008-59.png
00000014,727,1,1440517597357,1440517597927,880,427,0,0,0,4,3,1,43,0004-00-0005-14.png,0003-00-0000-27.png
00000014,728,0,1440517598921,1440517599425,857,488,0,0,0,1,2,1,12,0001-00-0007-02.png,0002-00-0005-08.png
00000014,729,1,1440517602875,1440517603409,323,396,0,0,0,4,5,1,45,0004-00-0008-50.png,0005-00-0004-40.png
00000014,730,0,1440517604409,1440517604925,924,407,0,0,0,3,4,1,34,0003-00-0008-86.png,0004-00-0005-86.png
00000014,731,1,1440517608471,1440517608984,900,411,0,0,0,3,2,1,32,0003-00-0006-61.png,0002-00-0003-91.png
00000014,732,1,1440517609899,1440517610406,427,396,0,0,0,1,2,1,12,0001-00-0005-87.png,0002-00-0006-53.png
00000014,733,0,1440517611424,1440517612115,321,373,0,0,0,4,3,1,43,0004-00-0003-11.png,0003-00-0009-02.png
00000014,734,0,1440517614983,1440517615011,509,419,0,0,0,5,4,1,54,0005-00-0003-95.png,0004-00-0001-46.png
00000014,735,0,1440517617879,1440517617899,446,479,0,0,0,2,1,1,21,0002-00-0006-98.png,0001-00-0002-97.png
00000014,736,1,1440517620824,1440517620924,496,559,0,0,0,2,3,1,23,0002-00-0005-52.png,0003-00-0001-78.png
00000014,737,1,1440517621828,1440517622347,325,423,0,0,0,1,2,1,12,0001-00-0002-35.png,0002-00-0009-91.png
00000014,738,0,1440517623329,1440517623831,319,421,0,0,0,3,2,1,32,0003-00-0006-28.png,0002-00-0006-30.png
00000014,739,0,1440517626694,1440517627184,900,437,0,0,0,2,3,1,23,0002-00-0004-62.png,0003-00-0004-72.png
00000014,740,1,1440517630158,1440517630178,479,465,0,0,0,4,5,1,45,0004-00-0008-11.png,0005-00-0000-56.png
00000014,741,1,1440517631092,1440517631666,235,462,0,0,0,3,4,1,34,0003-00-0004-55.png,0004-00-0004-38.png
00000014,742,1,1440517632801,1440517633311,869,472,0,0,0,5,4,1,54,0005-00-0006-13.png,0004-00-0005-97.png
00000014,743,1,1440517634463,1440517634954,883,377,0,0,0,4,3,1,43,0004-00-0008-17.png,0003-00-0009-13.png
00000014,744,1,1440517635970,1440517636503,880,402,0,0,0,2,1,1,21,0002-00-0005-24.png,0001-00-0005-99.png
00000014,745,0,1440517637501,1440517638019,876,383,0,0,0,4,5,1,45,0004-00-0009-10.png,0005-00-0004-01.png
00000014,746,0,1440517641020,1440517641048,513,410,0,0,0,3,2,1,32,0003-00-0003-33.png,0002-00-0004-09.png
00000014,747,1,1440517644616,1440517645095,313,397,0,0,0,2,3,1,23,0002-00-0006-86.png,0003-00-0003-30.png
00000014,748,0,1440517645966,1440517645998,511,470,0,0,0,5,4,1,54,0005-00-0009-85.png,0004-00-0005-04.png
00000014,749,0,1440517648999,1440517649502,294,388,0,0,0,2,1,1,21,0002-00-0005-87.png,0001-00-0000-12.png
00000014,750,1,1440517652554,1440517653052,373,365,0,0,0,1,2,1,12,0001-00-0000-54.png,0002-00-0007-72.png
00000014,751,1,1440517654064,1440517654571,340,399,0,0,0,3,4,1,34,0003-00-0009-99.png,0004-00-0008-12.png
00000014,752,0,1440517655548,1440517656172,357,424,0,0,0,4,3,1,43,0004-00-0002-38.png,0003-00-0005-85.png
00000014,753,0,1440517659143,1440517659163,479,477,0,0,0,2,1,1,21,0002-00-0005-50.png,0001-00-0008-97.png
00000014,754,0,1440517662303,1440517662763,927,424,0,0,0,2,3,1,23,0002-00-0008-35.png,0003-00-0000-62.png
00000014,755,1,1440517665642,1440517666190,927,438,0,0,0,5,4,1,54,0005-00-0004-53.png,0004-00-0008-45.png
00000014,756,0,1440517667043,1440517667618,880,428,0,0,0,1,2,1,12,0001-00-0001-01.png,0002-00-0005-42.png
00000014,757,1,1440517670505,1440517671022,925,384,0,0,0,4,3,1,43,0004-00-0002-73.png,0003-00-0001-23.png
00000014,758,0,1440517671987,1440517672004,504,472,0,0,0,3,2,1,32,0003-00-0006-79.png,0002-00-0000-25.png
00000014,759,1,1440517674917,1440517674941,504,421,0,0,0,3,4,1,34,0003-00-0003-92.png,0004-00-0006-15.png
00000014,760,1,1440517675882,1440517676463,361,400,0,0,0,4,5,1,45,0004-00-0009-24.png,0005-00-0008-92.png
00000014,761,1,1440517677473,1440517678022,901,411,0,0,0,2,1,1,21,0002-00-0003-45.png,0001-00-0000-20.png
00000014,762,1,1440517678984,1440517679068,478,532,0,0,0,4,5,1,45,0004-00-0002-56.png,0005-00-0003-03.png
00000014,763,1,1440517680283,1440517680857,325,411,0,0,0,2,3,1,23,0002-00-0008-90.png,0003-00-0005-47.png
00000014,764,1,1440517681885,1440517682906,396,495,0,0,0,3,4,1,34,0003-00-0007-68.png,0004-00-0000-18.png
00000014,765,1,1440517684002,1440517684539,880,408,0,0,0,3,2,1,32,0003-00-0005-50.png,0002-00-0005-25.png
00000014,766,0,1440517685520,1440517686068,880,401,0,0,0,1,2,1,12,0001-00-0004-16.png,0002-00-0007-29.png
00000014,767,0,1440517689097,1440517689101,492,438,0,0,0,5,4,1,54,0005-00-0009-24.png,0004-00-0007-60.png
00000014,768,1,1440517692088,1440517692613,892,413,0,0,0,4,3,1,43,0004-00-0007-85.png,0003-00-0008-77.png
00000014,769,0,1440517694006,1440517694545,905,401,0,0,0,3,4,1,34,0003-00-0000-45.png,0004-00-0006-43.png
00000014,770,1,1440517697548,1440517697980,319,421,0,0,0,1,2,1,12,0001-00-0003-31.png,0002-00-0005-24.png
00000014,771,0,1440517698954,1440517699523,888,398,0,0,0,4,5,1,45,0004-00-0002-34.png,0005-00-0007-44.png
00000014,772,0,1440517702441,1440517702466,473,417,0,0,0,5,4,1,54,0005-00-0007-35.png,0004-00-0004-62.png
00000014,773,1,1440517705303,1440517705846,897,409,0,0,0,2,1,1,21,0002-00-0008-34.png,0001-00-0002-84.png
00000014,774,1,1440517706779,1440517707361,876,408,0,0,0,3,2,1,32,0003-00-0004-25.png,0002-00-0007-61.png
00000014,775,0,1440517708410,1440517708925,883,394,0,0,0,2,3,1,23,0002-00-0003-71.png,0003-00-0001-40.png
00000014,776,0,1440517711925,1440517711953,509,448,0,0,0,4,3,1,43,0004-00-0004-13.png,0003-00-0007-40.png
00000014,777,0,1440517714955,1440517714979,518,415,0,0,0,3,2,1,32,0003-00-0002-70.png,0002-00-0003-19.png
00000014,778,1,1440517718081,1440517718121,497,492,0,0,0,4,5,1,45,0004-00-0007-71.png,0005-00-0001-15.png
00000014,779,0,1440517719080,1440517719618,927,412,0,0,0,2,3,1,23,0002-00-0009-87.png,0003-00-0006-87.png
00000014,780,0,1440517722452,1440517723044,337,384,0,0,0,5,4,1,54,0005-00-0009-35.png,0004-00-0005-18.png
00000014,781,0,1440517725929,1440517726426,306,368,0,0,0,2,1,1,21,0002-00-0001-60.png,0001-00-0006-27.png
00000014,782,1,1440517729859,1440517730359,310,405,0,0,0,1,2,1,12,0001-00-0000-62.png,0002-00-0005-60.png
00000014,783,0,1440517731287,1440517731844,351,400,0,0,0,4,3,1,43,0004-00-0006-70.png,0003-00-0009-46.png
00000014,784,1,1440517734953,1440517735357,376,423,0,0,0,3,4,1,34,0003-00-0006-07.png,0004-00-0007-30.png
00000014,785,0,1440517736397,1440517736937,891,403,0,0,0,3,4,1,34,0003-00-0003-62.png,0004-00-0009-97.png
00000014,786,0,1440517739884,1440517739904,513,469,0,0,0,5,4,1,54,0005-00-0009-30.png,0004-00-0002-86.png
00000014,787,0,1440517742891,1440517742906,462,468,0,0,0,2,1,1,21,0002-00-0002-77.png,0001-00-0004-56.png
00000014,788,0,1440517745794,1440517746228,376,358,0,0,0,4,3,1,43,0004-00-0000-16.png,0003-00-0002-23.png
00000014,789,1,1440517749334,1440517749370,516,543,0,0,0,1,2,1,12,0001-00-0008-14.png,0002-00-0009-54.png
00000014,790,1,1440517750356,1440517751278,427,385,0,0,0,4,5,1,45,0004-00-0007-37.png,0005-00-0005-54.png
00000014,791,0,1440517752268,1440517752790,874,413,0,0,0,2,3,1,23,0002-00-0004-35.png,0003-00-0004-98.png
00000014,792,0,1440517755791,1440517755819,493,456,0,0,0,3,2,1,32,0003-00-0008-36.png,0002-00-0006-24.png
00000014,793,1,1440517758835,1440517758875,504,436,0,0,0,3,4,1,34,0003-00-0008-22.png,0004-00-0009-04.png
00000014,794,1,1440517759810,1440517760363,876,493,0,0,0,4,3,1,43,0004-00-0009-59.png,0003-00-0009-52.png
00000014,795,1,1440517761339,1440517761874,319,421,0,0,0,1,2,1,12,0001-00-0003-40.png,0002-00-0006-33.png
00000014,796,1,1440517762879,1440517763502,396,487,0,0,0,4,5,1,45,0004-00-0006-37.png,0005-00-0000-45.png
00000014,797,0,1440517764467,1440517764988,880,376,0,0,0,2,3,1,23,0002-00-0007-43.png,0003-00-0007-88.png
00000014,798,0,1440517768027,1440517768047,477,480,0,0,0,2,1,1,21,0002-00-0001-60.png,0001-00-0003-80.png
00000014,799,0,1440517771145,1440517771599,392,415,0,0,0,3,2,1,32,0003-00-0005-60.png,0002-00-0001-16.png
00000014,800,0,1440517775081,1440517775577,340,399,0,0,0,5,4,1,54,0005-00-0009-15.png,0004-00-0006-36.png
00000014,801,1,1440517779184,1440517779824,306,387,0,0,0,3,4,1,34,0003-00-0006-48.png,0004-00-0000-10.png
00000014,802,1,1440517780890,1440517781411,333,401,0,0,0,1,2,1,12,0001-00-0002-31.png,0002-00-0008-90.png
00000014,803,1,1440517782388,1440517782940,367,417,0,0,0,4,5,1,45,0004-00-0006-00.png,0005-00-0000-81.png
00000014,804,0,1440517783900,1440517784876,401,384,0,0,0,5,4,1,54,0005-00-0003-40.png,0004-00-0004-00.png
00000014,805,0,1440517787823,1440517787827,498,444,0,0,0,3,2,1,32,0003-00-0005-50.png,0002-00-0006-78.png
00000014,806,1,1440517790686,1440517791239,901,384,0,0,0,4,3,1,43,0004-00-0002-44.png,0003-00-0009-96.png
00000014,807,1,1440517792149,1440517792679,900,438,0,0,0,2,1,1,21,0002-00-0008-34.png,0001-00-0007-28.png
00000014,808,1,1440517793586,1440517794168,222,473,0,0,0,2,3,1,23,0002-00-0001-30.png,0003-00-0008-84.png
00000014,809,1,1440517795139,1440517795711,878,403,0,0,0,4,3,1,43,0004-00-0005-38.png,0003-00-0000-97.png
00000014,810,0,1440517796657,1440517797215,331,409,0,0,0,2,1,1,21,0002-00-0002-10.png,0001-00-0004-35.png
00000014,811,0,1440517800096,1440517800761,905,389,0,0,0,2,3,1,23,0002-00-0007-49.png,0003-00-0007-35.png
00000014,812,0,1440517803861,1440517804504,919,425,0,0,0,3,4,1,34,0003-00-0003-36.png,0004-00-0000-59.png
00000014,813,1,1440517807611,1440517807672,512,540,0,0,0,4,5,1,45,0004-00-0000-99.png,0005-00-0009-44.png
00000014,814,0,1440517809135,1440517809585,389,410,0,0,0,3,2,1,32,0003-00-0003-34.png,0002-00-0005-70.png
00000014,815,1,1440517812719,1440517812739,520,470,0,0,0,1,2,1,12,0001-00-0000-01.png,0002-00-0008-65.png
00000014,816,1,1440517813614,1440517814160,915,423,0,0,0,5,4,1,54,0005-00-0008-84.png,0004-00-0000-48.png
00000014,817,0,1440517815198,1440517815748,355,403,0,0,0,2,1,1,21,0002-00-0008-83.png,0001-00-0001-21.png
00000014,818,1,1440517818886,1440517819406,916,413,0,0,0,4,3,1,43,0004-00-0006-52.png,0003-00-0008-79.png
00000014,819,0,1440517820316,1440517820868,926,424,0,0,0,3,4,1,34,0003-00-0004-31.png,0004-00-0006-89.png
00000014,820,1,1440517823749,1440517824339,934,361,0,0,0,3,2,1,32,0003-00-0003-25.png,0002-00-0006-02.png
00000014,821,1,1440517825223,1440517825818,363,420,0,0,0,1,2,1,12,0001-00-0000-37.png,0002-00-0005-94.png
00000014,822,0,1440517826803,1440517827346,876,412,0,0,0,4,5,1,45,0004-00-0004-57.png,0005-00-0003-95.png
00000014,823,1,1440517830259,1440517830275,483,461,0,0,0,2,3,1,23,0002-00-0008-95.png,0003-00-0004-91.png
00000014,824,0,1440517831224,1440517831779,331,420,0,0,0,5,4,1,54,0005-00-0004-57.png,0004-00-0001-05.png
00000014,825,0,1440517834946,1440517835705,264,462,0,0,0,5,4,1,54,0005-00-0003-02.png,0004-00-0000-68.png
00000014,826,1,1440517838800,1440517838816,520,499,0,0,0,3,4,1,34,0003-00-0007-85.png,0004-00-0008-73.png
00000014,827,1,1440517839705,1440517840255,427,384,0,0,0,4,5,1,45,0004-00-0009-68.png,0005-00-0006-83.png
00000014,828,0,1440517841243,1440517841733,878,415,0,0,0,2,3,1,23,0002-00-0000-65.png,0003-00-0000-85.png
00000014,829,0,1440517844700,1440517844728,510,438,0,0,0,3,2,1,32,0003-00-0007-78.png,0002-00-0002-45.png
00000014,830,0,1440517847719,1440517848198,389,502,0,0,0,4,3,1,43,0004-00-0007-04.png,0003-00-0002-55.png
00000014,831,1,1440517851291,1440517851790,873,508,0,0,0,2,1,1,21,0002-00-0007-42.png,0001-00-0008-08.png
00000014,832,0,1440517852627,1440517853266,911,398,0,0,0,1,2,1,12,0001-00-0006-77.png,0002-00-0008-75.png
00000014,833,0,1440517856213,1440517856767,898,379,0,0,0,1,2,1,12,0001-00-0002-34.png,0002-00-0004-90.png
00000014,834,0,1440517859731,1440517860216,318,400,0,0,0,4,3,1,43,0004-00-0008-76.png,0003-00-0005-18.png
00000014,835,0,1440517863618,1440517864197,375,358,0,0,0,5,4,1,54,0005-00-0008-72.png,0004-00-0003-22.png
00000014,836,0,1440517867551,1440517868034,349,394,0,0,0,2,1,1,21,0002-00-0009-68.png,0001-00-0002-72.png
00000014,837,1,1440517871020,1440517871546,288,372,0,0,0,3,4,1,34,0003-00-0007-97.png,0004-00-0006-07.png
00000014,838,0,1440517872520,1440517873048,876,435,0,0,0,4,5,1,45,0004-00-0005-43.png,0005-00-0005-00.png
00000014,839,1,1440517875995,1440517876015,493,397,0,0,0,2,3,1,23,0002-00-0007-67.png,0003-00-0001-88.png
00000014,840,0,1440517876953,1440517877522,340,434,0,0,0,3,2,1,32,0003-00-0006-10.png,0002-00-0003-97.png
00000014,841,1,1440517881742,1440517882335,900,541,0,0,0,3,2,1,32,0003-00-0004-31.png,0002-00-0009-97.png
00000014,842,1,1440517883273,1440517883817,345,421,0,0,0,2,3,1,23,0002-00-0004-74.png,0003-00-0000-04.png
00000014,843,0,1440517884943,1440517885503,913,397,0,0,0,3,4,1,34,0003-00-0006-57.png,0004-00-0007-81.png
00000014,844,1,1440517888536,1440517889033,875,501,0,0,0,2,1,1,21,0002-00-0005-79.png,0001-00-0009-70.png
00000014,845,0,1440517889928,1440517890503,412,508,0,0,0,5,4,1,54,0005-00-0009-81.png,0004-00-0007-66.png
00000014,846,1,1440517893387,1440517893974,937,413,0,0,0,4,3,1,43,0004-00-0002-42.png,0003-00-0003-77.png
00000014,847,1,1440517894805,1440517895332,307,419,0,0,0,1,2,1,12,0001-00-0005-59.png,0002-00-0008-75.png
00000014,848,1,1440517896410,1440517897142,410,482,0,0,0,4,5,1,45,0004-00-0000-57.png,0005-00-0003-39.png
00000014,849,1,1440517898553,1440517899037,412,501,0,0,0,3,4,1,34,0003-00-0009-40.png,0004-00-0002-43.png
00000014,850,0,1440517899988,1440517900519,319,421,0,0,0,3,2,1,32,0003-00-0003-47.png,0002-00-0006-81.png
00000014,851,0,1440517903703,1440517904240,875,476,0,0,0,1,2,1,12,0001-00-0008-19.png,0002-00-0001-05.png
00000014,852,0,1440517907289,1440517907329,515,475,0,0,0,4,3,1,43,0004-00-0004-35.png,0003-00-0004-26.png
00000014,853,1,1440517910393,1440517910457,485,546,0,0,0,4,5,1,45,0004-00-0000-27.png,0005-00-0003-41.png
00000014,854,0,1440517911428,1440517912039,350,358,0,0,0,5,4,1,54,0005-00-0002-98.png,0004-00-0005-06.png
00000014,855,0,1440517914932,1440517914972,485,461,0,0,0,2,1,1,21,0002-00-0003-26.png,0001-00-0002-91.png
00000014,856,1,1440517918121,1440517918133,516,522,0,0,0,2,3,1,23,0002-00-0003-44.png,0003-00-0005-19.png
00000014,857,1,1440517919017,1440517919572,401,384,0,0,0,1,2,1,12,0001-00-0008-36.png,0002-00-0000-15.png
00000014,858,0,1440517920539,1440517921082,908,421,0,0,0,3,4,1,34,0003-00-0005-52.png,0004-00-0000-63.png
00000014,859,1,1440517923995,1440517924469,394,506,0,0,0,4,5,1,45,0004-00-0007-85.png,0005-00-0009-85.png
00000014,860,1,1440517925744,1440517926665,907,405,0,0,0,2,1,1,21,0002-00-0008-51.png,0001-00-0001-54.png
00000014,861,0,1440517927573,1440517928120,869,524,0,0,0,2,3,1,23,0002-00-0000-75.png,0003-00-0005-60.png
00000014,862,0,1440517931010,1440517931034,516,448,0,0,0,5,4,1,54,0005-00-0007-87.png,0004-00-0006-87.png
00000014,863,1,1440517933856,1440517934489,928,390,0,0,0,4,3,1,43,0004-00-0008-19.png,0003-00-0003-35.png
00000014,864,1,1440517935392,1440517935937,877,482,0,0,0,3,2,1,32,0003-00-0007-45.png,0002-00-0005-81.png
00000014,865,1,1440517936856,1440517937658,862,358,0,0,0,2,1,1,21,0002-00-0001-75.png,0001-00-0004-38.png
00000014,866,1,1440517938616,1440517939150,900,426,0,0,0,5,4,1,54,0005-00-0002-34.png,0004-00-0006-17.png
00000014,867,0,1440517940036,1440517940586,894,443,0,0,0,1,2,1,12,0001-00-0007-91.png,0002-00-0002-79.png
00000014,868,0,1440517945820,1440517946341,930,404,0,0,0,3,4,1,34,0003-00-0003-68.png,0004-00-0008-04.png
00000014,869,0,1440517949196,1440517949228,515,384,0,0,0,4,3,1,43,0004-00-0001-48.png,0003-00-0003-15.png
00000014,870,1,1440517952603,1440517953101,319,400,0,0,0,4,5,1,45,0004-00-0009-05.png,0005-00-0004-88.png
00000014,871,0,1440517954008,1440517954551,334,404,0,0,0,3,2,1,32,0003-00-0007-16.png,0002-00-0006-41.png
00000014,872,0,1440517958134,1440517958660,951,412,0,0,0,2,3,1,23,0002-00-0000-51.png,0003-00-0001-11.png
00000014,873,1,1440517961801,1440517961873,455,535,0,0,0,3,4,1,34,0003-00-0009-13.png,0004-00-0006-93.png
00000014,874,1,1440517962854,1440517963845,901,436,0,0,0,3,2,1,32,0003-00-0006-27.png,0002-00-0006-79.png
00000014,875,0,1440517964772,1440517965344,879,400,0,0,0,2,3,1,23,0002-00-0007-51.png,0003-00-0002-74.png
00000014,876,1,1440517968431,1440517968934,937,421,0,0,0,2,1,1,21,0002-00-0005-04.png,0001-00-0009-04.png
00000014,877,1,1440517969891,1440517970416,930,402,0,0,0,4,3,1,43,0004-00-0008-40.png,0003-00-0004-19.png
00000014,878,1,1440517971427,1440517972003,905,389,0,0,0,5,4,1,54,0005-00-0002-31.png,0004-00-0001-69.png
00000014,879,0,1440517973466,1440517974033,887,397,0,0,0,1,2,1,12,0001-00-0006-98.png,0002-00-0001-65.png
00000014,880,1,1440517977242,1440517977282,504,488,0,0,0,4,5,1,45,0004-00-0003-22.png,0005-00-0004-94.png
00000014,881,0,1440517978266,1440517978797,332,420,0,0,0,4,3,1,43,0004-00-0004-29.png,0003-00-0001-43.png
00000014,882,1,1440517981794,1440517982299,319,421,0,0,0,1,2,1,12,0001-00-0000-98.png,0002-00-0002-67.png
00000014,883,0,1440517983207,1440517983734,909,480,0,0,0,2,3,1,23,0002-00-0008-51.png,0003-00-0003-96.png
00000014,884,0,1440517986643,1440517986673,515,451,0,0,0,5,4,1,54,0005-00-0006-23.png,0004-00-0002-42.png
00000014,885,1,1440517989726,1440517989794,518,541,0,0,0,4,5,1,45,0004-00-0001-54.png,0005-00-0008-87.png
00000014,886,0,1440517990754,1440517991314,414,501,0,0,0,3,2,1,32,0003-00-0003-07.png,0002-00-0000-96.png
00000014,887,0,1440517994261,1440517994694,338,419,0,0,0,2,1,1,21,0002-00-0001-89.png,0001-00-0006-76.png
00000014,888,1,1440517998502,1440517998546,520,483,0,0,0,3,4,1,34,0003-00-0000-36.png,0004-00-0007-92.png
00000014,889,0,1440517999516,1440518000049,873,423,0,0,0,4,5,1,45,0004-00-0001-23.png,0005-00-0002-55.png
00000014,890,0,1440518003421,1440518003473,522,551,0,0,0,4,3,1,43,0004-00-0002-25.png,0003-00-0008-47.png
00000014,891,0,1440518006702,1440518006778,478,488,0,0,0,3,2,1,32,0003-00-0000-33.png,0002-00-0000-87.png
00000014,892,0,1440518009740,1440518010303,903,388,0,0,0,2,3,1,23,0002-00-0008-05.png,0003-00-0000-92.png
00000014,893,0,1440518013620,1440518014042,931,421,0,0,0,3,4,1,34,0003-00-0000-59.png,0004-00-0008-49.png
00000014,894,0,1440518016966,1440518016990,515,423,0,0,0,5,4,1,54,0005-00-0006-53.png,0004-00-0006-75.png
00000014,895,1,1440518019869,1440518019897,515,446,0,0,0,1,2,1,12,0001-00-0004-59.png,0002-00-0000-96.png
00000014,896,0,1440518020875,1440518021412,390,522,0,0,0,2,1,1,21,0002-00-0006-35.png,0001-00-0008-54.png
00000014,897,1,1440518024303,1440518024331,523,442,0,0,0,4,5,1,45,0004-00-0004-55.png,0005-00-0000-23.png
00000014,898,0,1440518025288,1440518025918,319,368,0,0,0,4,3,1,43,0004-00-0005-90.png,0003-00-0007-94.png
00000014,899,0,1440518028851,1440518029330,887,476,0,0,0,2,3,1,23,0002-00-0004-51.png,0003-00-0003-77.png
00000014,900,1,1440518032181,1440518032723,287,358,0,0,0,1,2,1,12,0001-00-0001-95.png,0002-00-0000-59.png
00000014,901,1,1440518033695,1440518034250,889,427,0,0,0,3,2,1,32,0003-00-0003-38.png,0002-00-0000-91.png
00000014,902,0,1440518035303,1440518035924,901,384,0,0,0,3,4,1,34,0003-00-0009-96.png,0004-00-0004-81.png
00000014,903,1,1440518038849,1440518039357,902,408,0,0,0,5,4,1,54,0005-00-0001-22.png,0004-00-0008-31.png
00000014,904,1,1440518040229,1440518040767,887,424,0,0,0,2,1,1,21,0002-00-0008-79.png,0001-00-0002-72.png
00000014,905,0,1440518041734,1440518042286,906,393,0,0,0,2,3,1,23,0002-00-0008-96.png,0003-00-0007-59.png
00000014,906,0,1440518045287,1440518045317,515,465,0,0,0,3,2,1,32,0003-00-0004-16.png,0002-00-0003-89.png
00000014,907,0,1440518048259,1440518048780,376,358,0,0,0,2,1,1,21,0002-00-0005-15.png,0001-00-0000-90.png
00000014,908,0,1440518051692,1440518051712,488,440,0,0,0,5,4,1,54,0005-00-0001-32.png,0004-00-0008-74.png
00000014,909,0,1440518054668,1440518055166,904,375,0,0,0,1,2,1,12,0001-00-0006-46.png,0002-00-0002-63.png
00000014,910,0,1440518058117,1440518058125,491,448,0,0,0,4,3,1,43,0004-00-0004-88.png,0003-00-0009-43.png
00000014,911,1,1440518061031,1440518061055,503,489,0,0,0,3,4,1,34,0003-00-0006-34.png,0004-00-0008-78.png
00000014,912,0,1440518061978,1440518062539,880,376,0,0,0,4,5,1,45,0004-00-0006-01.png,0005-00-0003-03.png
00000014,913,0,1440518065444,1440518065464,498,435,0,0,0,3,2,1,32,0003-00-0007-90.png,0002-00-0001-98.png
00000014,914,1,1440518068391,1440518068408,473,482,0,0,0,3,4,1,34,0003-00-0009-92.png,0004-00-0001-17.png
00000014,915,1,1440518069313,1440518069860,376,384,0,0,0,4,5,1,45,0004-00-0005-99.png,0005-00-0006-40.png
00000014,916,1,1440518070903,1440518071378,874,410,0,0,0,4,3,1,43,0004-00-0002-25.png,0003-00-0008-02.png
00000014,917,1,1440518072464,1440518073022,906,399,0,0,0,5,4,1,54,0005-00-0005-99.png,0004-00-0008-35.png
00000014,918,1,1440518074005,1440518074553,899,437,0,0,0,2,1,1,21,0002-00-0009-39.png,0001-00-0004-19.png
00000014,919,0,1440518075541,1440518076040,877,496,0,0,0,1,2,1,12,0001-00-0006-26.png,0002-00-0003-90.png
00000014,920,1,1440518079004,1440518079644,397,504,0,0,0,2,3,1,23,0002-00-0001-00.png,0003-00-0002-64.png
00000014,921,1,1440518080675,1440518081233,358,420,0,0,0,4,5,1,45,0004-00-0001-39.png,0005-00-0002-07.png
00000014,922,0,1440518082200,1440518082740,862,424,0,0,0,3,4,1,34,0003-00-0002-03.png,0004-00-0005-49.png
00000014,923,1,1440518085668,1440518085696,498,452,0,0,0,1,2,1,12,0001-00-0005-46.png,0002-00-0007-96.png
00000014,924,1,1440518087017,1440518087492,391,399,0,0,0,2,3,1,23,0002-00-0009-30.png,0003-00-0009-11.png
00000014,925,1,1440518088879,1440518089360,873,406,0,0,0,4,3,1,43,0004-00-0008-91.png,0003-00-0005-80.png
00000014,926,1,1440518090343,1440518090911,862,397,0,0,0,2,1,1,21,0002-00-0006-12.png,0001-00-0003-84.png
00000014,927,1,1440518091881,1440518092455,876,410,0,0,0,3,2,1,32,0003-00-0000-65.png,0002-00-0003-79.png
00000014,928,1,1440518093500,1440518094116,909,365,0,0,0,5,4,1,54,0005-00-0007-54.png,0004-00-0008-46.png
00000014,929,1,1440518095130,1440518095696,368,428,0,0,0,3,4,1,34,0003-00-0009-21.png,0004-00-0005-59.png
00000014,930,1,1440518096690,1440518097196,871,431,0,0,0,4,3,1,43,0004-00-0007-27.png,0003-00-0007-40.png
00000014,931,1,1440518098280,1440518099238,926,411,0,0,0,5,4,1,54,0005-00-0001-39.png,0004-00-0002-96.png
00000014,932,1,1440518100237,1440518100761,879,401,0,0,0,3,2,1,32,0003-00-0000-86.png,0002-00-0005-35.png
00000014,933,1,1440518101789,1440518102310,906,417,0,0,0,2,1,1,21,0002-00-0007-94.png,0001-00-0007-44.png
00000014,934,1,1440518103276,1440518103304,504,474,0,0,0,2,3,1,23,0002-00-0001-72.png,0003-00-0006-30.png
00000014,935,1,1440518104681,1440518105714,427,436,0,0,0,1,2,1,12,0001-00-0000-98.png,0002-00-0002-93.png
00000014,936,1,1440518107271,1440518108620,427,384,0,0,0,4,5,1,45,0004-00-0003-13.png,0005-00-0009-93.png
00000014,937,0,1440518109740,1440518110667,374,409,0,0,0,5,4,1,54,0005-00-0003-94.png,0004-00-0009-11.png
00000014,938,1,1440518113560,1440518113608,456,462,0,0,0,2,3,1,23,0002-00-0000-01.png,0003-00-0004-04.png
00000014,939,1,1440518114570,1440518115107,888,424,0,0,0,4,3,1,43,0004-00-0009-06.png,0003-00-0003-48.png
00000014,940,1,1440518116145,1440518116632,871,509,0,0,0,3,2,1,32,0003-00-0002-60.png,0002-00-0001-71.png
00000014,941,1,1440518117648,1440518118245,416,507,0,0,0,4,5,1,45,0004-00-0000-69.png,0005-00-0008-01.png
00000014,942,1,1440518119356,1440518120436,370,437,0,0,0,1,2,1,12,0001-00-0008-13.png,0002-00-0004-49.png
