subject_id,trial,correct_response,stim_time,response_time,x_coord,y_coord,trial_timeout,timeout_time,interTrial_timeout,left_rank,right_rank,distance,joint_rank,left_image,right_image
00000009,1,1,1441207389804,1441207390787,1201,322,0,0,0,2,1,1,21,0002-00-0009-81.png,0001-00-0000-92.png
00000009,2,0,1441207392024,1441207392088,965,294,0,0,0,2,3,1,23,0002-00-0007-31.png,0003-00-0007-80.png
00000009,3,0,1441207395062,1441207395074,857,377,0,0,0,3,4,1,34,0003-00-0002-23.png,0004-00-0003-74.png
00000009,4,0,1441207398327,1441207399185,1095,285,0,0,0,1,2,1,12,0001-00-0006-14.png,0002-00-0008-44.png
00000009,5,0,1441207402357,1441207402983,428,225,0,0,0,4,3,1,43,0004-00-0007-91.png,0003-00-0007-72.png
00000009,6,0,1441207406279,1441207406346,888,306,0,0,0,4,5,1,45,0004-00-0000-08.png,0005-00-0000-95.png
00000009,7,1,1441207409886,1441207410210,952,309,0,0,0,3,2,1,32,0003-00-0002-10.png,0002-00-0005-37.png
00000009,8,1,1441207412224,1441207412777,1067,285,0,0,0,5,4,1,54,0005-00-0001-07.png,0004-00-0002-96.png
00000009,9,1,1441207413804,1441207413901,931,365,0,0,0,5,4,1,54,0005-00-0005-20.png,0004-00-0000-94.png
00000009,10,0,1441207415141,1441207415225,898,410,0,0,0,3,4,1,34,0003-00-0008-09.png,0004-00-0004-54.png
00000009,11,0,1441207418399,1441207418938,963,349,0,0,0,1,2,1,12,0001-00-0006-06.png,0002-00-0005-87.png
00000009,12,1,1441207421842,1441207422804,960,289,0,0,0,4,3,1,43,0004-00-0007-86.png,0003-00-0003-77.png
00000009,13,1,1441207423724,1441207424815,1039,307,0,0,0,2,1,1,21,0002-00-0004-97.png,0001-00-0007-38.png
00000009,14,1,1441207425908,1441207425992,939,445,0,0,0,3,2,1,32,0003-00-0008-97.png,0002-00-0002-33.png
00000009,15,0,1441207427313,1441207427393,904,395,0,0,0,4,5,1,45,0004-00-0008-00.png,0005-00-0005-06.png
00000009,16,0,1441207430965,1441207431503,1054,306,0,0,0,2,3,1,23,0002-00-0005-08.png,0003-00-0008-66.png
00000009,17,1,1441207434700,1441207435268,1092,296,0,0,0,3,2,1,32,0003-00-0003-24.png,0002-00-0006-06.png
00000009,18,0,1441207436207,1441207437135,1095,287,0,0,0,1,2,1,12,0001-00-0004-24.png,0002-00-0003-02.png
00000009,19,0,1441207440205,1441207440752,929,410,0,0,0,3,4,1,34,0003-00-0008-72.png,0004-00-0008-69.png
00000009,20,1,1441207443682,1441207443702,491,510,0,0,0,4,5,1,45,0004-00-0007-46.png,0005-00-0002-59.png
00000009,21,1,1441207444835,1441207445691,992,328,0,0,0,4,3,1,43,0004-00-0008-15.png,0003-00-0001-79.png
00000009,22,1,1441207446674,1441207446917,913,451,0,0,0,2,1,1,21,0002-00-0007-74.png,0001-00-0003-05.png
00000009,23,0,1441207448074,1441207448190,888,427,0,0,0,2,3,1,23,0002-00-0008-68.png,0003-00-0009-00.png
00000009,24,1,1441207451077,1441207451670,957,358,0,0,0,5,4,1,54,0005-00-0004-31.png,0004-00-0005-02.png
00000009,25,1,1441207452505,1441207452720,964,426,0,0,0,5,4,1,54,0005-00-0006-39.png,0004-00-0005-24.png
00000009,26,0,1441207453875,1441207453930,866,418,0,0,0,3,4,1,34,0003-00-0004-65.png,0004-00-0007-63.png
00000009,27,0,1441207457724,1441207458237,877,351,0,0,0,4,5,1,45,0004-00-0007-04.png,0005-00-0005-10.png
00000009,28,0,1441207461873,1441207462452,939,420,0,0,0,2,3,1,23,0002-00-0000-36.png,0003-00-0006-52.png
00000009,29,1,1441207465675,1441207465684,869,304,0,0,0,3,2,1,32,0003-00-0008-33.png,0002-00-0007-24.png
00000009,30,0,1441207466688,1441207466808,911,466,0,0,0,1,2,1,12,0001-00-0004-09.png,0002-00-0009-76.png
00000009,31,1,1441207469862,1441207470388,1041,268,0,0,0,2,1,1,21,0002-00-0005-89.png,0001-00-0008-33.png
00000009,32,1,1441207471290,1441207471368,867,442,0,0,0,4,3,1,43,0004-00-0002-08.png,0003-00-0009-76.png
00000009,33,0,1441207472453,1441207472521,873,436,0,0,0,2,3,1,23,0002-00-0002-75.png,0003-00-0001-06.png
00000009,34,0,1441207475656,1441207476221,964,410,0,0,0,3,4,1,34,0003-00-0000-67.png,0004-00-0008-34.png
00000009,35,1,1441207479361,1441207480046,352,364,0,0,0,1,2,1,12,0001-00-0001-35.png,0002-00-0007-21.png
00000009,36,0,1441207480957,1441207481971,320,403,0,0,0,2,1,1,21,0002-00-0006-78.png,0001-00-0004-34.png
00000009,37,0,1441207485170,1441207485418,985,436,0,0,0,4,5,1,45,0004-00-0005-81.png,0005-00-0005-10.png
00000009,38,1,1441207488695,1441207488996,1035,293,0,0,0,5,4,1,54,0005-00-0001-90.png,0004-00-0009-75.png
00000009,39,0,1441207489966,1441207490948,331,418,0,0,0,4,3,1,43,0004-00-0001-39.png,0003-00-0008-98.png
00000009,40,1,1441207494031,1441207494531,921,330,0,0,0,3,2,1,32,0003-00-0004-76.png,0002-00-0001-51.png
00000009,41,1,1441207495363,1441207495595,929,462,0,0,0,2,1,1,21,0002-00-0001-92.png,0001-00-0008-21.png
00000009,42,0,1441207496629,1441207497514,358,434,0,0,0,3,2,1,32,0003-00-0008-03.png,0002-00-0002-95.png
00000009,43,0,1441207500580,1441207501148,916,333,0,0,0,3,4,1,34,0003-00-0002-27.png,0004-00-0002-58.png
00000009,44,0,1441207504067,1441207504632,325,378,0,0,0,4,3,1,43,0004-00-0002-76.png,0003-00-0005-00.png
00000009,45,1,1441207507766,1441207508338,302,426,0,0,0,2,3,1,23,0002-00-0005-87.png,0003-00-0002-45.png
00000009,46,1,1441207509322,1441207509382,862,410,0,0,0,5,4,1,54,0005-00-0005-86.png,0004-00-0004-59.png
00000009,47,1,1441207512512,1441207513160,431,238,0,0,0,4,5,1,45,0004-00-0006-60.png,0005-00-0000-33.png
00000009,48,0,1441207514108,1441207514161,897,376,0,0,0,1,2,1,12,0001-00-0007-37.png,0002-00-0000-71.png
00000009,49,1,1441207517300,1441207518078,947,400,0,0,0,5,4,1,54,0005-00-0009-68.png,0004-00-0004-65.png
00000009,50,1,1441207518892,1441207519048,949,413,0,0,0,2,1,1,21,0002-00-0000-24.png,0001-00-0008-58.png
00000009,51,0,1441207520139,1441207520212,900,400,0,0,0,3,4,1,34,0003-00-0008-56.png,0004-00-0003-68.png
00000009,52,1,1441207523863,1441207524415,968,330,0,0,0,3,2,1,32,0003-00-0000-29.png,0002-00-0009-88.png
00000009,53,0,1441207525304,1441207525369,1007,482,0,0,0,2,3,1,23,0002-00-0000-19.png,0003-00-0006-57.png
00000009,54,0,1441207528543,1441207528571,913,346,0,0,0,4,5,1,45,0004-00-0004-71.png,0005-00-0005-37.png
00000009,55,0,1441207532236,1441207532830,297,402,0,0,0,4,3,1,43,0004-00-0005-91.png,0003-00-0000-66.png
00000009,56,0,1441207536661,1441207537155,966,357,0,0,0,1,2,1,12,0001-00-0007-53.png,0002-00-0002-74.png
00000009,57,0,1441207540289,1441207540912,960,350,0,0,0,4,5,1,45,0004-00-0008-02.png,0005-00-0003-96.png
00000009,58,1,1441207543782,1441207544359,940,321,0,0,0,3,2,1,32,0003-00-0005-36.png,0002-00-0006-45.png
00000009,59,1,1441207547017,1441207548013,896,362,0,0,0,2,1,1,21,0002-00-0001-53.png,0001-00-0006-07.png
00000009,60,0,1441207549779,1441207550425,403,264,0,0,0,4,3,1,43,0004-00-0008-50.png,0003-00-0001-38.png
00000009,61,0,1441207553702,1441207554242,937,328,0,0,0,1,2,1,12,0001-00-0006-53.png,0002-00-0007-78.png
00000009,62,0,1441207557072,1441207557092,522,481,0,0,0,5,4,1,54,0005-00-0005-98.png,0004-00-0008-34.png
00000009,63,0,1441207560531,1441207560546,883,363,0,0,0,3,4,1,34,0003-00-0009-79.png,0004-00-0005-26.png
00000009,64,1,1441207563562,1441207564128,305,377,0,0,0,2,3,1,23,0002-00-0005-44.png,0003-00-0000-99.png
00000009,65,0,1441207565085,1441207565175,898,410,0,0,0,3,4,1,34,0003-00-0007-48.png,0004-00-0002-15.png
00000009,66,0,1441207568082,1441207568780,432,234,0,0,0,2,1,1,21,0002-00-0002-48.png,0001-00-0002-84.png
00000009,67,1,1441207571941,1441207572461,936,332,0,0,0,3,2,1,32,0003-00-0007-49.png,0002-00-0007-17.png
00000009,68,0,1441207573280,1441207573737,990,436,0,0,0,4,5,1,45,0004-00-0006-72.png,0005-00-0003-59.png
00000009,69,0,1441207576908,1441207577518,327,375,0,0,0,4,3,1,43,0004-00-0009-84.png,0003-00-0007-43.png
00000009,70,1,1441207580636,1441207581312,324,379,0,0,0,2,3,1,23,0002-00-0004-67.png,0003-00-0006-64.png
00000009,71,1,1441207582214,1441207582294,881,390,0,0,0,5,4,1,54,0005-00-0006-80.png,0004-00-0005-00.png
00000009,72,0,1441207583892,1441207583968,862,358,0,0,0,1,2,1,12,0001-00-0004-11.png,0002-00-0002-46.png
00000009,73,0,1441207587788,1441207588394,1016,332,0,0,0,3,4,1,34,0003-00-0001-17.png,0004-00-0007-56.png
00000009,74,1,1441207591593,1441207592185,401,346,0,0,0,1,2,1,12,0001-00-0009-43.png,0002-00-0001-25.png
00000009,75,1,1441207593046,1441207594170,917,377,0,0,0,2,1,1,21,0002-00-0003-26.png,0001-00-0008-77.png
00000009,76,1,1441207595029,1441207595116,888,450,0,0,0,3,2,1,32,0003-00-0009-62.png,0002-00-0003-36.png
00000009,77,0,1441207596426,1441207596514,903,410,0,0,0,4,5,1,45,0004-00-0006-47.png,0005-00-0008-82.png
00000009,78,0,1441207599654,1441207600312,339,391,0,0,0,5,4,1,54,0005-00-0006-29.png,0004-00-0001-32.png
00000009,79,1,1441207603493,1441207603541,922,357,0,0,0,4,3,1,43,0004-00-0005-74.png,0003-00-0007-93.png
00000009,80,0,1441207604501,1441207604582,862,436,0,0,0,2,3,1,23,0002-00-0009-66.png,0003-00-0000-65.png
00000009,81,1,1441207607736,1441207608469,1083,332,0,0,0,5,4,1,54,0005-00-0004-45.png,0004-00-0000-30.png
00000009,82,0,1441207609333,1441207609635,964,498,0,0,0,2,3,1,23,0002-00-0003-85.png,0003-00-0009-05.png
00000009,83,0,1441207612931,1441207613662,925,384,0,0,0,4,5,1,45,0004-00-0003-77.png,0005-00-0008-85.png
00000009,84,1,1441207616740,1441207616768,920,360,0,0,0,3,2,1,32,0003-00-0001-99.png,0002-00-0007-53.png
00000009,85,1,1441207617654,1441207618607,329,401,0,0,0,1,2,1,12,0001-00-0000-30.png,0002-00-0004-64.png
00000009,86,1,1441207619528,1441207619612,862,420,0,0,0,2,1,1,21,0002-00-0005-20.png,0001-00-0005-21.png
00000009,87,1,1441207620703,1441207620795,871,410,0,0,0,4,3,1,43,0004-00-0006-26.png,0003-00-0003-25.png
00000009,88,0,1441207621981,1441207622473,881,470,0,0,0,3,4,1,34,0003-00-0007-35.png,0004-00-0004-75.png
00000009,89,0,1441207625662,1441207626220,964,329,0,0,0,3,4,1,34,0003-00-0003-92.png,0004-00-0005-40.png
00000009,90,1,1441207629427,1441207630135,406,297,0,0,0,2,3,1,23,0002-00-0005-50.png,0003-00-0009-28.png
00000009,91,1,1441207631027,1441207631087,862,428,0,0,0,4,3,1,43,0004-00-0007-23.png,0003-00-0007-26.png
00000009,92,1,1441207632028,1441207633061,914,340,0,0,0,2,1,1,21,0002-00-0002-43.png,0001-00-0009-56.png
00000009,93,1,1441207633932,1441207634014,894,431,0,0,0,3,2,1,32,0003-00-0005-94.png,0002-00-0006-66.png
00000009,94,0,1441207635498,1441207635582,862,436,0,0,0,4,5,1,45,0004-00-0000-25.png,0005-00-0005-98.png
00000009,95,0,1441207638983,1441207639065,978,278,0,0,0,1,2,1,12,0001-00-0005-41.png,0002-00-0000-79.png
00000009,96,0,1441207642077,1441207642674,362,363,0,0,0,5,4,1,54,0005-00-0002-94.png,0004-00-0003-21.png
00000009,97,0,1441207646751,1441207647384,370,385,0,0,0,2,1,1,21,0002-00-0008-07.png,0001-00-0007-18.png
00000009,98,0,1441207650448,1441207650547,896,320,0,0,0,2,3,1,23,0002-00-0002-29.png,0003-00-0005-17.png
00000009,99,0,1441207653394,1441207653925,946,343,0,0,0,3,4,1,34,0003-00-0004-57.png,0004-00-0007-42.png
00000009,100,1,1441207657125,1441207657828,354,388,0,0,0,1,2,1,12,0001-00-0008-47.png,0002-00-0004-05.png
00000009,101,0,1441207658758,1441207658869,914,453,0,0,0,4,5,1,45,0004-00-0009-19.png,0005-00-0006-02.png
00000009,102,0,1441207662060,1441207662808,410,273,0,0,0,4,3,1,43,0004-00-0009-60.png,0003-00-0007-21.png
00000009,103,1,1441207665658,1441207666237,946,334,0,0,0,3,2,1,32,0003-00-0006-07.png,0002-00-0008-29.png
00000009,104,1,1441207667145,1441207667267,913,410,0,0,0,5,4,1,54,0005-00-0008-79.png,0004-00-0000-76.png
00000009,105,0,1441207668381,1441207668465,881,418,0,0,0,2,3,1,23,0002-00-0001-13.png,0003-00-0008-86.png
00000009,106,0,1441207671544,1441207672527,1060,270,0,0,0,3,4,1,34,0003-00-0002-44.png,0004-00-0006-35.png
00000009,107,1,1441207675517,1441207676114,955,305,0,0,0,4,3,1,43,0004-00-0004-44.png,0003-00-0004-35.png
00000009,108,0,1441207677021,1441207677116,939,425,0,0,0,1,2,1,12,0001-00-0006-14.png,0002-00-0005-66.png
00000009,109,1,1441207680192,1441207680736,1044,279,0,0,0,2,1,1,21,0002-00-0004-73.png,0001-00-0008-22.png
00000009,110,0,1441207682126,1441207682301,913,384,0,0,0,4,5,1,45,0004-00-0000-05.png,0005-00-0007-15.png
00000009,111,1,1441207685368,1441207685954,937,320,0,0,0,5,4,1,54,0005-00-0004-98.png,0004-00-0000-64.png
00000009,112,1,1441207687405,1441207687609,904,383,0,0,0,3,2,1,32,0003-00-0001-84.png,0002-00-0003-13.png
00000009,113,0,1441207688795,1441207689739,451,260,0,0,0,3,2,1,32,0003-00-0008-78.png,0002-00-0006-64.png
00000009,114,0,1441207692910,1441207693636,326,377,0,0,0,5,4,1,54,0005-00-0003-22.png,0004-00-0002-49.png
00000009,115,0,1441207696613,1441207696664,929,408,0,0,0,4,5,1,45,0004-00-0009-45.png,0005-00-0004-47.png
00000009,116,0,1441207699533,1441207699571,518,473,0,0,0,2,1,1,21,0002-00-0001-88.png,0001-00-0004-93.png
00000009,117,1,1441207703084,1441207703612,344,387,0,0,0,2,3,1,23,0002-00-0000-71.png,0003-00-0003-54.png
00000009,118,0,1441207704556,1441207704616,874,410,0,0,0,1,2,1,12,0001-00-0000-80.png,0002-00-0002-40.png
00000009,119,1,1441207707860,1441207708364,961,330,0,0,0,4,3,1,43,0004-00-0006-68.png,0003-00-0007-43.png
00000009,120,0,1441207709790,1441207709901,917,382,0,0,0,3,4,1,34,0003-00-0009-62.png,0004-00-0000-06.png
00000009,121,1,1441207712913,1441207713458,905,362,0,0,0,2,1,1,21,0002-00-0002-81.png,0001-00-0002-67.png
00000009,122,1,1441207714791,1441207714965,905,410,0,0,0,3,2,1,32,0003-00-0005-82.png,0002-00-0007-61.png
00000009,123,0,1441207716260,1441207716332,897,410,0,0,0,2,3,1,23,0002-00-0008-33.png,0003-00-0002-55.png
00000009,124,0,1441207720269,1441207720826,920,350,0,0,0,4,5,1,45,0004-00-0007-70.png,0005-00-0000-71.png
00000009,125,1,1441207723928,1441207724479,1063,303,0,0,0,5,4,1,54,0005-00-0003-95.png,0004-00-0000-14.png
00000009,126,1,1441207725343,1441207725485,904,436,0,0,0,4,3,1,43,0004-00-0000-32.png,0003-00-0009-84.png
00000009,127,0,1441207726590,1441207726670,901,410,0,0,0,3,4,1,34,0003-00-0008-05.png,0004-00-0009-85.png
00000009,128,0,1441207729817,1441207729900,893,254,0,0,0,1,2,1,12,0001-00-0009-67.png,0002-00-0009-27.png
00000009,129,1,1441207733041,1441207733903,1067,274,0,0,0,2,1,1,21,0002-00-0005-23.png,0001-00-0002-22.png
00000009,130,1,1441207734794,1441207734870,913,448,0,0,0,4,3,1,43,0004-00-0001-44.png,0003-00-0006-83.png
00000009,131,1,1441207736163,1441207736223,862,397,0,0,0,3,2,1,32,0003-00-0007-94.png,0002-00-0007-72.png
00000009,132,0,1441207737584,1441207737644,900,395,0,0,0,1,2,1,12,0001-00-0005-31.png,0002-00-0000-42.png
00000009,133,0,1441207740787,1441207741372,1070,282,0,0,0,3,4,1,34,0003-00-0003-29.png,0004-00-0005-03.png
00000009,134,1,1441207744238,1441207744824,355,375,0,0,0,2,3,1,23,0002-00-0009-63.png,0003-00-0008-26.png
00000009,135,0,1441207745775,1441207745850,871,428,0,0,0,4,5,1,45,0004-00-0003-37.png,0005-00-0003-14.png
00000009,136,1,1441207749039,1441207749104,960,329,0,0,0,5,4,1,54,0005-00-0003-15.png,0004-00-0002-18.png
00000009,137,0,1441207750142,1441207750233,888,445,0,0,0,3,4,1,34,0003-00-0007-01.png,0004-00-0005-47.png
00000009,138,1,1441207753465,1441207753581,942,288,0,0,0,5,4,1,54,0005-00-0001-09.png,0004-00-0009-11.png
00000009,139,0,1441207754611,1441207754695,894,456,0,0,0,1,2,1,12,0001-00-0001-61.png,0002-00-0007-55.png
00000009,140,1,1441207757661,1441207758210,937,349,0,0,0,4,3,1,43,0004-00-0008-82.png,0003-00-0007-82.png
00000009,141,1,1441207759585,1441207759739,939,384,0,0,0,2,1,1,21,0002-00-0000-84.png,0001-00-0000-14.png
00000009,142,1,1441207760818,1441207761875,365,374,0,0,0,2,3,1,23,0002-00-0006-69.png,0003-00-0004-60.png
00000009,143,0,1441207763153,1441207763272,929,391,0,0,0,4,5,1,45,0004-00-0007-64.png,0005-00-0002-30.png
00000009,144,1,1441207766465,1441207766493,969,334,0,0,0,3,2,1,32,0003-00-0003-30.png,0002-00-0003-36.png
00000009,145,0,1441207767504,1441207767588,910,451,0,0,0,3,4,1,34,0003-00-0001-08.png,0004-00-0002-50.png
00000009,146,0,1441207770792,1441207771356,1066,274,0,0,0,1,2,1,12,0001-00-0004-88.png,0002-00-0001-21.png
00000009,147,1,1441207774474,1441207775062,1051,279,0,0,0,3,2,1,32,0003-00-0004-71.png,0002-00-0003-36.png
00000009,148,1,1441207776611,1441207776772,912,381,0,0,0,4,3,1,43,0004-00-0009-42.png,0003-00-0002-15.png
00000009,149,0,1441207777910,1441207778014,897,410,0,0,0,4,5,1,45,0004-00-0002-09.png,0005-00-0007-27.png
00000009,150,1,1441207781131,1441207781368,915,330,0,0,0,5,4,1,54,0005-00-0009-76.png,0004-00-0001-54.png
00000009,151,1,1441207782231,1441207782353,936,434,0,0,0,2,1,1,21,0002-00-0005-36.png,0001-00-0004-68.png
00000009,152,0,1441207784084,1441207784196,913,460,0,0,0,2,3,1,23,0002-00-0009-46.png,0003-00-0007-79.png
00000009,153,0,1441207787322,1441207787859,406,305,0,0,0,4,3,1,43,0004-00-0004-74.png,0003-00-0009-26.png
00000009,154,1,1441207790697,1441207790749,865,420,0,0,0,5,4,1,54,0005-00-0003-47.png,0004-00-0001-02.png
00000009,155,1,1441207791786,1441207791870,944,421,0,0,0,3,2,1,32,0003-00-0009-02.png,0002-00-0008-75.png
00000009,156,1,1441207792743,1441207793842,343,399,0,0,0,1,2,1,12,0001-00-0009-84.png,0002-00-0007-37.png
00000009,157,1,1441207794982,1441207795077,888,410,0,0,0,2,1,1,21,0002-00-0005-27.png,0001-00-0003-92.png
00000009,158,0,1441207796322,1441207796393,888,410,0,0,0,4,5,1,45,0004-00-0003-48.png,0005-00-0001-84.png
00000009,159,0,1441207799577,1441207799617,972,334,0,0,0,2,3,1,23,0002-00-0009-68.png,0003-00-0009-62.png
00000009,160,0,1441207802644,1441207803257,919,321,0,0,0,3,4,1,34,0003-00-0009-51.png,0004-00-0008-67.png
00000009,161,1,1441207806192,1441207806717,949,352,0,0,0,5,4,1,54,0005-00-0000-93.png,0004-00-0007-57.png
00000009,162,1,1441207807542,1441207807610,913,437,0,0,0,3,2,1,32,0003-00-0007-38.png,0002-00-0004-49.png
00000009,163,1,1441207808467,1441207808519,862,448,0,0,0,4,3,1,43,0004-00-0001-14.png,0003-00-0009-09.png
00000009,164,1,1441207809744,1441207810555,338,374,0,0,0,1,2,1,12,0001-00-0002-78.png,0002-00-0002-61.png
00000009,165,0,1441207811587,1441207811957,880,470,0,0,0,4,5,1,45,0004-00-0002-73.png,0005-00-0002-21.png
00000009,166,0,1441207815099,1441207815127,959,328,0,0,0,3,4,1,34,0003-00-0006-53.png,0004-00-0005-62.png
00000009,167,1,1441207818191,1441207818755,926,325,0,0,0,2,1,1,21,0002-00-0000-74.png,0001-00-0006-60.png
00000009,168,0,1441207819575,1441207819647,913,384,0,0,0,2,3,1,23,0002-00-0007-14.png,0003-00-0003-38.png
00000009,169,0,1441207822780,1441207822805,888,358,0,0,0,4,5,1,45,0004-00-0005-74.png,0005-00-0009-47.png
00000009,170,1,1441207825760,1441207825816,872,392,0,0,0,2,1,1,21,0002-00-0007-89.png,0001-00-0007-24.png
00000009,171,0,1441207826770,1441207826871,913,410,0,0,0,3,4,1,34,0003-00-0001-01.png,0004-00-0002-58.png
00000009,172,0,1441207830051,1441207830119,990,330,0,0,0,1,2,1,12,0001-00-0001-61.png,0002-00-0007-26.png
00000009,173,1,1441207832951,1441207833550,935,305,0,0,0,4,3,1,43,0004-00-0001-03.png,0003-00-0001-20.png
00000009,174,1,1441207835191,1441207835812,357,383,0,0,0,2,3,1,23,0002-00-0000-30.png,0003-00-0006-21.png
00000009,175,1,1441207836922,1441207837038,928,410,0,0,0,3,2,1,32,0003-00-0007-66.png,0002-00-0009-90.png
00000009,176,1,1441207838079,1441207838151,879,436,0,0,0,5,4,1,54,0005-00-0004-79.png,0004-00-0001-67.png
00000009,177,1,1441207839405,1441207839465,881,420,0,0,0,4,3,1,43,0004-00-0009-75.png,0003-00-0000-69.png
00000009,178,0,1441207840985,1441207841050,888,421,0,0,0,3,4,1,34,0003-00-0000-31.png,0004-00-0005-22.png
00000009,179,1,1441207844249,1441207844877,428,229,0,0,0,4,5,1,45,0004-00-0005-52.png,0005-00-0007-49.png
00000009,180,0,1441207845772,1441207846640,429,274,0,0,0,2,1,1,21,0002-00-0004-08.png,0001-00-0004-04.png
00000009,181,1,1441207849840,1441207850472,328,409,0,0,0,2,3,1,23,0002-00-0006-68.png,0003-00-0007-33.png
00000009,182,1,1441207851367,1441207851434,868,426,0,0,0,5,4,1,54,0005-00-0009-19.png,0004-00-0008-19.png
00000009,183,0,1441207852653,1441207852696,871,390,0,0,0,1,2,1,12,0001-00-0008-72.png,0002-00-0009-03.png
00000009,184,0,1441207855549,1441207855577,521,546,0,0,0,3,2,1,32,0003-00-0005-65.png,0002-00-0001-48.png
00000009,185,1,1441207858731,1441207859360,948,327,0,0,0,5,4,1,54,0005-00-0006-51.png,0004-00-0008-98.png
00000009,186,1,1441207860186,1441207860278,924,410,0,0,0,4,3,1,43,0004-00-0000-51.png,0003-00-0003-96.png
00000009,187,0,1441207861274,1441207861326,878,436,0,0,0,4,5,1,45,0004-00-0001-40.png,0005-00-0006-58.png
00000009,188,0,1441207864204,1441207864956,924,341,0,0,0,3,4,1,34,0003-00-0001-72.png,0004-00-0002-84.png
00000009,189,0,1441207868307,1441207868329,914,357,0,0,0,1,2,1,12,0001-00-0003-01.png,0002-00-0006-25.png
00000009,190,0,1441207871449,1441207872088,344,380,0,0,0,2,1,1,21,0002-00-0006-16.png,0001-00-0007-82.png
00000009,191,1,1441207875243,1441207875464,862,410,0,0,0,3,2,1,32,0003-00-0002-77.png,0002-00-0004-30.png
00000009,192,0,1441207876390,1441207876446,881,419,0,0,0,2,3,1,23,0002-00-0000-55.png,0003-00-0002-06.png
00000009,193,0,1441207879271,1441207879541,896,342,0,0,0,4,5,1,45,0004-00-0006-80.png,0005-00-0004-90.png
00000009,194,1,1441207882652,1441207883342,1062,276,0,0,0,3,2,1,32,0003-00-0003-10.png,0002-00-0007-43.png
00000009,195,1,1441207884199,1441207884306,924,410,0,0,0,5,4,1,54,0005-00-0001-24.png,0004-00-0008-15.png
00000009,196,0,1441207885470,1441207885542,876,410,0,0,0,3,4,1,34,0003-00-0006-73.png,0004-00-0004-23.png
00000009,197,0,1441207888525,1441207889627,1067,288,0,0,0,1,2,1,12,0001-00-0009-15.png,0002-00-0006-60.png
00000009,198,0,1441207892803,1441207893472,319,372,0,0,0,2,1,1,21,0002-00-0003-61.png,0001-00-0006-68.png
00000009,199,0,1441207896367,1441207896394,915,369,0,0,0,2,3,1,23,0002-00-0001-45.png,0003-00-0005-86.png
00000009,200,1,1441207899577,1441207900076,939,358,0,0,0,4,3,1,43,0004-00-0003-42.png,0003-00-0003-09.png
00000009,201,1,1441207901788,1441207902396,1095,258,0,0,0,2,1,1,21,0002-00-0009-94.png,0001-00-0005-26.png
00000009,202,1,1441207903280,1441207903372,888,399,0,0,0,4,3,1,43,0004-00-0006-15.png,0003-00-0009-63.png
00000009,203,0,1441207904588,1441207904673,888,436,0,0,0,3,4,1,34,0003-00-0002-49.png,0004-00-0000-70.png
00000009,204,1,1441207907890,1441207907910,944,338,0,0,0,5,4,1,54,0005-00-0009-10.png,0004-00-0005-30.png
00000009,205,1,1441207908913,1441207908971,888,410,0,0,0,3,2,1,32,0003-00-0008-74.png,0002-00-0008-53.png
00000009,206,0,1441207910075,1441207910676,878,469,0,0,0,2,3,1,23,0002-00-0005-25.png,0003-00-0006-69.png
00000009,207,0,1441207913794,1441207914329,945,336,0,0,0,4,5,1,45,0004-00-0002-98.png,0005-00-0001-92.png
00000009,208,0,1441207917460,1441207918084,932,338,0,0,0,1,2,1,12,0001-00-0005-59.png,0002-00-0001-71.png
00000009,209,1,1441207921205,1441207921746,964,347,0,0,0,4,3,1,43,0004-00-0008-18.png,0003-00-0006-70.png
00000009,210,1,1441207923405,1441207924043,1063,278,0,0,0,3,2,1,32,0003-00-0003-86.png,0002-00-0008-14.png
00000009,211,0,1441207924937,1441207925032,926,406,0,0,0,2,3,1,23,0002-00-0005-15.png,0003-00-0008-85.png
00000009,212,0,1441207928192,1441207928708,944,310,0,0,0,3,4,1,34,0003-00-0000-31.png,0004-00-0008-38.png
00000009,213,1,1441207931799,1441207932523,328,367,0,0,0,4,5,1,45,0004-00-0003-15.png,0005-00-0008-19.png
00000009,214,0,1441207933371,1441207933467,881,403,0,0,0,1,2,1,12,0001-00-0009-09.png,0002-00-0003-02.png
00000009,215,1,1441207936463,1441207937024,942,325,0,0,0,5,4,1,54,0005-00-0009-54.png,0004-00-0004-35.png
00000009,216,1,1441207938461,1441207938560,915,388,0,0,0,2,1,1,21,0002-00-0005-15.png,0001-00-0003-26.png
00000009,217,1,1441207939847,1441207939931,913,410,0,0,0,4,3,1,43,0004-00-0002-92.png,0003-00-0007-32.png
00000009,218,1,1441207941037,1441207941089,913,394,0,0,0,3,2,1,32,0003-00-0007-59.png,0002-00-0008-19.png
00000009,219,0,1441207942391,1441207942487,890,448,0,0,0,4,5,1,45,0004-00-0002-52.png,0005-00-0009-83.png
00000009,220,1,1441207945576,1441207945644,989,409,0,0,0,2,1,1,21,0002-00-0002-55.png,0001-00-0000-69.png
00000009,221,0,1441207946559,1441207946660,888,446,0,0,0,1,2,1,12,0001-00-0007-74.png,0002-00-0001-60.png
00000009,222,1,1441207949526,1441207950092,920,316,0,0,0,5,4,1,54,0005-00-0002-15.png,0004-00-0002-46.png
00000009,223,0,1441207951556,1441207951722,964,349,0,0,0,2,3,1,23,0002-00-0005-26.png,0003-00-0001-90.png
00000009,224,0,1441207954913,1441207955522,921,335,0,0,0,3,4,1,34,0003-00-0009-79.png,0004-00-0005-03.png
00000009,225,1,1441207958683,1441207959344,436,253,0,0,0,4,5,1,45,0004-00-0007-14.png,0005-00-0000-60.png
00000009,226,0,1441207960204,1441207960261,862,394,0,0,0,1,2,1,12,0001-00-0000-42.png,0002-00-0000-42.png
00000009,227,1,1441207963365,1441207963411,888,370,0,0,0,2,1,1,21,0002-00-0007-90.png,0001-00-0001-91.png
00000009,228,1,1441207964301,1441207964417,879,462,0,0,0,5,4,1,54,0005-00-0007-14.png,0004-00-0002-31.png
00000009,229,1,1441207965699,1441207965775,873,436,0,0,0,4,3,1,43,0004-00-0004-86.png,0003-00-0008-59.png
00000009,230,1,1441207966868,1441207966944,878,418,0,0,0,3,2,1,32,0003-00-0001-11.png,0002-00-0007-46.png
00000009,231,0,1441207968351,1441207968408,897,442,0,0,0,3,4,1,34,0003-00-0007-54.png,0004-00-0002-16.png
00000009,232,0,1441207971582,1441207972160,979,330,0,0,0,2,3,1,23,0002-00-0009-72.png,0003-00-0000-50.png
00000009,233,1,1441207975137,1441207975792,335,382,0,0,0,4,5,1,45,0004-00-0003-78.png,0005-00-0001-46.png
00000009,234,1,1441207976698,1441207976794,888,436,0,0,0,5,4,1,54,0005-00-0008-29.png,0004-00-0003-80.png
00000009,235,1,1441207977937,1441207977998,874,410,0,0,0,2,1,1,21,0002-00-0007-24.png,0001-00-0003-27.png
00000009,236,0,1441207979170,1441207979246,888,425,0,0,0,1,2,1,12,0001-00-0005-75.png,0002-00-0006-20.png
00000009,237,1,1441207982089,1441207982101,862,422,0,0,0,3,2,1,32,0003-00-0004-63.png,0002-00-0007-64.png
00000009,238,1,1441207983045,1441207983115,888,396,0,0,0,4,3,1,43,0004-00-0003-39.png,0003-00-0002-70.png
00000009,239,0,1441207984204,1441207984257,874,433,0,0,0,2,3,1,23,0002-00-0005-23.png,0003-00-0005-99.png
00000009,240,1,1441207987452,1441207988263,423,262,0,0,0,3,4,1,34,0003-00-0003-75.png,0004-00-0009-38.png
00000009,241,1,1441207989145,1441207989185,874,429,0,0,0,5,4,1,54,0005-00-0005-84.png,0004-00-0000-95.png
00000009,242,0,1441207990017,1441207990069,873,410,0,0,0,4,5,1,45,0004-00-0009-47.png,0005-00-0003-03.png
00000009,243,0,1441207993276,1441207994036,1057,279,0,0,0,3,4,1,34,0003-00-0006-67.png,0004-00-0009-70.png
00000009,244,0,1441207996963,1441207998030,334,373,0,0,0,2,1,1,21,0002-00-0001-97.png,0001-00-0008-42.png
00000009,245,0,1441208001057,1441208001629,954,320,0,0,0,1,2,1,12,0001-00-0000-31.png,0002-00-0005-48.png
00000009,246,1,1441208004732,1441208005405,335,355,0,0,0,2,3,1,23,0002-00-0007-58.png,0003-00-0007-99.png
00000009,247,1,1441208006312,1441208006368,881,418,0,0,0,4,3,1,43,0004-00-0008-38.png,0003-00-0004-30.png
00000009,248,1,1441208007516,1441208007586,895,426,0,0,0,3,2,1,32,0003-00-0007-63.png,0002-00-0002-60.png
00000009,249,0,1441208008784,1441208008824,892,447,0,0,0,1,2,1,12,0001-00-0009-33.png,0002-00-0001-17.png
00000009,250,1,1441208011777,1441208012410,909,299,0,0,0,2,1,1,21,0002-00-0004-71.png,0001-00-0000-88.png
00000009,251,1,1441208013248,1441208013308,921,423,0,0,0,5,4,1,54,0005-00-0003-95.png,0004-00-0002-98.png
00000009,252,1,1441208014147,1441208014219,882,419,0,0,0,4,3,1,43,0004-00-0004-78.png,0003-00-0005-47.png
00000009,253,0,1441208015756,1441208015818,874,451,0,0,0,4,5,1,45,0004-00-0009-75.png,0005-00-0009-84.png
00000009,254,0,1441208018914,1441208018949,887,383,0,0,0,3,4,1,34,0003-00-0005-77.png,0004-00-0004-12.png
00000009,255,1,1441208022073,1441208022195,926,317,0,0,0,3,2,1,32,0003-00-0002-33.png,0002-00-0001-94.png
00000009,256,0,1441208023156,1441208023224,888,410,0,0,0,2,3,1,23,0002-00-0008-96.png,0003-00-0001-75.png
00000009,257,0,1441208026135,1441208026685,953,338,0,0,0,1,2,1,12,0001-00-0009-76.png,0002-00-0006-73.png
00000009,258,1,1441208030201,1441208030893,971,425,0,0,0,3,2,1,32,0003-00-0008-58.png,0002-00-0004-03.png
00000009,259,1,1441208031720,1441208031929,937,403,0,0,0,5,4,1,54,0005-00-0009-37.png,0004-00-0006-18.png
00000009,260,0,1441208033167,1441208033274,905,410,0,0,0,2,3,1,23,0002-00-0005-49.png,0003-00-0002-51.png
00000009,261,0,1441208036173,1441208036189,902,343,0,0,0,3,4,1,34,0003-00-0008-13.png,0004-00-0008-38.png
00000009,262,0,1441208039295,1441208039363,932,357,0,0,0,4,5,1,45,0004-00-0001-21.png,0005-00-0006-85.png
00000009,263,1,1441208042493,1441208042541,946,359,0,0,0,2,1,1,21,0002-00-0006-09.png,0001-00-0003-89.png
00000009,264,1,1441208043487,1441208043564,888,401,0,0,0,4,3,1,43,0004-00-0007-90.png,0003-00-0004-65.png
00000009,265,0,1441208044824,1441208044917,896,436,0,0,0,1,2,1,12,0001-00-0005-66.png,0002-00-0007-46.png
00000009,266,0,1441208047880,1441208048608,300,347,0,0,0,5,4,1,54,0005-00-0006-71.png,0004-00-0006-45.png
00000009,267,0,1441208051841,1441208051885,983,331,0,0,0,4,5,1,45,0004-00-0005-71.png,0005-00-0005-94.png
00000009,268,1,1441208055074,1441208055744,446,267,0,0,0,2,3,1,23,0002-00-0005-19.png,0003-00-0005-44.png
00000009,269,1,1441208056594,1441208056679,917,432,0,0,0,4,3,1,43,0004-00-0004-10.png,0003-00-0003-85.png
00000009,270,1,1441208057940,1441208058032,888,397,0,0,0,2,1,1,21,0002-00-0002-19.png,0001-00-0006-18.png
00000009,271,0,1441208059468,1441208059544,888,393,0,0,0,3,4,1,34,0003-00-0004-07.png,0004-00-0008-78.png
00000009,272,1,1441208062674,1441208062702,947,358,0,0,0,3,2,1,32,0003-00-0007-85.png,0002-00-0002-42.png
00000009,273,1,1441208063642,1441208063706,888,446,0,0,0,3,2,1,32,0003-00-0009-17.png,0002-00-0009-19.png
00000009,274,1,1441208064835,1441208065716,342,378,0,0,0,2,3,1,23,0002-00-0005-46.png,0003-00-0007-11.png
00000009,275,1,1441208066736,1441208066796,869,426,0,0,0,5,4,1,54,0005-00-0007-14.png,0004-00-0001-36.png
00000009,276,0,1441208067978,1441208068034,871,410,0,0,0,1,2,1,12,0001-00-0005-19.png,0002-00-0003-02.png
00000009,277,1,1441208071161,1441208071193,917,358,0,0,0,2,1,1,21,0002-00-0007-72.png,0001-00-0002-32.png
00000009,278,1,1441208072073,1441208072161,875,436,0,0,0,4,3,1,43,0004-00-0000-98.png,0003-00-0004-97.png
00000009,279,0,1441208073489,1441208073543,898,410,0,0,0,4,5,1,45,0004-00-0007-85.png,0005-00-0001-18.png
00000009,280,0,1441208076707,1441208077312,928,306,0,0,0,3,4,1,34,0003-00-0006-74.png,0004-00-0005-29.png
00000009,281,1,1441208080449,1441208081040,473,281,0,0,0,2,3,1,23,0002-00-0001-06.png,0003-00-0006-67.png
00000009,282,0,1441208081899,1441208081971,862,370,0,0,0,1,2,1,12,0001-00-0007-65.png,0002-00-0004-93.png
00000009,283,1,1441208084791,1441208084823,1013,388,0,0,0,4,3,1,43,0004-00-0001-85.png,0003-00-0006-92.png
00000009,284,1,1441208085819,1441208085868,913,401,0,0,0,3,2,1,32,0003-00-0001-08.png,0002-00-0005-25.png
00000009,285,0,1441208087009,1441208087069,872,436,0,0,0,4,5,1,45,0004-00-0000-80.png,0005-00-0001-88.png
00000009,286,1,1441208089952,1441208090622,1040,287,0,0,0,5,4,1,54,0005-00-0005-78.png,0004-00-0000-81.png
00000009,287,0,1441208092145,1441208092225,912,393,0,0,0,3,4,1,34,0003-00-0008-31.png,0004-00-0000-93.png
00000009,288,1,1441208095063,1441208095651,1044,296,0,0,0,2,1,1,21,0002-00-0005-05.png,0001-00-0005-53.png
00000009,289,1,1441208096484,1441208097515,1067,279,0,0,0,3,2,1,32,0003-00-0008-81.png,0002-00-0008-78.png
00000009,290,0,1441208099015,1441208099885,445,264,0,0,0,4,3,1,43,0004-00-0005-96.png,0003-00-0006-29.png
00000009,291,0,1441208103066,1441208103285,862,410,0,0,0,1,2,1,12,0001-00-0007-24.png,0002-00-0007-38.png
00000009,292,0,1441208106158,1441208106190,925,360,0,0,0,4,5,1,45,0004-00-0007-25.png,0005-00-0006-79.png
00000009,293,0,1441208109520,1441208109772,927,303,0,0,0,3,4,1,34,0003-00-0000-18.png,0004-00-0004-55.png
00000009,294,0,1441208112898,1441208113091,875,344,0,0,0,2,3,1,23,0002-00-0009-58.png,0003-00-0003-86.png
00000009,295,1,1441208116217,1441208116397,875,410,0,0,0,5,4,1,54,0005-00-0004-74.png,0004-00-0006-89.png
00000009,296,0,1441208117339,1441208118189,357,398,0,0,0,2,1,1,21,0002-00-0002-60.png,0001-00-0001-12.png
00000009,297,0,1441208121295,1441208122024,355,349,0,0,0,5,4,1,54,0005-00-0003-74.png,0004-00-0005-40.png
00000009,298,1,1441208125287,1441208125303,883,306,0,0,0,3,2,1,32,0003-00-0009-47.png,0002-00-0000-23.png
00000009,299,0,1441208126220,1441208126311,888,426,0,0,0,1,2,1,12,0001-00-0002-55.png,0002-00-0005-86.png
00000009,300,1,1441208129505,1441208130173,435,285,0,0,0,4,5,1,45,0004-00-0005-22.png,0005-00-0007-20.png
00000009,301,1,1441208131051,1441208131127,903,443,0,0,0,2,1,1,21,0002-00-0003-68.png,0001-00-0004-29.png
00000009,302,0,1441208132046,1441208132138,873,436,0,0,0,3,4,1,34,0003-00-0003-33.png,0004-00-0008-95.png
00000009,303,1,1441208135345,1441208135373,961,317,0,0,0,4,3,1,43,0004-00-0007-79.png,0003-00-0009-33.png
00000009,304,0,1441208136325,1441208136385,862,450,0,0,0,2,3,1,23,0002-00-0008-59.png,0003-00-0009-26.png
00000009,305,0,1441208139523,1441208140280,433,234,0,0,0,2,1,1,21,0002-00-0002-71.png,0001-00-0008-63.png
00000009,306,1,1441208143545,1441208144173,376,369,0,0,0,2,3,1,23,0002-00-0004-97.png,0003-00-0003-03.png
00000009,307,1,1441208145061,1441208145926,465,277,0,0,0,3,4,1,34,0003-00-0000-37.png,0004-00-0007-82.png
00000009,308,0,1441208146935,1441208147633,903,530,0,0,0,1,2,1,12,0001-00-0004-73.png,0002-00-0007-82.png
00000009,309,1,1441208150517,1441208151279,1073,273,0,0,0,4,3,1,43,0004-00-0007-95.png,0003-00-0003-16.png
00000009,310,1,1441208152743,1441208152868,949,390,0,0,0,5,4,1,54,0005-00-0001-55.png,0004-00-0002-96.png
00000009,311,1,1441208153976,1441208154023,897,393,0,0,0,3,2,1,32,0003-00-0004-14.png,0002-00-0009-95.png
00000009,312,0,1441208155464,1441208155536,922,436,0,0,0,4,5,1,45,0004-00-0005-30.png,0005-00-0004-88.png
00000009,313,1,1441208158735,1441208159338,1091,275,0,0,0,5,4,1,54,0005-00-0009-53.png,0004-00-0007-56.png
00000009,314,1,1441208160170,1441208161046,435,254,0,0,0,1,2,1,12,0001-00-0007-06.png,0002-00-0003-16.png
00000009,315,0,1441208162076,1441208162144,862,436,0,0,0,3,4,1,34,0003-00-0002-28.png,0004-00-0000-51.png
00000009,316,0,1441208165381,1441208166000,482,274,0,0,0,4,3,1,43,0004-00-0002-02.png,0003-00-0008-38.png
00000009,317,1,1441208169118,1441208169819,453,288,0,0,0,2,3,1,23,0002-00-0007-13.png,0003-00-0008-03.png
00000009,318,0,1441208170752,1441208170868,913,447,0,0,0,4,5,1,45,0004-00-0000-18.png,0005-00-0009-28.png
00000009,319,0,1441208174005,1441208174732,453,263,0,0,0,2,1,1,21,0002-00-0006-44.png,0001-00-0009-40.png
00000009,320,1,1441208177915,1441208177962,959,360,0,0,0,3,2,1,32,0003-00-0004-27.png,0002-00-0005-08.png
00000009,321,1,1441208178888,1441208178972,914,411,0,0,0,4,3,1,43,0004-00-0003-76.png,0003-00-0001-63.png
00000009,322,1,1441208180112,1441208180172,862,410,0,0,0,2,1,1,21,0002-00-0007-34.png,0001-00-0007-60.png
00000009,323,0,1441208181232,1441208181302,869,426,0,0,0,2,3,1,23,0002-00-0007-55.png,0003-00-0004-74.png
00000009,324,1,1441208184376,1441208184396,888,358,0,0,0,5,4,1,54,0005-00-0007-84.png,0004-00-0002-55.png
00000009,325,0,1441208185333,1441208185417,862,447,0,0,0,4,5,1,45,0004-00-0005-65.png,0005-00-0003-62.png
00000009,326,1,1441208188516,1441208188564,958,360,0,0,0,3,2,1,32,0003-00-0007-11.png,0002-00-0001-53.png
00000009,327,0,1441208189462,1441208189551,923,436,0,0,0,1,2,1,12,0001-00-0003-72.png,0002-00-0002-85.png
00000009,328,0,1441208192421,1441208193155,925,321,0,0,0,3,4,1,34,0003-00-0000-94.png,0004-00-0002-25.png
00000009,329,0,1441208196345,1441208196368,859,303,0,0,0,1,2,1,12,0001-00-0005-84.png,0002-00-0009-01.png
00000009,330,1,1441208199274,1441208199306,864,435,0,0,0,2,1,1,21,0002-00-0008-55.png,0001-00-0008-82.png
00000009,331,1,1441208200196,1441208200353,964,436,0,0,0,4,3,1,43,0004-00-0003-78.png,0003-00-0003-67.png
00000009,332,0,1441208201257,1441208201313,862,398,0,0,0,3,4,1,34,0003-00-0002-27.png,0004-00-0005-90.png
00000009,333,1,1441208204462,1441208205033,981,391,0,0,0,3,2,1,32,0003-00-0000-79.png,0002-00-0005-48.png
00000009,334,0,1441208206473,1441208206612,928,358,0,0,0,4,5,1,45,0004-00-0007-82.png,0005-00-0002-31.png
00000009,335,1,1441208209724,1441208210515,954,306,0,0,0,5,4,1,54,0005-00-0003-37.png,0004-00-0005-78.png
00000009,336,0,1441208211900,1441208211973,916,359,0,0,0,2,3,1,23,0002-00-0009-93.png,0003-00-0000-03.png
00000009,337,1,1441208215111,1441208215748,939,317,0,0,0,5,4,1,54,0005-00-0004-14.png,0004-00-0004-31.png
00000009,338,1,1441208217224,1441208217355,960,383,0,0,0,2,1,1,21,0002-00-0008-88.png,0001-00-0001-49.png
00000009,339,0,1441208218388,1441208218448,924,413,0,0,0,4,5,1,45,0004-00-0006-10.png,0005-00-0000-05.png
00000009,340,0,1441208221721,1441208221757,944,333,0,0,0,2,3,1,23,0002-00-0003-91.png,0003-00-0008-14.png
00000009,341,0,1441208224913,1441208225546,992,332,0,0,0,3,4,1,34,0003-00-0002-22.png,0004-00-0007-40.png
00000009,342,1,1441208228693,1441208228733,902,384,0,0,0,4,3,1,43,0004-00-0000-47.png,0003-00-0006-35.png
00000009,343,1,1441208229723,1441208229826,956,418,0,0,0,3,2,1,32,0003-00-0005-28.png,0002-00-0009-60.png
00000009,344,0,1441208230799,1441208230871,872,427,0,0,0,1,2,1,12,0001-00-0001-85.png,0002-00-0003-81.png
00000009,345,0,1441208234020,1441208234590,961,329,0,0,0,1,2,1,12,0001-00-0002-47.png,0002-00-0004-24.png
00000009,346,0,1441208237457,1441208238445,430,276,0,0,0,5,4,1,54,0005-00-0000-84.png,0004-00-0007-08.png
00000009,347,1,1441208241661,1441208241701,939,332,0,0,0,2,1,1,21,0002-00-0002-67.png,0001-00-0009-96.png
00000009,348,0,1441208242645,1441208242738,924,436,0,0,0,3,4,1,34,0003-00-0008-68.png,0004-00-0008-26.png
00000009,349,1,1441208245847,1441208246505,459,278,0,0,0,4,5,1,45,0004-00-0009-64.png,0005-00-0004-04.png
00000009,350,0,1441208247458,1441208247577,931,443,0,0,0,2,3,1,23,0002-00-0004-63.png,0003-00-0007-17.png
00000009,351,1,1441208250708,1441208251281,940,334,0,0,0,4,3,1,43,0004-00-0000-55.png,0003-00-0009-77.png
00000009,352,1,1441208252742,1441208252790,891,359,0,0,0,3,2,1,32,0003-00-0003-93.png,0002-00-0005-52.png
00000009,353,1,1441208253926,1441208253970,888,408,0,0,0,2,1,1,21,0002-00-0002-82.png,0001-00-0006-65.png
00000009,354,0,1441208255156,1441208255200,897,441,0,0,0,4,5,1,45,0004-00-0004-53.png,0005-00-0007-36.png
00000009,355,1,1441208258067,1441208258780,434,246,0,0,0,2,3,1,23,0002-00-0003-51.png,0003-00-0004-31.png
00000009,356,0,1441208259634,1441208259705,896,462,0,0,0,3,4,1,34,0003-00-0008-03.png,0004-00-0001-21.png
00000009,357,0,1441208262721,1441208263372,453,270,0,0,0,4,3,1,43,0004-00-0003-85.png,0003-00-0005-42.png
00000009,358,1,1441208266556,1441208266596,914,352,0,0,0,3,2,1,32,0003-00-0005-42.png,0002-00-0004-72.png
00000009,359,0,1441208267577,1441208267645,888,436,0,0,0,1,2,1,12,0001-00-0009-84.png,0002-00-0007-86.png
00000009,360,0,1441208270823,1441208271465,447,254,0,0,0,5,4,1,54,0005-00-0000-77.png,0004-00-0002-81.png
00000009,361,1,1441208274605,1441208275365,438,251,0,0,0,1,2,1,12,0001-00-0005-79.png,0002-00-0008-35.png
00000009,362,1,1441208276227,1441208276323,939,452,0,0,0,2,1,1,21,0002-00-0007-84.png,0001-00-0001-97.png
00000009,363,0,1441208277905,1441208277973,898,418,0,0,0,4,5,1,45,0004-00-0005-72.png,0005-00-0001-14.png
00000009,364,1,1441208281140,1441208281795,944,334,0,0,0,3,2,1,32,0003-00-0002-32.png,0002-00-0002-39.png
00000009,365,1,1441208282637,1441208282737,931,416,0,0,0,4,3,1,43,0004-00-0001-43.png,0003-00-0007-98.png
00000009,366,0,1441208284299,1441208284358,888,410,0,0,0,3,4,1,34,0003-00-0000-06.png,0004-00-0001-62.png
00000009,367,0,1441208287572,1441208288316,356,343,0,0,0,5,4,1,54,0005-00-0003-07.png,0004-00-0004-17.png
00000009,368,0,1441208291289,1441208291305,904,391,0,0,0,2,3,1,23,0002-00-0005-09.png,0003-00-0006-39.png
00000009,369,1,1441208294450,1441208295054,1062,303,0,0,0,5,4,1,54,0005-00-0006-12.png,0004-00-0004-75.png
00000009,370,0,1441208295907,1441208295997,930,436,0,0,0,1,2,1,12,0001-00-0001-86.png,0002-00-0008-87.png
00000009,371,0,1441208299213,1441208299824,464,265,0,0,0,4,3,1,43,0004-00-0009-93.png,0003-00-0009-53.png
00000009,372,0,1441208303286,1441208303338,896,375,0,0,0,3,4,1,34,0003-00-0002-87.png,0004-00-0002-85.png
00000009,373,1,1441208306550,1441208307086,993,347,0,0,0,3,2,1,32,0003-00-0007-81.png,0002-00-0009-06.png
00000009,374,1,1441208307936,1441208308063,888,451,0,0,0,2,1,1,21,0002-00-0000-57.png,0001-00-0003-92.png
00000009,375,0,1441208309048,1441208309124,866,422,0,0,0,2,3,1,23,0002-00-0005-33.png,0003-00-0005-42.png
00000009,376,1,1441208312108,1441208312800,434,272,0,0,0,4,5,1,45,0004-00-0008-09.png,0005-00-0006-72.png
00000009,377,0,1441208313736,1441208313816,899,474,0,0,0,4,5,1,45,0004-00-0009-20.png,0005-00-0001-03.png
00000009,378,1,1441208316938,1441208317589,939,306,0,0,0,3,2,1,32,0003-00-0001-83.png,0002-00-0004-58.png
00000009,379,1,1441208318425,1441208319384,340,363,0,0,0,2,3,1,23,0002-00-0009-08.png,0003-00-0005-97.png
00000009,380,1,1441208320323,1441208320373,878,462,0,0,0,5,4,1,54,0005-00-0004-32.png,0004-00-0003-86.png
00000009,381,1,1441208322032,1441208322112,891,465,0,0,0,2,1,1,21,0002-00-0006-29.png,0001-00-0003-19.png
00000009,382,0,1441208323413,1441208323445,863,387,0,0,0,3,4,1,34,0003-00-0001-06.png,0004-00-0006-74.png
00000009,383,0,1441208326314,1441208326878,1043,271,0,0,0,1,2,1,12,0001-00-0005-54.png,0002-00-0004-66.png
00000009,384,0,1441208329729,1441208330481,380,276,0,0,0,4,3,1,43,0004-00-0005-86.png,0003-00-0005-00.png
00000009,385,1,1441208333686,1441208334201,976,354,0,0,0,3,2,1,32,0003-00-0008-98.png,0002-00-0000-24.png
00000009,386,1,1441208335049,1441208335161,939,423,0,0,0,4,3,1,43,0004-00-0000-20.png,0003-00-0003-95.png
00000009,387,0,1441208336110,1441208336194,874,436,0,0,0,2,3,1,23,0002-00-0001-30.png,0003-00-0007-21.png
00000009,388,0,1441208339345,1441208339975,1083,278,0,0,0,3,4,1,34,0003-00-0006-75.png,0004-00-0003-29.png
00000009,389,0,1441208343138,1441208343194,918,359,0,0,0,4,5,1,45,0004-00-0009-91.png,0005-00-0002-90.png
00000009,390,1,1441208346310,1441208346382,928,378,0,0,0,2,1,1,21,0002-00-0006-30.png,0001-00-0009-81.png
00000009,391,0,1441208347338,1441208347414,900,436,0,0,0,1,2,1,12,0001-00-0006-22.png,0002-00-0000-85.png
00000009,392,0,1441208350262,1441208350318,516,396,0,0,0,5,4,1,54,0005-00-0009-49.png,0004-00-0008-07.png
00000009,393,0,1441208353506,1441208353542,939,330,0,0,0,3,4,1,34,0003-00-0003-65.png,0004-00-0000-57.png
00000009,394,0,1441208356624,1441208357343,990,410,0,0,0,4,5,1,45,0004-00-0003-32.png,0005-00-0007-34.png
00000009,395,1,1441208360333,1441208360941,962,351,0,0,0,3,2,1,32,0003-00-0001-19.png,0002-00-0000-54.png
00000009,396,0,1441208361839,1441208362742,486,256,0,0,0,5,4,1,54,0005-00-0009-36.png,0004-00-0001-57.png
00000009,397,1,1441208365847,1441208366513,443,272,0,0,0,1,2,1,12,0001-00-0009-17.png,0002-00-0009-75.png
00000009,398,1,1441208367418,1441208367486,888,423,0,0,0,4,3,1,43,0004-00-0006-00.png,0003-00-0005-57.png
00000009,399,1,1441208368776,1441208368837,879,436,0,0,0,2,1,1,21,0002-00-0001-76.png,0001-00-0003-89.png
00000009,400,0,1441208370051,1441208370111,891,434,0,0,0,2,3,1,23,0002-00-0002-87.png,0003-00-0003-74.png
00000009,401,1,1441208373201,1441208373229,913,384,0,0,0,4,3,1,43,0004-00-0008-05.png,0003-00-0004-84.png
00000009,402,0,1441208374252,1441208375195,457,265,0,0,0,2,1,1,21,0002-00-0007-06.png,0001-00-0007-99.png
00000009,403,1,1441208378390,1441208378951,1043,282,0,0,0,5,4,1,54,0005-00-0001-19.png,0004-00-0006-10.png
00000009,404,0,1441208379812,1441208380801,1031,298,0,0,0,3,4,1,34,0003-00-0006-89.png,0004-00-0001-99.png
00000009,405,0,1441208383984,1441208384020,922,353,0,0,0,1,2,1,12,0001-00-0006-40.png,0002-00-0005-76.png
00000009,406,1,1441208387208,1441208387890,976,370,0,0,0,3,2,1,32,0003-00-0002-92.png,0002-00-0004-15.png
00000009,407,0,1441208388717,1441208388808,939,447,0,0,0,4,5,1,45,0004-00-0002-01.png,0005-00-0006-01.png
00000009,408,0,1441208391674,1441208392412,964,397,0,0,0,2,3,1,23,0002-00-0006-94.png,0003-00-0000-13.png
00000009,409,0,1441208395370,1441208396048,1077,291,0,0,0,2,3,1,23,0002-00-0005-83.png,0003-00-0008-82.png
00000009,410,1,1441208399188,1441208399786,445,268,0,0,0,4,5,1,45,0004-00-0002-45.png,0005-00-0007-36.png
00000009,411,1,1441208400698,1441208400773,913,410,0,0,0,5,4,1,54,0005-00-0008-99.png,0004-00-0000-95.png
00000009,412,1,1441208401946,1441208402018,899,410,0,0,0,4,3,1,43,0004-00-0003-36.png,0003-00-0008-10.png
00000009,413,0,1441208403336,1441208403372,888,398,0,0,0,3,4,1,34,0003-00-0003-96.png,0004-00-0009-20.png
00000009,414,1,1441208406495,1441208406769,954,341,0,0,0,2,1,1,21,0002-00-0000-93.png,0001-00-0009-51.png
00000009,415,0,1441208407770,1441208407818,862,390,0,0,0,1,2,1,12,0001-00-0004-33.png,0002-00-0001-68.png
00000009,416,1,1441208410708,1441208411247,969,307,0,0,0,3,2,1,32,0003-00-0009-38.png,0002-00-0002-68.png
00000009,417,1,1441208412758,1441208412795,895,351,0,0,0,4,3,1,43,0004-00-0009-52.png,0003-00-0006-81.png
00000009,418,0,1441208413976,1441208414039,888,420,0,0,0,4,5,1,45,0004-00-0000-26.png,0005-00-0004-66.png
00000009,419,0,1441208417204,1441208417874,960,307,0,0,0,3,4,1,34,0003-00-0005-71.png,0004-00-0007-94.png
00000009,420,0,1441208420880,1441208421554,436,289,0,0,0,2,1,1,21,0002-00-0003-06.png,0001-00-0005-63.png
00000009,421,1,1441208424789,1441208425480,416,290,0,0,0,1,2,1,12,0001-00-0000-50.png,0002-00-0005-30.png
00000009,422,1,1441208426384,1441208426480,939,449,0,0,0,5,4,1,54,0005-00-0001-50.png,0004-00-0001-25.png
00000009,423,0,1441208427513,1441208427577,898,420,0,0,0,2,3,1,23,0002-00-0005-20.png,0003-00-0000-28.png
00000009,424,1,1441208430684,1441208431310,964,395,0,0,0,3,2,1,32,0003-00-0000-00.png,0002-00-0008-08.png
00000009,425,0,1441208432902,1441208433018,929,380,0,0,0,3,4,1,34,0003-00-0000-84.png,0004-00-0003-99.png
00000009,426,1,1441208436144,1441208436176,924,376,0,0,0,5,4,1,54,0005-00-0006-50.png,0004-00-0001-39.png
00000009,427,1,1441208437198,1441208437242,888,423,0,0,0,3,2,1,32,0003-00-0000-20.png,0002-00-0002-45.png
00000009,428,1,1441208438484,1441208438548,889,434,0,0,0,4,3,1,43,0004-00-0003-93.png,0003-00-0005-18.png
00000009,429,0,1441208439757,1441208439817,876,436,0,0,0,1,2,1,12,0001-00-0003-22.png,0002-00-0005-06.png
00000009,430,1,1441208442695,1441208443387,944,393,0,0,0,2,1,1,21,0002-00-0008-59.png,0001-00-0005-41.png
00000009,431,0,1441208444868,1441208444928,917,382,0,0,0,4,5,1,45,0004-00-0001-66.png,0005-00-0006-77.png
00000009,432,1,1441208448084,1441208448700,397,394,0,0,0,2,3,1,23,0002-00-0006-24.png,0003-00-0004-49.png
00000009,433,1,1441208449606,1441208449690,947,427,0,0,0,4,3,1,43,0004-00-0009-79.png,0003-00-0004-11.png
00000009,434,1,1441208450601,1441208450637,861,424,0,0,0,5,4,1,54,0005-00-0007-79.png,0004-00-0006-44.png
00000009,435,0,1441208452014,1441208452090,888,449,0,0,0,1,2,1,12,0001-00-0008-07.png,0002-00-0001-61.png
00000009,436,1,1441208455639,1441208455690,929,318,0,0,0,3,2,1,32,0003-00-0006-47.png,0002-00-0002-85.png
00000009,437,0,1441208456587,1441208457402,335,375,0,0,0,2,1,1,21,0002-00-0008-39.png,0001-00-0008-16.png
00000009,438,1,1441208460626,1441208461246,356,373,0,0,0,4,5,1,45,0004-00-0008-20.png,0005-00-0009-13.png
00000009,439,0,1441208462177,1441208462249,899,462,0,0,0,2,3,1,23,0002-00-0008-60.png,0003-00-0004-87.png
00000009,440,0,1441208465436,1441208465464,939,358,0,0,0,3,4,1,34,0003-00-0004-70.png,0004-00-0001-40.png
00000009,441,0,1441208468628,1441208469216,471,274,0,0,0,4,3,1,43,0004-00-0005-54.png,0003-00-0005-02.png
00000009,442,1,1441208472208,1441208472883,433,265,0,0,0,4,5,1,45,0004-00-0007-82.png,0005-00-0005-53.png
00000009,443,0,1441208473757,1441208473853,913,410,0,0,0,2,3,1,23,0002-00-0000-14.png,0003-00-0003-61.png
00000009,444,0,1441208477074,1441208477108,913,358,0,0,0,3,4,1,34,0003-00-0002-28.png,0004-00-0008-26.png
00000009,445,1,1441208480287,1441208480829,955,323,0,0,0,2,1,1,21,0002-00-0008-57.png,0001-00-0004-76.png
00000009,446,0,1441208482302,1441208482435,939,384,0,0,0,1,2,1,12,0001-00-0002-53.png,0002-00-0002-73.png
00000009,447,1,1441208485687,1441208486416,1115,281,0,0,0,5,4,1,54,0005-00-0008-68.png,0004-00-0008-98.png
00000009,448,1,1441208487239,1441208487339,923,436,0,0,0,3,2,1,32,0003-00-0002-08.png,0002-00-0008-53.png
00000009,449,1,1441208488704,1441208488787,916,425,0,0,0,3,2,1,32,0003-00-0006-16.png,0002-00-0008-91.png
00000009,450,0,1441208490028,1441208490060,890,410,0,0,0,3,4,1,34,0003-00-0002-19.png,0004-00-0008-93.png
00000009,451,1,1441208493221,1441208493865,389,358,0,0,0,2,3,1,23,0002-00-0006-44.png,0003-00-0003-36.png
00000009,452,0,1441208494772,1441208494856,913,436,0,0,0,1,2,1,12,0001-00-0001-81.png,0002-00-0009-83.png
00000009,453,1,1441208498005,1441208498705,427,252,0,0,0,4,5,1,45,0004-00-0004-70.png,0005-00-0002-94.png
00000009,454,1,1441208499599,1441208499639,876,436,0,0,0,5,4,1,54,0005-00-0008-32.png,0004-00-0004-22.png
00000009,455,1,1441208501009,1441208501068,888,398,0,0,0,2,1,1,21,0002-00-0008-87.png,0001-00-0008-99.png
00000009,456,1,1441208502401,1441208502488,879,445,0,0,0,4,3,1,43,0004-00-0002-90.png,0003-00-0002-46.png
00000009,457,0,1441208503788,1441208503863,896,454,0,0,0,2,3,1,23,0002-00-0000-95.png,0003-00-0004-26.png
00000009,458,0,1441208506743,1441208507371,464,253,0,0,0,4,3,1,43,0004-00-0007-51.png,0003-00-0006-06.png
00000009,459,0,1441208510523,1441208510580,963,355,0,0,0,1,2,1,12,0001-00-0009-43.png,0002-00-0004-74.png
00000009,460,1,1441208513683,1441208514344,967,312,0,0,0,2,1,1,21,0002-00-0001-99.png,0001-00-0009-72.png
00000009,461,1,1441208515173,1441208515300,955,410,0,0,0,3,2,1,32,0003-00-0003-73.png,0002-00-0001-80.png
00000009,462,0,1441208516847,1441208516963,923,404,0,0,0,3,4,1,34,0003-00-0009-65.png,0004-00-0007-72.png
00000009,463,1,1441208520152,1441208520906,957,310,0,0,0,5,4,1,54,0005-00-0004-03.png,0004-00-0001-29.png
00000009,464,1,1441208521773,1441208522656,462,248,0,0,0,4,5,1,45,0004-00-0004-79.png,0005-00-0008-52.png
00000009,465,0,1441208523924,1441208524032,888,427,0,0,0,4,5,1,45,0004-00-0005-33.png,0005-00-0005-25.png
00000009,466,0,1441208527136,1441208527801,340,354,0,0,0,3,2,1,32,0003-00-0007-78.png,0002-00-0006-09.png
00000009,467,0,1441208530911,1441208530938,913,384,0,0,0,2,3,1,23,0002-00-0005-35.png,0003-00-0008-40.png
00000009,468,1,1441208534191,1441208534862,427,271,0,0,0,1,2,1,12,0001-00-0004-96.png,0002-00-0001-37.png
00000009,469,0,1441208535767,1441208535847,888,476,0,0,0,3,4,1,34,0003-00-0002-09.png,0004-00-0003-43.png
00000009,470,1,1441208538960,1441208539000,941,380,0,0,0,4,3,1,43,0004-00-0002-93.png,0003-00-0009-25.png
00000009,471,1,1441208540026,1441208540070,913,436,0,0,0,5,4,1,54,0005-00-0006-11.png,0004-00-0004-22.png
00000009,472,1,1441208541102,1441208541149,893,415,0,0,0,2,1,1,21,0002-00-0009-99.png,0001-00-0007-22.png
00000009,473,1,1441208542375,1441208542427,888,448,0,0,0,4,3,1,43,0004-00-0007-62.png,0003-00-0006-97.png
00000009,474,0,1441208543581,1441208544604,449,247,0,0,0,2,1,1,21,0002-00-0007-31.png,0001-00-0005-32.png
00000009,475,0,1441208547757,1441208548554,942,308,0,0,0,4,5,1,45,0004-00-0003-07.png,0005-00-0000-94.png
00000009,476,0,1441208551702,1441208552305,1070,276,0,0,0,3,4,1,34,0003-00-0004-98.png,0004-00-0002-34.png
00000009,477,0,1441208555455,1441208556055,1081,278,0,0,0,1,2,1,12,0001-00-0003-29.png,0002-00-0003-33.png
00000009,478,0,1441208559270,1441208559803,427,317,0,0,0,5,4,1,54,0005-00-0005-30.png,0004-00-0007-40.png
00000009,479,1,1441208562885,1441208562941,862,370,0,0,0,3,2,1,32,0003-00-0003-78.png,0002-00-0003-21.png
00000009,480,0,1441208564061,1441208564160,899,436,0,0,0,2,3,1,23,0002-00-0002-86.png,0003-00-0000-39.png
00000009,481,0,1441208567287,1441208567347,985,381,0,0,0,3,4,1,34,0003-00-0000-17.png,0004-00-0004-61.png
00000009,482,0,1441208570557,1441208570859,960,355,0,0,0,1,2,1,12,0001-00-0004-03.png,0002-00-0004-08.png
00000009,483,0,1441208573903,1441208574483,489,253,0,0,0,4,3,1,43,0004-00-0008-19.png,0003-00-0005-64.png
00000009,484,1,1441208577530,1441208577586,862,384,0,0,0,5,4,1,54,0005-00-0002-92.png,0004-00-0004-04.png
00000009,485,1,1441208578422,1441208578545,888,427,0,0,0,3,2,1,32,0003-00-0000-69.png,0002-00-0005-84.png
00000009,486,1,1441208579675,1441208579736,875,426,0,0,0,2,1,1,21,0002-00-0000-27.png,0001-00-0004-24.png
00000009,487,0,1441208580967,1441208581031,896,427,0,0,0,2,3,1,23,0002-00-0009-75.png,0003-00-0000-42.png
00000009,488,1,1441208583888,1441208584465,453,267,0,0,0,4,5,1,45,0004-00-0004-23.png,0005-00-0001-29.png
00000009,489,1,1441208585324,1441208585400,895,451,0,0,0,2,1,1,21,0002-00-0005-34.png,0001-00-0007-91.png
00000009,490,0,1441208586270,1441208586839,873,488,0,0,0,4,5,1,45,0004-00-0001-05.png,0005-00-0000-20.png
00000009,491,0,1441208590042,1441208590344,955,333,0,0,0,2,3,1,23,0002-00-0009-46.png,0003-00-0001-17.png
00000009,492,1,1441208593509,1441208594124,368,403,0,0,0,1,2,1,12,0001-00-0001-57.png,0002-00-0000-03.png
00000009,493,0,1441208594980,1441208595092,894,450,0,0,0,3,4,1,34,0003-00-0008-80.png,0004-00-0009-95.png
00000009,494,1,1441208598665,1441208598673,868,356,0,0,0,3,2,1,32,0003-00-0009-83.png,0002-00-0004-37.png
00000009,495,1,1441208599632,1441208599688,862,449,0,0,0,4,3,1,43,0004-00-0006-50.png,0003-00-0001-57.png
00000009,496,1,1441208600724,1441208600779,879,432,0,0,0,5,4,1,54,0005-00-0005-62.png,0004-00-0008-93.png
00000009,497,1,1441208601952,1441208602032,873,436,0,0,0,2,1,1,21,0002-00-0006-92.png,0001-00-0009-40.png
00000009,498,0,1441208603182,1441208603265,869,455,0,0,0,1,2,1,12,0001-00-0009-21.png,0002-00-0005-35.png
00000009,499,0,1441208606400,1441208606416,893,411,0,0,0,3,4,1,34,0003-00-0007-25.png,0004-00-0009-34.png
00000009,500,1,1441208609591,1441208609652,956,334,0,0,0,5,4,1,54,0005-00-0000-40.png,0004-00-0007-00.png
00000009,501,1,1441208610526,1441208610610,862,474,0,0,0,3,2,1,32,0003-00-0004-37.png,0002-00-0005-91.png
00000009,502,1,1441208612229,1441208612289,902,410,0,0,0,4,3,1,43,0004-00-0005-97.png,0003-00-0002-19.png
00000009,503,0,1441208613516,1441208613600,881,442,0,0,0,4,5,1,45,0004-00-0005-07.png,0005-00-0005-81.png
00000009,504,0,1441208616703,1441208616782,986,355,0,0,0,2,3,1,23,0002-00-0006-59.png,0003-00-0001-55.png
00000009,505,1,1441208619912,1441208620745,422,242,0,0,0,1,2,1,12,0001-00-0009-03.png,0002-00-0003-42.png
00000009,506,1,1441208621588,1441208621711,913,448,0,0,0,5,4,1,54,0005-00-0003-74.png,0004-00-0006-04.png
00000009,507,1,1441208622875,1441208622946,897,445,0,0,0,4,3,1,43,0004-00-0007-74.png,0003-00-0007-51.png
00000009,508,1,1441208624146,1441208624237,913,470,0,0,0,2,1,1,21,0002-00-0004-58.png,0001-00-0001-96.png
00000009,509,0,1441208625607,1441208625643,889,410,0,0,0,4,5,1,45,0004-00-0005-74.png,0005-00-0000-92.png
00000009,510,1,1441208628615,1441208629320,444,260,0,0,0,2,3,1,23,0002-00-0006-86.png,0003-00-0003-84.png
00000009,511,1,1441208630195,1441208630282,881,443,0,0,0,3,2,1,32,0003-00-0007-31.png,0002-00-0007-61.png
00000009,512,0,1441208631502,1441208631584,880,445,0,0,0,3,4,1,34,0003-00-0005-58.png,0004-00-0008-30.png
00000009,513,0,1441208634508,1441208634524,509,467,0,0,0,5,4,1,54,0005-00-0003-10.png,0004-00-0000-35.png
00000009,514,1,1441208637546,1441208638144,954,322,0,0,0,2,1,1,21,0002-00-0007-22.png,0001-00-0008-42.png
00000009,515,0,1441208639699,1441208639755,887,384,0,0,0,4,5,1,45,0004-00-0001-84.png,0005-00-0005-65.png
00000009,516,1,1441208642759,1441208643353,1071,280,0,0,0,3,2,1,32,0003-00-0000-50.png,0002-00-0006-96.png
00000009,517,0,1441208644191,1441208644243,944,401,0,0,0,3,4,1,34,0003-00-0006-74.png,0004-00-0003-93.png
00000009,518,0,1441208647297,1441208647959,427,288,0,0,0,4,3,1,43,0004-00-0000-60.png,0003-00-0008-59.png
00000009,519,1,1441208651152,1441208651834,387,410,0,0,0,1,2,1,12,0001-00-0003-23.png,0002-00-0008-13.png
00000009,520,0,1441208653285,1441208653326,914,360,0,0,0,2,3,1,23,0002-00-0009-29.png,0003-00-0005-77.png
00000009,521,1,1441208656495,1441208656559,942,358,0,0,0,5,4,1,54,0005-00-0004-50.png,0004-00-0004-73.png
00000009,522,0,1441208657475,1441208657567,913,473,0,0,0,3,4,1,34,0003-00-0007-61.png,0004-00-0004-36.png
00000009,523,0,1441208660783,1441208661675,1086,286,0,0,0,2,3,1,23,0002-00-0002-71.png,0003-00-0007-80.png
00000009,524,1,1441208664848,1441208664884,937,358,0,0,0,3,2,1,32,0003-00-0005-44.png,0002-00-0000-76.png
00000009,525,0,1441208665754,1441208665822,865,419,0,0,0,1,2,1,12,0001-00-0003-70.png,0002-00-0005-26.png
00000009,526,0,1441208669358,1441208669378,891,362,0,0,0,4,5,1,45,0004-00-0003-34.png,0005-00-0000-44.png
00000009,527,1,1441208672307,1441208673339,1099,297,0,0,0,4,3,1,43,0004-00-0005-28.png,0003-00-0003-77.png
00000009,528,0,1441208674224,1441208675089,448,270,0,0,0,2,1,1,21,0002-00-0005-96.png,0001-00-0007-50.png
00000009,529,1,1441208678270,1441208678859,1096,275,0,0,0,2,1,1,21,0002-00-0008-61.png,0001-00-0008-80.png
00000009,530,0,1441208679783,1441208679839,914,399,0,0,0,1,2,1,12,0001-00-0008-54.png,0002-00-0005-32.png
00000009,531,1,1441208683020,1441208683656,1094,257,0,0,0,4,3,1,43,0004-00-0003-79.png,0003-00-0003-79.png
00000009,532,0,1441208685130,1441208685237,939,381,0,0,0,3,4,1,34,0003-00-0005-26.png,0004-00-0007-91.png
00000009,533,1,1441208688096,1441208688624,912,329,0,0,0,5,4,1,54,0005-00-0006-01.png,0004-00-0009-19.png
00000009,534,0,1441208689457,1441208689540,913,384,0,0,0,4,5,1,45,0004-00-0001-25.png,0005-00-0002-64.png
00000009,535,1,1441208692720,1441208693363,433,281,0,0,0,2,3,1,23,0002-00-0002-00.png,0003-00-0000-05.png
00000009,536,1,1441208694320,1441208694432,913,480,0,0,0,3,2,1,32,0003-00-0001-60.png,0002-00-0001-63.png
00000009,537,0,1441208695678,1441208695801,927,436,0,0,0,1,2,1,12,0001-00-0007-81.png,0002-00-0006-19.png
00000009,538,0,1441208698973,1441208699619,966,302,0,0,0,3,4,1,34,0003-00-0003-48.png,0004-00-0006-01.png
00000009,539,1,1441208702789,1441208702833,916,379,0,0,0,3,2,1,32,0003-00-0007-96.png,0002-00-0002-91.png
00000009,540,0,1441208703901,1441208703989,939,447,0,0,0,4,5,1,45,0004-00-0009-99.png,0005-00-0008-43.png
00000009,541,1,1441208707347,1441208708023,942,328,0,0,0,5,4,1,54,0005-00-0008-81.png,0004-00-0000-50.png
00000009,542,0,1441208709722,1441208710440,442,253,0,0,0,4,3,1,43,0004-00-0000-49.png,0003-00-0009-15.png
00000009,543,1,1441208713289,1441208713333,905,402,0,0,0,2,1,1,21,0002-00-0000-37.png,0001-00-0003-60.png
00000009,544,0,1441208714291,1441208714375,928,410,0,0,0,2,3,1,23,0002-00-0009-79.png,0003-00-0007-62.png
00000009,545,1,1441208717544,1441208718200,441,267,0,0,0,2,3,1,23,0002-00-0002-03.png,0003-00-0003-15.png
00000009,546,0,1441208719112,1441208719188,913,436,0,0,0,3,4,1,34,0003-00-0005-49.png,0004-00-0005-71.png
00000009,547,1,1441208722389,1441208723029,411,264,0,0,0,4,5,1,45,0004-00-0004-62.png,0005-00-0001-95.png
00000009,548,1,1441208723933,1441208724001,895,429,0,0,0,4,3,1,43,0004-00-0000-86.png,0003-00-0001-46.png
00000009,549,0,1441208725291,1441208725367,898,447,0,0,0,1,2,1,12,0001-00-0006-77.png,0002-00-0006-99.png
00000009,550,1,1441208728250,1441208728850,1074,269,0,0,0,3,2,1,32,0003-00-0005-10.png,0002-00-0005-35.png
00000009,551,1,1441208730472,1441208730559,913,375,0,0,0,2,1,1,21,0002-00-0001-87.png,0001-00-0002-92.png
00000009,552,1,1441208731779,1441208731831,898,410,0,0,0,5,4,1,54,0005-00-0004-33.png,0004-00-0004-30.png
00000009,553,0,1441208732997,1441208733045,886,437,0,0,0,3,4,1,34,0003-00-0001-43.png,0004-00-0002-68.png
00000009,554,1,1441208736205,1441208736221,888,358,0,0,0,2,1,1,21,0002-00-0006-63.png,0001-00-0007-89.png
00000009,555,0,1441208737206,1441208737258,903,400,0,0,0,4,5,1,45,0004-00-0008-18.png,0005-00-0004-11.png
00000009,556,1,1441208740459,1441208741201,432,259,0,0,0,2,3,1,23,0002-00-0006-40.png,0003-00-0006-09.png
00000009,557,0,1441208742098,1441208742166,888,462,0,0,0,1,2,1,12,0001-00-0007-42.png,0002-00-0005-13.png
00000009,558,1,1441208745376,1441208745989,1039,281,0,0,0,5,4,1,54,0005-00-0003-78.png,0004-00-0004-52.png
00000009,559,1,1441208747571,1441208747656,913,358,0,0,0,3,2,1,32,0003-00-0000-20.png,0002-00-0006-81.png
00000009,560,1,1441208748710,1441208748802,893,427,0,0,0,4,3,1,43,0004-00-0004-63.png,0003-00-0007-79.png
00000009,561,1,1441208750045,1441208750135,911,449,0,0,0,3,2,1,32,0003-00-0006-62.png,0002-00-0006-59.png
00000009,562,1,1441208751324,1441208751376,873,410,0,0,0,5,4,1,54,0005-00-0004-66.png,0004-00-0009-86.png
00000009,563,1,1441208752976,1441208753007,875,426,0,0,0,4,3,1,43,0004-00-0001-71.png,0003-00-0008-55.png
00000009,564,0,1441208755091,1441208755123,862,410,0,0,0,3,4,1,34,0003-00-0000-49.png,0004-00-0009-69.png
00000009,565,0,1441208758254,1441208758302,916,377,0,0,0,2,3,1,23,0002-00-0009-15.png,0003-00-0008-59.png
00000009,566,1,1441208761447,1441208762115,957,338,0,0,0,2,1,1,21,0002-00-0006-97.png,0001-00-0005-58.png
00000009,567,0,1441208762971,1441208763107,954,462,0,0,0,4,5,1,45,0004-00-0000-12.png,0005-00-0003-19.png
00000009,568,1,1441208766152,1441208766786,427,279,0,0,0,1,2,1,12,0001-00-0003-54.png,0002-00-0001-73.png
00000009,569,0,1441208767780,1441208767804,945,453,0,0,0,4,5,1,45,0004-00-0007-00.png,0005-00-0006-67.png
00000009,570,0,1441208770971,1441208770996,930,371,0,0,0,2,3,1,23,0002-00-0007-37.png,0003-00-0006-51.png
00000009,571,0,1441208774096,1441208774670,1090,274,0,0,0,1,2,1,12,0001-00-0002-91.png,0002-00-0009-28.png
00000009,572,1,1441208777752,1441208778342,955,352,0,0,0,5,4,1,54,0005-00-0002-03.png,0004-00-0005-05.png
00000009,573,1,1441208779892,1441208779927,891,359,0,0,0,3,2,1,32,0003-00-0000-98.png,0002-00-0006-40.png
00000009,574,1,1441208781182,1441208781258,897,414,0,0,0,2,1,1,21,0002-00-0004-46.png,0001-00-0008-67.png
00000009,575,1,1441208782461,1441208782526,888,424,0,0,0,4,3,1,43,0004-00-0005-80.png,0003-00-0001-33.png
00000009,576,0,1441208783727,1441208783772,913,441,0,0,0,3,4,1,34,0003-00-0003-54.png,0004-00-0008-55.png
00000009,577,0,1441208786792,1441208787524,1041,280,0,0,0,3,4,1,34,0003-00-0007-06.png,0004-00-0007-86.png
00000009,578,0,1441208790995,1441208791015,862,425,0,0,0,4,5,1,45,0004-00-0001-66.png,0005-00-0007-77.png
00000009,579,0,1441208794173,1441208794781,1066,282,0,0,0,1,2,1,12,0001-00-0004-57.png,0002-00-0002-56.png
00000009,580,0,1441208798015,1441208798745,363,370,0,0,0,5,4,1,54,0005-00-0002-99.png,0004-00-0007-32.png
00000009,581,1,1441208801761,1441208801805,862,358,0,0,0,3,2,1,32,0003-00-0009-30.png,0002-00-0002-38.png
00000009,582,1,1441208802753,1441208802868,913,401,0,0,0,2,1,1,21,0002-00-0002-83.png,0001-00-0004-23.png
00000009,583,0,1441208804121,1441208804201,928,410,0,0,0,2,3,1,23,0002-00-0004-08.png,0003-00-0004-59.png
00000009,584,1,1441208807732,1441208807760,923,336,0,0,0,4,3,1,43,0004-00-0006-54.png,0003-00-0004-10.png
00000009,585,1,1441208808710,1441208808805,913,427,0,0,0,2,1,1,21,0002-00-0001-97.png,0001-00-0005-41.png
00000009,586,0,1441208809895,1441208809955,899,410,0,0,0,1,2,1,12,0001-00-0001-51.png,0002-00-0000-63.png
00000009,587,0,1441208813085,1441208813143,913,343,0,0,0,4,5,1,45,0004-00-0003-47.png,0005-00-0008-56.png
00000009,588,1,1441208816360,1441208816894,1070,280,0,0,0,3,2,1,32,0003-00-0002-40.png,0002-00-0003-82.png
00000009,589,1,1441208818273,1441208818382,913,384,0,0,0,5,4,1,54,0005-00-0007-43.png,0004-00-0003-21.png
00000009,590,1,1441208819577,1441208819625,881,417,0,0,0,4,3,1,43,0004-00-0000-29.png,0003-00-0008-41.png
00000009,591,0,1441208820877,1441208820901,886,426,0,0,0,2,3,1,23,0002-00-0004-94.png,0003-00-0000-17.png
00000009,592,0,1441208824065,1441208824109,939,317,0,0,0,3,4,1,34,0003-00-0008-67.png,0004-00-0004-91.png
00000009,593,0,1441208827398,1441208827974,939,330,0,0,0,4,5,1,45,0004-00-0002-25.png,0005-00-0008-68.png
00000009,594,0,1441208831159,1441208831742,967,312,0,0,0,1,2,1,12,0001-00-0004-38.png,0002-00-0001-86.png
00000009,595,1,1441208835031,1441208835127,942,281,0,0,0,3,2,1,32,0003-00-0008-69.png,0002-00-0005-76.png
00000009,596,1,1441208836137,1441208836213,904,410,0,0,0,4,3,1,43,0004-00-0003-66.png,0003-00-0009-82.png
00000009,597,0,1441208837332,1441208837365,884,415,0,0,0,3,4,1,34,0003-00-0002-09.png,0004-00-0001-86.png
00000009,598,0,1441208840312,1441208840912,421,263,0,0,0,2,1,1,21,0002-00-0001-02.png,0001-00-0001-10.png
00000009,599,1,1441208844153,1441208844723,954,332,0,0,0,5,4,1,54,0005-00-0005-50.png,0004-00-0007-09.png
00000009,600,0,1441208846218,1441208846334,937,406,0,0,0,2,3,1,23,0002-00-0002-85.png,0003-00-0003-21.png
00000009,601,0,1441208849537,1441208850181,941,324,0,0,0,3,4,1,34,0003-00-0005-74.png,0004-00-0007-30.png
00000009,602,1,1441208853672,1441208854189,339,348,0,0,0,1,2,1,12,0001-00-0008-22.png,0002-00-0000-24.png
00000009,603,1,1441208855106,1441208855198,906,469,0,0,0,5,4,1,54,0005-00-0001-54.png,0004-00-0004-34.png
00000009,604,1,1441208856302,1441208856366,907,419,0,0,0,2,1,1,21,0002-00-0002-37.png,0001-00-0008-18.png
00000009,605,1,1441208857554,1441208857608,891,444,0,0,0,4,3,1,43,0004-00-0002-68.png,0003-00-0006-09.png
00000009,606,1,1441208858901,1441208858949,891,456,0,0,0,3,2,1,32,0003-00-0008-09.png,0002-00-0007-15.png
00000009,607,0,1441208860355,1441208860395,866,411,0,0,0,2,3,1,23,0002-00-0002-07.png,0003-00-0006-50.png
00000009,608,0,1441208863250,1441208863258,970,394,0,0,0,4,5,1,45,0004-00-0002-28.png,0005-00-0000-23.png
00000009,609,0,1441208866443,1441208866478,924,360,0,0,0,3,4,1,34,0003-00-0003-83.png,0004-00-0005-21.png
00000009,610,0,1441208869664,1441208870244,992,329,0,0,0,2,3,1,23,0002-00-0009-41.png,0003-00-0006-84.png
00000009,611,1,1441208873425,1441208874066,446,262,0,0,0,4,5,1,45,0004-00-0008-42.png,0005-00-0002-97.png
00000009,612,1,1441208874964,1441208875044,913,410,0,0,0,4,3,1,43,0004-00-0005-27.png,0003-00-0003-82.png
00000009,613,0,1441208876241,1441208876333,917,436,0,0,0,1,2,1,12,0001-00-0004-61.png,0002-00-0000-07.png
00000009,614,0,1441208879514,1441208880153,420,261,0,0,0,2,1,1,21,0002-00-0005-23.png,0001-00-0000-85.png
00000009,615,1,1441208883245,1441208883289,919,376,0,0,0,5,4,1,54,0005-00-0006-55.png,0004-00-0008-44.png
00000009,616,1,1441208884219,1441208884263,943,360,0,0,0,3,2,1,32,0003-00-0001-95.png,0002-00-0009-58.png
00000009,617,0,1441208885347,1441208885378,860,412,0,0,0,2,3,1,23,0002-00-0002-19.png,0003-00-0006-77.png
00000009,618,0,1441208888521,1441208889153,427,265,0,0,0,4,3,1,43,0004-00-0003-57.png,0003-00-0002-39.png
00000009,619,1,1441208892346,1441208892375,904,358,0,0,0,5,4,1,54,0005-00-0007-02.png,0004-00-0000-64.png
00000009,620,0,1441208893252,1441208893328,886,419,0,0,0,3,4,1,34,0003-00-0008-79.png,0004-00-0003-63.png
00000009,621,1,1441208896292,1441208896881,444,259,0,0,0,1,2,1,12,0001-00-0002-96.png,0002-00-0008-83.png
00000009,622,1,1441208897775,1441208897884,913,426,0,0,0,2,1,1,21,0002-00-0006-70.png,0001-00-0008-23.png
00000009,623,1,1441208899079,1441208899162,894,453,0,0,0,3,2,1,32,0003-00-0005-85.png,0002-00-0008-25.png
00000009,624,0,1441208900287,1441208900343,888,445,0,0,0,4,5,1,45,0004-00-0004-47.png,0005-00-0001-20.png
00000009,625,1,1441208904519,1441208905044,964,306,0,0,0,5,4,1,54,0005-00-0005-04.png,0004-00-0004-53.png
00000009,626,1,1441208907064,1441208907596,984,350,0,0,0,3,2,1,32,0003-00-0000-21.png,0002-00-0005-96.png
00000009,627,0,1441208909021,1441208909156,907,403,0,0,0,4,5,1,45,0004-00-0001-81.png,0005-00-0003-43.png
00000009,628,0,1441208912253,1441208913086,416,308,0,0,0,2,1,1,21,0002-00-0005-49.png,0001-00-0004-05.png
00000009,629,0,1441208916204,1441208916753,968,316,0,0,0,3,4,1,34,0003-00-0003-00.png,0004-00-0000-51.png
00000009,630,0,1441208919995,1441208920541,357,350,0,0,0,4,3,1,43,0004-00-0008-78.png,0003-00-0008-67.png
00000009,631,0,1441208923751,1441208924308,1116,275,0,0,0,2,3,1,23,0002-00-0002-76.png,0003-00-0009-00.png
00000009,632,1,1441208927466,1441208928110,462,285,0,0,0,1,2,1,12,0001-00-0000-15.png,0002-00-0002-46.png
00000009,633,0,1441208929014,1441208929078,913,402,0,0,0,2,3,1,23,0002-00-0002-91.png,0003-00-0003-18.png
00000009,634,0,1441208932285,1441208932816,947,324,0,0,0,1,2,1,12,0001-00-0004-33.png,0002-00-0005-09.png
00000009,635,1,1441208935973,1441208936619,1077,279,0,0,0,3,2,1,32,0003-00-0008-01.png,0002-00-0000-88.png
00000009,636,1,1441208937452,1441208937544,913,453,0,0,0,5,4,1,54,0005-00-0008-90.png,0004-00-0002-19.png
00000009,637,0,1441208938446,1441208938538,913,426,0,0,0,3,4,1,34,0003-00-0008-96.png,0004-00-0005-57.png
00000009,638,1,1441208941926,1441208941966,950,303,0,0,0,4,3,1,43,0004-00-0007-24.png,0003-00-0009-29.png
00000009,639,1,1441208942930,1441208943006,895,434,0,0,0,2,1,1,21,0002-00-0005-16.png,0001-00-0002-40.png
00000009,640,0,1441208944174,1441208944222,864,449,0,0,0,4,5,1,45,0004-00-0000-34.png,0005-00-0002-10.png
00000009,641,1,1441208947381,1441208948005,980,410,0,0,0,5,4,1,54,0005-00-0006-67.png,0004-00-0003-48.png
00000009,642,1,1441208949446,1441208949527,937,363,0,0,0,4,3,1,43,0004-00-0002-60.png,0003-00-0003-30.png
00000009,643,0,1441208950719,1441208950759,920,439,0,0,0,1,2,1,12,0001-00-0000-58.png,0002-00-0002-11.png
00000009,644,1,1441208953939,1441208953967,894,363,0,0,0,3,2,1,32,0003-00-0000-33.png,0002-00-0006-86.png
00000009,645,0,1441208954880,1441208954956,900,474,0,0,0,3,4,1,34,0003-00-0001-32.png,0004-00-0008-62.png
00000009,646,1,1441208957981,1441208958773,458,260,0,0,0,4,5,1,45,0004-00-0007-12.png,0005-00-0004-18.png
00000009,647,0,1441208959636,1441208959710,913,424,0,0,0,2,3,1,23,0002-00-0009-65.png,0003-00-0001-73.png
00000009,648,1,1441208962804,1441208962860,985,359,0,0,0,2,1,1,21,0002-00-0001-03.png,0001-00-0002-26.png
00000009,649,0,1441208963746,1441208963806,945,397,0,0,0,4,5,1,45,0004-00-0005-30.png,0005-00-0003-82.png
00000009,650,1,1441208966668,1441208967333,351,343,0,0,0,2,3,1,23,0002-00-0000-49.png,0003-00-0001-43.png
00000009,651,0,1441208968177,1441208968240,898,410,0,0,0,3,4,1,34,0003-00-0006-95.png,0004-00-0008-93.png
00000009,652,1,1441208971401,1441208971945,470,259,0,0,0,1,2,1,12,0001-00-0007-86.png,0002-00-0009-58.png
00000009,653,1,1441208973408,1441208973449,913,348,0,0,0,4,3,1,43,0004-00-0000-77.png,0003-00-0001-27.png
00000009,654,1,1441208974631,1441208974725,904,462,0,0,0,5,4,1,54,0005-00-0008-42.png,0004-00-0002-36.png
00000009,655,1,1441208975887,1441208975923,869,426,0,0,0,2,1,1,21,0002-00-0008-08.png,0001-00-0001-28.png
00000009,656,0,1441208977412,1441208978301,463,282,0,0,0,3,2,1,32,0003-00-0009-92.png,0002-00-0001-56.png
00000009,657,1,1441208981179,1441208981800,1066,269,0,0,0,2,1,1,21,0002-00-0005-50.png,0001-00-0001-43.png
00000009,658,0,1441208983204,1441208983293,899,384,0,0,0,2,3,1,23,0002-00-0006-42.png,0003-00-0006-30.png
00000009,659,0,1441208986401,1441208987066,996,317,0,0,0,1,2,1,12,0001-00-0003-48.png,0002-00-0006-95.png
00000009,660,1,1441208990011,1441208990063,875,352,0,0,0,5,4,1,54,0005-00-0008-77.png,0004-00-0005-95.png
00000009,661,0,1441208990936,1441208991074,862,462,0,0,0,4,5,1,45,0004-00-0006-61.png,0005-00-0000-51.png
00000009,662,1,1441208993925,1441208994498,1083,299,0,0,0,3,2,1,32,0003-00-0004-16.png,0002-00-0009-16.png
00000009,663,0,1441208996084,1441208996160,909,360,0,0,0,3,4,1,34,0003-00-0005-20.png,0004-00-0009-98.png
00000009,664,0,1441208999404,1441209000074,434,267,0,0,0,4,3,1,43,0004-00-0009-04.png,0003-00-0002-27.png
00000009,665,0,1441209002996,1441209003594,444,281,0,0,0,4,3,1,43,0004-00-0005-42.png,0003-00-0008-09.png
00000009,666,0,1441209006796,1441209006808,958,369,0,0,0,1,2,1,12,0001-00-0006-69.png,0002-00-0008-99.png
00000009,667,0,1441209009910,1441209009950,888,384,0,0,0,3,4,1,34,0003-00-0009-29.png,0004-00-0007-82.png
00000009,668,1,1441209012868,1441209013089,859,348,0,0,0,2,1,1,21,0002-00-0001-92.png,0001-00-0008-07.png
00000009,669,0,1441209013991,1441209014110,957,423,0,0,0,2,3,1,23,0002-00-0003-50.png,0003-00-0002-87.png
00000009,670,1,1441209017241,1441209017851,478,264,0,0,0,4,5,1,45,0004-00-0009-84.png,0005-00-0002-55.png
00000009,671,1,1441209018742,1441209018852,930,414,0,0,0,3,2,1,32,0003-00-0004-59.png,0002-00-0006-68.png
00000009,672,1,1441209019990,1441209020093,904,443,0,0,0,5,4,1,54,0005-00-0003-42.png,0004-00-0006-90.png
00000009,673,1,1441209021182,1441209021257,913,436,0,0,0,4,3,1,43,0004-00-0003-47.png,0003-00-0009-85.png
00000009,674,1,1441209022535,1441209022674,905,482,0,0,0,3,2,1,32,0003-00-0000-58.png,0002-00-0000-96.png
00000009,675,1,1441209023864,1441209023907,892,456,0,0,0,5,4,1,54,0005-00-0002-46.png,0004-00-0000-54.png
00000009,676,1,1441209025278,1441209025318,888,463,0,0,0,2,1,1,21,0002-00-0004-54.png,0001-00-0007-59.png
00000009,677,0,1441209027072,1441209027107,885,466,0,0,0,4,5,1,45,0004-00-0008-20.png,0005-00-0000-92.png
00000009,678,0,1441209030270,1441209030300,895,330,0,0,0,3,4,1,34,0003-00-0002-94.png,0004-00-0003-12.png
00000009,679,0,1441209033504,1441209033556,986,327,0,0,0,1,2,1,12,0001-00-0000-81.png,0002-00-0001-20.png
00000009,680,0,1441209036739,1441209036767,914,378,0,0,0,2,3,1,23,0002-00-0007-74.png,0003-00-0002-34.png
00000009,681,0,1441209039967,1441209040576,966,339,0,0,0,3,4,1,34,0003-00-0002-27.png,0004-00-0002-24.png
00000009,682,1,1441209044519,1441209044586,959,331,0,0,0,2,1,1,21,0002-00-0006-42.png,0001-00-0000-64.png
00000009,683,0,1441209045542,1441209046532,487,280,0,0,0,5,4,1,54,0005-00-0008-11.png,0004-00-0005-08.png
00000009,684,1,1441209050275,1441209050303,925,305,0,0,0,4,3,1,43,0004-00-0002-86.png,0003-00-0008-31.png
00000009,685,0,1441209051304,1441209051388,913,424,0,0,0,1,2,1,12,0001-00-0001-71.png,0002-00-0003-76.png
00000009,686,1,1441209054542,1441209055151,382,372,0,0,0,4,5,1,45,0004-00-0006-55.png,0005-00-0009-05.png
00000009,687,0,1441209056015,1441209056172,939,420,0,0,0,2,3,1,23,0002-00-0002-94.png,0003-00-0001-98.png
00000009,688,1,1441209059281,1441209059919,946,325,0,0,0,3,2,1,32,0003-00-0002-39.png,0002-00-0002-18.png
00000009,689,0,1441209061370,1441209061697,980,381,0,0,0,2,3,1,23,0002-00-0004-52.png,0003-00-0008-69.png
00000009,690,1,1441209064962,1441209065719,943,341,0,0,0,2,1,1,21,0002-00-0008-68.png,0001-00-0009-61.png
00000009,691,1,1441209067077,1441209067187,936,331,0,0,0,5,4,1,54,0005-00-0002-60.png,0004-00-0003-55.png
00000009,692,0,1441209068300,1441209068361,888,423,0,0,0,1,2,1,12,0001-00-0004-29.png,0002-00-0005-87.png
00000009,693,0,1441209071370,1441209071430,939,390,0,0,0,3,4,1,34,0003-00-0007-52.png,0004-00-0001-34.png
00000009,694,1,1441209074421,1441209075066,461,278,0,0,0,4,5,1,45,0004-00-0005-80.png,0005-00-0002-18.png
00000009,695,1,1441209075920,1441209076032,939,424,0,0,0,3,2,1,32,0003-00-0009-71.png,0002-00-0003-18.png
00000009,696,1,1441209077297,1441209077416,913,436,0,0,0,4,3,1,43,0004-00-0007-81.png,0003-00-0008-61.png
00000009,697,0,1441209078425,1441209078528,913,451,0,0,0,4,5,1,45,0004-00-0002-64.png,0005-00-0008-97.png
00000009,698,0,1441209081676,1441209082222,1091,273,0,0,0,3,4,1,34,0003-00-0004-88.png,0004-00-0003-66.png
00000009,699,1,1441209085322,1441209085945,1118,296,0,0,0,3,2,1,32,0003-00-0005-49.png,0002-00-0001-54.png
00000009,700,1,1441209086774,1441209087057,990,447,0,0,0,4,3,1,43,0004-00-0003-03.png,0003-00-0009-28.png
00000009,701,0,1441209088163,1441209089073,487,237,0,0,0,5,4,1,54,0005-00-0005-07.png,0004-00-0001-21.png
00000009,702,1,1441209092178,1441209092744,966,305,0,0,0,2,1,1,21,0002-00-0002-05.png,0001-00-0008-91.png
00000009,703,0,1441209094198,1441209094353,964,410,0,0,0,1,2,1,12,0001-00-0004-24.png,0002-00-0007-59.png
00000009,704,0,1441209097546,1441209098077,935,339,0,0,0,2,3,1,23,0002-00-0001-73.png,0003-00-0007-29.png
00000009,705,0,1441209101271,1441209101554,887,366,0,0,0,4,5,1,45,0004-00-0002-50.png,0005-00-0005-54.png
00000009,706,0,1441209104632,1441209104668,914,369,0,0,0,3,4,1,34,0003-00-0007-84.png,0004-00-0001-06.png
00000009,707,0,1441209108094,1441209108700,461,297,0,0,0,4,3,1,43,0004-00-0003-51.png,0003-00-0005-82.png
00000009,708,0,1441209111904,1441209112410,993,292,0,0,0,1,2,1,12,0001-00-0000-12.png,0002-00-0006-26.png
00000009,709,0,1441209115619,1441209116326,449,293,0,0,0,5,4,1,54,0005-00-0008-13.png,0004-00-0008-83.png
00000009,710,1,1441209119855,1441209120505,368,383,0,0,0,2,3,1,23,0002-00-0005-51.png,0003-00-0003-46.png
00000009,711,1,1441209121417,1441209121513,951,410,0,0,0,3,2,1,32,0003-00-0002-66.png,0002-00-0005-46.png
00000009,712,1,1441209122493,1441209122549,888,434,0,0,0,2,1,1,21,0002-00-0003-28.png,0001-00-0008-74.png
00000009,713,0,1441209123728,1441209123780,888,436,0,0,0,4,5,1,45,0004-00-0009-68.png,0005-00-0005-80.png
00000009,714,0,1441209126800,1441209127320,1067,274,0,0,0,1,2,1,12,0001-00-0003-96.png,0002-00-0002-41.png
00000009,715,1,1441209130521,1441209131095,483,297,0,0,0,2,3,1,23,0002-00-0006-98.png,0003-00-0007-45.png
00000009,716,0,1441209131968,1441209132061,905,462,0,0,0,3,4,1,34,0003-00-0005-39.png,0004-00-0005-97.png
00000009,717,1,1441209135298,1441209135326,937,354,0,0,0,3,2,1,32,0003-00-0006-26.png,0002-00-0001-14.png
00000009,718,1,1441209136192,1441209136315,913,447,0,0,0,2,1,1,21,0002-00-0007-86.png,0001-00-0004-68.png
00000009,719,1,1441209137472,1441209137528,904,442,0,0,0,4,3,1,43,0004-00-0002-81.png,0003-00-0002-70.png
00000009,720,1,1441209138844,1441209138896,896,441,0,0,0,5,4,1,54,0005-00-0007-74.png,0004-00-0009-91.png
00000009,721,1,1441209140306,1441209140414,906,470,0,0,0,4,3,1,43,0004-00-0003-71.png,0003-00-0007-31.png
00000009,722,0,1441209141725,1441209141775,915,436,0,0,0,4,5,1,45,0004-00-0005-53.png,0005-00-0007-14.png
00000009,723,0,1441209144916,1441209145677,425,262,0,0,0,3,2,1,32,0003-00-0007-76.png,0002-00-0001-78.png
00000009,724,0,1441209148831,1441209149444,1097,278,0,0,0,2,3,1,23,0002-00-0000-04.png,0003-00-0001-32.png
00000009,725,0,1441209152591,1441209153269,507,275,0,0,0,5,4,1,54,0005-00-0000-01.png,0004-00-0006-65.png
00000009,726,1,1441209156458,1441209157038,967,300,0,0,0,2,1,1,21,0002-00-0008-95.png,0001-00-0004-30.png
00000009,727,0,1441209157883,1441209157999,975,410,0,0,0,1,2,1,12,0001-00-0008-45.png,0002-00-0009-51.png
00000009,728,0,1441209161213,1441209161265,968,326,0,0,0,3,4,1,34,0003-00-0004-81.png,0004-00-0003-39.png
00000009,729,0,1441209164145,1441209164684,1048,299,0,0,0,3,4,1,34,0003-00-0000-31.png,0004-00-0006-06.png
00000009,730,0,1441209167913,1441209168502,964,408,0,0,0,2,3,1,23,0002-00-0002-14.png,0003-00-0009-00.png
00000009,731,1,1441209171560,1441209171858,916,363,0,0,0,2,1,1,21,0002-00-0002-14.png,0001-00-0006-68.png
00000009,732,1,1441209172826,1441209172898,975,418,0,0,0,4,3,1,43,0004-00-0006-77.png,0003-00-0009-17.png
00000009,733,1,1441209173964,1441209174139,923,455,0,0,0,5,4,1,54,0005-00-0003-74.png,0004-00-0002-52.png
00000009,734,1,1441209175324,1441209175430,956,462,0,0,0,3,2,1,32,0003-00-0009-08.png,0002-00-0009-83.png
00000009,735,1,1441209176621,1441209177638,335,373,0,0,0,4,5,1,45,0004-00-0009-84.png,0005-00-0005-22.png
00000009,736,0,1441209178645,1441209178708,939,471,0,0,0,1,2,1,12,0001-00-0004-55.png,0002-00-0001-48.png
00000009,737,0,1441209182409,1441209182973,1070,284,0,0,0,4,5,1,45,0004-00-0006-88.png,0005-00-0002-00.png
00000009,738,1,1441209188656,1441209188802,990,309,0,0,0,3,2,1,32,0003-00-0006-33.png,0002-00-0005-52.png
00000009,739,0,1441209189755,1441209189811,957,388,0,0,0,2,3,1,23,0002-00-0009-84.png,0003-00-0002-33.png
00000009,740,1,1441209192678,1441209193325,466,282,0,0,0,1,2,1,12,0001-00-0005-97.png,0002-00-0004-95.png
00000009,741,1,1441209194190,1441209194240,931,420,0,0,0,2,1,1,21,0002-00-0004-46.png,0001-00-0008-73.png
00000009,742,1,1441209195220,1441209195351,903,462,0,0,0,4,3,1,43,0004-00-0009-66.png,0003-00-0006-08.png
00000009,743,0,1441209196517,1441209196625,913,453,0,0,0,3,4,1,34,0003-00-0000-34.png,0004-00-0000-97.png
00000009,744,1,1441209199530,1441209199605,967,381,0,0,0,5,4,1,54,0005-00-0007-64.png,0004-00-0009-79.png
00000009,745,0,1441209200521,1441209200601,913,410,0,0,0,4,5,1,45,0004-00-0007-41.png,0005-00-0009-09.png
00000009,746,1,1441209203792,1441209204511,906,324,0,0,0,5,4,1,54,0005-00-0006-34.png,0004-00-0005-88.png
00000009,747,0,1441209206015,1441209206214,963,388,0,0,0,1,2,1,12,0001-00-0006-74.png,0002-00-0002-98.png
00000009,748,0,1441209209127,1441209209911,939,399,0,0,0,3,4,1,34,0003-00-0001-66.png,0004-00-0004-03.png
00000009,749,0,1441209213022,1441209213623,437,287,0,0,0,4,3,1,43,0004-00-0007-84.png,0003-00-0006-16.png
00000009,750,1,1441209216760,1441209217389,369,367,0,0,0,2,3,1,23,0002-00-0007-28.png,0003-00-0002-13.png
00000009,751,1,1441209218271,1441209218335,939,410,0,0,0,2,1,1,21,0002-00-0006-20.png,0001-00-0008-73.png
00000009,752,1,1441209219411,1441209219485,888,436,0,0,0,3,2,1,32,0003-00-0004-99.png,0002-00-0003-49.png
00000009,753,0,1441209220836,1441209220916,930,458,0,0,0,3,4,1,34,0003-00-0006-51.png,0004-00-0008-99.png
00000009,754,1,1441209223991,1441209224570,460,272,0,0,0,1,2,1,12,0001-00-0002-25.png,0002-00-0000-20.png
00000009,755,1,1441209226046,1441209226298,964,401,0,0,0,3,2,1,32,0003-00-0003-75.png,0002-00-0001-49.png
00000009,756,1,1441209227525,1441209227612,950,436,0,0,0,2,1,1,21,0002-00-0007-11.png,0001-00-0004-58.png
00000009,757,0,1441209228680,1441209228748,899,462,0,0,0,4,5,1,45,0004-00-0000-16.png,0005-00-0003-92.png
00000009,758,0,1441209231743,1441209232406,497,260,0,0,0,4,3,1,43,0004-00-0009-83.png,0003-00-0006-88.png
00000009,759,1,1441209235431,1441209236052,456,267,0,0,0,2,3,1,23,0002-00-0006-44.png,0003-00-0005-65.png
00000009,760,1,1441209236931,1441209237043,960,429,0,0,0,5,4,1,54,0005-00-0009-65.png,0004-00-0005-67.png
00000009,761,1,1441209237901,1441209237985,904,465,0,0,0,2,1,1,21,0002-00-0009-36.png,0001-00-0007-94.png
00000009,762,1,1441209239327,1441209239397,880,494,0,0,0,5,4,1,54,0005-00-0008-34.png,0004-00-0009-69.png
00000009,763,0,1441209240583,1441209240651,913,448,0,0,0,3,4,1,34,0003-00-0000-12.png,0004-00-0006-82.png
00000009,764,0,1441209243888,1441209243904,931,352,0,0,0,1,2,1,12,0001-00-0001-80.png,0002-00-0003-42.png
00000009,765,0,1441209247077,1441209247768,449,292,0,0,0,4,3,1,43,0004-00-0001-72.png,0003-00-0000-90.png
00000009,766,1,1441209250714,1441209251387,466,279,0,0,0,2,3,1,23,0002-00-0007-76.png,0003-00-0008-19.png
00000009,767,1,1441209252257,1441209252344,905,444,0,0,0,3,2,1,32,0003-00-0001-69.png,0002-00-0000-83.png
00000009,768,0,1441209253572,1441209253684,905,443,0,0,0,4,5,1,45,0004-00-0000-03.png,0005-00-0007-55.png
00000009,769,0,1441209256903,1441209257670,439,257,0,0,0,5,4,1,54,0005-00-0000-61.png,0004-00-0000-91.png
00000009,770,1,1441209260733,1441209260800,890,401,0,0,0,3,2,1,32,0003-00-0000-26.png,0002-00-0000-05.png
00000009,771,1,1441209261724,1441209261806,938,421,0,0,0,2,1,1,21,0002-00-0000-85.png,0001-00-0004-38.png
00000009,772,0,1441209262753,1441209262793,867,446,0,0,0,4,5,1,45,0004-00-0005-44.png,0005-00-0008-41.png
00000009,773,0,1441209265993,1441209266812,502,241,0,0,0,4,3,1,43,0004-00-0003-83.png,0003-00-0006-96.png
00000009,774,0,1441209270038,1441209270062,943,338,0,0,0,3,4,1,34,0003-00-0007-00.png,0004-00-0006-80.png
00000009,775,0,1441209273159,1441209273833,984,298,0,0,0,1,2,1,12,0001-00-0007-28.png,0002-00-0005-27.png
00000009,776,1,1441209277346,1441209277991,330,381,0,0,0,2,3,1,23,0002-00-0008-10.png,0003-00-0006-97.png
00000009,777,0,1441209278868,1441209278952,974,390,0,0,0,1,2,1,12,0001-00-0008-02.png,0002-00-0005-59.png
00000009,778,1,1441209282125,1441209282644,940,338,0,0,0,5,4,1,54,0005-00-0004-40.png,0004-00-0003-48.png
00000009,779,0,1441209284239,1441209284366,936,403,0,0,0,2,3,1,23,0002-00-0009-55.png,0003-00-0002-96.png
00000009,780,1,1441209287401,1441209288044,1092,289,0,0,0,3,2,1,32,0003-00-0002-43.png,0002-00-0006-64.png
00000009,781,1,1441209289485,1441209289597,936,403,0,0,0,4,3,1,43,0004-00-0009-88.png,0003-00-0004-43.png
00000009,782,0,1441209290767,1441209290914,929,459,0,0,0,4,5,1,45,0004-00-0008-35.png,0005-00-0007-24.png
00000009,783,0,1441209294187,1441209294781,478,260,0,0,0,2,1,1,21,0002-00-0002-61.png,0001-00-0008-29.png
00000009,784,0,1441209297743,1441209298366,937,323,0,0,0,3,4,1,34,0003-00-0002-38.png,0004-00-0009-20.png
00000009,785,1,1441209302080,1441209302637,358,400,0,0,0,4,5,1,45,0004-00-0004-50.png,0005-00-0002-84.png
00000009,786,1,1441209303530,1441209303640,928,436,0,0,0,2,1,1,21,0002-00-0003-07.png,0001-00-0009-64.png
00000009,787,1,1441209304651,1441209304723,913,448,0,0,0,4,3,1,43,0004-00-0009-09.png,0003-00-0008-30.png
00000009,788,0,1441209305892,1441209305968,907,455,0,0,0,1,2,1,12,0001-00-0006-36.png,0002-00-0002-85.png
00000009,789,0,1441209308884,1441209308943,937,421,0,0,0,2,3,1,23,0002-00-0005-04.png,0003-00-0006-02.png
00000009,790,1,1441209312066,1441209312880,987,312,0,0,0,5,4,1,54,0005-00-0008-78.png,0004-00-0008-42.png
00000009,791,1,1441209314279,1441209314430,962,388,0,0,0,3,2,1,32,0003-00-0001-56.png,0002-00-0005-77.png
00000009,792,0,1441209315553,1441209315621,939,439,0,0,0,3,4,1,34,0003-00-0008-52.png,0004-00-0002-35.png
00000009,793,1,1441209318790,1441209318814,888,358,0,0,0,4,3,1,43,0004-00-0009-89.png,0003-00-0008-96.png
00000009,794,0,1441209319672,1441209319787,986,438,0,0,0,1,2,1,12,0001-00-0002-18.png,0002-00-0000-14.png
00000009,795,0,1441209322898,1441209322938,862,384,0,0,0,2,3,1,23,0002-00-0007-90.png,0003-00-0004-78.png
00000009,796,1,1441209326137,1441209326773,961,307,0,0,0,2,1,1,21,0002-00-0007-51.png,0001-00-0006-51.png
00000009,797,0,1441209328182,1441209329263,457,277,0,0,0,3,2,1,32,0003-00-0004-21.png,0002-00-0006-26.png
00000009,798,1,1441209332425,1441209332459,892,387,0,0,0,5,4,1,54,0005-00-0005-81.png,0004-00-0007-83.png
00000009,799,0,1441209333378,1441209333509,960,424,0,0,0,4,5,1,45,0004-00-0009-56.png,0005-00-0005-17.png
00000009,800,0,1441209336707,1441209337305,1041,270,0,0,0,3,4,1,34,0003-00-0006-64.png,0004-00-0008-81.png
00000009,801,1,1441209340499,1441209341024,366,388,0,0,0,1,2,1,12,0001-00-0004-23.png,0002-00-0005-13.png
00000009,802,1,1441209341895,1441209341987,934,442,0,0,0,3,2,1,32,0003-00-0006-13.png,0002-00-0001-75.png
00000009,803,0,1441209343234,1441209343337,913,436,0,0,0,4,5,1,45,0004-00-0006-65.png,0005-00-0002-47.png
00000009,804,0,1441209346248,1441209346841,1094,279,0,0,0,3,4,1,34,0003-00-0001-86.png,0004-00-0008-59.png
00000009,805,1,1441209349768,1441209350388,1102,306,0,0,0,5,4,1,54,0005-00-0008-48.png,0004-00-0006-55.png
00000009,806,1,1441209352005,1441209352124,966,409,0,0,0,4,3,1,43,0004-00-0005-72.png,0003-00-0007-91.png
00000009,807,0,1441209353352,1441209353408,913,437,0,0,0,2,3,1,23,0002-00-0006-20.png,0003-00-0006-41.png
00000009,808,1,1441209356382,1441209356406,888,436,0,0,0,2,1,1,21,0002-00-0004-27.png,0001-00-0003-86.png
00000009,809,1,1441209357239,1441209357307,885,439,0,0,0,4,3,1,43,0004-00-0002-63.png,0003-00-0009-12.png
00000009,810,1,1441209358675,1441209358780,906,481,0,0,0,5,4,1,54,0005-00-0004-17.png,0004-00-0003-40.png
00000009,811,0,1441209359880,1441209359968,903,488,0,0,0,4,5,1,45,0004-00-0005-58.png,0005-00-0005-09.png
00000009,812,1,1441209363183,1441209363788,432,280,0,0,0,2,3,1,23,0002-00-0003-94.png,0003-00-0000-02.png
00000009,813,0,1441209364671,1441209364723,909,416,0,0,0,3,4,1,34,0003-00-0003-21.png,0004-00-0009-85.png
00000009,814,0,1441209367894,1441209368150,857,372,0,0,0,1,2,1,12,0001-00-0001-13.png,0002-00-0008-23.png
00000009,815,1,1441209371392,1441209371941,1092,279,0,0,0,2,1,1,21,0002-00-0008-37.png,0001-00-0000-83.png
00000009,816,1,1441209373405,1441209373425,905,358,0,0,0,3,2,1,32,0003-00-0003-42.png,0002-00-0009-21.png
00000009,817,1,1441209374508,1441209374560,888,453,0,0,0,3,2,1,32,0003-00-0007-89.png,0002-00-0007-67.png
00000009,818,1,1441209375730,1441209375742,892,453,0,0,0,4,3,1,43,0004-00-0009-41.png,0003-00-0005-69.png
00000009,819,0,1441209376932,1441209376984,899,473,0,0,0,1,2,1,12,0001-00-0007-83.png,0002-00-0001-44.png
00000009,820,1,1441209379932,1441209380499,939,327,0,0,0,2,1,1,21,0002-00-0008-61.png,0001-00-0006-81.png
00000009,821,1,1441209381942,1441209382061,963,403,0,0,0,5,4,1,54,0005-00-0009-84.png,0004-00-0009-65.png
00000009,822,0,1441209383093,1441209383117,911,447,0,0,0,2,3,1,23,0002-00-0003-67.png,0003-00-0004-85.png
00000009,823,1,1441209386224,1441209386911,483,248,0,0,0,4,5,1,45,0004-00-0008-17.png,0005-00-0008-03.png
00000009,824,0,1441209388305,1441209388397,925,384,0,0,0,3,4,1,34,0003-00-0006-91.png,0004-00-0003-73.png
00000009,825,1,1441209391345,1441209391927,465,278,0,0,0,4,5,1,45,0004-00-0009-84.png,0005-00-0007-48.png
00000009,826,0,1441209392748,1441209392852,888,476,0,0,0,1,2,1,12,0001-00-0009-38.png,0002-00-0006-91.png
00000009,827,1,1441209396103,1441209396785,430,278,0,0,0,2,3,1,23,0002-00-0007-86.png,0003-00-0006-32.png
00000009,828,0,1441209397633,1441209397677,913,436,0,0,0,3,4,1,34,0003-00-0006-35.png,0004-00-0007-97.png
00000009,829,1,1441209400861,1441209400873,888,401,0,0,0,2,1,1,21,0002-00-0003-72.png,0001-00-0005-58.png
00000009,830,1,1441209401703,1441209401803,862,473,0,0,0,4,3,1,43,0004-00-0006-22.png,0003-00-0005-94.png
00000009,831,1,1441209403106,1441209403146,892,456,0,0,0,5,4,1,54,0005-00-0007-85.png,0004-00-0004-78.png
00000009,832,1,1441209404142,1441209404182,888,488,0,0,0,3,2,1,32,0003-00-0006-53.png,0002-00-0007-12.png
00000009,833,1,1441209405483,1441209405591,904,485,0,0,0,3,2,1,32,0003-00-0007-00.png,0002-00-0005-78.png
00000009,834,0,1441209406743,1441209406787,889,471,0,0,0,1,2,1,12,0001-00-0006-87.png,0002-00-0008-63.png
00000009,835,0,1441209409894,1441209410569,475,267,0,0,0,4,3,1,43,0004-00-0003-23.png,0003-00-0004-52.png
00000009,836,1,1441209413773,1441209413813,960,352,0,0,0,2,1,1,21,0002-00-0003-38.png,0001-00-0001-61.png
00000009,837,1,1441209414649,1441209414773,939,427,0,0,0,5,4,1,54,0005-00-0005-06.png,0004-00-0007-77.png
00000009,838,0,1441209415856,1441209415945,878,462,0,0,0,4,5,1,45,0004-00-0000-25.png,0005-00-0002-95.png
00000009,839,0,1441209419107,1441209419159,924,354,0,0,0,2,3,1,23,0002-00-0009-15.png,0003-00-0000-29.png
00000009,840,0,1441209422387,1441209423091,1101,279,0,0,0,3,4,1,34,0003-00-0006-41.png,0004-00-0005-18.png
00000009,841,1,1441209426105,1441209426782,480,287,0,0,0,4,5,1,45,0004-00-0006-00.png,0005-00-0006-62.png
00000009,842,0,1441209427682,1441209427734,925,430,0,0,0,3,4,1,34,0003-00-0000-14.png,0004-00-0002-29.png
00000009,843,0,1441209430753,1441209431335,427,289,0,0,0,4,3,1,43,0004-00-0007-14.png,0003-00-0009-75.png
00000009,844,0,1441209434511,1441209434766,880,403,0,0,0,1,2,1,12,0001-00-0000-54.png,0002-00-0006-16.png
00000009,845,0,1441209437919,1441209438535,453,266,0,0,0,5,4,1,54,0005-00-0001-16.png,0004-00-0001-24.png
00000009,846,1,1441209441733,1441209441765,920,343,0,0,0,3,2,1,32,0003-00-0004-47.png,0002-00-0005-02.png
00000009,847,1,1441209442626,1441209442726,913,436,0,0,0,2,1,1,21,0002-00-0003-08.png,0001-00-0001-93.png
00000009,848,0,1441209443808,1441209443872,888,439,0,0,0,2,3,1,23,0002-00-0003-81.png,0003-00-0003-72.png
00000009,849,0,1441209446884,1441209446956,877,358,0,0,0,1,2,1,12,0001-00-0005-62.png,0002-00-0001-30.png
00000009,850,1,1441209450139,1441209450159,901,358,0,0,0,4,3,1,43,0004-00-0000-46.png,0003-00-0009-01.png
00000009,851,1,1441209451047,1441209451174,929,436,0,0,0,3,2,1,32,0003-00-0007-05.png,0002-00-0007-13.png
00000009,852,0,1441209452355,1441209452435,899,448,0,0,0,2,3,1,23,0002-00-0007-60.png,0003-00-0004-94.png
00000009,853,0,1441209455608,1441209455648,958,353,0,0,0,3,4,1,34,0003-00-0007-03.png,0004-00-0001-76.png
00000009,854,1,1441209458748,1441209459549,958,312,0,0,0,5,4,1,54,0005-00-0002-98.png,0004-00-0006-62.png
00000009,855,0,1441209460930,1441209461058,963,356,0,0,0,4,5,1,45,0004-00-0000-65.png,0005-00-0003-87.png
00000009,856,1,1441209463952,1441209463976,917,460,0,0,0,2,1,1,21,0002-00-0007-11.png,0001-00-0009-88.png
00000009,857,1,1441209464817,1441209464944,965,408,0,0,0,4,3,1,43,0004-00-0006-73.png,0003-00-0004-69.png
00000009,858,1,1441209465840,1441209465900,888,462,0,0,0,3,2,1,32,0003-00-0002-23.png,0002-00-0000-92.png
00000009,859,0,1441209467104,1441209467192,930,443,0,0,0,3,4,1,34,0003-00-0009-93.png,0004-00-0000-37.png
00000009,860,1,1441209470572,1441209471151,470,273,0,0,0,1,2,1,12,0001-00-0002-94.png,0002-00-0002-30.png
00000009,861,0,1441209472528,1441209473268,432,300,0,0,0,5,4,1,54,0005-00-0000-51.png,0004-00-0000-60.png
00000009,862,0,1441209476416,1441209476468,924,384,0,0,0,2,3,1,23,0002-00-0003-14.png,0003-00-0004-69.png
00000009,863,0,1441209479487,1441209480059,1063,270,0,0,0,4,5,1,45,0004-00-0009-68.png,0005-00-0000-78.png
00000009,864,1,1441209483095,1441209483191,914,381,0,0,0,2,1,1,21,0002-00-0001-15.png,0001-00-0005-17.png
00000009,865,0,1441209484057,1441209484192,981,462,0,0,0,3,4,1,34,0003-00-0003-04.png,0004-00-0007-71.png
00000009,866,0,1441209487373,1441209487392,962,351,0,0,0,4,5,1,45,0004-00-0004-99.png,0005-00-0005-93.png
00000009,867,1,1441209490577,1441209491258,503,272,0,0,0,2,3,1,23,0002-00-0009-31.png,0003-00-0001-93.png
00000009,868,1,1441209492789,1441209492881,939,410,0,0,0,5,4,1,54,0005-00-0006-50.png,0004-00-0006-42.png
00000009,869,1,1441209493972,1441209494090,932,456,0,0,0,2,1,1,21,0002-00-0005-33.png,0001-00-0008-73.png
00000009,870,0,1441209495175,1441209495227,888,462,0,0,0,1,2,1,12,0001-00-0001-16.png,0002-00-0000-52.png
00000009,871,0,1441209498249,1441209498939,461,254,0,0,0,4,3,1,43,0004-00-0002-07.png,0003-00-0005-75.png
00000009,872,1,1441209502149,1441209502213,957,334,0,0,0,3,2,1,32,0003-00-0000-68.png,0002-00-0002-23.png
00000009,873,0,1441209503125,1441209503252,939,473,0,0,0,2,3,1,23,0002-00-0002-18.png,0003-00-0005-37.png
00000009,874,1,1441209506084,1441209506771,954,275,0,0,0,5,4,1,54,0005-00-0003-13.png,0004-00-0003-02.png
00000009,875,1,1441209508230,1441209508365,950,410,0,0,0,2,1,1,21,0002-00-0009-10.png,0001-00-0004-98.png
00000009,876,1,1441209509533,1441209509585,917,442,0,0,0,3,2,1,32,0003-00-0007-11.png,0002-00-0001-35.png
00000009,877,1,1441209510777,1441209510809,888,463,0,0,0,4,3,1,43,0004-00-0007-81.png,0003-00-0009-61.png
00000009,878,0,1441209512248,1441209512279,939,450,0,0,0,1,2,1,12,0001-00-0003-57.png,0002-00-0004-48.png
00000009,879,1,1441209515465,1441209516084,476,274,0,0,0,4,5,1,45,0004-00-0009-78.png,0005-00-0004-04.png
00000009,880,0,1441209516927,1441209517010,913,474,0,0,0,3,4,1,34,0003-00-0002-54.png,0004-00-0006-08.png
00000009,881,1,1441209520167,1441209520748,1092,270,0,0,0,3,2,1,32,0003-00-0009-58.png,0002-00-0005-94.png
00000009,882,1,1441209522223,1441209522367,962,381,0,0,0,4,3,1,43,0004-00-0001-33.png,0003-00-0006-65.png
00000009,883,0,1441209523405,1441209523448,887,450,0,0,0,3,4,1,34,0003-00-0009-02.png,0004-00-0001-86.png
00000009,884,1,1441209526364,1441209526984,470,249,0,0,0,1,2,1,12,0001-00-0001-64.png,0002-00-0003-50.png
00000009,885,1,1441209527853,1441209527929,913,446,0,0,0,2,1,1,21,0002-00-0009-36.png,0001-00-0005-70.png
00000009,886,0,1441209529050,1441209529162,913,436,0,0,0,4,5,1,45,0004-00-0005-40.png,0005-00-0002-87.png
00000009,887,1,1441209532252,1441209532805,984,323,0,0,0,5,4,1,54,0005-00-0004-84.png,0004-00-0000-51.png
00000009,888,0,1441209534278,1441209534428,958,413,0,0,0,2,3,1,23,0002-00-0003-47.png,0003-00-0002-27.png
00000009,889,0,1441209537940,1441209538684,1097,282,0,0,0,4,5,1,45,0004-00-0008-15.png,0005-00-0003-34.png
00000009,890,0,1441209541564,1441209541612,909,409,0,0,0,2,3,1,23,0002-00-0005-57.png,0003-00-0003-26.png
00000009,891,1,1441209544783,1441209544815,958,330,0,0,0,3,2,1,32,0003-00-0002-30.png,0002-00-0004-01.png
00000009,892,0,1441209545753,1441209545865,939,446,0,0,0,3,4,1,34,0003-00-0009-92.png,0004-00-0008-32.png
00000009,893,1,1441209548837,1441209549401,472,277,0,0,0,1,2,1,12,0001-00-0005-70.png,0002-00-0000-18.png
00000009,894,1,1441209550236,1441209550324,930,462,0,0,0,4,3,1,43,0004-00-0001-59.png,0003-00-0008-12.png
00000009,895,1,1441209551481,1441209551549,907,482,0,0,0,2,1,1,21,0002-00-0000-98.png,0001-00-0001-47.png
00000009,896,1,1441209552750,1441209552848,913,474,0,0,0,5,4,1,54,0005-00-0003-10.png,0004-00-0007-78.png
00000009,897,1,1441209554117,1441209554152,913,451,0,0,0,4,3,1,43,0004-00-0000-09.png,0003-00-0002-79.png
00000009,898,0,1441209555356,1441209555408,922,488,0,0,0,3,4,1,34,0003-00-0002-34.png,0004-00-0003-25.png
00000009,899,1,1441209558284,1441209558869,1041,265,0,0,0,5,4,1,54,0005-00-0002-16.png,0004-00-0000-09.png
00000009,900,0,1441209560372,1441209560481,965,409,0,0,0,1,2,1,12,0001-00-0007-25.png,0002-00-0006-78.png
00000009,901,1,1441209563680,1441209564316,461,281,0,0,0,2,3,1,23,0002-00-0004-61.png,0003-00-0002-97.png
00000009,902,0,1441209565152,1441209565263,939,420,0,0,0,4,5,1,45,0004-00-0005-39.png,0005-00-0006-54.png
00000009,903,0,1441209568393,1441209569021,454,269,0,0,0,3,2,1,32,0003-00-0006-85.png,0002-00-0004-91.png
00000009,904,1,1441209572221,1441209572905,941,328,0,0,0,2,1,1,21,0002-00-0007-01.png,0001-00-0004-66.png
00000009,905,0,1441209574421,1441209574544,933,402,0,0,0,4,5,1,45,0004-00-0002-72.png,0005-00-0006-79.png
00000009,906,0,1441209577699,1441209577762,974,355,0,0,0,2,3,1,23,0002-00-0004-60.png,0003-00-0002-18.png
00000009,907,0,1441209581380,1441209581428,939,358,0,0,0,3,4,1,34,0003-00-0004-19.png,0004-00-0002-93.png
00000009,908,1,1441209584292,1441209584827,1066,286,0,0,0,3,2,1,32,0003-00-0000-33.png,0002-00-0006-30.png
00000009,909,1,1441209586238,1441209586430,935,386,0,0,0,4,3,1,43,0004-00-0007-78.png,0003-00-0001-98.png
00000009,910,1,1441209587536,1441209587602,913,462,0,0,0,2,1,1,21,0002-00-0003-53.png,0001-00-0007-24.png
00000009,911,1,1441209588732,1441209588784,909,464,0,0,0,5,4,1,54,0005-00-0000-39.png,0004-00-0006-63.png
00000009,912,0,1441209590113,1441209590221,934,459,0,0,0,1,2,1,12,0001-00-0006-53.png,0002-00-0004-28.png
00000009,913,1,1441209593056,1441209593281,922,455,0,0,0,3,2,1,32,0003-00-0002-22.png,0002-00-0009-57.png
00000009,914,0,1441209594360,1441209594424,945,415,0,0,0,1,2,1,12,0001-00-0002-66.png,0002-00-0001-57.png
00000009,915,1,1441209597611,1441209597651,926,377,0,0,0,5,4,1,54,0005-00-0004-50.png,0004-00-0000-48.png
00000009,916,0,1441209598575,1441209598658,937,425,0,0,0,4,5,1,45,0004-00-0004-70.png,0005-00-0000-39.png
00000009,917,0,1441209601784,1441209601883,896,284,0,0,0,2,3,1,23,0002-00-0001-28.png,0003-00-0008-32.png
00000009,918,0,1441209605124,1441209605765,421,261,0,0,0,2,1,1,21,0002-00-0004-69.png,0001-00-0004-57.png
00000009,919,0,1441209608941,1441209609631,421,276,0,0,0,4,3,1,43,0004-00-0005-22.png,0003-00-0007-25.png
00000009,920,0,1441209612657,1441209612691,900,404,0,0,0,3,4,1,34,0003-00-0008-01.png,0004-00-0002-52.png
00000009,921,0,1441209615894,1441209615914,888,374,0,0,0,2,3,1,23,0002-00-0001-97.png,0003-00-0009-88.png
00000009,922,1,1441209618815,1441209619486,1047,271,0,0,0,2,1,1,21,0002-00-0001-20.png,0001-00-0003-57.png
00000009,923,0,1441209620319,1441209620415,948,431,0,0,0,4,5,1,45,0004-00-0000-68.png,0005-00-0003-66.png
00000009,924,0,1441209623369,1441209624336,1060,286,0,0,0,1,2,1,12,0001-00-0008-10.png,0002-00-0009-08.png
00000009,925,1,1441209627459,1441209627534,940,354,0,0,0,3,2,1,32,0003-00-0007-79.png,0002-00-0007-02.png
00000009,926,0,1441209628402,1441209628509,936,433,0,0,0,3,4,1,34,0003-00-0002-21.png,0004-00-0002-41.png
00000009,927,1,1441209631656,1441209631708,959,357,0,0,0,4,3,1,43,0004-00-0002-34.png,0003-00-0001-65.png
00000009,928,1,1441209632577,1441209632671,913,453,0,0,0,5,4,1,54,0005-00-0000-11.png,0004-00-0001-31.png
00000009,929,0,1441209633800,1441209633892,905,462,0,0,0,3,4,1,34,0003-00-0000-32.png,0004-00-0007-55.png
00000009,930,0,1441209637105,1441209637132,935,332,0,0,0,4,5,1,45,0004-00-0007-52.png,0005-00-0006-47.png
00000009,931,0,1441209640299,1441209640939,463,297,0,0,0,4,3,1,43,0004-00-0007-52.png,0003-00-0002-18.png
00000009,932,1,1441209644169,1441209644177,927,354,0,0,0,2,1,1,21,0002-00-0001-22.png,0001-00-0008-81.png
00000009,933,0,1441209645048,1441209645188,926,436,0,0,0,1,2,1,12,0001-00-0002-89.png,0002-00-0006-08.png
00000009,934,0,1441209648428,1441209648992,930,334,0,0,0,2,3,1,23,0002-00-0000-26.png,0003-00-0004-33.png
00000009,935,1,1441209652109,1441209652161,893,377,0,0,0,5,4,1,54,0005-00-0006-43.png,0004-00-0005-75.png
00000009,936,1,1441209653061,1441209653160,939,453,0,0,0,3,2,1,32,0003-00-0006-92.png,0002-00-0001-88.png
00000009,937,1,1441209654293,1441209654325,899,462,0,0,0,5,4,1,54,0005-00-0004-09.png,0004-00-0008-90.png
00000009,938,1,1441209655453,1441209655544,913,462,0,0,0,2,1,1,21,0002-00-0006-87.png,0001-00-0001-30.png
00000009,939,0,1441209656818,1441209656906,931,451,0,0,0,4,5,1,45,0004-00-0008-84.png,0005-00-0003-00.png
00000009,940,1,1441209659998,1441209660752,1069,271,0,0,0,3,2,1,32,0003-00-0005-80.png,0002-00-0005-12.png
00000009,941,0,1441209662150,1441209662210,939,384,0,0,0,2,3,1,23,0002-00-0007-61.png,0003-00-0007-71.png
