subject_id,trial,correct_response,stim_time,response_time,x_coord,y_coord,trial_timeout,timeout_time,interTrial_timeout,left_rank,right_rank,distance,joint_rank,left_image,right_image
00000014,1,1,1439220175187,1439220187337,413,565,0,0,0,2,3,1,23,0002-00-0001-56.png,0003-00-0001-63.png
00000014,2,0,1439220188761,1439220189198,376,477,0,0,0,3,2,1,32,0003-00-0000-65.png,0002-00-0000-40.png
00000014,3,0,1439220192040,1439220192441,282,380,0,0,0,5,4,1,54,0005-00-0001-50.png,0004-00-0000-30.png
00000014,4,1,1439220195524,1439220196065,393,429,0,0,0,1,2,1,12,0001-00-0000-52.png,0002-00-0001-48.png
00000014,5,1,1439220197286,1439220197779,376,448,0,0,0,4,5,1,45,0004-00-0001-04.png,0005-00-0000-76.png
00000014,6,1,1439220199156,1439220199664,382,491,0,0,0,3,4,1,34,0003-00-0000-58.png,0004-00-0000-77.png
00000014,7,0,1439220200886,1439220201357,391,476,0,0,0,4,3,1,43,0004-00-0001-51.png,0003-00-0001-64.png
00000014,8,0,1439220205012,1439220205515,330,369,0,0,0,2,1,1,21,0002-00-0000-85.png,0001-00-0000-69.png
00000014,9,0,1439220208768,1439220209320,354,394,0,0,0,4,3,1,43,0004-00-0000-56.png,0003-00-0000-65.png
00000014,10,1,1439220212404,1439220212998,354,492,0,0,0,1,2,1,12,0001-00-0000-99.png,0002-00-0001-97.png
00000014,11,1,1439220214313,1439220214761,360,394,0,0,0,3,4,1,34,0003-00-0000-05.png,0004-00-0001-51.png
00000014,12,0,1439220216008,1439220216498,376,393,0,0,0,2,1,1,21,0002-00-0001-18.png,0001-00-0001-52.png
00000014,13,0,1439220219611,1439220220125,307,343,0,0,0,5,4,1,54,0005-00-0000-98.png,0004-00-0000-57.png
00000014,14,1,1439220223376,1439220223906,354,402,0,0,0,4,5,1,45,0004-00-0000-33.png,0005-00-0000-20.png
00000014,15,0,1439220225235,1439220225726,343,390,0,0,0,3,2,1,32,0003-00-0001-25.png,0002-00-0001-47.png
00000014,16,0,1439220228882,1439220229761,949,343,0,0,0,2,3,1,23,0002-00-0001-45.png,0003-00-0001-71.png
00000014,17,1,1439220232894,1439220233463,322,383,0,0,0,3,4,1,34,0003-00-0001-15.png,0004-00-0001-45.png
00000014,18,1,1439220234766,1439220235321,375,406,0,0,0,2,3,1,23,0002-00-0000-54.png,0003-00-0001-15.png
00000014,19,1,1439220236674,1439220237256,396,511,0,0,0,1,2,1,12,0001-00-0001-72.png,0002-00-0000-23.png
00000014,20,1,1439220238961,1439220239655,929,394,0,0,0,3,2,1,32,0003-00-0001-89.png,0002-00-0001-62.png
00000014,21,1,1439220240790,1439220241463,905,491,0,0,0,4,3,1,43,0004-00-0000-53.png,0003-00-0000-57.png
00000014,22,0,1439220242817,1439220243360,350,367,0,0,0,2,1,1,21,0002-00-0000-52.png,0001-00-0001-75.png
00000014,23,0,1439220246356,1439220246818,332,384,0,0,0,5,4,1,54,0005-00-0001-02.png,0004-00-0001-58.png
00000014,24,1,1439220249784,1439220250287,298,362,0,0,0,4,5,1,45,0004-00-0000-63.png,0005-00-0000-57.png
00000014,25,0,1439220251325,1439220251884,350,478,0,0,0,5,4,1,54,0005-00-0000-73.png,0004-00-0001-24.png
00000014,26,1,1439220254839,1439220254859,511,470,0,0,0,2,3,1,23,0002-00-0000-00.png,0003-00-0001-73.png
00000014,27,1,1439220255836,1439220256351,331,369,0,0,0,4,5,1,45,0004-00-0000-81.png,0005-00-0000-31.png
00000014,28,0,1439220257387,1439220258114,336,345,0,0,0,3,2,1,32,0003-00-0000-59.png,0002-00-0001-53.png
00000014,29,1,1439220260993,1439220261588,358,339,0,0,0,1,2,1,12,0001-00-0001-53.png,0002-00-0001-51.png
00000014,30,1,1439220262597,1439220263369,951,332,0,0,0,2,1,1,21,0002-00-0001-94.png,0001-00-0001-65.png
00000014,31,1,1439220264384,1439220265045,329,355,0,0,0,3,4,1,34,0003-00-0000-96.png,0004-00-0001-55.png
00000014,32,0,1439220266052,1439220266607,350,397,0,0,0,4,3,1,43,0004-00-0000-21.png,0003-00-0000-14.png
00000014,33,1,1439220269660,1439220270209,366,416,0,0,0,4,5,1,45,0004-00-0001-08.png,0005-00-0001-87.png
00000014,34,0,1439220271200,1439220271928,301,385,0,0,0,5,4,1,54,0005-00-0001-41.png,0004-00-0000-11.png
00000014,35,0,1439220275018,1439220275499,353,377,0,0,0,4,3,1,43,0004-00-0000-67.png,0003-00-0000-59.png
00000014,36,1,1439220278544,1439220278560,516,438,0,0,0,1,2,1,12,0001-00-0001-42.png,0002-00-0001-07.png
00000014,37,0,1439220279637,1439220280190,328,368,0,0,0,2,1,1,21,0002-00-0001-12.png,0001-00-0000-37.png
00000014,38,0,1439220283176,1439220283708,382,455,0,0,0,3,2,1,32,0003-00-0000-65.png,0002-00-0001-67.png
00000014,39,1,1439220287020,1439220287550,306,389,0,0,0,2,3,1,23,0002-00-0000-94.png,0003-00-0001-65.png
00000014,40,0,1439220288671,1439220289386,900,365,0,0,0,3,4,1,34,0003-00-0000-70.png,0004-00-0000-37.png
00000014,41,0,1439220292615,1439220293741,908,428,0,0,0,4,5,1,45,0004-00-0000-98.png,0005-00-0001-90.png
00000014,42,0,1439220296772,1439220297394,304,370,0,0,0,2,1,1,21,0002-00-0000-68.png,0001-00-0001-90.png
00000014,43,1,1439220300277,1439220300996,325,333,0,0,0,1,2,1,12,0001-00-0001-55.png,0002-00-0000-98.png
00000014,44,0,1439220302040,1439220302921,376,358,0,0,0,5,4,1,54,0005-00-0001-61.png,0004-00-0001-95.png
00000014,45,1,1439220305770,1439220306580,324,344,0,0,0,2,3,1,23,0002-00-0001-31.png,0003-00-0001-98.png
00000014,46,1,1439220308072,1439220308620,338,384,0,0,0,3,4,1,34,0003-00-0000-56.png,0004-00-0001-12.png
00000014,47,0,1439220309683,1439220310206,329,397,0,0,0,3,2,1,32,0003-00-0000-85.png,0002-00-0000-79.png
00000014,48,0,1439220314532,1439220315072,299,377,0,0,0,4,3,1,43,0004-00-0000-89.png,0003-00-0001-27.png
00000014,49,1,1439220318466,1439220319453,957,341,0,0,0,2,1,1,21,0002-00-0001-28.png,0001-00-0000-71.png
00000014,50,1,1439220320545,1439220321189,921,446,0,0,0,3,2,1,32,0003-00-0001-45.png,0002-00-0001-86.png
00000014,51,1,1439220322233,1439220323004,285,374,0,0,0,3,4,1,34,0003-00-0000-31.png,0004-00-0001-87.png
00000014,52,0,1439220324064,1439220324613,937,372,0,0,0,1,2,1,12,0001-00-0000-96.png,0002-00-0001-74.png
00000014,53,1,1439220327651,1439220328580,354,463,0,0,0,4,5,1,45,0004-00-0000-30.png,0005-00-0001-19.png
00000014,54,0,1439220329597,1439220330194,958,349,0,0,0,2,3,1,23,0002-00-0001-44.png,0003-00-0001-67.png
00000014,55,1,1439220333184,1439220333836,949,446,0,0,0,5,4,1,54,0005-00-0000-52.png,0004-00-0000-43.png
00000014,56,1,1439220334853,1439220335472,951,359,0,0,0,4,3,1,43,0004-00-0001-62.png,0003-00-0001-02.png
00000014,57,1,1439220336467,1439220337097,955,387,0,0,0,2,1,1,21,0002-00-0000-86.png,0001-00-0000-08.png
00000014,58,1,1439220338046,1439220338575,946,368,0,0,0,5,4,1,54,0005-00-0001-19.png,0004-00-0000-19.png
00000014,59,0,1439220339586,1439220340203,957,349,0,0,0,2,3,1,23,0002-00-0001-04.png,0003-00-0001-66.png
00000014,60,0,1439220343154,1439220343925,967,330,0,0,0,1,2,1,12,0001-00-0001-72.png,0002-00-0001-18.png
00000014,61,1,1439220346778,1439220347443,895,287,0,0,0,4,3,1,43,0004-00-0001-87.png,0003-00-0001-68.png
00000014,62,1,1439220348462,1439220349115,248,425,0,0,0,4,5,1,45,0004-00-0000-50.png,0005-00-0000-51.png
00000014,63,1,1439220350111,1439220350646,298,370,0,0,0,3,4,1,34,0003-00-0000-10.png,0004-00-0001-79.png
00000014,64,1,1439220351600,1439220352158,899,423,0,0,0,3,2,1,32,0003-00-0000-86.png,0002-00-0001-31.png
00000014,65,0,1439220353197,1439220353707,323,361,0,0,0,5,4,1,54,0005-00-0001-48.png,0004-00-0000-42.png
00000014,66,0,1439220356809,1439220357523,361,348,0,0,0,2,1,1,21,0002-00-0000-04.png,0001-00-0001-46.png
00000014,67,1,1439220361472,1439220362169,273,323,0,0,0,3,4,1,34,0003-00-0000-01.png,0004-00-0001-73.png
00000014,68,0,1439220363199,1439220363801,325,356,0,0,0,3,2,1,32,0003-00-0000-26.png,0002-00-0000-65.png
00000014,69,1,1439220366755,1439220367292,355,356,0,0,0,2,3,1,23,0002-00-0000-16.png,0003-00-0000-99.png
00000014,70,1,1439220368278,1439220368908,329,375,0,0,0,4,5,1,45,0004-00-0001-13.png,0005-00-0000-37.png
00000014,71,0,1439220369907,1439220370600,919,317,0,0,0,1,2,1,12,0001-00-0001-04.png,0002-00-0000-57.png
00000014,72,0,1439220373453,1439220374020,356,349,0,0,0,4,3,1,43,0004-00-0000-35.png,0003-00-0001-19.png
00000014,73,1,1439220377401,1439220378153,977,344,0,0,0,2,1,1,21,0002-00-0001-69.png,0001-00-0001-53.png
00000014,74,0,1439220379169,1439220379867,339,371,0,0,0,3,2,1,32,0003-00-0000-03.png,0002-00-0001-78.png
00000014,75,1,1439220386882,1439220387635,330,351,0,0,0,2,3,1,23,0002-00-0000-82.png,0003-00-0000-80.png
00000014,76,1,1439220388623,1439220389253,939,428,0,0,0,4,3,1,43,0004-00-0000-89.png,0003-00-0000-27.png
00000014,77,0,1439220390232,1439220390886,951,360,0,0,0,3,4,1,34,0003-00-0000-81.png,0004-00-0000-91.png
00000014,78,0,1439220394239,1439220394908,297,311,0,0,0,5,4,1,54,0005-00-0000-44.png,0004-00-0001-44.png
00000014,79,1,1439220398290,1439220398791,376,450,0,0,0,4,5,1,45,0004-00-0001-96.png,0005-00-0001-91.png
00000014,80,1,1439220399731,1439220400437,348,365,0,0,0,1,2,1,12,0001-00-0000-91.png,0002-00-0001-65.png
00000014,81,0,1439220401410,1439220402006,324,387,0,0,0,5,4,1,54,0005-00-0000-13.png,0004-00-0001-06.png
00000014,82,1,1439220405060,1439220405893,940,280,0,0,0,2,1,1,21,0002-00-0000-12.png,0001-00-0001-56.png
00000014,83,0,1439220406848,1439220407431,951,366,0,0,0,3,4,1,34,0003-00-0001-70.png,0004-00-0001-54.png
00000014,84,1,1439220410727,1439220411238,326,374,0,0,0,1,2,1,12,0001-00-0001-85.png,0002-00-0000-19.png
00000014,85,0,1439220412165,1439220412769,928,370,0,0,0,4,5,1,45,0004-00-0001-51.png,0005-00-0001-28.png
00000014,86,1,1439220415754,1439220416339,936,412,0,0,0,4,3,1,43,0004-00-0000-83.png,0003-00-0001-28.png
00000014,87,1,1439220417335,1439220418025,366,361,0,0,0,2,3,1,23,0002-00-0001-83.png,0003-00-0000-70.png
00000014,88,1,1439220418963,1439220419570,936,343,0,0,0,3,2,1,32,0003-00-0001-21.png,0002-00-0000-03.png
00000014,89,0,1439220420513,1439220421185,316,367,0,0,0,4,3,1,43,0004-00-0001-51.png,0003-00-0001-82.png
00000014,90,1,1439220424268,1439220424913,328,378,0,0,0,2,3,1,23,0002-00-0001-31.png,0003-00-0000-89.png
00000014,91,0,1439220425911,1439220426574,941,344,0,0,0,3,4,1,34,0003-00-0000-29.png,0004-00-0001-60.png
00000014,92,1,1439220429486,1439220430205,979,317,0,0,0,5,4,1,54,0005-00-0000-39.png,0004-00-0001-05.png
00000014,93,1,1439220431179,1439220431819,274,384,0,0,0,1,2,1,12,0001-00-0001-73.png,0002-00-0001-13.png
00000014,94,1,1439220432826,1439220433602,389,476,0,0,0,4,5,1,45,0004-00-0000-88.png,0005-00-0001-27.png
00000014,95,0,1439220434554,1439220435100,350,358,0,0,0,2,1,1,21,0002-00-0000-35.png,0001-00-0000-90.png
00000014,96,1,1439220438382,1439220439072,976,357,0,0,0,3,2,1,32,0003-00-0000-81.png,0002-00-0000-80.png
00000014,97,1,1439220440060,1439220440635,317,367,0,0,0,3,4,1,34,0003-00-0001-07.png,0004-00-0001-11.png
00000014,98,1,1439220441602,1439220441626,504,450,0,0,0,1,2,1,12,0001-00-0001-93.png,0002-00-0001-56.png
00000014,99,0,1439220442763,1439220443352,273,370,0,0,0,5,4,1,54,0005-00-0000-48.png,0004-00-0000-95.png
00000014,100,1,1439220446200,1439220446807,946,315,0,0,0,3,2,1,32,0003-00-0001-24.png,0002-00-0000-79.png
00000014,101,0,1439220447793,1439220448466,316,380,0,0,0,2,1,1,21,0002-00-0001-14.png,0001-00-0001-30.png
00000014,102,0,1439220451409,1439220452307,939,414,0,0,0,4,5,1,45,0004-00-0000-08.png,0005-00-0001-91.png
00000014,103,0,1439220455526,1439220456109,358,358,0,0,0,4,3,1,43,0004-00-0000-55.png,0003-00-0000-04.png
00000014,104,1,1439220458962,1439220459449,328,351,0,0,0,2,3,1,23,0002-00-0000-15.png,0003-00-0001-46.png
00000014,105,0,1439220460454,1439220461199,389,450,0,0,0,5,4,1,54,0005-00-0000-48.png,0004-00-0001-91.png
00000014,106,0,1439220464091,1439220464718,333,382,0,0,0,2,1,1,21,0002-00-0001-89.png,0001-00-0000-25.png
00000014,107,0,1439220467608,1439220467620,519,345,0,0,0,3,2,1,32,0003-00-0000-65.png,0002-00-0000-25.png
00000014,108,1,1439220470590,1439220471219,286,355,0,0,0,3,4,1,34,0003-00-0000-68.png,0004-00-0000-05.png
00000014,109,1,1439220472230,1439220472834,954,443,0,0,0,4,3,1,43,0004-00-0001-58.png,0003-00-0000-61.png
00000014,110,1,1439220473890,1439220474503,325,331,0,0,0,2,3,1,23,0002-00-0001-65.png,0003-00-0001-82.png
00000014,111,1,1439220475560,1439220476223,386,430,0,0,0,4,5,1,45,0004-00-0001-96.png,0005-00-0001-43.png
00000014,112,1,1439220477329,1439220478070,347,358,0,0,0,1,2,1,12,0001-00-0000-73.png,0002-00-0001-36.png
00000014,113,1,1439220479044,1439220479657,917,407,0,0,0,3,2,1,32,0003-00-0000-68.png,0002-00-0001-19.png
00000014,114,1,1439220480515,1439220481281,372,393,0,0,0,4,5,1,45,0004-00-0001-27.png,0005-00-0001-41.png
00000014,115,1,1439220485396,1439220486150,376,410,0,0,0,1,2,1,12,0001-00-0001-47.png,0002-00-0000-69.png
00000014,116,1,1439220487037,1439220487061,504,436,0,0,0,3,4,1,34,0003-00-0001-25.png,0004-00-0000-23.png
00000014,117,1,1439220488130,1439220488821,878,313,0,0,0,4,3,1,43,0004-00-0000-10.png,0003-00-0001-09.png
00000014,118,0,1439220489751,1439220490472,377,359,0,0,0,5,4,1,54,0005-00-0001-45.png,0004-00-0000-10.png
00000014,119,1,1439220493478,1439220493510,509,395,0,0,0,2,3,1,23,0002-00-0000-90.png,0003-00-0001-81.png
00000014,120,1,1439220494530,1439220495075,938,345,0,0,0,2,1,1,21,0002-00-0001-56.png,0001-00-0001-92.png
00000014,121,0,1439220496022,1439220496653,381,478,0,0,0,4,3,1,43,0004-00-0001-21.png,0003-00-0000-63.png
00000014,122,1,1439220499677,1439220500258,212,436,0,0,0,3,4,1,34,0003-00-0001-84.png,0004-00-0001-76.png
00000014,123,1,1439220501128,1439220501782,374,460,0,0,0,2,3,1,23,0002-00-0001-81.png,0003-00-0000-00.png
00000014,124,0,1439220502749,1439220503349,931,349,0,0,0,4,5,1,45,0004-00-0001-77.png,0005-00-0001-21.png
00000014,125,1,1439220506217,1439220506791,943,381,0,0,0,3,2,1,32,0003-00-0000-81.png,0002-00-0001-33.png
00000014,126,0,1439220507707,1439220508360,368,457,0,0,0,5,4,1,54,0005-00-0001-97.png,0004-00-0001-21.png
00000014,127,0,1439220512229,1439220512760,349,378,0,0,0,2,1,1,21,0002-00-0001-27.png,0001-00-0000-68.png
00000014,128,1,1439220515598,1439220516157,300,372,0,0,0,1,2,1,12,0001-00-0000-78.png,0002-00-0001-77.png
00000014,129,0,1439220517099,1439220517749,291,389,0,0,0,5,4,1,54,0005-00-0001-40.png,0004-00-0001-84.png
00000014,130,1,1439220520696,1439220520712,488,437,0,0,0,2,3,1,23,0002-00-0000-13.png,0003-00-0001-09.png
00000014,131,1,1439220521709,1439220522472,335,318,0,0,0,3,4,1,34,0003-00-0000-05.png,0004-00-0000-64.png
00000014,132,1,1439220523490,1439220524183,388,464,0,0,0,4,5,1,45,0004-00-0000-38.png,0005-00-0001-32.png
00000014,133,1,1439220525207,1439220525799,879,323,0,0,0,4,3,1,43,0004-00-0000-61.png,0003-00-0001-88.png
00000014,134,1,1439220526806,1439220527519,197,436,0,0,0,1,2,1,12,0001-00-0000-42.png,0002-00-0000-94.png
00000014,135,0,1439220528566,1439220529201,325,345,0,0,0,3,2,1,32,0003-00-0001-26.png,0002-00-0001-55.png
00000014,136,1,1439220532105,1439220532674,899,483,0,0,0,2,1,1,21,0002-00-0001-94.png,0001-00-0000-51.png
00000014,137,0,1439220533645,1439220534237,921,341,0,0,0,1,2,1,12,0001-00-0000-92.png,0002-00-0000-70.png
00000014,138,0,1439220537649,1439220538312,309,373,0,0,0,4,3,1,43,0004-00-0001-27.png,0003-00-0000-87.png
00000014,139,1,1439220541479,1439220542154,967,366,0,0,0,5,4,1,54,0005-00-0001-24.png,0004-00-0001-51.png
00000014,140,1,1439220543046,1439220543062,491,384,0,0,0,4,5,1,45,0004-00-0000-19.png,0005-00-0000-73.png
00000014,141,1,1439220544059,1439220544592,324,377,0,0,0,2,3,1,23,0002-00-0000-38.png,0003-00-0000-86.png
00000014,142,0,1439220545540,1439220546153,299,371,0,0,0,3,2,1,32,0003-00-0000-10.png,0002-00-0001-11.png
00000014,143,1,1439220549118,1439220549736,323,414,0,0,0,3,4,1,34,0003-00-0001-36.png,0004-00-0001-61.png
00000014,144,1,1439220550658,1439220551780,971,387,0,0,0,2,1,1,21,0002-00-0000-90.png,0001-00-0000-14.png
00000014,145,1,1439220552722,1439220553378,385,456,0,0,0,2,3,1,23,0002-00-0001-62.png,0003-00-0001-18.png
00000014,146,1,1439220554364,1439220554946,318,381,0,0,0,1,2,1,12,0001-00-0001-29.png,0002-00-0000-35.png
00000014,147,0,1439220555962,1439220556588,346,404,0,0,0,3,2,1,32,0003-00-0001-27.png,0002-00-0001-99.png
00000014,148,1,1439220559661,1439220560345,928,354,0,0,0,5,4,1,54,0005-00-0001-04.png,0004-00-0000-25.png
00000014,149,1,1439220561311,1439220561942,290,402,0,0,0,3,4,1,34,0003-00-0001-60.png,0004-00-0001-72.png
00000014,150,1,1439220562993,1439220563734,316,386,0,0,0,4,5,1,45,0004-00-0000-18.png,0005-00-0000-42.png
00000014,151,1,1439220564800,1439220565324,913,430,0,0,0,2,1,1,21,0002-00-0001-26.png,0001-00-0000-78.png
00000014,152,1,1439220566370,1439220566920,898,463,0,0,0,4,3,1,43,0004-00-0000-98.png,0003-00-0000-68.png
00000014,153,1,1439220567909,1439220568701,353,337,0,0,0,3,4,1,34,0003-00-0001-22.png,0004-00-0001-37.png
00000014,154,1,1439220569657,1439220570345,297,370,0,0,0,1,2,1,12,0001-00-0001-78.png,0002-00-0001-99.png
00000014,155,1,1439220571389,1439220571963,360,397,0,0,0,2,3,1,23,0002-00-0000-04.png,0003-00-0001-91.png
00000014,156,1,1439220572965,1439220573697,939,338,0,0,0,3,2,1,32,0003-00-0000-55.png,0002-00-0000-82.png
00000014,157,1,1439220574668,1439220575286,945,367,0,0,0,5,4,1,54,0005-00-0000-79.png,0004-00-0001-49.png
00000014,158,0,1439220576226,1439220577003,418,458,0,0,0,4,3,1,43,0004-00-0001-56.png,0003-00-0000-41.png
00000014,159,1,1439220580022,1439220580826,299,385,0,0,0,4,5,1,45,0004-00-0000-86.png,0005-00-0001-30.png
00000014,160,0,1439220581852,1439220582570,367,475,0,0,0,2,1,1,21,0002-00-0001-56.png,0001-00-0001-69.png
00000014,161,0,1439220585779,1439220586743,336,500,0,0,0,4,3,1,43,0004-00-0000-26.png,0003-00-0001-41.png
00000014,162,1,1439220592337,1439220593369,867,470,0,0,0,3,2,1,32,0003-00-0001-41.png,0002-00-0001-20.png
00000014,163,1,1439220594311,1439220594897,939,358,0,0,0,2,1,1,21,0002-00-0000-05.png,0001-00-0000-91.png
00000014,164,1,1439220595895,1439220596557,956,335,0,0,0,5,4,1,54,0005-00-0001-23.png,0004-00-0000-07.png
00000014,165,0,1439220597525,1439220598138,920,342,0,0,0,1,2,1,12,0001-00-0001-47.png,0002-00-0000-07.png
00000014,166,1,1439220601324,1439220601993,331,370,0,0,0,4,5,1,45,0004-00-0000-85.png,0005-00-0001-72.png
00000014,167,0,1439220602920,1439220603602,891,441,0,0,0,3,4,1,34,0003-00-0001-03.png,0004-00-0001-52.png
00000014,168,1,1439220606846,1439220607449,340,399,0,0,0,2,3,1,23,0002-00-0000-79.png,0003-00-0000-55.png
00000014,169,0,1439220608466,1439220609058,313,387,0,0,0,2,1,1,21,0002-00-0000-89.png,0001-00-0000-96.png
00000014,170,1,1439220611951,1439220612626,953,440,0,0,0,3,2,1,32,0003-00-0000-53.png,0002-00-0001-88.png
00000014,171,0,1439220613643,1439220614271,299,371,0,0,0,4,3,1,43,0004-00-0001-28.png,0003-00-0001-92.png
00000014,172,0,1439220617220,1439220617752,887,467,0,0,0,3,4,1,34,0003-00-0000-60.png,0004-00-0000-18.png
00000014,173,1,1439220622618,1439220623753,325,423,0,0,0,4,5,1,45,0004-00-0001-40.png,0005-00-0000-94.png
00000014,174,1,1439220624814,1439220625468,922,464,0,0,0,5,4,1,54,0005-00-0000-78.png,0004-00-0001-47.png
00000014,175,1,1439220626411,1439220627074,387,469,0,0,0,1,2,1,12,0001-00-0000-33.png,0002-00-0001-13.png
00000014,176,1,1439220628052,1439220628594,339,409,0,0,0,2,3,1,23,0002-00-0000-24.png,0003-00-0001-65.png
00000014,177,1,1439220629594,1439220630280,374,397,0,0,0,4,5,1,45,0004-00-0001-66.png,0005-00-0001-64.png
00000014,178,1,1439220631302,1439220631964,948,367,0,0,0,4,3,1,43,0004-00-0001-15.png,0003-00-0001-55.png
00000014,179,1,1439220632929,1439220633541,934,422,0,0,0,5,4,1,54,0005-00-0001-71.png,0004-00-0001-20.png
00000014,180,0,1439220634531,1439220635345,365,468,0,0,0,2,1,1,21,0002-00-0001-02.png,0001-00-0001-80.png
00000014,181,1,1439220638300,1439220638316,510,438,0,0,0,1,2,1,12,0001-00-0001-44.png,0002-00-0000-11.png
00000014,182,1,1439220639358,1439220639883,323,368,0,0,0,3,4,1,34,0003-00-0000-09.png,0004-00-0000-68.png
00000014,183,0,1439220640841,1439220641508,326,383,0,0,0,3,2,1,32,0003-00-0001-00.png,0002-00-0000-90.png
00000014,184,1,1439220644389,1439220644397,495,393,0,0,0,2,3,1,23,0002-00-0001-98.png,0003-00-0000-23.png
00000014,185,1,1439220645402,1439220645932,366,442,0,0,0,2,3,1,23,0002-00-0000-54.png,0003-00-0000-18.png
00000014,186,1,1439220646914,1439220647711,965,377,0,0,0,3,2,1,32,0003-00-0000-14.png,0002-00-0000-08.png
00000014,187,0,1439220648691,1439220649284,354,402,0,0,0,2,1,1,21,0002-00-0001-45.png,0001-00-0001-95.png
00000014,188,1,1439220652339,1439220653184,964,358,0,0,0,4,3,1,43,0004-00-0001-75.png,0003-00-0000-08.png
00000014,189,1,1439220654148,1439220654861,325,378,0,0,0,4,5,1,45,0004-00-0000-47.png,0005-00-0001-88.png
00000014,190,1,1439220655898,1439220657119,950,484,0,0,0,5,4,1,54,0005-00-0001-20.png,0004-00-0000-93.png
00000014,191,0,1439220658033,1439220658606,923,460,0,0,0,3,4,1,34,0003-00-0001-56.png,0004-00-0001-33.png
00000014,192,0,1439220661652,1439220662238,963,392,0,0,0,1,2,1,12,0001-00-0001-89.png,0002-00-0001-26.png
00000014,193,0,1439220665519,1439220666092,882,296,0,0,0,2,3,1,23,0002-00-0001-52.png,0003-00-0001-17.png
00000014,194,1,1439220669015,1439220669520,340,376,0,0,0,4,5,1,45,0004-00-0001-55.png,0005-00-0000-92.png
00000014,195,1,1439220670485,1439220671029,953,372,0,0,0,4,3,1,43,0004-00-0001-89.png,0003-00-0001-55.png
00000014,196,1,1439220672038,1439220672667,920,393,0,0,0,5,4,1,54,0005-00-0000-72.png,0004-00-0000-80.png
00000014,197,1,1439220673706,1439220674300,346,376,0,0,0,3,4,1,34,0003-00-0000-77.png,0004-00-0001-98.png
00000014,198,0,1439220675347,1439220675972,303,347,0,0,0,2,1,1,21,0002-00-0000-03.png,0001-00-0001-65.png
00000014,199,0,1439220678901,1439220679451,923,403,0,0,0,1,2,1,12,0001-00-0001-28.png,0002-00-0001-07.png
00000014,200,1,1439220682597,1439220683315,903,440,0,0,0,3,2,1,32,0003-00-0000-39.png,0002-00-0000-44.png
00000014,201,0,1439220684346,1439220685476,927,362,0,0,0,4,5,1,45,0004-00-0001-95.png,0005-00-0001-87.png
00000014,202,1,1439220688394,1439220689356,952,330,0,0,0,5,4,1,54,0005-00-0001-71.png,0004-00-0001-83.png
00000014,203,1,1439220690344,1439220691008,350,345,0,0,0,2,3,1,23,0002-00-0000-37.png,0003-00-0001-67.png
00000014,204,0,1439220692013,1439220692683,306,374,0,0,0,2,1,1,21,0002-00-0001-81.png,0001-00-0001-07.png
00000014,205,1,1439220695527,1439220696141,378,367,0,0,0,3,4,1,34,0003-00-0001-94.png,0004-00-0001-47.png
00000014,206,0,1439220697087,1439220697718,350,423,0,0,0,4,3,1,43,0004-00-0000-35.png,0003-00-0000-21.png
00000014,207,0,1439220700738,1439220700746,494,367,0,0,0,3,2,1,32,0003-00-0001-38.png,0002-00-0001-41.png
00000014,208,1,1439220703790,1439220704351,376,384,0,0,0,1,2,1,12,0001-00-0001-62.png,0002-00-0000-68.png
00000014,209,1,1439220705385,1439220705960,312,383,0,0,0,1,2,1,12,0001-00-0000-16.png,0002-00-0001-13.png
00000014,210,1,1439220707040,1439220707570,316,391,0,0,0,4,5,1,45,0004-00-0001-88.png,0005-00-0001-29.png
00000014,211,0,1439220708610,1439220709137,928,369,0,0,0,3,4,1,34,0003-00-0001-98.png,0004-00-0001-54.png
00000014,212,1,1439220712074,1439220712731,893,457,0,0,0,5,4,1,54,0005-00-0000-90.png,0004-00-0001-81.png
00000014,213,0,1439220713787,1439220714397,288,358,0,0,0,3,2,1,32,0003-00-0000-24.png,0002-00-0000-90.png
00000014,214,1,1439220717372,1439220718373,913,417,0,0,0,4,3,1,43,0004-00-0001-37.png,0003-00-0001-89.png
00000014,215,1,1439220719342,1439220719869,299,385,0,0,0,2,3,1,23,0002-00-0001-02.png,0003-00-0001-93.png
00000014,216,1,1439220720872,1439220721725,922,443,0,0,0,2,1,1,21,0002-00-0000-15.png,0001-00-0001-47.png
00000014,217,1,1439220722641,1439220723360,316,366,0,0,0,2,3,1,23,0002-00-0001-51.png,0003-00-0000-66.png
00000014,218,0,1439220724446,1439220725092,954,339,0,0,0,4,5,1,45,0004-00-0000-03.png,0005-00-0001-14.png
00000014,219,1,1439220727977,1439220728887,888,291,0,0,0,4,3,1,43,0004-00-0000-83.png,0003-00-0000-63.png
00000014,220,1,1439220729866,1439220730431,947,352,0,0,0,3,2,1,32,0003-00-0000-15.png,0002-00-0001-62.png
00000014,221,1,1439220731436,1439220732089,361,376,0,0,0,1,2,1,12,0001-00-0001-08.png,0002-00-0000-36.png
00000014,222,0,1439220733214,1439220733799,918,357,0,0,0,3,4,1,34,0003-00-0000-64.png,0004-00-0001-22.png
00000014,223,1,1439220736991,1439220737563,927,398,0,0,0,5,4,1,54,0005-00-0000-69.png,0004-00-0000-27.png
00000014,224,0,1439220738520,1439220739184,349,385,0,0,0,2,1,1,21,0002-00-0001-72.png,0001-00-0001-32.png
00000014,225,1,1439220742187,1439220743087,298,336,0,0,0,4,5,1,45,0004-00-0000-75.png,0005-00-0000-60.png
00000014,226,1,1439220744036,1439220744620,930,377,0,0,0,3,2,1,32,0003-00-0000-66.png,0002-00-0000-55.png
00000014,227,1,1439220745607,1439220746246,941,371,0,0,0,5,4,1,54,0005-00-0000-16.png,0004-00-0001-94.png
00000014,228,0,1439220747232,1439220747790,950,385,0,0,0,3,4,1,34,0003-00-0001-97.png,0004-00-0001-94.png
00000014,229,0,1439220750702,1439220751344,924,433,0,0,0,2,3,1,23,0002-00-0001-05.png,0003-00-0001-26.png
00000014,230,0,1439220754341,1439220754888,317,371,0,0,0,4,3,1,43,0004-00-0001-47.png,0003-00-0000-59.png
00000014,231,1,1439220757968,1439220758547,350,384,0,0,0,1,2,1,12,0001-00-0000-14.png,0002-00-0001-38.png
00000014,232,1,1439220759582,1439220760377,938,409,0,0,0,2,1,1,21,0002-00-0000-48.png,0001-00-0000-98.png
00000014,233,1,1439220761379,1439220762167,312,355,0,0,0,4,5,1,45,0004-00-0000-76.png,0005-00-0000-98.png
00000014,234,1,1439220763197,1439220763786,314,389,0,0,0,1,2,1,12,0001-00-0001-39.png,0002-00-0001-47.png
00000014,235,1,1439220764876,1439220765434,896,379,0,0,0,5,4,1,54,0005-00-0001-32.png,0004-00-0000-23.png
00000014,236,1,1439220766426,1439220766980,292,408,0,0,0,2,3,1,23,0002-00-0001-64.png,0003-00-0001-92.png
00000014,237,0,1439220767985,1439220768685,898,433,0,0,0,3,4,1,34,0003-00-0000-77.png,0004-00-0001-76.png
00000014,238,0,1439220771540,1439220771572,499,373,0,0,0,2,1,1,21,0002-00-0000-78.png,0001-00-0001-33.png
00000014,239,0,1439220774604,1439220774624,515,399,0,0,0,4,3,1,43,0004-00-0000-14.png,0003-00-0000-02.png
00000014,240,0,1439220777644,1439220777652,520,395,0,0,0,3,2,1,32,0003-00-0001-13.png,0002-00-0001-91.png
00000014,241,0,1439220780576,1439220780593,508,363,0,0,0,5,4,1,54,0005-00-0000-35.png,0004-00-0000-46.png
00000014,242,1,1439220784801,1439220784869,522,507,0,0,0,2,3,1,23,0002-00-0001-25.png,0003-00-0000-44.png
00000014,243,1,1439220785954,1439220786527,920,343,0,0,0,3,2,1,32,0003-00-0001-92.png,0002-00-0001-29.png
00000014,244,1,1439220787633,1439220788226,888,344,0,0,0,2,1,1,21,0002-00-0000-58.png,0001-00-0000-93.png
00000014,245,1,1439220789393,1439220790167,350,367,0,0,0,3,4,1,34,0003-00-0001-52.png,0004-00-0001-37.png
00000014,246,0,1439220791357,1439220792071,344,480,0,0,0,4,3,1,43,0004-00-0000-04.png,0003-00-0001-34.png
00000014,247,0,1439220795075,1439220795831,941,341,0,0,0,4,5,1,45,0004-00-0000-43.png,0005-00-0001-07.png
00000014,248,1,1439220798713,1439220799422,358,354,0,0,0,1,2,1,12,0001-00-0000-08.png,0002-00-0000-15.png
00000014,249,0,1439220800395,1439220801027,936,347,0,0,0,1,2,1,12,0001-00-0001-78.png,0002-00-0001-34.png
00000014,250,1,1439220804088,1439220805066,299,350,0,0,0,4,5,1,45,0004-00-0000-20.png,0005-00-0000-01.png
00000014,251,0,1439220806078,1439220806734,288,390,0,0,0,2,1,1,21,0002-00-0000-30.png,0001-00-0000-32.png
00000014,252,0,1439220809626,1439220809634,498,390,0,0,0,3,2,1,32,0003-00-0001-29.png,0002-00-0001-42.png
00000014,253,0,1439220812708,1439220812784,509,543,0,0,0,4,3,1,43,0004-00-0001-37.png,0003-00-0001-57.png
00000014,254,1,1439220815815,1439220816473,926,430,0,0,0,5,4,1,54,0005-00-0000-20.png,0004-00-0000-70.png
00000014,255,1,1439220817498,1439220818168,326,376,0,0,0,2,3,1,23,0002-00-0001-75.png,0003-00-0000-90.png
00000014,256,0,1439220819156,1439220819711,930,428,0,0,0,3,4,1,34,0003-00-0000-04.png,0004-00-0001-61.png
00000014,257,0,1439220822633,1439220823150,353,450,0,0,0,3,2,1,32,0003-00-0000-39.png,0002-00-0000-36.png
00000014,258,1,1439220826080,1439220826747,272,339,0,0,0,3,4,1,34,0003-00-0001-64.png,0004-00-0001-02.png
00000014,259,0,1439220827734,1439220827755,492,444,0,0,0,4,3,1,43,0004-00-0000-81.png,0003-00-0000-75.png
00000014,260,0,1439220830622,1439220830630,497,420,0,0,0,2,1,1,21,0002-00-0000-90.png,0001-00-0000-63.png
00000014,261,1,1439220834061,1439220834069,504,488,0,0,0,4,5,1,45,0004-00-0000-17.png,0005-00-0001-50.png
00000014,262,1,1439220835147,1439220835800,324,370,0,0,0,2,3,1,23,0002-00-0000-75.png,0003-00-0001-34.png
00000014,263,1,1439220836803,1439220837447,925,357,0,0,0,5,4,1,54,0005-00-0000-96.png,0004-00-0001-81.png
00000014,264,1,1439220838434,1439220839088,311,383,0,0,0,1,2,1,12,0001-00-0000-10.png,0002-00-0000-41.png
00000014,265,1,1439220840143,1439220840910,971,339,0,0,0,4,3,1,43,0004-00-0001-31.png,0003-00-0001-33.png
00000014,266,1,1439220841863,1439220842523,335,370,0,0,0,1,2,1,12,0001-00-0001-99.png,0002-00-0001-30.png
00000014,267,0,1439220843613,1439220844273,932,379,0,0,0,2,3,1,23,0002-00-0000-00.png,0003-00-0000-13.png
00000014,268,1,1439220847278,1439220847286,521,451,0,0,0,4,5,1,45,0004-00-0001-53.png,0005-00-0000-91.png
00000014,269,1,1439220848262,1439220849003,299,396,0,0,0,3,4,1,34,0003-00-0001-50.png,0004-00-0000-92.png
00000014,270,0,1439220850040,1439220850687,298,377,0,0,0,5,4,1,54,0005-00-0000-99.png,0004-00-0001-70.png
00000014,271,0,1439220853647,1439220853675,494,456,0,0,0,3,2,1,32,0003-00-0001-56.png,0002-00-0001-64.png
00000014,272,0,1439220856588,1439220857170,299,358,0,0,0,2,1,1,21,0002-00-0001-38.png,0001-00-0000-21.png
00000014,273,1,1439220860099,1439220860107,464,379,0,0,0,1,2,1,12,0001-00-0000-74.png,0002-00-0001-58.png
00000014,274,0,1439220861202,1439220861719,924,360,0,0,0,4,5,1,45,0004-00-0000-42.png,0005-00-0001-16.png
00000014,275,1,1439220864667,1439220865286,926,356,0,0,0,2,1,1,21,0002-00-0000-67.png,0001-00-0001-61.png
00000014,276,1,1439220866299,1439220867023,902,443,0,0,0,3,2,1,32,0003-00-0000-46.png,0002-00-0000-79.png
00000014,277,0,1439220868118,1439220868634,944,357,0,0,0,3,4,1,34,0003-00-0000-04.png,0004-00-0001-95.png
00000014,278,1,1439220871624,1439220872200,964,371,0,0,0,4,3,1,43,0004-00-0001-50.png,0003-00-0001-81.png
00000014,279,1,1439220873124,1439220873698,903,454,0,0,0,5,4,1,54,0005-00-0001-84.png,0004-00-0001-80.png
00000014,280,0,1439220874707,1439220875247,927,373,0,0,0,2,3,1,23,0002-00-0000-05.png,0003-00-0001-56.png
00000014,281,0,1439220878131,1439220878147,461,392,0,0,0,2,1,1,21,0002-00-0001-09.png,0001-00-0001-99.png
00000014,282,0,1439220880994,1439220881620,329,353,0,0,0,4,3,1,43,0004-00-0001-61.png,0003-00-0001-10.png
00000014,283,0,1439220884595,1439220885138,973,348,0,0,0,2,3,1,23,0002-00-0000-93.png,0003-00-0001-17.png
00000014,284,1,1439220888202,1439220888278,452,498,0,0,0,3,4,1,34,0003-00-0000-32.png,0004-00-0001-04.png
00000014,285,1,1439220889314,1439220889910,290,375,0,0,0,1,2,1,12,0001-00-0001-82.png,0002-00-0000-86.png
00000014,286,1,1439220890914,1439220891729,898,434,0,0,0,3,2,1,32,0003-00-0001-42.png,0002-00-0000-59.png
00000014,287,1,1439220892723,1439220893406,954,373,0,0,0,5,4,1,54,0005-00-0000-12.png,0004-00-0001-09.png
00000014,288,1,1439220894432,1439220895071,316,367,0,0,0,4,5,1,45,0004-00-0001-97.png,0005-00-0000-13.png
00000014,289,1,1439220896189,1439220896710,327,378,0,0,0,2,3,1,23,0002-00-0001-36.png,0003-00-0001-21.png
00000014,290,1,1439220897800,1439220898429,336,397,0,0,0,4,5,1,45,0004-00-0000-77.png,0005-00-0000-15.png
00000014,291,1,1439220899471,1439220899993,885,483,0,0,0,4,3,1,43,0004-00-0001-09.png,0003-00-0001-32.png
00000014,292,1,1439220900980,1439220901587,316,390,0,0,0,1,2,1,12,0001-00-0001-68.png,0002-00-0000-39.png
00000014,293,1,1439220902670,1439220903180,335,386,0,0,0,3,4,1,34,0003-00-0001-36.png,0004-00-0001-78.png
00000014,294,0,1439220904221,1439220904974,350,385,0,0,0,3,2,1,32,0003-00-0001-19.png,0002-00-0000-29.png
00000014,295,0,1439220907947,1439220907995,514,480,0,0,0,5,4,1,54,0005-00-0000-59.png,0004-00-0000-68.png
00000014,296,0,1439220911036,1439220911672,281,392,0,0,0,2,1,1,21,0002-00-0001-74.png,0001-00-0001-44.png
00000014,297,0,1439220914634,1439220914646,523,374,0,0,0,5,4,1,54,0005-00-0001-67.png,0004-00-0000-85.png
00000014,298,1,1439220917964,1439220918571,875,476,0,0,0,4,3,1,43,0004-00-0001-03.png,0003-00-0001-09.png
00000014,299,0,1439220919585,1439220920328,363,358,0,0,0,3,2,1,32,0003-00-0001-47.png,0002-00-0000-83.png
00000014,300,1,1439220923329,1439220923349,516,397,0,0,0,4,5,1,45,0004-00-0001-31.png,0005-00-0001-55.png
00000014,301,0,1439220924354,1439220924930,923,438,0,0,0,3,4,1,34,0003-00-0001-01.png,0004-00-0000-13.png
00000014,302,1,1439220927811,1439220928473,343,348,0,0,0,1,2,1,12,0001-00-0001-52.png,0002-00-0000-34.png
00000014,303,1,1439220929503,1439220930072,357,386,0,0,0,2,3,1,23,0002-00-0001-23.png,0003-00-0001-29.png
00000014,304,1,1439220931053,1439220931807,936,428,0,0,0,2,1,1,21,0002-00-0001-30.png,0001-00-0000-10.png
00000014,305,0,1439220932811,1439220933442,946,371,0,0,0,1,2,1,12,0001-00-0001-84.png,0002-00-0000-99.png
00000014,306,0,1439220936319,1439220936977,952,371,0,0,0,2,3,1,23,0002-00-0000-46.png,0003-00-0000-31.png
00000014,307,1,1439220939834,1439220940461,956,375,0,0,0,4,3,1,43,0004-00-0000-71.png,0003-00-0000-79.png
00000014,308,1,1439220941476,1439220942103,920,366,0,0,0,2,1,1,21,0002-00-0000-66.png,0001-00-0001-57.png
00000014,309,1,1439220943117,1439220943619,386,450,0,0,0,3,4,1,34,0003-00-0000-39.png,0004-00-0000-82.png
00000014,310,1,1439220944639,1439220945282,937,413,0,0,0,5,4,1,54,0005-00-0000-72.png,0004-00-0001-07.png
00000014,311,1,1439220946276,1439220946956,917,440,0,0,0,3,2,1,32,0003-00-0001-99.png,0002-00-0001-17.png
00000014,312,1,1439220947926,1439220948703,286,346,0,0,0,4,5,1,45,0004-00-0000-98.png,0005-00-0001-90.png
00000014,313,0,1439220949825,1439220950598,925,358,0,0,0,1,2,1,12,0001-00-0001-86.png,0002-00-0001-73.png
00000014,314,0,1439220953482,1439220954042,946,367,0,0,0,3,4,1,34,0003-00-0001-30.png,0004-00-0001-87.png
00000014,315,1,1439220957291,1439220958181,936,363,0,0,0,5,4,1,54,0005-00-0000-33.png,0004-00-0001-35.png
00000014,316,0,1439220959198,1439220959769,899,398,0,0,0,4,5,1,45,0004-00-0001-29.png,0005-00-0001-48.png
00000014,317,0,1439220962874,1439220963510,324,398,0,0,0,4,3,1,43,0004-00-0000-66.png,0003-00-0001-41.png
00000014,318,0,1439220966588,1439220967189,913,396,0,0,0,2,3,1,23,0002-00-0000-93.png,0003-00-0000-82.png
00000014,319,0,1439220970308,1439220971167,325,358,0,0,0,3,2,1,32,0003-00-0001-75.png,0002-00-0001-96.png
00000014,320,0,1439220974033,1439220974624,308,371,0,0,0,2,1,1,21,0002-00-0001-93.png,0001-00-0000-63.png
00000014,321,0,1439220977938,1439220978684,298,355,0,0,0,3,2,1,32,0003-00-0001-07.png,0002-00-0000-95.png
00000014,322,1,1439220981976,1439220982552,937,365,0,0,0,4,3,1,43,0004-00-0001-44.png,0003-00-0000-68.png
00000014,323,1,1439220983764,1439220984599,926,357,0,0,0,5,4,1,54,0005-00-0001-72.png,0004-00-0000-70.png
00000014,324,1,1439220985543,1439220986262,379,383,0,0,0,4,5,1,45,0004-00-0000-06.png,0005-00-0001-47.png
00000014,325,0,1439220987242,1439220987983,905,349,0,0,0,2,3,1,23,0002-00-0001-45.png,0003-00-0001-03.png
00000014,326,1,1439220991197,1439220991957,351,396,0,0,0,3,4,1,34,0003-00-0001-20.png,0004-00-0000-76.png
00000014,327,1,1439220992938,1439220993460,313,391,0,0,0,1,2,1,12,0001-00-0000-45.png,0002-00-0000-04.png
00000014,328,1,1439220994476,1439220995022,926,397,0,0,0,2,1,1,21,0002-00-0000-97.png,0001-00-0001-62.png
00000014,329,0,1439220996076,1439220996811,362,358,0,0,0,2,1,1,21,0002-00-0001-48.png,0001-00-0001-51.png
00000014,330,1,1439220999661,1439221000269,894,474,0,0,0,4,3,1,43,0004-00-0001-58.png,0003-00-0001-64.png
00000014,331,0,1439221001205,1439221001800,947,394,0,0,0,1,2,1,12,0001-00-0000-26.png,0002-00-0000-16.png
00000014,332,1,1439221005450,1439221006119,360,522,0,0,0,2,3,1,23,0002-00-0001-48.png,0003-00-0001-16.png
00000014,333,0,1439221007030,1439221007670,919,400,0,0,0,4,5,1,45,0004-00-0001-66.png,0005-00-0000-55.png
00000014,334,1,1439221010844,1439221011381,940,371,0,0,0,5,4,1,54,0005-00-0000-91.png,0004-00-0001-87.png
00000014,335,1,1439221012313,1439221012877,895,498,0,0,0,3,2,1,32,0003-00-0000-29.png,0002-00-0000-24.png
00000014,336,0,1439221013866,1439221014428,938,479,0,0,0,3,4,1,34,0003-00-0001-11.png,0004-00-0000-48.png
00000014,337,0,1439221017482,1439221018087,918,489,0,0,0,2,3,1,23,0002-00-0001-54.png,0003-00-0000-35.png
00000014,338,1,1439221021358,1439221021886,924,457,0,0,0,3,2,1,32,0003-00-0001-97.png,0002-00-0000-20.png
00000014,339,1,1439221022822,1439221023443,294,368,0,0,0,1,2,1,12,0001-00-0001-96.png,0002-00-0001-42.png
00000014,340,0,1439221024449,1439221025233,312,372,0,0,0,5,4,1,54,0005-00-0000-09.png,0004-00-0000-07.png
00000014,341,1,1439221028071,1439221028628,920,341,0,0,0,4,3,1,43,0004-00-0001-47.png,0003-00-0000-31.png
00000014,342,0,1439221029569,1439221030220,900,411,0,0,0,4,5,1,45,0004-00-0001-71.png,0005-00-0001-36.png
00000014,343,1,1439221033091,1439221033888,332,439,0,0,0,3,4,1,34,0003-00-0001-18.png,0004-00-0001-01.png
00000014,344,1,1439221035292,1439221035821,925,371,0,0,0,2,1,1,21,0002-00-0000-37.png,0001-00-0001-82.png
00000014,345,0,1439221036854,1439221037381,873,467,0,0,0,1,2,1,12,0001-00-0000-21.png,0002-00-0000-03.png
00000014,346,1,1439221040439,1439221041263,906,466,0,0,0,5,4,1,54,0005-00-0001-51.png,0004-00-0001-79.png
00000014,347,1,1439221042186,1439221042766,348,396,0,0,0,2,3,1,23,0002-00-0000-40.png,0003-00-0001-06.png
00000014,348,0,1439221043787,1439221044381,927,357,0,0,0,3,4,1,34,0003-00-0001-00.png,0004-00-0001-65.png
00000014,349,1,1439221047375,1439221048188,862,296,0,0,0,3,2,1,32,0003-00-0000-05.png,0002-00-0000-58.png
00000014,350,0,1439221049206,1439221049766,376,383,0,0,0,4,3,1,43,0004-00-0001-47.png,0003-00-0000-05.png
00000014,351,0,1439221069510,1439221070108,946,391,0,0,0,4,5,1,45,0004-00-0001-66.png,0005-00-0001-13.png
00000014,352,0,1439221072937,1439221072957,513,394,0,0,0,2,1,1,21,0002-00-0000-80.png,0001-00-0001-48.png
00000014,353,1,1439221076046,1439221076777,915,388,0,0,0,5,4,1,54,0005-00-0001-52.png,0004-00-0000-36.png
00000014,354,1,1439221077769,1439221078253,877,332,0,0,0,2,1,1,21,0002-00-0000-33.png,0001-00-0001-62.png
00000014,355,0,1439221079299,1439221079912,402,514,0,0,0,4,3,1,43,0004-00-0001-95.png,0003-00-0000-63.png
00000014,356,0,1439221083184,1439221083830,925,490,0,0,0,4,5,1,45,0004-00-0001-24.png,0005-00-0001-97.png
00000014,357,0,1439221086831,1439221087385,914,480,0,0,0,3,4,1,34,0003-00-0001-41.png,0004-00-0001-49.png
00000014,358,1,1439221090259,1439221090975,320,374,0,0,0,2,3,1,23,0002-00-0000-23.png,0003-00-0000-88.png
00000014,359,0,1439221091920,1439221092541,927,381,0,0,0,1,2,1,12,0001-00-0000-23.png,0002-00-0000-67.png
00000014,360,0,1439221095576,1439221095584,516,390,0,0,0,3,2,1,32,0003-00-0000-40.png,0002-00-0001-59.png
00000014,361,1,1439221098786,1439221099387,368,367,0,0,0,2,3,1,23,0002-00-0001-69.png,0003-00-0000-59.png
00000014,362,0,1439221100296,1439221101008,937,435,0,0,0,3,4,1,34,0003-00-0001-92.png,0004-00-0001-59.png
00000014,363,1,1439221104031,1439221104682,222,423,0,0,0,1,2,1,12,0001-00-0001-33.png,0002-00-0001-87.png
00000014,364,1,1439221105577,1439221106184,949,326,0,0,0,4,3,1,43,0004-00-0000-83.png,0003-00-0000-25.png
00000014,365,0,1439221107204,1439221107826,325,370,0,0,0,2,1,1,21,0002-00-0000-00.png,0001-00-0000-73.png
00000014,366,1,1439221110841,1439221110849,493,371,0,0,0,4,5,1,45,0004-00-0000-68.png,0005-00-0001-98.png
00000014,367,1,1439221111873,1439221112399,912,398,0,0,0,5,4,1,54,0005-00-0001-80.png,0004-00-0000-83.png
00000014,368,0,1439221113395,1439221114026,311,378,0,0,0,3,2,1,32,0003-00-0001-76.png,0002-00-0001-21.png
00000014,369,0,1439221117208,1439221118067,350,373,0,0,0,3,2,1,32,0003-00-0000-44.png,0002-00-0000-33.png
00000014,370,0,1439221121145,1439221121785,336,371,0,0,0,2,1,1,21,0002-00-0000-16.png,0001-00-0001-30.png
00000014,371,1,1439221124793,1439221124821,522,426,0,0,0,2,3,1,23,0002-00-0001-68.png,0003-00-0001-72.png
00000014,372,0,1439221125858,1439221126646,888,439,0,0,0,1,2,1,12,0001-00-0001-04.png,0002-00-0000-31.png
00000014,373,0,1439221129498,1439221130279,334,353,0,0,0,4,3,1,43,0004-00-0000-45.png,0003-00-0000-87.png
00000014,374,0,1439221133212,1439221133220,511,393,0,0,0,5,4,1,54,0005-00-0001-57.png,0004-00-0000-40.png
00000014,375,0,1439221136410,1439221137125,906,466,0,0,0,3,4,1,34,0003-00-0000-10.png,0004-00-0001-66.png
00000014,376,1,1439221140250,1439221140266,518,439,0,0,0,4,5,1,45,0004-00-0000-13.png,0005-00-0000-95.png
00000014,377,1,1439221141312,1439221141884,927,383,0,0,0,5,4,1,54,0005-00-0001-15.png,0004-00-0000-79.png
00000014,378,1,1439221142873,1439221142889,504,451,0,0,0,1,2,1,12,0001-00-0000-32.png,0002-00-0000-57.png
00000014,379,0,1439221143994,1439221144737,376,383,0,0,0,4,3,1,43,0004-00-0000-56.png,0003-00-0000-01.png
00000014,380,0,1439221147791,1439221147799,441,468,0,0,0,2,1,1,21,0002-00-0000-06.png,0001-00-0001-15.png
00000014,381,1,1439221150732,1439221151722,376,461,0,0,0,4,5,1,45,0004-00-0001-01.png,0005-00-0001-04.png
00000014,382,0,1439221152621,1439221153315,300,395,0,0,0,3,2,1,32,0003-00-0000-71.png,0002-00-0000-13.png
00000014,383,0,1439221156286,1439221156898,891,330,0,0,0,3,4,1,34,0003-00-0000-85.png,0004-00-0000-04.png
00000014,384,0,1439221167848,1439221168742,951,475,0,0,0,2,3,1,23,0002-00-0000-57.png,0003-00-0001-07.png
00000014,385,0,1439221171835,1439221172650,927,434,0,0,0,3,4,1,34,0003-00-0000-02.png,0004-00-0001-62.png
00000014,386,1,1439221175799,1439221176409,898,486,0,0,0,4,3,1,43,0004-00-0001-52.png,0003-00-0001-39.png
00000014,387,1,1439221177451,1439221178401,903,466,0,0,0,5,4,1,54,0005-00-0001-36.png,0004-00-0001-42.png
00000014,388,0,1439221179398,1439221180061,326,380,0,0,0,2,1,1,21,0002-00-0000-23.png,0001-00-0001-01.png
00000014,389,1,1439221184342,1439221185132,363,476,0,0,0,2,3,1,23,0002-00-0001-77.png,0003-00-0001-93.png
00000014,390,1,1439221186106,1439221186766,862,475,0,0,0,3,2,1,32,0003-00-0000-28.png,0002-00-0001-84.png
00000014,391,1,1439221187719,1439221188384,321,368,0,0,0,1,2,1,12,0001-00-0000-18.png,0002-00-0001-78.png
00000014,392,1,1439221189305,1439221189962,350,358,0,0,0,4,5,1,45,0004-00-0001-18.png,0005-00-0001-88.png
00000014,393,1,1439221191451,1439221192075,943,358,0,0,0,3,2,1,32,0003-00-0001-42.png,0002-00-0001-79.png
00000014,394,0,1439221193013,1439221193573,880,323,0,0,0,2,3,1,23,0002-00-0000-48.png,0003-00-0001-21.png
00000014,395,1,1439221196479,1439221197017,931,374,0,0,0,4,3,1,43,0004-00-0001-77.png,0003-00-0000-37.png
00000014,396,1,1439221198011,1439221198513,905,379,0,0,0,2,1,1,21,0002-00-0000-69.png,0001-00-0000-66.png
00000014,397,1,1439221199523,1439221200194,222,410,0,0,0,4,5,1,45,0004-00-0001-81.png,0005-00-0000-13.png
00000014,398,1,1439221201262,1439221201957,324,346,0,0,0,1,2,1,12,0001-00-0001-93.png,0002-00-0001-46.png
00000014,399,0,1439221202939,1439221203681,324,378,0,0,0,5,4,1,54,0005-00-0000-06.png,0004-00-0000-98.png
00000014,400,0,1439221206941,1439221207451,876,493,0,0,0,3,4,1,34,0003-00-0001-60.png,0004-00-0001-61.png
00000014,401,1,1439221211693,1439221212288,955,375,0,0,0,5,4,1,54,0005-00-0001-49.png,0004-00-0000-02.png
00000014,402,0,1439221213313,1439221213862,922,356,0,0,0,3,4,1,34,0003-00-0001-29.png,0004-00-0001-95.png
00000014,403,0,1439221216894,1439221216918,486,444,0,0,0,2,1,1,21,0002-00-0001-31.png,0001-00-0001-99.png
00000014,404,1,1439221219772,1439221220266,862,332,0,0,0,4,3,1,43,0004-00-0001-90.png,0003-00-0000-99.png
00000014,405,0,1439221221306,1439221221913,937,393,0,0,0,1,2,1,12,0001-00-0000-03.png,0002-00-0001-67.png
00000014,406,1,1439221224885,1439221225823,380,462,0,0,0,2,3,1,23,0002-00-0001-01.png,0003-00-0001-62.png
00000014,407,1,1439221226710,1439221227393,369,488,0,0,0,4,5,1,45,0004-00-0001-21.png,0005-00-0000-22.png
00000014,408,0,1439221228382,1439221229039,291,375,0,0,0,3,2,1,32,0003-00-0000-46.png,0002-00-0001-55.png
00000014,409,1,1439221237709,1439221238427,989,371,0,0,0,2,1,1,21,0002-00-0000-50.png,0001-00-0001-83.png
00000014,410,0,1439221239391,1439221239407,512,454,0,0,0,5,4,1,54,0005-00-0000-13.png,0004-00-0001-94.png
00000014,411,0,1439221242278,1439221242955,376,347,0,0,0,4,3,1,43,0004-00-0001-16.png,0003-00-0001-62.png
00000014,412,1,1439221245966,1439221245990,462,390,0,0,0,4,5,1,45,0004-00-0001-38.png,0005-00-0001-46.png
00000014,413,1,1439221246912,1439221246943,518,436,0,0,0,1,2,1,12,0001-00-0001-72.png,0002-00-0001-33.png
00000014,414,0,1439221248042,1439221248605,942,384,0,0,0,2,3,1,23,0002-00-0001-32.png,0003-00-0000-73.png
00000014,415,1,1439221251661,1439221252176,937,398,0,0,0,3,2,1,32,0003-00-0001-00.png,0002-00-0001-57.png
00000014,416,1,1439221253174,1439221253948,321,326,0,0,0,3,4,1,34,0003-00-0000-14.png,0004-00-0000-53.png
00000014,417,0,1439221254932,1439221255545,337,392,0,0,0,2,1,1,21,0002-00-0001-85.png,0001-00-0001-17.png
00000014,418,0,1439221258636,1439221259407,329,381,0,0,0,4,3,1,43,0004-00-0000-37.png,0003-00-0000-81.png
00000014,419,0,1439221262691,1439221263502,273,372,0,0,0,5,4,1,54,0005-00-0000-84.png,0004-00-0001-38.png
00000014,420,0,1439221266567,1439221267298,963,388,0,0,0,1,2,1,12,0001-00-0000-84.png,0002-00-0000-85.png
00000014,421,0,1439221270418,1439221270981,900,515,0,0,0,2,3,1,23,0002-00-0001-30.png,0003-00-0001-32.png
00000014,422,1,1439221274258,1439221275051,294,349,0,0,0,3,4,1,34,0003-00-0001-79.png,0004-00-0000-18.png
00000014,423,1,1439221276059,1439221277013,299,358,0,0,0,4,5,1,45,0004-00-0000-88.png,0005-00-0001-66.png
00000014,424,0,1439221277979,1439221278726,376,383,0,0,0,3,2,1,32,0003-00-0000-68.png,0002-00-0001-45.png
00000014,425,0,1439221281712,1439221282455,927,345,0,0,0,1,2,1,12,0001-00-0001-17.png,0002-00-0000-06.png
00000014,426,1,1439221285729,1439221286364,941,395,0,0,0,2,1,1,21,0002-00-0001-23.png,0001-00-0001-24.png
00000014,427,1,1439221287319,1439221287909,330,383,0,0,0,3,4,1,34,0003-00-0000-09.png,0004-00-0001-84.png
00000014,428,1,1439221289337,1439221289879,912,463,0,0,0,4,3,1,43,0004-00-0001-37.png,0003-00-0000-93.png
00000014,429,1,1439221290887,1439221291402,925,409,0,0,0,3,2,1,32,0003-00-0001-05.png,0002-00-0000-37.png
00000014,430,1,1439221292399,1439221293105,930,362,0,0,0,5,4,1,54,0005-00-0000-61.png,0004-00-0001-48.png
00000014,431,0,1439221294117,1439221294671,913,372,0,0,0,2,3,1,23,0002-00-0000-01.png,0003-00-0000-24.png
00000014,432,1,1439221297875,1439221298606,376,398,0,0,0,4,5,1,45,0004-00-0000-36.png,0005-00-0001-11.png
00000014,433,0,1439221299604,1439221299612,504,426,0,0,0,4,3,1,43,0004-00-0000-65.png,0003-00-0000-43.png
00000014,434,1,1439221302791,1439221303414,335,384,0,0,0,2,3,1,23,0002-00-0000-56.png,0003-00-0000-66.png
00000014,435,1,1439221304402,1439221304984,921,369,0,0,0,3,2,1,32,0003-00-0001-52.png,0002-00-0000-08.png
00000014,436,1,1439221305873,1439221306475,914,398,0,0,0,2,1,1,21,0002-00-0000-00.png,0001-00-0000-14.png
00000014,437,0,1439221307412,1439221308007,925,397,0,0,0,4,5,1,45,0004-00-0000-95.png,0005-00-0000-71.png
00000014,438,0,1439221311228,1439221311745,947,341,0,0,0,1,2,1,12,0001-00-0000-94.png,0002-00-0001-05.png
00000014,439,1,1439221314793,1439221315346,312,403,0,0,0,3,4,1,34,0003-00-0000-93.png,0004-00-0000-03.png
00000014,440,0,1439221316364,1439221317086,248,449,0,0,0,5,4,1,54,0005-00-0001-74.png,0004-00-0000-08.png
00000014,441,1,1439221319932,1439221320438,934,395,0,0,0,2,1,1,21,0002-00-0001-56.png,0001-00-0001-02.png
00000014,442,1,1439221321437,1439221322008,921,394,0,0,0,5,4,1,54,0005-00-0000-12.png,0004-00-0000-59.png
00000014,443,1,1439221323364,1439221324058,321,390,0,0,0,3,4,1,34,0003-00-0001-47.png,0004-00-0000-64.png
00000014,444,1,1439221325092,1439221325617,313,376,0,0,0,2,3,1,23,0002-00-0001-19.png,0003-00-0000-05.png
00000014,445,1,1439221326772,1439221327353,305,375,0,0,0,4,5,1,45,0004-00-0001-85.png,0005-00-0000-43.png
00000014,446,0,1439221328320,1439221328960,322,387,0,0,0,3,2,1,32,0003-00-0001-80.png,0002-00-0001-68.png
00000014,447,0,1439221333402,1439221334024,369,506,0,0,0,4,3,1,43,0004-00-0000-52.png,0003-00-0001-14.png
00000014,448,0,1439221337055,1439221337843,962,372,0,0,0,1,2,1,12,0001-00-0000-05.png,0002-00-0001-88.png
00000014,449,1,1439221340893,1439221341648,949,405,0,0,0,2,1,1,21,0002-00-0000-63.png,0001-00-0000-83.png
00000014,450,0,1439221342611,1439221343295,348,382,0,0,0,5,4,1,54,0005-00-0000-87.png,0004-00-0000-39.png
00000014,451,1,1439221346379,1439221347053,321,377,0,0,0,2,3,1,23,0002-00-0001-35.png,0003-00-0000-49.png
00000014,452,1,1439221348070,1439221348621,369,376,0,0,0,1,2,1,12,0001-00-0000-58.png,0002-00-0001-41.png
00000014,453,1,1439221349618,1439221350470,365,436,0,0,0,4,5,1,45,0004-00-0001-04.png,0005-00-0000-32.png
00000014,454,1,1439221351524,1439221352120,389,477,0,0,0,3,4,1,34,0003-00-0000-38.png,0004-00-0001-35.png
00000014,455,1,1439221353217,1439221353870,915,491,0,0,0,3,2,1,32,0003-00-0000-39.png,0002-00-0001-57.png
00000014,456,1,1439221354925,1439221355446,901,409,0,0,0,4,3,1,43,0004-00-0001-85.png,0003-00-0000-98.png
00000014,457,0,1439221356405,1439221357097,944,351,0,0,0,3,4,1,34,0003-00-0000-25.png,0004-00-0001-51.png
00000014,458,1,1439221360031,1439221360560,342,380,0,0,0,1,2,1,12,0001-00-0000-13.png,0002-00-0000-50.png
00000014,459,0,1439221361841,1439221362394,917,397,0,0,0,2,3,1,23,0002-00-0000-55.png,0003-00-0000-85.png
00000014,460,1,1439221365456,1439221366182,926,392,0,0,0,3,2,1,32,0003-00-0001-37.png,0002-00-0001-78.png
00000014,461,0,1439221367158,1439221367901,382,368,0,0,0,5,4,1,54,0005-00-0000-71.png,0004-00-0001-23.png
00000014,462,1,1439221370953,1439221371756,301,378,0,0,0,4,5,1,45,0004-00-0000-73.png,0005-00-0001-53.png
00000014,463,1,1439221372674,1439221373197,905,401,0,0,0,2,1,1,21,0002-00-0000-58.png,0001-00-0000-67.png
00000014,464,0,1439221374155,1439221374833,321,384,0,0,0,4,3,1,43,0004-00-0000-81.png,0003-00-0000-25.png
00000014,465,0,1439221377829,1439221378928,913,358,0,0,0,4,5,1,45,0004-00-0001-82.png,0005-00-0001-88.png
00000014,466,0,1439221389448,1439221390058,325,358,0,0,0,4,3,1,43,0004-00-0000-44.png,0003-00-0001-42.png
00000014,467,0,1439221392962,1439221393856,968,353,0,0,0,2,3,1,23,0002-00-0001-91.png,0003-00-0001-89.png
00000014,468,1,1439221402070,1439221402576,931,374,0,0,0,2,1,1,21,0002-00-0001-96.png,0001-00-0000-97.png
00000014,469,0,1439221403753,1439221404521,320,350,0,0,0,5,4,1,54,0005-00-0001-14.png,0004-00-0000-39.png
00000014,470,0,1439221407405,1439221407935,943,392,0,0,0,1,2,1,12,0001-00-0001-17.png,0002-00-0001-19.png
00000014,471,0,1439221410804,1439221410824,481,376,0,0,0,3,2,1,32,0003-00-0000-92.png,0002-00-0001-92.png
00000014,472,0,1439221416835,1439221417444,931,349,0,0,0,3,4,1,34,0003-00-0000-80.png,0004-00-0001-70.png
00000014,473,0,1439221420396,1439221420416,511,289,0,0,0,4,3,1,43,0004-00-0001-08.png,0003-00-0001-03.png
00000014,474,1,1439221423606,1439221424142,937,476,0,0,0,2,1,1,21,0002-00-0001-08.png,0001-00-0001-42.png
00000014,475,1,1439221425137,1439221425716,296,370,0,0,0,1,2,1,12,0001-00-0000-14.png,0002-00-0001-18.png
00000014,476,1,1439221426708,1439221427518,350,344,0,0,0,4,5,1,45,0004-00-0001-69.png,0005-00-0001-48.png
00000014,477,0,1439221428486,1439221428502,504,464,0,0,0,3,2,1,32,0003-00-0000-67.png,0002-00-0001-33.png
00000014,478,0,1439221431364,1439221431918,898,430,0,0,0,3,4,1,34,0003-00-0001-43.png,0004-00-0000-14.png
00000014,479,1,1439221435151,1439221435867,334,374,0,0,0,2,3,1,23,0002-00-0000-79.png,0003-00-0000-00.png
00000014,480,0,1439221436862,1439221437475,294,368,0,0,0,5,4,1,54,0005-00-0001-66.png,0004-00-0001-36.png
00000014,481,0,1439221440906,1439221441541,941,396,0,0,0,1,2,1,12,0001-00-0001-41.png,0002-00-0001-44.png
00000014,482,0,1439221444410,1439221445214,951,332,0,0,0,2,3,1,23,0002-00-0001-69.png,0003-00-0000-90.png
00000014,483,1,1439221453052,1439221453857,978,386,0,0,0,4,3,1,43,0004-00-0000-24.png,0003-00-0001-12.png
00000014,484,0,1439221454836,1439221455396,326,374,0,0,0,2,1,1,21,0002-00-0001-60.png,0001-00-0001-17.png
00000014,485,0,1439221458421,1439221459009,877,349,0,0,0,3,4,1,34,0003-00-0000-92.png,0004-00-0000-79.png
00000014,486,0,1439221466150,1439221466984,947,367,0,0,0,4,5,1,45,0004-00-0001-26.png,0005-00-0001-51.png
00000014,487,1,1439221472447,1439221472993,879,366,0,0,0,5,4,1,54,0005-00-0001-90.png,0004-00-0001-64.png
00000014,488,1,1439221473982,1439221474604,918,438,0,0,0,3,2,1,32,0003-00-0001-23.png,0002-00-0001-04.png
00000014,489,1,1439221475564,1439221476093,927,397,0,0,0,5,4,1,54,0005-00-0001-03.png,0004-00-0000-75.png
00000014,490,0,1439221477044,1439221477573,926,456,0,0,0,2,3,1,23,0002-00-0000-22.png,0003-00-0001-55.png
00000014,491,0,1439221481766,1439221482581,315,358,0,0,0,2,1,1,21,0002-00-0001-06.png,0001-00-0000-44.png
00000014,492,1,1439221486346,1439221487117,300,359,0,0,0,3,4,1,34,0003-00-0000-00.png,0004-00-0000-05.png
00000014,493,1,1439221488135,1439221488163,511,464,0,0,0,4,5,1,45,0004-00-0000-72.png,0005-00-0000-84.png
00000014,494,1,1439221489211,1439221489802,925,397,0,0,0,3,2,1,32,0003-00-0001-30.png,0002-00-0001-85.png
00000014,495,1,1439221490670,1439221491234,926,395,0,0,0,4,3,1,43,0004-00-0001-67.png,0003-00-0000-56.png
00000014,496,0,1439221492122,1439221492782,868,348,0,0,0,1,2,1,12,0001-00-0001-59.png,0002-00-0001-86.png
00000014,497,1,1439221501817,1439221502383,931,403,0,0,0,3,2,1,32,0003-00-0001-23.png,0002-00-0001-37.png
00000014,498,0,1439221503256,1439221504059,871,304,0,0,0,3,4,1,34,0003-00-0000-57.png,0004-00-0001-59.png
00000014,499,0,1439221507970,1439221508609,348,377,0,0,0,5,4,1,54,0005-00-0001-66.png,0004-00-0000-83.png
00000014,500,0,1439221512004,1439221512888,952,351,0,0,0,4,5,1,45,0004-00-0000-57.png,0005-00-0001-94.png
00000014,501,0,1439221541187,1439221541704,872,358,0,0,0,2,3,1,23,0002-00-0000-07.png,0003-00-0000-65.png
00000014,502,1,1439221544544,1439221545522,942,438,0,0,0,2,1,1,21,0002-00-0001-69.png,0001-00-0000-88.png
00000014,503,1,1439221546387,1439221547083,928,450,0,0,0,4,3,1,43,0004-00-0000-34.png,0003-00-0000-69.png
00000014,504,1,1439221547935,1439221548685,359,389,0,0,0,1,2,1,12,0001-00-0001-88.png,0002-00-0000-70.png
00000014,505,1,1439221549679,1439221550238,926,444,0,0,0,4,3,1,43,0004-00-0001-00.png,0003-00-0001-57.png
00000014,506,1,1439221551230,1439221551631,361,423,0,0,0,2,3,1,23,0002-00-0001-07.png,0003-00-0000-59.png
00000014,507,1,1439221552581,1439221553113,926,410,0,0,0,3,2,1,32,0003-00-0001-28.png,0002-00-0000-30.png
00000014,508,1,1439221553991,1439221554628,953,373,0,0,0,5,4,1,54,0005-00-0001-01.png,0004-00-0000-94.png
00000014,509,1,1439221555491,1439221556240,319,381,0,0,0,4,5,1,45,0004-00-0000-12.png,0005-00-0000-46.png
00000014,510,0,1439221557139,1439221557907,303,391,0,0,0,2,1,1,21,0002-00-0001-95.png,0001-00-0000-77.png
00000014,511,1,1439221560855,1439221561399,360,393,0,0,0,1,2,1,12,0001-00-0001-37.png,0002-00-0000-52.png
00000014,512,1,1439221562299,1439221562311,515,410,0,0,0,3,4,1,34,0003-00-0001-50.png,0004-00-0000-32.png
00000014,513,1,1439221563779,1439221564238,927,398,0,0,0,2,1,1,21,0002-00-0000-12.png,0001-00-0001-91.png
00000014,514,1,1439221565091,1439221565683,368,400,0,0,0,3,4,1,34,0003-00-0000-66.png,0004-00-0000-28.png
00000014,515,1,1439221566681,1439221567178,350,397,0,0,0,1,2,1,12,0001-00-0001-65.png,0002-00-0001-09.png
00000014,516,1,1439221568092,1439221568826,352,395,0,0,0,4,5,1,45,0004-00-0000-68.png,0005-00-0000-07.png
00000014,517,1,1439221569851,1439221570426,955,389,0,0,0,4,3,1,43,0004-00-0001-98.png,0003-00-0001-27.png
00000014,518,1,1439221571299,1439221571863,950,411,0,0,0,3,2,1,32,0003-00-0001-02.png,0002-00-0000-34.png
00000014,519,1,1439221572749,1439221572769,518,410,0,0,0,2,3,1,23,0002-00-0000-81.png,0003-00-0000-97.png
00000014,520,1,1439221573667,1439221574299,904,333,0,0,0,5,4,1,54,0005-00-0001-31.png,0004-00-0000-09.png
00000014,521,1,1439221575235,1439221575899,339,418,0,0,0,4,5,1,45,0004-00-0001-99.png,0005-00-0001-04.png
00000014,522,0,1439221576885,1439221577487,441,512,0,0,0,4,3,1,43,0004-00-0000-48.png,0003-00-0001-41.png
00000014,523,0,1439221580472,1439221581184,323,411,0,0,0,2,1,1,21,0002-00-0001-32.png,0001-00-0000-92.png
00000014,524,0,1439221584241,1439221584834,947,446,0,0,0,2,3,1,23,0002-00-0001-96.png,0003-00-0000-10.png
00000014,525,1,1439221590749,1439221590777,513,488,0,0,0,1,2,1,12,0001-00-0001-83.png,0002-00-0000-41.png
00000014,526,0,1439221591773,1439221592315,325,397,0,0,0,3,2,1,32,0003-00-0000-93.png,0002-00-0000-42.png
00000014,527,0,1439221595331,1439221595946,913,372,0,0,0,3,4,1,34,0003-00-0001-08.png,0004-00-0000-95.png
00000014,528,1,1439221598900,1439221599605,953,361,0,0,0,5,4,1,54,0005-00-0000-07.png,0004-00-0000-89.png
00000014,529,1,1439221600521,1439221601044,930,402,0,0,0,5,4,1,54,0005-00-0001-81.png,0004-00-0000-34.png
00000014,530,0,1439221602359,1439221602833,949,378,0,0,0,2,3,1,23,0002-00-0001-82.png,0003-00-0000-13.png
00000014,531,1,1439221605684,1439221606671,954,363,0,0,0,4,3,1,43,0004-00-0000-24.png,0003-00-0001-32.png
00000014,532,0,1439221607576,1439221608274,401,345,0,0,0,3,2,1,32,0003-00-0000-39.png,0002-00-0001-75.png
00000014,533,0,1439221611303,1439221611974,313,419,0,0,0,2,1,1,21,0002-00-0000-98.png,0001-00-0001-14.png
00000014,534,0,1439221616032,1439221616573,898,464,0,0,0,3,4,1,34,0003-00-0000-74.png,0004-00-0001-36.png
00000014,535,0,1439221619529,1439221620460,939,337,0,0,0,4,5,1,45,0004-00-0000-43.png,0005-00-0000-01.png
00000014,536,0,1439221623308,1439221623868,903,363,0,0,0,1,2,1,12,0001-00-0001-19.png,0002-00-0000-56.png
00000014,537,1,1439221626905,1439221627527,415,502,0,0,0,3,4,1,34,0003-00-0001-15.png,0004-00-0001-52.png
00000014,538,1,1439221628882,1439221629555,414,490,0,0,0,4,5,1,45,0004-00-0000-13.png,0005-00-0001-45.png
00000014,539,1,1439221630493,1439221631186,901,460,0,0,0,4,3,1,43,0004-00-0001-34.png,0003-00-0000-74.png
00000014,540,1,1439221632112,1439221632716,267,445,0,0,0,1,2,1,12,0001-00-0001-13.png,0002-00-0000-12.png
00000014,541,1,1439221633621,1439221633641,517,423,0,0,0,2,3,1,23,0002-00-0001-88.png,0003-00-0001-84.png
00000014,542,0,1439221634546,1439221634574,518,436,0,0,0,3,2,1,32,0003-00-0000-94.png,0002-00-0000-42.png
00000014,543,1,1439221637587,1439221638101,956,401,0,0,0,2,1,1,21,0002-00-0001-40.png,0001-00-0001-50.png
00000014,544,1,1439221638987,1439221639523,941,400,0,0,0,5,4,1,54,0005-00-0001-03.png,0004-00-0001-54.png
00000014,545,0,1439221640366,1439221641052,351,371,0,0,0,4,3,1,43,0004-00-0001-58.png,0003-00-0000-20.png
00000014,546,0,1439221643966,1439221644503,915,397,0,0,0,3,4,1,34,0003-00-0001-80.png,0004-00-0000-82.png
00000014,547,1,1439221647523,1439221648080,898,481,0,0,0,2,1,1,21,0002-00-0000-56.png,0001-00-0000-60.png
00000014,548,0,1439221648976,1439221649572,339,369,0,0,0,3,2,1,32,0003-00-0000-18.png,0002-00-0001-76.png
00000014,549,1,1439221652752,1439221653429,925,384,0,0,0,5,4,1,54,0005-00-0001-12.png,0004-00-0000-61.png
00000014,550,1,1439221654354,1439221654957,317,377,0,0,0,4,5,1,45,0004-00-0001-78.png,0005-00-0001-51.png
00000014,551,1,1439221655843,1439221656428,342,399,0,0,0,2,3,1,23,0002-00-0001-63.png,0003-00-0000-63.png
00000014,552,1,1439221657321,1439221657895,409,480,0,0,0,1,2,1,12,0001-00-0001-26.png,0002-00-0001-22.png
00000014,553,1,1439221658834,1439221658846,511,445,0,0,0,2,3,1,23,0002-00-0001-56.png,0003-00-0000-18.png
00000014,554,1,1439221659839,1439221660552,413,490,0,0,0,4,5,1,45,0004-00-0000-96.png,0005-00-0000-41.png
00000014,555,0,1439221661497,1439221662103,887,475,0,0,0,1,2,1,12,0001-00-0000-22.png,0002-00-0000-55.png
00000014,556,0,1439221664995,1439221665545,332,349,0,0,0,5,4,1,54,0005-00-0000-44.png,0004-00-0001-58.png
00000014,557,1,1439221668780,1439221669270,921,394,0,0,0,3,2,1,32,0003-00-0001-41.png,0002-00-0001-27.png
00000014,558,1,1439221670213,1439221670775,930,483,0,0,0,4,3,1,43,0004-00-0001-01.png,0003-00-0001-94.png
00000014,559,1,1439221672767,1439221673349,889,398,0,0,0,2,1,1,21,0002-00-0000-42.png,0001-00-0001-50.png
00000014,560,1,1439221674184,1439221674253,518,462,0,0,0,3,4,1,34,0003-00-0000-55.png,0004-00-0000-99.png
00000014,561,0,1439221675192,1439221675699,954,406,0,0,0,1,2,1,12,0001-00-0001-28.png,0002-00-0001-26.png
00000014,562,1,1439221678628,1439221679529,345,369,0,0,0,3,4,1,34,0003-00-0001-83.png,0004-00-0000-91.png
00000014,563,1,1439221680397,1439221681023,931,388,0,0,0,2,1,1,21,0002-00-0000-53.png,0001-00-0001-33.png
00000014,564,1,1439221681899,1439221682536,967,392,0,0,0,3,2,1,32,0003-00-0000-63.png,0002-00-0001-98.png
00000014,565,0,1439221683392,1439221684027,916,393,0,0,0,2,3,1,23,0002-00-0000-20.png,0003-00-0001-54.png
00000014,566,0,1439221686874,1439221687629,329,355,0,0,0,4,3,1,43,0004-00-0001-01.png,0003-00-0000-16.png
00000014,567,1,1439221690484,1439221691335,358,340,0,0,0,4,5,1,45,0004-00-0000-50.png,0005-00-0001-89.png
00000014,568,0,1439221692253,1439221692876,372,418,0,0,0,5,4,1,54,0005-00-0000-15.png,0004-00-0001-24.png
00000014,569,1,1439221695790,1439221695802,514,344,0,0,0,1,2,1,12,0001-00-0000-17.png,0002-00-0000-64.png
00000014,570,1,1439221696706,1439221697311,917,360,0,0,0,3,2,1,32,0003-00-0001-53.png,0002-00-0000-61.png
00000014,571,1,1439221698605,1439221699126,927,359,0,0,0,2,1,1,21,0002-00-0000-17.png,0001-00-0000-76.png
00000014,572,0,1439221700002,1439221700945,894,392,0,0,0,4,5,1,45,0004-00-0001-65.png,0005-00-0001-86.png
00000014,573,1,1439221708474,1439221709414,952,345,0,0,0,5,4,1,54,0005-00-0000-64.png,0004-00-0000-96.png
00000014,574,0,1439221710367,1439221710918,931,345,0,0,0,3,4,1,34,0003-00-0000-60.png,0004-00-0001-28.png
00000014,575,1,1439221713909,1439221714822,338,400,0,0,0,2,3,1,23,0002-00-0001-52.png,0003-00-0001-09.png
00000014,576,1,1439221715699,1439221716291,924,457,0,0,0,4,3,1,43,0004-00-0001-37.png,0003-00-0000-67.png
00000014,577,0,1439221717550,1439221718052,901,468,0,0,0,3,4,1,34,0003-00-0001-83.png,0004-00-0000-66.png
00000014,578,0,1439221721016,1439221721560,951,411,0,0,0,2,3,1,23,0002-00-0000-23.png,0003-00-0001-26.png
00000014,579,0,1439221725401,1439221726011,886,372,0,0,0,1,2,1,12,0001-00-0000-33.png,0002-00-0000-29.png
00000014,580,1,1439221729963,1439221730463,902,467,0,0,0,5,4,1,54,0005-00-0001-68.png,0004-00-0000-40.png
00000014,581,0,1439221731322,1439221731843,956,401,0,0,0,4,5,1,45,0004-00-0001-28.png,0005-00-0000-35.png
00000014,582,1,1439221734941,1439221735551,878,441,0,0,0,2,1,1,21,0002-00-0001-18.png,0001-00-0001-01.png
00000014,583,1,1439221736472,1439221737073,926,384,0,0,0,4,3,1,43,0004-00-0001-51.png,0003-00-0000-60.png
00000014,584,1,1439221737938,1439221738488,926,383,0,0,0,3,2,1,32,0003-00-0000-03.png,0002-00-0000-70.png
00000014,585,1,1439221739778,1439221740271,918,439,0,0,0,3,2,1,32,0003-00-0000-09.png,0002-00-0001-05.png
00000014,586,1,1439221741153,1439221741189,505,479,0,0,0,4,5,1,45,0004-00-0001-34.png,0005-00-0000-62.png
00000014,587,1,1439221742501,1439221742964,904,376,0,0,0,5,4,1,54,0005-00-0000-52.png,0004-00-0000-54.png
00000014,588,1,1439221743834,1439221744519,331,375,0,0,0,1,2,1,12,0001-00-0000-99.png,0002-00-0001-44.png
00000014,589,1,1439221745790,1439221746627,351,403,0,0,0,2,3,1,23,0002-00-0001-36.png,0003-00-0000-77.png
00000014,590,0,1439221747521,1439221747533,506,438,0,0,0,2,1,1,21,0002-00-0001-36.png,0001-00-0000-62.png
00000014,591,1,1439221750502,1439221751064,944,368,0,0,0,4,3,1,43,0004-00-0000-46.png,0003-00-0001-29.png
00000014,592,0,1439221751893,1439221752461,900,497,0,0,0,3,4,1,34,0003-00-0001-27.png,0004-00-0000-59.png
00000014,593,1,1439221755522,1439221756013,906,464,0,0,0,2,1,1,21,0002-00-0000-69.png,0001-00-0000-48.png
00000014,594,1,1439221757289,1439221757926,320,368,0,0,0,1,2,1,12,0001-00-0000-04.png,0002-00-0000-64.png
00000014,595,0,1439221758880,1439221758896,504,465,0,0,0,5,4,1,54,0005-00-0000-52.png,0004-00-0001-36.png
00000014,596,1,1439221761961,1439221762462,917,374,0,0,0,3,2,1,32,0003-00-0001-33.png,0002-00-0001-75.png
00000014,597,1,1439221763353,1439221764008,327,350,0,0,0,4,5,1,45,0004-00-0000-22.png,0005-00-0000-23.png
00000014,598,1,1439221765112,1439221765686,888,319,0,0,0,4,3,1,43,0004-00-0000-69.png,0003-00-0000-41.png
00000014,599,0,1439221766612,1439221767168,943,375,0,0,0,3,4,1,34,0003-00-0001-43.png,0004-00-0000-32.png
00000014,600,1,1439221770842,1439221771538,305,360,0,0,0,2,3,1,23,0002-00-0000-65.png,0003-00-0001-96.png
00000014,601,0,1439221772485,1439221773011,959,363,0,0,0,3,4,1,34,0003-00-0000-49.png,0004-00-0000-63.png
00000014,602,0,1439221775883,1439221776960,869,341,0,0,0,2,3,1,23,0002-00-0001-21.png,0003-00-0000-30.png
00000014,603,0,1439221780057,1439221780666,926,456,0,0,0,1,2,1,12,0001-00-0000-63.png,0002-00-0000-18.png
00000014,604,1,1439221783561,1439221784329,273,332,0,0,0,4,5,1,45,0004-00-0000-53.png,0005-00-0001-64.png
00000014,605,0,1439221785194,1439221785923,322,379,0,0,0,5,4,1,54,0005-00-0001-35.png,0004-00-0001-29.png
00000014,606,1,1439221788959,1439221789485,896,472,0,0,0,3,2,1,32,0003-00-0001-48.png,0002-00-0001-97.png
00000014,607,0,1439221790412,1439221791117,319,394,0,0,0,2,1,1,21,0002-00-0000-85.png,0001-00-0000-01.png
00000014,608,0,1439221794078,1439221794716,325,334,0,0,0,4,3,1,43,0004-00-0000-94.png,0003-00-0000-20.png
00000014,609,0,1439221798103,1439221798841,868,319,0,0,0,2,3,1,23,0002-00-0001-91.png,0003-00-0000-99.png
00000014,610,0,1439221801686,1439221802254,337,368,0,0,0,2,1,1,21,0002-00-0001-95.png,0001-00-0001-37.png
00000014,611,0,1439221805268,1439221806360,397,398,0,0,0,4,3,1,43,0004-00-0000-13.png,0003-00-0001-50.png
00000014,612,0,1439221809208,1439221810262,898,325,0,0,0,4,5,1,45,0004-00-0001-00.png,0005-00-0000-63.png
00000014,613,0,1439221813206,1439221813784,898,456,0,0,0,1,2,1,12,0001-00-0001-56.png,0002-00-0001-71.png
00000014,614,0,1439221816792,1439221817629,325,345,0,0,0,5,4,1,54,0005-00-0001-00.png,0004-00-0000-08.png
00000014,615,0,1439221820937,1439221820953,490,396,0,0,0,3,2,1,32,0003-00-0000-47.png,0002-00-0000-56.png
00000014,616,1,1439221824130,1439221824161,474,530,0,0,0,3,4,1,34,0003-00-0000-19.png,0004-00-0000-65.png
00000014,617,0,1439221825192,1439221825874,926,370,0,0,0,4,5,1,45,0004-00-0000-68.png,0005-00-0000-12.png
00000014,618,0,1439221828828,1439221829325,870,315,0,0,0,1,2,1,12,0001-00-0000-02.png,0002-00-0000-41.png
00000014,619,0,1439221832171,1439221832786,931,351,0,0,0,2,3,1,23,0002-00-0000-97.png,0003-00-0001-10.png
00000014,620,1,1439221835687,1439221836251,945,338,0,0,0,2,1,1,21,0002-00-0000-05.png,0001-00-0000-73.png
00000014,621,1,1439221837220,1439221837825,917,440,0,0,0,4,3,1,43,0004-00-0000-04.png,0003-00-0001-68.png
00000014,622,1,1439221838739,1439221839283,886,465,0,0,0,3,2,1,32,0003-00-0000-35.png,0002-00-0000-49.png
00000014,623,1,1439221840146,1439221840170,518,430,0,0,0,3,4,1,34,0003-00-0000-27.png,0004-00-0000-26.png
00000014,624,1,1439221841194,1439221841779,900,384,0,0,0,5,4,1,54,0005-00-0001-16.png,0004-00-0001-05.png
00000014,625,0,1439221842723,1439221843765,902,384,0,0,0,1,2,1,12,0001-00-0000-57.png,0002-00-0001-17.png
00000014,626,1,1439221846757,1439221847196,900,449,0,0,0,3,2,1,32,0003-00-0000-21.png,0002-00-0001-27.png
00000014,627,1,1439221848131,1439221848862,414,459,0,0,0,4,5,1,45,0004-00-0000-42.png,0005-00-0000-26.png
00000014,628,1,1439221849889,1439221850910,930,401,0,0,0,4,3,1,43,0004-00-0000-92.png,0003-00-0001-12.png
00000014,629,0,1439221851806,1439221852845,437,464,0,0,0,5,4,1,54,0005-00-0000-85.png,0004-00-0001-06.png
00000014,630,0,1439221855799,1439221856505,925,387,0,0,0,2,3,1,23,0002-00-0001-04.png,0003-00-0001-49.png
00000014,631,0,1439221859874,1439221860540,386,508,0,0,0,2,1,1,21,0002-00-0000-94.png,0001-00-0000-23.png
00000014,632,0,1439221863623,1439221864124,949,370,0,0,0,3,4,1,34,0003-00-0001-34.png,0004-00-0000-37.png
00000014,633,0,1439221867926,1439221867946,464,462,0,0,0,5,4,1,54,0005-00-0001-65.png,0004-00-0000-08.png
00000014,634,1,1439221870915,1439221871472,920,408,0,0,0,2,1,1,21,0002-00-0001-24.png,0001-00-0000-39.png
00000014,635,1,1439221872804,1439221873862,342,394,0,0,0,4,5,1,45,0004-00-0000-15.png,0005-00-0000-84.png
00000014,636,0,1439221874843,1439221875426,888,450,0,0,0,1,2,1,12,0001-00-0000-49.png,0002-00-0000-80.png
00000014,637,1,1439221878458,1439221879014,376,473,0,0,0,3,4,1,34,0003-00-0000-61.png,0004-00-0000-42.png
00000014,638,1,1439221880059,1439221880576,939,373,0,0,0,4,3,1,43,0004-00-0000-96.png,0003-00-0000-37.png
00000014,639,1,1439221881511,1439221882318,928,340,0,0,0,3,2,1,32,0003-00-0000-70.png,0002-00-0000-59.png
00000014,640,1,1439221883270,1439221883970,299,397,0,0,0,2,3,1,23,0002-00-0001-27.png,0003-00-0001-11.png
00000014,641,0,1439221885039,1439221885582,324,371,0,0,0,4,3,1,43,0004-00-0000-54.png,0003-00-0000-63.png
00000014,642,1,1439221888600,1439221889200,336,361,0,0,0,2,3,1,23,0002-00-0001-60.png,0003-00-0000-48.png
00000014,643,0,1439221890166,1439221890937,932,352,0,0,0,1,2,1,12,0001-00-0001-10.png,0002-00-0001-73.png
00000014,644,1,1439221893771,1439221894334,913,466,0,0,0,2,1,1,21,0002-00-0001-24.png,0001-00-0000-42.png
00000014,645,0,1439221895711,1439221896425,353,343,0,0,0,5,4,1,54,0005-00-0001-57.png,0004-00-0000-12.png
00000014,646,0,1439221899496,1439221900521,893,433,0,0,0,3,4,1,34,0003-00-0001-59.png,0004-00-0000-75.png
00000014,647,1,1439221905800,1439221906907,356,396,0,0,0,4,5,1,45,0004-00-0000-42.png,0005-00-0001-10.png
00000014,648,0,1439221907874,1439221908511,342,410,0,0,0,3,2,1,32,0003-00-0001-82.png,0002-00-0000-22.png
00000014,649,0,1439221911621,1439221912546,909,434,0,0,0,4,5,1,45,0004-00-0001-98.png,0005-00-0001-79.png
00000014,650,0,1439221915735,1439221916453,311,390,0,0,0,5,4,1,54,0005-00-0000-02.png,0004-00-0001-31.png
00000014,651,0,1439221919412,1439221919424,493,490,0,0,0,3,2,1,32,0003-00-0001-18.png,0002-00-0000-18.png
00000014,652,0,1439221922414,1439221923557,386,371,0,0,0,4,3,1,43,0004-00-0000-20.png,0003-00-0000-80.png
00000014,653,0,1439221926526,1439221927191,905,307,0,0,0,2,3,1,23,0002-00-0000-64.png,0003-00-0001-63.png
00000014,654,0,1439221930296,1439221931060,389,465,0,0,0,2,1,1,21,0002-00-0001-65.png,0001-00-0001-32.png
00000014,655,0,1439221933969,1439221934559,921,394,0,0,0,1,2,1,12,0001-00-0001-58.png,0002-00-0001-89.png
00000014,656,1,1439221937410,1439221938361,348,447,0,0,0,3,4,1,34,0003-00-0000-28.png,0004-00-0001-05.png
00000014,657,0,1439221939308,1439221939328,495,482,0,0,0,3,2,1,32,0003-00-0000-51.png,0002-00-0000-35.png
00000014,658,1,1439221942165,1439221942185,462,356,0,0,0,2,3,1,23,0002-00-0000-67.png,0003-00-0000-58.png
00000014,659,1,1439221943542,1439221944059,913,398,0,0,0,4,3,1,43,0004-00-0000-76.png,0003-00-0000-76.png
00000014,660,1,1439221945052,1439221945685,323,370,0,0,0,3,4,1,34,0003-00-0001-77.png,0004-00-0001-82.png
00000014,661,0,1439221946681,1439221947344,323,390,0,0,0,5,4,1,54,0005-00-0001-37.png,0004-00-0001-13.png
00000014,662,1,1439221950568,1439221951232,401,358,0,0,0,1,2,1,12,0001-00-0000-65.png,0002-00-0000-60.png
00000014,663,1,1439221952128,1439221952778,370,514,0,0,0,4,5,1,45,0004-00-0001-55.png,0005-00-0001-12.png
00000014,664,0,1439221953707,1439221953759,523,480,0,0,0,2,1,1,21,0002-00-0001-54.png,0001-00-0000-00.png
00000014,665,1,1439221956658,1439221957178,924,333,0,0,0,2,1,1,21,0002-00-0001-19.png,0001-00-0001-92.png
00000014,666,1,1439221958129,1439221958769,321,394,0,0,0,4,5,1,45,0004-00-0000-65.png,0005-00-0000-33.png
00000014,667,1,1439221959818,1439221960581,375,468,0,0,0,3,4,1,34,0003-00-0000-53.png,0004-00-0000-26.png
00000014,668,0,1439221961578,1439221962358,385,469,0,0,0,5,4,1,54,0005-00-0000-00.png,0004-00-0001-35.png
00000014,669,1,1439221965263,1439221965881,341,357,0,0,0,2,3,1,23,0002-00-0000-66.png,0003-00-0000-20.png
00000014,670,1,1439221966896,1439221967440,289,389,0,0,0,1,2,1,12,0001-00-0001-89.png,0002-00-0000-05.png
00000014,671,1,1439221968386,1439221969393,905,402,0,0,0,4,3,1,43,0004-00-0001-91.png,0003-00-0001-49.png
00000014,672,1,1439221970333,1439221970879,888,476,0,0,0,3,2,1,32,0003-00-0001-04.png,0002-00-0001-87.png
00000014,673,1,1439221971772,1439221971792,507,437,0,0,0,1,2,1,12,0001-00-0000-96.png,0002-00-0000-97.png
00000014,674,1,1439221972745,1439221973361,879,480,0,0,0,5,4,1,54,0005-00-0000-39.png,0004-00-0001-93.png
00000014,675,0,1439221974287,1439221974880,360,398,0,0,0,2,1,1,21,0002-00-0000-01.png,0001-00-0001-31.png
00000014,676,1,1439221977893,1439221978490,913,398,0,0,0,3,2,1,32,0003-00-0000-00.png,0002-00-0001-18.png
00000014,677,1,1439221979374,1439221979912,922,368,0,0,0,4,3,1,43,0004-00-0000-07.png,0003-00-0001-63.png
00000014,678,1,1439221980794,1439221980811,521,457,0,0,0,3,4,1,34,0003-00-0000-67.png,0004-00-0001-61.png
00000014,679,1,1439221981851,1439221982552,376,489,0,0,0,2,3,1,23,0002-00-0001-50.png,0003-00-0000-96.png
00000014,680,1,1439221983499,1439221984200,273,397,0,0,0,4,5,1,45,0004-00-0000-50.png,0005-00-0000-44.png
00000014,681,1,1439221985635,1439221986203,912,359,0,0,0,2,1,1,21,0002-00-0001-96.png,0001-00-0001-54.png
00000014,682,1,1439221987156,1439221987749,867,324,0,0,0,4,3,1,43,0004-00-0001-23.png,0003-00-0001-31.png
00000014,683,1,1439221988697,1439221989281,299,398,0,0,0,1,2,1,12,0001-00-0001-63.png,0002-00-0000-53.png
00000014,684,0,1439221990353,1439221991017,415,490,0,0,0,3,2,1,32,0003-00-0000-94.png,0002-00-0000-29.png
00000014,685,1,1439221994211,1439221994247,504,477,0,0,0,3,4,1,34,0003-00-0000-63.png,0004-00-0001-84.png
00000014,686,0,1439221995165,1439221995937,312,397,0,0,0,5,4,1,54,0005-00-0001-29.png,0004-00-0001-24.png
00000014,687,1,1439221998927,1439221999616,332,382,0,0,0,2,3,1,23,0002-00-0000-15.png,0003-00-0000-27.png
00000014,688,0,1439222000641,1439222001264,939,358,0,0,0,4,5,1,45,0004-00-0000-06.png,0005-00-0000-71.png
00000014,689,1,1439222004327,1439222005020,325,358,0,0,0,4,5,1,45,0004-00-0001-16.png,0005-00-0000-66.png
00000014,690,1,1439222006017,1439222006569,912,429,0,0,0,4,3,1,43,0004-00-0001-69.png,0003-00-0000-39.png
00000014,691,0,1439222007489,1439222008184,299,371,0,0,0,2,1,1,21,0002-00-0000-55.png,0001-00-0000-47.png
00000014,692,1,1439222011144,1439222011952,334,371,0,0,0,1,2,1,12,0001-00-0000-46.png,0002-00-0000-30.png
00000014,693,0,1439222013222,1439222013956,376,345,0,0,0,3,2,1,32,0003-00-0000-49.png,0002-00-0000-64.png
00000014,694,1,1439222016957,1439222016965,518,371,0,0,0,3,4,1,34,0003-00-0000-39.png,0004-00-0000-72.png
00000014,695,1,1439222017943,1439222018490,914,398,0,0,0,5,4,1,54,0005-00-0001-98.png,0004-00-0001-47.png
00000014,696,1,1439222019373,1439222019907,390,490,0,0,0,2,3,1,23,0002-00-0001-46.png,0003-00-0000-70.png
00000014,697,0,1439222020905,1439222020972,516,560,0,0,0,4,3,1,43,0004-00-0001-49.png,0003-00-0000-13.png
00000014,698,1,1439222023861,1439222024359,337,397,0,0,0,1,2,1,12,0001-00-0000-60.png,0002-00-0000-46.png
00000014,699,1,1439222025347,1439222025954,894,353,0,0,0,3,2,1,32,0003-00-0001-98.png,0002-00-0001-02.png
00000014,700,0,1439222026835,1439222026855,523,453,0,0,0,5,4,1,54,0005-00-0000-40.png,0004-00-0000-97.png
00000014,701,0,1439222029824,1439222030527,310,375,0,0,0,2,1,1,21,0002-00-0001-00.png,0001-00-0000-26.png
00000014,702,1,1439222033411,1439222033435,516,359,0,0,0,3,4,1,34,0003-00-0000-72.png,0004-00-0000-85.png
00000014,703,1,1439222034451,1439222035101,350,371,0,0,0,2,3,1,23,0002-00-0000-58.png,0003-00-0001-52.png
00000014,704,1,1439222036130,1439222036166,506,510,0,0,0,4,5,1,45,0004-00-0001-51.png,0005-00-0000-34.png
00000014,705,1,1439222037611,1439222038232,391,502,0,0,0,4,5,1,45,0004-00-0000-35.png,0005-00-0000-94.png
00000014,706,1,1439222039252,1439222039842,931,368,0,0,0,3,2,1,32,0003-00-0000-23.png,0002-00-0000-98.png
00000014,707,1,1439222040770,1439222041454,330,411,0,0,0,3,4,1,34,0003-00-0000-86.png,0004-00-0001-67.png
00000014,708,1,1439222042480,1439222043103,904,374,0,0,0,2,1,1,21,0002-00-0000-76.png,0001-00-0001-64.png
00000014,709,0,1439222044107,1439222044683,379,391,0,0,0,4,3,1,43,0004-00-0001-65.png,0003-00-0000-05.png
00000014,710,0,1439222047646,1439222047658,455,460,0,0,0,5,4,1,54,0005-00-0001-69.png,0004-00-0000-57.png
00000014,711,1,1439222050755,1439222051264,338,383,0,0,0,1,2,1,12,0001-00-0000-55.png,0002-00-0000-13.png
00000014,712,1,1439222052258,1439222052859,358,403,0,0,0,2,3,1,23,0002-00-0000-78.png,0003-00-0001-45.png
00000014,713,0,1439222053857,1439222054540,335,387,0,0,0,5,4,1,54,0005-00-0000-07.png,0004-00-0001-58.png
00000014,714,0,1439222057465,1439222057481,498,415,0,0,0,4,3,1,43,0004-00-0001-37.png,0003-00-0000-21.png
00000014,715,0,1439222060524,1439222061195,920,434,0,0,0,2,3,1,23,0002-00-0000-21.png,0003-00-0001-59.png
00000014,716,0,1439222064262,1439222064286,520,436,0,0,0,2,1,1,21,0002-00-0001-40.png,0001-00-0001-22.png
00000014,717,0,1439222067759,1439222068336,920,359,0,0,0,3,4,1,34,0003-00-0001-24.png,0004-00-0000-71.png
00000014,718,1,1439222071346,1439222071394,505,450,0,0,0,1,2,1,12,0001-00-0001-41.png,0002-00-0001-22.png
00000014,719,1,1439222072343,1439222073068,332,385,0,0,0,4,5,1,45,0004-00-0001-09.png,0005-00-0000-62.png
00000014,720,1,1439222074102,1439222074700,941,349,0,0,0,3,2,1,32,0003-00-0001-69.png,0002-00-0001-05.png
00000014,721,0,1439222076079,1439222076684,341,393,0,0,0,4,3,1,43,0004-00-0001-76.png,0003-00-0001-70.png
00000014,722,1,1439222079745,1439222079796,519,548,0,0,0,3,4,1,34,0003-00-0000-32.png,0004-00-0000-36.png
00000014,723,0,1439222080752,1439222081437,310,389,0,0,0,3,2,1,32,0003-00-0000-09.png,0002-00-0001-29.png
00000014,724,1,1439222084358,1439222084386,512,417,0,0,0,4,5,1,45,0004-00-0001-96.png,0005-00-0001-81.png
00000014,725,1,1439222085332,1439222085925,299,384,0,0,0,2,3,1,23,0002-00-0000-38.png,0003-00-0001-53.png
00000014,726,0,1439222086902,1439222087536,385,483,0,0,0,5,4,1,54,0005-00-0001-59.png,0004-00-0000-18.png
00000014,727,1,1439222090935,1439222090959,516,451,0,0,0,1,2,1,12,0001-00-0001-46.png,0002-00-0001-03.png
00000014,728,1,1439222091947,1439222092522,887,357,0,0,0,2,1,1,21,0002-00-0001-03.png,0001-00-0000-49.png
00000014,729,1,1439222093452,1439222094115,376,358,0,0,0,2,3,1,23,0002-00-0000-08.png,0003-00-0000-64.png
00000014,730,1,1439222095090,1439222095669,903,401,0,0,0,3,2,1,32,0003-00-0001-52.png,0002-00-0001-39.png
00000014,731,1,1439222096628,1439222098016,894,455,0,0,0,5,4,1,54,0005-00-0001-78.png,0004-00-0001-82.png
00000014,732,1,1439222098935,1439222099586,348,398,0,0,0,3,4,1,34,0003-00-0000-73.png,0004-00-0000-81.png
00000014,733,0,1439222100566,1439222101169,401,490,0,0,0,2,1,1,21,0002-00-0000-24.png,0001-00-0001-96.png
00000014,734,0,1439222104889,1439222105509,342,379,0,0,0,4,3,1,43,0004-00-0001-80.png,0003-00-0000-28.png
00000014,735,0,1439222108796,1439222109678,870,341,0,0,0,4,5,1,45,0004-00-0000-87.png,0005-00-0000-07.png
00000014,736,1,1439222112947,1439222113087,510,524,0,0,0,1,2,1,12,0001-00-0001-07.png,0002-00-0000-41.png
00000014,737,0,1439222114042,1439222114058,516,436,0,0,0,5,4,1,54,0005-00-0001-53.png,0004-00-0001-09.png
00000014,738,1,1439222116970,1439222116990,517,331,0,0,0,2,3,1,23,0002-00-0000-20.png,0003-00-0001-87.png
00000014,739,1,1439222117936,1439222117952,518,447,0,0,0,1,2,1,12,0001-00-0001-31.png,0002-00-0001-88.png
00000014,740,0,1439222119325,1439222119895,900,365,0,0,0,3,4,1,34,0003-00-0000-60.png,0004-00-0000-62.png
00000014,741,1,1439222123013,1439222123696,870,498,0,0,0,3,2,1,32,0003-00-0001-06.png,0002-00-0000-26.png
00000014,742,1,1439222124635,1439222125166,874,489,0,0,0,4,3,1,43,0004-00-0000-33.png,0003-00-0000-85.png
00000014,743,1,1439222126035,1439222126668,919,376,0,0,0,2,1,1,21,0002-00-0001-78.png,0001-00-0000-35.png
00000014,744,1,1439222127622,1439222128338,409,492,0,0,0,4,5,1,45,0004-00-0001-76.png,0005-00-0001-07.png
00000014,745,0,1439222129397,1439222129974,895,379,0,0,0,1,2,1,12,0001-00-0000-56.png,0002-00-0001-36.png
00000014,746,0,1439222132859,1439222133585,921,342,0,0,0,2,3,1,23,0002-00-0001-07.png,0003-00-0001-28.png
00000014,747,0,1439222136491,1439222136685,522,427,0,0,0,5,4,1,54,0005-00-0000-67.png,0004-00-0000-08.png
00000014,748,0,1439222139567,1439222139579,513,367,0,0,0,2,1,1,21,0002-00-0001-80.png,0001-00-0001-16.png
00000014,749,1,1439222142603,1439222142651,520,463,0,0,0,3,4,1,34,0003-00-0001-95.png,0004-00-0000-14.png
00000014,750,1,1439222143566,1439222143594,500,438,0,0,0,4,5,1,45,0004-00-0000-16.png,0005-00-0001-14.png
00000014,751,1,1439222144639,1439222145421,888,423,0,0,0,4,3,1,43,0004-00-0001-35.png,0003-00-0000-71.png
00000014,752,0,1439222146307,1439222146335,513,436,0,0,0,3,2,1,32,0003-00-0001-22.png,0002-00-0000-49.png
00000014,753,1,1439222149329,1439222149892,917,377,0,0,0,2,1,1,21,0002-00-0001-27.png,0001-00-0001-92.png
00000014,754,1,1439222150768,1439222150784,510,430,0,0,0,4,5,1,45,0004-00-0000-44.png,0005-00-0001-99.png
00000014,755,1,1439222151863,1439222152414,897,367,0,0,0,5,4,1,54,0005-00-0000-50.png,0004-00-0001-18.png
00000014,756,1,1439222153324,1439222154456,947,367,0,0,0,3,2,1,32,0003-00-0001-53.png,0002-00-0001-54.png
00000014,757,1,1439222155341,1439222156020,214,462,0,0,0,2,3,1,23,0002-00-0000-45.png,0003-00-0000-85.png
00000014,758,0,1439222157742,1439222158207,877,391,0,0,0,3,4,1,34,0003-00-0000-46.png,0004-00-0001-01.png
00000014,759,1,1439222161769,1439222162440,330,338,0,0,0,1,2,1,12,0001-00-0000-27.png,0002-00-0001-43.png
00000014,760,1,1439222163419,1439222164459,875,410,0,0,0,4,3,1,43,0004-00-0001-11.png,0003-00-0000-98.png
00000014,761,0,1439222165773,1439222166246,937,333,0,0,0,2,3,1,23,0002-00-0000-06.png,0003-00-0001-15.png
00000014,762,1,1439222169570,1439222169658,518,535,0,0,0,1,2,1,12,0001-00-0001-60.png,0002-00-0001-66.png
00000014,763,1,1439222170562,1439222171060,876,384,0,0,0,2,1,1,21,0002-00-0000-68.png,0001-00-0001-60.png
00000014,764,0,1439222172043,1439222172682,894,441,0,0,0,3,4,1,34,0003-00-0000-34.png,0004-00-0000-38.png
00000014,765,1,1439222175740,1439222176826,922,392,0,0,0,5,4,1,54,0005-00-0000-90.png,0004-00-0000-36.png
00000014,766,1,1439222177751,1439222178442,903,362,0,0,0,3,2,1,32,0003-00-0000-11.png,0002-00-0000-92.png
00000014,767,1,1439222179391,1439222180085,310,358,0,0,0,4,5,1,45,0004-00-0001-50.png,0005-00-0000-27.png
00000014,768,1,1439222181096,1439222181824,876,468,0,0,0,4,3,1,43,0004-00-0001-27.png,0003-00-0001-30.png
00000014,769,0,1439222182710,1439222183490,876,429,0,0,0,4,5,1,45,0004-00-0001-82.png,0005-00-0000-46.png
00000014,770,1,1439222186353,1439222187046,364,393,0,0,0,3,4,1,34,0003-00-0001-30.png,0004-00-0000-67.png
00000014,771,1,1439222187975,1439222188003,522,428,0,0,0,1,2,1,12,0001-00-0000-72.png,0002-00-0001-10.png
00000014,772,1,1439222189039,1439222190488,875,488,0,0,0,3,2,1,32,0003-00-0000-50.png,0002-00-0001-44.png
00000014,773,1,1439222191404,1439222192020,908,387,0,0,0,5,4,1,54,0005-00-0001-75.png,0004-00-0000-49.png
00000014,774,1,1439222192914,1439222193490,918,416,0,0,0,2,1,1,21,0002-00-0000-35.png,0001-00-0001-27.png
00000014,775,1,1439222194423,1439222195116,339,387,0,0,0,2,3,1,23,0002-00-0001-23.png,0003-00-0001-45.png
00000014,776,0,1439222196175,1439222196702,340,397,0,0,0,4,3,1,43,0004-00-0001-14.png,0003-00-0001-62.png
00000014,777,0,1439222199899,1439222200479,917,418,0,0,0,2,3,1,23,0002-00-0001-35.png,0003-00-0001-07.png
00000014,778,0,1439222203419,1439222204137,313,391,0,0,0,3,2,1,32,0003-00-0000-71.png,0002-00-0001-78.png
00000014,779,1,1439222207273,1439222207857,925,360,0,0,0,5,4,1,54,0005-00-0001-26.png,0004-00-0000-71.png
00000014,780,1,1439222208876,1439222209556,341,354,0,0,0,3,4,1,34,0003-00-0001-59.png,0004-00-0000-00.png
00000014,781,0,1439222210505,1439222210525,521,430,0,0,0,4,3,1,43,0004-00-0000-57.png,0003-00-0000-30.png
00000014,782,1,1439222213795,1439222213839,505,491,0,0,0,4,5,1,45,0004-00-0001-38.png,0005-00-0000-31.png
00000014,783,0,1439222214807,1439222215531,913,332,0,0,0,1,2,1,12,0001-00-0001-29.png,0002-00-0001-73.png
00000014,784,0,1439222218582,1439222218590,491,385,0,0,0,2,1,1,21,0002-00-0001-86.png,0001-00-0001-57.png
00000014,785,0,1439222222957,1439222223682,287,341,0,0,0,3,2,1,32,0003-00-0001-26.png,0002-00-0000-69.png
00000014,786,1,1439222226642,1439222226662,456,383,0,0,0,3,4,1,34,0003-00-0001-74.png,0004-00-0000-54.png
00000014,787,1,1439222227609,1439222228137,902,390,0,0,0,4,3,1,43,0004-00-0001-20.png,0003-00-0000-85.png
00000014,788,1,1439222229059,1439222229079,510,434,0,0,0,1,2,1,12,0001-00-0001-18.png,0002-00-0000-41.png
00000014,789,1,1439222230489,1439222231385,927,357,0,0,0,5,4,1,54,0005-00-0000-11.png,0004-00-0000-43.png
00000014,790,1,1439222232297,1439222232309,514,423,0,0,0,2,3,1,23,0002-00-0001-74.png,0003-00-0001-27.png
00000014,791,1,1439222233272,1439222233296,504,462,0,0,0,4,5,1,45,0004-00-0001-31.png,0005-00-0001-53.png
00000014,792,0,1439222234305,1439222234887,331,396,0,0,0,2,1,1,21,0002-00-0000-81.png,0001-00-0001-68.png
00000014,793,1,1439222237983,1439222238715,349,367,0,0,0,2,3,1,23,0002-00-0000-79.png,0003-00-0000-54.png
00000014,794,1,1439222239634,1439222240345,376,358,0,0,0,4,5,1,45,0004-00-0001-60.png,0005-00-0000-45.png
00000014,795,1,1439222241394,1439222242020,879,402,0,0,0,3,2,1,32,0003-00-0000-97.png,0002-00-0000-31.png
00000014,796,0,1439222242941,1439222243712,368,471,0,0,0,5,4,1,54,0005-00-0001-08.png,0004-00-0000-90.png
00000014,797,1,1439222246608,1439222247109,939,332,0,0,0,4,3,1,43,0004-00-0000-88.png,0003-00-0000-67.png
00000014,798,0,1439222248160,1439222248686,904,375,0,0,0,1,2,1,12,0001-00-0000-82.png,0002-00-0000-99.png
00000014,799,0,1439222251554,1439222251580,513,394,0,0,0,2,1,1,21,0002-00-0000-62.png,0001-00-0001-28.png
00000014,800,1,1439222254538,1439222254562,390,516,0,0,0,3,4,1,34,0003-00-0001-65.png,0004-00-0001-01.png
00000014,801,0,1439222255730,1439222256456,390,483,0,0,0,2,1,1,21,0002-00-0000-28.png,0001-00-0001-60.png
00000014,802,0,1439222259676,1439222259716,498,479,0,0,0,3,2,1,32,0003-00-0001-13.png,0002-00-0001-41.png
00000014,803,1,1439222262569,1439222262581,486,340,0,0,0,4,5,1,45,0004-00-0001-05.png,0005-00-0000-27.png
00000014,804,0,1439222263565,1439222263581,513,462,0,0,0,5,4,1,54,0005-00-0001-98.png,0004-00-0001-38.png
00000014,805,1,1439222266475,1439222267100,370,489,0,0,0,2,3,1,23,0002-00-0000-28.png,0003-00-0001-62.png
00000014,806,1,1439222268025,1439222268886,297,329,0,0,0,1,2,1,12,0001-00-0001-21.png,0002-00-0000-01.png
00000014,807,0,1439222269794,1439222269822,498,470,0,0,0,4,3,1,43,0004-00-0001-46.png,0003-00-0001-87.png
00000014,808,1,1439222272713,1439222272737,498,410,0,0,0,3,4,1,34,0003-00-0001-05.png,0004-00-0000-77.png
00000014,809,1,1439222273710,1439222274717,382,410,0,0,0,1,2,1,12,0001-00-0001-10.png,0002-00-0000-15.png
00000014,810,1,1439222275597,1439222276166,875,371,0,0,0,4,3,1,43,0004-00-0001-16.png,0003-00-0001-76.png
00000014,811,1,1439222277068,1439222277681,316,405,0,0,0,3,4,1,34,0003-00-0001-55.png,0004-00-0001-67.png
00000014,812,1,1439222279024,1439222279044,504,479,0,0,0,2,3,1,23,0002-00-0001-85.png,0003-00-0000-09.png
00000014,813,1,1439222279970,1439222280679,299,397,0,0,0,4,5,1,45,0004-00-0001-04.png,0005-00-0000-88.png
00000014,814,0,1439222281681,1439222282345,407,483,0,0,0,3,2,1,32,0003-00-0000-19.png,0002-00-0000-18.png
00000014,815,1,1439222285475,1439222285967,925,410,0,0,0,2,1,1,21,0002-00-0000-90.png,0001-00-0001-16.png
00000014,816,0,1439222286845,1439222287612,319,409,0,0,0,5,4,1,54,0005-00-0000-19.png,0004-00-0001-94.png
00000014,817,0,1439222290650,1439222291356,883,460,0,0,0,3,4,1,34,0003-00-0001-59.png,0004-00-0000-22.png
00000014,818,0,1439222294765,1439222295279,915,393,0,0,0,1,2,1,12,0001-00-0001-83.png,0002-00-0001-07.png
00000014,819,0,1439222298442,1439222298956,313,414,0,0,0,4,3,1,43,0004-00-0000-52.png,0003-00-0001-52.png
00000014,820,0,1439222301912,1439222302755,925,360,0,0,0,4,5,1,45,0004-00-0001-26.png,0005-00-0001-00.png
00000014,821,1,1439222306304,1439222306900,328,354,0,0,0,2,3,1,23,0002-00-0000-74.png,0003-00-0000-03.png
00000014,822,1,1439222307887,1439222308557,900,377,0,0,0,3,2,1,32,0003-00-0000-60.png,0002-00-0001-54.png
00000014,823,1,1439222309497,1439222310073,891,394,0,0,0,5,4,1,54,0005-00-0001-42.png,0004-00-0000-62.png
00000014,824,0,1439222310945,1439222311631,350,358,0,0,0,2,1,1,21,0002-00-0001-41.png,0001-00-0000-02.png
00000014,825,0,1439222314723,1439222315485,312,412,0,0,0,3,2,1,32,0003-00-0001-61.png,0002-00-0000-56.png
00000014,826,1,1439222318361,1439222318389,489,486,0,0,0,4,5,1,45,0004-00-0000-67.png,0005-00-0000-71.png
00000014,827,0,1439222319284,1439222319304,518,460,0,0,0,5,4,1,54,0005-00-0001-25.png,0004-00-0000-93.png
00000014,828,0,1439222322491,1439222323090,874,437,0,0,0,2,3,1,23,0002-00-0000-71.png,0003-00-0000-94.png
00000014,829,1,1439222325974,1439222326506,301,367,0,0,0,1,2,1,12,0001-00-0001-32.png,0002-00-0000-82.png
00000014,830,1,1439222327463,1439222328292,914,372,0,0,0,2,1,1,21,0002-00-0000-51.png,0001-00-0000-57.png
00000014,831,0,1439222329232,1439222329784,386,482,0,0,0,4,3,1,43,0004-00-0001-62.png,0003-00-0001-92.png
00000014,832,1,1439222332756,1439222333485,263,388,0,0,0,3,4,1,34,0003-00-0000-17.png,0004-00-0000-41.png
00000014,833,1,1439222334440,1439222334460,507,456,0,0,0,2,3,1,23,0002-00-0001-41.png,0003-00-0001-98.png
00000014,834,1,1439222335473,1439222336068,306,390,0,0,0,1,2,1,12,0001-00-0001-32.png,0002-00-0000-42.png
00000014,835,1,1439222337083,1439222337715,900,383,0,0,0,2,1,1,21,0002-00-0000-09.png,0001-00-0001-67.png
00000014,836,0,1439222338581,1439222338605,517,444,0,0,0,3,2,1,32,0003-00-0001-32.png,0002-00-0000-06.png
00000014,837,0,1439222341661,1439222342232,299,396,0,0,0,4,3,1,43,0004-00-0000-06.png,0003-00-0000-40.png
00000014,838,1,1439222345178,1439222345719,920,390,0,0,0,5,4,1,54,0005-00-0001-91.png,0004-00-0001-54.png
00000014,839,1,1439222346562,1439222347479,351,369,0,0,0,4,5,1,45,0004-00-0000-01.png,0005-00-0001-37.png
00000014,840,1,1439222348857,1439222348877,504,462,0,0,0,3,4,1,34,0003-00-0000-32.png,0004-00-0000-31.png
00000014,841,1,1439222349912,1439222350630,357,374,0,0,0,4,5,1,45,0004-00-0000-43.png,0005-00-0000-73.png
00000014,842,0,1439222351561,1439222352386,376,371,0,0,0,5,4,1,54,0005-00-0001-91.png,0004-00-0000-27.png
00000014,843,1,1439222355405,1439222356216,222,436,0,0,0,3,4,1,34,0003-00-0001-67.png,0004-00-0000-19.png
00000014,844,1,1439222357126,1439222357684,901,408,0,0,0,4,3,1,43,0004-00-0001-88.png,0003-00-0000-37.png
00000014,845,0,1439222358587,1439222359232,325,424,0,0,0,3,2,1,32,0003-00-0000-77.png,0002-00-0000-97.png
00000014,846,0,1439222362168,1439222362974,336,371,0,0,0,2,1,1,21,0002-00-0001-56.png,0001-00-0001-91.png
00000014,847,1,1439222366280,1439222366875,416,540,0,0,0,2,3,1,23,0002-00-0000-82.png,0003-00-0000-63.png
00000014,848,1,1439222367809,1439222367825,519,462,0,0,0,1,2,1,12,0001-00-0001-76.png,0002-00-0000-83.png
00000014,849,0,1439222368914,1439222369436,925,413,0,0,0,2,3,1,23,0002-00-0000-60.png,0003-00-0001-32.png
00000014,850,1,1439222372689,1439222373316,878,489,0,0,0,5,4,1,54,0005-00-0001-21.png,0004-00-0000-11.png
00000014,851,1,1439222374310,1439222374831,872,483,0,0,0,4,3,1,43,0004-00-0000-04.png,0003-00-0001-60.png
00000014,852,1,1439222375760,1439222376548,401,384,0,0,0,4,5,1,45,0004-00-0000-42.png,0005-00-0000-82.png
00000014,853,1,1439222377489,1439222377517,513,462,0,0,0,3,4,1,34,0003-00-0000-46.png,0004-00-0001-43.png
00000014,854,0,1439222378502,1439222379055,876,495,0,0,0,1,2,1,12,0001-00-0001-45.png,0002-00-0000-81.png
00000014,855,1,1439222382526,1439222382996,883,474,0,0,0,3,2,1,32,0003-00-0000-55.png,0002-00-0000-09.png
00000014,856,1,1439222384274,1439222385066,905,349,0,0,0,2,1,1,21,0002-00-0000-60.png,0001-00-0001-09.png
00000014,857,1,1439222385978,1439222387028,878,359,0,0,0,3,2,1,32,0003-00-0000-11.png,0002-00-0001-81.png
00000014,858,1,1439222387914,1439222389570,372,396,0,0,0,3,4,1,34,0003-00-0001-06.png,0004-00-0001-17.png
00000014,859,1,1439222390508,1439222391167,362,424,0,0,0,2,3,1,23,0002-00-0001-33.png,0003-00-0001-97.png
00000014,860,0,1439222392147,1439222392731,909,364,0,0,0,4,5,1,45,0004-00-0001-75.png,0005-00-0001-02.png
00000014,861,1,1439222395802,1439222396307,896,472,0,0,0,5,4,1,54,0005-00-0000-50.png,0004-00-0000-32.png
00000014,862,0,1439222397195,1439222397919,422,510,0,0,0,4,3,1,43,0004-00-0001-85.png,0003-00-0000-59.png
00000014,863,0,1439222400863,1439222401389,917,391,0,0,0,1,2,1,12,0001-00-0000-43.png,0002-00-0001-03.png
00000014,864,1,1439222404750,1439222405255,862,462,0,0,0,2,1,1,21,0002-00-0000-05.png,0001-00-0001-44.png
00000014,865,0,1439222406210,1439222406794,874,501,0,0,0,2,3,1,23,0002-00-0000-60.png,0003-00-0000-96.png
00000014,866,1,1439222409776,1439222410799,925,392,0,0,0,3,2,1,32,0003-00-0000-42.png,0002-00-0001-92.png
00000014,867,1,1439222411715,1439222412483,885,377,0,0,0,2,1,1,21,0002-00-0001-31.png,0001-00-0001-66.png
00000014,868,1,1439222413394,1439222414022,376,358,0,0,0,3,4,1,34,0003-00-0001-07.png,0004-00-0001-44.png
00000014,869,1,1439222415004,1439222415600,865,359,0,0,0,4,3,1,43,0004-00-0000-33.png,0003-00-0000-61.png
00000014,870,0,1439222416575,1439222417310,903,377,0,0,0,4,5,1,45,0004-00-0000-41.png,0005-00-0001-59.png
00000014,871,0,1439222420228,1439222421089,913,358,0,0,0,1,2,1,12,0001-00-0000-25.png,0002-00-0001-67.png
00000014,872,1,1439222424005,1439222424553,929,337,0,0,0,5,4,1,54,0005-00-0001-94.png,0004-00-0000-23.png
00000014,873,0,1439222425504,1439222426118,427,384,0,0,0,2,1,1,21,0002-00-0000-54.png,0001-00-0000-24.png
00000014,874,1,1439222429152,1439222429722,328,389,0,0,0,4,5,1,45,0004-00-0000-34.png,0005-00-0001-94.png
00000014,875,1,1439222430716,1439222431468,286,422,0,0,0,3,4,1,34,0003-00-0000-47.png,0004-00-0000-94.png
00000014,876,1,1439222432424,1439222432972,325,437,0,0,0,2,3,1,23,0002-00-0000-76.png,0003-00-0000-70.png
00000014,877,0,1439222433884,1439222434584,893,478,0,0,0,1,2,1,12,0001-00-0000-92.png,0002-00-0001-97.png
00000014,878,1,1439222437424,1439222438009,899,423,0,0,0,4,3,1,43,0004-00-0001-75.png,0003-00-0001-13.png
00000014,879,0,1439222438872,1439222438888,520,444,0,0,0,5,4,1,54,0005-00-0001-90.png,0004-00-0000-88.png
00000014,880,1,1439222441804,1439222442334,931,375,0,0,0,3,2,1,32,0003-00-0000-40.png,0002-00-0001-75.png
00000014,881,0,1439222443198,1439222444158,950,456,0,0,0,3,4,1,34,0003-00-0001-06.png,0004-00-0001-09.png
00000014,882,0,1439222447022,1439222447042,515,503,0,0,0,5,4,1,54,0005-00-0001-49.png,0004-00-0001-20.png
00000014,883,1,1439222449963,1439222450567,887,502,0,0,0,2,1,1,21,0002-00-0001-89.png,0001-00-0000-29.png
00000014,884,0,1439222451483,1439222452055,905,349,0,0,0,4,5,1,45,0004-00-0001-98.png,0005-00-0000-99.png
00000014,885,0,1439222455072,1439222455840,312,387,0,0,0,4,3,1,43,0004-00-0000-99.png,0003-00-0000-33.png
00000014,886,1,1439222459217,1439222459233,518,475,0,0,0,2,3,1,23,0002-00-0001-61.png,0003-00-0001-62.png
00000014,887,1,1439222460221,1439222460860,363,377,0,0,0,1,2,1,12,0001-00-0001-00.png,0002-00-0000-13.png
00000014,888,1,1439222461747,1439222462357,900,397,0,0,0,3,2,1,32,0003-00-0001-85.png,0002-00-0001-49.png
00000014,889,0,1439222463229,1439222463281,519,449,0,0,0,3,2,1,32,0003-00-0001-03.png,0002-00-0001-57.png
00000014,890,0,1439222466459,1439222467085,340,399,0,0,0,5,4,1,54,0005-00-0001-21.png,0004-00-0001-24.png
00000014,891,0,1439222470515,1439222470527,515,486,0,0,0,2,1,1,21,0002-00-0000-80.png,0001-00-0000-98.png
00000014,892,1,1439222473454,1439222474114,311,418,0,0,0,1,2,1,12,0001-00-0000-88.png,0002-00-0000-62.png
00000014,893,1,1439222475017,1439222475727,299,397,0,0,0,2,3,1,23,0002-00-0000-60.png,0003-00-0000-25.png
00000014,894,1,1439222476646,1439222476682,509,470,0,0,0,3,4,1,34,0003-00-0000-81.png,0004-00-0000-67.png
00000014,895,1,1439222477630,1439222478372,363,384,0,0,0,4,5,1,45,0004-00-0001-82.png,0005-00-0000-11.png
00000014,896,0,1439222479381,1439222480402,400,396,0,0,0,4,3,1,43,0004-00-0000-27.png,0003-00-0000-35.png
00000014,897,0,1439222483333,1439222484027,386,466,0,0,0,4,3,1,43,0004-00-0001-64.png,0003-00-0001-79.png
00000014,898,1,1439222486940,1439222487543,320,393,0,0,0,1,2,1,12,0001-00-0001-97.png,0002-00-0001-65.png
00000014,899,0,1439222488472,1439222489084,342,435,0,0,0,2,1,1,21,0002-00-0000-76.png,0001-00-0001-21.png
00000014,900,1,1439222492159,1439222492179,523,525,0,0,0,2,3,1,23,0002-00-0000-83.png,0003-00-0001-96.png
00000014,901,1,1439222493102,1439222493748,326,382,0,0,0,3,4,1,34,0003-00-0001-88.png,0004-00-0001-66.png
00000014,902,1,1439222494632,1439222495310,316,407,0,0,0,4,5,1,45,0004-00-0001-86.png,0005-00-0001-61.png
00000014,903,0,1439222496264,1439222496288,519,463,0,0,0,3,2,1,32,0003-00-0000-19.png,0002-00-0001-98.png
00000014,904,0,1439222499312,1439222499391,519,541,0,0,0,5,4,1,54,0005-00-0000-92.png,0004-00-0000-34.png
00000014,905,1,1439222502765,1439222503742,895,342,0,0,0,3,2,1,32,0003-00-0001-04.png,0002-00-0000-89.png
00000014,906,0,1439222504620,1439222505278,369,389,0,0,0,4,3,1,43,0004-00-0000-79.png,0003-00-0000-64.png
00000014,907,0,1439222517088,1439222517825,913,347,0,0,0,4,5,1,45,0004-00-0000-22.png,0005-00-0001-09.png
00000014,908,1,1439222520732,1439222521405,948,349,0,0,0,5,4,1,54,0005-00-0000-39.png,0004-00-0001-52.png
00000014,909,0,1439222522342,1439222522941,892,485,0,0,0,3,4,1,34,0003-00-0001-11.png,0004-00-0001-74.png
00000014,910,1,1439222526048,1439222526852,266,369,0,0,0,1,2,1,12,0001-00-0000-18.png,0002-00-0000-56.png
00000014,911,0,1439222527818,1439222528443,350,410,0,0,0,2,1,1,21,0002-00-0001-21.png,0001-00-0001-87.png
00000014,912,1,1439222531415,1439222532017,320,405,0,0,0,2,3,1,23,0002-00-0000-80.png,0003-00-0000-60.png
00000014,913,0,1439222532987,1439222533567,376,372,0,0,0,2,1,1,21,0002-00-0000-52.png,0001-00-0001-79.png
00000014,914,0,1439222536672,1439222536692,523,504,0,0,0,4,3,1,43,0004-00-0000-44.png,0003-00-0000-03.png
00000014,915,1,1439222539593,1439222540300,366,492,0,0,0,4,5,1,45,0004-00-0001-37.png,0005-00-0001-52.png
00000014,916,1,1439222541152,1439222541776,309,415,0,0,0,2,3,1,23,0002-00-0000-99.png,0003-00-0001-76.png
00000014,917,0,1439222542752,1439222543346,892,470,0,0,0,1,2,1,12,0001-00-0001-62.png,0002-00-0001-59.png
00000014,918,1,1439222546341,1439222546957,337,396,0,0,0,3,4,1,34,0003-00-0001-90.png,0004-00-0000-90.png
00000014,919,0,1439222547902,1439222548506,389,503,0,0,0,3,2,1,32,0003-00-0000-43.png,0002-00-0000-48.png
00000014,920,0,1439222551386,1439222551422,468,446,0,0,0,5,4,1,54,0005-00-0000-08.png,0004-00-0001-93.png
00000014,921,1,1439222554289,1439222554992,296,365,0,0,0,1,2,1,12,0001-00-0001-25.png,0002-00-0000-91.png
00000014,922,1,1439222555962,1439222557096,904,375,0,0,0,3,2,1,32,0003-00-0001-26.png,0002-00-0001-35.png
00000014,923,1,1439222558068,1439222558601,258,482,0,0,0,3,4,1,34,0003-00-0001-82.png,0004-00-0001-75.png
00000014,924,1,1439222559647,1439222560199,932,363,0,0,0,4,3,1,43,0004-00-0000-26.png,0003-00-0000-90.png
00000014,925,1,1439222561078,1439222561098,522,486,0,0,0,2,3,1,23,0002-00-0000-86.png,0003-00-0000-31.png
00000014,926,1,1439222562122,1439222562713,925,386,0,0,0,2,1,1,21,0002-00-0000-60.png,0001-00-0001-79.png
00000014,927,1,1439222563591,1439222563615,512,445,0,0,0,4,5,1,45,0004-00-0000-41.png,0005-00-0001-37.png
00000014,928,1,1439222564577,1439222565119,916,399,0,0,0,5,4,1,54,0005-00-0001-01.png,0004-00-0000-06.png
00000014,929,0,1439222566057,1439222567182,421,390,0,0,0,2,1,1,21,0002-00-0001-23.png,0001-00-0001-46.png
00000014,930,0,1439222570228,1439222570805,977,391,0,0,0,2,3,1,23,0002-00-0001-47.png,0003-00-0001-26.png
00000014,931,1,1439222574205,1439222574784,351,394,0,0,0,1,2,1,12,0001-00-0000-54.png,0002-00-0001-99.png
00000014,932,1,1439222576131,1439222576658,914,372,0,0,0,5,4,1,54,0005-00-0001-88.png,0004-00-0001-49.png
00000014,933,1,1439222577544,1439222578180,341,392,0,0,0,3,4,1,34,0003-00-0000-18.png,0004-00-0000-73.png
00000014,934,0,1439222579154,1439222579764,312,398,0,0,0,3,2,1,32,0003-00-0001-15.png,0002-00-0001-99.png
00000014,935,1,1439222582811,1439222582831,494,466,0,0,0,4,5,1,45,0004-00-0000-13.png,0005-00-0000-06.png
00000014,936,0,1439222583737,1439222583750,519,488,0,0,0,4,3,1,43,0004-00-0001-78.png,0003-00-0001-88.png
00000014,937,1,1439222587164,1439222587811,427,487,0,0,0,4,5,1,45,0004-00-0000-03.png,0005-00-0001-11.png
00000014,938,0,1439222588753,1439222589312,935,360,0,0,0,2,3,1,23,0002-00-0000-34.png,0003-00-0000-61.png
00000014,939,1,1439222592201,1439222593318,902,379,0,0,0,4,3,1,43,0004-00-0001-99.png,0003-00-0001-32.png
00000014,940,1,1439222594292,1439222594894,896,368,0,0,0,5,4,1,54,0005-00-0000-54.png,0004-00-0000-51.png
00000014,941,1,1439222596377,1439222596955,376,514,0,0,0,1,2,1,12,0001-00-0001-73.png,0002-00-0000-41.png
00000014,942,0,1439222597857,1439222597877,509,451,0,0,0,3,2,1,32,0003-00-0000-65.png,0002-00-0001-39.png
