subject_id,trial,correct_response,stim_time,response_time,x_coord,y_coord,trial_timeout,timeout_time,interTrial_timeout,left_rank,right_rank,distance,joint_rank,left_image,right_image
00000014,1,0,1438876268837,1438876269427,357,398,0,0,0,5,4,1,54,0005-00-0001-36.png,0004-00-0001-54.png
00000014,2,0,1438876271670,1438876272555,952,383,0,0,0,4,5,1,45,0004-00-0000-51.png,0005-00-0001-51.png
00000014,3,0,1438876275020,1438876275561,380,440,0,0,0,2,1,1,21,0002-00-0000-30.png,0001-00-0000-04.png
00000014,4,0,1438876277440,1438876277929,376,498,0,0,0,3,2,1,32,0003-00-0001-60.png,0002-00-0000-34.png
00000014,5,1,1438876280009,1438876280656,375,386,0,0,0,2,3,1,23,0002-00-0001-38.png,0003-00-0001-63.png
00000014,6,1,1438876282138,1438876282553,359,392,0,0,0,3,4,1,34,0003-00-0001-20.png,0004-00-0001-76.png
00000014,7,1,1438876283837,1438876284307,357,392,0,0,0,1,2,1,12,0001-00-0000-28.png,0002-00-0000-35.png
00000014,8,0,1438876285507,1438876286028,330,353,0,0,0,4,3,1,43,0004-00-0001-84.png,0003-00-0001-81.png
00000014,9,0,1438876288079,1438876288592,305,361,0,0,0,2,1,1,21,0002-00-0001-06.png,0001-00-0000-33.png
00000014,10,1,1438876290532,1438876290591,478,462,0,0,0,3,4,1,34,0003-00-0000-39.png,0004-00-0000-32.png
00000014,11,0,1438876291718,1438876292212,350,394,0,0,0,4,3,1,43,0004-00-0001-18.png,0003-00-0000-75.png
00000014,12,1,1438876294133,1438876294645,328,350,0,0,0,4,5,1,45,0004-00-0000-92.png,0005-00-0001-84.png
00000014,13,0,1438876295692,1438876296175,383,398,0,0,0,5,4,1,54,0005-00-0001-93.png,0004-00-0000-40.png
00000014,14,1,1438876298027,1438876300169,476,563,0,0,0,1,2,1,12,0001-00-0000-77.png,0002-00-0000-79.png
00000014,15,0,1438876301837,1438876302340,363,403,0,0,0,3,2,1,32,0003-00-0001-53.png,0002-00-0001-14.png
00000014,16,1,1438876304691,1438876305127,381,393,0,0,0,2,3,1,23,0002-00-0001-83.png,0003-00-0001-76.png
00000014,17,0,1438876306244,1438876306831,353,387,0,0,0,4,3,1,43,0004-00-0001-76.png,0003-00-0000-33.png
00000014,18,0,1438876309340,1438876309801,380,400,0,0,0,5,4,1,54,0005-00-0000-91.png,0004-00-0001-12.png
00000014,19,1,1438876311724,1438876312165,337,335,0,0,0,1,2,1,12,0001-00-0000-81.png,0002-00-0000-65.png
00000014,20,1,1438876313218,1438876313773,389,477,0,0,0,3,4,1,34,0003-00-0000-30.png,0004-00-0000-53.png
00000014,21,1,1438876314870,1438876315402,355,402,0,0,0,2,3,1,23,0002-00-0001-68.png,0003-00-0001-39.png
00000014,22,1,1438876316774,1438876317310,879,480,0,0,0,3,2,1,32,0003-00-0001-98.png,0002-00-0000-50.png
00000014,23,1,1438876318417,1438876318961,930,400,0,0,0,2,1,1,21,0002-00-0000-22.png,0001-00-0001-57.png
00000014,24,1,1438876320072,1438876320629,375,416,0,0,0,4,5,1,45,0004-00-0001-99.png,0005-00-0000-57.png
00000014,25,1,1438876321725,1438876322296,350,410,0,0,0,3,4,1,34,0003-00-0001-89.png,0004-00-0001-06.png
00000014,26,1,1438876323365,1438876323964,886,502,0,0,0,3,2,1,32,0003-00-0001-00.png,0002-00-0001-45.png
00000014,27,0,1438876325066,1438876325561,354,399,0,0,0,2,1,1,21,0002-00-0001-19.png,0001-00-0001-01.png
00000014,28,0,1438876328723,1438876329294,952,383,0,0,0,4,5,1,45,0004-00-0001-26.png,0005-00-0001-29.png
00000014,29,0,1438876331196,1438876331699,375,381,0,0,0,5,4,1,54,0005-00-0000-34.png,0004-00-0001-70.png
00000014,30,0,1438876333659,1438876334112,307,387,0,0,0,4,3,1,43,0004-00-0000-46.png,0003-00-0001-99.png
00000014,31,1,1438876336115,1438876336729,453,450,0,0,0,1,2,1,12,0001-00-0000-54.png,0002-00-0000-46.png
00000014,32,1,1438876337834,1438876338432,363,397,0,0,0,2,3,1,23,0002-00-0001-00.png,0003-00-0001-22.png
00000014,33,1,1438876339509,1438876340103,376,358,0,0,0,2,3,1,23,0002-00-0001-24.png,0003-00-0000-33.png
00000014,34,0,1438876341107,1438876341676,380,352,0,0,0,5,4,1,54,0005-00-0001-57.png,0004-00-0001-13.png
00000014,35,0,1438876343855,1438876344368,439,501,0,0,0,2,1,1,21,0002-00-0000-64.png,0001-00-0000-80.png
00000014,36,1,1438876346741,1438876347288,374,393,0,0,0,1,2,1,12,0001-00-0000-19.png,0002-00-0001-60.png
00000014,37,0,1438876348354,1438876349008,336,387,0,0,0,3,2,1,32,0003-00-0000-01.png,0002-00-0001-21.png
00000014,38,0,1438876365906,1438876366442,350,371,0,0,0,4,3,1,43,0004-00-0001-05.png,0003-00-0000-14.png
00000014,39,1,1438876369683,1438876370203,376,398,0,0,0,4,5,1,45,0004-00-0001-95.png,0005-00-0000-72.png
00000014,40,1,1438876371283,1438876371880,350,488,0,0,0,3,4,1,34,0003-00-0000-26.png,0004-00-0001-32.png
00000014,41,0,1438876372933,1438876373510,393,495,0,0,0,2,1,1,21,0002-00-0000-25.png,0001-00-0000-88.png
00000014,42,0,1438876375693,1438876376137,333,363,0,0,0,4,3,1,43,0004-00-0001-51.png,0003-00-0000-72.png
00000014,43,1,1438876378220,1438876378842,942,360,0,0,0,3,2,1,32,0003-00-0000-59.png,0002-00-0000-59.png
00000014,44,0,1438876379960,1438876380557,948,383,0,0,0,3,4,1,34,0003-00-0000-40.png,0004-00-0000-23.png
00000014,45,1,1438876382512,1438876382966,350,447,0,0,0,4,5,1,45,0004-00-0001-62.png,0005-00-0000-20.png
00000014,46,1,1438876384034,1438876384568,376,371,0,0,0,2,3,1,23,0002-00-0001-97.png,0003-00-0000-80.png
00000014,47,0,1438876385624,1438876386391,919,446,0,0,0,1,2,1,12,0001-00-0000-60.png,0002-00-0001-74.png
00000014,48,0,1438876388795,1438876389332,355,378,0,0,0,5,4,1,54,0005-00-0000-06.png,0004-00-0001-94.png
00000014,49,0,1438876391487,1438876392021,346,368,0,0,0,5,4,1,54,0005-00-0000-66.png,0004-00-0001-27.png
00000014,50,1,1438876393845,1438876394379,388,460,0,0,0,1,2,1,12,0001-00-0000-75.png,0002-00-0000-49.png
00000014,51,1,1438876395893,1438876396498,365,450,0,0,0,4,5,1,45,0004-00-0000-90.png,0005-00-0000-21.png
00000014,52,1,1438876397621,1438876398297,905,350,0,0,0,4,3,1,43,0004-00-0001-91.png,0003-00-0001-55.png
00000014,53,1,1438876399410,1438876400070,361,524,0,0,0,3,4,1,34,0003-00-0001-15.png,0004-00-0000-31.png
00000014,54,1,1438876401164,1438876401658,370,383,0,0,0,2,3,1,23,0002-00-0001-75.png,0003-00-0000-59.png
00000014,55,1,1438876402756,1438876403389,906,367,0,0,0,2,1,1,21,0002-00-0001-68.png,0001-00-0001-18.png
00000014,56,0,1438876404489,1438876405034,367,393,0,0,0,3,2,1,32,0003-00-0001-29.png,0002-00-0000-35.png
00000014,57,1,1438876407153,1438876408016,939,397,0,0,0,4,3,1,43,0004-00-0001-30.png,0003-00-0000-58.png
00000014,58,0,1438876409182,1438876409718,273,410,0,0,0,2,1,1,21,0002-00-0000-85.png,0001-00-0000-81.png
00000014,59,0,1438876413335,1438876413862,314,376,0,0,0,5,4,1,54,0005-00-0001-98.png,0004-00-0000-47.png
00000014,60,0,1438876417151,1438876417699,388,511,0,0,0,3,2,1,32,0003-00-0000-72.png,0002-00-0000-63.png
00000014,61,1,1438876419559,1438876420027,352,395,0,0,0,4,5,1,45,0004-00-0001-88.png,0005-00-0000-38.png
00000014,62,1,1438876421036,1438876421620,323,383,0,0,0,2,3,1,23,0002-00-0000-12.png,0003-00-0001-40.png
00000014,63,1,1438876422785,1438876423300,376,398,0,0,0,3,4,1,34,0003-00-0001-93.png,0004-00-0000-65.png
00000014,64,1,1438876424378,1438876424938,376,358,0,0,0,1,2,1,12,0001-00-0001-94.png,0002-00-0000-65.png
00000014,65,0,1438876425998,1438876426582,372,394,0,0,0,3,2,1,32,0003-00-0000-79.png,0002-00-0001-97.png
00000014,66,0,1438876428659,1438876429198,368,493,0,0,0,4,3,1,43,0004-00-0001-85.png,0003-00-0001-25.png
00000014,67,1,1438876431375,1438876431905,381,385,0,0,0,2,3,1,23,0002-00-0001-87.png,0003-00-0000-19.png
00000014,68,0,1438876432906,1438876433471,419,496,0,0,0,2,1,1,21,0002-00-0001-30.png,0001-00-0000-95.png
00000014,69,1,1438876435329,1438876435815,374,383,0,0,0,3,4,1,34,0003-00-0001-64.png,0004-00-0000-99.png
00000014,70,1,1438876436832,1438876437412,368,398,0,0,0,1,2,1,12,0001-00-0000-85.png,0002-00-0001-16.png
00000014,71,0,1438876438523,1438876439076,340,396,0,0,0,5,4,1,54,0005-00-0000-35.png,0004-00-0000-17.png
00000014,72,1,1438876442818,1438876443369,299,462,0,0,0,4,5,1,45,0004-00-0001-08.png,0005-00-0001-20.png
00000014,73,1,1438876444427,1438876444979,325,397,0,0,0,2,3,1,23,0002-00-0000-92.png,0003-00-0001-59.png
00000014,74,1,1438876446095,1438876446796,344,410,0,0,0,4,5,1,45,0004-00-0000-00.png,0005-00-0001-40.png
00000014,75,1,1438876447927,1438876448447,387,449,0,0,0,3,4,1,34,0003-00-0000-10.png,0004-00-0001-99.png
00000014,76,0,1438876449578,1438876450122,376,358,0,0,0,2,1,1,21,0002-00-0001-18.png,0001-00-0000-61.png
00000014,77,0,1438876452467,1438876453009,354,372,0,0,0,3,2,1,32,0003-00-0000-06.png,0002-00-0001-81.png
00000014,78,0,1438876454908,1438876455414,329,376,0,0,0,5,4,1,54,0005-00-0000-22.png,0004-00-0000-07.png
00000014,79,1,1438876457756,1438876458515,952,383,0,0,0,4,3,1,43,0004-00-0001-51.png,0003-00-0001-11.png
00000014,80,0,1438876459625,1438876460210,925,386,0,0,0,1,2,1,12,0001-00-0000-84.png,0002-00-0000-81.png
00000014,81,1,1438876462358,1438876462993,355,352,0,0,0,4,5,1,45,0004-00-0001-20.png,0005-00-0000-60.png
00000014,82,0,1438876464086,1438876464633,383,367,0,0,0,4,3,1,43,0004-00-0001-09.png,0003-00-0001-29.png
00000014,83,0,1438876473238,1438876473707,427,455,0,0,0,2,1,1,21,0002-00-0001-84.png,0001-00-0000-86.png
00000014,84,1,1438876475802,1438876476315,376,397,0,0,0,1,2,1,12,0001-00-0001-60.png,0002-00-0000-94.png
00000014,85,1,1438876477305,1438876477800,316,395,0,0,0,2,3,1,23,0002-00-0000-80.png,0003-00-0000-88.png
00000014,86,0,1438876478897,1438876479454,334,355,0,0,0,3,2,1,32,0003-00-0001-10.png,0002-00-0000-82.png
00000014,87,0,1438876481474,1438876482017,345,373,0,0,0,5,4,1,54,0005-00-0000-73.png,0004-00-0000-67.png
00000014,88,1,1438876484071,1438876484573,380,366,0,0,0,3,4,1,34,0003-00-0001-69.png,0004-00-0001-55.png
00000014,89,0,1438876485939,1438876486468,350,347,0,0,0,4,3,1,43,0004-00-0001-59.png,0003-00-0000-01.png
00000014,90,1,1438876488593,1438876489098,361,396,0,0,0,1,2,1,12,0001-00-0001-18.png,0002-00-0001-17.png
00000014,91,1,1438876490135,1438876490917,929,375,0,0,0,5,4,1,54,0005-00-0001-25.png,0004-00-0000-81.png
00000014,92,1,1438876492055,1438876492749,376,355,0,0,0,4,5,1,45,0004-00-0000-56.png,0005-00-0000-42.png
00000014,93,1,1438876493894,1438876494470,389,488,0,0,0,3,4,1,34,0003-00-0001-25.png,0004-00-0001-82.png
00000014,94,0,1438876495604,1438876496136,369,366,0,0,0,2,1,1,21,0002-00-0001-88.png,0001-00-0000-40.png
00000014,95,0,1438876498095,1438876498652,390,482,0,0,0,3,2,1,32,0003-00-0001-06.png,0002-00-0000-60.png
00000014,96,1,1438876500711,1438876501248,397,493,0,0,0,2,3,1,23,0002-00-0001-71.png,0003-00-0000-27.png
00000014,97,1,1438876502321,1438876502955,273,436,0,0,0,3,4,1,34,0003-00-0000-52.png,0004-00-0000-38.png
00000014,98,1,1438876504149,1438876504827,353,379,0,0,0,4,5,1,45,0004-00-0001-91.png,0005-00-0001-74.png
00000014,99,0,1438876505928,1438876506446,376,371,0,0,0,2,1,1,21,0002-00-0001-49.png,0001-00-0001-99.png
00000014,100,0,1438876508392,1438876508912,351,384,0,0,0,3,2,1,32,0003-00-0000-94.png,0002-00-0000-77.png
00000014,101,0,1438876511046,1438876511481,338,371,0,0,0,4,3,1,43,0004-00-0001-54.png,0003-00-0000-95.png
00000014,102,0,1438876513341,1438876513879,337,397,0,0,0,5,4,1,54,0005-00-0001-81.png,0004-00-0001-07.png
00000014,103,1,1438876515937,1438876516397,329,374,0,0,0,2,3,1,23,0002-00-0000-76.png,0003-00-0000-76.png
00000014,104,1,1438876522431,1438876522910,317,376,0,0,0,1,2,1,12,0001-00-0000-20.png,0002-00-0001-78.png
00000014,105,0,1438876524092,1438876524604,350,398,0,0,0,3,2,1,32,0003-00-0001-99.png,0002-00-0001-16.png
00000014,106,1,1438876526712,1438876527528,914,345,0,0,0,2,1,1,21,0002-00-0001-54.png,0001-00-0001-21.png
00000014,107,1,1438876528626,1438876529235,939,398,0,0,0,5,4,1,54,0005-00-0000-05.png,0004-00-0001-80.png
00000014,108,1,1438876530371,1438876530846,329,374,0,0,0,4,5,1,45,0004-00-0000-54.png,0005-00-0000-63.png
00000014,109,0,1438876531983,1438876532460,364,390,0,0,0,4,3,1,43,0004-00-0000-62.png,0003-00-0001-85.png
00000014,110,1,1438876534436,1438876535258,405,374,0,0,0,1,2,1,12,0001-00-0000-41.png,0002-00-0000-91.png
00000014,111,1,1438876536414,1438876536910,390,495,0,0,0,2,3,1,23,0002-00-0000-23.png,0003-00-0000-70.png
00000014,112,0,1438876538023,1438876538569,902,493,0,0,0,3,4,1,34,0003-00-0000-08.png,0004-00-0000-62.png
00000014,113,1,1438876540636,1438876541077,329,355,0,0,0,1,2,1,12,0001-00-0000-24.png,0002-00-0001-45.png
00000014,114,0,1438876542159,1438876542682,362,394,0,0,0,3,2,1,32,0003-00-0001-07.png,0002-00-0000-82.png
00000014,115,0,1438876544681,1438876545219,392,493,0,0,0,2,1,1,21,0002-00-0000-27.png,0001-00-0001-85.png
00000014,116,1,1438876547249,1438876547796,377,391,0,0,0,3,4,1,34,0003-00-0001-08.png,0004-00-0001-12.png
00000014,117,0,1438876549027,1438876549633,901,410,0,0,0,4,5,1,45,0004-00-0000-05.png,0005-00-0001-33.png
00000014,118,1,1438876553550,1438876554042,314,345,0,0,0,2,3,1,23,0002-00-0001-41.png,0003-00-0000-59.png
00000014,119,1,1438876555190,1438876555748,895,498,0,0,0,4,3,1,43,0004-00-0001-53.png,0003-00-0000-58.png
00000014,120,1,1438876556919,1438876557444,949,380,0,0,0,5,4,1,54,0005-00-0000-66.png,0004-00-0001-87.png
00000014,121,0,1438876558670,1438876559280,304,352,0,0,0,3,2,1,32,0003-00-0001-63.png,0002-00-0000-38.png
00000014,122,1,1438876561439,1438876561942,376,372,0,0,0,1,2,1,12,0001-00-0000-56.png,0002-00-0001-06.png
00000014,123,1,1438876563053,1438876563596,353,402,0,0,0,3,4,1,34,0003-00-0001-66.png,0004-00-0001-29.png
00000014,124,0,1438876564704,1438876565279,327,379,0,0,0,4,3,1,43,0004-00-0001-69.png,0003-00-0000-08.png
00000014,125,0,1438876567264,1438876567798,300,372,0,0,0,2,1,1,21,0002-00-0000-39.png,0001-00-0001-95.png
00000014,126,1,1438876569692,1438876570326,946,367,0,0,0,5,4,1,54,0005-00-0000-27.png,0004-00-0000-67.png
00000014,127,1,1438876571472,1438876571997,363,383,0,0,0,2,3,1,23,0002-00-0000-63.png,0003-00-0001-77.png
00000014,128,1,1438876573168,1438876573686,299,407,0,0,0,4,5,1,45,0004-00-0001-87.png,0005-00-0001-18.png
00000014,129,1,1438876575357,1438876575773,310,387,0,0,0,1,2,1,12,0001-00-0000-28.png,0002-00-0000-58.png
00000014,130,1,1438876576880,1438876577454,928,389,0,0,0,4,3,1,43,0004-00-0000-92.png,0003-00-0001-72.png
00000014,131,0,1438876578550,1438876579067,886,476,0,0,0,3,4,1,34,0003-00-0001-76.png,0004-00-0000-23.png
00000014,132,0,1438876584811,1438876585376,358,400,0,0,0,3,2,1,32,0003-00-0000-12.png,0002-00-0001-64.png
00000014,133,0,1438876587229,1438876587715,386,471,0,0,0,5,4,1,54,0005-00-0000-13.png,0004-00-0000-38.png
00000014,134,1,1438876589586,1438876590171,339,367,0,0,0,4,5,1,45,0004-00-0001-03.png,0005-00-0001-89.png
00000014,135,1,1438876591190,1438876591743,367,390,0,0,0,2,3,1,23,0002-00-0001-11.png,0003-00-0001-43.png
00000014,136,0,1438876592918,1438876593447,359,365,0,0,0,2,1,1,21,0002-00-0000-69.png,0001-00-0001-41.png
00000014,137,1,1438876595550,1438876596038,367,348,0,0,0,2,3,1,23,0002-00-0001-15.png,0003-00-0001-46.png
00000014,138,0,1438876597129,1438876597673,376,384,0,0,0,5,4,1,54,0005-00-0001-85.png,0004-00-0000-13.png
00000014,139,0,1438876599977,1438876600474,336,397,0,0,0,3,2,1,32,0003-00-0001-10.png,0002-00-0000-77.png
00000014,140,0,1438876602906,1438876603552,335,400,0,0,0,4,3,1,43,0004-00-0001-16.png,0003-00-0000-07.png
00000014,141,1,1438876605657,1438876606164,359,402,0,0,0,3,4,1,34,0003-00-0001-07.png,0004-00-0000-19.png
00000014,142,0,1438876607184,1438876607816,862,449,0,0,0,4,5,1,45,0004-00-0001-63.png,0005-00-0000-19.png
00000014,143,1,1438876609764,1438876610267,405,467,0,0,0,1,2,1,12,0001-00-0001-19.png,0002-00-0001-85.png
00000014,144,0,1438876611337,1438876611912,401,384,0,0,0,2,1,1,21,0002-00-0000-61.png,0001-00-0001-06.png
00000014,145,0,1438876614069,1438876614576,350,372,0,0,0,4,3,1,43,0004-00-0001-94.png,0003-00-0000-00.png
00000014,146,1,1438876616512,1438876616996,375,385,0,0,0,2,3,1,23,0002-00-0000-58.png,0003-00-0000-94.png
00000014,147,1,1438876618106,1438876618673,403,474,0,0,0,4,5,1,45,0004-00-0001-48.png,0005-00-0000-93.png
00000014,148,1,1438876619934,1438876620536,926,385,0,0,0,2,1,1,21,0002-00-0001-12.png,0001-00-0000-00.png
00000014,149,1,1438876621611,1438876622364,920,336,0,0,0,5,4,1,54,0005-00-0000-83.png,0004-00-0000-87.png
00000014,150,1,1438876623492,1438876623992,355,370,0,0,0,1,2,1,12,0001-00-0001-99.png,0002-00-0001-04.png
00000014,151,0,1438876625052,1438876625604,383,389,0,0,0,3,2,1,32,0003-00-0001-76.png,0002-00-0000-36.png
00000014,152,0,1438876627564,1438876628258,927,450,0,0,0,3,4,1,34,0003-00-0000-80.png,0004-00-0000-49.png
00000014,153,1,1438876639010,1438876639565,325,397,0,0,0,2,3,1,23,0002-00-0001-59.png,0003-00-0000-00.png
00000014,154,1,1438876641008,1438876641896,938,390,0,0,0,5,4,1,54,0005-00-0000-24.png,0004-00-0001-95.png
00000014,155,1,1438876642939,1438876646670,299,449,0,0,0,1,2,1,12,0001-00-0001-29.png,0002-00-0001-73.png
00000014,156,0,1438876648054,1438876648571,342,392,0,0,0,2,1,1,21,0002-00-0001-70.png,0001-00-0000-81.png
00000014,157,1,1438876650480,1438876651042,931,374,0,0,0,4,3,1,43,0004-00-0001-34.png,0003-00-0000-73.png
00000014,158,0,1438876652051,1438876652585,366,371,0,0,0,3,2,1,32,0003-00-0001-30.png,0002-00-0000-59.png
00000014,159,1,1438876654515,1438876654992,349,324,0,0,0,4,5,1,45,0004-00-0000-50.png,0005-00-0000-70.png
00000014,160,1,1438876655927,1438876656504,358,402,0,0,0,3,4,1,34,0003-00-0001-60.png,0004-00-0000-78.png
00000014,161,1,1438876657569,1438876658099,401,358,0,0,0,1,2,1,12,0001-00-0001-85.png,0002-00-0001-84.png
00000014,162,1,1438876659099,1438876659662,328,395,0,0,0,2,3,1,23,0002-00-0000-88.png,0003-00-0001-27.png
00000014,163,1,1438876660760,1438876661302,428,488,0,0,0,3,4,1,34,0003-00-0001-76.png,0004-00-0000-35.png
00000014,164,0,1438876662337,1438876663052,907,354,0,0,0,4,5,1,45,0004-00-0000-31.png,0005-00-0001-54.png
00000014,165,0,1438876665139,1438876665778,366,383,0,0,0,3,2,1,32,0003-00-0001-39.png,0002-00-0000-88.png
00000014,166,0,1438876667911,1438876668427,378,486,0,0,0,4,3,1,43,0004-00-0000-95.png,0003-00-0000-53.png
00000014,167,0,1438876674849,1438876675401,354,398,0,0,0,5,4,1,54,0005-00-0000-17.png,0004-00-0001-69.png
00000014,168,0,1438876677241,1438876677679,321,374,0,0,0,2,1,1,21,0002-00-0000-85.png,0001-00-0001-68.png
00000014,169,1,1438876679976,1438876680528,395,531,0,0,0,1,2,1,12,0001-00-0001-35.png,0002-00-0001-48.png
00000014,170,0,1438876681581,1438876682131,912,398,0,0,0,3,4,1,34,0003-00-0001-83.png,0004-00-0001-08.png
00000014,171,0,1438876684001,1438876684522,364,377,0,0,0,4,3,1,43,0004-00-0001-07.png,0003-00-0001-07.png
00000014,172,1,1438876686387,1438876686881,325,355,0,0,0,2,3,1,23,0002-00-0000-43.png,0003-00-0001-10.png
00000014,173,1,1438876687907,1438876688546,902,440,0,0,0,2,1,1,21,0002-00-0001-10.png,0001-00-0000-98.png
00000014,174,1,1438876689560,1438876690169,346,402,0,0,0,4,5,1,45,0004-00-0001-97.png,0005-00-0000-08.png
00000014,175,0,1438876691229,1438876691878,392,481,0,0,0,5,4,1,54,0005-00-0000-05.png,0004-00-0000-46.png
00000014,176,1,1438876693934,1438876694532,908,444,0,0,0,3,2,1,32,0003-00-0001-52.png,0002-00-0001-59.png
00000014,177,1,1438876695594,1438876696168,396,465,0,0,0,2,3,1,23,0002-00-0001-28.png,0003-00-0000-29.png
00000014,178,0,1438876697233,1438876697763,363,415,0,0,0,5,4,1,54,0005-00-0001-85.png,0004-00-0000-80.png
00000014,179,0,1438876699732,1438876700263,376,359,0,0,0,3,2,1,32,0003-00-0001-47.png,0002-00-0001-85.png
00000014,180,0,1438876704474,1438876705024,864,313,0,0,0,4,5,1,45,0004-00-0000-92.png,0005-00-0000-27.png
00000014,181,0,1438876707067,1438876707635,381,360,0,0,0,4,3,1,43,0004-00-0001-77.png,0003-00-0000-19.png
00000014,182,1,1438876709609,1438876710178,273,462,0,0,0,3,4,1,34,0003-00-0000-22.png,0004-00-0000-08.png
00000014,183,1,1438876711187,1438876711714,413,499,0,0,0,1,2,1,12,0001-00-0001-30.png,0002-00-0001-45.png
00000014,184,0,1438876712777,1438876713332,356,374,0,0,0,2,1,1,21,0002-00-0001-23.png,0001-00-0001-50.png
00000014,185,0,1438876715174,1438876715947,922,412,0,0,0,2,3,1,23,0002-00-0001-00.png,0003-00-0000-88.png
00000014,186,1,1438876717913,1438876718406,341,390,0,0,0,1,2,1,12,0001-00-0001-24.png,0002-00-0001-87.png
00000014,187,0,1438876719455,1438876719953,362,394,0,0,0,2,1,1,21,0002-00-0000-55.png,0001-00-0000-17.png
00000014,188,0,1438876722085,1438876722605,339,381,0,0,0,4,3,1,43,0004-00-0001-02.png,0003-00-0000-68.png
00000014,189,1,1438876724596,1438876725077,331,390,0,0,0,3,4,1,34,0003-00-0000-93.png,0004-00-0001-75.png
00000014,190,1,1438876726078,1438876726664,901,357,0,0,0,3,2,1,32,0003-00-0001-45.png,0002-00-0001-36.png
00000014,191,0,1438876727754,1438876728292,341,403,0,0,0,5,4,1,54,0005-00-0001-11.png,0004-00-0000-68.png
00000014,192,1,1438876730352,1438876730836,370,378,0,0,0,4,5,1,45,0004-00-0000-89.png,0005-00-0000-22.png
00000014,193,1,1438876731918,1438876732490,336,420,0,0,0,1,2,1,12,0001-00-0000-57.png,0002-00-0000-17.png
00000014,194,1,1438876733595,1438876734173,879,364,0,0,0,4,3,1,43,0004-00-0001-67.png,0003-00-0000-85.png
00000014,195,1,1438876735239,1438876735922,873,484,0,0,0,5,4,1,54,0005-00-0001-53.png,0004-00-0000-90.png
00000014,196,0,1438876737026,1438876737628,931,342,0,0,0,2,3,1,23,0002-00-0001-65.png,0003-00-0001-21.png
00000014,197,0,1438876739696,1438876740174,331,371,0,0,0,3,2,1,32,0003-00-0001-70.png,0002-00-0000-39.png
00000014,198,1,1438876742101,1438876742590,353,344,0,0,0,3,4,1,34,0003-00-0000-25.png,0004-00-0000-88.png
00000014,199,1,1438876743625,1438876744178,387,394,0,0,0,4,5,1,45,0004-00-0000-87.png,0005-00-0001-47.png
00000014,200,1,1438876745663,1438876746239,907,391,0,0,0,2,1,1,21,0002-00-0001-34.png,0001-00-0000-46.png
00000014,201,1,1438876747293,1438876747912,427,412,0,0,0,4,5,1,45,0004-00-0000-85.png,0005-00-0000-67.png
00000014,202,1,1438876748974,1438876749613,879,453,0,0,0,5,4,1,54,0005-00-0001-02.png,0004-00-0000-75.png
00000014,203,0,1438876750700,1438876751174,361,388,0,0,0,2,1,1,21,0002-00-0000-23.png,0001-00-0001-53.png
00000014,204,1,1438876753332,1438876753829,376,372,0,0,0,1,2,1,12,0001-00-0001-67.png,0002-00-0001-26.png
00000014,205,0,1438876754846,1438876755423,385,494,0,0,0,4,3,1,43,0004-00-0001-52.png,0003-00-0001-03.png
00000014,206,1,1438876757495,1438876758014,376,463,0,0,0,2,3,1,23,0002-00-0000-02.png,0003-00-0001-01.png
00000014,207,0,1438876759007,1438876759640,895,471,0,0,0,3,4,1,34,0003-00-0000-63.png,0004-00-0001-41.png
00000014,208,0,1438876762053,1438876762548,320,386,0,0,0,3,2,1,32,0003-00-0001-09.png,0002-00-0001-66.png
00000014,209,1,1438876764969,1438876765457,325,377,0,0,0,2,3,1,23,0002-00-0000-19.png,0003-00-0000-89.png
00000014,210,1,1438876766532,1438876767195,901,381,0,0,0,3,2,1,32,0003-00-0000-84.png,0002-00-0001-99.png
00000014,211,1,1438876768399,1438876769361,929,391,0,0,0,2,1,1,21,0002-00-0001-69.png,0001-00-0000-07.png
00000014,212,1,1438876770467,1438876770994,339,390,0,0,0,4,5,1,45,0004-00-0000-75.png,0005-00-0001-70.png
00000014,213,0,1438876771998,1438876772697,350,371,0,0,0,4,3,1,43,0004-00-0000-02.png,0003-00-0000-35.png
00000014,214,0,1438876774720,1438876774744,504,451,0,0,0,5,4,1,54,0005-00-0000-94.png,0004-00-0001-60.png
00000014,215,1,1438876777328,1438876777791,342,393,0,0,0,1,2,1,12,0001-00-0000-00.png,0002-00-0000-60.png
00000014,216,0,1438876778779,1438876779633,951,359,0,0,0,3,4,1,34,0003-00-0000-02.png,0004-00-0001-36.png
00000014,217,1,1438876781519,1438876781961,330,353,0,0,0,3,4,1,34,0003-00-0000-18.png,0004-00-0000-87.png
00000014,218,1,1438876783012,1438876783599,400,384,0,0,0,4,5,1,45,0004-00-0000-91.png,0005-00-0001-41.png
00000014,219,1,1438876784672,1438876785233,222,450,0,0,0,1,2,1,12,0001-00-0001-85.png,0002-00-0000-23.png
00000014,220,0,1438876786252,1438876786831,335,388,0,0,0,2,1,1,21,0002-00-0000-07.png,0001-00-0001-57.png
00000014,221,1,1438876788968,1438876789448,327,377,0,0,0,2,3,1,23,0002-00-0001-24.png,0003-00-0001-24.png
00000014,222,0,1438876790485,1438876791059,336,383,0,0,0,3,2,1,32,0003-00-0000-49.png,0002-00-0001-91.png
00000014,223,0,1438876793098,1438876793602,329,394,0,0,0,5,4,1,54,0005-00-0000-04.png,0004-00-0000-09.png
00000014,224,0,1438876795554,1438876796003,370,407,0,0,0,4,3,1,43,0004-00-0000-60.png,0003-00-0001-77.png
00000014,225,1,1438876797994,1438876798026,514,410,0,0,0,1,2,1,12,0001-00-0001-78.png,0002-00-0001-45.png
00000014,226,1,1438876799201,1438876799674,330,403,0,0,0,3,4,1,34,0003-00-0001-60.png,0004-00-0000-74.png
00000014,227,1,1438876800722,1438876801271,350,398,0,0,0,2,3,1,23,0002-00-0001-51.png,0003-00-0000-44.png
00000014,228,1,1438876802286,1438876803045,900,450,0,0,0,5,4,1,54,0005-00-0001-01.png,0004-00-0000-35.png
00000014,229,1,1438876804062,1438876804616,325,410,0,0,0,4,5,1,45,0004-00-0000-49.png,0005-00-0001-96.png
00000014,230,0,1438876806172,1438876806658,314,395,0,0,0,2,1,1,21,0002-00-0000-55.png,0001-00-0000-47.png
00000014,231,0,1438876809033,1438876809543,356,402,0,0,0,4,3,1,43,0004-00-0001-40.png,0003-00-0001-27.png
00000014,232,0,1438876811381,1438876811865,365,398,0,0,0,3,2,1,32,0003-00-0000-16.png,0002-00-0001-41.png
00000014,233,1,1438876813895,1438876814408,376,425,0,0,0,1,2,1,12,0001-00-0001-98.png,0002-00-0001-56.png
00000014,234,0,1438876815463,1438876816004,380,489,0,0,0,4,3,1,43,0004-00-0001-27.png,0003-00-0001-78.png
00000014,235,0,1438876817965,1438876818417,376,372,0,0,0,5,4,1,54,0005-00-0001-05.png,0004-00-0000-90.png
00000014,236,1,1438876820462,1438876820474,478,410,0,0,0,2,3,1,23,0002-00-0001-65.png,0003-00-0001-03.png
00000014,237,0,1438876821641,1438876822249,376,487,0,0,0,2,1,1,21,0002-00-0000-76.png,0001-00-0001-99.png
00000014,238,0,1438876824074,1438876824711,871,330,0,0,0,3,4,1,34,0003-00-0000-60.png,0004-00-0000-09.png
00000014,239,0,1438876826765,1438876827481,903,373,0,0,0,4,5,1,45,0004-00-0001-00.png,0005-00-0001-01.png
00000014,240,0,1438876829503,1438876829542,478,384,0,0,0,3,2,1,32,0003-00-0000-93.png,0002-00-0001-17.png
00000014,241,0,1438876831628,1438876832076,356,385,0,0,0,5,4,1,54,0005-00-0001-12.png,0004-00-0000-21.png
00000014,242,0,1438876833908,1438876834366,348,373,0,0,0,4,3,1,43,0004-00-0000-35.png,0003-00-0001-49.png
00000014,243,1,1438876836457,1438876836947,359,387,0,0,0,1,2,1,12,0001-00-0001-47.png,0002-00-0000-82.png
00000014,244,1,1438876837956,1438876838568,361,416,0,0,0,3,4,1,34,0003-00-0001-23.png,0004-00-0001-16.png
00000014,245,0,1438876839626,1438876840169,368,409,0,0,0,3,2,1,32,0003-00-0000-34.png,0002-00-0000-62.png
00000014,246,1,1438876842226,1438876842687,352,363,0,0,0,2,3,1,23,0002-00-0000-64.png,0003-00-0001-09.png
00000014,247,1,1438876843680,1438876844207,346,378,0,0,0,4,5,1,45,0004-00-0001-67.png,0005-00-0000-42.png
00000014,248,0,1438876845240,1438876845856,248,462,0,0,0,2,1,1,21,0002-00-0001-98.png,0001-00-0001-77.png
00000014,249,1,1438876847810,1438876847826,504,462,0,0,0,2,3,1,23,0002-00-0000-98.png,0003-00-0000-75.png
00000014,250,1,1438876849067,1438876849583,338,403,0,0,0,1,2,1,12,0001-00-0001-65.png,0002-00-0001-29.png
00000014,251,1,1438876850567,1438876851234,272,412,0,0,0,3,4,1,34,0003-00-0000-28.png,0004-00-0000-17.png
00000014,252,0,1438876852303,1438876852335,504,488,0,0,0,4,3,1,43,0004-00-0000-15.png,0003-00-0000-34.png
00000014,253,0,1438876854280,1438876854778,341,376,0,0,0,5,4,1,54,0005-00-0001-19.png,0004-00-0000-22.png
00000014,254,0,1438876856615,1438876857158,324,374,0,0,0,2,1,1,21,0002-00-0000-14.png,0001-00-0001-91.png
00000014,255,1,1438876859352,1438876859851,338,371,0,0,0,4,5,1,45,0004-00-0001-25.png,0005-00-0000-08.png
00000014,256,1,1438876860781,1438876861397,900,463,0,0,0,3,2,1,32,0003-00-0000-43.png,0002-00-0000-10.png
00000014,257,0,1438876862503,1438876863068,901,396,0,0,0,2,3,1,23,0002-00-0001-09.png,0003-00-0000-36.png
00000014,258,1,1438876864922,1438876865467,360,354,0,0,0,4,5,1,45,0004-00-0000-44.png,0005-00-0001-32.png
00000014,259,1,1438876866548,1438876867186,324,384,0,0,0,3,4,1,34,0003-00-0001-95.png,0004-00-0000-77.png
00000014,260,1,1438876868226,1438876868707,345,386,0,0,0,1,2,1,12,0001-00-0001-49.png,0002-00-0000-34.png
00000014,261,0,1438876869738,1438876870351,350,384,0,0,0,2,1,1,21,0002-00-0000-18.png,0001-00-0000-27.png
00000014,262,0,1438876872475,1438876873007,428,544,0,0,0,4,3,1,43,0004-00-0000-02.png,0003-00-0000-72.png
00000014,263,1,1438876874879,1438876875545,902,468,0,0,0,3,2,1,32,0003-00-0000-72.png,0002-00-0001-34.png
00000014,264,0,1438876876552,1438876877184,356,371,0,0,0,5,4,1,54,0005-00-0000-90.png,0004-00-0001-35.png
00000014,265,0,1438876879432,1438876880057,942,361,0,0,0,1,2,1,12,0001-00-0001-08.png,0002-00-0000-51.png
00000014,266,0,1438876882145,1438876882621,376,475,0,0,0,5,4,1,54,0005-00-0001-59.png,0004-00-0000-72.png
00000014,267,0,1438876884463,1438876884918,354,379,0,0,0,4,3,1,43,0004-00-0000-19.png,0003-00-0001-79.png
00000014,268,0,1438876896423,1438876897004,311,370,0,0,0,3,2,1,32,0003-00-0001-50.png,0002-00-0001-54.png
00000014,269,1,1438876899067,1438876899609,360,379,0,0,0,2,3,1,23,0002-00-0001-01.png,0003-00-0001-58.png
00000014,270,0,1438876900707,1438876901183,328,404,0,0,0,2,1,1,21,0002-00-0001-12.png,0001-00-0000-26.png
00000014,271,0,1438876903172,1438876903777,871,358,0,0,0,3,4,1,34,0003-00-0001-08.png,0004-00-0000-18.png
00000014,272,1,1438876905633,1438876906095,348,376,0,0,0,4,5,1,45,0004-00-0000-18.png,0005-00-0000-68.png
00000014,273,0,1438876907108,1438876907691,335,400,0,0,0,2,1,1,21,0002-00-0001-79.png,0001-00-0000-23.png
00000014,274,0,1438876910096,1438876910559,366,346,0,0,0,5,4,1,54,0005-00-0000-68.png,0004-00-0000-22.png
00000014,275,1,1438876912591,1438876912611,504,427,0,0,0,1,2,1,12,0001-00-0001-84.png,0002-00-0001-58.png
00000014,276,1,1438876913815,1438876914299,347,393,0,0,0,4,5,1,45,0004-00-0001-89.png,0005-00-0000-90.png
00000014,277,1,1438876915377,1438876915899,334,360,0,0,0,2,3,1,23,0002-00-0000-53.png,0003-00-0000-70.png
00000014,278,1,1438876916994,1438876917585,415,519,0,0,0,3,4,1,34,0003-00-0000-16.png,0004-00-0000-02.png
00000014,279,0,1438876918676,1438876919205,338,394,0,0,0,4,3,1,43,0004-00-0001-71.png,0003-00-0001-05.png
00000014,280,1,1438876921235,1438876921979,947,368,0,0,0,3,2,1,32,0003-00-0000-31.png,0002-00-0000-01.png
00000014,281,0,1438876923018,1438876923648,893,464,0,0,0,2,3,1,23,0002-00-0001-78.png,0003-00-0001-34.png
00000014,282,0,1438876925668,1438876926470,948,348,0,0,0,3,4,1,34,0003-00-0001-86.png,0004-00-0001-33.png
00000014,283,0,1438876928461,1438876928912,360,371,0,0,0,3,2,1,32,0003-00-0000-82.png,0002-00-0000-60.png
00000014,284,1,1438876930784,1438876931263,353,350,0,0,0,4,5,1,45,0004-00-0001-90.png,0005-00-0000-79.png
00000014,285,0,1438876932260,1438876932834,367,383,0,0,0,4,3,1,43,0004-00-0000-70.png,0003-00-0001-14.png
00000014,286,0,1438876934673,1438876935169,325,354,0,0,0,5,4,1,54,0005-00-0001-34.png,0004-00-0000-91.png
00000014,287,0,1438876937167,1438876937183,478,449,0,0,0,2,1,1,21,0002-00-0001-73.png,0001-00-0001-16.png
00000014,288,1,1438876939463,1438876940004,393,474,0,0,0,1,2,1,12,0001-00-0000-31.png,0002-00-0000-88.png
00000014,289,1,1438876941076,1438876941622,342,376,0,0,0,1,2,1,12,0001-00-0000-48.png,0002-00-0000-75.png
00000014,290,0,1438876942674,1438876943213,401,384,0,0,0,5,4,1,54,0005-00-0000-91.png,0004-00-0001-28.png
00000014,291,0,1438876945269,1438876946032,900,462,0,0,0,3,4,1,34,0003-00-0001-25.png,0004-00-0000-63.png
00000014,292,0,1438876948129,1438876948593,366,382,0,0,0,2,1,1,21,0002-00-0000-64.png,0001-00-0000-23.png
00000014,293,0,1438876950672,1438876951247,877,375,0,0,0,4,5,1,45,0004-00-0001-71.png,0005-00-0000-06.png
00000014,294,0,1438876953187,1438876953984,917,381,0,0,0,2,3,1,23,0002-00-0001-20.png,0003-00-0001-18.png
00000014,295,0,1438876956017,1438876956073,517,436,0,0,0,3,2,1,32,0003-00-0001-87.png,0002-00-0000-79.png
00000014,296,1,1438876959620,1438876960465,951,384,0,0,0,4,3,1,43,0004-00-0001-04.png,0003-00-0001-28.png
00000014,297,1,1438876961475,1438876962025,880,401,0,0,0,2,1,1,21,0002-00-0001-01.png,0001-00-0001-84.png
00000014,298,1,1438876963075,1438876963561,328,395,0,0,0,3,4,1,34,0003-00-0001-82.png,0004-00-0001-04.png
00000014,299,1,1438876964637,1438876965188,393,405,0,0,0,4,5,1,45,0004-00-0001-03.png,0005-00-0000-63.png
00000014,300,0,1438876966237,1438876966901,344,393,0,0,0,4,3,1,43,0004-00-0001-30.png,0003-00-0000-71.png
00000014,301,1,1438876971473,1438876972066,952,398,0,0,0,3,2,1,32,0003-00-0000-71.png,0002-00-0000-40.png
00000014,302,1,1438876973053,1438876973726,905,418,0,0,0,5,4,1,54,0005-00-0000-13.png,0004-00-0000-28.png
00000014,303,0,1438876974923,1438876975565,924,377,0,0,0,1,2,1,12,0001-00-0001-12.png,0002-00-0000-23.png
00000014,304,1,1438876977425,1438876977943,365,378,0,0,0,2,3,1,23,0002-00-0000-01.png,0003-00-0000-50.png
00000014,305,1,1438876978994,1438876979507,374,391,0,0,0,2,3,1,23,0002-00-0000-19.png,0003-00-0001-06.png
00000014,306,0,1438876980539,1438876981339,902,442,0,0,0,4,5,1,45,0004-00-0001-71.png,0005-00-0000-66.png
00000014,307,1,1438876983490,1438876983959,344,408,0,0,0,1,2,1,12,0001-00-0001-35.png,0002-00-0001-89.png
00000014,308,1,1438876985011,1438876985693,362,401,0,0,0,3,4,1,34,0003-00-0001-59.png,0004-00-0000-48.png
00000014,309,0,1438876986781,1438876987304,323,404,0,0,0,5,4,1,54,0005-00-0000-69.png,0004-00-0000-05.png
00000014,310,1,1438876989432,1438876990065,889,336,0,0,0,4,3,1,43,0004-00-0000-64.png,0003-00-0001-55.png
00000014,311,1,1438876991111,1438876991759,904,465,0,0,0,3,2,1,32,0003-00-0000-51.png,0002-00-0001-57.png
00000014,312,0,1438876992764,1438876993544,363,412,0,0,0,2,1,1,21,0002-00-0001-00.png,0001-00-0000-32.png
00000014,313,1,1438876995711,1438876996268,936,366,0,0,0,4,3,1,43,0004-00-0000-90.png,0003-00-0000-93.png
00000014,314,1,1438876997266,1438876997921,927,381,0,0,0,2,1,1,21,0002-00-0001-67.png,0001-00-0001-58.png
00000014,315,0,1438876999004,1438876999518,361,394,0,0,0,3,2,1,32,0003-00-0000-58.png,0002-00-0000-96.png
00000014,316,1,1438877001618,1438877002123,328,401,0,0,0,2,3,1,23,0002-00-0001-69.png,0003-00-0000-64.png
00000014,317,0,1438877003290,1438877004014,913,345,0,0,0,4,5,1,45,0004-00-0001-82.png,0005-00-0000-98.png
00000014,318,0,1438877005959,1438877006522,875,449,0,0,0,3,4,1,34,0003-00-0000-59.png,0004-00-0000-18.png
00000014,319,0,1438877008677,1438877009223,427,512,0,0,0,5,4,1,54,0005-00-0001-68.png,0004-00-0000-26.png
00000014,320,1,1438877011118,1438877011693,383,397,0,0,0,1,2,1,12,0001-00-0000-35.png,0002-00-0000-88.png
00000014,321,1,1438877012831,1438877013595,943,350,0,0,0,5,4,1,54,0005-00-0000-01.png,0004-00-0000-81.png
00000014,322,1,1438877014691,1438877015272,340,416,0,0,0,4,5,1,45,0004-00-0000-34.png,0005-00-0001-37.png
00000014,323,1,1438877016397,1438877016972,341,400,0,0,0,2,3,1,23,0002-00-0001-94.png,0003-00-0000-27.png
00000014,324,0,1438877018087,1438877018682,356,408,0,0,0,4,3,1,43,0004-00-0000-72.png,0003-00-0000-45.png
00000014,325,0,1438877020780,1438877021327,335,388,0,0,0,3,2,1,32,0003-00-0001-88.png,0002-00-0000-22.png
00000014,326,1,1438877032140,1438877032683,352,415,0,0,0,1,2,1,12,0001-00-0001-97.png,0002-00-0001-06.png
00000014,327,0,1438877033733,1438877034359,920,405,0,0,0,3,4,1,34,0003-00-0001-05.png,0004-00-0000-63.png
00000014,328,0,1438877036454,1438877036941,359,402,0,0,0,2,1,1,21,0002-00-0000-88.png,0001-00-0001-32.png
00000014,329,1,1438877039378,1438877039900,347,376,0,0,0,4,5,1,45,0004-00-0001-78.png,0005-00-0000-56.png
00000014,330,1,1438877040969,1438877041493,350,385,0,0,0,3,4,1,34,0003-00-0001-33.png,0004-00-0000-04.png
00000014,331,1,1438877042510,1438877043146,376,397,0,0,0,2,3,1,23,0002-00-0000-04.png,0003-00-0001-03.png
00000014,332,0,1438877044210,1438877044754,358,398,0,0,0,4,3,1,43,0004-00-0000-90.png,0003-00-0000-36.png
00000014,333,1,1438877046752,1438877047219,303,367,0,0,0,1,2,1,12,0001-00-0001-45.png,0002-00-0000-66.png
00000014,334,0,1438877048224,1438877048751,356,394,0,0,0,3,2,1,32,0003-00-0000-12.png,0002-00-0000-70.png
00000014,335,0,1438877050849,1438877051346,295,371,0,0,0,5,4,1,54,0005-00-0001-80.png,0004-00-0000-84.png
00000014,336,0,1438877053250,1438877053854,349,402,0,0,0,2,1,1,21,0002-00-0001-13.png,0001-00-0001-26.png
00000014,337,0,1438877056094,1438877056589,335,398,0,0,0,5,4,1,54,0005-00-0001-67.png,0004-00-0000-65.png
00000014,338,0,1438877058568,1438877059037,350,374,0,0,0,2,1,1,21,0002-00-0001-20.png,0001-00-0001-22.png
00000014,339,1,1438877061021,1438877061053,490,462,0,0,0,3,4,1,34,0003-00-0001-90.png,0004-00-0000-13.png
00000014,340,1,1438877062257,1438877062815,357,440,0,0,0,1,2,1,12,0001-00-0000-43.png,0002-00-0001-82.png
00000014,341,1,1438877064016,1438877064590,401,506,0,0,0,2,3,1,23,0002-00-0001-85.png,0003-00-0001-79.png
00000014,342,1,1438877065656,1438877066352,389,476,0,0,0,4,5,1,45,0004-00-0001-04.png,0005-00-0001-88.png
00000014,343,0,1438877067415,1438877067979,342,389,0,0,0,4,3,1,43,0004-00-0001-68.png,0003-00-0001-16.png
00000014,344,0,1438877069899,1438877070373,357,400,0,0,0,3,2,1,32,0003-00-0001-38.png,0002-00-0001-29.png
00000014,345,0,1438877072404,1438877072428,493,521,0,0,0,3,2,1,32,0003-00-0001-65.png,0002-00-0001-13.png
00000014,346,1,1438877074532,1438877075054,342,401,0,0,0,2,3,1,23,0002-00-0001-37.png,0003-00-0000-72.png
00000014,347,0,1438877076060,1438877076084,518,496,0,0,0,2,1,1,21,0002-00-0001-47.png,0001-00-0001-01.png
00000014,348,0,1438877077969,1438877077997,515,436,0,0,0,5,4,1,54,0005-00-0001-43.png,0004-00-0000-99.png
00000014,349,1,1438877080055,1438877080084,487,443,0,0,0,4,5,1,45,0004-00-0001-41.png,0005-00-0000-32.png
00000014,350,1,1438877081171,1438877082333,322,420,0,0,0,1,2,1,12,0001-00-0000-07.png,0002-00-0001-52.png
00000014,351,0,1438877083803,1438877084320,373,412,0,0,0,4,3,1,43,0004-00-0000-32.png,0003-00-0001-94.png
00000014,352,1,1438877086173,1438877086701,351,363,0,0,0,3,4,1,34,0003-00-0001-36.png,0004-00-0001-79.png
00000014,353,1,1438877087708,1438877088284,373,376,0,0,0,1,2,1,12,0001-00-0001-48.png,0002-00-0000-74.png
00000014,354,1,1438877089397,1438877089429,505,492,0,0,0,3,4,1,34,0003-00-0000-78.png,0004-00-0001-96.png
00000014,355,0,1438877090611,1438877091166,340,404,0,0,0,3,2,1,32,0003-00-0001-56.png,0002-00-0000-50.png
00000014,356,1,1438877093074,1438877093561,324,397,0,0,0,4,5,1,45,0004-00-0000-58.png,0005-00-0000-35.png
00000014,357,1,1438877095053,1438877095599,901,384,0,0,0,5,4,1,54,0005-00-0001-66.png,0004-00-0000-54.png
00000014,358,0,1438877096674,1438877097236,378,415,0,0,0,4,3,1,43,0004-00-0000-80.png,0003-00-0000-14.png
00000014,359,1,1438877099415,1438877099865,349,380,0,0,0,2,3,1,23,0002-00-0000-94.png,0003-00-0000-91.png
00000014,360,0,1438877100819,1438877101389,388,427,0,0,0,2,1,1,21,0002-00-0000-94.png,0001-00-0000-99.png
00000014,361,1,1438877103403,1438877104084,923,394,0,0,0,3,2,1,32,0003-00-0000-29.png,0002-00-0000-16.png
00000014,362,1,1438877105041,1438877105610,337,419,0,0,0,2,3,1,23,0002-00-0001-63.png,0003-00-0000-69.png
00000014,363,1,1438877106611,1438877107245,343,402,0,0,0,1,2,1,12,0001-00-0001-36.png,0002-00-0001-18.png
00000014,364,0,1438877108282,1438877108310,506,496,0,0,0,5,4,1,54,0005-00-0001-19.png,0004-00-0000-12.png
00000014,365,1,1438877110385,1438877110902,346,393,0,0,0,3,4,1,34,0003-00-0000-82.png,0004-00-0000-13.png
00000014,366,0,1438877111888,1438877112528,352,405,0,0,0,2,1,1,21,0002-00-0001-29.png,0001-00-0001-08.png
00000014,367,0,1438877114511,1438877114930,317,371,0,0,0,4,3,1,43,0004-00-0001-95.png,0003-00-0001-61.png
00000014,368,0,1438877117252,1438877117877,897,381,0,0,0,4,5,1,45,0004-00-0000-30.png,0005-00-0000-26.png
00000014,369,1,1438877120415,1438877121837,301,443,0,0,0,1,2,1,12,0001-00-0001-07.png,0002-00-0001-84.png
00000014,370,0,1438877122851,1438877122879,504,426,0,0,0,4,3,1,43,0004-00-0001-05.png,0003-00-0000-51.png
00000014,371,1,1438877124845,1438877124869,459,395,0,0,0,3,4,1,34,0003-00-0001-38.png,0004-00-0000-12.png
00000014,372,1,1438877125994,1438877126569,904,351,0,0,0,2,1,1,21,0002-00-0001-00.png,0001-00-0001-00.png
00000014,373,0,1438877127616,1438877128148,342,401,0,0,0,5,4,1,54,0005-00-0001-11.png,0004-00-0000-69.png
00000014,374,1,1438877130166,1438877130672,350,384,0,0,0,2,3,1,23,0002-00-0000-20.png,0003-00-0000-83.png
00000014,375,1,1438877131684,1438877131749,522,490,0,0,0,4,5,1,45,0004-00-0001-44.png,0005-00-0001-32.png
00000014,376,0,1438877132921,1438877132961,507,492,0,0,0,3,2,1,32,0003-00-0001-08.png,0002-00-0001-53.png
00000014,377,1,1438877135503,1438877135976,410,495,0,0,0,2,3,1,23,0002-00-0001-82.png,0003-00-0000-50.png
00000014,378,1,1438877137056,1438877137543,354,387,0,0,0,4,5,1,45,0004-00-0000-64.png,0005-00-0000-51.png
00000014,379,1,1438877138486,1438877139128,396,363,0,0,0,1,2,1,12,0001-00-0000-06.png,0002-00-0000-52.png
00000014,380,0,1438877140155,1438877140706,401,384,0,0,0,5,4,1,54,0005-00-0000-04.png,0004-00-0000-68.png
00000014,381,1,1438877142560,1438877143114,376,358,0,0,0,3,4,1,34,0003-00-0001-14.png,0004-00-0000-25.png
00000014,382,0,1438877144080,1438877144644,248,462,0,0,0,4,3,1,43,0004-00-0000-81.png,0003-00-0001-60.png
00000014,383,1,1438877146502,1438877147257,902,332,0,0,0,3,2,1,32,0003-00-0001-67.png,0002-00-0001-97.png
00000014,384,1,1438877148272,1438877148847,896,394,0,0,0,2,1,1,21,0002-00-0001-09.png,0001-00-0000-17.png
00000014,385,0,1438877149853,1438877150367,336,399,0,0,0,4,3,1,43,0004-00-0000-80.png,0003-00-0000-83.png
00000014,386,1,1438877152404,1438877152912,353,399,0,0,0,3,4,1,34,0003-00-0001-33.png,0004-00-0000-18.png
00000014,387,1,1438877153989,1438877154551,904,377,0,0,0,5,4,1,54,0005-00-0001-12.png,0004-00-0001-74.png
00000014,388,1,1438877155585,1438877156226,898,465,0,0,0,2,1,1,21,0002-00-0000-74.png,0001-00-0001-37.png
00000014,389,0,1438877157225,1438877157909,222,436,0,0,0,3,2,1,32,0003-00-0001-90.png,0002-00-0001-49.png
00000014,390,1,1438877159960,1438877160444,337,394,0,0,0,1,2,1,12,0001-00-0000-17.png,0002-00-0001-40.png
00000014,391,1,1438877161481,1438877162174,376,358,0,0,0,2,3,1,23,0002-00-0000-20.png,0003-00-0000-87.png
00000014,392,1,1438877163188,1438877163847,425,520,0,0,0,4,5,1,45,0004-00-0000-33.png,0005-00-0000-42.png
00000014,393,0,1438877164895,1438877165552,401,410,0,0,0,4,3,1,43,0004-00-0001-11.png,0003-00-0000-99.png
00000014,394,1,1438877167497,1438877168018,376,358,0,0,0,1,2,1,12,0001-00-0000-35.png,0002-00-0000-89.png
00000014,395,1,1438877168971,1438877169687,930,375,0,0,0,2,1,1,21,0002-00-0000-18.png,0001-00-0000-40.png
00000014,396,1,1438877170632,1438877171128,376,371,0,0,0,2,3,1,23,0002-00-0001-17.png,0003-00-0001-66.png
00000014,397,1,1438877172161,1438877172725,376,419,0,0,0,3,4,1,34,0003-00-0001-23.png,0004-00-0000-02.png
00000014,398,1,1438877173781,1438877174390,901,398,0,0,0,5,4,1,54,0005-00-0000-08.png,0004-00-0000-37.png
00000014,399,1,1438877175454,1438877176037,374,377,0,0,0,4,5,1,45,0004-00-0000-55.png,0005-00-0000-21.png
00000014,400,0,1438877177100,1438877177732,336,381,0,0,0,3,2,1,32,0003-00-0000-33.png,0002-00-0001-88.png
00000014,401,0,1438877179800,1438877180316,348,420,0,0,0,4,3,1,43,0004-00-0000-16.png,0003-00-0000-30.png
00000014,402,1,1438877182268,1438877182813,888,320,0,0,0,2,1,1,21,0002-00-0001-99.png,0001-00-0000-74.png
00000014,403,0,1438877183809,1438877184534,891,435,0,0,0,4,5,1,45,0004-00-0001-04.png,0005-00-0001-66.png
00000014,404,1,1438877186638,1438877187123,906,349,0,0,0,3,2,1,32,0003-00-0001-08.png,0002-00-0000-17.png
00000014,405,1,1438877188241,1438877188863,366,397,0,0,0,3,4,1,34,0003-00-0001-93.png,0004-00-0001-52.png
00000014,406,1,1438877190327,1438877190863,904,401,0,0,0,5,4,1,54,0005-00-0000-57.png,0004-00-0001-18.png
00000014,407,1,1438877191897,1438877192444,350,403,0,0,0,1,2,1,12,0001-00-0000-56.png,0002-00-0001-18.png
00000014,408,1,1438877193507,1438877194083,365,403,0,0,0,2,3,1,23,0002-00-0001-65.png,0003-00-0001-51.png
00000014,409,0,1438877195137,1438877195642,345,417,0,0,0,4,3,1,43,0004-00-0001-08.png,0003-00-0000-08.png
00000014,410,1,1438877197520,1438877198008,348,376,0,0,0,4,5,1,45,0004-00-0000-93.png,0005-00-0000-09.png
00000014,411,0,1438877199002,1438877199663,340,398,0,0,0,2,1,1,21,0002-00-0000-60.png,0001-00-0000-12.png
00000014,412,0,1438877201682,1438877202169,354,404,0,0,0,3,2,1,32,0003-00-0001-47.png,0002-00-0000-97.png
00000014,413,1,1438877204149,1438877204651,336,412,0,0,0,2,3,1,23,0002-00-0000-44.png,0003-00-0000-99.png
00000014,414,1,1438877206094,1438877206699,342,414,0,0,0,3,4,1,34,0003-00-0001-39.png,0004-00-0001-75.png
00000014,415,0,1438877207758,1438877208271,334,378,0,0,0,5,4,1,54,0005-00-0000-99.png,0004-00-0000-84.png
00000014,416,1,1438877210469,1438877210959,339,397,0,0,0,1,2,1,12,0001-00-0000-94.png,0002-00-0001-01.png
00000014,417,0,1438877211991,1438877212566,367,406,0,0,0,5,4,1,54,0005-00-0000-88.png,0004-00-0000-69.png
00000014,418,1,1438877214750,1438877215197,386,469,0,0,0,3,4,1,34,0003-00-0000-78.png,0004-00-0001-04.png
00000014,419,1,1438877216165,1438877216725,417,521,0,0,0,1,2,1,12,0001-00-0000-87.png,0002-00-0000-97.png
00000014,420,1,1438877217784,1438877217812,504,476,0,0,0,4,5,1,45,0004-00-0000-07.png,0005-00-0000-31.png
00000014,421,0,1438877219017,1438877219618,327,396,0,0,0,3,2,1,32,0003-00-0001-26.png,0002-00-0000-23.png
00000014,422,0,1438877222121,1438877222605,338,394,0,0,0,4,3,1,43,0004-00-0000-47.png,0003-00-0001-89.png
00000014,423,1,1438877224612,1438877225567,929,495,0,0,0,2,1,1,21,0002-00-0001-01.png,0001-00-0000-55.png
00000014,424,1,1438877226570,1438877227075,356,402,0,0,0,2,3,1,23,0002-00-0001-28.png,0003-00-0000-45.png
00000014,425,1,1438877228117,1438877228726,926,371,0,0,0,5,4,1,54,0005-00-0001-86.png,0004-00-0001-08.png
00000014,426,1,1438877229740,1438877230387,334,417,0,0,0,1,2,1,12,0001-00-0000-09.png,0002-00-0000-97.png
00000014,427,1,1438877231527,1438877232139,878,470,0,0,0,3,2,1,32,0003-00-0001-56.png,0002-00-0000-97.png
00000014,428,1,1438877233661,1438877234191,367,419,0,0,0,2,3,1,23,0002-00-0000-39.png,0003-00-0000-75.png
00000014,429,0,1438877235265,1438877236034,931,342,0,0,0,3,4,1,34,0003-00-0000-32.png,0004-00-0000-52.png
00000014,430,0,1438877237937,1438877238424,348,365,0,0,0,2,1,1,21,0002-00-0000-84.png,0001-00-0000-12.png
00000014,431,1,1438877240530,1438877241166,304,426,0,0,0,4,5,1,45,0004-00-0001-21.png,0005-00-0001-31.png
00000014,432,1,1438877242212,1438877242918,932,336,0,0,0,4,3,1,43,0004-00-0000-99.png,0003-00-0001-28.png
00000014,433,1,1438877243992,1438877244491,223,491,0,0,0,1,2,1,12,0001-00-0000-00.png,0002-00-0001-48.png
00000014,434,1,1438877245599,1438877246495,926,384,0,0,0,5,4,1,54,0005-00-0001-49.png,0004-00-0000-82.png
00000014,435,1,1438877247508,1438877248027,415,502,0,0,0,2,3,1,23,0002-00-0000-14.png,0003-00-0001-20.png
00000014,436,0,1438877249069,1438877249671,341,422,0,0,0,4,3,1,43,0004-00-0000-30.png,0003-00-0001-95.png
00000014,437,1,1438877251786,1438877252296,350,388,0,0,0,3,4,1,34,0003-00-0000-23.png,0004-00-0001-92.png
00000014,438,0,1438877253262,1438877253831,273,450,0,0,0,2,1,1,21,0002-00-0000-37.png,0001-00-0001-66.png
00000014,439,0,1438877256210,1438877256701,334,410,0,0,0,3,2,1,32,0003-00-0000-54.png,0002-00-0000-65.png
00000014,440,1,1438877258785,1438877259251,338,464,0,0,0,4,5,1,45,0004-00-0000-80.png,0005-00-0001-76.png
00000014,441,1,1438877260733,1438877261279,879,374,0,0,0,3,2,1,32,0003-00-0000-59.png,0002-00-0000-10.png
00000014,442,1,1438877262315,1438877262922,316,384,0,0,0,1,2,1,12,0001-00-0000-87.png,0002-00-0000-15.png
00000014,443,0,1438877263964,1438877264517,345,395,0,0,0,2,1,1,21,0002-00-0000-61.png,0001-00-0001-66.png
00000014,444,1,1438877266397,1438877266892,380,493,0,0,0,3,4,1,34,0003-00-0000-62.png,0004-00-0001-61.png
00000014,445,0,1438877267900,1438877268516,379,407,0,0,0,4,3,1,43,0004-00-0000-93.png,0003-00-0000-86.png
00000014,446,0,1438877270860,1438877271331,415,493,0,0,0,5,4,1,54,0005-00-0001-85.png,0004-00-0000-51.png
00000014,447,1,1438877273506,1438877273947,338,394,0,0,0,2,3,1,23,0002-00-0000-50.png,0003-00-0001-98.png
00000014,448,1,1438877274997,1438877275518,347,409,0,0,0,4,5,1,45,0004-00-0001-74.png,0005-00-0000-00.png
00000014,449,1,1438877276587,1438877277286,895,446,0,0,0,4,3,1,43,0004-00-0001-71.png,0003-00-0000-73.png
00000014,450,0,1438877278372,1438877278990,887,450,0,0,0,2,3,1,23,0002-00-0000-31.png,0003-00-0000-13.png
00000014,451,1,1438877280995,1438877281019,519,410,0,0,0,1,2,1,12,0001-00-0001-11.png,0002-00-0001-01.png
00000014,452,0,1438877282171,1438877282696,905,401,0,0,0,4,5,1,45,0004-00-0000-72.png,0005-00-0001-26.png
00000014,453,0,1438877284543,1438877285151,931,349,0,0,0,3,4,1,34,0003-00-0001-06.png,0004-00-0001-41.png
00000014,454,1,1438877287187,1438877287998,908,490,0,0,0,2,1,1,21,0002-00-0000-24.png,0001-00-0000-20.png
00000014,455,1,1438877288966,1438877289564,904,467,0,0,0,3,2,1,32,0003-00-0000-05.png,0002-00-0000-74.png
00000014,456,0,1438877290628,1438877291172,376,384,0,0,0,5,4,1,54,0005-00-0001-97.png,0004-00-0001-40.png
00000014,457,1,1438877293019,1438877293510,346,409,0,0,0,4,5,1,45,0004-00-0001-18.png,0005-00-0000-78.png
00000014,458,1,1438877294532,1438877295035,357,390,0,0,0,2,3,1,23,0002-00-0001-41.png,0003-00-0000-25.png
00000014,459,0,1438877296031,1438877296644,334,403,0,0,0,3,2,1,32,0003-00-0001-93.png,0002-00-0001-97.png
00000014,460,0,1438877298556,1438877299011,350,389,0,0,0,4,3,1,43,0004-00-0000-87.png,0003-00-0001-79.png
00000014,461,0,1438877301089,1438877301615,416,512,0,0,0,2,1,1,21,0002-00-0000-89.png,0001-00-0001-70.png
00000014,462,1,1438877303614,1438877304109,316,387,0,0,0,3,4,1,34,0003-00-0001-75.png,0004-00-0001-42.png
00000014,463,1,1438877305128,1438877305689,383,368,0,0,0,1,2,1,12,0001-00-0000-35.png,0002-00-0001-23.png
00000014,464,0,1438877306677,1438877306705,504,436,0,0,0,5,4,1,54,0005-00-0001-97.png,0004-00-0001-45.png
00000014,465,1,1438877308535,1438877309036,410,468,0,0,0,1,2,1,12,0001-00-0001-13.png,0002-00-0000-25.png
00000014,466,0,1438877310046,1438877310625,361,397,0,0,0,3,2,1,32,0003-00-0001-12.png,0002-00-0000-18.png
00000014,467,1,1438877312687,1438877312695,477,453,0,0,0,4,5,1,45,0004-00-0000-02.png,0005-00-0000-66.png
00000014,468,1,1438877313732,1438877313762,504,436,0,0,0,3,4,1,34,0003-00-0001-56.png,0004-00-0000-45.png
00000014,469,0,1438877314916,1438877315484,322,406,0,0,0,5,4,1,54,0005-00-0000-20.png,0004-00-0000-20.png
00000014,470,0,1438877317475,1438877317931,348,404,0,0,0,4,3,1,43,0004-00-0000-35.png,0003-00-0001-15.png
00000014,471,0,1438877320490,1438877320947,350,398,0,0,0,2,1,1,21,0002-00-0001-20.png,0001-00-0001-49.png
00000014,472,1,1438877322852,1438877322912,468,493,0,0,0,2,3,1,23,0002-00-0001-27.png,0003-00-0001-44.png
00000014,473,1,1438877324011,1438877324573,379,393,0,0,0,2,3,1,23,0002-00-0001-98.png,0003-00-0000-28.png
00000014,474,1,1438877325595,1438877326113,353,413,0,0,0,4,5,1,45,0004-00-0001-55.png,0005-00-0001-89.png
00000014,475,0,1438877327105,1438877327695,401,384,0,0,0,3,2,1,32,0003-00-0001-22.png,0002-00-0000-29.png
00000014,476,0,1438877329839,1438877330355,324,396,0,0,0,5,4,1,54,0005-00-0000-30.png,0004-00-0000-56.png
00000014,477,0,1438877332244,1438877332705,340,394,0,0,0,4,3,1,43,0004-00-0000-12.png,0003-00-0000-10.png
00000014,478,1,1438877334570,1438877335090,350,382,0,0,0,3,4,1,34,0003-00-0001-25.png,0004-00-0001-27.png
00000014,479,1,1438877336081,1438877336778,901,384,0,0,0,2,1,1,21,0002-00-0000-47.png,0001-00-0000-88.png
00000014,480,0,1438877337881,1438877338516,878,492,0,0,0,1,2,1,12,0001-00-0001-79.png,0002-00-0001-19.png
00000014,481,1,1438877340619,1438877341074,335,394,0,0,0,2,3,1,23,0002-00-0001-53.png,0003-00-0001-58.png
00000014,482,0,1438877342073,1438877342757,886,455,0,0,0,1,2,1,12,0001-00-0000-27.png,0002-00-0001-89.png
00000014,483,0,1438877344754,1438877345188,327,371,0,0,0,4,3,1,43,0004-00-0001-14.png,0003-00-0001-99.png
00000014,484,1,1438877347069,1438877347631,363,410,0,0,0,4,5,1,45,0004-00-0000-47.png,0005-00-0000-29.png
00000014,485,1,1438877348613,1438877349194,248,488,0,0,0,3,4,1,34,0003-00-0000-91.png,0004-00-0000-32.png
00000014,486,0,1438877350201,1438877350770,417,514,0,0,0,2,1,1,21,0002-00-0000-70.png,0001-00-0000-36.png
00000014,487,0,1438877352674,1438877353214,295,363,0,0,0,5,4,1,54,0005-00-0000-93.png,0004-00-0001-09.png
00000014,488,0,1438877355315,1438877355776,389,502,0,0,0,3,2,1,32,0003-00-0000-18.png,0002-00-0000-68.png
00000014,489,1,1438877357922,1438877358524,929,364,0,0,0,3,2,1,32,0003-00-0000-55.png,0002-00-0000-64.png
00000014,490,1,1438877359523,1438877360084,416,496,0,0,0,1,2,1,12,0001-00-0001-39.png,0002-00-0001-07.png
00000014,491,0,1438877361546,1438877362097,315,397,0,0,0,5,4,1,54,0005-00-0000-81.png,0004-00-0000-38.png
00000014,492,1,1438877364142,1438877364162,523,514,0,0,0,4,5,1,45,0004-00-0000-98.png,0005-00-0001-00.png
00000014,493,1,1438877365308,1438877365781,335,401,0,0,0,2,3,1,23,0002-00-0000-80.png,0003-00-0001-15.png
00000014,494,0,1438877366749,1438877367330,350,423,0,0,0,2,1,1,21,0002-00-0000-87.png,0001-00-0001-09.png
00000014,495,1,1438877369209,1438877369750,316,393,0,0,0,3,4,1,34,0003-00-0001-40.png,0004-00-0001-83.png
00000014,496,0,1438877371171,1438877371653,350,410,0,0,0,4,3,1,43,0004-00-0001-28.png,0003-00-0001-26.png
00000014,497,0,1438877373811,1438877374331,388,501,0,0,0,5,4,1,54,0005-00-0001-75.png,0004-00-0001-56.png
00000014,498,1,1438877376255,1438877376683,319,365,0,0,0,4,5,1,45,0004-00-0000-84.png,0005-00-0001-53.png
00000014,499,1,1438877377657,1438877378230,341,398,0,0,0,1,2,1,12,0001-00-0001-55.png,0002-00-0000-67.png
00000014,500,0,1438877379220,1438877379764,340,423,0,0,0,4,3,1,43,0004-00-0000-82.png,0003-00-0000-96.png
00000014,501,0,1438877381608,1438877382183,412,466,0,0,0,3,2,1,32,0003-00-0001-79.png,0002-00-0000-41.png
00000014,502,0,1438877384174,1438877384650,340,393,0,0,0,2,1,1,21,0002-00-0000-79.png,0001-00-0000-82.png
00000014,503,1,1438877386677,1438877386689,427,474,0,0,0,3,4,1,34,0003-00-0000-47.png,0004-00-0000-12.png
00000014,504,1,1438877387849,1438877388362,321,390,0,0,0,2,3,1,23,0002-00-0001-65.png,0003-00-0000-66.png
00000014,505,1,1438877389784,1438877390299,327,428,0,0,0,2,3,1,23,0002-00-0000-53.png,0003-00-0001-94.png
00000014,506,0,1438877391355,1438877391822,339,422,0,0,0,2,1,1,21,0002-00-0000-43.png,0001-00-0000-01.png
00000014,507,1,1438877393995,1438877394475,315,366,0,0,0,3,4,1,34,0003-00-0000-41.png,0004-00-0001-32.png
00000014,508,0,1438877395845,1438877395869,504,462,0,0,0,3,2,1,32,0003-00-0000-49.png,0002-00-0000-18.png
00000014,509,1,1438877398009,1438877398528,344,386,0,0,0,4,5,1,45,0004-00-0000-97.png,0005-00-0001-76.png
00000014,510,1,1438877399492,1438877399954,347,395,0,0,0,1,2,1,12,0001-00-0000-74.png,0002-00-0000-52.png
00000014,511,1,1438877401394,1438877401955,875,461,0,0,0,5,4,1,54,0005-00-0000-32.png,0004-00-0000-49.png
00000014,512,1,1438877403448,1438877404077,907,390,0,0,0,4,3,1,43,0004-00-0000-43.png,0003-00-0000-61.png
00000014,513,0,1438877405012,1438877405659,883,443,0,0,0,1,2,1,12,0001-00-0001-76.png,0002-00-0000-71.png
00000014,514,1,1438877407799,1438877408266,338,357,0,0,0,2,3,1,23,0002-00-0000-29.png,0003-00-0001-62.png
00000014,515,0,1438877409291,1438877409770,351,372,0,0,0,2,1,1,21,0002-00-0001-47.png,0001-00-0001-01.png
00000014,516,0,1438877411633,1438877412078,321,384,0,0,0,3,2,1,32,0003-00-0000-36.png,0002-00-0000-02.png
00000014,517,0,1438877413975,1438877414662,346,381,0,0,0,5,4,1,54,0005-00-0000-28.png,0004-00-0000-82.png
00000014,518,1,1438877416753,1438877416769,504,427,0,0,0,3,4,1,34,0003-00-0000-37.png,0004-00-0000-60.png
00000014,519,1,1438877417849,1438877418390,415,502,0,0,0,4,5,1,45,0004-00-0000-11.png,0005-00-0001-57.png
00000014,520,0,1438877419388,1438877420056,414,501,0,0,0,4,3,1,43,0004-00-0001-75.png,0003-00-0001-66.png
00000014,521,1,1438877422268,1438877422730,347,410,0,0,0,2,3,1,23,0002-00-0001-13.png,0003-00-0001-47.png
00000014,522,1,1438877423756,1438877424389,872,456,0,0,0,3,2,1,32,0003-00-0000-40.png,0002-00-0001-79.png
00000014,523,1,1438877425498,1438877426030,345,376,0,0,0,4,5,1,45,0004-00-0000-63.png,0005-00-0001-52.png
00000014,524,1,1438877427080,1438877427665,358,417,0,0,0,1,2,1,12,0001-00-0000-96.png,0002-00-0001-60.png
00000014,525,0,1438877428669,1438877429242,364,394,0,0,0,2,1,1,21,0002-00-0001-12.png,0001-00-0001-97.png
00000014,526,1,1438877433906,1438877434425,947,394,0,0,0,4,3,1,43,0004-00-0001-16.png,0003-00-0001-02.png
00000014,527,1,1438877435526,1438877436088,415,514,0,0,0,3,4,1,34,0003-00-0000-99.png,0004-00-0000-52.png
00000014,528,0,1438877437114,1438877437699,342,419,0,0,0,5,4,1,54,0005-00-0001-09.png,0004-00-0000-30.png
00000014,529,0,1438877439887,1438877440376,387,410,0,0,0,3,2,1,32,0003-00-0000-92.png,0002-00-0000-58.png
00000014,530,0,1438877442549,1438877443026,344,409,0,0,0,4,3,1,43,0004-00-0000-16.png,0003-00-0000-02.png
00000014,531,1,1438877444983,1438877445011,478,420,0,0,0,1,2,1,12,0001-00-0001-22.png,0002-00-0001-13.png
00000014,532,0,1438877446089,1438877446966,926,407,0,0,0,4,5,1,45,0004-00-0001-22.png,0005-00-0001-62.png
00000014,533,0,1438877448838,1438877448861,504,436,0,0,0,2,1,1,21,0002-00-0000-43.png,0001-00-0000-16.png
00000014,534,1,1438877457471,1438877458033,364,449,0,0,0,2,3,1,23,0002-00-0000-54.png,0003-00-0001-80.png
00000014,535,1,1438877459148,1438877459715,366,402,0,0,0,3,4,1,34,0003-00-0000-81.png,0004-00-0000-84.png
00000014,536,1,1438877460754,1438877461331,901,410,0,0,0,5,4,1,54,0005-00-0000-57.png,0004-00-0000-23.png
00000014,537,1,1438877463151,1438877463724,315,372,0,0,0,3,4,1,34,0003-00-0000-36.png,0004-00-0000-50.png
00000014,538,0,1438877464709,1438877465806,877,361,0,0,0,4,5,1,45,0004-00-0000-31.png,0005-00-0001-97.png
00000014,539,0,1438877468118,1438877468736,390,485,0,0,0,2,1,1,21,0002-00-0001-00.png,0001-00-0000-92.png
00000014,540,1,1438877470742,1438877471358,867,357,0,0,0,5,4,1,54,0005-00-0001-84.png,0004-00-0000-50.png
00000014,541,1,1438877472321,1438877472849,401,384,0,0,0,1,2,1,12,0001-00-0000-98.png,0002-00-0001-70.png
00000014,542,0,1438877473806,1438877474335,355,397,0,0,0,4,3,1,43,0004-00-0000-13.png,0003-00-0001-45.png
00000014,543,1,1438877476500,1438877476940,292,392,0,0,0,2,3,1,23,0002-00-0001-20.png,0003-00-0001-41.png
00000014,544,0,1438877478060,1438877478653,391,506,0,0,0,3,2,1,32,0003-00-0000-78.png,0002-00-0000-59.png
00000014,545,0,1438877480908,1438877481455,356,400,0,0,0,5,4,1,54,0005-00-0000-16.png,0004-00-0000-71.png
00000014,546,1,1438877483453,1438877484054,327,402,0,0,0,3,4,1,34,0003-00-0001-25.png,0004-00-0000-20.png
00000014,547,1,1438877485062,1438877485625,350,397,0,0,0,2,3,1,23,0002-00-0000-67.png,0003-00-0000-00.png
00000014,548,1,1438877486646,1438877486676,478,436,0,0,0,1,2,1,12,0001-00-0001-07.png,0002-00-0001-52.png
00000014,549,0,1438877487888,1438877488453,407,502,0,0,0,3,2,1,32,0003-00-0000-09.png,0002-00-0000-00.png
00000014,550,0,1438877490579,1438877491096,267,488,0,0,0,2,1,1,21,0002-00-0000-81.png,0001-00-0000-46.png
00000014,551,0,1438877493076,1438877493094,519,436,0,0,0,4,3,1,43,0004-00-0001-46.png,0003-00-0000-38.png
00000014,552,0,1438877495458,1438877496097,880,428,0,0,0,4,5,1,45,0004-00-0001-26.png,0005-00-0001-85.png
00000014,553,1,1438877498201,1438877498688,387,513,0,0,0,4,5,1,45,0004-00-0000-81.png,0005-00-0000-98.png
00000014,554,0,1438877499655,1438877499675,504,410,0,0,0,4,3,1,43,0004-00-0000-59.png,0003-00-0001-11.png
00000014,555,1,1438877501611,1438877502119,326,393,0,0,0,3,4,1,34,0003-00-0000-05.png,0004-00-0001-44.png
00000014,556,1,1438877503174,1438877504165,947,394,0,0,0,5,4,1,54,0005-00-0000-17.png,0004-00-0001-10.png
00000014,557,1,1438877505151,1438877505728,361,400,0,0,0,2,3,1,23,0002-00-0000-33.png,0003-00-0001-22.png
00000014,558,0,1438877507206,1438877507724,410,520,0,0,0,3,2,1,32,0003-00-0001-31.png,0002-00-0000-15.png
00000014,559,0,1438877516652,1438877517148,347,404,0,0,0,2,1,1,21,0002-00-0001-06.png,0001-00-0000-62.png
00000014,560,1,1438877519190,1438877519206,513,443,0,0,0,1,2,1,12,0001-00-0000-41.png,0002-00-0000-66.png
00000014,561,0,1438877520363,1438877520938,333,384,0,0,0,2,1,1,21,0002-00-0001-32.png,0001-00-0000-25.png
00000014,562,1,1438877522909,1438877523404,325,354,0,0,0,3,4,1,34,0003-00-0001-80.png,0004-00-0000-04.png
00000014,563,1,1438877524308,1438877524865,427,384,0,0,0,1,2,1,12,0001-00-0000-46.png,0002-00-0001-70.png
00000014,564,0,1438877525899,1438877525903,504,462,0,0,0,4,3,1,43,0004-00-0000-61.png,0003-00-0000-90.png
00000014,565,0,1438877527755,1438877528212,341,393,0,0,0,3,2,1,32,0003-00-0001-39.png,0002-00-0001-82.png
00000014,566,1,1438877530099,1438877530120,491,371,0,0,0,2,3,1,23,0002-00-0000-24.png,0003-00-0000-11.png
00000014,567,1,1438877531237,1438877531761,339,406,0,0,0,4,5,1,45,0004-00-0001-04.png,0005-00-0001-04.png
00000014,568,0,1438877532764,1438877533358,341,386,0,0,0,5,4,1,54,0005-00-0000-37.png,0004-00-0001-48.png
00000014,569,1,1438877535566,1438877536043,348,390,0,0,0,4,5,1,45,0004-00-0001-25.png,0005-00-0000-91.png
00000014,570,0,1438877537028,1438877537542,344,399,0,0,0,4,3,1,43,0004-00-0000-77.png,0003-00-0001-77.png
00000014,571,1,1438877540526,1438877541427,926,383,0,0,0,2,1,1,21,0002-00-0000-31.png,0001-00-0000-38.png
00000014,572,0,1438877542395,1438877543217,889,346,0,0,0,1,2,1,12,0001-00-0001-89.png,0002-00-0000-95.png
00000014,573,1,1438877545136,1438877545571,361,398,0,0,0,3,4,1,34,0003-00-0000-07.png,0004-00-0000-09.png
00000014,574,0,1438877546516,1438877547059,359,397,0,0,0,3,2,1,32,0003-00-0000-09.png,0002-00-0001-38.png
00000014,575,1,1438877548970,1438877549443,350,384,0,0,0,2,3,1,23,0002-00-0001-28.png,0003-00-0001-29.png
00000014,576,0,1438877550353,1438877550382,517,462,0,0,0,5,4,1,54,0005-00-0000-91.png,0004-00-0001-88.png
00000014,577,1,1438877552401,1438877553003,913,347,0,0,0,2,1,1,21,0002-00-0000-90.png,0001-00-0001-52.png
00000014,578,1,1438877554021,1438877554659,882,448,0,0,0,3,2,1,32,0003-00-0001-56.png,0002-00-0001-83.png
00000014,579,1,1438877555720,1438877556193,328,391,0,0,0,2,3,1,23,0002-00-0001-70.png,0003-00-0001-58.png
00000014,580,1,1438877557223,1438877557932,925,361,0,0,0,5,4,1,54,0005-00-0001-79.png,0004-00-0000-80.png
00000014,581,1,1438877558911,1438877559514,905,402,0,0,0,4,3,1,43,0004-00-0000-08.png,0003-00-0001-61.png
00000014,582,0,1438877560541,1438877561128,930,375,0,0,0,3,4,1,34,0003-00-0001-16.png,0004-00-0000-50.png
00000014,583,1,1438877563292,1438877563793,339,400,0,0,0,4,5,1,45,0004-00-0001-54.png,0005-00-0001-01.png
00000014,584,1,1438877564705,1438877565322,339,394,0,0,0,1,2,1,12,0001-00-0001-43.png,0002-00-0000-64.png
00000014,585,0,1438877566306,1438877566336,509,492,0,0,0,2,1,1,21,0002-00-0001-22.png,0001-00-0001-80.png
00000014,586,0,1438877568514,1438877568959,336,401,0,0,0,3,2,1,32,0003-00-0000-69.png,0002-00-0001-41.png
00000014,587,1,1438877571562,1438877572068,324,439,0,0,0,2,3,1,23,0002-00-0000-89.png,0003-00-0001-63.png
00000014,588,0,1438877573003,1438877573031,494,410,0,0,0,5,4,1,54,0005-00-0000-79.png,0004-00-0001-25.png
00000014,589,1,1438877574880,1438877575392,293,386,0,0,0,3,4,1,34,0003-00-0001-67.png,0004-00-0000-90.png
00000014,590,0,1438877576351,1438877576953,389,403,0,0,0,4,3,1,43,0004-00-0000-73.png,0003-00-0000-29.png
00000014,591,1,1438877579092,1438877579658,323,386,0,0,0,4,5,1,45,0004-00-0000-18.png,0005-00-0000-48.png
00000014,592,1,1438877580665,1438877581155,355,425,0,0,0,1,2,1,12,0001-00-0000-99.png,0002-00-0000-79.png
00000014,593,1,1438877582184,1438877582901,376,396,0,0,0,3,4,1,34,0003-00-0000-50.png,0004-00-0000-76.png
00000014,594,1,1438877583924,1438877584418,353,411,0,0,0,4,5,1,45,0004-00-0001-87.png,0005-00-0000-71.png
00000014,595,0,1438877585615,1438877586165,427,515,0,0,0,3,2,1,32,0003-00-0000-79.png,0002-00-0001-22.png
00000014,596,0,1438877588192,1438877588715,344,423,0,0,0,4,3,1,43,0004-00-0000-56.png,0003-00-0000-07.png
00000014,597,1,1438877596476,1438877597269,884,411,0,0,0,5,4,1,54,0005-00-0000-60.png,0004-00-0001-08.png
00000014,598,1,1438877598307,1438877598892,299,448,0,0,0,2,3,1,23,0002-00-0000-29.png,0003-00-0000-92.png
00000014,599,1,1438877599946,1438877600474,347,400,0,0,0,1,2,1,12,0001-00-0001-39.png,0002-00-0000-70.png
00000014,600,0,1438877601954,1438877602483,350,410,0,0,0,2,1,1,21,0002-00-0001-60.png,0001-00-0000-75.png
00000014,601,1,1438877605260,1438877605769,325,405,0,0,0,1,2,1,12,0001-00-0000-04.png,0002-00-0000-56.png
00000014,602,0,1438877606744,1438877607343,292,412,0,0,0,5,4,1,54,0005-00-0000-29.png,0004-00-0001-94.png
00000014,603,0,1438877609349,1438877610016,316,386,0,0,0,4,3,1,43,0004-00-0000-30.png,0003-00-0001-90.png
00000014,604,0,1438877612042,1438877612490,361,373,0,0,0,2,1,1,21,0002-00-0000-17.png,0001-00-0000-93.png
00000014,605,0,1438877614873,1438877615467,406,416,0,0,0,3,2,1,32,0003-00-0001-70.png,0002-00-0001-98.png
00000014,606,1,1438877617348,1438877617907,351,389,0,0,0,3,4,1,34,0003-00-0000-20.png,0004-00-0000-35.png
00000014,607,0,1438877618829,1438877619427,925,377,0,0,0,2,3,1,23,0002-00-0000-77.png,0003-00-0001-90.png
00000014,608,1,1438877621371,1438877621849,329,368,0,0,0,4,5,1,45,0004-00-0000-71.png,0005-00-0000-40.png
00000014,609,0,1438877622845,1438877623561,931,369,0,0,0,1,2,1,12,0001-00-0000-02.png,0002-00-0001-33.png
00000014,610,0,1438877629076,1438877629850,926,365,0,0,0,4,5,1,45,0004-00-0000-87.png,0005-00-0000-54.png
00000014,611,1,1438877631895,1438877632423,310,400,0,0,0,2,3,1,23,0002-00-0001-51.png,0003-00-0000-97.png
00000014,612,0,1438877634044,1438877634510,339,386,0,0,0,2,1,1,21,0002-00-0001-66.png,0001-00-0001-66.png
00000014,613,1,1438877636639,1438877637277,324,389,0,0,0,3,4,1,34,0003-00-0001-62.png,0004-00-0000-31.png
00000014,614,1,1438877638259,1438877638937,900,358,0,0,0,3,2,1,32,0003-00-0000-02.png,0002-00-0001-13.png
00000014,615,0,1438877639962,1438877640492,321,378,0,0,0,4,3,1,43,0004-00-0001-65.png,0003-00-0000-78.png
00000014,616,1,1438877642339,1438877642924,948,354,0,0,0,5,4,1,54,0005-00-0000-08.png,0004-00-0000-50.png
00000014,617,0,1438877643800,1438877644406,905,454,0,0,0,3,4,1,34,0003-00-0001-74.png,0004-00-0000-24.png
00000014,618,0,1438877646633,1438877647675,358,397,0,0,0,4,3,1,43,0004-00-0000-91.png,0003-00-0001-68.png
00000014,619,1,1438877649599,1438877650301,903,389,0,0,0,5,4,1,54,0005-00-0001-56.png,0004-00-0000-97.png
00000014,620,1,1438877651277,1438877651821,376,384,0,0,0,2,3,1,23,0002-00-0001-66.png,0003-00-0001-53.png
00000014,621,1,1438877652827,1438877653356,248,450,0,0,0,1,2,1,12,0001-00-0001-99.png,0002-00-0000-75.png
00000014,622,1,1438877654347,1438877654950,373,413,0,0,0,4,5,1,45,0004-00-0000-87.png,0005-00-0001-49.png
00000014,623,0,1438877655926,1438877656498,354,419,0,0,0,2,1,1,21,0002-00-0001-41.png,0001-00-0001-11.png
00000014,624,1,1438877660421,1438877661018,918,433,0,0,0,3,2,1,32,0003-00-0000-19.png,0002-00-0000-55.png
00000014,625,1,1438877662517,1438877663050,364,431,0,0,0,1,2,1,12,0001-00-0001-47.png,0002-00-0001-58.png
00000014,626,0,1438877664433,1438877664972,343,418,0,0,0,2,1,1,21,0002-00-0001-91.png,0001-00-0000-07.png
00000014,627,1,1438877666823,1438877667436,926,397,0,0,0,5,4,1,54,0005-00-0000-20.png,0004-00-0001-39.png
00000014,628,0,1438877668333,1438877668937,350,372,0,0,0,4,3,1,43,0004-00-0000-77.png,0003-00-0000-65.png
00000014,629,0,1438877670841,1438877671308,376,397,0,0,0,3,2,1,32,0003-00-0000-18.png,0002-00-0000-11.png
00000014,630,0,1438877673396,1438877673915,939,423,0,0,0,2,3,1,23,0002-00-0000-28.png,0003-00-0000-13.png
00000014,631,1,1438877675791,1438877676277,387,492,0,0,0,4,5,1,45,0004-00-0000-75.png,0005-00-0001-75.png
00000014,632,1,1438877677255,1438877677905,341,401,0,0,0,3,4,1,34,0003-00-0001-38.png,0004-00-0001-67.png
00000014,633,0,1438877678934,1438877679565,346,405,0,0,0,5,4,1,54,0005-00-0001-71.png,0004-00-0000-01.png
00000014,634,1,1438877681764,1438877682265,386,529,0,0,0,3,4,1,34,0003-00-0001-38.png,0004-00-0001-72.png
00000014,635,1,1438877683269,1438877683883,894,513,0,0,0,4,3,1,43,0004-00-0000-02.png,0003-00-0001-87.png
00000014,636,1,1438877684856,1438877685437,879,496,0,0,0,2,1,1,21,0002-00-0001-47.png,0001-00-0001-86.png
00000014,637,1,1438877686447,1438877687092,324,397,0,0,0,4,5,1,45,0004-00-0000-01.png,0005-00-0001-84.png
00000014,638,1,1438877688087,1438877688662,318,409,0,0,0,1,2,1,12,0001-00-0000-15.png,0002-00-0001-10.png
00000014,639,0,1438877690460,1438877690996,371,434,0,0,0,3,2,1,32,0003-00-0001-23.png,0002-00-0000-82.png
00000014,640,1,1438877692858,1438877693316,407,512,0,0,0,2,3,1,23,0002-00-0001-69.png,0003-00-0001-29.png
00000014,641,0,1438877694727,1438877695184,363,403,0,0,0,2,1,1,21,0002-00-0000-16.png,0001-00-0000-29.png
00000014,642,1,1438877697318,1438877697753,350,385,0,0,0,4,5,1,45,0004-00-0001-88.png,0005-00-0000-84.png
00000014,643,1,1438877698752,1438877699276,379,418,0,0,0,2,3,1,23,0002-00-0001-79.png,0003-00-0001-90.png
00000014,644,1,1438877700201,1438877700855,362,396,0,0,0,3,4,1,34,0003-00-0000-41.png,0004-00-0000-82.png
00000014,645,0,1438877702055,1438877702554,376,450,0,0,0,3,2,1,32,0003-00-0000-94.png,0002-00-0000-84.png
00000014,646,0,1438877704434,1438877704454,517,462,0,0,0,4,3,1,43,0004-00-0001-12.png,0003-00-0000-30.png
00000014,647,1,1438877706297,1438877706796,346,363,0,0,0,1,2,1,12,0001-00-0000-31.png,0002-00-0001-76.png
00000014,648,1,1438877707763,1438877708336,865,482,0,0,0,5,4,1,54,0005-00-0001-68.png,0004-00-0001-62.png
00000014,649,1,1438877709304,1438877709328,522,480,0,0,0,4,5,1,45,0004-00-0000-69.png,0005-00-0001-19.png
00000014,650,0,1438877710835,1438877711345,414,529,0,0,0,3,2,1,32,0003-00-0001-00.png,0002-00-0000-31.png
00000014,651,1,1438877713356,1438877713989,918,359,0,0,0,5,4,1,54,0005-00-0000-63.png,0004-00-0001-09.png
00000014,652,1,1438877715384,1438877715919,325,376,0,0,0,3,4,1,34,0003-00-0001-13.png,0004-00-0000-36.png
00000014,653,1,1438877716896,1438877716924,504,475,0,0,0,2,3,1,23,0002-00-0001-77.png,0003-00-0001-19.png
00000014,654,0,1438877718454,1438877718943,338,418,0,0,0,2,1,1,21,0002-00-0001-19.png,0001-00-0000-11.png
00000014,655,1,1438877721129,1438877721634,384,408,0,0,0,1,2,1,12,0001-00-0001-38.png,0002-00-0001-01.png
00000014,656,0,1438877722581,1438877723140,392,405,0,0,0,4,3,1,43,0004-00-0001-89.png,0003-00-0000-34.png
00000014,657,1,1438877725006,1438877725486,389,489,0,0,0,1,2,1,12,0001-00-0001-96.png,0002-00-0000-69.png
00000014,658,1,1438877726466,1438877727017,376,384,0,0,0,2,3,1,23,0002-00-0000-34.png,0003-00-0001-25.png
00000014,659,1,1438877728226,1438877728721,401,410,0,0,0,3,4,1,34,0003-00-0001-55.png,0004-00-0001-35.png
00000014,660,0,1438877729667,1438877730276,368,450,0,0,0,5,4,1,54,0005-00-0001-93.png,0004-00-0000-42.png
00000014,661,0,1438877732319,1438877732336,478,475,0,0,0,4,3,1,43,0004-00-0001-53.png,0003-00-0001-80.png
00000014,662,1,1438877734225,1438877734663,380,383,0,0,0,4,5,1,45,0004-00-0001-05.png,0005-00-0001-07.png
00000014,663,0,1438877735640,1438877736132,343,390,0,0,0,3,2,1,32,0003-00-0000-82.png,0002-00-0001-15.png
00000014,664,1,1438877738061,1438877738756,950,372,0,0,0,2,1,1,21,0002-00-0001-39.png,0001-00-0001-80.png
00000014,665,0,1438877739704,1438877740337,900,438,0,0,0,3,4,1,34,0003-00-0001-83.png,0004-00-0000-86.png
00000014,666,0,1438877742364,1438877742846,325,387,0,0,0,3,2,1,32,0003-00-0001-32.png,0002-00-0000-50.png
00000014,667,0,1438877744938,1438877745377,353,389,0,0,0,5,4,1,54,0005-00-0001-47.png,0004-00-0001-32.png
00000014,668,1,1438877747352,1438877748127,348,404,0,0,0,2,3,1,23,0002-00-0000-82.png,0003-00-0001-59.png
00000014,669,1,1438877749062,1438877749628,341,387,0,0,0,4,5,1,45,0004-00-0001-46.png,0005-00-0000-18.png
00000014,670,1,1438877750554,1438877751080,420,513,0,0,0,1,2,1,12,0001-00-0001-55.png,0002-00-0001-54.png
00000014,671,0,1438877752108,1438877752129,504,482,0,0,0,4,3,1,43,0004-00-0000-27.png,0003-00-0001-94.png
00000014,672,0,1438877754198,1438877754700,436,482,0,0,0,2,1,1,21,0002-00-0000-52.png,0001-00-0000-65.png
00000014,673,1,1438877756854,1438877756866,517,488,0,0,0,4,5,1,45,0004-00-0000-31.png,0005-00-0001-99.png
00000014,674,0,1438877757919,1438877758529,393,402,0,0,0,4,3,1,43,0004-00-0001-59.png,0003-00-0000-01.png
00000014,675,0,1438877760915,1438877761392,361,388,0,0,0,3,2,1,32,0003-00-0000-34.png,0002-00-0001-47.png
00000014,676,1,1438877763291,1438877763953,340,391,0,0,0,2,3,1,23,0002-00-0000-04.png,0003-00-0000-85.png
00000014,677,0,1438877764901,1438877765515,383,392,0,0,0,5,4,1,54,0005-00-0001-86.png,0004-00-0001-96.png
00000014,678,1,1438877767456,1438877767959,376,408,0,0,0,3,4,1,34,0003-00-0001-45.png,0004-00-0001-42.png
00000014,679,1,1438877769373,1438877769922,441,540,0,0,0,1,2,1,12,0001-00-0001-56.png,0002-00-0000-83.png
00000014,680,0,1438877770874,1438877771470,401,384,0,0,0,2,1,1,21,0002-00-0000-15.png,0001-00-0000-91.png
00000014,681,0,1438877773305,1438877773881,325,370,0,0,0,5,4,1,54,0005-00-0000-61.png,0004-00-0001-69.png
00000014,682,1,1438877776334,1438877776859,234,462,0,0,0,2,3,1,23,0002-00-0000-68.png,0003-00-0001-04.png
00000014,683,1,1438877777759,1438877777837,478,535,0,0,0,3,4,1,34,0003-00-0000-26.png,0004-00-0000-78.png
00000014,684,1,1438877778974,1438877779544,397,415,0,0,0,1,2,1,12,0001-00-0000-04.png,0002-00-0000-84.png
00000014,685,0,1438877780703,1438877781226,376,419,0,0,0,4,3,1,43,0004-00-0001-29.png,0003-00-0001-34.png
00000014,686,0,1438877785067,1438877785618,314,405,0,0,0,3,2,1,32,0003-00-0001-24.png,0002-00-0000-59.png
00000014,687,1,1438877787888,1438877788392,248,462,0,0,0,4,5,1,45,0004-00-0000-40.png,0005-00-0001-39.png
00000014,688,0,1438877789538,1438877790145,347,429,0,0,0,2,1,1,21,0002-00-0001-83.png,0001-00-0001-74.png
00000014,689,1,1438877792092,1438877792664,931,392,0,0,0,2,1,1,21,0002-00-0000-96.png,0001-00-0000-14.png
00000014,690,1,1438877793634,1438877794383,925,384,0,0,0,5,4,1,54,0005-00-0000-77.png,0004-00-0001-64.png
00000014,691,0,1438877795271,1438877796044,924,396,0,0,0,2,3,1,23,0002-00-0001-45.png,0003-00-0000-08.png
00000014,692,1,1438877798115,1438877798712,954,370,0,0,0,4,3,1,43,0004-00-0000-67.png,0003-00-0000-12.png
00000014,693,0,1438877799561,1438877800439,948,400,0,0,0,4,5,1,45,0004-00-0001-13.png,0005-00-0000-13.png
00000014,694,1,1438877802348,1438877802813,375,404,0,0,0,3,4,1,34,0003-00-0001-99.png,0004-00-0000-29.png
00000014,695,1,1438877803838,1438877804432,904,376,0,0,0,3,2,1,32,0003-00-0000-50.png,0002-00-0001-64.png
00000014,696,1,1438877805339,1438877805872,346,429,0,0,0,1,2,1,12,0001-00-0000-15.png,0002-00-0001-68.png
00000014,697,1,1438877807293,1438877807859,345,429,0,0,0,1,2,1,12,0001-00-0000-68.png,0002-00-0001-37.png
00000014,698,1,1438877808765,1438877808789,515,474,0,0,0,3,4,1,34,0003-00-0001-92.png,0004-00-0001-54.png
00000014,699,0,1438877809960,1438877810486,367,405,0,0,0,2,1,1,21,0002-00-0001-17.png,0001-00-0000-18.png
00000014,700,0,1438877812639,1438877813158,365,419,0,0,0,3,2,1,32,0003-00-0000-18.png,0002-00-0001-86.png
00000014,701,1,1438877815564,1438877816070,322,399,0,0,0,2,3,1,23,0002-00-0001-29.png,0003-00-0001-24.png
00000014,702,0,1438877817098,1438877817757,913,398,0,0,0,4,5,1,45,0004-00-0001-57.png,0005-00-0001-68.png
00000014,703,0,1438877819906,1438877820459,368,398,0,0,0,4,3,1,43,0004-00-0000-14.png,0003-00-0001-17.png
00000014,704,0,1438877822308,1438877822324,504,462,0,0,0,5,4,1,54,0005-00-0001-46.png,0004-00-0001-44.png
00000014,705,1,1438877824302,1438877824780,925,380,0,0,0,2,1,1,21,0002-00-0000-54.png,0001-00-0001-22.png
00000014,706,0,1438877825754,1438877826334,392,403,0,0,0,5,4,1,54,0005-00-0001-05.png,0004-00-0000-80.png
00000014,707,0,1438877828344,1438877828360,491,421,0,0,0,3,2,1,32,0003-00-0000-23.png,0002-00-0001-55.png
00000014,708,1,1438877830514,1438877831007,340,397,0,0,0,2,3,1,23,0002-00-0000-85.png,0003-00-0000-08.png
00000014,709,0,1438877831985,1438877832549,248,462,0,0,0,4,3,1,43,0004-00-0001-99.png,0003-00-0001-10.png
00000014,710,1,1438877834644,1438877835155,348,402,0,0,0,3,4,1,34,0003-00-0000-83.png,0004-00-0000-48.png
00000014,711,0,1438877836158,1438877836694,925,397,0,0,0,4,5,1,45,0004-00-0000-04.png,0005-00-0001-18.png
00000014,712,1,1438877838630,1438877839136,407,485,0,0,0,1,2,1,12,0001-00-0001-79.png,0002-00-0001-20.png
00000014,713,0,1438877840143,1438877840696,401,358,0,0,0,2,1,1,21,0002-00-0001-13.png,0001-00-0000-64.png
00000014,714,1,1438877842963,1438877843407,407,511,0,0,0,2,3,1,23,0002-00-0000-30.png,0003-00-0001-89.png
00000014,715,1,1438877844363,1438877845028,413,503,0,0,0,3,4,1,34,0003-00-0001-90.png,0004-00-0001-01.png
00000014,716,0,1438877845995,1438877846516,401,384,0,0,0,3,2,1,32,0003-00-0000-37.png,0002-00-0000-23.png
00000014,717,0,1438877848498,1438877848961,343,367,0,0,0,5,4,1,54,0005-00-0000-33.png,0004-00-0000-53.png
00000014,718,0,1438877850853,1438877851299,328,377,0,0,0,4,3,1,43,0004-00-0001-30.png,0003-00-0001-84.png
00000014,719,1,1438877853551,1438877854057,325,389,0,0,0,1,2,1,12,0001-00-0001-20.png,0002-00-0000-97.png
00000014,720,1,1438877855059,1438877855710,417,519,0,0,0,4,5,1,45,0004-00-0000-98.png,0005-00-0000-86.png
00000014,721,0,1438877856751,1438877857313,233,450,0,0,0,3,2,1,32,0003-00-0001-44.png,0002-00-0001-64.png
00000014,722,0,1438877859181,1438877859653,347,390,0,0,0,2,1,1,21,0002-00-0001-51.png,0001-00-0000-10.png
00000014,723,1,1438877861876,1438877862380,362,423,0,0,0,3,4,1,34,0003-00-0001-24.png,0004-00-0000-92.png
00000014,724,0,1438877863388,1438877863981,328,422,0,0,0,4,3,1,43,0004-00-0000-25.png,0003-00-0001-46.png
00000014,725,0,1438877866099,1438877866601,401,424,0,0,0,5,4,1,54,0005-00-0000-70.png,0004-00-0001-59.png
00000014,726,1,1438877868608,1438877869105,369,402,0,0,0,2,3,1,23,0002-00-0000-57.png,0003-00-0001-51.png
00000014,727,0,1438877870564,1438877871116,905,391,0,0,0,4,5,1,45,0004-00-0000-11.png,0005-00-0001-38.png
00000014,728,0,1438877873064,1438877873678,895,473,0,0,0,1,2,1,12,0001-00-0000-09.png,0002-00-0001-97.png
00000014,729,1,1438877876249,1438877876695,342,390,0,0,0,4,5,1,45,0004-00-0001-99.png,0005-00-0000-57.png
00000014,730,0,1438877877666,1438877878319,957,388,0,0,0,2,3,1,23,0002-00-0001-58.png,0003-00-0000-61.png
00000014,731,1,1438877880289,1438877880997,916,377,0,0,0,3,2,1,32,0003-00-0000-76.png,0002-00-0001-94.png
00000014,732,1,1438877881910,1438877882515,925,475,0,0,0,4,3,1,43,0004-00-0001-59.png,0003-00-0001-26.png
00000014,733,1,1438877883521,1438877884111,344,420,0,0,0,1,2,1,12,0001-00-0000-80.png,0002-00-0000-89.png
00000014,734,1,1438877885584,1438877886065,904,403,0,0,0,2,1,1,21,0002-00-0001-01.png,0001-00-0000-99.png
00000014,735,0,1438877887127,1438877887730,897,361,0,0,0,3,4,1,34,0003-00-0000-10.png,0004-00-0000-50.png
00000014,736,1,1438877889908,1438877890585,939,358,0,0,0,5,4,1,54,0005-00-0000-38.png,0004-00-0001-63.png
00000014,737,1,1438877891935,1438877892472,939,384,0,0,0,4,3,1,43,0004-00-0001-02.png,0003-00-0000-39.png
00000014,738,0,1438877893439,1438877894112,367,375,0,0,0,3,2,1,32,0003-00-0001-07.png,0002-00-0000-64.png
00000014,739,1,1438877896088,1438877896661,874,455,0,0,0,5,4,1,54,0005-00-0000-87.png,0004-00-0001-33.png
00000014,740,1,1438877898070,1438877898584,346,413,0,0,0,1,2,1,12,0001-00-0001-51.png,0002-00-0001-80.png
00000014,741,1,1438877899551,1438877900240,344,410,0,0,0,3,4,1,34,0003-00-0001-38.png,0004-00-0000-70.png
00000014,742,0,1438877901249,1438877901821,365,403,0,0,0,2,1,1,21,0002-00-0000-09.png,0001-00-0001-74.png
00000014,743,1,1438877904272,1438877904827,359,388,0,0,0,2,3,1,23,0002-00-0000-89.png,0003-00-0001-07.png
00000014,744,1,1438877905800,1438877906537,347,377,0,0,0,4,5,1,45,0004-00-0001-90.png,0005-00-0000-61.png
00000014,745,1,1438877907529,1438877908130,360,392,0,0,0,3,4,1,34,0003-00-0000-24.png,0004-00-0000-07.png
00000014,746,1,1438877909643,1438877910154,354,397,0,0,0,1,2,1,12,0001-00-0001-64.png,0002-00-0000-60.png
00000014,747,0,1438877911208,1438877911717,363,410,0,0,0,4,3,1,43,0004-00-0001-10.png,0003-00-0001-12.png
00000014,748,1,1438877913568,1438877913588,504,488,0,0,0,2,3,1,23,0002-00-0000-80.png,0003-00-0001-37.png
00000014,749,0,1438877914784,1438877915284,383,419,0,0,0,5,4,1,54,0005-00-0000-61.png,0004-00-0001-53.png
00000014,750,0,1438877917316,1438877917780,315,396,0,0,0,2,1,1,21,0002-00-0001-58.png,0001-00-0001-04.png
00000014,751,1,1438877919840,1438877920359,350,397,0,0,0,4,5,1,45,0004-00-0000-94.png,0005-00-0001-32.png
00000014,752,0,1438877921355,1438877922077,376,371,0,0,0,3,2,1,32,0003-00-0000-06.png,0002-00-0001-72.png
00000014,753,0,1438877924178,1438877924655,376,396,0,0,0,4,3,1,43,0004-00-0001-06.png,0003-00-0001-78.png
00000014,754,0,1438877926740,1438877927264,370,429,0,0,0,2,1,1,21,0002-00-0000-00.png,0001-00-0001-00.png
00000014,755,0,1438877929442,1438877930207,901,384,0,0,0,4,5,1,45,0004-00-0000-82.png,0005-00-0001-09.png
00000014,756,0,1438877932197,1438877932862,873,475,0,0,0,1,2,1,12,0001-00-0001-94.png,0002-00-0000-03.png
00000014,757,0,1438877934827,1438877934867,489,462,0,0,0,5,4,1,54,0005-00-0000-14.png,0004-00-0001-71.png
00000014,758,0,1438877936933,1438877937444,264,462,0,0,0,3,2,1,32,0003-00-0000-99.png,0002-00-0001-30.png
00000014,759,1,1438877939859,1438877939879,509,466,0,0,0,3,4,1,34,0003-00-0001-04.png,0004-00-0001-00.png
00000014,760,0,1438877941777,1438877942914,905,428,0,0,0,2,3,1,23,0002-00-0001-19.png,0003-00-0000-85.png
00000014,761,1,1438877945062,1438877945739,335,381,0,0,0,1,2,1,12,0001-00-0000-63.png,0002-00-0001-01.png
00000014,762,0,1438877946724,1438877946744,504,476,0,0,0,5,4,1,54,0005-00-0000-62.png,0004-00-0001-72.png
00000014,763,0,1438877948659,1438877948679,514,501,0,0,0,4,3,1,43,0004-00-0001-08.png,0003-00-0001-26.png
00000014,764,1,1438877950656,1438877950688,510,474,0,0,0,2,3,1,23,0002-00-0000-41.png,0003-00-0001-25.png
00000014,765,0,1438877951723,1438877952281,893,477,0,0,0,3,4,1,34,0003-00-0001-03.png,0004-00-0001-65.png
00000014,766,0,1438877954393,1438877954974,892,412,0,0,0,4,5,1,45,0004-00-0001-90.png,0005-00-0000-20.png
00000014,767,0,1438877956926,1438877957493,337,424,0,0,0,2,1,1,21,0002-00-0001-02.png,0001-00-0000-98.png
00000014,768,0,1438877959779,1438877960454,337,393,0,0,0,3,2,1,32,0003-00-0001-47.png,0002-00-0001-56.png
00000014,769,0,1438877963548,1438877964039,309,440,0,0,0,4,3,1,43,0004-00-0000-98.png,0003-00-0000-64.png
00000014,770,0,1438877966130,1438877966711,314,405,0,0,0,2,1,1,21,0002-00-0000-49.png,0001-00-0001-43.png
00000014,771,1,1438877968843,1438877968879,492,481,0,0,0,3,4,1,34,0003-00-0001-80.png,0004-00-0001-10.png
00000014,772,0,1438877970049,1438877971202,878,498,0,0,0,2,3,1,23,0002-00-0001-78.png,0003-00-0001-50.png
00000014,773,0,1438877973177,1438877973793,312,379,0,0,0,3,2,1,32,0003-00-0001-64.png,0002-00-0001-69.png
00000014,774,0,1438877975860,1438877975884,514,462,0,0,0,5,4,1,54,0005-00-0000-17.png,0004-00-0000-38.png
00000014,775,1,1438877977758,1438877978339,318,367,0,0,0,1,2,1,12,0001-00-0000-42.png,0002-00-0001-46.png
00000014,776,1,1438877979331,1438877979935,222,462,0,0,0,4,5,1,45,0004-00-0001-37.png,0005-00-0000-73.png
00000014,777,1,1438877980961,1438877980981,504,452,0,0,0,2,3,1,23,0002-00-0000-45.png,0003-00-0000-61.png
00000014,778,0,1438877982075,1438877982665,360,409,0,0,0,2,1,1,21,0002-00-0001-41.png,0001-00-0000-24.png
00000014,779,1,1438877984864,1438877985420,354,396,0,0,0,1,2,1,12,0001-00-0001-18.png,0002-00-0001-43.png
00000014,780,1,1438877986790,1438877987438,324,390,0,0,0,3,4,1,34,0003-00-0001-85.png,0004-00-0000-75.png
00000014,781,0,1438877988444,1438877988516,498,517,0,0,0,5,4,1,54,0005-00-0000-70.png,0004-00-0000-27.png
00000014,782,0,1438877990400,1438877990977,419,485,0,0,0,3,2,1,32,0003-00-0001-76.png,0002-00-0001-14.png
00000014,783,1,1438877993012,1438877993626,927,376,0,0,0,4,3,1,43,0004-00-0000-38.png,0003-00-0001-88.png
00000014,784,1,1438877994638,1438877995352,410,497,0,0,0,4,5,1,45,0004-00-0000-62.png,0005-00-0001-59.png
00000014,785,1,1438877996335,1438877996885,328,388,0,0,0,1,2,1,12,0001-00-0000-18.png,0002-00-0000-74.png
00000014,786,1,1438877997839,1438877998610,874,475,0,0,0,2,1,1,21,0002-00-0000-11.png,0001-00-0000-71.png
00000014,787,0,1438878000001,1438878000525,365,410,0,0,0,4,3,1,43,0004-00-0001-62.png,0003-00-0000-47.png
00000014,788,1,1438878002987,1438878003504,905,391,0,0,0,3,2,1,32,0003-00-0001-53.png,0002-00-0001-85.png
00000014,789,0,1438878004446,1438878005078,908,410,0,0,0,3,4,1,34,0003-00-0001-00.png,0004-00-0001-34.png
00000014,790,0,1438878007152,1438878007700,918,390,0,0,0,4,5,1,45,0004-00-0000-90.png,0005-00-0001-33.png
00000014,791,1,1438878009951,1438878010533,926,378,0,0,0,5,4,1,54,0005-00-0000-81.png,0004-00-0000-06.png
00000014,792,1,1438878011468,1438878012052,401,410,0,0,0,2,3,1,23,0002-00-0000-25.png,0003-00-0000-06.png
00000014,793,1,1438878013484,1438878014193,342,394,0,0,0,4,5,1,45,0004-00-0000-08.png,0005-00-0001-39.png
00000014,794,0,1438878015117,1438878015129,478,452,0,0,0,2,1,1,21,0002-00-0000-74.png,0001-00-0000-27.png
00000014,795,0,1438878017161,1438878017761,904,362,0,0,0,3,4,1,34,0003-00-0001-89.png,0004-00-0000-33.png
00000014,796,0,1438878019736,1438878020482,944,375,0,0,0,2,3,1,23,0002-00-0001-41.png,0003-00-0001-75.png
00000014,797,0,1438878022508,1438878022548,487,483,0,0,0,4,3,1,43,0004-00-0001-61.png,0003-00-0001-24.png
00000014,798,1,1438878025603,1438878026225,877,495,0,0,0,3,2,1,32,0003-00-0000-59.png,0002-00-0001-05.png
00000014,799,1,1438878027351,1438878028043,388,501,0,0,0,1,2,1,12,0001-00-0000-77.png,0002-00-0001-05.png
00000014,800,0,1438878029020,1438878029040,489,488,0,0,0,5,4,1,54,0005-00-0001-59.png,0004-00-0000-60.png
00000014,801,0,1438878030934,1438878031459,876,468,0,0,0,3,4,1,34,0003-00-0000-06.png,0004-00-0000-21.png
00000014,802,1,1438878033363,1438878033888,878,470,0,0,0,4,3,1,43,0004-00-0000-04.png,0003-00-0000-58.png
00000014,803,1,1438878034845,1438878035452,349,404,0,0,0,2,3,1,23,0002-00-0001-04.png,0003-00-0001-85.png
00000014,804,1,1438878036432,1438878037035,905,376,0,0,0,3,2,1,32,0003-00-0000-15.png,0002-00-0000-99.png
00000014,805,1,1438878037994,1438878038014,509,476,0,0,0,4,5,1,45,0004-00-0001-61.png,0005-00-0000-50.png
00000014,806,1,1438878039137,1438878039165,504,474,0,0,0,1,2,1,12,0001-00-0000-34.png,0002-00-0001-18.png
00000014,807,0,1438878040548,1438878041037,362,424,0,0,0,5,4,1,54,0005-00-0000-35.png,0004-00-0001-38.png
00000014,808,0,1438878043202,1438878043904,388,461,0,0,0,2,1,1,21,0002-00-0000-12.png,0001-00-0000-06.png
00000014,809,0,1438878045867,1438878045879,447,401,0,0,0,3,2,1,32,0003-00-0000-71.png,0002-00-0001-98.png
00000014,810,1,1438878048119,1438878048665,918,382,0,0,0,2,1,1,21,0002-00-0000-42.png,0001-00-0001-51.png
00000014,811,1,1438878049633,1438878050187,901,469,0,0,0,5,4,1,54,0005-00-0000-63.png,0004-00-0000-50.png
00000014,812,0,1438878051168,1438878051756,900,386,0,0,0,3,4,1,34,0003-00-0000-11.png,0004-00-0001-64.png
00000014,813,0,1438878053655,1438878053667,521,428,0,0,0,4,3,1,43,0004-00-0000-27.png,0003-00-0000-27.png
00000014,814,1,1438878055506,1438878056038,401,447,0,0,0,4,5,1,45,0004-00-0000-85.png,0005-00-0000-87.png
00000014,815,1,1438878057008,1438878057643,417,495,0,0,0,2,3,1,23,0002-00-0001-31.png,0003-00-0001-62.png
00000014,816,1,1438878058596,1438878058628,504,451,0,0,0,1,2,1,12,0001-00-0001-10.png,0002-00-0001-48.png
00000014,817,0,1438878059809,1438878060449,440,463,0,0,0,3,2,1,32,0003-00-0000-29.png,0002-00-0000-82.png
00000014,818,0,1438878062690,1438878063323,892,456,0,0,0,2,3,1,23,0002-00-0001-94.png,0003-00-0001-21.png
00000014,819,0,1438878065333,1438878065911,925,362,0,0,0,4,5,1,45,0004-00-0000-11.png,0005-00-0001-57.png
00000014,820,0,1438878068244,1438878068872,310,401,0,0,0,2,1,1,21,0002-00-0001-05.png,0001-00-0000-65.png
00000014,821,1,1438878070937,1438878071572,329,398,0,0,0,3,4,1,34,0003-00-0001-26.png,0004-00-0001-23.png
00000014,822,1,1438878072561,1438878072593,504,474,0,0,0,1,2,1,12,0001-00-0000-27.png,0002-00-0000-81.png
00000014,823,0,1438878073640,1438878073660,501,458,0,0,0,5,4,1,54,0005-00-0000-03.png,0004-00-0001-72.png
00000014,824,0,1438878075786,1438878075814,478,427,0,0,0,4,3,1,43,0004-00-0000-88.png,0003-00-0001-17.png
00000014,825,0,1438878077763,1438878078215,343,406,0,0,0,2,1,1,21,0002-00-0001-27.png,0001-00-0000-17.png
00000014,826,1,1438878080180,1438878080216,475,458,0,0,0,1,2,1,12,0001-00-0001-68.png,0002-00-0001-47.png
00000014,827,1,1438878081396,1438878082623,338,422,0,0,0,4,5,1,45,0004-00-0001-93.png,0005-00-0001-55.png
00000014,828,1,1438878083571,1438878084239,886,509,0,0,0,4,3,1,43,0004-00-0001-26.png,0003-00-0001-42.png
00000014,829,1,1438878085279,1438878085303,504,449,0,0,0,2,3,1,23,0002-00-0001-07.png,0003-00-0000-01.png
00000014,830,1,1438878086811,1438878087406,911,360,0,0,0,5,4,1,54,0005-00-0001-30.png,0004-00-0000-98.png
00000014,831,0,1438878088401,1438878089014,350,395,0,0,0,3,2,1,32,0003-00-0001-07.png,0002-00-0000-61.png
00000014,832,1,1438878090953,1438878091428,354,390,0,0,0,3,4,1,34,0003-00-0001-36.png,0004-00-0000-23.png
00000014,833,0,1438878092369,1438878092418,504,514,0,0,0,3,2,1,32,0003-00-0001-38.png,0002-00-0001-72.png
00000014,834,0,1438878094609,1438878095304,945,357,0,0,0,3,4,1,34,0003-00-0001-52.png,0004-00-0001-47.png
00000014,835,0,1438878097312,1438878097784,310,399,0,0,0,4,3,1,43,0004-00-0001-52.png,0003-00-0000-20.png
00000014,836,1,1438878099854,1438878100413,349,373,0,0,0,2,3,1,23,0002-00-0000-63.png,0003-00-0000-97.png
00000014,837,0,1438878101420,1438878101448,518,462,0,0,0,2,1,1,21,0002-00-0001-84.png,0001-00-0001-40.png
00000014,838,0,1438878103454,1438878103478,453,436,0,0,0,5,4,1,54,0005-00-0001-99.png,0004-00-0001-47.png
00000014,839,1,1438878105521,1438878106240,338,364,0,0,0,1,2,1,12,0001-00-0001-34.png,0002-00-0000-71.png
00000014,840,1,1438878107243,1438878107289,517,488,0,0,0,4,5,1,45,0004-00-0001-79.png,0005-00-0001-98.png
00000014,841,0,1438878108815,1438878109298,337,417,0,0,0,4,3,1,43,0004-00-0000-68.png,0003-00-0000-02.png
00000014,842,1,1438878111583,1438878112130,409,518,0,0,0,4,5,1,45,0004-00-0000-64.png,0005-00-0000-75.png
00000014,843,1,1438878113108,1438878113758,366,441,0,0,0,2,3,1,23,0002-00-0001-79.png,0003-00-0000-39.png
00000014,844,1,1438878114707,1438878115369,365,436,0,0,0,3,4,1,34,0003-00-0001-12.png,0004-00-0000-45.png
00000014,845,1,1438878116429,1438878117641,888,410,0,0,0,5,4,1,54,0005-00-0000-75.png,0004-00-0000-63.png
00000014,846,1,1438878119137,1438878119791,389,501,0,0,0,1,2,1,12,0001-00-0001-59.png,0002-00-0001-11.png
00000014,847,0,1438878120758,1438878121353,350,371,0,0,0,3,2,1,32,0003-00-0001-27.png,0002-00-0001-11.png
00000014,848,1,1438878123319,1438878124140,904,402,0,0,0,2,1,1,21,0002-00-0000-49.png,0001-00-0000-58.png
00000014,849,0,1438878125078,1438878125722,900,397,0,0,0,2,3,1,23,0002-00-0000-48.png,0003-00-0000-69.png
00000014,850,0,1438878127731,1438878128276,350,357,0,0,0,5,4,1,54,0005-00-0001-29.png,0004-00-0000-96.png
00000014,851,1,1438878130275,1438878131110,906,368,0,0,0,2,1,1,21,0002-00-0001-42.png,0001-00-0000-83.png
00000014,852,0,1438878132126,1438878132685,900,372,0,0,0,1,2,1,12,0001-00-0000-88.png,0002-00-0000-63.png
00000014,853,1,1438878134649,1438878135274,335,398,0,0,0,4,5,1,45,0004-00-0001-97.png,0005-00-0001-88.png
00000014,854,0,1438878137053,1438878137598,376,409,0,0,0,4,3,1,43,0004-00-0000-81.png,0003-00-0001-54.png
00000014,855,1,1438878139586,1438878139618,513,474,0,0,0,3,4,1,34,0003-00-0000-23.png,0004-00-0000-10.png
00000014,856,1,1438878140765,1438878141312,876,495,0,0,0,3,2,1,32,0003-00-0001-04.png,0002-00-0001-52.png
00000014,857,0,1438878142263,1438878143160,924,339,0,0,0,4,5,1,45,0004-00-0000-98.png,0005-00-0000-18.png
00000014,858,0,1438878145344,1438878145914,921,390,0,0,0,3,4,1,34,0003-00-0001-03.png,0004-00-0001-06.png
00000014,859,0,1438878147867,1438878147891,520,415,0,0,0,4,3,1,43,0004-00-0001-76.png,0003-00-0001-68.png
00000014,860,1,1438878149904,1438878150392,349,391,0,0,0,1,2,1,12,0001-00-0000-02.png,0002-00-0001-47.png
00000014,861,1,1438878151266,1438878151946,900,345,0,0,0,5,4,1,54,0005-00-0001-93.png,0004-00-0000-81.png
00000014,862,1,1438878152987,1438878153563,902,415,0,0,0,3,2,1,32,0003-00-0001-65.png,0002-00-0000-24.png
00000014,863,1,1438878154548,1438878155144,906,376,0,0,0,2,1,1,21,0002-00-0000-18.png,0001-00-0001-42.png
00000014,864,1,1438878156098,1438878156677,327,418,0,0,0,2,3,1,23,0002-00-0001-54.png,0003-00-0001-85.png
00000014,865,1,1438878157664,1438878157693,478,474,0,0,0,3,4,1,34,0003-00-0001-85.png,0004-00-0001-69.png
00000014,866,0,1438878158741,1438878159324,331,400,0,0,0,4,3,1,43,0004-00-0000-47.png,0003-00-0000-48.png
00000014,867,1,1438878161159,1438878161187,510,446,0,0,0,4,5,1,45,0004-00-0000-26.png,0005-00-0001-10.png
00000014,868,0,1438878162348,1438878163048,320,373,0,0,0,5,4,1,54,0005-00-0001-73.png,0004-00-0001-98.png
00000014,869,1,1438878165346,1438878165919,350,409,0,0,0,1,2,1,12,0001-00-0001-16.png,0002-00-0000-05.png
00000014,870,0,1438878166828,1438878167468,320,404,0,0,0,2,1,1,21,0002-00-0000-44.png,0001-00-0001-43.png
00000014,871,0,1438878169448,1438878169913,330,386,0,0,0,3,2,1,32,0003-00-0001-43.png,0002-00-0001-55.png
00000014,872,0,1438878171839,1438878172372,905,392,0,0,0,2,3,1,23,0002-00-0001-40.png,0003-00-0000-62.png
00000014,873,1,1438878174529,1438878175039,423,523,0,0,0,4,5,1,45,0004-00-0000-12.png,0005-00-0001-73.png
00000014,874,1,1438878176855,1438878177395,901,410,0,0,0,3,2,1,32,0003-00-0001-69.png,0002-00-0001-88.png
00000014,875,0,1438878178337,1438878178917,393,368,0,0,0,2,1,1,21,0002-00-0000-45.png,0001-00-0000-19.png
00000014,876,1,1438878180929,1438878181567,903,375,0,0,0,5,4,1,54,0005-00-0001-47.png,0004-00-0000-14.png
00000014,877,1,1438878182512,1438878183108,901,358,0,0,0,4,3,1,43,0004-00-0001-40.png,0003-00-0000-62.png
00000014,878,1,1438878184038,1438878184706,337,384,0,0,0,3,4,1,34,0003-00-0001-78.png,0004-00-0001-37.png
00000014,879,1,1438878185661,1438878185725,501,522,0,0,0,1,2,1,12,0001-00-0000-98.png,0002-00-0000-61.png
00000014,880,1,1438878186794,1438878187368,416,523,0,0,0,2,3,1,23,0002-00-0001-57.png,0003-00-0000-52.png
00000014,881,1,1438878188394,1438878189025,383,401,0,0,0,4,5,1,45,0004-00-0000-13.png,0005-00-0000-94.png
00000014,882,1,1438878190103,1438878190139,512,484,0,0,0,2,3,1,23,0002-00-0001-62.png,0003-00-0000-59.png
00000014,883,0,1438878191425,1438878191998,376,397,0,0,0,2,1,1,21,0002-00-0001-61.png,0001-00-0000-71.png
00000014,884,0,1438878193925,1438878193961,485,429,0,0,0,4,3,1,43,0004-00-0001-42.png,0003-00-0000-09.png
00000014,885,1,1438878196403,1438878196878,362,384,0,0,0,1,2,1,12,0001-00-0000-41.png,0002-00-0000-51.png
00000014,886,0,1438878197782,1438878197802,489,462,0,0,0,5,4,1,54,0005-00-0000-84.png,0004-00-0001-64.png
00000014,887,0,1438878199771,1438878199807,504,423,0,0,0,3,2,1,32,0003-00-0000-07.png,0002-00-0000-75.png
00000014,888,1,1438878201808,1438878201828,459,412,0,0,0,3,4,1,34,0003-00-0000-09.png,0004-00-0000-49.png
00000014,889,0,1438878202784,1438878203416,357,427,0,0,0,3,2,1,32,0003-00-0000-27.png,0002-00-0000-08.png
00000014,890,1,1438878205416,1438878205448,509,430,0,0,0,4,5,1,45,0004-00-0001-60.png,0005-00-0000-02.png
00000014,891,1,1438878206471,1438878207237,887,463,0,0,0,2,1,1,21,0002-00-0001-32.png,0001-00-0001-92.png
00000014,892,0,1438878208158,1438878208182,496,403,0,0,0,5,4,1,54,0005-00-0000-77.png,0004-00-0000-43.png
00000014,893,1,1438878210139,1438878210840,348,404,0,0,0,2,3,1,23,0002-00-0001-98.png,0003-00-0000-35.png
00000014,894,0,1438878211785,1438878211805,484,428,0,0,0,4,3,1,43,0004-00-0001-42.png,0003-00-0001-09.png
00000014,895,1,1438878213755,1438878213771,493,410,0,0,0,1,2,1,12,0001-00-0000-12.png,0002-00-0001-22.png
00000014,896,0,1438878214839,1438878215576,906,376,0,0,0,3,4,1,34,0003-00-0000-50.png,0004-00-0000-79.png
00000014,897,0,1438878217578,1438878218399,921,368,0,0,0,4,5,1,45,0004-00-0000-42.png,0005-00-0000-05.png
00000014,898,0,1438878220249,1438878220950,407,493,0,0,0,2,1,1,21,0002-00-0001-93.png,0001-00-0001-20.png
00000014,899,1,1438878222949,1438878222977,500,505,0,0,0,1,2,1,12,0001-00-0000-01.png,0002-00-0001-60.png
00000014,900,1,1438878224031,1438878224959,922,371,0,0,0,4,3,1,43,0004-00-0001-67.png,0003-00-0000-69.png
00000014,901,0,1438878225847,1438878225875,486,418,0,0,0,5,4,1,54,0005-00-0001-72.png,0004-00-0001-81.png
00000014,902,1,1438878228102,1438878228629,358,378,0,0,0,2,3,1,23,0002-00-0001-50.png,0003-00-0000-25.png
00000014,903,1,1438878230109,1438878230727,325,405,0,0,0,3,4,1,34,0003-00-0000-41.png,0004-00-0001-65.png
00000014,904,0,1438878231694,1438878231710,496,482,0,0,0,3,2,1,32,0003-00-0000-40.png,0002-00-0000-60.png
00000014,905,0,1438878233699,1438878234193,350,370,0,0,0,4,3,1,43,0004-00-0001-84.png,0003-00-0001-04.png
00000014,906,0,1438878236688,1438878237789,902,400,0,0,0,3,4,1,34,0003-00-0001-03.png,0004-00-0001-24.png
00000014,907,0,1438878239900,1438878240964,888,410,0,0,0,2,3,1,23,0002-00-0001-33.png,0003-00-0000-73.png
00000014,908,0,1438878243106,1438878243606,345,398,0,0,0,3,2,1,32,0003-00-0000-88.png,0002-00-0000-56.png
00000014,909,1,1438878245874,1438878246393,441,521,0,0,0,4,5,1,45,0004-00-0001-36.png,0005-00-0001-89.png
00000014,910,1,1438878247397,1438878247417,491,421,0,0,0,1,2,1,12,0001-00-0000-73.png,0002-00-0001-83.png
00000014,911,0,1438878248478,1438878248502,511,471,0,0,0,2,1,1,21,0002-00-0000-12.png,0001-00-0001-72.png
00000014,912,0,1438878250494,1438878251041,363,420,0,0,0,5,4,1,54,0005-00-0000-61.png,0004-00-0000-52.png
00000014,913,1,1438878253286,1438878253873,376,370,0,0,0,1,2,1,12,0001-00-0001-46.png,0002-00-0001-85.png
00000014,914,1,1438878254851,1438878255637,927,384,0,0,0,5,4,1,54,0005-00-0001-15.png,0004-00-0000-59.png
00000014,915,1,1438878256589,1438878256653,495,489,0,0,0,4,5,1,45,0004-00-0000-08.png,0005-00-0001-61.png
00000014,916,0,1438878257681,1438878257705,519,462,0,0,0,2,1,1,21,0002-00-0000-21.png,0001-00-0001-72.png
00000014,917,0,1438878259607,1438878259623,504,451,0,0,0,4,3,1,43,0004-00-0001-16.png,0003-00-0001-07.png
00000014,918,1,1438878261535,1438878261563,504,504,0,0,0,3,4,1,34,0003-00-0000-51.png,0004-00-0001-22.png
00000014,919,0,1438878262698,1438878263324,339,413,0,0,0,3,2,1,32,0003-00-0001-28.png,0002-00-0000-02.png
00000014,920,1,1438878265361,1438878265385,504,435,0,0,0,2,3,1,23,0002-00-0000-23.png,0003-00-0000-33.png
00000014,921,0,1438878266348,1438878266998,861,482,0,0,0,3,4,1,34,0003-00-0001-85.png,0004-00-0000-83.png
00000014,922,0,1438878268848,1438878269346,350,383,0,0,0,4,3,1,43,0004-00-0001-40.png,0003-00-0001-58.png
00000014,923,0,1438878271323,1438878271379,478,488,0,0,0,5,4,1,54,0005-00-0000-19.png,0004-00-0001-86.png
00000014,924,0,1438878273492,1438878274061,876,400,0,0,0,2,3,1,23,0002-00-0001-08.png,0003-00-0001-62.png
00000014,925,0,1438878275984,1438878276024,497,505,0,0,0,2,1,1,21,0002-00-0000-59.png,0001-00-0000-30.png
00000014,926,1,1438878280224,1438878280763,314,403,0,0,0,4,5,1,45,0004-00-0000-06.png,0005-00-0000-87.png
00000014,927,0,1438878281786,1438878281838,503,497,0,0,0,3,2,1,32,0003-00-0000-97.png,0002-00-0000-83.png
00000014,928,1,1438878284034,1438878284570,357,395,0,0,0,1,2,1,12,0001-00-0001-59.png,0002-00-0000-26.png
00000014,929,1,1438878285545,1438878286588,913,514,0,0,0,3,2,1,32,0003-00-0000-40.png,0002-00-0000-43.png
00000014,930,1,1438878287513,1438878288204,901,488,0,0,0,2,1,1,21,0002-00-0000-58.png,0001-00-0001-77.png
00000014,931,1,1438878289151,1438878289210,508,510,0,0,0,1,2,1,12,0001-00-0000-27.png,0002-00-0001-71.png
00000014,932,0,1438878290297,1438878290934,357,415,0,0,0,5,4,1,54,0005-00-0000-17.png,0004-00-0001-66.png
00000014,933,1,1438878292777,1438878292813,520,455,0,0,0,3,4,1,34,0003-00-0001-19.png,0004-00-0001-67.png
00000014,934,0,1438878293873,1438878293885,483,441,0,0,0,4,3,1,43,0004-00-0000-71.png,0003-00-0000-37.png
00000014,935,1,1438878295851,1438878296382,340,417,0,0,0,4,5,1,45,0004-00-0000-37.png,0005-00-0000-54.png
00000014,936,1,1438878297310,1438878297326,504,462,0,0,0,2,3,1,23,0002-00-0001-19.png,0003-00-0000-66.png
00000014,937,0,1438878298345,1438878298357,488,488,0,0,0,5,4,1,54,0005-00-0000-15.png,0004-00-0001-78.png
00000014,938,0,1438878301025,1438878301049,504,451,0,0,0,2,1,1,21,0002-00-0000-44.png,0001-00-0001-48.png
00000014,939,1,1438878303493,1438878304005,409,520,0,0,0,3,4,1,34,0003-00-0001-16.png,0004-00-0001-32.png
00000014,940,1,1438878304956,1438878305522,399,385,0,0,0,2,3,1,23,0002-00-0000-62.png,0003-00-0001-14.png
00000014,941,0,1438878306961,1438878307538,376,488,0,0,0,3,2,1,32,0003-00-0000-08.png,0002-00-0001-39.png
00000014,942,0,1438878309431,1438878309467,483,447,0,0,0,4,3,1,43,0004-00-0000-96.png,0003-00-0000-81.png
