subject_id,trial,correct_response,stim_time,response_time,x_coord,y_coord,trial_timeout,timeout_time,interTrial_timeout,left_rank,right_rank,distance,joint_rank,left_image,right_image
00000014,1,0,1439910570932,1439910572031,389,327,0,0,0,2,1,1,21,0002-00-0000-20.png,0001-00-0007-34.png
00000014,2,0,1439910574885,1439910575493,962,308,0,0,0,2,3,1,23,0002-00-0003-33.png,0003-00-0006-65.png
00000014,3,1,1439910578635,1439910579131,397,379,0,0,0,3,4,1,34,0003-00-0007-59.png,0004-00-0002-18.png
00000014,4,1,1439910580721,1439910581288,900,488,0,0,0,3,2,1,32,0003-00-0002-77.png,0002-00-0000-48.png
00000014,5,0,1439910582552,1439910583036,375,368,0,0,0,4,3,1,43,0004-00-0009-50.png,0003-00-0005-77.png
00000014,6,0,1439910586228,1439910586804,865,474,0,0,0,1,2,1,12,0001-00-0004-94.png,0002-00-0002-43.png
00000014,7,0,1439910589836,1439910590338,370,405,0,0,0,5,4,1,54,0005-00-0008-22.png,0004-00-0006-79.png
00000014,8,1,1439910593316,1439910593831,376,398,0,0,0,4,5,1,45,0004-00-0000-24.png,0005-00-0002-69.png
00000014,9,1,1439910595096,1439910595640,377,476,0,0,0,3,4,1,34,0003-00-0005-97.png,0004-00-0007-04.png
00000014,10,0,1439910597210,1439910597743,356,453,0,0,0,2,1,1,21,0002-00-0004-27.png,0001-00-0006-23.png
00000014,11,0,1439910600933,1439910601454,357,366,0,0,0,5,4,1,54,0005-00-0007-22.png,0004-00-0005-26.png
00000014,12,0,1439910604302,1439910604843,369,506,0,0,0,3,2,1,32,0003-00-0007-02.png,0002-00-0007-19.png
00000014,13,1,1439910608054,1439910608572,299,347,0,0,0,1,2,1,12,0001-00-0008-24.png,0002-00-0000-47.png
00000014,14,0,1439910609952,1439910610426,325,363,0,0,0,4,3,1,43,0004-00-0008-16.png,0003-00-0004-57.png
00000014,15,0,1439910617295,1439910617994,929,416,0,0,0,2,3,1,23,0002-00-0000-05.png,0003-00-0002-25.png
00000014,16,1,1439910621107,1439910621582,363,389,0,0,0,4,5,1,45,0004-00-0001-92.png,0005-00-0009-90.png
00000014,17,0,1439910622847,1439910623331,922,393,0,0,0,1,2,1,12,0001-00-0003-56.png,0002-00-0005-24.png
00000014,18,0,1439910627571,1439910628200,904,401,0,0,0,2,3,1,23,0002-00-0007-60.png,0003-00-0007-13.png
00000014,19,0,1439910631208,1439910631236,477,408,0,0,0,3,2,1,32,0003-00-0008-64.png,0002-00-0003-77.png
00000014,20,0,1439910634109,1439910634129,504,425,0,0,0,5,4,1,54,0005-00-0006-71.png,0004-00-0009-32.png
00000014,21,0,1439910637012,1439910637028,444,383,0,0,0,2,1,1,21,0002-00-0004-63.png,0001-00-0000-56.png
00000014,22,1,1439910640182,1439910640705,325,384,0,0,0,3,4,1,34,0003-00-0003-99.png,0004-00-0005-14.png
00000014,23,1,1439910641981,1439910642783,956,348,0,0,0,4,3,1,43,0004-00-0000-39.png,0003-00-0003-07.png
00000014,24,1,1439910644865,1439910645356,376,476,0,0,0,4,5,1,45,0004-00-0002-96.png,0005-00-0001-10.png
00000014,25,0,1439910646573,1439910647055,324,362,0,0,0,4,3,1,43,0004-00-0004-83.png,0003-00-0008-92.png
00000014,26,1,1439910650210,1439910650724,359,379,0,0,0,4,5,1,45,0004-00-0002-59.png,0005-00-0004-10.png
00000014,27,0,1439910651902,1439910652527,346,470,0,0,0,5,4,1,54,0005-00-0005-99.png,0004-00-0005-65.png
00000014,28,1,1439910655497,1439910655983,367,375,0,0,0,2,3,1,23,0002-00-0008-73.png,0003-00-0005-58.png
00000014,29,1,1439910657267,1439910657949,327,350,0,0,0,3,4,1,34,0003-00-0004-18.png,0004-00-0001-47.png
00000014,30,1,1439910659862,1439910660408,327,388,0,0,0,1,2,1,12,0001-00-0000-50.png,0002-00-0005-00.png
00000014,31,0,1439910661806,1439910662278,325,371,0,0,0,2,1,1,21,0002-00-0009-06.png,0001-00-0004-60.png
00000014,32,1,1439910665388,1439910666017,946,356,0,0,0,3,2,1,32,0003-00-0006-13.png,0002-00-0009-95.png
00000014,33,1,1439910667225,1439910667686,327,368,0,0,0,1,2,1,12,0001-00-0004-25.png,0002-00-0002-69.png
00000014,34,1,1439910669395,1439910669920,919,399,0,0,0,4,3,1,43,0004-00-0002-10.png,0003-00-0006-90.png
00000014,35,0,1439910671283,1439910671789,931,376,0,0,0,3,4,1,34,0003-00-0008-94.png,0004-00-0001-28.png
00000014,36,1,1439910674729,1439910675403,878,335,0,0,0,3,2,1,32,0003-00-0001-97.png,0002-00-0001-58.png
00000014,37,1,1439910676480,1439910677011,356,377,0,0,0,2,3,1,23,0002-00-0007-76.png,0003-00-0003-26.png
00000014,38,1,1439910678777,1439910679335,893,468,0,0,0,5,4,1,54,0005-00-0003-46.png,0004-00-0004-67.png
00000014,39,1,1439910680462,1439910681175,372,358,0,0,0,4,5,1,45,0004-00-0009-05.png,0005-00-0007-78.png
00000014,40,1,1439910683417,1439910683983,871,341,0,0,0,2,1,1,21,0002-00-0007-60.png,0001-00-0009-85.png
00000014,41,1,1439910685436,1439910685997,881,475,0,0,0,2,1,1,21,0002-00-0002-51.png,0001-00-0002-66.png
00000014,42,1,1439910687254,1439910687755,350,462,0,0,0,1,2,1,12,0001-00-0009-06.png,0002-00-0002-03.png
00000014,43,1,1439910689372,1439910690060,871,341,0,0,0,4,3,1,43,0004-00-0009-76.png,0003-00-0003-51.png
00000014,44,1,1439910691151,1439910691665,351,352,0,0,0,4,5,1,45,0004-00-0009-90.png,0005-00-0000-87.png
00000014,45,1,1439910693820,1439910694307,392,466,0,0,0,2,3,1,23,0002-00-0006-24.png,0003-00-0008-63.png
00000014,46,1,1439910696061,1439910696701,874,475,0,0,0,5,4,1,54,0005-00-0003-04.png,0004-00-0001-86.png
00000014,47,1,1439910698359,1439910698966,376,451,0,0,0,3,4,1,34,0003-00-0002-04.png,0004-00-0009-12.png
00000014,48,1,1439910700045,1439910700562,913,374,0,0,0,3,2,1,32,0003-00-0008-84.png,0002-00-0005-00.png
00000014,49,1,1439910702020,1439910702518,320,367,0,0,0,4,5,1,45,0004-00-0003-92.png,0005-00-0001-70.png
00000014,50,1,1439910704307,1439910704894,926,398,0,0,0,2,1,1,21,0002-00-0006-07.png,0001-00-0005-47.png
00000014,51,1,1439910705921,1439910706517,349,397,0,0,0,2,3,1,23,0002-00-0002-20.png,0003-00-0005-44.png
00000014,52,1,1439910707640,1439910708244,896,419,0,0,0,4,3,1,43,0004-00-0002-39.png,0003-00-0007-98.png
00000014,53,1,1439910709330,1439910710012,354,328,0,0,0,3,4,1,34,0003-00-0005-70.png,0004-00-0002-68.png
00000014,54,0,1439910711161,1439910711699,879,401,0,0,0,1,2,1,12,0001-00-0006-21.png,0002-00-0000-76.png
00000014,55,0,1439910714686,1439910715151,349,358,0,0,0,3,2,1,32,0003-00-0005-64.png,0002-00-0003-22.png
00000014,56,0,1439910718342,1439910718808,329,403,0,0,0,5,4,1,54,0005-00-0003-74.png,0004-00-0003-80.png
00000014,57,1,1439910721732,1439910722198,317,376,0,0,0,3,4,1,34,0003-00-0004-52.png,0004-00-0007-58.png
00000014,58,0,1439910723333,1439910723898,350,461,0,0,0,2,1,1,21,0002-00-0003-85.png,0001-00-0002-24.png
00000014,59,0,1439910727081,1439910727587,404,389,0,0,0,3,2,1,32,0003-00-0006-60.png,0002-00-0005-95.png
00000014,60,0,1439910730730,1439910731210,366,377,0,0,0,4,3,1,43,0004-00-0004-86.png,0003-00-0004-54.png
00000014,61,1,1439910734164,1439910734168,473,396,0,0,0,1,2,1,12,0001-00-0007-72.png,0002-00-0000-06.png
00000014,62,1,1439910735321,1439910735826,273,371,0,0,0,2,3,1,23,0002-00-0002-34.png,0003-00-0007-23.png
00000014,63,0,1439910737002,1439910737504,335,401,0,0,0,5,4,1,54,0005-00-0009-41.png,0004-00-0002-38.png
00000014,64,1,1439910740602,1439910740626,513,485,0,0,0,4,5,1,45,0004-00-0004-17.png,0005-00-0007-49.png
00000014,65,1,1439910741831,1439910742400,305,365,0,0,0,2,3,1,23,0002-00-0004-99.png,0003-00-0003-41.png
00000014,66,1,1439910743560,1439910744258,857,434,0,0,0,4,3,1,43,0004-00-0001-22.png,0003-00-0005-95.png
00000014,67,1,1439910745469,1439910745988,930,375,0,0,0,2,1,1,21,0002-00-0003-57.png,0001-00-0001-02.png
00000014,68,1,1439910747139,1439910747766,325,398,0,0,0,1,2,1,12,0001-00-0008-49.png,0002-00-0000-79.png
00000014,69,0,1439910748954,1439910749485,331,387,0,0,0,5,4,1,54,0005-00-0002-11.png,0004-00-0005-93.png
00000014,70,0,1439910752597,1439910753067,382,356,0,0,0,3,2,1,32,0003-00-0000-30.png,0002-00-0008-87.png
00000014,71,1,1439910756084,1439910756598,381,390,0,0,0,4,5,1,45,0004-00-0003-21.png,0005-00-0000-51.png
00000014,72,1,1439910757714,1439910758209,382,499,0,0,0,3,4,1,34,0003-00-0007-12.png,0004-00-0000-18.png
00000014,73,1,1439910759314,1439910759795,306,378,0,0,0,2,3,1,23,0002-00-0006-23.png,0003-00-0006-27.png
00000014,74,0,1439910761035,1439910761545,349,403,0,0,0,4,3,1,43,0004-00-0007-83.png,0003-00-0006-61.png
00000014,75,0,1439910764673,1439910765387,921,366,0,0,0,3,4,1,34,0003-00-0008-89.png,0004-00-0006-22.png
00000014,76,0,1439910768341,1439910768365,504,459,0,0,0,5,4,1,54,0005-00-0009-01.png,0004-00-0008-12.png
00000014,77,1,1439910771540,1439910772126,342,375,0,0,0,4,5,1,45,0004-00-0008-58.png,0005-00-0005-10.png
00000014,78,0,1439910773240,1439910773841,338,397,0,0,0,3,2,1,32,0003-00-0009-61.png,0002-00-0009-43.png
00000014,79,1,1439910776817,1439910777454,945,381,0,0,0,2,1,1,21,0002-00-0007-92.png,0001-00-0006-28.png
00000014,80,1,1439910778566,1439910779107,330,355,0,0,0,1,2,1,12,0001-00-0003-65.png,0002-00-0005-90.png
00000014,81,0,1439910780266,1439910780976,927,345,0,0,0,2,3,1,23,0002-00-0002-32.png,0003-00-0004-03.png
00000014,82,1,1439910783986,1439910784515,381,491,0,0,0,3,4,1,34,0003-00-0003-98.png,0004-00-0007-18.png
00000014,83,0,1439910785634,1439910786109,401,476,0,0,0,4,3,1,43,0004-00-0000-79.png,0003-00-0004-57.png
00000014,84,1,1439910789244,1439910789809,924,486,0,0,0,5,4,1,54,0005-00-0002-54.png,0004-00-0004-60.png
00000014,85,0,1439910790883,1439910791420,355,379,0,0,0,3,2,1,32,0003-00-0001-79.png,0002-00-0009-38.png
00000014,86,1,1439910794600,1439910795269,882,322,0,0,0,2,1,1,21,0002-00-0009-84.png,0001-00-0005-45.png
00000014,87,0,1439910796409,1439910797027,875,423,0,0,0,1,2,1,12,0001-00-0007-22.png,0002-00-0006-71.png
00000014,88,1,1439910800006,1439910800583,325,372,0,0,0,4,5,1,45,0004-00-0005-48.png,0005-00-0003-87.png
00000014,89,0,1439910801647,1439910802168,328,378,0,0,0,4,3,1,43,0004-00-0003-20.png,0003-00-0002-50.png
00000014,90,0,1439910805574,1439910806146,901,423,0,0,0,3,4,1,34,0003-00-0009-77.png,0004-00-0004-66.png
00000014,91,1,1439910809181,1439910809197,504,414,0,0,0,4,5,1,45,0004-00-0001-87.png,0005-00-0006-80.png
00000014,92,1,1439910810352,1439910810889,881,408,0,0,0,5,4,1,54,0005-00-0008-37.png,0004-00-0006-84.png
00000014,93,1,1439910812042,1439910812719,867,482,0,0,0,3,2,1,32,0003-00-0000-66.png,0002-00-0008-42.png
00000014,94,0,1439910813854,1439910814407,913,395,0,0,0,1,2,1,12,0001-00-0001-54.png,0002-00-0000-28.png
00000014,95,1,1439910817548,1439910818034,320,393,0,0,0,2,3,1,23,0002-00-0006-45.png,0003-00-0002-03.png
00000014,96,0,1439910819107,1439910819602,381,409,0,0,0,2,1,1,21,0002-00-0001-92.png,0001-00-0005-44.png
00000014,97,1,1439910823112,1439910823577,905,400,0,0,0,2,1,1,21,0002-00-0009-83.png,0001-00-0009-82.png
00000014,98,1,1439910824683,1439910825260,347,393,0,0,0,3,4,1,34,0003-00-0008-82.png,0004-00-0008-42.png
00000014,99,1,1439910826521,1439910827004,365,373,0,0,0,1,2,1,12,0001-00-0000-35.png,0002-00-0004-72.png
00000014,100,0,1439910828997,1439910829468,357,392,0,0,0,5,4,1,54,0005-00-0004-59.png,0004-00-0001-17.png
00000014,101,1,1439910832325,1439910832357,504,425,0,0,0,4,5,1,45,0004-00-0000-35.png,0005-00-0003-16.png
00000014,102,1,1439910833519,1439910834019,387,501,0,0,0,2,3,1,23,0002-00-0002-19.png,0003-00-0006-74.png
00000014,103,1,1439910835387,1439910835952,879,427,0,0,0,4,3,1,43,0004-00-0006-44.png,0003-00-0003-91.png
00000014,104,1,1439910837073,1439910837584,878,491,0,0,0,3,2,1,32,0003-00-0001-81.png,0002-00-0007-77.png
00000014,105,0,1439910838787,1439910839352,326,373,0,0,0,5,4,1,54,0005-00-0003-04.png,0004-00-0005-19.png
00000014,106,0,1439910842445,1439910843107,343,384,0,0,0,2,1,1,21,0002-00-0004-98.png,0001-00-0005-31.png
00000014,107,0,1439910846082,1439910846086,504,375,0,0,0,4,3,1,43,0004-00-0003-33.png,0003-00-0005-63.png
00000014,108,1,1439910848941,1439910849542,919,370,0,0,0,3,2,1,32,0003-00-0005-45.png,0002-00-0006-80.png
00000014,109,1,1439910850606,1439910851190,372,473,0,0,0,3,4,1,34,0003-00-0005-08.png,0004-00-0005-22.png
00000014,110,0,1439910853431,1439910854030,925,385,0,0,0,2,3,1,23,0002-00-0002-54.png,0003-00-0008-85.png
00000014,111,1,1439910856942,1439910857454,348,368,0,0,0,4,5,1,45,0004-00-0001-98.png,0005-00-0002-35.png
00000014,112,0,1439910859475,1439910859951,880,400,0,0,0,1,2,1,12,0001-00-0008-83.png,0002-00-0009-11.png
00000014,113,1,1439910863482,1439910864075,922,393,0,0,0,2,1,1,21,0002-00-0000-23.png,0001-00-0003-24.png
00000014,114,0,1439910865164,1439910865699,376,370,0,0,0,4,3,1,43,0004-00-0007-96.png,0003-00-0004-93.png
00000014,115,0,1439910868674,1439910869184,930,400,0,0,0,3,4,1,34,0003-00-0001-63.png,0004-00-0004-50.png
00000014,116,0,1439910874430,1439910874921,314,415,0,0,0,3,2,1,32,0003-00-0004-84.png,0002-00-0007-66.png
00000014,117,1,1439910878036,1439910878551,366,493,0,0,0,1,2,1,12,0001-00-0005-45.png,0002-00-0009-82.png
00000014,118,1,1439910879847,1439910880309,311,398,0,0,0,2,3,1,23,0002-00-0002-63.png,0003-00-0006-04.png
00000014,119,1,1439910881424,1439910881970,318,392,0,0,0,4,5,1,45,0004-00-0002-27.png,0005-00-0005-73.png
00000014,120,1,1439910883056,1439910883615,883,415,0,0,0,5,4,1,54,0005-00-0009-76.png,0004-00-0006-45.png
00000014,121,1,1439910884696,1439910885276,890,410,0,0,0,3,2,1,32,0003-00-0004-21.png,0002-00-0004-37.png
00000014,122,1,1439910886326,1439910886816,326,392,0,0,0,1,2,1,12,0001-00-0006-08.png,0002-00-0000-68.png
00000014,123,0,1439910887922,1439910888440,875,384,0,0,0,4,5,1,45,0004-00-0001-48.png,0005-00-0002-41.png
00000014,124,1,1439910891901,1439910892355,361,370,0,0,0,2,3,1,23,0002-00-0001-62.png,0003-00-0009-21.png
00000014,125,0,1439910893572,1439910894070,880,400,0,0,0,3,4,1,34,0003-00-0006-68.png,0004-00-0009-20.png
00000014,126,0,1439910897109,1439910897117,520,432,0,0,0,2,1,1,21,0002-00-0006-97.png,0001-00-0005-15.png
00000014,127,1,1439910900077,1439910900628,898,484,0,0,0,5,4,1,54,0005-00-0008-32.png,0004-00-0004-75.png
00000014,128,1,1439910902159,1439910902695,925,381,0,0,0,4,3,1,43,0004-00-0004-15.png,0003-00-0006-41.png
00000014,129,0,1439910903779,1439910904334,379,380,0,0,0,3,2,1,32,0003-00-0004-93.png,0002-00-0004-91.png
00000014,130,1,1439910907175,1439910907704,351,380,0,0,0,1,2,1,12,0001-00-0009-66.png,0002-00-0002-93.png
00000014,131,1,1439910908779,1439910909314,322,378,0,0,0,4,5,1,45,0004-00-0008-77.png,0005-00-0008-40.png
00000014,132,0,1439910910384,1439910910902,895,395,0,0,0,3,4,1,34,0003-00-0002-01.png,0004-00-0002-98.png
00000014,133,1,1439910913905,1439910913933,487,410,0,0,0,2,3,1,23,0002-00-0002-74.png,0003-00-0004-34.png
00000014,134,1,1439910915535,1439910916028,877,511,0,0,0,2,1,1,21,0002-00-0009-98.png,0001-00-0001-71.png
00000014,135,1,1439910917088,1439910917573,888,384,0,0,0,5,4,1,54,0005-00-0006-96.png,0004-00-0001-88.png
00000014,136,1,1439910918876,1439910919358,913,396,0,0,0,4,3,1,43,0004-00-0004-83.png,0003-00-0003-02.png
00000014,137,1,1439910920586,1439910921108,930,402,0,0,0,5,4,1,54,0005-00-0000-08.png,0004-00-0003-45.png
00000014,138,0,1439910922257,1439910922730,898,466,0,0,0,1,2,1,12,0001-00-0003-41.png,0002-00-0002-20.png
00000014,139,0,1439910925825,1439910926358,371,384,0,0,0,4,3,1,43,0004-00-0000-87.png,0003-00-0009-25.png
00000014,140,1,1439910929442,1439910929462,506,485,0,0,0,2,3,1,23,0002-00-0008-51.png,0003-00-0006-69.png
00000014,141,0,1439910930566,1439910931197,361,368,0,0,0,2,1,1,21,0002-00-0001-49.png,0001-00-0004-21.png
00000014,142,0,1439910934273,1439910934306,520,511,0,0,0,3,2,1,32,0003-00-0005-04.png,0002-00-0006-98.png
00000014,143,0,1439910937263,1439910937916,885,451,0,0,0,4,5,1,45,0004-00-0009-36.png,0005-00-0003-93.png
00000014,144,0,1439910940801,1439910941351,876,512,0,0,0,3,4,1,34,0003-00-0006-71.png,0004-00-0006-56.png
00000014,145,0,1439910944678,1439910945324,924,382,0,0,0,2,3,1,23,0002-00-0002-14.png,0003-00-0001-35.png
00000014,146,0,1439910948306,1439910948879,334,370,0,0,0,3,2,1,32,0003-00-0007-54.png,0002-00-0008-24.png
00000014,147,0,1439910951806,1439910951830,471,428,0,0,0,4,3,1,43,0004-00-0007-80.png,0003-00-0001-20.png
00000014,148,0,1439910955448,1439910956000,338,402,0,0,0,5,4,1,54,0005-00-0005-12.png,0004-00-0002-58.png
00000014,149,0,1439910959427,1439910959923,904,402,0,0,0,3,4,1,34,0003-00-0001-92.png,0004-00-0000-56.png
00000014,150,1,1439910962925,1439910963448,922,471,0,0,0,2,1,1,21,0002-00-0009-12.png,0001-00-0004-92.png
00000014,151,1,1439910964534,1439910965085,347,391,0,0,0,4,5,1,45,0004-00-0005-29.png,0005-00-0007-92.png
00000014,152,1,1439910966134,1439910966696,328,389,0,0,0,1,2,1,12,0001-00-0009-38.png,0002-00-0006-37.png
00000014,153,1,1439910967741,1439910968228,354,395,0,0,0,2,3,1,23,0002-00-0001-17.png,0003-00-0005-53.png
00000014,154,1,1439910969282,1439910969775,356,393,0,0,0,3,4,1,34,0003-00-0007-29.png,0004-00-0007-37.png
00000014,155,1,1439910970769,1439910971342,905,401,0,0,0,3,2,1,32,0003-00-0006-07.png,0002-00-0000-80.png
00000014,156,1,1439910972406,1439910972940,924,403,0,0,0,4,3,1,43,0004-00-0002-25.png,0003-00-0002-58.png
00000014,157,1,1439910973979,1439910974511,387,411,0,0,0,4,5,1,45,0004-00-0002-88.png,0005-00-0009-12.png
00000014,158,0,1439910975517,1439910976183,347,391,0,0,0,5,4,1,54,0005-00-0007-06.png,0004-00-0009-47.png
00000014,159,0,1439910979277,1439910979776,344,406,0,0,0,2,1,1,21,0002-00-0001-54.png,0001-00-0004-46.png
00000014,160,1,1439910982725,1439910982745,493,384,0,0,0,1,2,1,12,0001-00-0002-83.png,0002-00-0005-74.png
00000014,161,0,1439910983958,1439910984440,374,420,0,0,0,4,3,1,43,0004-00-0008-94.png,0003-00-0003-39.png
00000014,162,1,1439910987338,1439910987914,935,375,0,0,0,5,4,1,54,0005-00-0001-86.png,0004-00-0004-04.png
00000014,163,0,1439910988916,1439910989402,888,398,0,0,0,3,4,1,34,0003-00-0003-71.png,0004-00-0000-70.png
00000014,164,0,1439910992237,1439910992806,380,355,0,0,0,2,1,1,21,0002-00-0002-22.png,0001-00-0004-07.png
00000014,165,1,1439910995853,1439910995861,511,432,0,0,0,2,3,1,23,0002-00-0000-29.png,0003-00-0003-00.png
00000014,166,1,1439910996867,1439910997355,325,382,0,0,0,1,2,1,12,0001-00-0005-05.png,0002-00-0004-38.png
00000014,167,0,1439910998409,1439910998935,332,393,0,0,0,3,2,1,32,0003-00-0007-48.png,0002-00-0003-14.png
00000014,168,1,1439911001870,1439911001874,513,425,0,0,0,4,5,1,45,0004-00-0008-74.png,0005-00-0003-85.png
00000014,169,1,1439911002893,1439911003471,355,379,0,0,0,4,5,1,45,0004-00-0008-81.png,0005-00-0002-64.png
00000014,170,1,1439911004511,1439911005035,899,403,0,0,0,3,2,1,32,0003-00-0001-38.png,0002-00-0004-44.png
00000014,171,0,1439911006093,1439911006730,913,392,0,0,0,2,3,1,23,0002-00-0004-19.png,0003-00-0004-24.png
00000014,172,0,1439911009716,1439911010271,392,428,0,0,0,5,4,1,54,0005-00-0007-93.png,0004-00-0008-43.png
00000014,173,1,1439911013386,1439911013970,368,427,0,0,0,3,4,1,34,0003-00-0005-13.png,0004-00-0007-70.png
00000014,174,1,1439911015028,1439911015541,347,429,0,0,0,1,2,1,12,0001-00-0008-45.png,0002-00-0008-96.png
00000014,175,1,1439911016557,1439911017101,874,396,0,0,0,4,3,1,43,0004-00-0007-14.png,0003-00-0008-86.png
00000014,176,1,1439911018097,1439911018869,930,419,0,0,0,2,1,1,21,0002-00-0005-88.png,0001-00-0008-13.png
00000014,177,0,1439911019964,1439911020553,385,509,0,0,0,4,3,1,43,0004-00-0007-79.png,0003-00-0007-60.png
00000014,178,0,1439911023392,1439911023901,373,387,0,0,0,3,2,1,32,0003-00-0000-21.png,0002-00-0009-30.png
00000014,179,1,1439911026764,1439911027249,358,398,0,0,0,3,4,1,34,0003-00-0000-21.png,0004-00-0007-15.png
00000014,180,1,1439911028255,1439911028768,417,518,0,0,0,2,3,1,23,0002-00-0000-86.png,0003-00-0003-61.png
00000014,181,1,1439911029786,1439911030288,384,392,0,0,0,1,2,1,12,0001-00-0006-83.png,0002-00-0002-26.png
00000014,182,1,1439911031322,1439911031837,877,493,0,0,0,5,4,1,54,0005-00-0002-65.png,0004-00-0006-82.png
00000014,183,0,1439911032955,1439911033473,899,397,0,0,0,4,5,1,45,0004-00-0000-44.png,0005-00-0000-14.png
00000014,184,0,1439911037023,1439911037500,391,403,0,0,0,2,1,1,21,0002-00-0001-99.png,0001-00-0000-27.png
00000014,185,1,1439911040976,1439911041452,906,392,0,0,0,3,2,1,32,0003-00-0004-75.png,0002-00-0004-39.png
00000014,186,0,1439911042490,1439911042988,914,430,0,0,0,1,2,1,12,0001-00-0006-14.png,0002-00-0001-49.png
00000014,187,0,1439911046026,1439911046042,508,468,0,0,0,5,4,1,54,0005-00-0005-06.png,0004-00-0009-23.png
00000014,188,1,1439911048957,1439911049469,350,398,0,0,0,2,3,1,23,0002-00-0003-20.png,0003-00-0008-73.png
00000014,189,0,1439911050487,1439911050979,879,402,0,0,0,3,4,1,34,0003-00-0003-62.png,0004-00-0009-70.png
00000014,190,1,1439911054124,1439911054643,905,375,0,0,0,4,3,1,43,0004-00-0009-07.png,0003-00-0005-95.png
00000014,191,1,1439911055685,1439911056192,372,379,0,0,0,4,5,1,45,0004-00-0005-07.png,0005-00-0009-79.png
00000014,192,1,1439911057298,1439911057809,880,479,0,0,0,2,1,1,21,0002-00-0001-16.png,0001-00-0006-10.png
00000014,193,0,1439911058888,1439911059429,313,399,0,0,0,2,1,1,21,0002-00-0004-77.png,0001-00-0001-87.png
00000014,194,1,1439911062268,1439911062790,361,358,0,0,0,1,2,1,12,0001-00-0004-87.png,0002-00-0004-51.png
00000014,195,0,1439911063846,1439911064310,334,393,0,0,0,5,4,1,54,0005-00-0003-94.png,0004-00-0008-40.png
00000014,196,1,1439911068030,1439911069017,368,427,0,0,0,4,5,1,45,0004-00-0000-42.png,0005-00-0008-34.png
00000014,197,0,1439911070020,1439911070599,898,379,0,0,0,2,3,1,23,0002-00-0001-95.png,0003-00-0003-57.png
00000014,198,0,1439911073756,1439911074208,350,389,0,0,0,3,2,1,32,0003-00-0001-99.png,0002-00-0006-40.png
00000014,199,0,1439911077402,1439911077805,329,391,0,0,0,4,3,1,43,0004-00-0001-88.png,0003-00-0001-77.png
00000014,200,1,1439911080734,1439911081263,337,372,0,0,0,3,4,1,34,0003-00-0008-22.png,0004-00-0005-71.png
00000014,201,0,1439911082758,1439911083399,874,463,0,0,0,4,5,1,45,0004-00-0003-98.png,0005-00-0008-05.png
00000014,202,1,1439911086337,1439911086353,520,401,0,0,0,1,2,1,12,0001-00-0008-18.png,0002-00-0003-56.png
00000014,203,1,1439911087389,1439911087950,904,416,0,0,0,2,1,1,21,0002-00-0002-45.png,0001-00-0002-86.png
00000014,204,1,1439911089060,1439911089613,939,382,0,0,0,4,3,1,43,0004-00-0005-53.png,0003-00-0006-25.png
00000014,205,1,1439911090730,1439911091227,896,416,0,0,0,5,4,1,54,0005-00-0006-54.png,0004-00-0007-08.png
00000014,206,1,1439911092360,1439911092883,369,400,0,0,0,3,4,1,34,0003-00-0008-90.png,0004-00-0002-24.png
00000014,207,0,1439911094010,1439911094484,338,394,0,0,0,3,2,1,32,0003-00-0009-87.png,0002-00-0004-63.png
00000014,208,0,1439911097633,1439911098142,867,533,0,0,0,2,3,1,23,0002-00-0001-64.png,0003-00-0009-99.png
00000014,209,0,1439911101247,1439911101271,506,507,0,0,0,3,2,1,32,0003-00-0006-59.png,0002-00-0002-59.png
00000014,210,1,1439911104155,1439911104168,468,378,0,0,0,3,4,1,34,0003-00-0002-07.png,0004-00-0000-96.png
00000014,211,0,1439911105231,1439911105725,898,380,0,0,0,4,5,1,45,0004-00-0007-48.png,0005-00-0004-39.png
00000014,212,1,1439911108706,1439911109328,894,457,0,0,0,2,1,1,21,0002-00-0009-49.png,0001-00-0002-79.png
00000014,213,1,1439911110340,1439911110953,338,368,0,0,0,2,3,1,23,0002-00-0006-86.png,0003-00-0002-26.png
00000014,214,1,1439911112219,1439911112837,387,478,0,0,0,1,2,1,12,0001-00-0006-88.png,0002-00-0005-54.png
00000014,215,0,1439911113986,1439911114719,347,377,0,0,0,5,4,1,54,0005-00-0005-19.png,0004-00-0001-12.png
00000014,216,0,1439911117632,1439911117652,492,399,0,0,0,4,3,1,43,0004-00-0009-11.png,0003-00-0005-70.png
00000014,217,0,1439911120756,1439911120780,503,451,0,0,0,3,2,1,32,0003-00-0001-14.png,0002-00-0005-64.png
00000014,218,0,1439911123699,1439911123707,494,399,0,0,0,2,1,1,21,0002-00-0007-06.png,0001-00-0004-01.png
00000014,219,0,1439911127668,1439911128270,926,391,0,0,0,2,3,1,23,0002-00-0009-95.png,0003-00-0005-96.png
00000014,220,1,1439911131559,1439911131596,504,446,0,0,0,1,2,1,12,0001-00-0003-17.png,0002-00-0001-62.png
00000014,221,0,1439911132990,1439911133683,361,362,0,0,0,4,3,1,43,0004-00-0007-28.png,0003-00-0008-22.png
00000014,222,1,1439911136797,1439911136825,517,477,0,0,0,3,4,1,34,0003-00-0006-13.png,0004-00-0004-71.png
00000014,223,1,1439911138281,1439911138820,350,384,0,0,0,4,5,1,45,0004-00-0006-78.png,0005-00-0008-78.png
00000014,224,1,1439911139837,1439911140354,911,398,0,0,0,5,4,1,54,0005-00-0002-28.png,0004-00-0009-61.png
00000014,225,0,1439911141464,1439911141986,324,403,0,0,0,5,4,1,54,0005-00-0003-79.png,0004-00-0004-57.png
00000014,226,0,1439911145016,1439911145545,862,395,0,0,0,2,3,1,23,0002-00-0006-25.png,0003-00-0003-13.png
00000014,227,0,1439911148474,1439911148494,484,402,0,0,0,4,3,1,43,0004-00-0001-50.png,0003-00-0005-82.png
00000014,228,0,1439911151957,1439911152518,874,435,0,0,0,1,2,1,12,0001-00-0003-13.png,0002-00-0007-51.png
00000014,229,1,1439911155499,1439911156045,922,407,0,0,0,2,1,1,21,0002-00-0004-63.png,0001-00-0001-45.png
00000014,230,1,1439911157034,1439911157807,912,398,0,0,0,3,2,1,32,0003-00-0009-21.png,0002-00-0006-49.png
00000014,231,0,1439911158830,1439911159358,879,401,0,0,0,3,4,1,34,0003-00-0008-57.png,0004-00-0008-24.png
00000014,232,0,1439911162327,1439911162822,880,402,0,0,0,4,5,1,45,0004-00-0008-25.png,0005-00-0004-39.png
00000014,233,1,1439911165756,1439911166379,926,438,0,0,0,2,1,1,21,0002-00-0000-37.png,0001-00-0006-89.png
00000014,234,0,1439911167438,1439911167964,884,411,0,0,0,1,2,1,12,0001-00-0000-54.png,0002-00-0009-20.png
00000014,235,0,1439911171323,1439911171946,921,367,0,0,0,2,3,1,23,0002-00-0007-44.png,0003-00-0009-08.png
00000014,236,1,1439911175141,1439911175646,883,474,0,0,0,4,3,1,43,0004-00-0003-51.png,0003-00-0000-39.png
00000014,237,0,1439911176664,1439911177165,911,411,0,0,0,3,4,1,34,0003-00-0003-52.png,0004-00-0008-93.png
00000014,238,0,1439911180086,1439911180583,339,378,0,0,0,3,2,1,32,0003-00-0008-93.png,0002-00-0005-08.png
00000014,239,0,1439911183699,1439911184240,330,408,0,0,0,5,4,1,54,0005-00-0008-04.png,0004-00-0007-03.png
00000014,240,1,1439911187379,1439911187931,346,384,0,0,0,4,5,1,45,0004-00-0007-47.png,0005-00-0004-38.png
00000014,241,1,1439911189002,1439911189538,899,384,0,0,0,3,2,1,32,0003-00-0007-80.png,0002-00-0006-89.png
00000014,242,0,1439911190629,1439911191258,376,396,0,0,0,5,4,1,54,0005-00-0004-13.png,0004-00-0000-98.png
00000014,243,1,1439911194152,1439911194672,369,388,0,0,0,4,5,1,45,0004-00-0009-22.png,0005-00-0005-50.png
00000014,244,1,1439911195951,1439911196406,356,399,0,0,0,2,3,1,23,0002-00-0008-48.png,0003-00-0008-73.png
00000014,245,1,1439911197499,1439911197986,375,411,0,0,0,3,4,1,34,0003-00-0004-82.png,0004-00-0000-39.png
00000014,246,0,1439911199101,1439911200106,453,422,0,0,0,4,3,1,43,0004-00-0006-84.png,0003-00-0003-75.png
00000014,247,1,1439911203226,1439911203731,344,399,0,0,0,1,2,1,12,0001-00-0003-33.png,0002-00-0003-60.png
00000014,248,0,1439911205173,1439911205719,357,407,0,0,0,2,1,1,21,0002-00-0002-85.png,0001-00-0003-10.png
00000014,249,1,1439911208553,1439911209100,919,382,0,0,0,3,2,1,32,0003-00-0005-90.png,0002-00-0004-56.png
00000014,250,0,1439911210480,1439911210955,871,405,0,0,0,4,5,1,45,0004-00-0008-45.png,0005-00-0006-96.png
00000014,251,1,1439911213925,1439911213984,472,504,0,0,0,1,2,1,12,0001-00-0007-38.png,0002-00-0008-78.png
00000014,252,1,1439911215002,1439911215529,911,405,0,0,0,4,3,1,43,0004-00-0003-03.png,0003-00-0006-43.png
00000014,253,0,1439911216660,1439911217173,900,409,0,0,0,3,4,1,34,0003-00-0001-41.png,0004-00-0001-88.png
00000014,254,0,1439911220352,1439911220986,886,508,0,0,0,2,3,1,23,0002-00-0007-11.png,0003-00-0006-35.png
00000014,255,1,1439911224055,1439911224601,896,398,0,0,0,2,1,1,21,0002-00-0008-11.png,0001-00-0004-74.png
00000014,256,1,1439911225593,1439911226184,888,421,0,0,0,5,4,1,54,0005-00-0004-98.png,0004-00-0000-27.png
00000014,257,0,1439911227267,1439911227792,864,475,0,0,0,2,3,1,23,0002-00-0001-36.png,0003-00-0003-80.png
00000014,258,1,1439911230694,1439911231230,365,384,0,0,0,4,5,1,45,0004-00-0008-07.png,0005-00-0009-68.png
00000014,259,1,1439911232255,1439911232753,900,371,0,0,0,2,1,1,21,0002-00-0000-88.png,0001-00-0005-05.png
00000014,260,0,1439911233822,1439911234376,291,395,0,0,0,3,2,1,32,0003-00-0001-26.png,0002-00-0000-90.png
00000014,261,0,1439911237344,1439911237368,473,403,0,0,0,5,4,1,54,0005-00-0002-28.png,0004-00-0001-39.png
00000014,262,1,1439911240387,1439911240403,508,408,0,0,0,1,2,1,12,0001-00-0008-27.png,0002-00-0002-72.png
00000014,263,0,1439911241496,1439911242152,337,332,0,0,0,4,3,1,43,0004-00-0004-19.png,0003-00-0003-77.png
00000014,264,1,1439911245204,1439911245700,321,394,0,0,0,3,4,1,34,0003-00-0005-28.png,0004-00-0007-54.png
00000014,265,0,1439911246759,1439911247229,900,397,0,0,0,1,2,1,12,0001-00-0002-93.png,0002-00-0006-60.png
00000014,266,0,1439911250446,1439911251028,919,383,0,0,0,3,4,1,34,0003-00-0007-58.png,0004-00-0003-66.png
00000014,267,0,1439911254410,1439911254979,333,367,0,0,0,2,1,1,21,0002-00-0000-60.png,0001-00-0002-27.png
00000014,268,0,1439911257876,1439911258447,873,464,0,0,0,2,3,1,23,0002-00-0001-12.png,0003-00-0005-26.png
00000014,269,1,1439911261783,1439911261799,497,444,0,0,0,4,5,1,45,0004-00-0004-95.png,0005-00-0002-54.png
00000014,270,1,1439911262877,1439911263412,880,419,0,0,0,4,3,1,43,0004-00-0009-03.png,0003-00-0008-19.png
00000014,271,1,1439911264439,1439911264975,904,414,0,0,0,3,2,1,32,0003-00-0004-91.png,0002-00-0006-54.png
00000014,272,1,1439911266422,1439911267027,930,427,0,0,0,5,4,1,54,0005-00-0004-92.png,0004-00-0009-11.png
00000014,273,1,1439911268096,1439911268601,875,502,0,0,0,5,4,1,54,0005-00-0005-34.png,0004-00-0008-19.png
00000014,274,0,1439911269615,1439911270149,326,398,0,0,0,4,3,1,43,0004-00-0001-46.png,0003-00-0006-88.png
00000014,275,1,1439911273185,1439911273835,872,501,0,0,0,2,1,1,21,0002-00-0008-55.png,0001-00-0005-23.png
00000014,276,1,1439911274874,1439911275344,376,423,0,0,0,2,3,1,23,0002-00-0003-45.png,0003-00-0006-27.png
00000014,277,1,1439911276382,1439911277058,879,401,0,0,0,3,2,1,32,0003-00-0003-18.png,0002-00-0002-94.png
00000014,278,0,1439911278171,1439911278721,862,425,0,0,0,3,4,1,34,0003-00-0002-97.png,0004-00-0005-45.png
00000014,279,1,1439911281663,1439911281679,510,395,0,0,0,4,5,1,45,0004-00-0006-85.png,0005-00-0006-72.png
00000014,280,1,1439911282746,1439911283211,394,521,0,0,0,1,2,1,12,0001-00-0004-66.png,0002-00-0003-52.png
00000014,281,0,1439911284248,1439911284801,890,398,0,0,0,2,3,1,23,0002-00-0001-22.png,0003-00-0004-07.png
00000014,282,1,1439911287861,1439911287908,516,488,0,0,0,1,2,1,12,0001-00-0009-04.png,0002-00-0004-61.png
00000014,283,0,1439911288935,1439911289483,401,501,0,0,0,2,1,1,21,0002-00-0008-65.png,0001-00-0005-81.png
00000014,284,0,1439911292736,1439911293228,338,412,0,0,0,3,2,1,32,0003-00-0008-91.png,0002-00-0006-37.png
00000014,285,1,1439911296364,1439911296907,876,422,0,0,0,5,4,1,54,0005-00-0003-77.png,0004-00-0000-47.png
00000014,286,0,1439911297990,1439911298445,342,402,0,0,0,4,3,1,43,0004-00-0008-38.png,0003-00-0009-61.png
00000014,287,1,1439911301849,1439911302364,330,423,0,0,0,3,4,1,34,0003-00-0007-85.png,0004-00-0006-03.png
00000014,288,0,1439911303376,1439911303928,884,413,0,0,0,4,5,1,45,0004-00-0006-11.png,0005-00-0007-66.png
00000014,289,0,1439911307166,1439911307752,928,388,0,0,0,1,2,1,12,0001-00-0007-87.png,0002-00-0000-03.png
00000014,290,1,1439911310952,1439911311482,874,490,0,0,0,4,3,1,43,0004-00-0009-73.png,0003-00-0000-58.png
00000014,291,1,1439911312489,1439911313033,325,372,0,0,0,2,3,1,23,0002-00-0008-32.png,0003-00-0008-44.png
00000014,292,0,1439911314102,1439911314686,332,388,0,0,0,2,1,1,21,0002-00-0008-13.png,0001-00-0005-38.png
00000014,293,1,1439911317739,1439911318268,335,401,0,0,0,3,4,1,34,0003-00-0005-66.png,0004-00-0003-46.png
00000014,294,0,1439911319372,1439911319916,865,483,0,0,0,4,5,1,45,0004-00-0008-26.png,0005-00-0000-77.png
00000014,295,0,1439911322767,1439911322787,514,347,0,0,0,3,2,1,32,0003-00-0008-80.png,0002-00-0006-16.png
00000014,296,1,1439911325999,1439911326559,927,391,0,0,0,5,4,1,54,0005-00-0005-56.png,0004-00-0000-43.png
00000014,297,1,1439911327610,1439911328123,886,424,0,0,0,3,2,1,32,0003-00-0004-81.png,0002-00-0002-41.png
00000014,298,1,1439911329206,1439911329746,376,481,0,0,0,2,3,1,23,0002-00-0000-95.png,0003-00-0005-78.png
00000014,299,1,1439911331008,1439911331591,875,423,0,0,0,2,1,1,21,0002-00-0005-91.png,0001-00-0004-53.png
00000014,300,1,1439911332651,1439911333125,359,410,0,0,0,1,2,1,12,0001-00-0009-82.png,0002-00-0008-27.png
00000014,301,0,1439911334320,1439911334852,364,423,0,0,0,4,3,1,43,0004-00-0004-82.png,0003-00-0005-01.png
00000014,302,1,1439911338311,1439911338790,347,391,0,0,0,3,4,1,34,0003-00-0001-18.png,0004-00-0005-30.png
00000014,303,1,1439911340222,1439911340741,902,423,0,0,0,5,4,1,54,0005-00-0000-99.png,0004-00-0004-69.png
00000014,304,0,1439911341817,1439911342356,888,423,0,0,0,4,5,1,45,0004-00-0009-72.png,0005-00-0005-69.png
00000014,305,0,1439911345371,1439911345387,478,462,0,0,0,4,3,1,43,0004-00-0008-68.png,0003-00-0006-41.png
00000014,306,0,1439911348531,1439911349158,899,464,0,0,0,3,4,1,34,0003-00-0005-92.png,0004-00-0003-77.png
00000014,307,1,1439911352794,1439911353259,323,377,0,0,0,2,3,1,23,0002-00-0009-43.png,0003-00-0004-96.png
00000014,308,0,1439911354394,1439911354884,898,411,0,0,0,4,5,1,45,0004-00-0009-07.png,0005-00-0002-39.png
00000014,309,0,1439911357823,1439911357843,503,389,0,0,0,3,2,1,32,0003-00-0006-01.png,0002-00-0005-45.png
00000014,310,1,1439911360878,1439911361361,297,370,0,0,0,1,2,1,12,0001-00-0005-05.png,0002-00-0004-92.png
00000014,311,1,1439911362408,1439911363103,913,396,0,0,0,5,4,1,54,0005-00-0007-35.png,0004-00-0005-63.png
00000014,312,0,1439911364144,1439911364704,355,400,0,0,0,2,1,1,21,0002-00-0006-85.png,0001-00-0006-23.png
00000014,313,1,1439911367715,1439911368354,904,375,0,0,0,4,3,1,43,0004-00-0001-32.png,0003-00-0000-48.png
00000014,314,1,1439911369452,1439911369963,879,401,0,0,0,2,1,1,21,0002-00-0008-95.png,0001-00-0003-99.png
00000014,315,1,1439911371044,1439911371557,901,398,0,0,0,3,2,1,32,0003-00-0007-99.png,0002-00-0003-45.png
00000014,316,0,1439911372635,1439911373147,905,400,0,0,0,2,3,1,23,0002-00-0008-71.png,0003-00-0009-74.png
00000014,317,0,1439911376016,1439911376740,931,402,0,0,0,4,5,1,45,0004-00-0000-02.png,0005-00-0003-38.png
00000014,318,0,1439911379650,1439911380252,917,408,0,0,0,1,2,1,12,0001-00-0003-56.png,0002-00-0008-85.png
00000014,319,0,1439911383161,1439911383845,897,386,0,0,0,3,4,1,34,0003-00-0007-12.png,0004-00-0002-74.png
00000014,320,1,1439911387016,1439911387559,888,475,0,0,0,5,4,1,54,0005-00-0000-17.png,0004-00-0005-45.png
00000014,321,0,1439911388736,1439911389259,916,386,0,0,0,2,3,1,23,0002-00-0003-20.png,0003-00-0009-49.png
00000014,322,1,1439911392728,1439911393473,925,383,0,0,0,4,3,1,43,0004-00-0000-47.png,0003-00-0004-63.png
00000014,323,1,1439911394490,1439911395036,342,425,0,0,0,3,4,1,34,0003-00-0000-17.png,0004-00-0005-95.png
00000014,324,1,1439911396069,1439911396599,913,396,0,0,0,5,4,1,54,0005-00-0009-31.png,0004-00-0001-99.png
00000014,325,1,1439911397689,1439911398398,316,372,0,0,0,1,2,1,12,0001-00-0000-39.png,0002-00-0007-10.png
00000014,326,1,1439911399436,1439911400181,905,402,0,0,0,2,1,1,21,0002-00-0006-87.png,0001-00-0006-46.png
00000014,327,1,1439911401213,1439911401747,926,398,0,0,0,3,2,1,32,0003-00-0007-71.png,0002-00-0005-54.png
00000014,328,0,1439911402829,1439911403359,900,410,0,0,0,4,5,1,45,0004-00-0002-39.png,0005-00-0009-67.png
00000014,329,0,1439911406434,1439911407213,888,384,0,0,0,1,2,1,12,0001-00-0003-85.png,0002-00-0007-77.png
00000014,330,1,1439911410376,1439911410945,870,472,0,0,0,2,1,1,21,0002-00-0009-71.png,0001-00-0007-50.png
00000014,331,0,1439911411949,1439911412546,290,391,0,0,0,4,3,1,43,0004-00-0004-19.png,0003-00-0000-48.png
00000014,332,1,1439911415531,1439911415539,478,389,0,0,0,2,3,1,23,0002-00-0009-36.png,0003-00-0001-87.png
00000014,333,1,1439911416604,1439911417159,905,401,0,0,0,3,2,1,32,0003-00-0003-04.png,0002-00-0006-95.png
00000014,334,1,1439911418150,1439911418717,370,505,0,0,0,4,5,1,45,0004-00-0001-09.png,0005-00-0002-27.png
00000014,335,0,1439911420173,1439911420693,877,418,0,0,0,3,4,1,34,0003-00-0003-64.png,0004-00-0001-06.png
00000014,336,1,1439911423537,1439911424154,909,365,0,0,0,5,4,1,54,0005-00-0004-96.png,0004-00-0005-33.png
00000014,337,0,1439911425113,1439911425655,888,420,0,0,0,2,3,1,23,0002-00-0003-21.png,0003-00-0007-75.png
00000014,338,1,1439911428551,1439911429101,315,383,0,0,0,3,4,1,34,0003-00-0007-14.png,0004-00-0001-96.png
00000014,339,0,1439911430182,1439911430653,364,426,0,0,0,4,3,1,43,0004-00-0004-50.png,0003-00-0007-99.png
00000014,340,1,1439911433539,1439911433547,521,384,0,0,0,4,5,1,45,0004-00-0001-57.png,0005-00-0009-41.png
00000014,341,1,1439911434585,1439911435238,905,401,0,0,0,2,1,1,21,0002-00-0000-18.png,0001-00-0004-36.png
00000014,342,1,1439911436232,1439911437007,928,388,0,0,0,3,2,1,32,0003-00-0000-86.png,0002-00-0003-95.png
00000014,343,0,1439911437979,1439911438618,312,399,0,0,0,5,4,1,54,0005-00-0006-51.png,0004-00-0000-71.png
00000014,344,0,1439911441537,1439911442220,902,383,0,0,0,1,2,1,12,0001-00-0003-89.png,0002-00-0009-75.png
00000014,345,1,1439911445208,1439911445820,905,350,0,0,0,3,2,1,32,0003-00-0000-97.png,0002-00-0005-28.png
00000014,346,0,1439911446874,1439911447441,871,431,0,0,0,4,5,1,45,0004-00-0008-90.png,0005-00-0002-50.png
00000014,347,1,1439911450297,1439911451009,924,399,0,0,0,4,3,1,43,0004-00-0005-12.png,0003-00-0009-49.png
00000014,348,1,1439911452045,1439911452561,900,397,0,0,0,2,1,1,21,0002-00-0008-35.png,0001-00-0008-51.png
00000014,349,0,1439911453585,1439911454130,887,398,0,0,0,3,4,1,34,0003-00-0003-58.png,0004-00-0008-62.png
00000014,350,0,1439911457313,1439911457997,902,495,0,0,0,1,2,1,12,0001-00-0006-55.png,0002-00-0007-52.png
00000014,351,1,1439911460849,1439911461341,332,367,0,0,0,2,3,1,23,0002-00-0008-73.png,0003-00-0003-84.png
00000014,352,1,1439911462381,1439911463040,905,392,0,0,0,5,4,1,54,0005-00-0004-75.png,0004-00-0006-26.png
00000014,353,0,1439911464041,1439911464738,899,386,0,0,0,2,3,1,23,0002-00-0001-68.png,0003-00-0002-35.png
00000014,354,0,1439911467605,1439911467621,510,395,0,0,0,2,1,1,21,0002-00-0005-39.png,0001-00-0007-01.png
00000014,355,1,1439911470548,1439911470576,504,397,0,0,0,4,5,1,45,0004-00-0007-14.png,0005-00-0005-32.png
00000014,356,0,1439911471613,1439911472137,905,427,0,0,0,3,4,1,34,0003-00-0001-37.png,0004-00-0000-29.png
00000014,357,0,1439911475069,1439911475089,514,425,0,0,0,5,4,1,54,0005-00-0006-21.png,0004-00-0009-18.png
00000014,358,1,1439911477960,1439911478573,937,398,0,0,0,4,3,1,43,0004-00-0002-11.png,0003-00-0006-59.png
00000014,359,0,1439911479555,1439911480158,902,417,0,0,0,1,2,1,12,0001-00-0003-92.png,0002-00-0001-32.png
00000014,360,0,1439911483230,1439911483266,497,481,0,0,0,3,2,1,32,0003-00-0001-57.png,0002-00-0006-48.png
00000014,361,0,1439911486104,1439911486120,498,466,0,0,0,4,3,1,43,0004-00-0001-96.png,0003-00-0009-11.png
00000014,362,1,1439911489163,1439911489704,903,418,0,0,0,3,2,1,32,0003-00-0001-99.png,0002-00-0001-15.png
00000014,363,1,1439911490652,1439911491216,878,416,0,0,0,2,1,1,21,0002-00-0002-58.png,0001-00-0008-02.png
00000014,364,1,1439911492260,1439911492848,342,403,0,0,0,1,2,1,12,0001-00-0000-88.png,0002-00-0006-97.png
00000014,365,1,1439911493954,1439911494499,904,401,0,0,0,5,4,1,54,0005-00-0008-74.png,0004-00-0004-44.png
00000014,366,0,1439911495503,1439911496060,895,395,0,0,0,2,3,1,23,0002-00-0001-67.png,0003-00-0002-00.png
00000014,367,0,1439911499002,1439911499566,929,393,0,0,0,3,4,1,34,0003-00-0004-95.png,0004-00-0001-56.png
00000014,368,1,1439911502518,1439911502538,518,406,0,0,0,4,5,1,45,0004-00-0005-63.png,0005-00-0002-92.png
00000014,369,1,1439911503604,1439911504160,342,368,0,0,0,1,2,1,12,0001-00-0007-13.png,0002-00-0005-69.png
00000014,370,1,1439911505211,1439911505723,904,404,0,0,0,2,1,1,21,0002-00-0002-76.png,0001-00-0005-10.png
00000014,371,1,1439911506774,1439911507279,889,396,0,0,0,3,2,1,32,0003-00-0001-12.png,0002-00-0008-94.png
00000014,372,1,1439911508415,1439911509217,376,345,0,0,0,3,4,1,34,0003-00-0009-40.png,0004-00-0004-03.png
00000014,373,1,1439911510273,1439911510779,349,407,0,0,0,4,5,1,45,0004-00-0001-27.png,0005-00-0007-89.png
00000014,374,1,1439911511824,1439911512414,902,488,0,0,0,4,3,1,43,0004-00-0001-14.png,0003-00-0008-19.png
00000014,375,1,1439911513673,1439911514250,299,397,0,0,0,2,3,1,23,0002-00-0005-79.png,0003-00-0005-19.png
00000014,376,1,1439911515333,1439911515874,900,414,0,0,0,5,4,1,54,0005-00-0000-28.png,0004-00-0009-44.png
00000014,377,0,1439911516934,1439911517526,310,436,0,0,0,5,4,1,54,0005-00-0005-26.png,0004-00-0008-70.png
00000014,378,0,1439911520376,1439911520400,504,410,0,0,0,4,3,1,43,0004-00-0001-46.png,0003-00-0009-77.png
00000014,379,1,1439911523230,1439911523695,309,374,0,0,0,1,2,1,12,0001-00-0002-44.png,0002-00-0006-59.png
00000014,380,1,1439911524645,1439911525150,376,398,0,0,0,3,4,1,34,0003-00-0002-54.png,0004-00-0002-25.png
00000014,381,1,1439911526142,1439911526734,922,408,0,0,0,2,1,1,21,0002-00-0000-94.png,0001-00-0001-67.png
00000014,382,1,1439911528023,1439911528517,906,426,0,0,0,3,2,1,32,0003-00-0005-97.png,0002-00-0001-30.png
00000014,383,1,1439911529655,1439911530227,328,401,0,0,0,2,3,1,23,0002-00-0003-13.png,0003-00-0000-92.png
00000014,384,0,1439911531325,1439911532092,899,395,0,0,0,4,5,1,45,0004-00-0001-36.png,0005-00-0009-08.png
00000014,385,1,1439911534999,1439911535713,375,353,0,0,0,1,2,1,12,0001-00-0002-57.png,0002-00-0008-70.png
00000014,386,0,1439911536752,1439911537255,884,419,0,0,0,2,3,1,23,0002-00-0001-82.png,0003-00-0005-29.png
00000014,387,0,1439911540256,1439911540731,389,397,0,0,0,2,1,1,21,0002-00-0000-10.png,0001-00-0002-01.png
00000014,388,0,1439911543867,1439911544350,315,389,0,0,0,4,3,1,43,0004-00-0004-60.png,0003-00-0005-71.png
00000014,389,1,1439911547455,1439911547483,488,469,0,0,0,3,4,1,34,0003-00-0005-15.png,0004-00-0007-11.png
00000014,390,1,1439911548587,1439911549089,900,397,0,0,0,5,4,1,54,0005-00-0001-17.png,0004-00-0006-05.png
00000014,391,0,1439911550158,1439911550705,888,384,0,0,0,4,5,1,45,0004-00-0001-25.png,0005-00-0007-92.png
00000014,392,1,1439911553614,1439911554197,901,358,0,0,0,3,2,1,32,0003-00-0007-89.png,0002-00-0001-55.png
00000014,393,0,1439911555167,1439911555849,894,405,0,0,0,3,4,1,34,0003-00-0004-56.png,0004-00-0006-22.png
00000014,394,1,1439911558843,1439911559377,926,410,0,0,0,4,3,1,43,0004-00-0005-31.png,0003-00-0000-66.png
00000014,395,0,1439911560395,1439911560909,901,398,0,0,0,4,5,1,45,0004-00-0006-36.png,0005-00-0002-38.png
00000014,396,0,1439911563979,1439911564541,401,384,0,0,0,3,2,1,32,0003-00-0001-37.png,0002-00-0000-85.png
00000014,397,0,1439911567729,1439911568276,927,398,0,0,0,2,3,1,23,0002-00-0006-46.png,0003-00-0000-56.png
00000014,398,0,1439911571392,1439911571404,504,503,0,0,0,5,4,1,54,0005-00-0007-42.png,0004-00-0001-37.png
00000014,399,0,1439911575046,1439911585278,349,432,0,0,0,2,1,1,21,0002-00-0005-71.png,0001-00-0001-32.png
00000014,400,1,1439911588323,1439911588351,504,384,0,0,0,1,2,1,12,0001-00-0003-55.png,0002-00-0006-10.png
00000014,401,1,1439911589473,1439911590066,900,411,0,0,0,2,1,1,21,0002-00-0009-99.png,0001-00-0000-87.png
00000014,402,1,1439911591156,1439911591692,874,475,0,0,0,5,4,1,54,0005-00-0007-46.png,0004-00-0003-38.png
00000014,403,1,1439911592704,1439911593185,338,403,0,0,0,1,2,1,12,0001-00-0009-02.png,0002-00-0000-48.png
00000014,404,1,1439911594189,1439911594703,886,503,0,0,0,4,3,1,43,0004-00-0009-32.png,0003-00-0009-92.png
00000014,405,1,1439911595679,1439911596301,325,397,0,0,0,4,5,1,45,0004-00-0003-21.png,0005-00-0007-87.png
00000014,406,0,1439911597568,1439911598086,883,486,0,0,0,3,4,1,34,0003-00-0004-04.png,0004-00-0009-69.png
00000014,407,1,1439911601386,1439911601963,950,404,0,0,0,3,2,1,32,0003-00-0003-03.png,0002-00-0004-48.png
00000014,408,1,1439911602937,1439911603399,342,416,0,0,0,2,3,1,23,0002-00-0007-77.png,0003-00-0006-25.png
00000014,409,1,1439911604403,1439911605021,902,418,0,0,0,5,4,1,54,0005-00-0009-03.png,0004-00-0004-42.png
00000014,410,1,1439911606076,1439911606617,342,406,0,0,0,3,4,1,34,0003-00-0003-57.png,0004-00-0008-90.png
00000014,411,1,1439911607597,1439911608124,372,419,0,0,0,1,2,1,12,0001-00-0005-90.png,0002-00-0003-77.png
00000014,412,1,1439911609045,1439911609586,345,405,0,0,0,2,3,1,23,0002-00-0005-16.png,0003-00-0007-36.png
00000014,413,1,1439911610632,1439911611219,904,416,0,0,0,2,1,1,21,0002-00-0006-39.png,0001-00-0007-46.png
00000014,414,0,1439911612337,1439911612913,865,439,0,0,0,4,5,1,45,0004-00-0000-20.png,0005-00-0008-83.png
00000014,415,0,1439911616063,1439911616625,383,394,0,0,0,3,2,1,32,0003-00-0005-53.png,0002-00-0001-11.png
00000014,416,1,1439911620546,1439911621249,899,490,0,0,0,4,3,1,43,0004-00-0006-03.png,0003-00-0008-39.png
00000014,417,1,1439911622255,1439911622801,890,396,0,0,0,3,2,1,32,0003-00-0007-79.png,0002-00-0005-62.png
00000014,418,0,1439911623854,1439911624372,904,401,0,0,0,3,4,1,34,0003-00-0004-32.png,0004-00-0002-18.png
00000014,419,0,1439911627204,1439911627712,372,385,0,0,0,2,1,1,21,0002-00-0003-33.png,0001-00-0003-13.png
00000014,420,0,1439911630563,1439911631234,923,353,0,0,0,2,3,1,23,0002-00-0007-64.png,0003-00-0009-52.png
00000014,421,0,1439911634162,1439911634166,473,440,0,0,0,5,4,1,54,0005-00-0005-52.png,0004-00-0008-61.png
00000014,422,1,1439911637429,1439911637441,504,462,0,0,0,1,2,1,12,0001-00-0004-81.png,0002-00-0001-38.png
00000014,423,1,1439911638484,1439911639108,311,448,0,0,0,4,5,1,45,0004-00-0001-50.png,0005-00-0009-61.png
00000014,424,1,1439911640114,1439911641131,900,436,0,0,0,4,3,1,43,0004-00-0008-33.png,0003-00-0002-28.png
00000014,425,1,1439911642114,1439911642645,869,421,0,0,0,2,1,1,21,0002-00-0005-66.png,0001-00-0001-22.png
00000014,426,1,1439911643697,1439911644254,312,421,0,0,0,4,5,1,45,0004-00-0006-60.png,0005-00-0000-31.png
00000014,427,1,1439911645324,1439911645901,878,401,0,0,0,4,3,1,43,0004-00-0008-56.png,0003-00-0002-85.png
00000014,428,1,1439911646938,1439911647474,888,399,0,0,0,3,2,1,32,0003-00-0004-01.png,0002-00-0003-43.png
00000014,429,1,1439911648464,1439911648995,375,403,0,0,0,2,3,1,23,0002-00-0002-42.png,0003-00-0005-04.png
00000014,430,0,1439911650085,1439911650767,880,403,0,0,0,1,2,1,12,0001-00-0004-91.png,0002-00-0005-68.png
00000014,431,0,1439911653842,1439911653866,522,535,0,0,0,5,4,1,54,0005-00-0008-45.png,0004-00-0001-72.png
00000014,432,1,1439911656933,1439911656941,515,454,0,0,0,3,4,1,34,0003-00-0006-18.png,0004-00-0004-64.png
00000014,433,1,1439911657906,1439911658505,376,410,0,0,0,3,4,1,34,0003-00-0002-91.png,0004-00-0005-49.png
00000014,434,0,1439911659545,1439911660075,874,435,0,0,0,2,3,1,23,0002-00-0001-76.png,0003-00-0005-56.png
00000014,435,0,1439911663289,1439911663349,507,510,0,0,0,4,3,1,43,0004-00-0000-09.png,0003-00-0007-42.png
00000014,436,1,1439911666252,1439911666272,485,394,0,0,0,1,2,1,12,0001-00-0009-24.png,0002-00-0000-86.png
00000014,437,1,1439911667284,1439911667790,303,388,0,0,0,4,5,1,45,0004-00-0006-13.png,0005-00-0007-37.png
00000014,438,0,1439911668798,1439911669284,329,387,0,0,0,2,1,1,21,0002-00-0007-19.png,0001-00-0009-90.png
00000014,439,0,1439911672130,1439911672158,517,399,0,0,0,3,2,1,32,0003-00-0008-69.png,0002-00-0003-55.png
00000014,440,0,1439911675057,1439911675069,502,446,0,0,0,5,4,1,54,0005-00-0000-65.png,0004-00-0005-97.png
00000014,441,0,1439911678139,1439911678665,299,377,0,0,0,4,3,1,43,0004-00-0004-87.png,0003-00-0006-23.png
00000014,442,0,1439911682352,1439911682384,523,499,0,0,0,5,4,1,54,0005-00-0004-87.png,0004-00-0001-76.png
00000014,443,1,1439911685851,1439911686453,944,381,0,0,0,3,2,1,32,0003-00-0009-28.png,0002-00-0003-79.png
00000014,444,1,1439911687414,1439911687894,342,389,0,0,0,2,3,1,23,0002-00-0000-29.png,0003-00-0003-67.png
00000014,445,1,1439911688919,1439911689420,365,491,0,0,0,3,4,1,34,0003-00-0009-81.png,0004-00-0001-34.png
00000014,446,1,1439911690394,1439911690930,877,520,0,0,0,2,1,1,21,0002-00-0007-44.png,0001-00-0007-96.png
00000014,447,1,1439911691906,1439911692509,346,403,0,0,0,1,2,1,12,0001-00-0004-94.png,0002-00-0000-90.png
00000014,448,1,1439911693545,1439911694137,364,419,0,0,0,4,5,1,45,0004-00-0000-55.png,0005-00-0007-00.png
00000014,449,1,1439911695112,1439911695672,894,418,0,0,0,3,2,1,32,0003-00-0008-63.png,0002-00-0008-53.png
00000014,450,0,1439911696703,1439911697314,905,401,0,0,0,1,2,1,12,0001-00-0006-74.png,0002-00-0009-34.png
00000014,451,1,1439911700181,1439911700213,522,403,0,0,0,4,5,1,45,0004-00-0005-77.png,0005-00-0001-35.png
00000014,452,0,1439911701226,1439911701720,887,438,0,0,0,3,4,1,34,0003-00-0003-75.png,0004-00-0001-80.png
00000014,453,1,1439911704573,1439911705154,930,350,0,0,0,2,1,1,21,0002-00-0007-99.png,0001-00-0009-73.png
00000014,454,1,1439911706117,1439911706609,895,421,0,0,0,5,4,1,54,0005-00-0001-25.png,0004-00-0009-71.png
00000014,455,1,1439911707570,1439911708204,350,409,0,0,0,2,3,1,23,0002-00-0002-75.png,0003-00-0006-12.png
00000014,456,0,1439911709257,1439911710473,408,426,0,0,0,4,3,1,43,0004-00-0001-70.png,0003-00-0007-03.png
00000014,457,1,1439911713317,1439911713830,342,417,0,0,0,1,2,1,12,0001-00-0006-52.png,0002-00-0003-36.png
00000014,458,1,1439911714732,1439911715796,954,417,0,0,0,3,2,1,32,0003-00-0009-47.png,0002-00-0005-99.png
00000014,459,1,1439911716710,1439911717312,378,406,0,0,0,4,5,1,45,0004-00-0004-48.png,0005-00-0009-62.png
00000014,460,1,1439911718279,1439911718820,902,438,0,0,0,5,4,1,54,0005-00-0003-02.png,0004-00-0008-24.png
00000014,461,0,1439911719785,1439911720719,387,430,0,0,0,4,3,1,43,0004-00-0007-37.png,0003-00-0002-29.png
00000014,462,1,1439911724034,1439911724575,913,371,0,0,0,2,1,1,21,0002-00-0008-21.png,0001-00-0003-48.png
00000014,463,0,1439911725537,1439911726012,862,371,0,0,0,3,4,1,34,0003-00-0000-99.png,0004-00-0007-83.png
00000014,464,1,1439911729090,1439911729561,337,394,0,0,0,2,3,1,23,0002-00-0002-42.png,0003-00-0008-15.png
00000014,465,1,1439911730564,1439911731573,899,457,0,0,0,3,2,1,32,0003-00-0008-42.png,0002-00-0000-62.png
00000014,466,0,1439911732510,1439911733202,353,410,0,0,0,5,4,1,54,0005-00-0007-02.png,0004-00-0006-52.png
00000014,467,1,1439911736359,1439911736893,905,428,0,0,0,4,3,1,43,0004-00-0008-57.png,0003-00-0001-20.png
00000014,468,0,1439911737878,1439911738409,875,513,0,0,0,1,2,1,12,0001-00-0009-86.png,0002-00-0007-02.png
00000014,469,1,1439911741473,1439911741497,522,480,0,0,0,3,4,1,34,0003-00-0008-88.png,0004-00-0003-23.png
00000014,470,1,1439911742552,1439911742592,520,564,0,0,0,4,5,1,45,0004-00-0002-49.png,0005-00-0003-39.png
00000014,471,1,1439911743682,1439911744182,879,401,0,0,0,2,1,1,21,0002-00-0009-62.png,0001-00-0001-55.png
00000014,472,1,1439911745253,1439911745766,429,525,0,0,0,2,3,1,23,0002-00-0000-14.png,0003-00-0001-98.png
00000014,473,0,1439911746825,1439911746861,502,543,0,0,0,4,3,1,43,0004-00-0001-78.png,0003-00-0005-10.png
00000014,474,1,1439911750262,1439911750758,327,396,0,0,0,4,5,1,45,0004-00-0002-42.png,0005-00-0000-80.png
00000014,475,0,1439911752044,1439911752603,899,388,0,0,0,2,3,1,23,0002-00-0001-59.png,0003-00-0004-59.png
00000014,476,1,1439911755588,1439911756121,877,548,0,0,0,5,4,1,54,0005-00-0006-33.png,0004-00-0003-70.png
00000014,477,0,1439911757048,1439911757669,382,401,0,0,0,2,1,1,21,0002-00-0000-16.png,0001-00-0006-51.png
00000014,478,1,1439911761126,1439911761678,924,404,0,0,0,3,2,1,32,0003-00-0004-48.png,0002-00-0004-88.png
00000014,479,0,1439911762613,1439911763179,895,410,0,0,0,3,4,1,34,0003-00-0003-68.png,0004-00-0006-71.png
00000014,480,1,1439911766031,1439911766499,386,370,0,0,0,1,2,1,12,0001-00-0002-25.png,0002-00-0000-96.png
00000014,481,1,1439911767434,1439911768003,885,398,0,0,0,3,2,1,32,0003-00-0003-16.png,0002-00-0006-83.png
00000014,482,0,1439911768956,1439911769530,880,442,0,0,0,3,4,1,34,0003-00-0007-86.png,0004-00-0007-50.png
00000014,483,0,1439911772415,1439911772443,506,509,0,0,0,2,1,1,21,0002-00-0001-45.png,0001-00-0006-22.png
00000014,484,1,1439911776042,1439911776486,336,374,0,0,0,1,2,1,12,0001-00-0001-12.png,0002-00-0004-42.png
00000014,485,1,1439911777456,1439911777979,870,498,0,0,0,5,4,1,54,0005-00-0000-04.png,0004-00-0003-80.png
00000014,486,0,1439911778989,1439911779573,358,394,0,0,0,4,3,1,43,0004-00-0007-16.png,0003-00-0007-39.png
00000014,487,0,1439911782560,1439911783179,902,388,0,0,0,4,5,1,45,0004-00-0001-26.png,0005-00-0006-90.png
00000014,488,1,1439911786067,1439911786083,498,421,0,0,0,2,3,1,23,0002-00-0006-15.png,0003-00-0002-88.png
00000014,489,1,1439911787059,1439911787588,862,423,0,0,0,4,3,1,43,0004-00-0009-29.png,0003-00-0003-20.png
00000014,490,1,1439911788600,1439911789138,877,411,0,0,0,3,2,1,32,0003-00-0000-66.png,0002-00-0006-06.png
00000014,491,1,1439911790405,1439911790891,325,398,0,0,0,4,5,1,45,0004-00-0006-43.png,0005-00-0001-47.png
00000014,492,1,1439911791894,1439911792992,897,444,0,0,0,2,1,1,21,0002-00-0004-05.png,0001-00-0002-75.png
00000014,493,0,1439911793950,1439911794553,901,408,0,0,0,1,2,1,12,0001-00-0009-37.png,0002-00-0008-63.png
00000014,494,1,1439911797387,1439911797409,485,391,0,0,0,3,4,1,34,0003-00-0005-78.png,0004-00-0007-37.png
00000014,495,0,1439911798554,1439911799078,363,421,0,0,0,5,4,1,54,0005-00-0001-18.png,0004-00-0002-53.png
00000014,496,1,1439911802023,1439911802063,491,560,0,0,0,2,3,1,23,0002-00-0007-93.png,0003-00-0007-27.png
00000014,497,1,1439911803033,1439911803542,329,410,0,0,0,2,3,1,23,0002-00-0005-81.png,0003-00-0008-21.png
00000014,498,1,1439911804933,1439911805453,887,398,0,0,0,2,1,1,21,0002-00-0001-29.png,0001-00-0001-58.png
00000014,499,0,1439911806426,1439911807036,273,462,0,0,0,5,4,1,54,0005-00-0000-37.png,0004-00-0009-60.png
00000014,500,1,1439911810407,1439911810946,926,385,0,0,0,4,3,1,43,0004-00-0001-81.png,0003-00-0008-41.png
00000014,501,1,1439911811838,1439911812445,362,503,0,0,0,1,2,1,12,0001-00-0005-28.png,0002-00-0008-67.png
00000014,502,0,1439911813601,1439911814157,870,497,0,0,0,3,4,1,34,0003-00-0006-03.png,0004-00-0006-27.png
00000014,503,1,1439911817109,1439911817630,408,429,0,0,0,4,5,1,45,0004-00-0000-37.png,0005-00-0000-72.png
00000014,504,1,1439911818560,1439911819131,893,409,0,0,0,3,2,1,32,0003-00-0001-76.png,0002-00-0006-57.png
00000014,505,1,1439911820137,1439911820636,868,503,0,0,0,2,1,1,21,0002-00-0003-52.png,0001-00-0003-91.png
00000014,506,1,1439911821548,1439911822105,875,397,0,0,0,4,3,1,43,0004-00-0007-16.png,0003-00-0003-73.png
00000014,507,1,1439911823111,1439911823773,891,429,0,0,0,3,2,1,32,0003-00-0004-68.png,0002-00-0005-35.png
00000014,508,0,1439911824737,1439911825332,878,416,0,0,0,4,5,1,45,0004-00-0002-20.png,0005-00-0000-11.png
00000014,509,1,1439911828376,1439911828910,312,409,0,0,0,2,3,1,23,0002-00-0003-87.png,0003-00-0000-75.png
00000014,510,0,1439911829853,1439911830359,872,413,0,0,0,1,2,1,12,0001-00-0006-16.png,0002-00-0008-21.png
00000014,511,1,1439911833813,1439911834290,875,437,0,0,0,5,4,1,54,0005-00-0006-19.png,0004-00-0003-98.png
00000014,512,0,1439911835284,1439911835787,903,411,0,0,0,3,4,1,34,0003-00-0005-15.png,0004-00-0003-73.png
00000014,513,1,1439911838791,1439911839262,332,401,0,0,0,2,3,1,23,0002-00-0008-75.png,0003-00-0005-97.png
00000014,514,1,1439911840224,1439911840684,401,397,0,0,0,3,4,1,34,0003-00-0003-31.png,0004-00-0001-96.png
00000014,515,0,1439911841694,1439911841742,503,562,0,0,0,3,2,1,32,0003-00-0007-36.png,0002-00-0000-59.png
00000014,516,0,1439911844703,1439911844715,512,410,0,0,0,5,4,1,54,0005-00-0002-98.png,0004-00-0003-40.png
00000014,517,1,1439911847543,1439911848088,326,361,0,0,0,4,5,1,45,0004-00-0005-95.png,0005-00-0004-23.png
00000014,518,1,1439911849225,1439911849711,871,392,0,0,0,4,3,1,43,0004-00-0000-61.png,0003-00-0005-80.png
00000014,519,1,1439911850648,1439911851235,888,420,0,0,0,2,1,1,21,0002-00-0004-23.png,0001-00-0004-99.png
00000014,520,1,1439911852377,1439911852841,367,409,0,0,0,1,2,1,12,0001-00-0005-14.png,0002-00-0005-76.png
00000014,521,0,1439911853860,1439911854414,875,426,0,0,0,1,2,1,12,0001-00-0007-75.png,0002-00-0000-05.png
00000014,522,1,1439911857455,1439911857981,319,410,0,0,0,2,3,1,23,0002-00-0002-83.png,0003-00-0001-73.png
00000014,523,1,1439911859354,1439911859978,888,394,0,0,0,4,3,1,43,0004-00-0006-64.png,0003-00-0009-68.png
00000014,524,0,1439911861015,1439911861063,499,505,0,0,0,5,4,1,54,0005-00-0002-96.png,0004-00-0003-51.png
00000014,525,0,1439911864114,1439911864719,938,372,0,0,0,3,4,1,34,0003-00-0005-73.png,0004-00-0006-41.png
00000014,526,1,1439911867622,1439911868185,905,376,0,0,0,2,1,1,21,0002-00-0007-59.png,0001-00-0003-65.png
00000014,527,1,1439911869125,1439911869698,898,431,0,0,0,3,2,1,32,0003-00-0003-23.png,0002-00-0003-11.png
00000014,528,1,1439911870634,1439911871253,296,380,0,0,0,4,5,1,45,0004-00-0008-64.png,0005-00-0003-71.png
00000014,529,0,1439911872364,1439911873396,407,497,0,0,0,5,4,1,54,0005-00-0008-71.png,0004-00-0004-02.png
00000014,530,0,1439911876380,1439911876396,491,441,0,0,0,2,1,1,21,0002-00-0008-63.png,0001-00-0001-00.png
00000014,531,1,1439911879240,1439911879753,392,494,0,0,0,3,4,1,34,0003-00-0003-05.png,0004-00-0003-00.png
00000014,532,0,1439911880743,1439911881368,376,369,0,0,0,3,2,1,32,0003-00-0001-96.png,0002-00-0006-50.png
00000014,533,1,1439911884472,1439911885043,316,420,0,0,0,2,3,1,23,0002-00-0006-11.png,0003-00-0008-76.png
00000014,534,0,1439911886020,1439911886489,344,387,0,0,0,4,3,1,43,0004-00-0000-31.png,0003-00-0007-80.png
00000014,535,0,1439911889845,1439911890384,901,436,0,0,0,4,5,1,45,0004-00-0008-41.png,0005-00-0007-93.png
00000014,536,0,1439911893227,1439911893752,887,481,0,0,0,1,2,1,12,0001-00-0007-26.png,0002-00-0003-77.png
00000014,537,1,1439911897488,1439911897916,925,423,0,0,0,2,1,1,21,0002-00-0006-11.png,0001-00-0000-29.png
00000014,538,0,1439911898849,1439911899422,869,444,0,0,0,3,4,1,34,0003-00-0008-52.png,0004-00-0000-30.png
00000014,539,1,1439911902467,1439911903044,341,397,0,0,0,4,5,1,45,0004-00-0008-75.png,0005-00-0006-87.png
00000014,540,0,1439911904067,1439911904560,900,410,0,0,0,1,2,1,12,0001-00-0009-83.png,0002-00-0005-74.png
00000014,541,0,1439911907623,1439911908129,347,419,0,0,0,3,2,1,32,0003-00-0001-70.png,0002-00-0006-18.png
00000014,542,1,1439911911450,1439911911993,913,424,0,0,0,4,3,1,43,0004-00-0001-01.png,0003-00-0006-11.png
00000014,543,0,1439911912951,1439911913569,924,399,0,0,0,2,3,1,23,0002-00-0003-46.png,0003-00-0002-52.png
00000014,544,1,1439911916507,1439911917065,877,492,0,0,0,5,4,1,54,0005-00-0000-69.png,0004-00-0004-37.png
00000014,545,1,1439911917980,1439911918489,360,414,0,0,0,2,3,1,23,0002-00-0009-22.png,0003-00-0000-72.png
00000014,546,0,1439911919532,1439911920070,872,544,0,0,0,3,4,1,34,0003-00-0007-17.png,0004-00-0009-15.png
00000014,547,0,1439911923139,1439911923631,371,423,0,0,0,4,3,1,43,0004-00-0003-45.png,0003-00-0008-51.png
00000014,548,0,1439911926627,1439911926635,513,389,0,0,0,5,4,1,54,0005-00-0007-85.png,0004-00-0002-29.png
00000014,549,1,1439911929486,1439911929510,478,448,0,0,0,4,5,1,45,0004-00-0008-36.png,0005-00-0004-16.png
00000014,550,1,1439911930557,1439911931036,325,397,0,0,0,1,2,1,12,0001-00-0005-78.png,0002-00-0007-52.png
00000014,551,1,1439911931964,1439911932458,903,401,0,0,0,3,2,1,32,0003-00-0003-76.png,0002-00-0002-43.png
00000014,552,1,1439911933556,1439911934090,867,410,0,0,0,2,1,1,21,0002-00-0009-23.png,0001-00-0001-59.png
00000014,553,1,1439911935083,1439911935616,890,424,0,0,0,5,4,1,54,0005-00-0004-56.png,0004-00-0000-55.png
00000014,554,1,1439911936683,1439911937189,861,507,0,0,0,3,2,1,32,0003-00-0001-25.png,0002-00-0002-78.png
00000014,555,0,1439911938176,1439911938730,896,394,0,0,0,4,5,1,45,0004-00-0003-78.png,0005-00-0001-69.png
00000014,556,1,1439911941705,1439911942268,377,405,0,0,0,2,3,1,23,0002-00-0009-21.png,0003-00-0007-14.png
00000014,557,1,1439911943285,1439911943787,898,423,0,0,0,2,1,1,21,0002-00-0006-05.png,0001-00-0007-59.png
00000014,558,1,1439911944768,1439911945422,348,435,0,0,0,3,4,1,34,0003-00-0005-33.png,0004-00-0000-90.png
00000014,559,1,1439911946389,1439911946877,906,402,0,0,0,4,3,1,43,0004-00-0004-37.png,0003-00-0004-11.png
00000014,560,1,1439911947939,1439911948462,370,505,0,0,0,1,2,1,12,0001-00-0009-23.png,0002-00-0009-38.png
00000014,561,0,1439911949656,1439911950151,868,525,0,0,0,4,5,1,45,0004-00-0008-54.png,0005-00-0009-95.png
00000014,562,0,1439911953124,1439911953616,325,473,0,0,0,2,1,1,21,0002-00-0006-53.png,0001-00-0001-87.png
00000014,563,0,1439911956673,1439911957151,391,403,0,0,0,3,2,1,32,0003-00-0000-74.png,0002-00-0007-76.png
00000014,564,0,1439911960130,1439911960681,504,398,0,0,0,4,3,1,43,0004-00-0001-35.png,0003-00-0007-44.png
00000014,565,1,1439911963518,1439911963546,512,407,0,0,0,1,2,1,12,0001-00-0002-96.png,0002-00-0009-05.png
00000014,566,1,1439911964600,1439911965178,299,370,0,0,0,3,4,1,34,0003-00-0007-90.png,0004-00-0003-76.png
00000014,567,1,1439911966202,1439911966769,901,413,0,0,0,5,4,1,54,0005-00-0005-07.png,0004-00-0005-92.png
00000014,568,0,1439911967724,1439911968343,869,418,0,0,0,2,3,1,23,0002-00-0004-08.png,0003-00-0009-21.png
00000014,569,1,1439911971778,1439911972243,898,483,0,0,0,5,4,1,54,0005-00-0001-46.png,0004-00-0000-87.png
00000014,570,1,1439911973159,1439911973782,924,378,0,0,0,4,3,1,43,0004-00-0002-03.png,0003-00-0006-57.png
00000014,571,0,1439911974749,1439911975293,359,399,0,0,0,3,2,1,32,0003-00-0009-85.png,0002-00-0007-63.png
00000014,572,1,1439911978524,1439911979031,388,422,0,0,0,1,2,1,12,0001-00-0008-06.png,0002-00-0000-07.png
00000014,573,1,1439911979979,1439911980480,888,522,0,0,0,2,1,1,21,0002-00-0008-27.png,0001-00-0008-44.png
00000014,574,0,1439911981445,1439911982213,920,406,0,0,0,3,4,1,34,0003-00-0006-94.png,0004-00-0007-92.png
00000014,575,0,1439911985112,1439911985731,897,487,0,0,0,2,3,1,23,0002-00-0003-83.png,0003-00-0008-22.png
00000014,576,1,1439911988840,1439911989343,315,402,0,0,0,4,5,1,45,0004-00-0000-17.png,0005-00-0007-54.png
00000014,577,0,1439911990462,1439911991028,860,424,0,0,0,4,5,1,45,0004-00-0007-99.png,0005-00-0007-86.png
00000014,578,1,1439911993969,1439911994005,504,446,0,0,0,2,3,1,23,0002-00-0005-19.png,0003-00-0006-68.png
00000014,579,0,1439911995053,1439911995722,378,362,0,0,0,4,3,1,43,0004-00-0005-92.png,0003-00-0006-48.png
00000014,580,1,1439911998660,1439911999161,381,410,0,0,0,1,2,1,12,0001-00-0008-65.png,0002-00-0002-13.png
00000014,581,0,1439912000073,1439912000699,393,516,0,0,0,2,1,1,21,0002-00-0005-74.png,0001-00-0007-45.png
00000014,582,0,1439912003848,1439912004302,332,386,0,0,0,3,2,1,32,0003-00-0003-83.png,0002-00-0003-90.png
00000014,583,1,1439912007385,1439912007849,376,503,0,0,0,3,4,1,34,0003-00-0008-19.png,0004-00-0005-52.png
00000014,584,1,1439912008788,1439912009329,902,416,0,0,0,5,4,1,54,0005-00-0000-78.png,0004-00-0008-11.png
00000014,585,0,1439912010268,1439912010888,306,414,0,0,0,2,1,1,21,0002-00-0004-96.png,0001-00-0003-93.png
00000014,586,1,1439912013974,1439912014620,318,349,0,0,0,2,3,1,23,0002-00-0004-00.png,0003-00-0006-06.png
00000014,587,1,1439912015607,1439912016675,901,410,0,0,0,3,2,1,32,0003-00-0003-09.png,0002-00-0005-64.png
00000014,588,1,1439912017919,1439912018459,401,410,0,0,0,3,4,1,34,0003-00-0005-41.png,0004-00-0006-42.png
00000014,589,0,1439912019330,1439912019977,893,410,0,0,0,4,5,1,45,0004-00-0009-72.png,0005-00-0004-32.png
00000014,590,0,1439912023427,1439912023950,382,362,0,0,0,5,4,1,54,0005-00-0005-13.png,0004-00-0009-06.png
00000014,591,0,1439912026872,1439912027619,929,465,0,0,0,1,2,1,12,0001-00-0003-34.png,0002-00-0007-80.png
00000014,592,0,1439912030530,1439912031120,373,372,0,0,0,4,3,1,43,0004-00-0002-58.png,0003-00-0000-18.png
00000014,593,1,1439912036049,1439912036576,875,423,0,0,0,2,1,1,21,0002-00-0004-09.png,0001-00-0001-47.png
00000014,594,1,1439912037620,1439912038113,888,410,0,0,0,5,4,1,54,0005-00-0001-74.png,0004-00-0002-17.png
00000014,595,1,1439912039080,1439912039593,880,429,0,0,0,3,2,1,32,0003-00-0002-32.png,0002-00-0007-32.png
00000014,596,1,1439912040638,1439912041189,921,394,0,0,0,4,3,1,43,0004-00-0007-30.png,0003-00-0009-63.png
00000014,597,1,1439912042121,1439912042696,376,502,0,0,0,3,4,1,34,0003-00-0008-38.png,0004-00-0005-89.png
00000014,598,0,1439912043813,1439912044333,880,454,0,0,0,4,5,1,45,0004-00-0005-55.png,0005-00-0002-19.png
00000014,599,1,1439912047206,1439912047664,397,390,0,0,0,1,2,1,12,0001-00-0009-66.png,0002-00-0003-93.png
00000014,600,0,1439912048632,1439912049166,914,432,0,0,0,2,3,1,23,0002-00-0003-12.png,0003-00-0002-42.png
00000014,601,0,1439912052289,1439912052784,900,411,0,0,0,4,5,1,45,0004-00-0008-03.png,0005-00-0005-26.png
00000014,602,0,1439912055885,1439912056384,929,402,0,0,0,3,4,1,34,0003-00-0002-38.png,0004-00-0000-45.png
00000014,603,0,1439912060648,1439912061221,900,449,0,0,0,1,2,1,12,0001-00-0009-05.png,0002-00-0008-84.png
00000014,604,0,1439912065612,1439912066125,925,414,0,0,0,2,3,1,23,0002-00-0003-44.png,0003-00-0002-49.png
00000014,605,1,1439912069650,1439912070275,920,416,0,0,0,2,1,1,21,0002-00-0001-29.png,0001-00-0008-62.png
00000014,606,1,1439912071238,1439912071721,869,369,0,0,0,5,4,1,54,0005-00-0002-30.png,0004-00-0008-11.png
00000014,607,0,1439912073001,1439912073603,339,378,0,0,0,4,3,1,43,0004-00-0001-78.png,0003-00-0008-07.png
00000014,608,1,1439912076490,1439912077011,912,390,0,0,0,3,2,1,32,0003-00-0001-96.png,0002-00-0006-82.png
00000014,609,0,1439912077976,1439912078650,331,349,0,0,0,3,2,1,32,0003-00-0006-17.png,0002-00-0002-09.png
00000014,610,1,1439912081574,1439912082080,914,423,0,0,0,2,1,1,21,0002-00-0004-47.png,0001-00-0005-39.png
00000014,611,1,1439912083036,1439912083573,901,435,0,0,0,5,4,1,54,0005-00-0004-54.png,0004-00-0006-84.png
00000014,612,0,1439912084585,1439912085140,874,432,0,0,0,2,3,1,23,0002-00-0009-64.png,0003-00-0000-81.png
00000014,613,1,1439912088233,1439912088757,367,521,0,0,0,3,4,1,34,0003-00-0008-99.png,0004-00-0005-73.png
00000014,614,1,1439912089777,1439912090257,338,397,0,0,0,1,2,1,12,0001-00-0006-01.png,0002-00-0009-65.png
00000014,615,0,1439912091256,1439912091803,908,444,0,0,0,4,5,1,45,0004-00-0000-20.png,0005-00-0006-40.png
00000014,616,1,1439912094783,1439912095380,904,401,0,0,0,4,3,1,43,0004-00-0004-05.png,0003-00-0003-05.png
00000014,617,1,1439912096284,1439912096849,400,531,0,0,0,4,5,1,45,0004-00-0009-06.png,0005-00-0006-34.png
00000014,618,0,1439912098104,1439912098583,382,497,0,0,0,2,1,1,21,0002-00-0003-46.png,0001-00-0000-21.png
00000014,619,1,1439912101649,1439912102734,259,468,0,0,0,2,3,1,23,0002-00-0009-19.png,0003-00-0009-63.png
00000014,620,1,1439912103727,1439912104220,363,397,0,0,0,1,2,1,12,0001-00-0001-63.png,0002-00-0005-85.png
00000014,621,1,1439912105179,1439912105935,872,413,0,0,0,4,3,1,43,0004-00-0005-18.png,0003-00-0006-01.png
00000014,622,1,1439912107363,1439912107837,874,449,0,0,0,3,2,1,32,0003-00-0003-96.png,0002-00-0003-43.png
00000014,623,0,1439912108863,1439912109777,905,428,0,0,0,3,4,1,34,0003-00-0006-42.png,0004-00-0007-55.png
00000014,624,0,1439912113093,1439912113545,325,384,0,0,0,5,4,1,54,0005-00-0007-02.png,0004-00-0005-76.png
00000014,625,1,1439912116426,1439912116994,876,423,0,0,0,4,3,1,43,0004-00-0001-16.png,0003-00-0004-22.png
00000014,626,1,1439912117948,1439912117968,504,462,0,0,0,4,5,1,45,0004-00-0000-52.png,0005-00-0005-60.png
00000014,627,1,1439912119346,1439912119864,902,403,0,0,0,5,4,1,54,0005-00-0008-07.png,0004-00-0008-94.png
00000014,628,1,1439912120840,1439912121414,887,477,0,0,0,2,1,1,21,0002-00-0001-29.png,0001-00-0004-84.png
00000014,629,1,1439912122783,1439912123232,376,410,0,0,0,1,2,1,12,0001-00-0005-09.png,0002-00-0005-63.png
00000014,630,1,1439912124614,1439912125508,410,512,0,0,0,3,4,1,34,0003-00-0000-53.png,0004-00-0005-33.png
00000014,631,1,1439912126465,1439912126992,864,425,0,0,0,3,2,1,32,0003-00-0007-31.png,0002-00-0003-18.png
00000014,632,1,1439912127963,1439912128514,353,399,0,0,0,2,3,1,23,0002-00-0007-78.png,0003-00-0009-20.png
00000014,633,0,1439912129481,1439912130339,900,514,0,0,0,3,4,1,34,0003-00-0004-71.png,0004-00-0000-72.png
00000014,634,0,1439912133689,1439912134144,347,400,0,0,0,3,2,1,32,0003-00-0008-82.png,0002-00-0001-40.png
00000014,635,1,1439912137150,1439912137638,401,410,0,0,0,2,3,1,23,0002-00-0000-64.png,0003-00-0005-06.png
00000014,636,1,1439912138609,1439912139246,914,432,0,0,0,2,1,1,21,0002-00-0000-11.png,0001-00-0008-55.png
00000014,637,1,1439912140171,1439912140716,889,440,0,0,0,5,4,1,54,0005-00-0002-01.png,0004-00-0005-78.png
00000014,638,0,1439912141659,1439912142235,861,378,0,0,0,1,2,1,12,0001-00-0007-02.png,0002-00-0001-38.png
00000014,639,1,1439912145252,1439912145868,341,410,0,0,0,4,5,1,45,0004-00-0007-13.png,0005-00-0003-83.png
00000014,640,1,1439912146807,1439912147332,904,416,0,0,0,4,3,1,43,0004-00-0005-18.png,0003-00-0003-94.png
00000014,641,1,1439912148407,1439912148911,870,434,0,0,0,5,4,1,54,0005-00-0001-95.png,0004-00-0006-84.png
00000014,642,1,1439912149897,1439912150471,888,410,0,0,0,4,3,1,43,0004-00-0006-04.png,0003-00-0009-48.png
00000014,643,0,1439912151569,1439912152042,879,427,0,0,0,2,3,1,23,0002-00-0007-11.png,0003-00-0007-30.png
00000014,644,0,1439912154913,1439912155380,388,389,0,0,0,2,1,1,21,0002-00-0004-76.png,0001-00-0000-84.png
00000014,645,1,1439912158303,1439912158323,500,465,0,0,0,3,4,1,34,0003-00-0009-97.png,0004-00-0000-31.png
00000014,646,0,1439912159290,1439912159909,350,397,0,0,0,3,2,1,32,0003-00-0001-51.png,0002-00-0000-97.png
00000014,647,1,1439912162944,1439912163454,368,427,0,0,0,4,5,1,45,0004-00-0002-02.png,0005-00-0005-79.png
00000014,648,1,1439912164477,1439912165043,389,397,0,0,0,1,2,1,12,0001-00-0004-82.png,0002-00-0002-13.png
00000014,649,1,1439912166025,1439912166591,865,437,0,0,0,4,3,1,43,0004-00-0008-26.png,0003-00-0008-68.png
00000014,650,0,1439912167677,1439912168326,899,410,0,0,0,1,2,1,12,0001-00-0003-80.png,0002-00-0005-09.png
00000014,651,0,1439912171325,1439912171822,887,371,0,0,0,2,3,1,23,0002-00-0004-47.png,0003-00-0007-90.png
00000014,652,1,1439912174699,1439912175277,339,341,0,0,0,4,5,1,45,0004-00-0004-69.png,0005-00-0003-98.png
00000014,653,0,1439912176394,1439912176880,376,422,0,0,0,5,4,1,54,0005-00-0008-61.png,0004-00-0002-25.png
00000014,654,0,1439912179727,1439912179771,502,516,0,0,0,2,1,1,21,0002-00-0003-34.png,0001-00-0009-99.png
00000014,655,0,1439912182931,1439912183512,887,450,0,0,0,3,4,1,34,0003-00-0002-74.png,0004-00-0001-67.png
00000014,656,1,1439912186560,1439912187082,900,397,0,0,0,3,2,1,32,0003-00-0000-32.png,0002-00-0009-37.png
00000014,657,1,1439912188090,1439912188664,372,400,0,0,0,1,2,1,12,0001-00-0003-34.png,0002-00-0002-69.png
00000014,658,1,1439912189693,1439912190203,917,435,0,0,0,3,2,1,32,0003-00-0005-86.png,0002-00-0000-14.png
00000014,659,1,1439912191172,1439912191745,324,413,0,0,0,2,3,1,23,0002-00-0007-42.png,0003-00-0003-17.png
00000014,660,0,1439912192728,1439912193440,342,401,0,0,0,5,4,1,54,0005-00-0007-22.png,0004-00-0008-63.png
00000014,661,1,1439912196302,1439912196807,388,502,0,0,0,4,5,1,45,0004-00-0001-81.png,0005-00-0007-00.png
00000014,662,0,1439912197779,1439912197819,518,541,0,0,0,4,3,1,43,0004-00-0003-38.png,0003-00-0005-59.png
00000014,663,1,1439912200813,1439912201457,907,448,0,0,0,2,1,1,21,0002-00-0009-58.png,0001-00-0006-05.png
00000014,664,1,1439912202363,1439912202991,331,422,0,0,0,3,4,1,34,0003-00-0003-51.png,0004-00-0002-13.png
00000014,665,0,1439912204042,1439912204666,323,438,0,0,0,5,4,1,54,0005-00-0009-80.png,0004-00-0005-82.png
00000014,666,1,1439912208095,1439912208573,875,437,0,0,0,3,2,1,32,0003-00-0002-13.png,0002-00-0002-74.png
00000014,667,1,1439912209538,1439912210072,315,410,0,0,0,4,5,1,45,0004-00-0003-98.png,0005-00-0000-63.png
00000014,668,1,1439912211107,1439912211765,886,484,0,0,0,2,1,1,21,0002-00-0001-49.png,0001-00-0007-99.png
00000014,669,0,1439912212729,1439912213284,891,440,0,0,0,2,3,1,23,0002-00-0005-83.png,0003-00-0008-57.png
00000014,670,1,1439912216671,1439912217113,924,431,0,0,0,4,3,1,43,0004-00-0009-46.png,0003-00-0005-73.png
00000014,671,0,1439912218195,1439912218679,878,433,0,0,0,1,2,1,12,0001-00-0007-23.png,0002-00-0006-77.png
00000014,672,1,1439912221947,1439912222524,304,383,0,0,0,3,4,1,34,0003-00-0004-95.png,0004-00-0008-15.png
00000014,673,1,1439912223491,1439912224038,879,425,0,0,0,2,1,1,21,0002-00-0000-73.png,0001-00-0007-09.png
00000014,674,0,1439912225415,1439912225918,897,422,0,0,0,1,2,1,12,0001-00-0004-16.png,0002-00-0005-00.png
00000014,675,1,1439912228938,1439912229454,296,396,0,0,0,3,4,1,34,0003-00-0006-98.png,0004-00-0004-83.png
00000014,676,0,1439912230843,1439912231450,354,354,0,0,0,4,3,1,43,0004-00-0006-36.png,0003-00-0003-04.png
00000014,677,0,1439912234491,1439912235020,385,418,0,0,0,3,2,1,32,0003-00-0002-83.png,0002-00-0007-56.png
00000014,678,1,1439912238428,1439912238963,354,427,0,0,0,4,5,1,45,0004-00-0003-46.png,0005-00-0004-45.png
00000014,679,0,1439912239977,1439912240605,931,416,0,0,0,2,3,1,23,0002-00-0007-25.png,0003-00-0006-77.png
00000014,680,1,1439912243644,1439912244198,923,431,0,0,0,5,4,1,54,0005-00-0000-59.png,0004-00-0003-56.png
00000014,681,1,1439912245085,1439912245622,369,406,0,0,0,2,3,1,23,0002-00-0003-89.png,0003-00-0008-57.png
00000014,682,1,1439912246964,1439912247483,891,438,0,0,0,2,1,1,21,0002-00-0004-95.png,0001-00-0001-06.png
00000014,683,1,1439912248486,1439912249003,312,410,0,0,0,1,2,1,12,0001-00-0005-28.png,0002-00-0007-02.png
00000014,684,1,1439912249997,1439912250527,376,436,0,0,0,4,5,1,45,0004-00-0006-39.png,0005-00-0007-02.png
00000014,685,0,1439912251952,1439912252529,415,554,0,0,0,5,4,1,54,0005-00-0004-11.png,0004-00-0007-19.png
00000014,686,1,1439912255542,1439912255586,512,541,0,0,0,3,4,1,34,0003-00-0009-54.png,0004-00-0002-66.png
00000014,687,0,1439912256576,1439912257105,324,410,0,0,0,3,2,1,32,0003-00-0008-31.png,0002-00-0005-64.png
00000014,688,1,1439912260796,1439912261302,899,438,0,0,0,4,3,1,43,0004-00-0001-34.png,0003-00-0001-27.png
00000014,689,1,1439912262157,1439912262720,928,439,0,0,0,2,1,1,21,0002-00-0001-48.png,0001-00-0009-54.png
00000014,690,0,1439912263654,1439912264170,353,430,0,0,0,4,3,1,43,0004-00-0007-63.png,0003-00-0006-48.png
00000014,691,0,1439912267029,1439912267527,870,472,0,0,0,4,5,1,45,0004-00-0004-12.png,0005-00-0009-03.png
00000014,692,1,1439912270576,1439912271087,875,450,0,0,0,3,2,1,32,0003-00-0008-07.png,0002-00-0003-44.png
00000014,693,0,1439912272060,1439912272641,949,405,0,0,0,3,4,1,34,0003-00-0003-01.png,0004-00-0009-15.png
00000014,694,0,1439912275833,1439912276315,901,444,0,0,0,1,2,1,12,0001-00-0006-07.png,0002-00-0008-26.png
00000014,695,1,1439912279241,1439912280048,389,371,0,0,0,2,3,1,23,0002-00-0007-34.png,0003-00-0009-16.png
00000014,696,0,1439912281082,1439912281568,329,403,0,0,0,5,4,1,54,0005-00-0005-55.png,0004-00-0000-94.png
00000014,697,0,1439912284959,1439912285460,348,405,0,0,0,4,3,1,43,0004-00-0003-23.png,0003-00-0008-10.png
00000014,698,0,1439912288309,1439912288879,891,398,0,0,0,4,5,1,45,0004-00-0000-88.png,0005-00-0009-93.png
00000014,699,0,1439912291916,1439912292420,330,411,0,0,0,5,4,1,54,0005-00-0006-67.png,0004-00-0001-68.png
00000014,700,1,1439912295313,1439912295852,914,398,0,0,0,2,1,1,21,0002-00-0000-96.png,0001-00-0005-41.png
00000014,701,0,1439912296786,1439912297908,900,528,0,0,0,3,4,1,34,0003-00-0008-50.png,0004-00-0007-75.png
00000014,702,0,1439912300818,1439912301426,902,389,0,0,0,1,2,1,12,0001-00-0003-85.png,0002-00-0002-71.png
00000014,703,1,1439912304265,1439912304868,926,385,0,0,0,3,2,1,32,0003-00-0006-34.png,0002-00-0003-09.png
00000014,704,1,1439912306126,1439912306608,340,401,0,0,0,2,3,1,23,0002-00-0004-48.png,0003-00-0006-46.png
00000014,705,1,1439912307615,1439912308078,345,407,0,0,0,4,5,1,45,0004-00-0002-82.png,0005-00-0009-90.png
00000014,706,0,1439912309158,1439912309767,879,401,0,0,0,2,3,1,23,0002-00-0003-34.png,0003-00-0004-08.png
00000014,707,0,1439912312688,1439912313229,331,399,0,0,0,4,3,1,43,0004-00-0009-24.png,0003-00-0006-79.png
00000014,708,0,1439912316168,1439912316761,913,397,0,0,0,3,4,1,34,0003-00-0003-78.png,0004-00-0004-21.png
00000014,709,1,1439912319669,1439912319693,488,418,0,0,0,1,2,1,12,0001-00-0004-86.png,0002-00-0007-91.png
00000014,710,1,1439912320751,1439912321261,875,519,0,0,0,5,4,1,54,0005-00-0002-85.png,0004-00-0007-93.png
00000014,711,1,1439912322295,1439912322943,911,392,0,0,0,3,2,1,32,0003-00-0007-14.png,0002-00-0009-32.png
00000014,712,0,1439912323920,1439912324522,371,411,0,0,0,2,1,1,21,0002-00-0006-63.png,0001-00-0006-26.png
00000014,713,1,1439912327359,1439912327934,880,444,0,0,0,4,3,1,43,0004-00-0006-47.png,0003-00-0002-53.png
00000014,714,0,1439912328868,1439912329411,410,393,0,0,0,2,1,1,21,0002-00-0007-94.png,0001-00-0008-47.png
00000014,715,1,1439912332502,1439912333057,897,410,0,0,0,3,2,1,32,0003-00-0008-92.png,0002-00-0001-77.png
00000014,716,0,1439912334075,1439912334636,874,411,0,0,0,4,5,1,45,0004-00-0005-54.png,0005-00-0000-96.png
00000014,717,1,1439912337677,1439912338281,355,400,0,0,0,1,2,1,12,0001-00-0001-85.png,0002-00-0004-76.png
00000014,718,0,1439912339251,1439912339815,904,418,0,0,0,2,3,1,23,0002-00-0006-46.png,0003-00-0001-65.png
00000014,719,0,1439912342965,1439912343001,478,500,0,0,0,5,4,1,54,0005-00-0009-38.png,0004-00-0001-66.png
00000014,720,1,1439912345998,1439912346018,518,465,0,0,0,3,4,1,34,0003-00-0005-34.png,0004-00-0002-36.png
00000014,721,1,1439912347262,1439912347784,888,423,0,0,0,2,1,1,21,0002-00-0007-24.png,0001-00-0001-62.png
00000014,722,1,1439912348772,1439912349285,328,380,0,0,0,3,4,1,34,0003-00-0006-32.png,0004-00-0002-34.png
00000014,723,0,1439912350340,1439912350945,273,488,0,0,0,5,4,1,54,0005-00-0003-51.png,0004-00-0000-72.png
00000014,724,0,1439912353883,1439912354429,398,393,0,0,0,4,3,1,43,0004-00-0008-05.png,0003-00-0003-79.png
00000014,725,0,1439912357420,1439912358069,905,427,0,0,0,2,3,1,23,0002-00-0009-00.png,0003-00-0005-90.png
00000014,726,0,1439912360903,1439912361476,320,383,0,0,0,3,2,1,32,0003-00-0009-38.png,0002-00-0004-58.png
00000014,727,1,1439912364411,1439912364491,520,551,0,0,0,1,2,1,12,0001-00-0000-11.png,0002-00-0006-94.png
00000014,728,0,1439912365893,1439912366384,888,425,0,0,0,4,5,1,45,0004-00-0008-72.png,0005-00-0003-38.png
00000014,729,0,1439912369485,1439912370010,409,537,0,0,0,5,4,1,54,0005-00-0005-68.png,0004-00-0007-80.png
00000014,730,0,1439912373091,1439912373715,898,462,0,0,0,1,2,1,12,0001-00-0009-79.png,0002-00-0009-03.png
00000014,731,1,1439912376728,1439912376744,521,428,0,0,0,2,3,1,23,0002-00-0005-00.png,0003-00-0000-41.png
00000014,732,0,1439912377750,1439912378273,905,428,0,0,0,4,5,1,45,0004-00-0007-40.png,0005-00-0005-87.png
00000014,733,1,1439912381339,1439912381929,907,418,0,0,0,2,1,1,21,0002-00-0004-20.png,0001-00-0006-10.png
00000014,734,1,1439912382932,1439912383556,905,415,0,0,0,4,3,1,43,0004-00-0005-36.png,0003-00-0001-29.png
00000014,735,1,1439912384502,1439912385009,901,434,0,0,0,3,2,1,32,0003-00-0000-45.png,0002-00-0008-02.png
00000014,736,0,1439912386092,1439912386609,858,419,0,0,0,3,4,1,34,0003-00-0001-66.png,0004-00-0001-67.png
00000014,737,1,1439912389487,1439912389967,384,386,0,0,0,3,4,1,34,0003-00-0001-64.png,0004-00-0004-01.png
00000014,738,1,1439912391001,1439912391450,320,391,0,0,0,1,2,1,12,0001-00-0002-47.png,0002-00-0005-55.png
00000014,739,1,1439912392827,1439912393302,877,439,0,0,0,2,1,1,21,0002-00-0003-65.png,0001-00-0007-31.png
00000014,740,1,1439912394284,1439912394776,924,411,0,0,0,4,3,1,43,0004-00-0001-21.png,0003-00-0008-67.png
00000014,741,1,1439912395648,1439912396281,350,423,0,0,0,4,5,1,45,0004-00-0003-02.png,0005-00-0006-30.png
00000014,742,0,1439912397192,1439912397765,345,420,0,0,0,5,4,1,54,0005-00-0004-51.png,0004-00-0009-75.png
00000014,743,1,1439912400881,1439912401441,874,488,0,0,0,3,2,1,32,0003-00-0002-62.png,0002-00-0008-24.png
00000014,744,0,1439912402382,1439912402874,873,430,0,0,0,2,3,1,23,0002-00-0002-96.png,0003-00-0008-19.png
00000014,745,0,1439912405767,1439912406242,376,384,0,0,0,2,1,1,21,0002-00-0005-33.png,0001-00-0007-01.png
00000014,746,0,1439912409339,1439912409920,901,410,0,0,0,1,2,1,12,0001-00-0006-99.png,0002-00-0009-81.png
00000014,747,1,1439912412924,1439912413509,921,407,0,0,0,5,4,1,54,0005-00-0000-00.png,0004-00-0005-90.png
00000014,748,1,1439912414393,1439912414425,511,443,0,0,0,4,5,1,45,0004-00-0003-10.png,0005-00-0009-01.png
00000014,749,0,1439912415534,1439912416083,384,491,0,0,0,3,2,1,32,0003-00-0002-32.png,0002-00-0003-15.png
00000014,750,1,1439912418922,1439912419428,356,397,0,0,0,2,3,1,23,0002-00-0009-67.png,0003-00-0009-28.png
00000014,751,1,1439912420397,1439912420991,362,410,0,0,0,3,4,1,34,0003-00-0001-95.png,0004-00-0001-05.png
00000014,752,1,1439912421978,1439912422476,919,430,0,0,0,4,3,1,43,0004-00-0007-63.png,0003-00-0002-56.png
00000014,753,1,1439912423411,1439912424022,354,448,0,0,0,4,5,1,45,0004-00-0006-41.png,0005-00-0004-83.png
00000014,754,1,1439912424929,1439912425503,872,440,0,0,0,2,1,1,21,0002-00-0002-67.png,0001-00-0003-45.png
00000014,755,1,1439912426748,1439912427285,416,545,0,0,0,1,2,1,12,0001-00-0005-63.png,0002-00-0006-91.png
00000014,756,1,1439912428299,1439912428786,393,504,0,0,0,2,3,1,23,0002-00-0003-94.png,0003-00-0004-01.png
00000014,757,1,1439912429831,1439912430370,877,443,0,0,0,5,4,1,54,0005-00-0009-94.png,0004-00-0006-21.png
00000014,758,1,1439912431311,1439912431863,873,455,0,0,0,3,2,1,32,0003-00-0002-53.png,0002-00-0004-53.png
00000014,759,1,1439912433264,1439912433710,351,417,0,0,0,3,4,1,34,0003-00-0005-45.png,0004-00-0008-15.png
00000014,760,1,1439912435067,1439912435683,879,402,0,0,0,4,3,1,43,0004-00-0000-87.png,0003-00-0009-83.png
00000014,761,0,1439912437052,1439912437672,900,428,0,0,0,1,2,1,12,0001-00-0006-03.png,0002-00-0003-44.png
00000014,762,0,1439912440611,1439912441335,900,488,0,0,0,2,3,1,23,0002-00-0003-68.png,0003-00-0002-72.png
00000014,763,1,1439912444316,1439912444957,905,402,0,0,0,3,2,1,32,0003-00-0000-29.png,0002-00-0005-47.png
00000014,764,0,1439912445912,1439912446383,401,424,0,0,0,5,4,1,54,0005-00-0004-06.png,0004-00-0005-53.png
00000014,765,1,1439912449224,1439912449320,519,533,0,0,0,3,4,1,34,0003-00-0003-92.png,0004-00-0005-84.png
00000014,766,1,1439912450713,1439912451244,372,389,0,0,0,4,5,1,45,0004-00-0002-87.png,0005-00-0007-71.png
00000014,767,0,1439912452222,1439912452733,336,383,0,0,0,2,1,1,21,0002-00-0005-93.png,0001-00-0002-78.png
00000014,768,1,1439912455727,1439912456233,887,450,0,0,0,4,3,1,43,0004-00-0002-49.png,0003-00-0008-99.png
00000014,769,1,1439912457107,1439912457650,874,505,0,0,0,3,2,1,32,0003-00-0008-63.png,0002-00-0006-37.png
00000014,770,0,1439912459034,1439912459593,887,450,0,0,0,2,3,1,23,0002-00-0002-53.png,0003-00-0000-82.png
00000014,771,0,1439912462504,1439912463089,917,413,0,0,0,4,5,1,45,0004-00-0002-61.png,0005-00-0000-49.png
00000014,772,0,1439912466151,1439912466642,371,537,0,0,0,4,3,1,43,0004-00-0001-61.png,0003-00-0002-10.png
00000014,773,1,1439912469613,1439912470265,930,365,0,0,0,5,4,1,54,0005-00-0004-48.png,0004-00-0004-07.png
00000014,774,0,1439912471192,1439912471797,364,424,0,0,0,2,1,1,21,0002-00-0004-79.png,0001-00-0000-09.png
00000014,775,1,1439912474877,1439912475439,379,409,0,0,0,3,4,1,34,0003-00-0002-20.png,0004-00-0007-64.png
00000014,776,1,1439912476359,1439912476960,384,535,0,0,0,1,2,1,12,0001-00-0009-95.png,0002-00-0006-45.png
00000014,777,1,1439912478309,1439912478864,864,465,0,0,0,3,2,1,32,0003-00-0006-08.png,0002-00-0000-98.png
00000014,778,1,1439912479820,1439912480361,358,402,0,0,0,1,2,1,12,0001-00-0009-79.png,0002-00-0003-93.png
00000014,779,0,1439912481716,1439912482313,921,421,0,0,0,2,3,1,23,0002-00-0009-30.png,0003-00-0001-11.png
00000014,780,1,1439912485255,1439912485275,520,426,0,0,0,3,4,1,34,0003-00-0003-76.png,0004-00-0003-94.png
00000014,781,0,1439912486271,1439912486812,348,443,0,0,0,2,1,1,21,0002-00-0005-35.png,0001-00-0005-77.png
00000014,782,0,1439912489745,1439912489789,504,451,0,0,0,5,4,1,54,0005-00-0002-72.png,0004-00-0005-32.png
00000014,783,0,1439912492734,1439912493256,376,487,0,0,0,4,3,1,43,0004-00-0009-35.png,0003-00-0009-51.png
00000014,784,1,1439912496153,1439912496660,382,395,0,0,0,4,5,1,45,0004-00-0003-30.png,0005-00-0000-41.png
00000014,785,0,1439912497639,1439912498231,418,546,0,0,0,5,4,1,54,0005-00-0004-50.png,0004-00-0002-28.png
00000014,786,1,1439912501075,1439912501648,921,442,0,0,0,4,3,1,43,0004-00-0008-27.png,0003-00-0003-56.png
00000014,787,0,1439912502526,1439912503090,345,426,0,0,0,2,1,1,21,0002-00-0006-57.png,0001-00-0000-32.png
00000014,788,1,1439912505952,1439912505980,486,446,0,0,0,2,3,1,23,0002-00-0000-83.png,0003-00-0008-16.png
00000014,789,0,1439912506998,1439912507454,900,411,0,0,0,4,5,1,45,0004-00-0002-23.png,0005-00-0006-80.png
00000014,790,0,1439912510486,1439912511149,886,399,0,0,0,3,4,1,34,0003-00-0005-74.png,0004-00-0002-60.png
00000014,791,0,1439912514070,1439912514619,370,539,0,0,0,3,2,1,32,0003-00-0007-47.png,0002-00-0005-42.png
00000014,792,1,1439912517453,1439912517465,511,394,0,0,0,1,2,1,12,0001-00-0003-61.png,0002-00-0000-14.png
00000014,793,1,1439912518439,1439912518914,869,524,0,0,0,5,4,1,54,0005-00-0008-14.png,0004-00-0009-27.png
00000014,794,0,1439912519879,1439912520441,876,408,0,0,0,2,3,1,23,0002-00-0005-29.png,0003-00-0000-19.png
00000014,795,1,1439912523517,1439912524035,898,429,0,0,0,2,1,1,21,0002-00-0002-67.png,0001-00-0000-12.png
00000014,796,1,1439912524921,1439912525465,350,410,0,0,0,4,5,1,45,0004-00-0006-63.png,0005-00-0003-97.png
00000014,797,0,1439912526398,1439912526959,879,427,0,0,0,3,4,1,34,0003-00-0007-52.png,0004-00-0008-31.png
00000014,798,1,1439912529955,1439912530431,334,398,0,0,0,1,2,1,12,0001-00-0000-61.png,0002-00-0009-80.png
00000014,799,0,1439912531314,1439912532004,274,461,0,0,0,3,2,1,32,0003-00-0008-87.png,0002-00-0009-02.png
00000014,800,0,1439912534875,1439912535354,370,488,0,0,0,4,3,1,43,0004-00-0003-86.png,0003-00-0006-98.png
00000014,801,0,1439912538334,1439912538374,515,504,0,0,0,4,3,1,43,0004-00-0000-54.png,0003-00-0005-48.png
00000014,802,1,1439912541282,1439912541832,887,418,0,0,0,5,4,1,54,0005-00-0009-89.png,0004-00-0003-66.png
00000014,803,1,1439912542736,1439912543283,359,444,0,0,0,1,2,1,12,0001-00-0006-25.png,0002-00-0001-22.png
00000014,804,0,1439912544242,1439912544780,901,436,0,0,0,2,3,1,23,0002-00-0008-38.png,0003-00-0008-09.png
00000014,805,1,1439912552805,1439912553325,879,428,0,0,0,3,2,1,32,0003-00-0008-56.png,0002-00-0003-77.png
00000014,806,1,1439912554258,1439912554278,504,446,0,0,0,3,4,1,34,0003-00-0001-34.png,0004-00-0002-80.png
00000014,807,1,1439912555300,1439912556343,893,537,0,0,0,2,1,1,21,0002-00-0002-07.png,0001-00-0009-56.png
00000014,808,1,1439912557260,1439912557268,521,462,0,0,0,4,5,1,45,0004-00-0004-55.png,0005-00-0003-18.png
00000014,809,0,1439912558273,1439912558824,338,445,0,0,0,3,2,1,32,0003-00-0003-72.png,0002-00-0006-24.png
00000014,810,0,1439912562041,1439912562503,310,390,0,0,0,4,3,1,43,0004-00-0007-42.png,0003-00-0007-52.png
00000014,811,1,1439912566555,1439912567138,876,520,0,0,0,5,4,1,54,0005-00-0005-65.png,0004-00-0000-93.png
00000014,812,0,1439912568002,1439912568042,514,488,0,0,0,2,1,1,21,0002-00-0002-25.png,0001-00-0004-93.png
00000014,813,1,1439912570873,1439912570885,510,472,0,0,0,1,2,1,12,0001-00-0003-36.png,0002-00-0008-14.png
00000014,814,0,1439912572295,1439912572770,884,451,0,0,0,2,3,1,23,0002-00-0008-81.png,0003-00-0005-19.png
00000014,815,0,1439912575824,1439912576413,941,429,0,0,0,3,4,1,34,0003-00-0002-43.png,0004-00-0008-71.png
00000014,816,0,1439912579421,1439912579928,902,415,0,0,0,4,5,1,45,0004-00-0001-50.png,0005-00-0003-23.png
00000014,817,1,1439912582929,1439912583421,326,413,0,0,0,2,3,1,23,0002-00-0003-99.png,0003-00-0009-83.png
00000014,818,1,1439912584403,1439912584917,326,382,0,0,0,3,4,1,34,0003-00-0000-95.png,0004-00-0006-97.png
00000014,819,1,1439912586141,1439912587213,886,424,0,0,0,3,2,1,32,0003-00-0004-85.png,0002-00-0002-31.png
00000014,820,0,1439912588210,1439912588651,343,416,0,0,0,5,4,1,54,0005-00-0002-22.png,0004-00-0004-12.png
00000014,821,0,1439912591523,1439912592002,337,397,0,0,0,4,3,1,43,0004-00-0003-65.png,0003-00-0008-84.png
00000014,822,1,1439912595194,1439912595656,365,401,0,0,0,1,2,1,12,0001-00-0001-84.png,0002-00-0004-31.png
00000014,823,0,1439912596595,1439912597130,864,501,0,0,0,4,5,1,45,0004-00-0007-33.png,0005-00-0002-28.png
00000014,824,1,1439912600208,1439912600740,915,398,0,0,0,2,1,1,21,0002-00-0007-06.png,0001-00-0008-41.png
00000014,825,0,1439912601624,1439912602173,877,522,0,0,0,1,2,1,12,0001-00-0001-38.png,0002-00-0000-84.png
00000014,826,1,1439912605211,1439912605735,401,423,0,0,0,3,4,1,34,0003-00-0003-60.png,0004-00-0005-15.png
00000014,827,1,1439912606703,1439912607227,888,424,0,0,0,4,3,1,43,0004-00-0004-27.png,0003-00-0003-21.png
00000014,828,0,1439912608090,1439912608633,875,449,0,0,0,4,5,1,45,0004-00-0004-55.png,0005-00-0005-07.png
00000014,829,0,1439912611524,1439912612059,911,398,0,0,0,2,3,1,23,0002-00-0009-25.png,0003-00-0009-95.png
00000014,830,1,1439912614909,1439912615585,918,368,0,0,0,2,1,1,21,0002-00-0000-82.png,0001-00-0005-52.png
00000014,831,1,1439912616887,1439912617401,862,421,0,0,0,3,2,1,32,0003-00-0001-75.png,0002-00-0002-18.png
00000014,832,1,1439912618706,1439912619238,900,423,0,0,0,5,4,1,54,0005-00-0004-72.png,0004-00-0003-04.png
00000014,833,1,1439912620157,1439912620699,879,427,0,0,0,5,4,1,54,0005-00-0001-79.png,0004-00-0001-10.png
00000014,834,0,1439912621729,1439912621741,481,488,0,0,0,2,1,1,21,0002-00-0005-86.png,0001-00-0002-13.png
00000014,835,0,1439912625098,1439912625580,401,384,0,0,0,4,3,1,43,0004-00-0009-08.png,0003-00-0001-14.png
00000014,836,1,1439912628421,1439912628949,389,488,0,0,0,2,3,1,23,0002-00-0001-11.png,0003-00-0004-74.png
00000014,837,0,1439912630462,1439912630980,878,428,0,0,0,3,4,1,34,0003-00-0002-53.png,0004-00-0008-08.png
00000014,838,1,1439912633960,1439912634004,510,499,0,0,0,1,2,1,12,0001-00-0002-77.png,0002-00-0009-25.png
00000014,839,1,1439912634927,1439912635458,248,488,0,0,0,4,5,1,45,0004-00-0005-81.png,0005-00-0003-86.png
00000014,840,0,1439912636754,1439912637668,427,397,0,0,0,3,2,1,32,0003-00-0000-90.png,0002-00-0007-69.png
00000014,841,1,1439912640738,1439912641358,890,396,0,0,0,2,1,1,21,0002-00-0007-86.png,0001-00-0003-06.png
00000014,842,0,1439912642224,1439912642753,356,410,0,0,0,3,2,1,32,0003-00-0004-23.png,0002-00-0009-26.png
00000014,843,1,1439912645645,1439912646283,888,398,0,0,0,4,3,1,43,0004-00-0002-32.png,0003-00-0003-38.png
00000014,844,1,1439912647140,1439912648054,453,384,0,0,0,4,5,1,45,0004-00-0007-33.png,0005-00-0004-93.png
00000014,845,1,1439912649053,1439912649619,899,388,0,0,0,5,4,1,54,0005-00-0001-34.png,0004-00-0004-43.png
00000014,846,1,1439912650518,1439912650530,514,498,0,0,0,2,3,1,23,0002-00-0003-51.png,0003-00-0009-10.png
00000014,847,0,1439912651588,1439912652149,869,421,0,0,0,3,4,1,34,0003-00-0006-93.png,0004-00-0006-29.png
00000014,848,1,1439912655230,1439912656180,213,500,0,0,0,1,2,1,12,0001-00-0004-94.png,0002-00-0006-43.png
00000014,849,0,1439912657107,1439912658090,363,418,0,0,0,5,4,1,54,0005-00-0002-46.png,0004-00-0007-77.png
00000014,850,1,1439912661319,1439912661845,877,416,0,0,0,4,3,1,43,0004-00-0005-08.png,0003-00-0007-41.png
00000014,851,1,1439912662695,1439912662767,518,488,0,0,0,4,5,1,45,0004-00-0006-70.png,0005-00-0001-25.png
00000014,852,1,1439912664132,1439912664792,338,368,0,0,0,2,3,1,23,0002-00-0007-20.png,0003-00-0007-11.png
00000014,853,0,1439912665715,1439912666281,368,417,0,0,0,3,2,1,32,0003-00-0007-89.png,0002-00-0001-04.png
00000014,854,1,1439912669269,1439912669795,377,440,0,0,0,3,4,1,34,0003-00-0006-81.png,0004-00-0005-22.png
00000014,855,0,1439912670695,1439912670711,478,505,0,0,0,2,1,1,21,0002-00-0006-99.png,0001-00-0007-71.png
00000014,856,1,1439912674325,1439912674791,299,462,0,0,0,1,2,1,12,0001-00-0005-90.png,0002-00-0005-41.png
00000014,857,0,1439912676045,1439912676633,374,366,0,0,0,5,4,1,54,0005-00-0007-01.png,0004-00-0009-69.png
00000014,858,1,1439912679623,1439912680082,332,399,0,0,0,1,2,1,12,0001-00-0007-69.png,0002-00-0004-58.png
00000014,859,1,1439912681020,1439912681044,516,507,0,0,0,4,5,1,45,0004-00-0006-25.png,0005-00-0002-76.png
00000014,860,0,1439912682121,1439912682609,376,449,0,0,0,3,2,1,32,0003-00-0002-16.png,0002-00-0006-78.png
00000014,861,1,1439912685505,1439912686071,901,434,0,0,0,2,1,1,21,0002-00-0001-25.png,0001-00-0004-00.png
00000014,862,0,1439912687477,1439912688533,861,406,0,0,0,3,4,1,34,0003-00-0009-98.png,0004-00-0002-86.png
00000014,863,0,1439912691571,1439912692100,325,398,0,0,0,4,3,1,43,0004-00-0009-60.png,0003-00-0004-48.png
00000014,864,1,1439912695576,1439912696154,343,399,0,0,0,2,3,1,23,0002-00-0006-71.png,0003-00-0000-42.png
00000014,865,0,1439912697001,1439912697571,315,402,0,0,0,3,2,1,32,0003-00-0005-71.png,0002-00-0004-78.png
00000014,866,0,1439912700772,1439912701266,862,398,0,0,0,3,4,1,34,0003-00-0002-10.png,0004-00-0003-20.png
00000014,867,0,1439912704261,1439912704301,523,504,0,0,0,4,3,1,43,0004-00-0005-95.png,0003-00-0000-80.png
00000014,868,0,1439912707242,1439912707933,910,399,0,0,0,4,5,1,45,0004-00-0004-08.png,0005-00-0008-74.png
00000014,869,1,1439912710949,1439912711533,925,413,0,0,0,5,4,1,54,0005-00-0007-62.png,0004-00-0005-47.png
00000014,870,1,1439912712523,1439912713086,325,398,0,0,0,1,2,1,12,0001-00-0008-25.png,0002-00-0004-64.png
00000014,871,1,1439912714036,1439912714527,376,423,0,0,0,2,3,1,23,0002-00-0003-45.png,0003-00-0002-63.png
00000014,872,1,1439912715443,1439912716023,875,435,0,0,0,2,1,1,21,0002-00-0001-91.png,0001-00-0001-28.png
00000014,873,0,1439912717004,1439912717504,860,440,0,0,0,3,4,1,34,0003-00-0008-76.png,0004-00-0008-24.png
00000014,874,1,1439912720622,1439912721173,898,438,0,0,0,3,2,1,32,0003-00-0003-36.png,0002-00-0007-78.png
00000014,875,1,1439912722390,1439912722943,362,499,0,0,0,4,5,1,45,0004-00-0003-89.png,0005-00-0001-56.png
00000014,876,0,1439912723895,1439912724395,351,399,0,0,0,5,4,1,54,0005-00-0008-03.png,0004-00-0001-72.png
00000014,877,0,1439912727565,1439912728082,901,424,0,0,0,1,2,1,12,0001-00-0006-15.png,0002-00-0000-89.png
00000014,878,1,1439912731452,1439912731962,886,451,0,0,0,2,1,1,21,0002-00-0006-17.png,0001-00-0007-33.png
00000014,879,0,1439912732813,1439912733348,880,402,0,0,0,2,3,1,23,0002-00-0008-53.png,0003-00-0001-84.png
00000014,880,0,1439912736230,1439912736242,470,451,0,0,0,4,3,1,43,0004-00-0002-61.png,0003-00-0001-16.png
00000014,881,1,1439912739455,1439912740442,896,427,0,0,0,4,3,1,43,0004-00-0009-56.png,0003-00-0000-21.png
00000014,882,0,1439912741361,1439912741891,887,424,0,0,0,2,3,1,23,0002-00-0004-38.png,0003-00-0005-15.png
00000014,883,0,1439912745057,1439912745576,900,489,0,0,0,4,5,1,45,0004-00-0005-23.png,0005-00-0007-29.png
00000014,884,1,1439912748635,1439912749165,366,503,0,0,0,3,4,1,34,0003-00-0009-16.png,0004-00-0004-66.png
00000014,885,1,1439912750151,1439912750715,896,394,0,0,0,3,2,1,32,0003-00-0001-69.png,0002-00-0000-61.png
00000014,886,1,1439912751626,1439912752196,874,424,0,0,0,5,4,1,54,0005-00-0009-22.png,0004-00-0007-06.png
00000014,887,1,1439912753198,1439912753615,878,454,0,0,0,2,1,1,21,0002-00-0000-76.png,0001-00-0001-54.png
00000014,888,1,1439912754934,1439912755388,368,426,0,0,0,1,2,1,12,0001-00-0008-78.png,0002-00-0004-92.png
00000014,889,1,1439912756785,1439912757367,368,399,0,0,0,3,4,1,34,0003-00-0000-27.png,0004-00-0003-98.png
00000014,890,0,1439912758425,1439912758960,899,436,0,0,0,2,3,1,23,0002-00-0000-51.png,0003-00-0007-75.png
00000014,891,1,1439912762045,1439912762650,905,376,0,0,0,5,4,1,54,0005-00-0008-32.png,0004-00-0006-91.png
00000014,892,0,1439912763596,1439912764153,862,462,0,0,0,4,5,1,45,0004-00-0006-93.png,0005-00-0004-47.png
00000014,893,0,1439912767140,1439912767778,917,384,0,0,0,1,2,1,12,0001-00-0001-71.png,0002-00-0000-16.png
00000014,894,0,1439912770809,1439912771426,418,416,0,0,0,3,2,1,32,0003-00-0004-89.png,0002-00-0005-51.png
00000014,895,1,1439912774336,1439912775029,898,493,0,0,0,4,3,1,43,0004-00-0002-64.png,0003-00-0002-34.png
00000014,896,1,1439912775907,1439912776477,877,410,0,0,0,2,1,1,21,0002-00-0002-63.png,0001-00-0002-67.png
00000014,897,0,1439912777389,1439912777417,495,508,0,0,0,4,3,1,43,0004-00-0007-50.png,0003-00-0004-16.png
00000014,898,0,1439912780409,1439912780907,376,397,0,0,0,5,4,1,54,0005-00-0000-94.png,0004-00-0007-02.png
00000014,899,0,1439912784365,1439912784899,905,401,0,0,0,3,4,1,34,0003-00-0000-00.png,0004-00-0008-96.png
00000014,900,1,1439912787821,1439912787841,516,470,0,0,0,1,2,1,12,0001-00-0002-88.png,0002-00-0002-37.png
00000014,901,0,1439912788779,1439912789382,865,422,0,0,0,2,3,1,23,0002-00-0003-89.png,0003-00-0009-87.png
00000014,902,1,1439912792294,1439912792852,888,398,0,0,0,2,1,1,21,0002-00-0008-13.png,0001-00-0000-91.png
00000014,903,1,1439912793746,1439912794280,885,399,0,0,0,3,2,1,32,0003-00-0001-86.png,0002-00-0004-15.png
00000014,904,1,1439912795237,1439912795784,338,423,0,0,0,4,5,1,45,0004-00-0002-42.png,0005-00-0006-82.png
00000014,905,1,1439912796777,1439912797274,340,437,0,0,0,1,2,1,12,0001-00-0006-44.png,0002-00-0007-71.png
00000014,906,0,1439912798441,1439912799538,897,438,0,0,0,4,5,1,45,0004-00-0001-83.png,0005-00-0006-50.png
00000014,907,1,1439912802491,1439912803062,914,410,0,0,0,3,2,1,32,0003-00-0001-04.png,0002-00-0008-07.png
00000014,908,1,1439912803929,1439912804477,299,398,0,0,0,3,4,1,34,0003-00-0002-78.png,0004-00-0001-96.png
00000014,909,0,1439912805388,1439912805392,513,507,0,0,0,2,1,1,21,0002-00-0003-39.png,0001-00-0007-86.png
00000014,910,1,1439912808296,1439912808802,336,377,0,0,0,2,3,1,23,0002-00-0000-08.png,0003-00-0005-34.png
00000014,911,1,1439912809724,1439912810673,927,424,0,0,0,4,3,1,43,0004-00-0005-78.png,0003-00-0005-61.png
00000014,912,1,1439912811534,1439912812196,876,424,0,0,0,5,4,1,54,0005-00-0005-59.png,0004-00-0001-66.png
00000014,913,1,1439912813173,1439912813765,406,410,0,0,0,3,4,1,34,0003-00-0008-74.png,0004-00-0008-55.png
00000014,914,1,1439912814821,1439912815351,902,417,0,0,0,2,1,1,21,0002-00-0008-48.png,0001-00-0001-12.png
00000014,915,1,1439912816276,1439912816908,883,437,0,0,0,3,2,1,32,0003-00-0007-13.png,0002-00-0008-99.png
00000014,916,1,1439912817907,1439912818462,900,411,0,0,0,4,3,1,43,0004-00-0002-16.png,0003-00-0008-54.png
00000014,917,1,1439912819475,1439912820010,859,529,0,0,0,5,4,1,54,0005-00-0005-80.png,0004-00-0000-14.png
00000014,918,1,1439912821486,1439912822137,347,398,0,0,0,4,5,1,45,0004-00-0005-49.png,0005-00-0003-95.png
00000014,919,1,1439912823081,1439912823574,337,420,0,0,0,1,2,1,12,0001-00-0000-74.png,0002-00-0009-07.png
00000014,920,1,1439912825184,1439912825654,327,391,0,0,0,2,3,1,23,0002-00-0003-10.png,0003-00-0006-34.png
00000014,921,1,1439912826711,1439912827250,874,437,0,0,0,4,3,1,43,0004-00-0004-84.png,0003-00-0000-80.png
00000014,922,1,1439912828332,1439912828846,892,430,0,0,0,2,1,1,21,0002-00-0007-72.png,0001-00-0007-52.png
00000014,923,0,1439912830142,1439912831237,901,442,0,0,0,2,3,1,23,0002-00-0008-04.png,0003-00-0009-50.png
00000014,924,0,1439912834279,1439912834847,897,439,0,0,0,1,2,1,12,0001-00-0004-69.png,0002-00-0004-72.png
00000014,925,1,1439912837839,1439912838349,326,406,0,0,0,4,5,1,45,0004-00-0009-18.png,0005-00-0008-17.png
00000014,926,0,1439912839241,1439912839273,504,479,0,0,0,5,4,1,54,0005-00-0007-14.png,0004-00-0001-72.png
00000014,927,1,1439912842122,1439912842612,369,388,0,0,0,3,4,1,34,0003-00-0005-46.png,0004-00-0006-04.png
00000014,928,0,1439912843539,1439912844036,376,384,0,0,0,3,2,1,32,0003-00-0006-76.png,0002-00-0003-52.png
00000014,929,0,1439912847033,1439912847052,468,488,0,0,0,3,2,1,32,0003-00-0001-69.png,0002-00-0008-66.png
00000014,930,0,1439912850134,1439912851285,963,419,0,0,0,2,3,1,23,0002-00-0007-16.png,0003-00-0007-95.png
00000014,931,0,1439912854217,1439912854844,350,423,0,0,0,5,4,1,54,0005-00-0000-01.png,0004-00-0009-22.png
00000014,932,1,1439912857767,1439912858548,873,484,0,0,0,2,1,1,21,0002-00-0004-86.png,0001-00-0002-78.png
00000014,933,1,1439912859414,1439912860012,373,413,0,0,0,4,5,1,45,0004-00-0001-01.png,0005-00-0008-82.png
00000014,934,1,1439912860889,1439912861403,900,423,0,0,0,4,3,1,43,0004-00-0009-08.png,0003-00-0003-90.png
00000014,935,0,1439912862277,1439912862828,879,454,0,0,0,3,4,1,34,0003-00-0007-32.png,0004-00-0001-60.png
00000014,936,1,1439912865715,1439912866173,367,403,0,0,0,1,2,1,12,0001-00-0008-65.png,0002-00-0003-49.png
00000014,937,1,1439912867527,1439912867981,392,407,0,0,0,4,5,1,45,0004-00-0007-99.png,0005-00-0006-49.png
00000014,938,0,1439912868893,1439912869457,401,501,0,0,0,2,1,1,21,0002-00-0006-03.png,0001-00-0000-11.png
00000014,939,0,1439912872468,1439912873079,917,404,0,0,0,1,2,1,12,0001-00-0008-51.png,0002-00-0000-76.png
00000014,940,1,1439912876062,1439912876697,930,401,0,0,0,3,2,1,32,0003-00-0004-62.png,0002-00-0002-49.png
00000014,941,1,1439912877583,1439912878105,899,424,0,0,0,4,3,1,43,0004-00-0003-74.png,0003-00-0008-77.png
00000014,942,0,1439912879456,1439912879983,862,450,0,0,0,3,4,1,34,0003-00-0006-86.png,0004-00-0005-63.png
