subject_id,trial,correct_response,stim_time,response_time,x_coord,y_coord,trial_timeout,timeout_time,interTrial_timeout,left_rank,right_rank,distance,joint_rank,left_image,right_image
00000009,1,1,1441380768695,1441380769054,1070,256,0,0,0,2,1,1,21,0002-00-0007-52.png,0001-00-0008-35.png
00000009,2,0,1441380770537,1441380770777,996,339,0,0,0,3,4,1,34,0003-00-0003-85.png,0004-00-0003-02.png
00000009,3,1,1441380774257,1441380774321,888,358,0,0,0,5,4,1,54,0005-00-0007-82.png,0004-00-0001-08.png
00000009,4,0,1441380775305,1441380775373,888,384,0,0,0,1,2,1,12,0001-00-0007-65.png,0002-00-0001-91.png
00000009,5,1,1441380778565,1441380779084,913,333,0,0,0,3,2,1,32,0003-00-0003-76.png,0002-00-0008-85.png
00000009,6,0,1441380780811,1441380781371,867,383,0,0,0,2,3,1,23,0002-00-0007-10.png,0003-00-0000-27.png
00000009,7,1,1441380784497,1441380785061,976,328,0,0,0,4,3,1,43,0004-00-0004-88.png,0003-00-0001-68.png
00000009,8,0,1441380785993,1441380787215,883,392,0,0,0,4,5,1,45,0004-00-0002-36.png,0005-00-0008-22.png
00000009,9,1,1441380790477,1441380791091,360,264,0,0,0,1,2,1,12,0001-00-0004-06.png,0002-00-0004-59.png
00000009,10,1,1441380791997,1441380792045,917,464,0,0,0,3,2,1,32,0003-00-0001-39.png,0002-00-0006-54.png
00000009,11,0,1441380793078,1441380793118,886,442,0,0,0,4,5,1,45,0004-00-0008-42.png,0005-00-0009-90.png
00000009,12,1,1441380796086,1441380796639,1067,279,0,0,0,4,3,1,43,0004-00-0008-67.png,0003-00-0007-18.png
00000009,13,1,1441380798387,1441380798954,1047,303,0,0,0,5,4,1,54,0005-00-0007-90.png,0004-00-0006-19.png
00000009,14,1,1441380799806,1441380800892,1068,289,0,0,0,2,1,1,21,0002-00-0004-47.png,0001-00-0003-89.png
00000009,15,0,1441380802450,1441380802522,897,429,0,0,0,2,3,1,23,0002-00-0004-64.png,0003-00-0006-58.png
00000009,16,0,1441380805671,1441380805798,923,279,0,0,0,3,4,1,34,0003-00-0005-35.png,0004-00-0009-80.png
00000009,17,1,1441380809101,1441380809599,891,328,0,0,0,2,1,1,21,0002-00-0008-77.png,0001-00-0005-02.png
00000009,18,0,1441380811037,1441380811152,946,390,0,0,0,3,4,1,34,0003-00-0004-72.png,0004-00-0009-50.png
00000009,19,1,1441380814138,1441380814969,888,374,0,0,0,5,4,1,54,0005-00-0006-02.png,0004-00-0003-97.png
00000009,20,1,1441380816280,1441380816364,930,393,0,0,0,3,2,1,32,0003-00-0003-22.png,0002-00-0007-50.png
00000009,21,1,1441380817503,1441380817572,879,444,0,0,0,4,3,1,43,0004-00-0007-92.png,0003-00-0006-42.png
00000009,22,0,1441380818756,1441380818796,897,392,0,0,0,4,5,1,45,0004-00-0006-30.png,0005-00-0005-34.png
00000009,23,1,1441380821965,1441380822503,325,342,0,0,0,2,3,1,23,0002-00-0008-07.png,0003-00-0009-98.png
00000009,24,1,1441380824133,1441380824812,437,281,0,0,0,1,2,1,12,0001-00-0005-02.png,0002-00-0004-34.png
00000009,25,1,1441380826758,1441380827319,964,376,0,0,0,5,4,1,54,0005-00-0009-98.png,0004-00-0009-08.png
00000009,26,0,1441380828717,1441380829003,888,445,0,0,0,1,2,1,12,0001-00-0007-85.png,0002-00-0002-76.png
00000009,27,0,1441380831995,1441380832550,915,410,0,0,0,3,4,1,34,0003-00-0001-99.png,0004-00-0007-66.png
00000009,28,0,1441380835711,1441380836336,360,399,0,0,0,4,3,1,43,0004-00-0001-66.png,0003-00-0002-98.png
00000009,29,1,1441380839517,1441380840003,1092,319,0,0,0,3,2,1,32,0003-00-0008-55.png,0002-00-0002-44.png
00000009,30,1,1441380841541,1441380841669,939,373,0,0,0,2,1,1,21,0002-00-0009-56.png,0001-00-0005-07.png
00000009,31,0,1441380842755,1441380842863,862,448,0,0,0,2,3,1,23,0002-00-0005-84.png,0003-00-0003-85.png
00000009,32,0,1441380846175,1441380846770,1096,306,0,0,0,4,5,1,45,0004-00-0002-60.png,0005-00-0004-55.png
00000009,33,1,1441380849902,1441380849922,880,367,0,0,0,5,4,1,54,0005-00-0006-10.png,0004-00-0008-86.png
00000009,34,0,1441380850743,1441380851240,878,475,0,0,0,1,2,1,12,0001-00-0000-84.png,0002-00-0008-81.png
00000009,35,1,1441380854080,1441380854702,436,283,0,0,0,2,3,1,23,0002-00-0004-57.png,0003-00-0003-34.png
00000009,36,1,1441380856354,1441380856418,899,358,0,0,0,2,1,1,21,0002-00-0008-31.png,0001-00-0000-75.png
00000009,37,1,1441380857669,1441380857743,888,410,0,0,0,3,2,1,32,0003-00-0007-18.png,0002-00-0005-23.png
00000009,38,0,1441380858744,1441380858792,862,384,0,0,0,3,4,1,34,0003-00-0007-74.png,0004-00-0005-31.png
00000009,39,0,1441380862092,1441380862734,913,302,0,0,0,4,5,1,45,0004-00-0006-07.png,0005-00-0004-79.png
00000009,40,1,1441380865809,1441380866462,936,325,0,0,0,4,3,1,43,0004-00-0001-93.png,0003-00-0009-29.png
00000009,41,1,1441380867916,1441380868024,939,367,0,0,0,3,2,1,32,0003-00-0009-73.png,0002-00-0009-68.png
00000009,42,1,1441380868981,1441380870105,369,382,0,0,0,2,3,1,23,0002-00-0006-57.png,0003-00-0003-04.png
00000009,43,1,1441380870932,1441380871930,888,384,0,0,0,2,1,1,21,0002-00-0004-18.png,0001-00-0003-17.png
00000009,44,0,1441380873292,1441380873360,892,395,0,0,0,1,2,1,12,0001-00-0000-98.png,0002-00-0003-86.png
00000009,45,0,1441380876424,1441380877088,941,339,0,0,0,3,4,1,34,0003-00-0006-05.png,0004-00-0004-04.png
00000009,46,1,1441380879937,1441380880524,356,418,0,0,0,4,5,1,45,0004-00-0009-83.png,0005-00-0006-57.png
00000009,47,1,1441380881957,1441380882041,913,358,0,0,0,4,3,1,43,0004-00-0008-97.png,0003-00-0009-32.png
00000009,48,1,1441380882948,1441380883716,939,541,0,0,0,5,4,1,54,0005-00-0004-66.png,0004-00-0000-94.png
00000009,49,0,1441380884776,1441380885086,862,452,0,0,0,2,3,1,23,0002-00-0002-26.png,0003-00-0001-90.png
00000009,50,1,1441380888592,1441380888700,888,288,0,0,0,5,4,1,54,0005-00-0007-03.png,0004-00-0009-58.png
00000009,51,0,1441380889597,1441380890628,420,270,0,0,0,3,2,1,32,0003-00-0005-87.png,0002-00-0009-99.png
00000009,52,1,1441380893592,1441380894239,441,276,0,0,0,1,2,1,12,0001-00-0005-67.png,0002-00-0000-06.png
00000009,53,1,1441380895677,1441380895828,939,348,0,0,0,4,3,1,43,0004-00-0005-28.png,0003-00-0009-52.png
00000009,54,0,1441380896780,1441380897337,878,496,0,0,0,4,5,1,45,0004-00-0008-62.png,0005-00-0005-72.png
00000009,55,0,1441380900251,1441380900303,905,448,0,0,0,3,4,1,34,0003-00-0004-47.png,0004-00-0004-29.png
00000009,56,1,1441380903392,1441380903889,943,348,0,0,0,2,1,1,21,0002-00-0005-78.png,0001-00-0006-09.png
00000009,57,1,1441380905873,1441380905917,934,338,0,0,0,2,1,1,21,0002-00-0001-46.png,0001-00-0008-59.png
00000009,58,1,1441380907324,1441380908181,370,410,0,0,0,4,5,1,45,0004-00-0005-28.png,0005-00-0003-11.png
00000009,59,0,1441380909603,1441380910405,920,320,0,0,0,3,4,1,34,0003-00-0000-46.png,0004-00-0008-80.png
00000009,60,0,1441380913921,1441380914422,427,302,0,0,0,4,3,1,43,0004-00-0006-08.png,0003-00-0005-46.png
00000009,61,1,1441380917610,1441380918172,908,357,0,0,0,3,2,1,32,0003-00-0004-40.png,0002-00-0006-14.png
00000009,62,0,1441380919647,1441380919890,931,391,0,0,0,2,3,1,23,0002-00-0004-69.png,0003-00-0006-77.png
00000009,63,1,1441380922720,1441380923425,940,330,0,0,0,5,4,1,54,0005-00-0003-89.png,0004-00-0001-31.png
00000009,64,0,1441380924875,1441380925001,904,384,0,0,0,1,2,1,12,0001-00-0008-71.png,0002-00-0004-96.png
00000009,65,1,1441380928075,1441380928599,958,351,0,0,0,2,1,1,21,0002-00-0009-28.png,0001-00-0000-96.png
00000009,66,0,1441380930040,1441380930433,984,402,0,0,0,1,2,1,12,0001-00-0008-55.png,0002-00-0008-93.png
00000009,67,0,1441380933541,1441380933569,883,356,0,0,0,3,4,1,34,0003-00-0006-44.png,0004-00-0007-60.png
00000009,68,1,1441380936691,1441380936715,913,332,0,0,0,4,3,1,43,0004-00-0009-24.png,0003-00-0008-35.png
00000009,69,1,1441380937550,1441380938876,312,401,0,0,0,2,3,1,23,0002-00-0006-34.png,0003-00-0009-40.png
00000009,70,1,1441380939760,1441380939829,869,427,0,0,0,3,2,1,32,0003-00-0004-04.png,0002-00-0009-68.png
00000009,71,0,1441380940915,1441380941948,338,417,0,0,0,5,4,1,54,0005-00-0007-78.png,0004-00-0001-23.png
00000009,72,1,1441380945073,1441380945700,373,389,0,0,0,4,5,1,45,0004-00-0006-64.png,0005-00-0009-18.png
00000009,73,0,1441380947163,1441380947250,923,358,0,0,0,2,3,1,23,0002-00-0003-33.png,0003-00-0000-77.png
00000009,74,1,1441380950569,1441380951195,353,400,0,0,0,1,2,1,12,0001-00-0001-44.png,0002-00-0008-76.png
00000009,75,1,1441380952586,1441380952685,937,371,0,0,0,5,4,1,54,0005-00-0009-73.png,0004-00-0001-60.png
00000009,76,1,1441380953657,1441380954514,928,530,0,0,0,3,2,1,32,0003-00-0003-60.png,0002-00-0002-89.png
00000009,77,0,1441380955720,1441380955784,896,437,0,0,0,4,5,1,45,0004-00-0007-57.png,0005-00-0006-29.png
00000009,78,1,1441380959149,1441380959781,1068,303,0,0,0,4,3,1,43,0004-00-0000-82.png,0003-00-0002-10.png
00000009,79,0,1441380961136,1441380961204,922,358,0,0,0,3,4,1,34,0003-00-0007-43.png,0004-00-0001-71.png
00000009,80,1,1441380964354,1441380964919,939,332,0,0,0,2,1,1,21,0002-00-0009-89.png,0001-00-0003-97.png
00000009,81,0,1441380966153,1441380966221,898,384,0,0,0,2,3,1,23,0002-00-0005-79.png,0003-00-0004-12.png
00000009,82,1,1441380969397,1441380969946,441,283,0,0,0,1,2,1,12,0001-00-0003-26.png,0002-00-0001-91.png
00000009,83,0,1441380971249,1441380971321,913,410,0,0,0,3,4,1,34,0003-00-0005-27.png,0004-00-0001-27.png
00000009,84,0,1441380974474,1441380975093,913,398,0,0,0,4,5,1,45,0004-00-0009-62.png,0005-00-0009-57.png
00000009,85,0,1441380978203,1441380978771,432,303,0,0,0,4,3,1,43,0004-00-0009-65.png,0003-00-0005-85.png
00000009,86,1,1441380981862,1441380982499,964,397,0,0,0,3,2,1,32,0003-00-0003-25.png,0002-00-0002-97.png
00000009,87,1,1441380984021,1441380984105,941,370,0,0,0,5,4,1,54,0005-00-0001-49.png,0004-00-0005-67.png
00000009,88,1,1441380985213,1441380985293,888,436,0,0,0,2,1,1,21,0002-00-0003-92.png,0001-00-0001-61.png
00000009,89,0,1441380986401,1441380986453,882,419,0,0,0,1,2,1,12,0001-00-0001-46.png,0002-00-0009-64.png
00000009,90,0,1441380989564,1441380990207,423,292,0,0,0,4,3,1,43,0004-00-0006-10.png,0003-00-0004-81.png
00000009,91,1,1441380993390,1441380994169,1042,306,0,0,0,5,4,1,54,0005-00-0002-28.png,0004-00-0000-78.png
00000009,92,0,1441380995588,1441380995672,913,358,0,0,0,2,3,1,23,0002-00-0002-39.png,0003-00-0002-69.png
00000009,93,0,1441380998807,1441380999559,931,334,0,0,0,4,5,1,45,0004-00-0005-96.png,0005-00-0002-68.png
00000009,94,0,1441381002682,1441381003337,912,347,0,0,0,3,4,1,34,0003-00-0005-05.png,0004-00-0004-71.png
00000009,95,1,1441381006459,1441381006575,979,256,0,0,0,2,1,1,21,0002-00-0004-34.png,0001-00-0003-27.png
00000009,96,1,1441381008158,1441381008185,884,335,0,0,0,3,2,1,32,0003-00-0007-80.png,0002-00-0008-32.png
00000009,97,1,1441381009271,1441381010328,350,408,0,0,0,1,2,1,12,0001-00-0004-72.png,0002-00-0000-72.png
00000009,98,0,1441381011846,1441381011871,876,367,0,0,0,2,3,1,23,0002-00-0005-47.png,0003-00-0002-51.png
00000009,99,1,1441381014757,1441381015635,330,345,0,0,0,4,5,1,45,0004-00-0003-28.png,0005-00-0005-54.png
00000009,100,1,1441381017058,1441381017130,888,371,0,0,0,3,2,1,32,0003-00-0004-24.png,0002-00-0004-71.png
00000009,101,0,1441381018164,1441381019298,444,289,0,0,0,4,3,1,43,0004-00-0002-83.png,0003-00-0004-00.png
00000009,102,0,1441381022517,1441381022777,973,313,0,0,0,3,4,1,34,0003-00-0009-17.png,0004-00-0002-95.png
00000009,103,1,1441381025817,1441381026357,914,330,0,0,0,2,1,1,21,0002-00-0007-65.png,0001-00-0007-76.png
00000009,104,1,1441381027783,1441381027844,922,358,0,0,0,5,4,1,54,0005-00-0008-58.png,0004-00-0004-25.png
00000009,105,0,1441381028894,1441381030187,898,383,0,0,0,1,2,1,12,0001-00-0006-25.png,0002-00-0004-86.png
00000009,106,1,1441381033312,1441381033849,916,325,0,0,0,2,1,1,21,0002-00-0001-30.png,0001-00-0001-57.png
00000009,107,1,1441381035258,1441381035364,913,373,0,0,0,4,3,1,43,0004-00-0006-45.png,0003-00-0006-22.png
00000009,108,0,1441381036459,1441381036527,888,423,0,0,0,2,3,1,23,0002-00-0009-41.png,0003-00-0009-84.png
00000009,109,0,1441381039631,1441381039679,963,319,0,0,0,4,5,1,45,0004-00-0009-16.png,0005-00-0001-79.png
00000009,110,1,1441381042832,1441381043389,913,336,0,0,0,3,2,1,32,0003-00-0007-33.png,0002-00-0006-65.png
00000009,111,1,1441381044898,1441381044938,912,340,0,0,0,5,4,1,54,0005-00-0008-22.png,0004-00-0002-97.png
00000009,112,0,1441381045916,1441381046276,904,470,0,0,0,3,4,1,34,0003-00-0004-47.png,0004-00-0000-52.png
00000009,113,1,1441381049336,1441381049360,885,372,0,0,0,2,1,1,21,0002-00-0002-26.png,0001-00-0005-19.png
00000009,114,0,1441381050193,1441381050316,873,462,0,0,0,3,4,1,34,0003-00-0006-85.png,0004-00-0001-97.png
00000009,115,1,1441381053531,1441381054097,917,357,0,0,0,5,4,1,54,0005-00-0000-05.png,0004-00-0004-72.png
00000009,116,0,1441381055470,1441381055667,963,374,0,0,0,4,5,1,45,0004-00-0002-47.png,0005-00-0002-15.png
00000009,117,1,1441381058750,1441381059471,1064,275,0,0,0,3,2,1,32,0003-00-0007-94.png,0002-00-0001-44.png
00000009,118,1,1441381060707,1441381060787,923,384,0,0,0,4,3,1,43,0004-00-0005-63.png,0003-00-0007-71.png
00000009,119,0,1441381061761,1441381061829,872,455,0,0,0,1,2,1,12,0001-00-0008-22.png,0002-00-0007-85.png
00000009,120,1,1441381064950,1441381065613,344,378,0,0,0,2,3,1,23,0002-00-0002-86.png,0003-00-0004-34.png
00000009,121,1,1441381066996,1441381067044,922,375,0,0,0,4,3,1,43,0004-00-0005-08.png,0003-00-0002-67.png
00000009,122,1,1441381068180,1441381068248,906,417,0,0,0,5,4,1,54,0005-00-0002-36.png,0004-00-0004-81.png
00000009,123,0,1441381069420,1441381069468,896,410,0,0,0,2,3,1,23,0002-00-0003-60.png,0003-00-0005-70.png
00000009,124,1,1441381072582,1441381072606,900,352,0,0,0,2,1,1,21,0002-00-0002-81.png,0001-00-0007-71.png
00000009,125,0,1441381073474,1441381073574,888,424,0,0,0,3,4,1,34,0003-00-0003-55.png,0004-00-0006-48.png
00000009,126,1,1441381076593,1441381077254,450,245,0,0,0,4,5,1,45,0004-00-0000-89.png,0005-00-0004-75.png
00000009,127,1,1441381078613,1441381078669,913,346,0,0,0,3,2,1,32,0003-00-0009-45.png,0002-00-0007-56.png
00000009,128,1,1441381079752,1441381080879,408,322,0,0,0,1,2,1,12,0001-00-0002-61.png,0002-00-0005-11.png
00000009,129,0,1441381081831,1441381081895,876,442,0,0,0,2,3,1,23,0002-00-0002-39.png,0003-00-0004-85.png
00000009,130,0,1441381085061,1441381085597,912,353,0,0,0,1,2,1,12,0001-00-0006-82.png,0002-00-0006-07.png
00000009,131,1,1441381088578,1441381089154,438,285,0,0,0,4,5,1,45,0004-00-0006-10.png,0005-00-0001-98.png
00000009,132,1,1441381090527,1441381090635,963,355,0,0,0,2,1,1,21,0002-00-0006-19.png,0001-00-0000-75.png
00000009,133,1,1441381091526,1441381091594,888,424,0,0,0,5,4,1,54,0005-00-0003-57.png,0004-00-0005-75.png
00000009,134,1,1441381092773,1441381092821,888,418,0,0,0,4,3,1,43,0004-00-0009-41.png,0003-00-0004-70.png
00000009,135,1,1441381093994,1441381094042,862,359,0,0,0,3,2,1,32,0003-00-0004-59.png,0002-00-0001-16.png
00000009,136,0,1441381095374,1441381095398,867,390,0,0,0,3,4,1,34,0003-00-0003-27.png,0004-00-0007-48.png
00000009,137,1,1441381098627,1441381099287,453,265,0,0,0,4,5,1,45,0004-00-0009-73.png,0005-00-0005-51.png
00000009,138,1,1441381100653,1441381100701,894,351,0,0,0,5,4,1,54,0005-00-0002-12.png,0004-00-0004-29.png
00000009,139,0,1441381101742,1441381101782,862,419,0,0,0,1,2,1,12,0001-00-0005-09.png,0002-00-0005-96.png
00000009,140,1,1441381104636,1441381105798,936,345,0,0,0,4,3,1,43,0004-00-0003-15.png,0003-00-0001-90.png
00000009,141,1,1441381107172,1441381107220,926,362,0,0,0,2,1,1,21,0002-00-0009-69.png,0001-00-0003-12.png
00000009,142,0,1441381108256,1441381108332,913,448,0,0,0,3,4,1,34,0003-00-0008-45.png,0004-00-0007-91.png
00000009,143,0,1441381111348,1441381111931,425,276,0,0,0,3,2,1,32,0003-00-0004-48.png,0002-00-0005-70.png
00000009,144,1,1441381115043,1441381116023,428,272,0,0,0,2,3,1,23,0002-00-0007-96.png,0003-00-0004-56.png
00000009,145,0,1441381116865,1441381117988,1067,262,0,0,0,2,3,1,23,0002-00-0001-07.png,0003-00-0002-80.png
00000009,146,0,1441381120812,1441381121448,424,332,0,0,0,2,1,1,21,0002-00-0003-83.png,0001-00-0004-33.png
00000009,147,1,1441381124563,1441381125237,426,304,0,0,0,4,5,1,45,0004-00-0002-13.png,0005-00-0000-74.png
00000009,148,1,1441381127753,1441381128738,910,328,0,0,0,5,4,1,54,0005-00-0006-25.png,0004-00-0007-50.png
00000009,149,0,1441381130109,1441381130217,939,373,0,0,0,1,2,1,12,0001-00-0006-52.png,0002-00-0005-08.png
00000009,150,0,1441381133396,1441381134102,1092,296,0,0,0,3,4,1,34,0003-00-0009-80.png,0004-00-0009-32.png
00000009,151,1,1441381137241,1441381137293,961,333,0,0,0,3,2,1,32,0003-00-0006-48.png,0002-00-0005-65.png
00000009,152,1,1441381138125,1441381138499,914,432,0,0,0,4,3,1,43,0004-00-0009-82.png,0003-00-0001-37.png
00000009,153,1,1441381139507,1441381139543,862,410,0,0,0,3,2,1,32,0003-00-0006-44.png,0002-00-0007-17.png
00000009,154,1,1441381140620,1441381140692,899,396,0,0,0,5,4,1,54,0005-00-0006-80.png,0004-00-0009-68.png
00000009,155,1,1441381141991,1441381142043,896,384,0,0,0,2,1,1,21,0002-00-0006-77.png,0001-00-0009-87.png
00000009,156,0,1441381143174,1441381143222,888,420,0,0,0,3,4,1,34,0003-00-0008-18.png,0004-00-0007-82.png
00000009,157,0,1441381146412,1441381147157,348,366,0,0,0,4,3,1,43,0004-00-0001-88.png,0003-00-0004-20.png
00000009,158,1,1441381150289,1441381151040,324,386,0,0,0,2,3,1,23,0002-00-0005-17.png,0003-00-0002-35.png
00000009,159,0,1441381152612,1441381152644,890,354,0,0,0,1,2,1,12,0001-00-0003-11.png,0002-00-0005-75.png
00000009,160,1,1441381155866,1441381156444,453,324,0,0,0,4,5,1,45,0004-00-0000-25.png,0005-00-0005-72.png
00000009,161,0,1441381157812,1441381157958,939,368,0,0,0,2,3,1,23,0002-00-0007-82.png,0003-00-0000-23.png
00000009,162,0,1441381161093,1441381161914,943,333,0,0,0,1,2,1,12,0001-00-0006-31.png,0002-00-0009-10.png
00000009,163,0,1441381164897,1441381165561,1099,276,0,0,0,3,4,1,34,0003-00-0007-06.png,0004-00-0008-02.png
00000009,164,0,1441381168694,1441381169367,450,303,0,0,0,2,1,1,21,0002-00-0003-14.png,0001-00-0003-96.png
00000009,165,1,1441381172617,1441381173470,935,358,0,0,0,5,4,1,54,0005-00-0003-33.png,0004-00-0002-58.png
00000009,166,0,1441381174337,1441381174538,964,436,0,0,0,4,5,1,45,0004-00-0009-17.png,0005-00-0009-04.png
00000009,167,1,1441381177426,1441381177465,966,399,0,0,0,4,3,1,43,0004-00-0002-40.png,0003-00-0003-35.png
00000009,168,1,1441381178343,1441381178459,913,422,0,0,0,3,2,1,32,0003-00-0001-02.png,0002-00-0002-45.png
00000009,169,1,1441381179585,1441381179653,919,413,0,0,0,2,1,1,21,0002-00-0009-08.png,0001-00-0004-29.png
00000009,170,0,1441381180815,1441381180895,948,440,0,0,0,3,4,1,34,0003-00-0005-42.png,0004-00-0009-36.png
00000009,171,0,1441381184057,1441381184843,329,363,0,0,0,5,4,1,54,0005-00-0009-72.png,0004-00-0003-82.png
00000009,172,0,1441381188042,1441381188630,917,330,0,0,0,1,2,1,12,0001-00-0005-79.png,0002-00-0000-03.png
00000009,173,1,1441381191699,1441381192349,939,306,0,0,0,4,3,1,43,0004-00-0009-70.png,0003-00-0001-51.png
00000009,174,0,1441381193743,1441381193847,948,332,0,0,0,4,5,1,45,0004-00-0006-67.png,0005-00-0007-73.png
00000009,175,0,1441381196693,1441381197573,960,301,0,0,0,2,3,1,23,0002-00-0004-46.png,0003-00-0000-54.png
00000009,176,1,1441381200682,1441381201255,943,336,0,0,0,3,2,1,32,0003-00-0005-00.png,0002-00-0000-92.png
00000009,177,1,1441381202668,1441381202814,964,358,0,0,0,3,2,1,32,0003-00-0008-28.png,0002-00-0007-46.png
00000009,178,0,1441381203922,1441381204008,939,410,0,0,0,4,5,1,45,0004-00-0009-03.png,0005-00-0007-39.png
00000009,179,0,1441381207139,1441381207912,1102,308,0,0,0,3,4,1,34,0003-00-0002-73.png,0004-00-0006-74.png
00000009,180,1,1441381211037,1441381211705,475,291,0,0,0,2,3,1,23,0002-00-0003-41.png,0003-00-0005-83.png
00000009,181,1,1441381213111,1441381214116,1057,284,0,0,0,5,4,1,54,0005-00-0007-03.png,0004-00-0004-68.png
00000009,182,1,1441381214949,1441381215029,922,410,0,0,0,4,3,1,43,0004-00-0004-69.png,0003-00-0001-34.png
00000009,183,1,1441381215872,1441381215916,877,399,0,0,0,2,1,1,21,0002-00-0004-17.png,0001-00-0006-59.png
00000009,184,0,1441381217109,1441381217145,896,400,0,0,0,1,2,1,12,0001-00-0009-06.png,0002-00-0009-11.png
00000009,185,1,1441381220188,1441381221089,332,364,0,0,0,2,3,1,23,0002-00-0005-92.png,0003-00-0009-46.png
00000009,186,0,1441381222482,1441381222548,929,358,0,0,0,1,2,1,12,0001-00-0008-81.png,0002-00-0000-73.png
00000009,187,1,1441381225709,1441381226493,1114,303,0,0,0,2,1,1,21,0002-00-0005-67.png,0001-00-0001-53.png
00000009,188,1,1441381227702,1441381228841,941,340,0,0,0,3,2,1,32,0003-00-0008-19.png,0002-00-0001-42.png
00000009,189,0,1441381230293,1441381230359,966,395,0,0,0,3,4,1,34,0003-00-0006-69.png,0004-00-0000-59.png
00000009,190,0,1441381233504,1441381234270,474,256,0,0,0,5,4,1,54,0005-00-0008-01.png,0004-00-0008-92.png
00000009,191,0,1441381237370,1441381237935,946,323,0,0,0,4,5,1,45,0004-00-0002-68.png,0005-00-0006-96.png
00000009,192,0,1441381241115,1441381241719,478,253,0,0,0,4,3,1,43,0004-00-0006-10.png,0003-00-0000-06.png
00000009,193,1,1441381244923,1441381245685,916,295,0,0,0,3,2,1,32,0003-00-0000-89.png,0002-00-0007-99.png
00000009,194,1,1441381247057,1441381247216,968,359,0,0,0,2,1,1,21,0002-00-0003-63.png,0001-00-0003-83.png
00000009,195,0,1441381248171,1441381248219,913,401,0,0,0,4,5,1,45,0004-00-0009-15.png,0005-00-0001-58.png
00000009,196,0,1441381251417,1441381252000,1092,307,0,0,0,1,2,1,12,0001-00-0005-80.png,0002-00-0002-94.png
00000009,197,0,1441381255097,1441381255737,1118,306,0,0,0,3,4,1,34,0003-00-0009-36.png,0004-00-0001-22.png
00000009,198,1,1441381258855,1441381259470,1127,306,0,0,0,5,4,1,54,0005-00-0000-73.png,0004-00-0005-65.png
00000009,199,0,1441381260780,1441381260864,913,355,0,0,0,2,3,1,23,0002-00-0008-20.png,0003-00-0002-04.png
00000009,200,1,1441381263823,1441381265076,942,300,0,0,0,4,3,1,43,0004-00-0008-90.png,0003-00-0009-54.png
00000009,201,0,1441381266537,1441381266601,936,358,0,0,0,1,2,1,12,0001-00-0004-22.png,0002-00-0000-94.png
00000009,202,1,1441381269665,1441381270438,360,387,0,0,0,2,3,1,23,0002-00-0003-54.png,0003-00-0000-30.png
00000009,203,1,1441381271785,1441381271861,918,361,0,0,0,4,3,1,43,0004-00-0005-18.png,0003-00-0000-83.png
00000009,204,0,1441381273032,1441381273064,899,410,0,0,0,4,5,1,45,0004-00-0002-55.png,0005-00-0009-83.png
00000009,205,1,1441381275906,1441381276782,1074,275,0,0,0,2,1,1,21,0002-00-0001-02.png,0001-00-0008-78.png
00000009,206,1,1441381278114,1441381278217,955,384,0,0,0,3,2,1,32,0003-00-0002-52.png,0002-00-0004-20.png
00000009,207,0,1441381279296,1441381279352,911,434,0,0,0,3,4,1,34,0003-00-0008-27.png,0004-00-0006-23.png
00000009,208,1,1441381282305,1441381282325,888,410,0,0,0,5,4,1,54,0005-00-0006-66.png,0004-00-0004-10.png
00000009,209,1,1441381283190,1441381283230,912,439,0,0,0,5,4,1,54,0005-00-0002-25.png,0004-00-0005-11.png
00000009,210,1,1441381284572,1441381284653,910,444,0,0,0,2,1,1,21,0002-00-0005-22.png,0001-00-0000-50.png
00000009,211,0,1441381285623,1441381285675,897,419,0,0,0,1,2,1,12,0001-00-0006-39.png,0002-00-0001-90.png
00000009,212,0,1441381289292,1441381289835,1052,307,0,0,0,3,4,1,34,0003-00-0008-64.png,0004-00-0009-96.png
00000009,213,1,1441381292780,1441381293428,916,330,0,0,0,4,3,1,43,0004-00-0001-21.png,0003-00-0004-20.png
00000009,214,1,1441381294838,1441381294914,948,384,0,0,0,3,2,1,32,0003-00-0000-22.png,0002-00-0000-69.png
00000009,215,0,1441381295981,1441381296073,929,443,0,0,0,2,3,1,23,0002-00-0009-95.png,0003-00-0001-08.png
00000009,216,1,1441381299170,1441381299836,352,356,0,0,0,4,5,1,45,0004-00-0003-42.png,0005-00-0005-39.png
00000009,217,0,1441381301246,1441381301375,953,384,0,0,0,2,3,1,23,0002-00-0006-30.png,0003-00-0000-16.png
00000009,218,0,1441381304518,1441381305139,368,366,0,0,0,4,3,1,43,0004-00-0001-50.png,0003-00-0004-09.png
00000009,219,0,1441381308263,1441381308855,935,327,0,0,0,3,4,1,34,0003-00-0001-88.png,0004-00-0003-76.png
00000009,220,1,1441381312005,1441381312678,358,370,0,0,0,4,5,1,45,0004-00-0000-75.png,0005-00-0003-66.png
00000009,221,1,1441381314115,1441381315116,912,363,0,0,0,3,2,1,32,0003-00-0003-56.png,0002-00-0000-21.png
00000009,222,1,1441381316590,1441381316630,936,368,0,0,0,2,1,1,21,0002-00-0002-38.png,0001-00-0009-87.png
00000009,223,1,1441381317623,1441381317691,930,434,0,0,0,5,4,1,54,0005-00-0009-81.png,0004-00-0004-85.png
00000009,224,0,1441381318865,1441381318929,906,418,0,0,0,1,2,1,12,0001-00-0002-71.png,0002-00-0003-19.png
00000009,225,0,1441381322124,1441381322850,360,344,0,0,0,5,4,1,54,0005-00-0000-78.png,0004-00-0006-86.png
00000009,226,1,1441381326048,1441381326730,450,302,0,0,0,2,3,1,23,0002-00-0003-28.png,0003-00-0003-28.png
00000009,227,0,1441381328055,1441381328161,939,340,0,0,0,1,2,1,12,0001-00-0001-89.png,0002-00-0006-85.png
00000009,228,0,1441381331671,1441381332253,350,371,0,0,0,4,3,1,43,0004-00-0002-83.png,0003-00-0001-00.png
00000009,229,0,1441381335724,1441381335744,888,358,0,0,0,3,4,1,34,0003-00-0003-34.png,0004-00-0006-26.png
00000009,230,1,1441381338908,1441381339476,964,398,0,0,0,3,2,1,32,0003-00-0005-42.png,0002-00-0008-37.png
00000009,231,0,1441381340816,1441381340904,940,351,0,0,0,4,5,1,45,0004-00-0001-17.png,0005-00-0005-94.png
00000009,232,0,1441381344006,1441381344858,372,340,0,0,0,2,1,1,21,0002-00-0007-36.png,0001-00-0006-31.png
00000009,233,0,1441381348001,1441381348736,456,272,0,0,0,5,4,1,54,0005-00-0004-51.png,0004-00-0003-30.png
00000009,234,1,1441381351907,1441381352516,1117,305,0,0,0,4,3,1,43,0004-00-0008-33.png,0003-00-0006-95.png
00000009,235,0,1441381353374,1441381354247,942,345,0,0,0,1,2,1,12,0001-00-0009-34.png,0002-00-0005-78.png
00000009,236,0,1441381357310,1441381357981,964,373,0,0,0,4,5,1,45,0004-00-0005-55.png,0005-00-0007-12.png
00000009,237,1,1441381361036,1441381361118,862,321,0,0,0,3,2,1,32,0003-00-0001-45.png,0002-00-0004-83.png
00000009,238,1,1441381361969,1441381362082,923,410,0,0,0,2,1,1,21,0002-00-0001-88.png,0001-00-0001-02.png
00000009,239,0,1441381362996,1441381363068,913,396,0,0,0,3,4,1,34,0003-00-0004-39.png,0004-00-0003-38.png
00000009,240,0,1441381366055,1441381367464,914,300,0,0,0,2,3,1,23,0002-00-0001-74.png,0003-00-0002-20.png
00000009,241,1,1441381370517,1441381371112,1093,330,0,0,0,5,4,1,54,0005-00-0008-43.png,0004-00-0000-14.png
00000009,242,1,1441381372575,1441381372714,964,348,0,0,0,2,1,1,21,0002-00-0000-09.png,0001-00-0009-12.png
00000009,243,0,1441381373869,1441381373947,925,419,0,0,0,1,2,1,12,0001-00-0004-94.png,0002-00-0006-31.png
00000009,244,1,1441381377316,1441381378170,459,257,0,0,0,4,5,1,45,0004-00-0009-46.png,0005-00-0004-90.png
00000009,245,1,1441381379528,1441381379604,918,386,0,0,0,4,3,1,43,0004-00-0003-63.png,0003-00-0009-32.png
00000009,246,1,1441381380633,1441381380693,897,447,0,0,0,3,2,1,32,0003-00-0007-76.png,0002-00-0001-23.png
00000009,247,0,1441381381933,1441381381994,927,430,0,0,0,3,4,1,34,0003-00-0002-88.png,0004-00-0008-89.png
00000009,248,0,1441381384904,1441381385561,1082,288,0,0,0,2,3,1,23,0002-00-0008-61.png,0003-00-0004-17.png
00000009,249,1,1441381388444,1441381389160,316,361,0,0,0,1,2,1,12,0001-00-0000-95.png,0002-00-0001-62.png
00000009,250,1,1441381391338,1441381391998,1072,282,0,0,0,5,4,1,54,0005-00-0009-07.png,0004-00-0002-67.png
00000009,251,0,1441381393382,1441381393430,977,364,0,0,0,4,5,1,45,0004-00-0005-12.png,0005-00-0009-49.png
00000009,252,0,1441381396604,1441381397258,392,358,0,0,0,4,3,1,43,0004-00-0008-64.png,0003-00-0004-75.png
00000009,253,1,1441381400349,1441381400952,914,349,0,0,0,2,1,1,21,0002-00-0003-75.png,0001-00-0004-70.png
00000009,254,1,1441381402249,1441381402315,964,384,0,0,0,3,2,1,32,0003-00-0008-56.png,0002-00-0002-30.png
00000009,255,0,1441381403187,1441381403267,903,414,0,0,0,2,3,1,23,0002-00-0003-41.png,0003-00-0008-16.png
00000009,256,0,1441381406573,1441381406625,964,253,0,0,0,3,4,1,34,0003-00-0001-57.png,0004-00-0008-22.png
00000009,257,1,1441381409887,1441381410499,1083,308,0,0,0,5,4,1,54,0005-00-0004-93.png,0004-00-0000-79.png
00000009,258,1,1441381412810,1441381413484,481,251,0,0,0,1,2,1,12,0001-00-0008-45.png,0002-00-0000-55.png
00000009,259,1,1441381414375,1441381414447,925,436,0,0,0,4,3,1,43,0004-00-0000-34.png,0003-00-0008-25.png
00000009,260,0,1441381415332,1441381415404,890,417,0,0,0,2,3,1,23,0002-00-0003-79.png,0003-00-0001-35.png
00000009,261,1,1441381418601,1441381419193,1064,278,0,0,0,2,1,1,21,0002-00-0007-16.png,0001-00-0007-96.png
00000009,262,0,1441381420532,1441381420604,955,358,0,0,0,4,5,1,45,0004-00-0003-76.png,0005-00-0003-77.png
00000009,263,1,1441381423787,1441381424378,918,341,0,0,0,3,2,1,32,0003-00-0001-59.png,0002-00-0008-09.png
00000009,264,1,1441381425709,1441381426791,453,253,0,0,0,3,4,1,34,0003-00-0006-44.png,0004-00-0008-28.png
00000009,265,1,1441381428184,1441381428281,926,410,0,0,0,5,4,1,54,0005-00-0007-13.png,0004-00-0000-31.png
00000009,266,0,1441381429367,1441381429431,925,438,0,0,0,2,3,1,23,0002-00-0000-96.png,0003-00-0002-93.png
00000009,267,0,1441381432586,1441381433162,940,328,0,0,0,3,4,1,34,0003-00-0003-23.png,0004-00-0009-37.png
00000009,268,0,1441381436042,1441381436959,1092,306,0,0,0,4,5,1,45,0004-00-0000-16.png,0005-00-0007-54.png
00000009,269,1,1441381440119,1441381440770,469,274,0,0,0,1,2,1,12,0001-00-0002-16.png,0002-00-0000-00.png
00000009,270,1,1441381442167,1441381442314,954,384,0,0,0,3,2,1,32,0003-00-0002-22.png,0002-00-0004-07.png
00000009,271,1,1441381443250,1441381443330,904,417,0,0,0,4,3,1,43,0004-00-0005-26.png,0003-00-0008-99.png
00000009,272,1,1441381444432,1441381444480,931,393,0,0,0,2,1,1,21,0002-00-0001-42.png,0001-00-0000-94.png
00000009,273,0,1441381445630,1441381445700,913,454,0,0,0,1,2,1,12,0001-00-0001-02.png,0002-00-0004-49.png
00000009,274,1,1441381448882,1441381449560,464,279,0,0,0,2,3,1,23,0002-00-0002-22.png,0003-00-0007-48.png
00000009,275,1,1441381450908,1441381450996,934,363,0,0,0,5,4,1,54,0005-00-0005-40.png,0004-00-0000-90.png
00000009,276,0,1441381452045,1441381452129,880,455,0,0,0,4,5,1,45,0004-00-0007-96.png,0005-00-0003-47.png
00000009,277,0,1441381455252,1441381455819,449,245,0,0,0,2,1,1,21,0002-00-0002-30.png,0001-00-0000-09.png
00000009,278,0,1441381458940,1441381459734,339,379,0,0,0,3,2,1,32,0003-00-0002-76.png,0002-00-0006-09.png
00000009,279,0,1441381462746,1441381462754,885,343,0,0,0,3,4,1,34,0003-00-0009-00.png,0004-00-0007-97.png
00000009,280,0,1441381465704,1441381466815,445,295,0,0,0,4,3,1,43,0004-00-0006-04.png,0003-00-0004-32.png
00000009,281,1,1441381469812,1441381470663,363,411,0,0,0,2,3,1,23,0002-00-0006-84.png,0003-00-0005-93.png
00000009,282,0,1441381472125,1441381472193,939,358,0,0,0,4,5,1,45,0004-00-0001-64.png,0005-00-0006-04.png
00000009,283,1,1441381475336,1441381475920,950,328,0,0,0,4,3,1,43,0004-00-0005-23.png,0003-00-0001-68.png
00000009,284,1,1441381477394,1441381477474,943,355,0,0,0,3,2,1,32,0003-00-0009-47.png,0002-00-0001-99.png
00000009,285,0,1441381478604,1441381478624,866,414,0,0,0,3,4,1,34,0003-00-0007-26.png,0004-00-0006-70.png
00000009,286,1,1441381481444,1441381482263,361,344,0,0,0,1,2,1,12,0001-00-0002-57.png,0002-00-0007-33.png
00000009,287,1,1441381483635,1441381483724,955,384,0,0,0,2,1,1,21,0002-00-0004-19.png,0001-00-0003-51.png
00000009,288,1,1441381484652,1441381484724,888,424,0,0,0,5,4,1,54,0005-00-0005-03.png,0004-00-0001-54.png
00000009,289,0,1441381485777,1441381485805,866,422,0,0,0,4,5,1,45,0004-00-0009-22.png,0005-00-0006-90.png
00000009,290,1,1441381488969,1441381489534,1088,306,0,0,0,3,2,1,32,0003-00-0003-61.png,0002-00-0000-35.png
00000009,291,0,1441381490767,1441381490856,944,388,0,0,0,3,4,1,34,0003-00-0008-84.png,0004-00-0002-79.png
00000009,292,1,1441381493828,1441381494552,1102,306,0,0,0,2,1,1,21,0002-00-0000-02.png,0001-00-0000-97.png
00000009,293,0,1441381495777,1441381495861,963,388,0,0,0,1,2,1,12,0001-00-0009-47.png,0002-00-0002-82.png
00000009,294,1,1441381498957,1441381499513,946,350,0,0,0,5,4,1,54,0005-00-0007-00.png,0004-00-0001-02.png
00000009,295,0,1441381500735,1441381500984,957,404,0,0,0,2,3,1,23,0002-00-0001-55.png,0003-00-0003-37.png
00000009,296,0,1441381504133,1441381504835,510,269,0,0,0,4,3,1,43,0004-00-0008-43.png,0003-00-0000-04.png
00000009,297,0,1441381507899,1441381508531,943,382,0,0,0,2,3,1,23,0002-00-0001-43.png,0003-00-0006-99.png
00000009,298,0,1441381511597,1441381512275,503,242,0,0,0,4,3,1,43,0004-00-0005-38.png,0003-00-0008-70.png
00000009,299,0,1441381515522,1441381515716,909,423,0,0,0,3,4,1,34,0003-00-0003-12.png,0004-00-0003-12.png
00000009,300,0,1441381518630,1441381519624,1118,306,0,0,0,1,2,1,12,0001-00-0008-33.png,0002-00-0000-55.png
00000009,301,0,1441381522695,1441381522703,914,387,0,0,0,4,5,1,45,0004-00-0007-60.png,0005-00-0003-29.png
00000009,302,0,1441381525909,1441381526693,451,273,0,0,0,2,1,1,21,0002-00-0003-42.png,0001-00-0006-48.png
00000009,303,1,1441381530120,1441381530765,1094,313,0,0,0,5,4,1,54,0005-00-0006-18.png,0004-00-0005-62.png
00000009,304,1,1441381531589,1441381532435,1000,462,0,0,0,3,2,1,32,0003-00-0005-17.png,0002-00-0006-23.png
00000009,305,1,1441381533430,1441381533506,945,323,0,0,0,3,2,1,32,0003-00-0005-99.png,0002-00-0006-83.png
00000009,306,0,1441381534492,1441381534540,892,376,0,0,0,2,3,1,23,0002-00-0001-26.png,0003-00-0002-09.png
00000009,307,1,1441381537753,1441381537969,890,344,0,0,0,4,3,1,43,0004-00-0001-41.png,0003-00-0004-40.png
00000009,308,0,1441381538883,1441381539837,957,339,0,0,0,3,4,1,34,0003-00-0003-29.png,0004-00-0008-85.png
00000009,309,0,1441381542950,1441381543785,447,270,0,0,0,2,1,1,21,0002-00-0004-16.png,0001-00-0001-29.png
00000009,310,1,1441381547317,1441381548154,477,287,0,0,0,4,5,1,45,0004-00-0005-74.png,0005-00-0004-99.png
00000009,311,0,1441381549527,1441381549697,955,410,0,0,0,1,2,1,12,0001-00-0009-00.png,0002-00-0006-55.png
00000009,312,1,1441381552876,1441381553435,1069,275,0,0,0,5,4,1,54,0005-00-0006-87.png,0004-00-0006-54.png
00000009,313,0,1441381554813,1441381554930,957,400,0,0,0,4,5,1,45,0004-00-0002-51.png,0005-00-0005-48.png
00000009,314,1,1441381557934,1441381558548,1044,301,0,0,0,5,4,1,54,0005-00-0005-21.png,0004-00-0003-59.png
00000009,315,0,1441381559375,1441381559521,955,414,0,0,0,1,2,1,12,0001-00-0003-45.png,0002-00-0002-85.png
00000009,316,0,1441381564280,1441381564913,964,352,0,0,0,2,3,1,23,0002-00-0008-77.png,0003-00-0004-67.png
00000009,317,1,1441381568077,1441381568864,939,400,0,0,0,4,3,1,43,0004-00-0004-91.png,0003-00-0005-95.png
00000009,318,0,1441381569697,1441381571030,911,328,0,0,0,3,4,1,34,0003-00-0002-61.png,0004-00-0002-53.png
00000009,319,0,1441381574099,1441381574818,452,276,0,0,0,3,2,1,32,0003-00-0008-73.png,0002-00-0009-58.png
00000009,320,1,1441381578004,1441381578590,977,410,0,0,0,2,1,1,21,0002-00-0001-66.png,0001-00-0006-25.png
00000009,321,1,1441381580042,1441381580181,964,384,0,0,0,2,1,1,21,0002-00-0000-84.png,0001-00-0003-38.png
00000009,322,0,1441381581127,1441381581175,908,417,0,0,0,4,5,1,45,0004-00-0009-06.png,0005-00-0006-53.png
00000009,323,1,1441381584333,1441381585023,450,289,0,0,0,1,2,1,12,0001-00-0000-57.png,0002-00-0009-99.png
00000009,324,1,1441381585862,1441381586921,1015,282,0,0,0,3,2,1,32,0003-00-0007-09.png,0002-00-0007-49.png
00000009,325,0,1441381587749,1441381587860,939,436,0,0,0,2,3,1,23,0002-00-0008-40.png,0003-00-0004-95.png
00000009,326,1,1441381590717,1441381591432,1139,288,0,0,0,4,3,1,43,0004-00-0003-07.png,0003-00-0008-92.png
00000009,327,0,1441381592811,1441381592863,965,360,0,0,0,3,4,1,34,0003-00-0007-45.png,0004-00-0005-23.png
00000009,328,1,1441381595784,1441381596347,910,312,0,0,0,5,4,1,54,0005-00-0001-30.png,0004-00-0009-72.png
00000009,329,0,1441381597246,1441381598387,350,366,0,0,0,3,2,1,32,0003-00-0009-13.png,0002-00-0009-02.png
00000009,330,1,1441381601459,1441381602009,943,335,0,0,0,5,4,1,54,0005-00-0006-84.png,0004-00-0001-77.png
00000009,331,0,1441381603364,1441381603424,965,361,0,0,0,3,4,1,34,0003-00-0001-98.png,0004-00-0005-53.png
00000009,332,0,1441381606604,1441381606636,971,352,0,0,0,1,2,1,12,0001-00-0007-99.png,0002-00-0005-29.png
00000009,333,1,1441381609845,1441381610678,376,371,0,0,0,2,3,1,23,0002-00-0005-32.png,0003-00-0002-75.png
00000009,334,1,1441381611529,1441381611760,913,446,0,0,0,4,3,1,43,0004-00-0001-71.png,0003-00-0005-24.png
00000009,335,0,1441381612754,1441381612888,929,410,0,0,0,4,5,1,45,0004-00-0007-53.png,0005-00-0001-10.png
00000009,336,1,1441381615952,1441381616499,937,325,0,0,0,2,1,1,21,0002-00-0003-66.png,0001-00-0005-31.png
00000009,337,1,1441381617823,1441381617851,939,384,0,0,0,5,4,1,54,0005-00-0007-89.png,0004-00-0006-15.png
00000009,338,0,1441381618898,1441381618958,900,438,0,0,0,3,4,1,34,0003-00-0003-41.png,0004-00-0001-34.png
00000009,339,1,1441381622206,1441381622764,939,320,0,0,0,3,2,1,32,0003-00-0007-00.png,0002-00-0004-78.png
00000009,340,1,1441381624121,1441381624278,995,379,0,0,0,2,1,1,21,0002-00-0005-40.png,0001-00-0009-79.png
00000009,341,0,1441381625257,1441381625325,907,455,0,0,0,4,5,1,45,0004-00-0005-08.png,0005-00-0000-32.png
00000009,342,1,1441381628427,1441381629089,472,260,0,0,0,1,2,1,12,0001-00-0001-44.png,0002-00-0005-10.png
00000009,343,1,1441381629918,1441381630931,474,270,0,0,0,2,3,1,23,0002-00-0007-46.png,0003-00-0006-96.png
00000009,344,1,1441381632382,1441381632474,928,436,0,0,0,4,3,1,43,0004-00-0005-13.png,0003-00-0008-97.png
00000009,345,1,1441381633485,1441381633545,919,453,0,0,0,4,3,1,43,0004-00-0009-51.png,0003-00-0003-94.png
00000009,346,0,1441381634759,1441381634862,956,479,0,0,0,2,3,1,23,0002-00-0002-01.png,0003-00-0004-72.png
00000009,347,0,1441381638024,1441381638565,942,326,0,0,0,1,2,1,12,0001-00-0001-32.png,0002-00-0000-41.png
00000009,348,1,1441381641719,1441381642377,378,384,0,0,0,4,5,1,45,0004-00-0008-32.png,0005-00-0009-74.png
00000009,349,1,1441381643759,1441381643895,974,382,0,0,0,2,1,1,21,0002-00-0007-59.png,0001-00-0009-98.png
00000009,350,1,1441381644824,1441381644852,888,410,0,0,0,5,4,1,54,0005-00-0000-83.png,0004-00-0009-58.png
00000009,351,1,1441381646096,1441381646164,906,392,0,0,0,3,2,1,32,0003-00-0009-25.png,0002-00-0004-96.png
00000009,352,0,1441381647454,1441381647486,911,426,0,0,0,3,4,1,34,0003-00-0006-38.png,0004-00-0009-64.png
00000009,353,0,1441381650545,1441381651205,935,370,0,0,0,3,4,1,34,0003-00-0009-50.png,0004-00-0000-49.png
00000009,354,1,1441381654352,1441381654968,476,304,0,0,0,4,5,1,45,0004-00-0008-61.png,0005-00-0008-04.png
00000009,355,1,1441381655823,1441381655910,911,413,0,0,0,3,2,1,32,0003-00-0006-81.png,0002-00-0004-82.png
00000009,356,1,1441381656796,1441381656884,913,450,0,0,0,5,4,1,54,0005-00-0009-11.png,0004-00-0009-85.png
00000009,357,1,1441381657990,1441381658046,900,451,0,0,0,4,3,1,43,0004-00-0003-48.png,0003-00-0004-57.png
00000009,358,0,1441381659098,1441381659158,913,446,0,0,0,1,2,1,12,0001-00-0009-69.png,0002-00-0007-25.png
00000009,359,1,1441381662213,1441381662273,958,383,0,0,0,2,1,1,21,0002-00-0005-86.png,0001-00-0003-39.png
00000009,360,0,1441381663125,1441381663200,886,438,0,0,0,2,3,1,23,0002-00-0001-28.png,0003-00-0008-16.png
00000009,361,1,1441381666317,1441381666927,495,253,0,0,0,4,5,1,45,0004-00-0003-59.png,0005-00-0008-49.png
00000009,362,0,1441381668371,1441381669361,393,403,0,0,0,2,1,1,21,0002-00-0008-01.png,0001-00-0001-30.png
00000009,363,0,1441381672408,1441381673118,460,296,0,0,0,4,3,1,43,0004-00-0005-66.png,0003-00-0005-17.png
00000009,364,1,1441381676074,1441381676082,913,358,0,0,0,3,2,1,32,0003-00-0008-38.png,0002-00-0000-47.png
00000009,365,0,1441381677137,1441381677225,924,421,0,0,0,2,3,1,23,0002-00-0008-72.png,0003-00-0002-24.png
00000009,366,1,1441381680378,1441381680959,354,375,0,0,0,3,4,1,34,0003-00-0003-83.png,0004-00-0006-64.png
00000009,367,0,1441381682434,1441381682513,948,358,0,0,0,1,2,1,12,0001-00-0000-82.png,0002-00-0003-67.png
00000009,368,1,1441381685674,1441381685722,944,360,0,0,0,5,4,1,54,0005-00-0000-29.png,0004-00-0000-67.png
00000009,369,0,1441381686568,1441381687480,937,322,0,0,0,4,5,1,45,0004-00-0000-13.png,0005-00-0003-43.png
00000009,370,1,1441381690463,1441381690503,887,466,0,0,0,2,1,1,21,0002-00-0003-89.png,0001-00-0005-87.png
00000009,371,0,1441381691334,1441381692509,1042,270,0,0,0,3,4,1,34,0003-00-0002-94.png,0004-00-0000-76.png
00000009,372,0,1441381695390,1441381696096,483,271,0,0,0,4,3,1,43,0004-00-0007-62.png,0003-00-0002-12.png
00000009,373,1,1441381699285,1441381700029,959,321,0,0,0,5,4,1,54,0005-00-0003-29.png,0004-00-0005-75.png
00000009,374,1,1441381700876,1441381701006,993,467,0,0,0,3,2,1,32,0003-00-0000-84.png,0002-00-0005-66.png
00000009,375,0,1441381702625,1441381702725,956,416,0,0,0,1,2,1,12,0001-00-0001-82.png,0002-00-0006-37.png
00000009,376,1,1441381705935,1441381706499,489,280,0,0,0,2,3,1,23,0002-00-0002-59.png,0003-00-0005-78.png
00000009,377,1,1441381707879,1441381707991,939,384,0,0,0,2,1,1,21,0002-00-0001-21.png,0001-00-0002-34.png
00000009,378,0,1441381708996,1441381709056,913,436,0,0,0,4,5,1,45,0004-00-0003-74.png,0005-00-0001-00.png
00000009,379,1,1441381711893,1441381712500,1072,276,0,0,0,3,2,1,32,0003-00-0006-17.png,0002-00-0004-39.png
00000009,380,0,1441381713725,1441381713797,966,389,0,0,0,2,3,1,23,0002-00-0005-14.png,0003-00-0002-65.png
00000009,381,0,1441381716704,1441381717288,465,265,0,0,0,4,3,1,43,0004-00-0004-56.png,0003-00-0009-76.png
00000009,382,1,1441381720314,1441381720949,940,329,0,0,0,5,4,1,54,0005-00-0001-57.png,0004-00-0005-72.png
00000009,383,1,1441381721773,1441381723032,381,387,0,0,0,3,4,1,34,0003-00-0003-06.png,0004-00-0001-30.png
00000009,384,0,1441381724011,1441381724353,964,410,0,0,0,1,2,1,12,0001-00-0006-72.png,0002-00-0005-69.png
00000009,385,1,1441381727221,1441381727485,866,375,0,0,0,2,1,1,21,0002-00-0002-56.png,0001-00-0001-35.png
00000009,386,1,1441381728334,1441381728456,938,483,0,0,0,3,2,1,32,0003-00-0000-89.png,0002-00-0005-32.png
00000009,387,1,1441381729855,1441381729943,949,436,0,0,0,4,3,1,43,0004-00-0005-23.png,0003-00-0007-28.png
00000009,388,0,1441381730951,1441381731031,903,436,0,0,0,3,4,1,34,0003-00-0008-83.png,0004-00-0002-88.png
00000009,389,1,1441381733859,1441381734451,478,270,0,0,0,2,3,1,23,0002-00-0002-36.png,0003-00-0008-71.png
00000009,390,1,1441381735339,1441381735459,913,410,0,0,0,5,4,1,54,0005-00-0009-53.png,0004-00-0009-26.png
00000009,391,0,1441381736292,1441381736344,888,425,0,0,0,1,2,1,12,0001-00-0003-34.png,0002-00-0003-76.png
00000009,392,1,1441381739543,1441381740127,374,385,0,0,0,4,5,1,45,0004-00-0002-80.png,0005-00-0003-19.png
00000009,393,0,1441381741410,1441381741553,930,383,0,0,0,3,4,1,34,0003-00-0007-97.png,0004-00-0000-62.png
00000009,394,0,1441381744770,1441381745387,1136,296,0,0,0,2,3,1,23,0002-00-0008-38.png,0003-00-0005-01.png
00000009,395,1,1441381748771,1441381749320,390,384,0,0,0,1,2,1,12,0001-00-0009-29.png,0002-00-0002-86.png
00000009,396,1,1441381750662,1441381751615,931,364,0,0,0,2,1,1,21,0002-00-0002-28.png,0001-00-0008-74.png
00000009,397,1,1441381752926,1441381752998,964,449,0,0,0,4,3,1,43,0004-00-0001-53.png,0003-00-0003-51.png
00000009,398,0,1441381754071,1441381754159,931,424,0,0,0,4,5,1,45,0004-00-0001-56.png,0005-00-0009-38.png
00000009,399,1,1441381757091,1441381757691,1111,272,0,0,0,5,4,1,54,0005-00-0007-60.png,0004-00-0007-09.png
00000009,400,1,1441381759088,1441381759200,981,382,0,0,0,3,2,1,32,0003-00-0002-14.png,0002-00-0004-03.png
00000009,401,0,1441381760183,1441381760223,895,410,0,0,0,3,4,1,34,0003-00-0008-53.png,0004-00-0002-77.png
00000009,402,1,1441381763776,1441381764423,414,410,0,0,0,1,2,1,12,0001-00-0007-54.png,0002-00-0009-95.png
00000009,403,0,1441381765306,1441381766271,501,305,0,0,0,2,1,1,21,0002-00-0006-30.png,0001-00-0003-62.png
00000009,404,1,1441381769427,1441381770150,497,247,0,0,0,2,3,1,23,0002-00-0000-25.png,0003-00-0003-88.png
00000009,405,1,1441381771571,1441381771734,939,401,0,0,0,3,2,1,32,0003-00-0006-96.png,0002-00-0002-26.png
00000009,406,0,1441381772792,1441381772884,949,462,0,0,0,4,5,1,45,0004-00-0006-69.png,0005-00-0003-98.png
00000009,407,1,1441381775913,1441381776531,922,309,0,0,0,5,4,1,54,0005-00-0002-21.png,0004-00-0007-30.png
00000009,408,1,1441381777369,1441381778272,1118,296,0,0,0,4,3,1,43,0004-00-0004-31.png,0003-00-0009-47.png
00000009,409,1,1441381779866,1441381779990,964,410,0,0,0,2,1,1,21,0002-00-0001-96.png,0001-00-0003-21.png
00000009,410,0,1441381780836,1441381781849,476,244,0,0,0,4,3,1,43,0004-00-0004-88.png,0003-00-0002-63.png
00000009,411,0,1441381784715,1441381784775,867,410,0,0,0,2,3,1,23,0002-00-0007-16.png,0003-00-0001-87.png
00000009,412,0,1441381787669,1441381788295,1092,291,0,0,0,1,2,1,12,0001-00-0005-80.png,0002-00-0003-66.png
00000009,413,1,1441381791200,1441381791855,1107,304,0,0,0,5,4,1,54,0005-00-0009-39.png,0004-00-0003-30.png
00000009,414,0,1441381793165,1441381793245,939,348,0,0,0,3,4,1,34,0003-00-0006-29.png,0004-00-0002-37.png
00000009,415,0,1441381796182,1441381796222,504,400,0,0,0,3,2,1,32,0003-00-0003-94.png,0002-00-0001-40.png
00000009,416,1,1441381799802,1441381800334,439,305,0,0,0,4,5,1,45,0004-00-0007-17.png,0005-00-0001-09.png
00000009,417,1,1441381801719,1441381801831,967,393,0,0,0,4,3,1,43,0004-00-0002-76.png,0003-00-0001-73.png
00000009,418,1,1441381802833,1441381802908,935,438,0,0,0,3,2,1,32,0003-00-0001-21.png,0002-00-0000-50.png
00000009,419,0,1441381803963,1441381804007,913,410,0,0,0,3,4,1,34,0003-00-0004-75.png,0004-00-0008-89.png
00000009,420,1,1441381807038,1441381807676,431,279,0,0,0,4,5,1,45,0004-00-0009-33.png,0005-00-0003-08.png
00000009,421,1,1441381809042,1441381809212,964,398,0,0,0,5,4,1,54,0005-00-0004-22.png,0004-00-0007-80.png
00000009,422,0,1441381810262,1441381810346,920,478,0,0,0,2,3,1,23,0002-00-0008-35.png,0003-00-0003-07.png
00000009,423,0,1441381813573,1441381814099,968,337,0,0,0,1,2,1,12,0001-00-0003-08.png,0002-00-0008-54.png
00000009,424,1,1441381816937,1441381817668,964,369,0,0,0,2,1,1,21,0002-00-0007-71.png,0001-00-0006-96.png
00000009,425,0,1441381818902,1441381818978,939,394,0,0,0,2,3,1,23,0002-00-0000-65.png,0003-00-0005-03.png
00000009,426,1,1441381821851,1441381822507,914,308,0,0,0,3,2,1,32,0003-00-0006-56.png,0002-00-0008-76.png
00000009,427,1,1441381823760,1441381823938,1016,423,0,0,0,5,4,1,54,0005-00-0004-48.png,0004-00-0005-89.png
00000009,428,0,1441381824782,1441381824855,925,410,0,0,0,3,4,1,34,0003-00-0000-41.png,0004-00-0000-97.png
00000009,429,0,1441381828013,1441381828658,453,279,0,0,0,4,3,1,43,0004-00-0003-24.png,0003-00-0007-65.png
00000009,430,1,1441381831837,1441381832396,352,364,0,0,0,4,5,1,45,0004-00-0003-38.png,0005-00-0000-20.png
00000009,431,1,1441381833747,1441381833894,980,384,0,0,0,2,1,1,21,0002-00-0001-06.png,0001-00-0006-22.png
00000009,432,0,1441381834744,1441381834800,888,446,0,0,0,1,2,1,12,0001-00-0002-51.png,0002-00-0004-38.png
00000009,433,1,1441381838136,1441381838705,1092,279,0,0,0,2,1,1,21,0002-00-0003-06.png,0001-00-0003-00.png
00000009,434,1,1441381839558,1441381840459,371,378,0,0,0,2,3,1,23,0002-00-0006-49.png,0003-00-0005-88.png
00000009,435,1,1441381841398,1441381841446,910,438,0,0,0,5,4,1,54,0005-00-0000-92.png,0004-00-0000-30.png
00000009,436,1,1441381842512,1441381842584,922,428,0,0,0,3,2,1,32,0003-00-0005-16.png,0002-00-0003-32.png
00000009,437,0,1441381843672,1441381843732,919,427,0,0,0,1,2,1,12,0001-00-0009-74.png,0002-00-0004-07.png
00000009,438,0,1441381846864,1441381847400,1096,280,0,0,0,3,4,1,34,0003-00-0008-69.png,0004-00-0009-58.png
00000009,439,1,1441381850590,1441381851203,480,261,0,0,0,4,5,1,45,0004-00-0007-47.png,0005-00-0009-34.png
00000009,440,1,1441381852666,1441381853597,936,350,0,0,0,4,3,1,43,0004-00-0001-48.png,0003-00-0007-54.png
00000009,441,1,1441381854972,1441381855012,964,410,0,0,0,2,1,1,21,0002-00-0003-23.png,0001-00-0007-14.png
00000009,442,1,1441381855976,1441381856016,913,410,0,0,0,4,3,1,43,0004-00-0009-25.png,0003-00-0003-14.png
00000009,443,0,1441381857155,1441381857227,905,436,0,0,0,1,2,1,12,0001-00-0004-21.png,0002-00-0006-76.png
00000009,444,1,1441381860119,1441381860685,478,266,0,0,0,2,3,1,23,0002-00-0000-26.png,0003-00-0008-35.png
00000009,445,0,1441381861978,1441381862117,939,424,0,0,0,4,5,1,45,0004-00-0008-60.png,0005-00-0009-41.png
00000009,446,1,1441381864961,1441381865498,912,356,0,0,0,5,4,1,54,0005-00-0000-61.png,0004-00-0000-81.png
00000009,447,0,1441381866746,1441381866837,964,436,0,0,0,3,4,1,34,0003-00-0005-31.png,0004-00-0008-74.png
00000009,448,1,1441381869994,1441381870045,957,358,0,0,0,3,2,1,32,0003-00-0007-99.png,0002-00-0001-17.png
00000009,449,1,1441381870940,1441381872012,929,347,0,0,0,2,1,1,21,0002-00-0004-56.png,0001-00-0007-25.png
00000009,450,1,1441381872897,1441381872945,964,410,0,0,0,3,2,1,32,0003-00-0004-12.png,0002-00-0007-04.png
00000009,451,1,1441381874368,1441381874396,966,409,0,0,0,4,3,1,43,0004-00-0003-78.png,0003-00-0007-36.png
00000009,452,0,1441381875458,1441381875543,930,445,0,0,0,2,3,1,23,0002-00-0008-78.png,0003-00-0005-09.png
00000009,453,0,1441381878683,1441381879282,896,330,0,0,0,3,4,1,34,0003-00-0008-53.png,0004-00-0004-09.png
00000009,454,1,1441381882416,1441381882476,934,355,0,0,0,5,4,1,54,0005-00-0001-43.png,0004-00-0002-79.png
00000009,455,1,1441381883349,1441381884224,477,274,0,0,0,1,2,1,12,0001-00-0004-00.png,0002-00-0008-50.png
00000009,456,0,1441381885278,1441381885581,955,462,0,0,0,4,5,1,45,0004-00-0008-45.png,0005-00-0007-21.png
00000009,457,1,1441381888639,1441381889226,448,284,0,0,0,4,5,1,45,0004-00-0005-94.png,0005-00-0009-23.png
00000009,458,0,1441381890575,1441381890718,990,395,0,0,0,2,3,1,23,0002-00-0001-45.png,0003-00-0004-35.png
00000009,459,0,1441381893885,1441381894500,467,277,0,0,0,3,2,1,32,0003-00-0002-85.png,0002-00-0000-89.png
00000009,460,1,1441381897879,1441381898491,915,353,0,0,0,2,1,1,21,0002-00-0005-42.png,0001-00-0005-84.png
00000009,461,1,1441381899809,1441381899837,918,361,0,0,0,4,3,1,43,0004-00-0008-02.png,0003-00-0000-68.png
00000009,462,0,1441381900841,1441381900893,900,443,0,0,0,3,4,1,34,0003-00-0004-74.png,0004-00-0004-88.png
00000009,463,1,1441381904399,1441381904971,370,382,0,0,0,1,2,1,12,0001-00-0002-35.png,0002-00-0006-10.png
00000009,464,1,1441381906313,1441381906506,939,393,0,0,0,5,4,1,54,0005-00-0000-30.png,0004-00-0001-90.png
00000009,465,0,1441381907497,1441381907577,903,436,0,0,0,2,3,1,23,0002-00-0009-17.png,0003-00-0006-78.png
00000009,466,1,1441381910749,1441381910765,950,333,0,0,0,2,1,1,21,0002-00-0002-45.png,0001-00-0004-38.png
00000009,467,0,1441381911711,1441381912585,490,263,0,0,0,5,4,1,54,0005-00-0004-97.png,0004-00-0006-30.png
00000009,468,1,1441381915695,1441381915736,933,379,0,0,0,4,3,1,43,0004-00-0002-14.png,0003-00-0003-74.png
00000009,469,0,1441381916583,1441381916699,904,462,0,0,0,4,5,1,45,0004-00-0008-54.png,0005-00-0004-32.png
00000009,470,1,1441381919650,1441381920186,1069,326,0,0,0,3,2,1,32,0003-00-0000-48.png,0002-00-0006-57.png
00000009,471,0,1441381921459,1441381921499,948,384,0,0,0,1,2,1,12,0001-00-0000-18.png,0002-00-0006-02.png
00000009,472,1,1441381924727,1441381925225,466,298,0,0,0,3,4,1,34,0003-00-0003-56.png,0004-00-0000-97.png
00000009,473,0,1441381926084,1441381927160,938,363,0,0,0,1,2,1,12,0001-00-0008-53.png,0002-00-0006-42.png
00000009,474,1,1441381930371,1441381930994,490,259,0,0,0,2,3,1,23,0002-00-0003-67.png,0003-00-0005-38.png
00000009,475,0,1441381932323,1441381932539,964,372,0,0,0,4,5,1,45,0004-00-0006-15.png,0005-00-0009-11.png
00000009,476,0,1441381935371,1441381935906,966,318,0,0,0,3,4,1,34,0003-00-0005-85.png,0004-00-0000-68.png
00000009,477,1,1441381938910,1441381939517,1092,295,0,0,0,5,4,1,54,0005-00-0000-39.png,0004-00-0009-95.png
00000009,478,1,1441381940350,1441381940446,964,424,0,0,0,4,3,1,43,0004-00-0004-17.png,0003-00-0002-85.png
00000009,479,1,1441381941931,1441381941979,933,393,0,0,0,2,1,1,21,0002-00-0009-14.png,0001-00-0004-88.png
00000009,480,1,1441381942963,1441381942995,935,407,0,0,0,3,2,1,32,0003-00-0002-13.png,0002-00-0009-40.png
00000009,481,0,1441381944089,1441381944140,908,439,0,0,0,2,3,1,23,0002-00-0004-91.png,0003-00-0008-63.png
00000009,482,1,1441381947325,1441381948013,463,273,0,0,0,4,5,1,45,0004-00-0004-27.png,0005-00-0001-27.png
00000009,483,0,1441381948835,1441381949177,990,479,0,0,0,3,4,1,34,0003-00-0008-82.png,0004-00-0001-46.png
00000009,484,1,1441381952176,1441381952740,942,331,0,0,0,2,1,1,21,0002-00-0005-30.png,0001-00-0003-53.png
00000009,485,1,1441381954011,1441381954079,977,410,0,0,0,3,2,1,32,0003-00-0005-13.png,0002-00-0001-25.png
00000009,486,1,1441381954975,1441381955031,924,436,0,0,0,4,3,1,43,0004-00-0004-70.png,0003-00-0008-07.png
00000009,487,1,1441381956100,1441381956215,990,514,0,0,0,5,4,1,54,0005-00-0002-67.png,0004-00-0004-53.png
00000009,488,0,1441381957423,1441381957435,944,442,0,0,0,1,2,1,12,0001-00-0008-04.png,0002-00-0000-88.png
00000009,489,1,1441381960451,1441381961048,1098,283,0,0,0,4,3,1,43,0004-00-0008-15.png,0003-00-0009-19.png
00000009,490,0,1441381962422,1441381962462,964,396,0,0,0,2,3,1,23,0002-00-0005-69.png,0003-00-0006-33.png
00000009,491,1,1441381965690,1441381966336,494,271,0,0,0,1,2,1,12,0001-00-0009-14.png,0002-00-0007-11.png
00000009,492,1,1441381967609,1441381967698,937,354,0,0,0,3,2,1,32,0003-00-0009-51.png,0002-00-0007-77.png
00000009,493,0,1441381968704,1441381968756,926,426,0,0,0,3,4,1,34,0003-00-0005-67.png,0004-00-0007-60.png
00000009,494,1,1441381971610,1441381971654,964,471,0,0,0,5,4,1,54,0005-00-0008-51.png,0004-00-0001-10.png
00000009,495,1,1441381972609,1441381973607,1118,306,0,0,0,2,1,1,21,0002-00-0001-73.png,0001-00-0005-05.png
00000009,496,0,1441381974516,1441381974634,964,445,0,0,0,4,5,1,45,0004-00-0005-60.png,0005-00-0009-83.png
00000009,497,1,1441381977832,1441381978451,365,385,0,0,0,4,5,1,45,0004-00-0007-42.png,0005-00-0008-67.png
00000009,498,1,1441381979830,1441381979862,972,377,0,0,0,2,1,1,21,0002-00-0004-03.png,0001-00-0005-69.png
00000009,499,0,1441381980942,1441381980991,913,436,0,0,0,2,3,1,23,0002-00-0003-54.png,0003-00-0004-89.png
00000009,500,0,1441381984211,1441381984779,478,270,0,0,0,4,3,1,43,0004-00-0003-76.png,0003-00-0006-90.png
00000009,501,1,1441381987901,1441381988585,474,303,0,0,0,3,4,1,34,0003-00-0006-03.png,0004-00-0007-96.png
00000009,502,0,1441381989406,1441381989537,938,419,0,0,0,1,2,1,12,0001-00-0003-21.png,0002-00-0006-38.png
00000009,503,1,1441381992750,1441381993301,965,322,0,0,0,3,2,1,32,0003-00-0007-57.png,0002-00-0004-82.png
00000009,504,1,1441381994574,1441381994713,940,379,0,0,0,5,4,1,54,0005-00-0004-84.png,0004-00-0003-93.png
00000009,505,1,1441381995786,1441381995858,925,410,0,0,0,4,3,1,43,0004-00-0008-39.png,0003-00-0007-59.png
00000009,506,0,1441381996979,1441381997015,922,395,0,0,0,1,2,1,12,0001-00-0008-38.png,0002-00-0001-55.png
00000009,507,0,1441381999869,1441382000390,949,303,0,0,0,3,4,1,34,0003-00-0005-91.png,0004-00-0009-33.png
00000009,508,1,1441382003540,1441382004153,503,298,0,0,0,2,3,1,23,0002-00-0006-34.png,0003-00-0002-15.png
00000009,509,0,1441382005558,1441382005630,964,349,0,0,0,4,5,1,45,0004-00-0004-41.png,0005-00-0002-29.png
00000009,510,1,1441382008738,1441382008786,934,391,0,0,0,3,2,1,32,0003-00-0001-13.png,0002-00-0002-68.png
00000009,511,1,1441382009694,1441382009810,964,436,0,0,0,2,1,1,21,0002-00-0000-20.png,0001-00-0002-64.png
00000009,512,1,1441382011411,1441382011483,922,410,0,0,0,5,4,1,54,0005-00-0008-46.png,0004-00-0006-98.png
00000009,513,0,1441382012595,1441382012655,896,427,0,0,0,1,2,1,12,0001-00-0000-29.png,0002-00-0009-49.png
00000009,514,1,1441382015804,1441382016467,939,397,0,0,0,3,2,1,32,0003-00-0009-80.png,0002-00-0002-91.png
00000009,515,0,1441382017800,1441382017828,965,358,0,0,0,3,4,1,34,0003-00-0009-79.png,0004-00-0003-14.png
00000009,516,1,1441382021028,1441382021595,928,331,0,0,0,5,4,1,54,0005-00-0005-75.png,0004-00-0006-60.png
00000009,517,1,1441382022887,1441382022947,967,383,0,0,0,4,3,1,43,0004-00-0003-83.png,0003-00-0001-64.png
00000009,518,1,1441382023883,1441382023923,915,420,0,0,0,2,1,1,21,0002-00-0008-71.png,0001-00-0007-02.png
00000009,519,0,1441382025055,1441382025095,917,446,0,0,0,2,3,1,23,0002-00-0008-03.png,0003-00-0004-84.png
00000009,520,1,1441382028116,1441382028735,450,271,0,0,0,4,5,1,45,0004-00-0001-99.png,0005-00-0005-89.png
00000009,521,1,1441382030032,1441382030112,975,391,0,0,0,3,2,1,32,0003-00-0000-11.png,0002-00-0004-48.png
00000009,522,1,1441382031016,1441382031080,913,445,0,0,0,5,4,1,54,0005-00-0007-36.png,0004-00-0006-48.png
00000009,523,1,1441382032307,1441382032371,935,439,0,0,0,2,1,1,21,0002-00-0009-48.png,0001-00-0008-12.png
00000009,524,0,1441382033456,1441382033511,964,450,0,0,0,1,2,1,12,0001-00-0001-53.png,0002-00-0009-96.png
00000009,525,1,1441382036698,1441382037389,435,292,0,0,0,2,3,1,23,0002-00-0004-19.png,0003-00-0000-79.png
00000009,526,0,1441382038230,1441382039310,940,345,0,0,0,3,4,1,34,0003-00-0001-42.png,0004-00-0008-19.png
00000009,527,1,1441382042444,1441382043040,358,400,0,0,0,4,5,1,45,0004-00-0001-41.png,0005-00-0006-30.png
00000009,528,1,1441382044324,1441382044439,964,384,0,0,0,4,3,1,43,0004-00-0009-28.png,0003-00-0001-06.png
00000009,529,0,1441382045426,1441382045494,924,462,0,0,0,4,5,1,45,0004-00-0001-93.png,0005-00-0002-70.png
00000009,530,1,1441382048366,1441382049230,370,345,0,0,0,1,2,1,12,0001-00-0000-99.png,0002-00-0003-89.png
00000009,531,0,1441382050523,1441382050567,964,384,0,0,0,3,4,1,34,0003-00-0004-03.png,0004-00-0007-65.png
00000009,532,0,1441382053696,1441382054235,478,270,0,0,0,5,4,1,54,0005-00-0008-96.png,0004-00-0005-28.png
00000009,533,1,1441382057351,1441382057599,934,348,0,0,0,2,1,1,21,0002-00-0005-07.png,0001-00-0006-52.png
00000009,534,1,1441382058450,1441382059653,448,282,0,0,0,2,3,1,23,0002-00-0006-67.png,0003-00-0002-39.png
00000009,535,1,1441382061155,1441382061286,962,386,0,0,0,3,2,1,32,0003-00-0009-24.png,0002-00-0009-64.png
00000009,536,1,1441382062229,1441382062289,952,417,0,0,0,4,3,1,43,0004-00-0004-48.png,0003-00-0001-79.png
00000009,537,0,1441382063411,1441382063443,917,409,0,0,0,1,2,1,12,0001-00-0001-36.png,0002-00-0005-27.png
00000009,538,0,1441382066623,1441382067324,468,266,0,0,0,5,4,1,54,0005-00-0005-78.png,0004-00-0006-93.png
00000009,539,0,1441382070161,1441382070209,913,472,0,0,0,2,3,1,23,0002-00-0007-51.png,0003-00-0009-17.png
00000009,540,0,1441382073401,1441382074046,472,256,0,0,0,2,1,1,21,0002-00-0004-25.png,0001-00-0005-71.png
00000009,541,1,1441382077097,1441382077631,936,338,0,0,0,3,2,1,32,0003-00-0008-17.png,0002-00-0006-20.png
00000009,542,0,1441382078489,1441382079448,943,305,0,0,0,4,5,1,45,0004-00-0004-08.png,0005-00-0006-42.png
00000009,543,0,1441382082690,1441382083284,386,383,0,0,0,4,3,1,43,0004-00-0002-30.png,0003-00-0003-62.png
00000009,544,0,1441382086168,1441382086720,908,344,0,0,0,3,4,1,34,0003-00-0001-81.png,0004-00-0008-51.png
00000009,545,1,1441382089618,1441382090190,480,246,0,0,0,4,5,1,45,0004-00-0001-42.png,0005-00-0006-51.png
00000009,546,1,1441382091076,1441382091965,1071,275,0,0,0,2,1,1,21,0002-00-0002-59.png,0001-00-0002-60.png
00000009,547,0,1441382092917,1441382093067,974,410,0,0,0,3,4,1,34,0003-00-0000-26.png,0004-00-0004-68.png
00000009,548,1,1441382096207,1441382096743,460,274,0,0,0,1,2,1,12,0001-00-0003-58.png,0002-00-0004-14.png
00000009,549,1,1441382097658,1441382097727,947,404,0,0,0,4,3,1,43,0004-00-0001-95.png,0003-00-0009-41.png
00000009,550,1,1441382099196,1441382099270,900,410,0,0,0,5,4,1,54,0005-00-0004-60.png,0004-00-0008-56.png
00000009,551,0,1441382100319,1441382100383,920,404,0,0,0,2,3,1,23,0002-00-0003-26.png,0003-00-0002-93.png
00000009,552,1,1441382103508,1441382103712,869,354,0,0,0,3,2,1,32,0003-00-0002-53.png,0002-00-0008-22.png
00000009,553,1,1441382104661,1441382105553,934,339,0,0,0,4,3,1,43,0004-00-0008-18.png,0003-00-0001-78.png
00000009,554,0,1441382106400,1441382106472,939,410,0,0,0,3,4,1,34,0003-00-0002-57.png,0004-00-0001-73.png
00000009,555,1,1441382109480,1441382110235,479,271,0,0,0,2,3,1,23,0002-00-0005-97.png,0003-00-0002-34.png
00000009,556,1,1441382111161,1441382111262,932,429,0,0,0,2,1,1,21,0002-00-0009-09.png,0001-00-0009-02.png
00000009,557,0,1441382112191,1441382112259,930,420,0,0,0,4,5,1,45,0004-00-0008-72.png,0005-00-0009-80.png
00000009,558,1,1441382115186,1441382115238,859,396,0,0,0,5,4,1,54,0005-00-0008-41.png,0004-00-0001-48.png
00000009,559,1,1441382116150,1441382116990,1067,279,0,0,0,3,2,1,32,0003-00-0000-28.png,0002-00-0008-13.png
00000009,560,0,1441382118584,1441382118600,955,384,0,0,0,1,2,1,12,0001-00-0001-49.png,0002-00-0003-51.png
00000009,561,0,1441382122141,1441382122917,964,325,0,0,0,2,3,1,23,0002-00-0009-48.png,0003-00-0003-13.png
00000009,562,0,1441382126106,1441382126126,934,358,0,0,0,3,4,1,34,0003-00-0007-78.png,0004-00-0009-07.png
00000009,563,1,1441382129289,1441382129349,963,359,0,0,0,5,4,1,54,0005-00-0004-65.png,0004-00-0004-83.png
00000009,564,1,1441382130312,1441382130429,959,392,0,0,0,4,3,1,43,0004-00-0004-50.png,0003-00-0005-93.png
00000009,565,1,1441382131293,1441382131361,903,412,0,0,0,3,2,1,32,0003-00-0000-16.png,0002-00-0002-88.png
00000009,566,1,1441382132523,1441382132599,924,439,0,0,0,2,1,1,21,0002-00-0002-05.png,0001-00-0001-57.png
00000009,567,0,1441382133716,1441382133768,923,426,0,0,0,4,5,1,45,0004-00-0003-84.png,0005-00-0002-41.png
00000009,568,0,1441382136871,1441382136931,956,386,0,0,0,1,2,1,12,0001-00-0001-08.png,0002-00-0002-42.png
00000009,569,1,1441382139939,1441382140611,465,267,0,0,0,1,2,1,12,0001-00-0007-35.png,0002-00-0005-93.png
00000009,570,0,1441382141451,1441382141976,1002,507,0,0,0,2,3,1,23,0002-00-0007-39.png,0003-00-0000-34.png
00000009,571,1,1441382145134,1441382145188,921,355,0,0,0,2,1,1,21,0002-00-0008-21.png,0001-00-0007-05.png
00000009,572,1,1441382146027,1441382146212,938,463,0,0,0,3,2,1,32,0003-00-0002-57.png,0002-00-0007-03.png
00000009,573,0,1441382147691,1441382147782,913,436,0,0,0,4,5,1,45,0004-00-0000-68.png,0005-00-0003-90.png
00000009,574,1,1441382150997,1441382151715,939,345,0,0,0,5,4,1,54,0005-00-0007-30.png,0004-00-0007-53.png
00000009,575,1,1441382152543,1441382153384,1066,304,0,0,0,4,3,1,43,0004-00-0007-66.png,0003-00-0003-88.png
00000009,576,0,1441382154236,1441382154332,948,448,0,0,0,3,4,1,34,0003-00-0009-01.png,0004-00-0008-42.png
00000009,577,1,1441382157166,1441382157776,470,260,0,0,0,2,3,1,23,0002-00-0006-25.png,0003-00-0005-79.png
00000009,578,1,1441382158711,1441382158877,913,498,0,0,0,5,4,1,54,0005-00-0000-49.png,0004-00-0002-92.png
00000009,579,0,1441382159763,1441382159807,871,462,0,0,0,3,4,1,34,0003-00-0008-74.png,0004-00-0001-95.png
00000009,580,0,1441382162974,1441382163718,481,257,0,0,0,3,2,1,32,0003-00-0001-08.png,0002-00-0000-50.png
00000009,581,0,1441382166770,1441382167403,369,400,0,0,0,2,1,1,21,0002-00-0002-48.png,0001-00-0007-23.png
00000009,582,1,1441382170547,1441382171107,371,401,0,0,0,4,5,1,45,0004-00-0001-81.png,0005-00-0000-49.png
00000009,583,0,1441382172483,1441382172634,960,384,0,0,0,1,2,1,12,0001-00-0006-44.png,0002-00-0001-69.png
00000009,584,0,1441382175808,1441382176419,479,289,0,0,0,4,3,1,43,0004-00-0002-24.png,0003-00-0002-29.png
00000009,585,0,1441382179579,1441382180112,938,332,0,0,0,3,4,1,34,0003-00-0004-73.png,0004-00-0003-01.png
00000009,586,0,1441382183245,1441382183470,875,383,0,0,0,2,3,1,23,0002-00-0006-57.png,0003-00-0006-59.png
00000009,587,0,1441382186614,1441382186642,960,335,0,0,0,4,5,1,45,0004-00-0005-03.png,0005-00-0006-69.png
00000009,588,0,1441382189794,1441382189834,943,330,0,0,0,1,2,1,12,0001-00-0000-56.png,0002-00-0000-21.png
00000009,589,1,1441382192995,1441382193580,1118,306,0,0,0,3,2,1,32,0003-00-0005-03.png,0002-00-0002-91.png
00000009,590,1,1441382195077,1441382195121,940,355,0,0,0,4,3,1,43,0004-00-0004-23.png,0003-00-0004-64.png
00000009,591,1,1441382196193,1441382196277,930,417,0,0,0,2,1,1,21,0002-00-0008-66.png,0001-00-0009-54.png
00000009,592,1,1441382197475,1441382197537,925,410,0,0,0,5,4,1,54,0005-00-0009-38.png,0004-00-0008-35.png
00000009,593,0,1441382198747,1441382198823,926,426,0,0,0,2,3,1,23,0002-00-0007-78.png,0003-00-0002-07.png
00000009,594,1,1441382201776,1441382201816,916,386,0,0,0,4,3,1,43,0004-00-0001-21.png,0003-00-0008-50.png
00000009,595,1,1441382202711,1441382203629,1047,277,0,0,0,3,2,1,32,0003-00-0001-12.png,0002-00-0002-69.png
00000009,596,1,1441382205097,1441382205173,962,385,0,0,0,2,1,1,21,0002-00-0004-75.png,0001-00-0004-06.png
00000009,597,0,1441382206250,1441382206323,939,410,0,0,0,4,5,1,45,0004-00-0000-05.png,0005-00-0009-16.png
00000009,598,1,1441382209883,1441382209991,913,279,0,0,0,5,4,1,54,0005-00-0006-25.png,0004-00-0009-39.png
00000009,599,0,1441382211337,1441382212385,1087,270,0,0,0,3,4,1,34,0003-00-0004-54.png,0004-00-0008-00.png
00000009,600,0,1441382215517,1441382215573,952,347,0,0,0,1,2,1,12,0001-00-0009-47.png,0002-00-0005-64.png
00000009,601,0,1441382218440,1441382219195,1059,278,0,0,0,1,2,1,12,0001-00-0003-08.png,0002-00-0006-26.png
00000009,602,1,1441382222195,1441382222951,469,282,0,0,0,2,3,1,23,0002-00-0000-37.png,0003-00-0007-16.png
00000009,603,0,1441382223779,1441382224732,950,355,0,0,0,3,4,1,34,0003-00-0008-74.png,0004-00-0003-40.png
00000009,604,0,1441382227654,1441382228253,478,253,0,0,0,2,1,1,21,0002-00-0006-24.png,0001-00-0004-08.png
00000009,605,1,1441382231102,1441382231715,1071,281,0,0,0,5,4,1,54,0005-00-0008-49.png,0004-00-0004-45.png
00000009,606,0,1441382232969,1441382233085,961,388,0,0,0,4,5,1,45,0004-00-0003-65.png,0005-00-0007-62.png
00000009,607,1,1441382235956,1441382236497,1094,306,0,0,0,3,2,1,32,0003-00-0004-03.png,0002-00-0000-84.png
00000009,608,1,1441382237749,1441382237860,964,384,0,0,0,4,3,1,43,0004-00-0002-63.png,0003-00-0002-59.png
00000009,609,1,1441382238742,1441382238802,913,421,0,0,0,2,1,1,21,0002-00-0006-10.png,0001-00-0005-78.png
00000009,610,0,1441382239943,1441382239987,936,400,0,0,0,2,3,1,23,0002-00-0001-01.png,0003-00-0009-71.png
00000009,611,1,1441382243096,1441382243770,960,301,0,0,0,3,2,1,32,0003-00-0005-83.png,0002-00-0008-07.png
00000009,612,0,1441382244623,1441382245686,1089,281,0,0,0,3,4,1,34,0003-00-0002-78.png,0004-00-0000-90.png
00000009,613,0,1441382248728,1441382249400,497,271,0,0,0,4,3,1,43,0004-00-0002-65.png,0003-00-0005-49.png
00000009,614,1,1441382252519,1441382252535,919,377,0,0,0,5,4,1,54,0005-00-0007-13.png,0004-00-0007-35.png
00000009,615,0,1441382253380,1441382253535,887,490,0,0,0,1,2,1,12,0001-00-0000-95.png,0002-00-0006-62.png
00000009,616,0,1441382256690,1441382256726,923,358,0,0,0,4,5,1,45,0004-00-0004-29.png,0005-00-0007-30.png
00000009,617,1,1441382259752,1441382261181,443,249,0,0,0,4,5,1,45,0004-00-0007-65.png,0005-00-0007-98.png
00000009,618,1,1441382262575,1441382262745,953,410,0,0,0,4,3,1,43,0004-00-0007-49.png,0003-00-0002-67.png
00000009,619,0,1441382263774,1441382263843,905,443,0,0,0,1,2,1,12,0001-00-0009-00.png,0002-00-0002-75.png
00000009,620,0,1441382266979,1441382267716,942,336,0,0,0,2,3,1,23,0002-00-0007-05.png,0003-00-0006-72.png
00000009,621,0,1441382270884,1441382271022,1016,289,0,0,0,3,4,1,34,0003-00-0007-11.png,0004-00-0004-40.png
00000009,622,1,1441382274180,1441382274860,930,328,0,0,0,3,2,1,32,0003-00-0002-13.png,0002-00-0004-80.png
00000009,623,1,1441382276131,1441382276211,913,384,0,0,0,5,4,1,54,0005-00-0001-52.png,0004-00-0008-67.png
00000009,624,1,1441382277262,1441382277342,919,411,0,0,0,2,1,1,21,0002-00-0002-32.png,0001-00-0003-13.png
00000009,625,0,1441382278503,1441382278555,913,436,0,0,0,1,2,1,12,0001-00-0009-30.png,0002-00-0008-43.png
00000009,626,1,1441382282061,1441382282662,949,340,0,0,0,3,2,1,32,0003-00-0003-58.png,0002-00-0008-28.png
00000009,627,1,1441382284022,1441382284114,955,389,0,0,0,4,3,1,43,0004-00-0006-97.png,0003-00-0005-47.png
00000009,628,1,1441382285081,1441382285145,906,417,0,0,0,2,1,1,21,0002-00-0000-72.png,0001-00-0005-35.png
00000009,629,0,1441382286117,1441382286185,881,419,0,0,0,4,5,1,45,0004-00-0001-98.png,0005-00-0006-99.png
00000009,630,0,1441382289148,1441382289180,912,460,0,0,0,3,4,1,34,0003-00-0007-20.png,0004-00-0004-76.png
00000009,631,1,1441382292401,1441382293016,450,281,0,0,0,2,3,1,23,0002-00-0006-13.png,0003-00-0005-97.png
00000009,632,1,1441382294294,1441382294385,968,373,0,0,0,5,4,1,54,0005-00-0004-22.png,0004-00-0003-11.png
00000009,633,1,1441382295356,1441382295416,900,396,0,0,0,2,1,1,21,0002-00-0003-67.png,0001-00-0008-96.png
00000009,634,1,1441382296457,1441382296521,894,428,0,0,0,4,3,1,43,0004-00-0002-56.png,0003-00-0004-77.png
00000009,635,0,1441382297490,1441382297534,898,409,0,0,0,1,2,1,12,0001-00-0004-57.png,0002-00-0008-46.png
00000009,636,1,1441382300653,1441382300673,891,357,0,0,0,5,4,1,54,0005-00-0005-89.png,0004-00-0002-10.png
00000009,637,0,1441382301516,1441382301666,883,413,0,0,0,3,4,1,34,0003-00-0009-10.png,0004-00-0007-69.png
00000009,638,1,1441382304849,1441382305499,482,270,0,0,0,4,5,1,45,0004-00-0004-46.png,0005-00-0004-91.png
00000009,639,0,1441382306816,1441382306928,942,383,0,0,0,2,3,1,23,0002-00-0007-13.png,0003-00-0008-10.png
00000009,640,1,1441382310062,1441382310086,913,384,0,0,0,3,2,1,32,0003-00-0002-00.png,0002-00-0009-09.png
00000009,641,1,1441382311207,1441382311247,939,384,0,0,0,4,3,1,43,0004-00-0006-01.png,0003-00-0003-82.png
00000009,642,1,1441382312092,1441382313340,922,350,0,0,0,5,4,1,54,0005-00-0002-12.png,0004-00-0009-69.png
00000009,643,0,1441382314895,1441382314923,912,363,0,0,0,3,4,1,34,0003-00-0007-30.png,0004-00-0007-88.png
00000009,644,1,1441382317873,1441382317949,862,427,0,0,0,2,1,1,21,0002-00-0000-59.png,0001-00-0006-68.png
00000009,645,0,1441382318860,1441382319768,1043,309,0,0,0,1,2,1,12,0001-00-0006-94.png,0002-00-0000-15.png
00000009,646,1,1441382322873,1441382322913,936,328,0,0,0,3,2,1,32,0003-00-0000-67.png,0002-00-0000-47.png
00000009,647,1,1441382323798,1441382324957,381,381,0,0,0,4,5,1,45,0004-00-0002-15.png,0005-00-0003-65.png
00000009,648,0,1441382325797,1441382325876,945,426,0,0,0,2,3,1,23,0002-00-0007-73.png,0003-00-0006-90.png
00000009,649,1,1441382328926,1441382329508,483,267,0,0,0,1,2,1,12,0001-00-0008-77.png,0002-00-0001-41.png
00000009,650,1,1441382330994,1441382331082,913,394,0,0,0,5,4,1,54,0005-00-0005-08.png,0004-00-0000-12.png
00000009,651,0,1441382332145,1441382332217,888,436,0,0,0,2,3,1,23,0002-00-0009-23.png,0003-00-0005-51.png
00000009,652,0,1441382335337,1441382335891,1098,290,0,0,0,3,4,1,34,0003-00-0006-43.png,0004-00-0001-92.png
00000009,653,1,1441382338975,1441382339015,886,384,0,0,0,2,1,1,21,0002-00-0003-82.png,0001-00-0007-32.png
00000009,654,1,1441382339907,1441382340040,913,448,0,0,0,4,3,1,43,0004-00-0009-59.png,0003-00-0009-33.png
00000009,655,1,1441382341509,1441382341644,913,446,0,0,0,3,2,1,32,0003-00-0004-87.png,0002-00-0000-49.png
00000009,656,0,1441382342830,1441382342882,939,451,0,0,0,4,5,1,45,0004-00-0005-36.png,0005-00-0004-17.png
00000009,657,1,1441382345756,1441382346386,914,315,0,0,0,2,1,1,21,0002-00-0009-05.png,0001-00-0007-30.png
00000009,658,0,1441382347769,1441382347829,923,362,0,0,0,1,2,1,12,0001-00-0007-52.png,0002-00-0005-65.png
00000009,659,1,1441382350928,1441382351472,942,324,0,0,0,3,2,1,32,0003-00-0007-19.png,0002-00-0006-93.png
00000009,660,1,1441382352328,1441382353271,510,247,0,0,0,2,3,1,23,0002-00-0003-90.png,0003-00-0002-13.png
00000009,661,1,1441382354288,1441382354336,920,469,0,0,0,5,4,1,54,0005-00-0006-65.png,0004-00-0006-82.png
00000009,662,1,1441382355328,1441382355396,913,462,0,0,0,4,3,1,43,0004-00-0004-32.png,0003-00-0000-30.png
00000009,663,0,1441382356543,1441382356623,939,452,0,0,0,3,4,1,34,0003-00-0000-87.png,0004-00-0005-80.png
00000009,664,1,1441382360071,1441382360718,463,274,0,0,0,4,5,1,45,0004-00-0008-70.png,0005-00-0004-56.png
00000009,665,0,1441382361601,1441382361779,924,436,0,0,0,1,2,1,12,0001-00-0005-36.png,0002-00-0002-51.png
00000009,666,0,1441382371017,1441382371552,1072,327,0,0,0,3,4,1,34,0003-00-0007-34.png,0004-00-0005-42.png
00000009,667,0,1441382374389,1441382374997,353,376,0,0,0,2,1,1,21,0002-00-0008-44.png,0001-00-0000-91.png
00000009,668,0,1441382378132,1441382378633,890,388,0,0,0,2,3,1,23,0002-00-0006-21.png,0003-00-0009-39.png
00000009,669,1,1441382381816,1441382381852,928,384,0,0,0,4,3,1,43,0004-00-0002-74.png,0003-00-0001-00.png
00000009,670,1,1441382382740,1441382382995,930,436,0,0,0,3,2,1,32,0003-00-0005-66.png,0002-00-0002-06.png
00000009,671,0,1441382384592,1441382384620,913,358,0,0,0,4,5,1,45,0004-00-0002-12.png,0005-00-0007-96.png
00000009,672,1,1441382387583,1441382388302,1062,307,0,0,0,5,4,1,54,0005-00-0004-05.png,0004-00-0000-53.png
00000009,673,0,1441382389639,1441382390537,452,290,0,0,0,5,4,1,54,0005-00-0007-85.png,0004-00-0003-15.png
00000009,674,0,1441382394151,1441382394756,979,398,0,0,0,1,2,1,12,0001-00-0002-30.png,0002-00-0007-67.png
00000009,675,0,1441382398544,1441382398556,892,390,0,0,0,2,3,1,23,0002-00-0006-97.png,0003-00-0001-44.png
00000009,676,1,1441382401711,1441382402250,939,347,0,0,0,2,1,1,21,0002-00-0008-75.png,0001-00-0004-72.png
00000009,677,1,1441382403553,1441382403625,865,407,0,0,0,4,3,1,43,0004-00-0003-62.png,0003-00-0006-12.png
00000009,678,1,1441382404512,1441382404580,913,410,0,0,0,3,2,1,32,0003-00-0006-57.png,0002-00-0003-14.png
00000009,679,0,1441382405552,1441382405607,896,411,0,0,0,3,4,1,34,0003-00-0001-89.png,0004-00-0003-16.png
00000009,680,1,1441382408779,1441382409543,484,262,0,0,0,4,5,1,45,0004-00-0009-13.png,0005-00-0004-78.png
00000009,681,1,1441382410826,1441382410972,958,391,0,0,0,4,3,1,43,0004-00-0000-68.png,0003-00-0006-68.png
00000009,682,1,1441382411835,1441382411899,913,398,0,0,0,5,4,1,54,0005-00-0002-41.png,0004-00-0006-16.png
00000009,683,0,1441382412920,1441382412952,921,409,0,0,0,2,3,1,23,0002-00-0000-07.png,0003-00-0006-73.png
00000009,684,0,1441382416069,1441382416641,484,311,0,0,0,2,1,1,21,0002-00-0004-18.png,0001-00-0000-85.png
00000009,685,0,1441382419690,1441382420204,943,351,0,0,0,4,5,1,45,0004-00-0001-83.png,0005-00-0004-17.png
00000009,686,1,1441382423075,1441382423623,376,377,0,0,0,1,2,1,12,0001-00-0003-83.png,0002-00-0000-08.png
00000009,687,1,1441382425146,1441382425206,955,392,0,0,0,3,2,1,32,0003-00-0009-51.png,0002-00-0004-67.png
00000009,688,0,1441382426676,1441382426744,939,421,0,0,0,3,4,1,34,0003-00-0007-58.png,0004-00-0000-23.png
00000009,689,0,1441382429806,1441382430382,1043,278,0,0,0,3,4,1,34,0003-00-0009-98.png,0004-00-0009-56.png
00000009,690,1,1441382433544,1441382433580,905,381,0,0,0,5,4,1,54,0005-00-0003-58.png,0004-00-0005-21.png
00000009,691,0,1441382434546,1441382435644,477,266,0,0,0,3,2,1,32,0003-00-0005-45.png,0002-00-0000-89.png
00000009,692,0,1441382438809,1441382438841,950,356,0,0,0,4,5,1,45,0004-00-0003-62.png,0005-00-0001-76.png
00000009,693,0,1441382441708,1441382442275,949,326,0,0,0,1,2,1,12,0001-00-0006-34.png,0002-00-0006-59.png
00000009,694,0,1441382445479,1441382446010,387,416,0,0,0,2,1,1,21,0002-00-0000-25.png,0001-00-0000-05.png
00000009,695,1,1441382449098,1441382449146,888,425,0,0,0,4,3,1,43,0004-00-0002-76.png,0003-00-0008-28.png
00000009,696,1,1441382449976,1441382450923,400,368,0,0,0,2,3,1,23,0002-00-0001-89.png,0003-00-0004-83.png
00000009,697,0,1441382451797,1441382451837,923,403,0,0,0,2,3,1,23,0002-00-0004-40.png,0003-00-0005-05.png
00000009,698,0,1441382454996,1441382455579,465,281,0,0,0,4,3,1,43,0004-00-0002-19.png,0003-00-0005-90.png
00000009,699,0,1441382458476,1441382458516,897,436,0,0,0,3,4,1,34,0003-00-0003-80.png,0004-00-0000-80.png
00000009,700,1,1441382461597,1441382462129,937,347,0,0,0,5,4,1,54,0005-00-0004-69.png,0004-00-0005-19.png
00000009,701,0,1441382462967,1441382463925,1118,290,0,0,0,1,2,1,12,0001-00-0005-69.png,0002-00-0006-06.png
00000009,702,0,1441382467005,1441382467241,1095,309,0,0,0,4,5,1,45,0004-00-0000-33.png,0005-00-0002-21.png
00000009,703,1,1441382470197,1441382470759,964,339,0,0,0,3,2,1,32,0003-00-0004-93.png,0002-00-0002-57.png
00000009,704,1,1441382472099,1441382472214,911,360,0,0,0,2,1,1,21,0002-00-0000-84.png,0001-00-0008-81.png
00000009,705,0,1441382473254,1441382473346,939,396,0,0,0,1,2,1,12,0001-00-0001-11.png,0002-00-0002-03.png
00000009,706,1,1441382476233,1441382476979,913,351,0,0,0,2,1,1,21,0002-00-0006-70.png,0001-00-0000-55.png
00000009,707,0,1441382478289,1441382478361,939,384,0,0,0,3,4,1,34,0003-00-0007-29.png,0004-00-0008-61.png
00000009,708,1,1441382481401,1441382482023,912,346,0,0,0,3,2,1,32,0003-00-0007-11.png,0002-00-0003-45.png
00000009,709,0,1441382482918,1441382484130,944,337,0,0,0,4,5,1,45,0004-00-0006-02.png,0005-00-0008-58.png
00000009,710,1,1441382487181,1441382487209,884,390,0,0,0,5,4,1,54,0005-00-0005-33.png,0004-00-0004-80.png
00000009,711,1,1441382488078,1441382488919,1042,307,0,0,0,4,3,1,43,0004-00-0004-71.png,0003-00-0008-85.png
00000009,712,0,1441382489808,1441382489869,964,436,0,0,0,2,3,1,23,0002-00-0001-90.png,0003-00-0005-97.png
00000009,713,1,1441382493425,1441382494260,374,347,0,0,0,2,3,1,23,0002-00-0003-85.png,0003-00-0003-69.png
00000009,714,1,1441382495078,1441382495902,356,394,0,0,0,4,5,1,45,0004-00-0003-48.png,0005-00-0000-42.png
00000009,715,1,1441382496795,1441382496867,913,474,0,0,0,3,2,1,32,0003-00-0004-68.png,0002-00-0007-40.png
00000009,716,1,1441382498566,1441382498609,902,413,0,0,0,5,4,1,54,0005-00-0005-39.png,0004-00-0009-18.png
00000009,717,0,1441382499972,1441382500032,960,472,0,0,0,3,4,1,34,0003-00-0007-63.png,0004-00-0007-57.png
00000009,718,1,1441382503223,1441382503264,913,358,0,0,0,2,1,1,21,0002-00-0004-72.png,0001-00-0008-83.png
00000009,719,1,1441382504184,1441382504278,888,420,0,0,0,4,3,1,43,0004-00-0002-95.png,0003-00-0001-87.png
00000009,720,0,1441382505786,1441382505893,929,446,0,0,0,1,2,1,12,0001-00-0005-06.png,0002-00-0001-74.png
00000009,721,1,1441382509013,1441382509559,1094,280,0,0,0,3,2,1,32,0003-00-0008-35.png,0002-00-0004-14.png
00000009,722,0,1441382510806,1441382510894,948,436,0,0,0,2,3,1,23,0002-00-0004-27.png,0003-00-0000-89.png
00000009,723,1,1441382513764,1441382514740,432,267,0,0,0,3,4,1,34,0003-00-0009-81.png,0004-00-0003-45.png
00000009,724,1,1441382516072,1441382516168,964,399,0,0,0,4,3,1,43,0004-00-0004-15.png,0003-00-0003-15.png
00000009,725,1,1441382517083,1441382517182,913,447,0,0,0,2,1,1,21,0002-00-0004-81.png,0001-00-0006-10.png
00000009,726,0,1441382518215,1441382518275,944,440,0,0,0,4,5,1,45,0004-00-0002-81.png,0005-00-0006-70.png
00000009,727,0,1441382521359,1441382521383,893,401,0,0,0,1,2,1,12,0001-00-0003-00.png,0002-00-0000-81.png
00000009,728,1,1441382524507,1441382525074,957,335,0,0,0,5,4,1,54,0005-00-0004-93.png,0004-00-0004-40.png
00000009,729,0,1441382526357,1441382526493,941,382,0,0,0,1,2,1,12,0001-00-0008-24.png,0002-00-0001-25.png
00000009,730,1,1441382529712,1441382529999,988,345,0,0,0,4,3,1,43,0004-00-0002-24.png,0003-00-0005-14.png
00000009,731,0,1441382530857,1441382531891,499,239,0,0,0,3,2,1,32,0003-00-0002-86.png,0002-00-0006-15.png
00000009,732,0,1441382534995,1441382535019,891,356,0,0,0,4,5,1,45,0004-00-0006-63.png,0005-00-0007-76.png
00000009,733,0,1441382538105,1441382538630,940,344,0,0,0,3,4,1,34,0003-00-0009-47.png,0004-00-0009-25.png
00000009,734,0,1441382541802,1441382542432,516,251,0,0,0,5,4,1,54,0005-00-0008-87.png,0004-00-0000-69.png
00000009,735,1,1441382545615,1441382546301,401,410,0,0,0,2,3,1,23,0002-00-0007-36.png,0003-00-0009-71.png
00000009,736,1,1441382547694,1441382547856,948,384,0,0,0,2,1,1,21,0002-00-0007-35.png,0001-00-0001-69.png
00000009,737,0,1441382548696,1441382548768,888,426,0,0,0,3,4,1,34,0003-00-0007-44.png,0004-00-0007-82.png
00000009,738,0,1441382551893,1441382552672,1092,280,0,0,0,1,2,1,12,0001-00-0004-71.png,0002-00-0002-46.png
00000009,739,1,1441382555624,1441382556211,964,323,0,0,0,2,1,1,21,0002-00-0009-03.png,0001-00-0004-40.png
00000009,740,1,1441382557491,1441382557571,939,393,0,0,0,4,3,1,43,0004-00-0009-85.png,0003-00-0001-93.png
00000009,741,1,1441382558461,1441382558536,895,429,0,0,0,3,2,1,32,0003-00-0008-80.png,0002-00-0005-10.png
00000009,742,0,1441382559625,1441382559649,921,416,0,0,0,4,5,1,45,0004-00-0004-49.png,0005-00-0009-57.png
00000009,743,1,1441382562657,1441382563415,1057,279,0,0,0,5,4,1,54,0005-00-0007-36.png,0004-00-0008-92.png
00000009,744,0,1441382564782,1441382564884,941,402,0,0,0,2,3,1,23,0002-00-0006-51.png,0003-00-0000-37.png
00000009,745,1,1441382568024,1441382568809,495,284,0,0,0,1,2,1,12,0001-00-0008-99.png,0002-00-0003-48.png
00000009,746,0,1441382570092,1441382570247,981,384,0,0,0,3,4,1,34,0003-00-0000-39.png,0004-00-0001-55.png
00000009,747,1,1441382573390,1441382573966,1057,306,0,0,0,3,2,1,32,0003-00-0008-53.png,0002-00-0000-00.png
00000009,748,0,1441382575289,1441382575361,962,385,0,0,0,2,3,1,23,0002-00-0008-76.png,0003-00-0001-63.png
00000009,749,1,1441382578356,1441382578911,956,337,0,0,0,2,1,1,21,0002-00-0006-97.png,0001-00-0006-20.png
00000009,750,1,1441382580117,1441382580229,939,426,0,0,0,5,4,1,54,0005-00-0008-99.png,0004-00-0002-41.png
00000009,751,1,1441382581078,1441382581134,913,422,0,0,0,4,3,1,43,0004-00-0004-08.png,0003-00-0005-33.png
00000009,752,0,1441382582222,1441382582265,918,399,0,0,0,4,5,1,45,0004-00-0009-47.png,0005-00-0007-40.png
00000009,753,0,1441382585103,1441382585131,866,457,0,0,0,2,3,1,23,0002-00-0004-23.png,0003-00-0005-40.png
00000009,754,1,1441382588321,1441382588885,925,330,0,0,0,2,1,1,21,0002-00-0006-47.png,0001-00-0001-56.png
00000009,755,1,1441382590105,1441382590229,939,401,0,0,0,4,3,1,43,0004-00-0000-22.png,0003-00-0006-82.png
00000009,756,1,1441382591336,1441382591423,925,410,0,0,0,5,4,1,54,0005-00-0009-41.png,0004-00-0002-95.png
00000009,757,0,1441382592528,1441382592596,913,410,0,0,0,1,2,1,12,0001-00-0006-98.png,0002-00-0006-90.png
00000009,758,0,1441382595450,1441382596007,928,330,0,0,0,3,4,1,34,0003-00-0004-70.png,0004-00-0000-28.png
00000009,759,1,1441382599159,1441382599803,493,267,0,0,0,4,5,1,45,0004-00-0000-03.png,0005-00-0008-50.png
00000009,760,1,1441382600622,1441382601701,936,319,0,0,0,3,2,1,32,0003-00-0002-04.png,0002-00-0001-95.png
00000009,761,0,1441382602584,1441382602824,938,446,0,0,0,3,4,1,34,0003-00-0004-78.png,0004-00-0001-40.png
00000009,762,0,1441382605684,1441382606352,1063,274,0,0,0,2,3,1,23,0002-00-0009-93.png,0003-00-0002-32.png
00000009,763,1,1441382609372,1441382609968,485,274,0,0,0,1,2,1,12,0001-00-0004-91.png,0002-00-0002-77.png
00000009,764,1,1441382611380,1441382611628,954,384,0,0,0,4,3,1,43,0004-00-0009-04.png,0003-00-0007-30.png
00000009,765,1,1441382612662,1441382612710,924,410,0,0,0,2,1,1,21,0002-00-0001-10.png,0001-00-0006-89.png
00000009,766,1,1441382613674,1441382613726,898,410,0,0,0,3,2,1,32,0003-00-0007-10.png,0002-00-0008-92.png
00000009,767,1,1441382614755,1441382614807,913,436,0,0,0,5,4,1,54,0005-00-0001-22.png,0004-00-0001-47.png
00000009,768,0,1441382615938,1441382615970,896,411,0,0,0,4,5,1,45,0004-00-0000-86.png,0005-00-0005-72.png
00000009,769,1,1441382618983,1441382619549,478,271,0,0,0,1,2,1,12,0001-00-0005-64.png,0002-00-0002-25.png
00000009,770,1,1441382620411,1441382621382,472,266,0,0,0,3,4,1,34,0003-00-0003-97.png,0004-00-0002-44.png
00000009,771,1,1441382622278,1441382623279,465,263,0,0,0,4,5,1,45,0004-00-0000-25.png,0005-00-0003-43.png
00000009,772,1,1441382624214,1441382624230,895,453,0,0,0,2,1,1,21,0002-00-0000-26.png,0001-00-0007-83.png
00000009,773,1,1441382625293,1441382625325,911,426,0,0,0,3,2,1,32,0003-00-0003-54.png,0002-00-0000-08.png
00000009,774,0,1441382626396,1441382626432,926,472,0,0,0,2,3,1,23,0002-00-0003-25.png,0003-00-0001-65.png
00000009,775,1,1441382629466,1441382629569,862,445,0,0,0,4,3,1,43,0004-00-0005-34.png,0003-00-0006-68.png
00000009,776,1,1441382630972,1441382631052,938,411,0,0,0,5,4,1,54,0005-00-0005-86.png,0004-00-0000-78.png
00000009,777,1,1441382631918,1441382631970,888,454,0,0,0,3,2,1,32,0003-00-0005-02.png,0002-00-0001-75.png
00000009,778,1,1441382633143,1441382633199,917,446,0,0,0,4,3,1,43,0004-00-0009-86.png,0003-00-0004-05.png
00000009,779,0,1441382634222,1441382634246,887,473,0,0,0,1,2,1,12,0001-00-0002-32.png,0002-00-0000-30.png
00000009,780,0,1441382637416,1441382637440,943,380,0,0,0,3,4,1,34,0003-00-0000-52.png,0004-00-0001-84.png
00000009,781,0,1441382640545,1441382641191,510,270,0,0,0,5,4,1,54,0005-00-0001-34.png,0004-00-0007-12.png
00000009,782,1,1441382644401,1441382645007,435,429,0,0,0,2,3,1,23,0002-00-0004-60.png,0003-00-0005-88.png
00000009,783,1,1441382646331,1441382646498,954,384,0,0,0,2,1,1,21,0002-00-0003-32.png,0001-00-0007-70.png
00000009,784,0,1441382647423,1441382647483,899,436,0,0,0,4,5,1,45,0004-00-0000-03.png,0005-00-0003-68.png
00000009,785,0,1441382650501,1441382651175,939,296,0,0,0,3,4,1,34,0003-00-0009-00.png,0004-00-0008-61.png
00000009,786,1,1441382654309,1441382654920,499,265,0,0,0,2,3,1,23,0002-00-0008-23.png,0003-00-0001-43.png
00000009,787,1,1441382656302,1441382656457,934,406,0,0,0,2,1,1,21,0002-00-0006-61.png,0001-00-0007-03.png
00000009,788,1,1441382657284,1441382657352,913,436,0,0,0,3,2,1,32,0003-00-0008-41.png,0002-00-0009-91.png
00000009,789,0,1441382658687,1441382658747,905,412,0,0,0,4,5,1,45,0004-00-0001-03.png,0005-00-0003-63.png
00000009,790,1,1441382661832,1441382662361,959,314,0,0,0,5,4,1,54,0005-00-0005-00.png,0004-00-0004-88.png
00000009,791,0,1441382663680,1441382663780,939,401,0,0,0,1,2,1,12,0001-00-0006-38.png,0002-00-0002-59.png
00000009,792,0,1441382666829,1441382667541,491,279,0,0,0,4,3,1,43,0004-00-0007-36.png,0003-00-0000-29.png
00000009,793,1,1441382670689,1441382671296,1067,321,0,0,0,4,3,1,43,0004-00-0009-28.png,0003-00-0005-57.png
00000009,794,0,1441382672160,1441382672999,942,339,0,0,0,3,4,1,34,0003-00-0004-37.png,0004-00-0006-94.png
00000009,795,0,1441382676156,1441382676788,1092,279,0,0,0,2,3,1,23,0002-00-0003-59.png,0003-00-0008-80.png
00000009,796,0,1441382679937,1441382680648,983,312,0,0,0,1,2,1,12,0001-00-0001-75.png,0002-00-0007-11.png
00000009,797,1,1441382683810,1441382683851,925,353,0,0,0,3,2,1,32,0003-00-0000-71.png,0002-00-0003-52.png
00000009,798,1,1441382684715,1441382684842,885,460,0,0,0,5,4,1,54,0005-00-0007-86.png,0004-00-0002-89.png
00000009,799,1,1441382685695,1441382685739,864,386,0,0,0,2,1,1,21,0002-00-0001-89.png,0001-00-0009-25.png
00000009,800,0,1441382687805,1441382687840,922,349,0,0,0,4,5,1,45,0004-00-0001-72.png,0005-00-0008-44.png
00000009,801,1,1441382691006,1441382691026,945,333,0,0,0,4,3,1,43,0004-00-0006-53.png,0003-00-0007-58.png
00000009,802,1,1441382691951,1441382692815,376,387,0,0,0,4,5,1,45,0004-00-0009-15.png,0005-00-0004-56.png
00000009,803,0,1441382693655,1441382694823,477,281,0,0,0,2,1,1,21,0002-00-0007-24.png,0001-00-0005-13.png
00000009,804,1,1441382697704,1441382697763,869,402,0,0,0,5,4,1,54,0005-00-0004-81.png,0004-00-0005-14.png
00000009,805,1,1441382698717,1441382699499,334,444,0,0,0,1,2,1,12,0001-00-0001-37.png,0002-00-0005-10.png
00000009,806,1,1441382700392,1441382700464,913,488,0,0,0,3,2,1,32,0003-00-0002-15.png,0002-00-0006-69.png
00000009,807,0,1441382702037,1441382702150,945,478,0,0,0,2,3,1,23,0002-00-0007-84.png,0003-00-0009-14.png
00000009,808,1,1441382705431,1441382705988,393,376,0,0,0,3,4,1,34,0003-00-0000-58.png,0004-00-0007-65.png
00000009,809,0,1441382707311,1441382707453,950,408,0,0,0,4,5,1,45,0004-00-0009-46.png,0005-00-0000-68.png
00000009,810,1,1441382710563,1441382710611,939,398,0,0,0,5,4,1,54,0005-00-0001-67.png,0004-00-0003-89.png
00000009,811,0,1441382711627,1441382712027,990,462,0,0,0,3,4,1,34,0003-00-0004-53.png,0004-00-0004-56.png
00000009,812,1,1441382715214,1441382715838,918,330,0,0,0,3,2,1,32,0003-00-0001-53.png,0002-00-0009-34.png
00000009,813,0,1441382717270,1441382717370,959,387,0,0,0,1,2,1,12,0001-00-0001-50.png,0002-00-0001-56.png
00000009,814,1,1441382720460,1441382720513,926,378,0,0,0,4,3,1,43,0004-00-0009-05.png,0003-00-0008-01.png
00000009,815,1,1441382721391,1441382722274,497,260,0,0,0,2,3,1,23,0002-00-0007-22.png,0003-00-0004-30.png
00000009,816,1,1441382723160,1441382723309,939,462,0,0,0,2,1,1,21,0002-00-0005-23.png,0001-00-0005-31.png
00000009,817,0,1441382724245,1441382724293,913,462,0,0,0,1,2,1,12,0001-00-0003-58.png,0002-00-0007-03.png
00000009,818,0,1441382727376,1441382728061,911,333,0,0,0,3,4,1,34,0003-00-0001-56.png,0004-00-0001-26.png
00000009,819,1,1441382731074,1441382731722,1092,297,0,0,0,4,3,1,43,0004-00-0006-02.png,0003-00-0000-38.png
00000009,820,0,1441382733009,1441382733117,936,417,0,0,0,2,3,1,23,0002-00-0007-66.png,0003-00-0002-13.png
00000009,821,0,1441382736230,1441382736906,497,259,0,0,0,5,4,1,54,0005-00-0002-28.png,0004-00-0005-39.png
00000009,822,1,1441382740077,1441382740722,1094,307,0,0,0,2,1,1,21,0002-00-0001-79.png,0001-00-0006-79.png
00000009,823,1,1441382742093,1441382742324,961,414,0,0,0,3,2,1,32,0003-00-0000-16.png,0002-00-0000-33.png
00000009,824,0,1441382743365,1441382743437,949,440,0,0,0,4,5,1,45,0004-00-0002-09.png,0005-00-0004-48.png
00000009,825,1,1441382746471,1441382746998,1093,284,0,0,0,3,2,1,32,0003-00-0004-68.png,0002-00-0000-03.png
00000009,826,0,1441382748383,1441382748517,934,405,0,0,0,2,3,1,23,0002-00-0006-57.png,0003-00-0006-47.png
00000009,827,1,1441382751481,1441382752162,939,316,0,0,0,5,4,1,54,0005-00-0002-04.png,0004-00-0005-34.png
00000009,828,1,1441382753371,1441382753431,963,408,0,0,0,4,3,1,43,0004-00-0001-90.png,0003-00-0002-21.png
00000009,829,0,1441382754301,1441382754406,939,447,0,0,0,1,2,1,12,0001-00-0006-54.png,0002-00-0000-55.png
00000009,830,1,1441382757581,1441382757613,913,358,0,0,0,2,1,1,21,0002-00-0009-88.png,0001-00-0006-54.png
00000009,831,0,1441382758528,1441382758726,939,442,0,0,0,3,4,1,34,0003-00-0001-19.png,0004-00-0007-17.png
00000009,832,1,1441382761903,1441382762610,478,291,0,0,0,4,5,1,45,0004-00-0004-02.png,0005-00-0003-57.png
00000009,833,0,1441382763484,1441382763560,975,436,0,0,0,4,5,1,45,0004-00-0001-19.png,0005-00-0008-64.png
00000009,834,1,1441382766768,1441382767581,1101,284,0,0,0,2,1,1,21,0002-00-0005-92.png,0001-00-0009-70.png
00000009,835,1,1441382768823,1441382768923,935,412,0,0,0,3,2,1,32,0003-00-0003-19.png,0002-00-0007-27.png
00000009,836,0,1441382769897,1441382770504,922,505,0,0,0,1,2,1,12,0001-00-0002-72.png,0002-00-0001-49.png
00000009,837,1,1441382773739,1441382773791,967,350,0,0,0,5,4,1,54,0005-00-0008-88.png,0004-00-0002-78.png
00000009,838,0,1441382774622,1441382775498,914,356,0,0,0,3,4,1,34,0003-00-0008-09.png,0004-00-0001-86.png
00000009,839,0,1441382778559,1441382778635,934,406,0,0,0,2,3,1,23,0002-00-0003-62.png,0003-00-0006-37.png
00000009,840,1,1441382781811,1441382782361,924,350,0,0,0,4,3,1,43,0004-00-0004-13.png,0003-00-0002-63.png
00000009,841,0,1441382783199,1441382784091,504,276,0,0,0,2,1,1,21,0002-00-0006-58.png,0001-00-0003-82.png
00000009,842,1,1441382787312,1441382787847,950,341,0,0,0,3,2,1,32,0003-00-0009-31.png,0002-00-0006-37.png
00000009,843,1,1441382789244,1441382789344,939,369,0,0,0,5,4,1,54,0005-00-0006-04.png,0004-00-0002-73.png
00000009,844,0,1441382790225,1441382790305,925,436,0,0,0,4,5,1,45,0004-00-0001-94.png,0005-00-0003-37.png
00000009,845,0,1441382793457,1441382794139,963,333,0,0,0,1,2,1,12,0001-00-0009-16.png,0002-00-0000-01.png
00000009,846,0,1441382796970,1441382797566,482,292,0,0,0,4,3,1,43,0004-00-0005-31.png,0003-00-0005-28.png
00000009,847,0,1441382800612,1441382800652,889,384,0,0,0,2,3,1,23,0002-00-0003-18.png,0003-00-0009-16.png
00000009,848,0,1441382803808,1441382803840,939,332,0,0,0,3,4,1,34,0003-00-0002-11.png,0004-00-0008-21.png
00000009,849,0,1441382806729,1441382807426,1073,254,0,0,0,1,2,1,12,0001-00-0002-39.png,0002-00-0003-10.png
00000009,850,1,1441382810410,1441382810422,518,495,0,0,0,3,4,1,34,0003-00-0009-00.png,0004-00-0001-82.png
00000009,851,1,1441382811373,1441382811490,974,436,0,0,0,2,1,1,21,0002-00-0003-74.png,0001-00-0000-14.png
00000009,852,1,1441382813013,1441382813081,937,414,0,0,0,4,3,1,43,0004-00-0008-71.png,0003-00-0007-47.png
00000009,853,0,1441382814067,1441382814127,913,423,0,0,0,2,3,1,23,0002-00-0009-87.png,0003-00-0002-78.png
00000009,854,1,1441382817147,1441382817388,914,360,0,0,0,5,4,1,54,0005-00-0008-13.png,0004-00-0003-32.png
00000009,855,0,1441382818330,1441382818769,991,492,0,0,0,4,5,1,45,0004-00-0006-61.png,0005-00-0007-73.png
00000009,856,1,1441382821987,1441382822538,1089,288,0,0,0,3,2,1,32,0003-00-0008-92.png,0002-00-0005-62.png
00000009,857,0,1441382823846,1441382823914,944,386,0,0,0,1,2,1,12,0001-00-0006-30.png,0002-00-0006-19.png
00000009,858,0,1441382827056,1441382827634,499,285,0,0,0,5,4,1,54,0005-00-0004-65.png,0004-00-0008-77.png
00000009,859,1,1441382830792,1441382831426,936,330,0,0,0,2,1,1,21,0002-00-0009-38.png,0001-00-0001-03.png
00000009,860,1,1441382832709,1441382832761,946,357,0,0,0,3,2,1,32,0003-00-0007-65.png,0002-00-0004-78.png
00000009,861,0,1441382833660,1441382833748,904,462,0,0,0,3,4,1,34,0003-00-0007-08.png,0004-00-0008-55.png
00000009,862,0,1441382836600,1441382837239,512,267,0,0,0,4,3,1,43,0004-00-0008-36.png,0003-00-0005-10.png
00000009,863,0,1441382840381,1441382841036,1117,306,0,0,0,2,3,1,23,0002-00-0008-96.png,0003-00-0004-77.png
00000009,864,0,1441382843885,1441382843955,882,399,0,0,0,4,5,1,45,0004-00-0002-68.png,0005-00-0000-92.png
00000009,865,1,1441382858169,1441382858767,964,396,0,0,0,3,2,1,32,0003-00-0008-43.png,0002-00-0001-43.png
00000009,866,1,1441382859829,1441382859956,936,434,0,0,0,5,4,1,54,0005-00-0008-14.png,0004-00-0004-27.png
00000009,867,0,1441382861423,1441382861490,939,372,0,0,0,1,2,1,12,0001-00-0001-09.png,0002-00-0002-87.png
00000009,868,1,1441382864689,1441382864741,939,332,0,0,0,2,1,1,21,0002-00-0008-96.png,0001-00-0007-24.png
00000009,869,0,1441382865642,1441382865745,873,488,0,0,0,4,5,1,45,0004-00-0001-24.png,0005-00-0007-92.png
00000009,870,0,1441382868662,1441382869209,920,321,0,0,0,3,4,1,34,0003-00-0000-64.png,0004-00-0008-40.png
00000009,871,0,1441382872183,1441382872211,940,406,0,0,0,2,3,1,23,0002-00-0007-35.png,0003-00-0004-33.png
00000009,872,1,1441382875082,1441382875729,923,329,0,0,0,4,3,1,43,0004-00-0006-79.png,0003-00-0006-48.png
00000009,873,0,1441382877062,1441382877134,939,384,0,0,0,3,4,1,34,0003-00-0003-30.png,0004-00-0004-94.png
00000009,874,0,1441382880062,1441382880097,872,389,0,0,0,1,2,1,12,0001-00-0001-21.png,0002-00-0007-69.png
00000009,875,1,1441382883072,1441382883652,943,359,0,0,0,4,3,1,43,0004-00-0004-47.png,0003-00-0005-09.png
00000009,876,1,1441382884478,1441382885587,1086,288,0,0,0,5,4,1,54,0005-00-0007-72.png,0004-00-0009-77.png
00000009,877,1,1441382887136,1441382887212,954,409,0,0,0,2,1,1,21,0002-00-0008-44.png,0001-00-0003-53.png
00000009,878,1,1441382888677,1441382888717,913,410,0,0,0,3,2,1,32,0003-00-0008-92.png,0002-00-0006-18.png
00000009,879,0,1441382889837,1441382889869,911,413,0,0,0,2,3,1,23,0002-00-0006-17.png,0003-00-0003-75.png
00000009,880,0,1441382893017,1441382893049,959,334,0,0,0,4,5,1,45,0004-00-0001-89.png,0005-00-0005-61.png
00000009,881,1,1441382896225,1441382896836,960,339,0,0,0,2,1,1,21,0002-00-0007-53.png,0001-00-0007-55.png
00000009,882,0,1441382897715,1441382898711,481,282,0,0,0,4,3,1,43,0004-00-0005-10.png,0003-00-0008-37.png
00000009,883,0,1441382901675,1441382901715,859,415,0,0,0,4,5,1,45,0004-00-0007-26.png,0005-00-0002-55.png
00000009,884,1,1441382904835,1441382905511,478,267,0,0,0,2,3,1,23,0002-00-0003-24.png,0003-00-0002-94.png
00000009,885,1,1441382906822,1441382906939,950,384,0,0,0,3,2,1,32,0003-00-0009-32.png,0002-00-0004-30.png
00000009,886,1,1441382907814,1441382907858,899,436,0,0,0,5,4,1,54,0005-00-0006-11.png,0004-00-0001-17.png
00000009,887,0,1441382908938,1441382909177,906,469,0,0,0,1,2,1,12,0001-00-0002-34.png,0002-00-0000-96.png
00000009,888,0,1441382912733,1441382913300,965,332,0,0,0,3,4,1,34,0003-00-0009-15.png,0004-00-0008-96.png
00000009,889,1,1441382916153,1441382916888,460,281,0,0,0,3,4,1,34,0003-00-0003-97.png,0004-00-0007-83.png
00000009,890,0,1441382917762,1441382917909,928,462,0,0,0,2,3,1,23,0002-00-0005-43.png,0003-00-0008-40.png
00000009,891,0,1441382920984,1441382921731,478,238,0,0,0,5,4,1,54,0005-00-0004-06.png,0004-00-0007-00.png
00000009,892,0,1441382924751,1441382924919,873,436,0,0,0,1,2,1,12,0001-00-0003-18.png,0002-00-0006-85.png
00000009,893,0,1441382927893,1441382928533,361,388,0,0,0,2,1,1,21,0002-00-0007-05.png,0001-00-0002-34.png
00000009,894,0,1441382931445,1441382931473,890,537,0,0,0,4,5,1,45,0004-00-0002-80.png,0005-00-0000-95.png
00000009,895,1,1441382934406,1441382935024,925,335,0,0,0,4,3,1,43,0004-00-0009-79.png,0003-00-0009-91.png
00000009,896,1,1441382936447,1441382936527,939,343,0,0,0,3,2,1,32,0003-00-0000-44.png,0002-00-0000-93.png
00000009,897,1,1441382937499,1441382937575,931,416,0,0,0,3,2,1,32,0003-00-0008-78.png,0002-00-0009-13.png
00000009,898,1,1441382938603,1441382938665,922,411,0,0,0,2,1,1,21,0002-00-0007-03.png,0001-00-0005-86.png
00000009,899,1,1441382939654,1441382939714,922,412,0,0,0,5,4,1,54,0005-00-0000-50.png,0004-00-0001-50.png
00000009,900,1,1441382940877,1441382940921,936,396,0,0,0,4,3,1,43,0004-00-0009-16.png,0003-00-0002-77.png
00000009,901,0,1441382942118,1441382942190,956,444,0,0,0,2,3,1,23,0002-00-0007-64.png,0003-00-0001-34.png
00000009,902,0,1441382945327,1441382945876,917,346,0,0,0,3,4,1,34,0003-00-0003-15.png,0004-00-0004-98.png
00000009,903,1,1441382948900,1441382949484,480,252,0,0,0,1,2,1,12,0001-00-0005-14.png,0002-00-0004-91.png
00000009,904,1,1441382950309,1441382951151,500,279,0,0,0,4,5,1,45,0004-00-0003-82.png,0005-00-0005-13.png
00000009,905,0,1441382952046,1441382952127,888,420,0,0,0,2,3,1,23,0002-00-0005-90.png,0003-00-0003-84.png
00000009,906,0,1441382955016,1441382955597,924,325,0,0,0,4,5,1,45,0004-00-0000-94.png,0005-00-0007-24.png
00000009,907,0,1441382958784,1441382959581,1094,278,0,0,0,1,2,1,12,0001-00-0006-86.png,0002-00-0005-02.png
00000009,908,0,1441382962423,1441382963618,343,367,0,0,0,2,1,1,21,0002-00-0004-98.png,0001-00-0000-53.png
00000009,909,1,1441382966880,1441382967450,913,351,0,0,0,3,2,1,32,0003-00-0009-09.png,0002-00-0007-00.png
00000009,910,0,1441382968898,1441382968950,927,358,0,0,0,3,4,1,34,0003-00-0004-88.png,0004-00-0009-34.png
00000009,911,1,1441382971881,1441382972654,937,306,0,0,0,4,3,1,43,0004-00-0008-59.png,0003-00-0003-39.png
00000009,912,0,1441382974019,1441382975023,476,259,0,0,0,5,4,1,54,0005-00-0003-27.png,0004-00-0000-35.png
00000009,913,1,1441382978090,1441382978146,913,428,0,0,0,4,3,1,43,0004-00-0006-25.png,0003-00-0008-64.png
00000009,914,0,1441382979650,1441382979702,913,358,0,0,0,3,4,1,34,0003-00-0000-00.png,0004-00-0002-28.png
00000009,915,1,1441382982673,1441382983295,1042,275,0,0,0,5,4,1,54,0005-00-0002-28.png,0004-00-0003-23.png
00000009,916,0,1441382984497,1441382984631,954,410,0,0,0,4,5,1,45,0004-00-0006-17.png,0005-00-0003-71.png
00000009,917,0,1441382987740,1441382988334,897,348,0,0,0,1,2,1,12,0001-00-0000-36.png,0002-00-0004-98.png
00000009,918,0,1441382991318,1441382991953,475,271,0,0,0,3,2,1,32,0003-00-0004-16.png,0002-00-0008-50.png
00000009,919,0,1441382995135,1441382995183,951,366,0,0,0,2,3,1,23,0002-00-0004-10.png,0003-00-0005-48.png
00000009,920,1,1441382998413,1441382998967,946,351,0,0,0,2,1,1,21,0002-00-0000-10.png,0001-00-0006-03.png
00000009,921,0,1441383000302,1441383000468,930,404,0,0,0,4,5,1,45,0004-00-0005-13.png,0005-00-0009-49.png
00000009,922,1,1441383003652,1441383003682,901,384,0,0,0,4,3,1,43,0004-00-0006-16.png,0003-00-0008-50.png
00000009,923,0,1441383005182,1441383005250,939,368,0,0,0,1,2,1,12,0001-00-0006-93.png,0002-00-0000-42.png
00000009,924,1,1441383008496,1441383009062,937,307,0,0,0,5,4,1,54,0005-00-0006-28.png,0004-00-0006-41.png
00000009,925,1,1441383009916,1441383010850,947,339,0,0,0,3,2,1,32,0003-00-0000-63.png,0002-00-0006-77.png
00000009,926,1,1441383011706,1441383011810,964,436,0,0,0,2,1,1,21,0002-00-0008-91.png,0001-00-0002-25.png
00000009,927,0,1441383013704,1441383013795,913,453,0,0,0,3,4,1,34,0003-00-0000-83.png,0004-00-0004-33.png
00000009,928,1,1441383016917,1441383017547,397,378,0,0,0,2,3,1,23,0002-00-0005-44.png,0003-00-0006-02.png
00000009,929,1,1441383018945,1441383019017,933,386,0,0,0,3,2,1,32,0003-00-0000-70.png,0002-00-0004-01.png
00000009,930,0,1441383019984,1441383020044,878,432,0,0,0,2,3,1,23,0002-00-0001-91.png,0003-00-0008-75.png
00000009,931,0,1441383023246,1441383023258,904,370,0,0,0,4,5,1,45,0004-00-0003-89.png,0005-00-0008-37.png
00000009,932,1,1441383026474,1441383027140,466,272,0,0,0,3,4,1,34,0003-00-0001-07.png,0004-00-0000-71.png
00000009,933,0,1441383028431,1441383028519,913,369,0,0,0,1,2,1,12,0001-00-0004-93.png,0002-00-0005-21.png
00000009,934,1,1441383031691,1441383031723,967,344,0,0,0,2,1,1,21,0002-00-0002-83.png,0001-00-0001-02.png
00000009,935,1,1441383033013,1441383033179,932,410,0,0,0,5,4,1,54,0005-00-0008-48.png,0004-00-0005-37.png
00000009,936,1,1441383034164,1441383034208,896,410,0,0,0,4,3,1,43,0004-00-0001-04.png,0003-00-0009-01.png
00000009,937,1,1441383035387,1441383035439,897,413,0,0,0,2,1,1,21,0002-00-0004-34.png,0001-00-0007-85.png
00000009,938,1,1441383036479,1441383036523,897,410,0,0,0,3,2,1,32,0003-00-0002-33.png,0002-00-0007-01.png
00000009,939,1,1441383037781,1441383037825,892,417,0,0,0,5,4,1,54,0005-00-0008-83.png,0004-00-0008-29.png
00000009,940,0,1441383038995,1441383039035,881,424,0,0,0,3,4,1,34,0003-00-0007-19.png,0004-00-0009-85.png
00000009,941,1,1441383042162,1441383042787,481,275,0,0,0,4,5,1,45,0004-00-0002-18.png,0005-00-0004-88.png
