subject_id,trial,correct_response,stim_time,response_time,x_coord,y_coord,trial_timeout,timeout_time,interTrial_timeout,left_rank,right_rank,distance,joint_rank,left_image,right_image
00000009,1,0,1441898493005,1441898493675,945,401,0,0,0,4,5,1,45,0004-00-0003-55.png,0005-00-0000-07.png
00000009,2,1,1441898497045,1441898497550,1072,291,0,0,0,3,2,1,32,0003-00-0004-13.png,0002-00-0000-20.png
00000009,3,1,1441898498618,1441898498654,897,294,0,0,0,2,1,1,21,0002-00-0002-73.png,0001-00-0005-21.png
00000009,4,0,1441898499968,1441898500484,984,351,0,0,0,1,2,1,12,0001-00-0005-74.png,0002-00-0001-14.png
00000009,5,1,1441898503616,1441898504214,314,388,0,0,0,2,3,1,23,0002-00-0008-00.png,0003-00-0001-31.png
00000009,6,1,1441898505364,1441898505868,1093,303,0,0,0,5,4,1,54,0005-00-0000-97.png,0004-00-0001-48.png
00000009,7,0,1441898507103,1441898507755,319,369,0,0,0,4,3,1,43,0004-00-0005-49.png,0003-00-0000-66.png
00000009,8,0,1441898511155,1441898511662,987,381,0,0,0,3,4,1,34,0003-00-0008-73.png,0004-00-0002-29.png
00000009,9,1,1441898515471,1441898516091,329,407,0,0,0,1,2,1,12,0001-00-0005-11.png,0002-00-0001-63.png
00000009,10,1,1441898517191,1441898517259,970,453,0,0,0,4,3,1,43,0004-00-0006-45.png,0003-00-0009-81.png
00000009,11,1,1441898518835,1441898519110,453,279,0,0,0,2,3,1,23,0002-00-0008-39.png,0003-00-0002-73.png
00000009,12,1,1441898520332,1441898520400,935,392,0,0,0,2,1,1,21,0002-00-0000-60.png,0001-00-0009-76.png
00000009,13,1,1441898521416,1441898522316,349,406,0,0,0,4,5,1,45,0004-00-0007-26.png,0005-00-0002-46.png
00000009,14,1,1441898529642,1441898529646,873,302,0,0,0,3,2,1,32,0003-00-0009-15.png,0002-00-0005-50.png
00000009,15,1,1441898530875,1441898530911,873,305,0,0,0,5,4,1,54,0005-00-0004-72.png,0004-00-0002-08.png
00000009,16,0,1441898532187,1441898532219,952,540,0,0,0,3,4,1,34,0003-00-0007-07.png,0004-00-0003-94.png
00000009,17,1,1441898535765,1441898536000,346,439,0,0,0,1,2,1,12,0001-00-0003-44.png,0002-00-0009-25.png
00000009,18,0,1441898538747,1441898538791,940,501,0,0,0,2,3,1,23,0002-00-0005-17.png,0003-00-0009-73.png
00000009,19,1,1441898547025,1441898547033,409,351,0,0,0,3,4,1,34,0003-00-0000-03.png,0004-00-0009-88.png
00000009,20,1,1441898548420,1441898549109,1086,337,0,0,0,5,4,1,54,0005-00-0004-66.png,0004-00-0004-28.png
00000009,21,0,1441898557619,1441898557659,478,265,0,0,0,3,2,1,32,0003-00-0007-61.png,0002-00-0007-85.png
00000009,22,0,1441898574142,1441898574161,514,358,0,0,0,4,3,1,43,0004-00-0006-17.png,0003-00-0002-29.png
00000009,23,1,1441898579344,1441898579440,992,539,0,0,0,2,1,1,21,0002-00-0000-15.png,0001-00-0004-44.png
00000009,24,0,1441898580365,1441898580433,918,563,0,0,0,4,5,1,45,0004-00-0009-97.png,0005-00-0000-07.png
00000009,25,1,1441898583338,1441898583374,511,282,0,0,0,4,5,1,45,0004-00-0003-37.png,0005-00-0005-95.png
00000009,26,0,1441898584838,1441898584914,888,358,0,0,0,1,2,1,12,0001-00-0004-14.png,0002-00-0000-00.png
00000009,27,0,1441898588224,1441898589072,987,356,0,0,0,3,4,1,34,0003-00-0007-89.png,0004-00-0007-78.png
00000009,28,1,1441898593146,1441898593868,936,305,0,0,0,4,3,1,43,0004-00-0002-69.png,0003-00-0009-64.png
00000009,29,0,1441898595272,1441898595810,436,277,0,0,0,2,1,1,21,0002-00-0009-44.png,0001-00-0007-30.png
00000009,30,1,1441898599295,1441898599774,1013,305,0,0,0,5,4,1,54,0005-00-0004-84.png,0004-00-0008-11.png
00000009,31,1,1441898600776,1441898600828,1041,446,0,0,0,3,2,1,32,0003-00-0009-71.png,0002-00-0006-96.png
00000009,32,0,1441898601751,1441898601791,899,384,0,0,0,2,3,1,23,0002-00-0002-79.png,0003-00-0008-11.png
00000009,33,1,1441898605241,1441898609244,201,252,0,0,0,4,5,1,45,0004-00-0006-94.png,0005-00-0006-85.png
00000009,34,0,1441898610986,1441898611006,891,374,0,0,0,1,2,1,12,0001-00-0003-45.png,0002-00-0002-28.png
00000009,35,1,1441898618140,1441898618727,1058,350,0,0,0,5,4,1,54,0005-00-0004-69.png,0004-00-0000-35.png
00000009,36,1,1441898619969,1441898620028,965,513,0,0,0,2,1,1,21,0002-00-0009-54.png,0001-00-0003-72.png
00000009,37,0,1441898621954,1441898621994,897,272,0,0,0,2,3,1,23,0002-00-0000-14.png,0003-00-0000-93.png
00000009,38,0,1441898626200,1441898626372,1060,341,0,0,0,3,4,1,34,0003-00-0003-79.png,0004-00-0000-56.png
00000009,39,1,1441898630693,1441898631265,897,336,0,0,0,3,2,1,32,0003-00-0005-19.png,0002-00-0001-22.png
00000009,40,1,1441898633351,1441898633391,887,276,0,0,0,4,3,1,43,0004-00-0004-93.png,0003-00-0006-27.png
00000009,41,0,1441898634308,1441898635164,1017,297,0,0,0,4,5,1,45,0004-00-0006-68.png,0005-00-0002-11.png
00000009,42,0,1441898651504,1441898651512,504,358,0,0,0,3,2,1,32,0003-00-0009-91.png,0002-00-0003-25.png
00000009,43,1,1441898656595,1441898657404,1071,297,0,0,0,2,1,1,21,0002-00-0000-73.png,0001-00-0000-11.png
00000009,44,0,1441898658543,1441898658603,858,414,0,0,0,1,2,1,12,0001-00-0001-93.png,0002-00-0005-02.png
00000009,45,1,1441898665200,1441898665806,990,397,0,0,0,4,3,1,43,0004-00-0008-02.png,0003-00-0002-74.png
00000009,46,1,1441898666709,1441898666717,493,562,0,0,0,2,3,1,23,0002-00-0008-40.png,0003-00-0002-22.png
00000009,47,0,1441898667934,1441898668981,873,384,0,0,0,3,4,1,34,0003-00-0000-08.png,0004-00-0005-60.png
00000009,48,1,1441898677680,1441898678248,1067,327,0,0,0,5,4,1,54,0005-00-0000-70.png,0004-00-0006-08.png
00000009,49,1,1441898679103,1441898679340,1206,500,0,0,0,5,4,1,54,0005-00-0003-06.png,0004-00-0004-15.png
00000009,50,1,1441898680644,1441898682516,315,413,0,0,0,3,4,1,34,0003-00-0007-67.png,0004-00-0002-59.png
00000009,51,1,1441898683437,1441898684404,1114,270,0,0,0,2,1,1,21,0002-00-0001-34.png,0001-00-0008-02.png
00000009,52,1,1441898685624,1441898686102,1069,298,0,0,0,4,3,1,43,0004-00-0001-65.png,0003-00-0003-46.png
00000009,53,1,1441898687118,1441898687558,1008,479,0,0,0,3,2,1,32,0003-00-0008-28.png,0002-00-0008-34.png
00000009,54,1,1441898688802,1441898689438,325,295,0,0,0,2,3,1,23,0002-00-0002-49.png,0003-00-0006-80.png
00000009,55,0,1441898690838,1441898691387,992,298,0,0,0,4,5,1,45,0004-00-0002-16.png,0005-00-0007-44.png
00000009,56,1,1441898708274,1441898729514,394,387,0,0,0,1,2,1,12,0001-00-0003-36.png,0002-00-0000-41.png
00000009,57,1,1441898730869,1441898731358,245,438,0,0,0,2,3,1,23,0002-00-0003-33.png,0003-00-0001-86.png
00000009,58,0,1441898746209,1441898746217,859,505,0,0,0,3,4,1,34,0003-00-0004-77.png,0004-00-0001-99.png
00000009,59,0,1441898827413,1441898827582,401,304,0,0,0,3,2,1,32,0003-00-0002-41.png,0002-00-0003-58.png
00000009,60,0,1441898936842,1441898938338,316,384,0,0,0,2,1,1,21,0002-00-0002-99.png,0001-00-0002-60.png
00000009,61,0,1441898941726,1441898942798,319,403,0,0,0,4,3,1,43,0004-00-0006-72.png,0003-00-0002-03.png
00000009,62,0,1441898946089,1441898946982,997,352,0,0,0,4,5,1,45,0004-00-0002-79.png,0005-00-0008-56.png
00000009,63,1,1441898950292,1441898950957,313,363,0,0,0,1,2,1,12,0001-00-0007-53.png,0002-00-0007-48.png
00000009,64,1,1441898957049,1441898957196,913,350,0,0,0,5,4,1,54,0005-00-0001-31.png,0004-00-0004-36.png
00000009,65,0,1441898958398,1441898958592,391,268,0,0,0,4,3,1,43,0004-00-0004-41.png,0003-00-0000-47.png
00000009,66,0,1441898962117,1441898962310,1041,436,0,0,0,1,2,1,12,0001-00-0009-42.png,0002-00-0005-22.png
00000009,67,0,1441899066777,1441899133427,1099,317,0,0,0,2,3,1,23,0002-00-0002-11.png,0003-00-0000-81.png
00000009,68,1,1441899139255,1441899139820,1010,346,0,0,0,3,2,1,32,0003-00-0003-60.png,0002-00-0002-62.png
00000009,69,1,1441899144671,1441899144759,993,252,0,0,0,2,1,1,21,0002-00-0005-96.png,0001-00-0001-98.png
00000009,70,1,1441899147145,1441899147808,344,426,0,0,0,4,5,1,45,0004-00-0000-09.png,0005-00-0003-46.png
00000009,71,0,1441899148755,1441899149654,1050,278,0,0,0,3,4,1,34,0003-00-0004-64.png,0004-00-0005-48.png
00000009,72,1,1441899153137,1441899153181,877,274,0,0,0,5,4,1,54,0005-00-0000-90.png,0004-00-0000-48.png
00000009,73,0,1441899154170,1441899154890,928,306,0,0,0,3,4,1,34,0003-00-0009-39.png,0004-00-0009-14.png
00000009,74,0,1441899158332,1441899158617,926,296,0,0,0,1,2,1,12,0001-00-0006-56.png,0002-00-0003-91.png
00000009,75,1,1441899161504,1441899162147,480,349,0,0,0,4,5,1,45,0004-00-0002-09.png,0005-00-0007-63.png
00000009,76,1,1441899163113,1441899163201,964,424,0,0,0,5,4,1,54,0005-00-0002-81.png,0004-00-0007-29.png
00000009,77,1,1441899165040,1441899165080,900,335,0,0,0,4,3,1,43,0004-00-0003-42.png,0003-00-0002-68.png
00000009,78,1,1441899166790,1441899166810,881,390,0,0,0,3,2,1,32,0003-00-0003-62.png,0002-00-0008-38.png
00000009,79,1,1441899168616,1441899168644,886,357,0,0,0,2,1,1,21,0002-00-0002-22.png,0001-00-0008-15.png
00000009,80,0,1441899170436,1441899170496,905,366,0,0,0,2,3,1,23,0002-00-0003-68.png,0003-00-0005-56.png
00000009,81,0,1441899173447,1441899174705,998,362,0,0,0,3,4,1,34,0003-00-0004-16.png,0004-00-0009-77.png
00000009,82,1,1441899177901,1441899178313,1016,501,0,0,0,3,2,1,32,0003-00-0001-01.png,0002-00-0001-48.png
00000009,83,0,1441899179669,1441899180688,482,244,0,0,0,2,1,1,21,0002-00-0002-66.png,0001-00-0001-12.png
00000009,84,0,1441899183945,1441899184435,1073,377,0,0,0,1,2,1,12,0001-00-0005-44.png,0002-00-0001-62.png
00000009,85,1,1441899187390,1441899187981,458,294,0,0,0,4,5,1,45,0004-00-0000-78.png,0005-00-0007-66.png
00000009,86,1,1441899188873,1441899188965,872,397,0,0,0,4,3,1,43,0004-00-0000-69.png,0003-00-0008-95.png
00000009,87,1,1441899190430,1441899191325,409,411,0,0,0,2,3,1,23,0002-00-0000-67.png,0003-00-0001-40.png
00000009,88,1,1441899192390,1441899193499,943,394,0,0,0,5,4,1,54,0005-00-0007-63.png,0004-00-0009-72.png
00000009,89,1,1441899194356,1441899194455,902,410,0,0,0,4,3,1,43,0004-00-0004-93.png,0003-00-0003-15.png
00000009,90,1,1441899195857,1441899196755,438,266,0,0,0,4,5,1,45,0004-00-0006-07.png,0005-00-0000-04.png
00000009,91,1,1441899197787,1441899199005,974,343,0,0,0,5,4,1,54,0005-00-0004-67.png,0004-00-0004-14.png
00000009,92,1,1441899199850,1441899201081,409,390,0,0,0,1,2,1,12,0001-00-0006-87.png,0002-00-0004-76.png
00000009,93,0,1441899202081,1441899202994,470,268,0,0,0,3,2,1,32,0003-00-0008-05.png,0002-00-0009-31.png
00000009,94,0,1441899206121,1441899206738,490,227,0,0,0,2,1,1,21,0002-00-0008-63.png,0001-00-0006-71.png
00000009,95,1,1441899209809,1441899210438,472,275,0,0,0,3,4,1,34,0003-00-0008-54.png,0004-00-0006-90.png
00000009,96,0,1441899211278,1441899212340,971,339,0,0,0,2,3,1,23,0002-00-0004-73.png,0003-00-0008-13.png
00000009,97,1,1441899215485,1441899216079,963,366,0,0,0,3,2,1,32,0003-00-0000-41.png,0002-00-0008-26.png
00000009,98,1,1441899217539,1441899217607,888,344,0,0,0,2,1,1,21,0002-00-0008-00.png,0001-00-0006-23.png
00000009,99,1,1441899218829,1441899218861,883,374,0,0,0,5,4,1,54,0005-00-0009-16.png,0004-00-0008-92.png
00000009,100,0,1441899220333,1441899220369,890,373,0,0,0,1,2,1,12,0001-00-0004-94.png,0002-00-0007-34.png
00000009,101,1,1441899223581,1441899223804,984,314,0,0,0,4,3,1,43,0004-00-0002-16.png,0003-00-0001-52.png
00000009,102,0,1441899224813,1441899224885,870,409,0,0,0,2,3,1,23,0002-00-0009-17.png,0003-00-0006-21.png
00000009,103,0,1441899228044,1441899228241,862,410,0,0,0,4,5,1,45,0004-00-0006-18.png,0005-00-0006-79.png
00000009,104,0,1441899231185,1441899231893,1154,267,0,0,0,3,4,1,34,0003-00-0009-44.png,0004-00-0007-39.png
00000009,105,1,1441899234973,1441899235716,477,281,0,0,0,4,5,1,45,0004-00-0002-27.png,0005-00-0006-06.png
00000009,106,0,1441899236569,1441899236639,891,367,0,0,0,2,3,1,23,0002-00-0004-25.png,0003-00-0004-87.png
00000009,107,1,1441899239662,1441899240357,353,381,0,0,0,3,4,1,34,0003-00-0002-73.png,0004-00-0002-85.png
00000009,108,1,1441899241201,1441899241293,918,375,0,0,0,2,1,1,21,0002-00-0000-21.png,0001-00-0005-90.png
00000009,109,1,1441899242372,1441899242424,894,350,0,0,0,5,4,1,54,0005-00-0006-46.png,0004-00-0000-76.png
00000009,110,0,1441899243864,1441899243900,876,399,0,0,0,1,2,1,12,0001-00-0000-93.png,0002-00-0009-60.png
00000009,111,1,1441899246884,1441899246952,994,430,0,0,0,3,2,1,32,0003-00-0006-28.png,0002-00-0006-74.png
00000009,112,1,1441899247808,1441899247890,888,369,0,0,0,4,3,1,43,0004-00-0005-52.png,0003-00-0006-59.png
00000009,113,0,1441899249032,1441899249068,872,400,0,0,0,3,4,1,34,0003-00-0009-04.png,0004-00-0000-19.png
00000009,114,0,1441899252230,1441899252278,951,325,0,0,0,1,2,1,12,0001-00-0003-57.png,0002-00-0005-58.png
00000009,115,1,1441899255442,1441899256042,507,226,0,0,0,2,3,1,23,0002-00-0001-09.png,0003-00-0006-71.png
00000009,116,1,1441899257545,1441899257577,869,336,0,0,0,5,4,1,54,0005-00-0000-21.png,0004-00-0009-73.png
00000009,117,0,1441899258797,1441899258837,871,357,0,0,0,4,5,1,45,0004-00-0000-57.png,0005-00-0008-62.png
00000009,118,1,1441899261967,1441899262662,1088,272,0,0,0,3,2,1,32,0003-00-0009-15.png,0002-00-0002-45.png
00000009,119,1,1441899264007,1441899264177,913,332,0,0,0,4,3,1,43,0004-00-0002-04.png,0003-00-0001-32.png
00000009,120,1,1441899265309,1441899265373,873,384,0,0,0,2,1,1,21,0002-00-0007-41.png,0001-00-0005-59.png
00000009,121,0,1441899266488,1441899266559,888,415,0,0,0,1,2,1,12,0001-00-0003-67.png,0002-00-0006-66.png
00000009,122,1,1441899269581,1441899270265,934,327,0,0,0,3,2,1,32,0003-00-0007-46.png,0002-00-0006-04.png
00000009,123,0,1441899271589,1441899271712,913,348,0,0,0,2,3,1,23,0002-00-0004-99.png,0003-00-0007-55.png
00000009,124,0,1441899274838,1441899275443,463,279,0,0,0,2,1,1,21,0002-00-0001-36.png,0001-00-0006-06.png
00000009,125,0,1441899279461,1441899280058,1078,297,0,0,0,3,4,1,34,0003-00-0009-67.png,0004-00-0005-74.png
00000009,126,1,1441899283186,1441899283905,453,243,0,0,0,4,5,1,45,0004-00-0003-85.png,0005-00-0007-35.png
00000009,127,1,1441899285281,1441899285452,913,342,0,0,0,5,4,1,54,0005-00-0009-97.png,0004-00-0005-59.png
00000009,128,1,1441899286594,1441899286634,883,400,0,0,0,4,3,1,43,0004-00-0002-87.png,0003-00-0006-04.png
00000009,129,1,1441899287894,1441899287946,877,406,0,0,0,3,2,1,32,0003-00-0000-40.png,0002-00-0008-74.png
00000009,130,0,1441899289167,1441899289195,872,393,0,0,0,4,5,1,45,0004-00-0005-37.png,0005-00-0004-49.png
00000009,131,1,1441899292369,1441899292931,342,386,0,0,0,1,2,1,12,0001-00-0003-80.png,0002-00-0008-12.png
00000009,132,1,1441899294376,1441899295458,932,365,0,0,0,4,3,1,43,0004-00-0000-12.png,0003-00-0003-10.png
00000009,133,1,1441899296839,1441899296955,913,374,0,0,0,2,1,1,21,0002-00-0009-99.png,0001-00-0003-78.png
00000009,134,1,1441899298040,1441899298072,869,401,0,0,0,5,4,1,54,0005-00-0000-49.png,0004-00-0007-82.png
00000009,135,0,1441899299224,1441899299280,897,388,0,0,0,3,4,1,34,0003-00-0007-01.png,0004-00-0003-31.png
00000009,136,0,1441899302154,1441899302186,888,425,0,0,0,2,3,1,23,0002-00-0003-33.png,0003-00-0005-72.png
00000009,137,1,1441899305316,1441899305915,954,349,0,0,0,4,3,1,43,0004-00-0000-66.png,0003-00-0004-14.png
00000009,138,0,1441899307203,1441899307466,964,341,0,0,0,4,5,1,45,0004-00-0003-84.png,0005-00-0004-04.png
00000009,139,1,1441899310662,1441899311223,478,358,0,0,0,1,2,1,12,0001-00-0005-14.png,0002-00-0001-03.png
00000009,140,0,1441899312430,1441899313113,440,266,0,0,0,5,4,1,54,0005-00-0005-31.png,0004-00-0007-79.png
00000009,141,1,1441899316247,1441899316812,1059,298,0,0,0,2,1,1,21,0002-00-0006-06.png,0001-00-0009-96.png
00000009,142,0,1441899318134,1441899318308,967,328,0,0,0,2,3,1,23,0002-00-0005-87.png,0003-00-0001-31.png
00000009,143,1,1441899321801,1441899322304,949,350,0,0,0,3,2,1,32,0003-00-0001-20.png,0002-00-0003-86.png
00000009,144,0,1441899324463,1441899325000,1046,276,0,0,0,3,4,1,34,0003-00-0008-32.png,0004-00-0004-04.png
00000009,145,1,1441899328153,1441899329305,1070,302,0,0,0,4,3,1,43,0004-00-0009-46.png,0003-00-0000-99.png
00000009,146,0,1441899330715,1441899330854,950,376,0,0,0,4,5,1,45,0004-00-0004-75.png,0005-00-0000-01.png
00000009,147,1,1441899333985,1441899334503,931,359,0,0,0,5,4,1,54,0005-00-0005-42.png,0004-00-0003-84.png
00000009,148,0,1441899335822,1441899336016,935,369,0,0,0,2,3,1,23,0002-00-0000-99.png,0003-00-0009-91.png
00000009,149,1,1441899339111,1441899339644,1097,319,0,0,0,3,2,1,32,0003-00-0003-29.png,0002-00-0009-20.png
00000009,150,0,1441899341051,1441899341791,1096,268,0,0,0,3,4,1,34,0003-00-0003-12.png,0004-00-0001-69.png
00000009,151,0,1441899344889,1441899345643,465,241,0,0,0,2,1,1,21,0002-00-0000-62.png,0001-00-0003-26.png
00000009,152,1,1441899348820,1441899349366,419,337,0,0,0,1,2,1,12,0001-00-0002-53.png,0002-00-0009-08.png
00000009,153,1,1441899350222,1441899350309,871,427,0,0,0,2,1,1,21,0002-00-0005-65.png,0001-00-0009-45.png
00000009,154,0,1441899351726,1441899351795,897,384,0,0,0,1,2,1,12,0001-00-0001-39.png,0002-00-0004-29.png
00000009,155,1,1441899354955,1441899354991,961,359,0,0,0,3,2,1,32,0003-00-0008-41.png,0002-00-0008-16.png
00000009,156,1,1441899355925,1441899356021,892,444,0,0,0,5,4,1,54,0005-00-0003-09.png,0004-00-0001-21.png
00000009,157,0,1441899357477,1441899357565,877,410,0,0,0,2,3,1,23,0002-00-0005-47.png,0003-00-0004-00.png
00000009,158,1,1441899360628,1441899361854,383,279,0,0,0,4,5,1,45,0004-00-0003-11.png,0005-00-0002-56.png
00000009,159,0,1441899362712,1441899362808,862,410,0,0,0,3,4,1,34,0003-00-0008-57.png,0004-00-0004-19.png
00000009,160,1,1441899365964,1441899366000,992,356,0,0,0,4,3,1,43,0004-00-0006-46.png,0003-00-0006-42.png
00000009,161,0,1441899366925,1441899367021,872,410,0,0,0,4,5,1,45,0004-00-0007-53.png,0005-00-0007-26.png
00000009,162,1,1441899370552,1441899371250,981,332,0,0,0,5,4,1,54,0005-00-0004-05.png,0004-00-0002-03.png
00000009,163,1,1441899372079,1441899372929,460,279,0,0,0,1,2,1,12,0001-00-0005-46.png,0002-00-0002-24.png
00000009,164,1,1441899373874,1441899373926,899,388,0,0,0,4,3,1,43,0004-00-0000-08.png,0003-00-0005-45.png
00000009,165,0,1441899374745,1441899375091,897,488,0,0,0,3,4,1,34,0003-00-0009-95.png,0004-00-0000-45.png
00000009,166,1,1441899377954,1441899378026,939,384,0,0,0,2,1,1,21,0002-00-0003-16.png,0001-00-0000-11.png
00000009,167,0,1441899378922,1441899379081,888,476,0,0,0,2,3,1,23,0002-00-0008-17.png,0003-00-0009-50.png
00000009,168,1,1441899382001,1441899382591,920,347,0,0,0,3,2,1,32,0003-00-0000-28.png,0002-00-0003-70.png
00000009,169,1,1441899383957,1441899384100,939,384,0,0,0,3,2,1,32,0003-00-0006-65.png,0002-00-0001-85.png
00000009,170,1,1441899385253,1441899385340,917,437,0,0,0,5,4,1,54,0005-00-0005-71.png,0004-00-0007-65.png
00000009,171,1,1441899386451,1441899386495,889,419,0,0,0,2,1,1,21,0002-00-0006-67.png,0001-00-0000-28.png
00000009,172,1,1441899387773,1441899387813,903,410,0,0,0,4,3,1,43,0004-00-0005-40.png,0003-00-0007-06.png
00000009,173,0,1441899389383,1441899389423,891,400,0,0,0,4,5,1,45,0004-00-0000-23.png,0005-00-0002-96.png
00000009,174,1,1441899392704,1441899393299,435,296,0,0,0,2,3,1,23,0002-00-0008-75.png,0003-00-0004-46.png
00000009,175,0,1441899394139,1441899394259,948,395,0,0,0,3,4,1,34,0003-00-0005-83.png,0004-00-0005-89.png
00000009,176,1,1441899397792,1441899398335,437,287,0,0,0,1,2,1,12,0001-00-0002-25.png,0002-00-0000-47.png
00000009,177,0,1441899399687,1441899399872,939,347,0,0,0,1,2,1,12,0001-00-0006-52.png,0002-00-0003-32.png
00000009,178,1,1441899402780,1441899403475,435,273,0,0,0,2,3,1,23,0002-00-0006-23.png,0003-00-0008-79.png
00000009,179,1,1441899404304,1441899404348,870,407,0,0,0,2,1,1,21,0002-00-0006-55.png,0001-00-0002-80.png
00000009,180,1,1441899405628,1441899405696,900,426,0,0,0,5,4,1,54,0005-00-0003-35.png,0004-00-0009-46.png
00000009,181,0,1441899406823,1441899406871,870,410,0,0,0,4,5,1,45,0004-00-0005-64.png,0005-00-0009-52.png
00000009,182,1,1441899409725,1441899409788,885,457,0,0,0,3,2,1,32,0003-00-0002-88.png,0002-00-0003-48.png
00000009,183,1,1441899410730,1441899410798,906,412,0,0,0,4,3,1,43,0004-00-0005-08.png,0003-00-0001-07.png
00000009,184,0,1441899411880,1441899411971,888,422,0,0,0,3,4,1,34,0003-00-0005-46.png,0004-00-0001-49.png
00000009,185,1,1441899415130,1441899415386,946,318,0,0,0,3,2,1,32,0003-00-0009-29.png,0002-00-0005-29.png
00000009,186,1,1441899416332,1441899416380,888,450,0,0,0,2,1,1,21,0002-00-0003-13.png,0001-00-0005-54.png
00000009,187,0,1441899417822,1441899417894,862,436,0,0,0,4,5,1,45,0004-00-0000-47.png,0005-00-0000-69.png
00000009,188,1,1441899420763,1441899421404,443,273,0,0,0,1,2,1,12,0001-00-0009-64.png,0002-00-0003-15.png
00000009,189,1,1441899422723,1441899422791,904,358,0,0,0,4,3,1,43,0004-00-0004-23.png,0003-00-0005-59.png
00000009,190,0,1441899423943,1441899424007,898,434,0,0,0,2,3,1,23,0002-00-0009-38.png,0003-00-0002-36.png
00000009,191,0,1441899427153,1441899427836,342,403,0,0,0,5,4,1,54,0005-00-0007-94.png,0004-00-0006-74.png
00000009,192,0,1441899430943,1441899430967,925,378,0,0,0,3,4,1,34,0003-00-0008-40.png,0004-00-0000-14.png
00000009,193,0,1441899434037,1441899434558,914,359,0,0,0,3,4,1,34,0003-00-0002-36.png,0004-00-0005-03.png
00000009,194,0,1441899437708,1441899438349,475,290,0,0,0,2,1,1,21,0002-00-0006-11.png,0001-00-0004-62.png
00000009,195,0,1441899441518,1441899442232,1096,304,0,0,0,4,5,1,45,0004-00-0007-79.png,0005-00-0005-08.png
00000009,196,0,1441899445417,1441899445995,454,268,0,0,0,5,4,1,54,0005-00-0003-38.png,0004-00-0006-85.png
00000009,197,0,1441899449139,1441899449990,964,330,0,0,0,2,3,1,23,0002-00-0009-69.png,0003-00-0008-68.png
00000009,198,1,1441899453082,1441899453681,414,322,0,0,0,1,2,1,12,0001-00-0001-55.png,0002-00-0007-27.png
00000009,199,1,1441899454521,1441899454589,888,397,0,0,0,3,2,1,32,0003-00-0002-81.png,0002-00-0008-41.png
00000009,200,1,1441899455776,1441899455840,879,410,0,0,0,4,3,1,43,0004-00-0008-55.png,0003-00-0008-89.png
00000009,201,0,1441899457118,1441899457170,887,385,0,0,0,1,2,1,12,0001-00-0005-02.png,0002-00-0001-56.png
00000009,202,1,1441899460237,1441899460451,935,346,0,0,0,4,3,1,43,0004-00-0004-27.png,0003-00-0001-75.png
00000009,203,1,1441899461349,1441899461441,877,436,0,0,0,3,2,1,32,0003-00-0008-32.png,0002-00-0009-86.png
00000009,204,0,1441899462395,1441899462451,879,391,0,0,0,4,5,1,45,0004-00-0008-31.png,0005-00-0008-92.png
00000009,205,1,1441899465304,1441899465356,984,477,0,0,0,5,4,1,54,0005-00-0000-20.png,0004-00-0002-20.png
00000009,206,0,1441899466351,1441899466419,925,384,0,0,0,2,3,1,23,0002-00-0009-61.png,0003-00-0004-20.png
00000009,207,1,1441899469522,1441899470125,916,358,0,0,0,2,1,1,21,0002-00-0000-58.png,0001-00-0001-65.png
00000009,208,0,1441899471376,1441899471503,939,322,0,0,0,3,4,1,34,0003-00-0004-30.png,0004-00-0007-30.png
00000009,209,0,1441899474636,1441899474668,887,374,0,0,0,2,3,1,23,0002-00-0004-45.png,0003-00-0009-08.png
00000009,210,1,1441899477845,1441899477886,974,326,0,0,0,2,1,1,21,0002-00-0007-25.png,0001-00-0005-78.png
00000009,211,0,1441899478738,1441899478858,904,410,0,0,0,3,4,1,34,0003-00-0003-24.png,0004-00-0009-04.png
00000009,212,1,1441899481702,1441899481722,520,476,0,0,0,1,2,1,12,0001-00-0001-05.png,0002-00-0006-75.png
00000009,213,1,1441899482636,1441899482700,932,390,0,0,0,5,4,1,54,0005-00-0003-89.png,0004-00-0009-66.png
00000009,214,0,1441899483568,1441899483631,875,398,0,0,0,4,5,1,45,0004-00-0006-54.png,0005-00-0002-81.png
00000009,215,1,1441899486671,1441899486719,913,436,0,0,0,4,3,1,43,0004-00-0004-39.png,0003-00-0006-86.png
00000009,216,1,1441899488114,1441899488339,959,351,0,0,0,3,2,1,32,0003-00-0007-41.png,0002-00-0006-89.png
00000009,217,1,1441899489405,1441899489481,931,417,0,0,0,3,2,1,32,0003-00-0009-53.png,0002-00-0006-69.png
00000009,218,0,1441899490607,1441899490643,906,421,0,0,0,2,3,1,23,0002-00-0001-26.png,0003-00-0008-89.png
00000009,219,0,1441899493507,1441899493539,891,493,0,0,0,4,5,1,45,0004-00-0007-88.png,0005-00-0003-56.png
00000009,220,0,1441899496648,1441899497213,1092,316,0,0,0,3,4,1,34,0003-00-0009-27.png,0004-00-0009-61.png
00000009,221,1,1441899500356,1441899500940,465,262,0,0,0,1,2,1,12,0001-00-0007-44.png,0002-00-0008-17.png
00000009,222,1,1441899501769,1441899501805,868,416,0,0,0,4,3,1,43,0004-00-0003-68.png,0003-00-0003-66.png
00000009,223,1,1441899503119,1441899503195,898,418,0,0,0,2,1,1,21,0002-00-0004-49.png,0001-00-0009-61.png
00000009,224,1,1441899504475,1441899504528,901,426,0,0,0,5,4,1,54,0005-00-0005-31.png,0004-00-0005-81.png
00000009,225,1,1441899505840,1441899505880,882,413,0,0,0,3,2,1,32,0003-00-0001-09.png,0002-00-0004-39.png
00000009,226,0,1441899507617,1441899507669,888,372,0,0,0,2,3,1,23,0002-00-0004-95.png,0003-00-0008-78.png
00000009,227,0,1441899510870,1441899511812,458,284,0,0,0,4,3,1,43,0004-00-0007-14.png,0003-00-0006-82.png
00000009,228,0,1441899514923,1441899515144,888,423,0,0,0,4,5,1,45,0004-00-0007-37.png,0005-00-0007-05.png
00000009,229,1,1441899518313,1441899519040,454,272,0,0,0,1,2,1,12,0001-00-0006-00.png,0002-00-0008-43.png
00000009,230,0,1441899519857,1441899519917,929,371,0,0,0,3,4,1,34,0003-00-0004-99.png,0004-00-0007-11.png
00000009,231,1,1441899523060,1441899523092,934,352,0,0,0,5,4,1,54,0005-00-0009-12.png,0004-00-0008-14.png
00000009,232,1,1441899523994,1441899524062,913,410,0,0,0,2,1,1,21,0002-00-0001-32.png,0001-00-0008-65.png
00000009,233,1,1441899525100,1441899525176,913,410,0,0,0,2,1,1,21,0002-00-0006-21.png,0001-00-0008-63.png
00000009,234,1,1441899526352,1441899526380,880,391,0,0,0,3,2,1,32,0003-00-0006-68.png,0002-00-0003-28.png
00000009,235,0,1441899527740,1441899527790,924,423,0,0,0,3,4,1,34,0003-00-0005-58.png,0004-00-0002-90.png
00000009,236,0,1441899530940,1441899531206,1004,357,0,0,0,4,5,1,45,0004-00-0005-12.png,0005-00-0009-35.png
00000009,237,0,1441899534302,1441899534350,936,351,0,0,0,2,3,1,23,0002-00-0002-75.png,0003-00-0006-49.png
00000009,238,1,1441899537511,1441899537724,888,419,0,0,0,5,4,1,54,0005-00-0001-90.png,0004-00-0007-45.png
00000009,239,1,1441899538664,1441899538736,915,399,0,0,0,4,3,1,43,0004-00-0008-69.png,0003-00-0002-73.png
00000009,240,0,1441899539847,1441899539895,919,400,0,0,0,1,2,1,12,0001-00-0007-39.png,0002-00-0006-89.png
00000009,241,1,1441899542736,1441899542760,880,411,0,0,0,5,4,1,54,0005-00-0007-08.png,0004-00-0003-35.png
00000009,242,1,1441899543598,1441899544503,394,349,0,0,0,4,5,1,45,0004-00-0007-41.png,0005-00-0001-23.png
00000009,243,0,1441899545432,1441899545464,930,406,0,0,0,1,2,1,12,0001-00-0005-89.png,0002-00-0005-40.png
00000009,244,1,1441899548977,1441899549687,475,263,0,0,0,2,3,1,23,0002-00-0008-21.png,0003-00-0004-28.png
00000009,245,1,1441899550517,1441899550576,939,393,0,0,0,4,3,1,43,0004-00-0008-28.png,0003-00-0004-47.png
00000009,246,1,1441899551710,1441899551746,895,391,0,0,0,3,2,1,32,0003-00-0003-90.png,0002-00-0000-18.png
00000009,247,1,1441899553120,1441899553140,879,424,0,0,0,2,1,1,21,0002-00-0006-70.png,0001-00-0005-04.png
00000009,248,0,1441899554541,1441899554581,894,373,0,0,0,3,4,1,34,0003-00-0004-11.png,0004-00-0001-82.png
00000009,249,1,1441899557654,1441899558265,954,316,0,0,0,2,1,1,21,0002-00-0008-74.png,0001-00-0007-03.png
00000009,250,0,1441899559602,1441899559622,927,330,0,0,0,1,2,1,12,0001-00-0004-35.png,0002-00-0004-67.png
00000009,251,1,1441899562530,1441899563380,440,282,0,0,0,4,5,1,45,0004-00-0005-26.png,0005-00-0001-37.png
00000009,252,1,1441899565373,1441899566104,1136,280,0,0,0,4,3,1,43,0004-00-0007-19.png,0003-00-0008-14.png
00000009,253,0,1441899567521,1441899567615,941,392,0,0,0,2,3,1,23,0002-00-0000-33.png,0003-00-0002-39.png
00000009,254,0,1441899570796,1441899571623,944,425,0,0,0,3,4,1,34,0003-00-0002-12.png,0004-00-0001-82.png
00000009,255,1,1441899574714,1441899574746,953,359,0,0,0,5,4,1,54,0005-00-0007-15.png,0004-00-0001-86.png
00000009,256,1,1441899576034,1441899576152,929,384,0,0,0,3,2,1,32,0003-00-0001-48.png,0002-00-0003-58.png
00000009,257,1,1441899577389,1441899577425,889,408,0,0,0,3,2,1,32,0003-00-0009-10.png,0002-00-0004-91.png
00000009,258,0,1441899578620,1441899578648,903,408,0,0,0,4,5,1,45,0004-00-0004-54.png,0005-00-0006-03.png
00000009,259,0,1441899581817,1441899581856,1011,335,0,0,0,3,4,1,34,0003-00-0008-95.png,0004-00-0001-82.png
00000009,260,0,1441899584970,1441899585583,458,280,0,0,0,2,1,1,21,0002-00-0002-25.png,0001-00-0003-18.png
00000009,261,1,1441899588755,1441899589351,423,328,0,0,0,2,3,1,23,0002-00-0003-09.png,0003-00-0006-88.png
00000009,262,1,1441899590174,1441899590246,916,400,0,0,0,5,4,1,54,0005-00-0004-77.png,0004-00-0003-51.png
00000009,263,0,1441899591460,1441899591524,919,389,0,0,0,1,2,1,12,0001-00-0005-76.png,0002-00-0006-32.png
00000009,264,1,1441899594735,1441899594763,867,283,0,0,0,4,3,1,43,0004-00-0007-35.png,0003-00-0007-54.png
00000009,265,0,1441899595673,1441899596496,925,358,0,0,0,3,4,1,34,0003-00-0002-69.png,0004-00-0006-13.png
00000009,266,0,1441899599567,1441899600134,493,268,0,0,0,2,1,1,21,0002-00-0008-40.png,0001-00-0000-89.png
00000009,267,0,1441899603257,1441899603404,990,279,0,0,0,4,5,1,45,0004-00-0008-00.png,0005-00-0003-96.png
00000009,268,1,1441899606415,1441899607025,450,281,0,0,0,2,3,1,23,0002-00-0008-06.png,0003-00-0008-87.png
00000009,269,1,1441899607864,1441899608787,933,374,0,0,0,3,2,1,32,0003-00-0005-61.png,0002-00-0005-64.png
00000009,270,1,1441899609653,1441899609745,939,370,0,0,0,5,4,1,54,0005-00-0004-67.png,0004-00-0008-05.png
00000009,271,0,1441899610868,1441899610908,916,402,0,0,0,1,2,1,12,0001-00-0002-08.png,0002-00-0009-40.png
00000009,272,1,1441899614037,1441899614717,1140,292,0,0,0,4,3,1,43,0004-00-0000-71.png,0003-00-0001-25.png
00000009,273,1,1441899616105,1441899616229,964,348,0,0,0,2,1,1,21,0002-00-0009-36.png,0001-00-0002-56.png
00000009,274,1,1441899617326,1441899617383,913,419,0,0,0,4,3,1,43,0004-00-0009-58.png,0003-00-0009-00.png
00000009,275,0,1441899618578,1441899618598,895,392,0,0,0,1,2,1,12,0001-00-0003-69.png,0002-00-0009-34.png
00000009,276,0,1441899621749,1441899622429,1079,297,0,0,0,3,4,1,34,0003-00-0008-38.png,0004-00-0009-02.png
00000009,277,1,1441899625295,1441899625813,420,344,0,0,0,2,3,1,23,0002-00-0000-32.png,0003-00-0004-46.png
00000009,278,1,1441899626668,1441899626776,922,384,0,0,0,5,4,1,54,0005-00-0000-02.png,0004-00-0006-31.png
00000009,279,1,1441899627867,1441899627960,928,410,0,0,0,3,2,1,32,0003-00-0004-58.png,0002-00-0008-75.png
00000009,280,0,1441899629133,1441899629185,899,427,0,0,0,4,5,1,45,0004-00-0000-45.png,0005-00-0004-58.png
00000009,281,1,1441899632122,1441899632675,951,330,0,0,0,3,2,1,32,0003-00-0000-06.png,0002-00-0006-03.png
00000009,282,1,1441899634042,1441899634165,939,373,0,0,0,4,3,1,43,0004-00-0008-76.png,0003-00-0007-69.png
00000009,283,0,1441899635302,1441899635342,920,422,0,0,0,3,4,1,34,0003-00-0002-96.png,0004-00-0004-04.png
00000009,284,1,1441899638464,1441899639297,474,258,0,0,0,4,5,1,45,0004-00-0004-03.png,0005-00-0007-93.png
00000009,285,1,1441899640718,1441899641523,967,355,0,0,0,5,4,1,54,0005-00-0002-82.png,0004-00-0000-24.png
00000009,286,0,1441899642895,1441899642972,923,384,0,0,0,1,2,1,12,0001-00-0000-33.png,0002-00-0007-37.png
00000009,287,0,1441899646045,1441899646089,934,369,0,0,0,2,3,1,23,0002-00-0001-02.png,0003-00-0005-34.png
00000009,288,0,1441899649216,1441899649818,464,295,0,0,0,2,1,1,21,0002-00-0007-78.png,0001-00-0006-22.png
00000009,289,0,1441899652953,1441899653606,1140,313,0,0,0,2,3,1,23,0002-00-0003-95.png,0003-00-0000-63.png
00000009,290,1,1441899656796,1441899657678,964,372,0,0,0,5,4,1,54,0005-00-0003-73.png,0004-00-0003-27.png
00000009,291,1,1441899659014,1441899659195,961,376,0,0,0,2,1,1,21,0002-00-0006-66.png,0001-00-0009-56.png
00000009,292,1,1441899660324,1441899660364,913,398,0,0,0,3,2,1,32,0003-00-0001-72.png,0002-00-0006-39.png
00000009,293,1,1441899661647,1441899661707,919,400,0,0,0,4,3,1,43,0004-00-0004-70.png,0003-00-0001-42.png
00000009,294,1,1441899664011,1441899664618,482,258,0,0,0,1,2,1,12,0001-00-0008-77.png,0002-00-0006-21.png
00000009,295,0,1441899665573,1441899665601,889,384,0,0,0,4,5,1,45,0004-00-0001-70.png,0005-00-0004-60.png
00000009,296,1,1441899668713,1441899669325,475,277,0,0,0,3,4,1,34,0003-00-0005-62.png,0004-00-0005-29.png
00000009,297,1,1441899670719,1441899670819,941,379,0,0,0,4,3,1,43,0004-00-0003-01.png,0003-00-0008-94.png
00000009,298,1,1441899671891,1441899671923,888,393,0,0,0,5,4,1,54,0005-00-0006-96.png,0004-00-0005-49.png
00000009,299,1,1441899673182,1441899673230,931,393,0,0,0,3,2,1,32,0003-00-0006-33.png,0002-00-0001-89.png
00000009,300,0,1441899674663,1441899674703,924,397,0,0,0,4,5,1,45,0004-00-0006-13.png,0005-00-0007-37.png
00000009,301,1,1441899678222,1441899678817,959,349,0,0,0,2,1,1,21,0002-00-0006-34.png,0001-00-0007-34.png
00000009,302,1,1441899680985,1441899681594,462,274,0,0,0,1,2,1,12,0001-00-0009-70.png,0002-00-0008-83.png
00000009,303,0,1441899682902,1441899682970,922,403,0,0,0,3,4,1,34,0003-00-0005-76.png,0004-00-0004-80.png
00000009,304,1,1441899685855,1441899686568,485,261,0,0,0,2,3,1,23,0002-00-0000-59.png,0003-00-0006-08.png
00000009,305,0,1441899687407,1441899687480,904,390,0,0,0,4,5,1,45,0004-00-0005-98.png,0005-00-0003-02.png
00000009,306,1,1441899690311,1441899691022,463,291,0,0,0,1,2,1,12,0001-00-0000-83.png,0002-00-0004-86.png
00000009,307,1,1441899692478,1441899692597,990,369,0,0,0,5,4,1,54,0005-00-0007-05.png,0004-00-0008-61.png
00000009,308,1,1441899693603,1441899693651,924,384,0,0,0,3,2,1,32,0003-00-0005-58.png,0002-00-0009-14.png
00000009,309,0,1441899694794,1441899694814,889,413,0,0,0,3,4,1,34,0003-00-0000-69.png,0004-00-0009-81.png
00000009,310,1,1441899697915,1441899697951,900,389,0,0,0,4,3,1,43,0004-00-0008-70.png,0003-00-0007-86.png
00000009,311,1,1441899698850,1441899699703,1094,282,0,0,0,2,1,1,21,0002-00-0007-42.png,0001-00-0000-24.png
00000009,312,0,1441899701105,1441899701157,946,373,0,0,0,2,3,1,23,0002-00-0009-92.png,0003-00-0003-47.png
00000009,313,1,1441899704245,1441899704285,927,363,0,0,0,4,3,1,43,0004-00-0007-03.png,0003-00-0006-99.png
00000009,314,0,1441899705179,1441899705243,939,422,0,0,0,3,4,1,34,0003-00-0009-64.png,0004-00-0006-94.png
00000009,315,0,1441899708311,1441899708982,1109,312,0,0,0,1,2,1,12,0001-00-0007-96.png,0002-00-0008-91.png
00000009,316,0,1441899712133,1441899712698,1092,294,0,0,0,2,3,1,23,0002-00-0009-34.png,0003-00-0004-05.png
00000009,317,0,1441899715844,1441899716535,484,304,0,0,0,5,4,1,54,0005-00-0006-77.png,0004-00-0006-19.png
00000009,318,1,1441899719697,1441899719809,954,283,0,0,0,2,1,1,21,0002-00-0007-68.png,0001-00-0002-91.png
00000009,319,0,1441899720729,1441899720793,941,392,0,0,0,4,5,1,45,0004-00-0002-98.png,0005-00-0007-15.png
00000009,320,1,1441899723931,1441899723959,958,380,0,0,0,3,2,1,32,0003-00-0005-84.png,0002-00-0004-92.png
00000009,321,0,1441899724854,1441899724930,902,410,0,0,0,3,4,1,34,0003-00-0008-56.png,0004-00-0001-23.png
00000009,322,0,1441899727876,1441899728494,1042,308,0,0,0,4,5,1,45,0004-00-0003-43.png,0005-00-0009-46.png
00000009,323,1,1441899731495,1441899732091,988,374,0,0,0,3,2,1,32,0003-00-0001-90.png,0002-00-0001-58.png
00000009,324,1,1441899733400,1441899733659,1010,352,0,0,0,5,4,1,54,0005-00-0007-31.png,0004-00-0003-01.png
00000009,325,1,1441899734695,1441899734755,939,408,0,0,0,2,1,1,21,0002-00-0004-03.png,0001-00-0000-40.png
00000009,326,0,1441899735934,1441899735962,899,393,0,0,0,2,3,1,23,0002-00-0005-06.png,0003-00-0008-37.png
00000009,327,0,1441899738800,1441899738997,862,475,0,0,0,1,2,1,12,0001-00-0007-70.png,0002-00-0003-96.png
00000009,328,1,1441899742167,1441899742753,937,361,0,0,0,4,3,1,43,0004-00-0001-20.png,0003-00-0000-12.png
00000009,329,0,1441899744115,1441899744289,1000,334,0,0,0,4,5,1,45,0004-00-0009-21.png,0005-00-0000-08.png
00000009,330,1,1441899747141,1441899747877,442,270,0,0,0,2,3,1,23,0002-00-0007-91.png,0003-00-0001-95.png
00000009,331,1,1441899749452,1441899749582,964,394,0,0,0,5,4,1,54,0005-00-0006-84.png,0004-00-0009-52.png
00000009,332,1,1441899750712,1441899750752,927,446,0,0,0,4,3,1,43,0004-00-0009-35.png,0003-00-0006-70.png
00000009,333,1,1441899751944,1441899751992,915,416,0,0,0,3,2,1,32,0003-00-0005-09.png,0002-00-0008-63.png
00000009,334,1,1441899753275,1441899753303,931,406,0,0,0,2,1,1,21,0002-00-0005-29.png,0001-00-0009-90.png
00000009,335,0,1441899754834,1441899754854,902,411,0,0,0,1,2,1,12,0001-00-0000-39.png,0002-00-0009-05.png
00000009,336,0,1441899758006,1441899758673,939,343,0,0,0,3,4,1,34,0003-00-0002-53.png,0004-00-0004-37.png
00000009,337,1,1441899762078,1441899762303,888,445,0,0,0,4,3,1,43,0004-00-0008-16.png,0003-00-0006-33.png
00000009,338,1,1441899763151,1441899763261,913,445,0,0,0,2,1,1,21,0002-00-0006-02.png,0001-00-0000-79.png
00000009,339,0,1441899764666,1441899764714,893,416,0,0,0,4,5,1,45,0004-00-0009-38.png,0005-00-0005-50.png
00000009,340,0,1441899767749,1441899767967,904,385,0,0,0,3,4,1,34,0003-00-0009-25.png,0004-00-0006-10.png
00000009,341,0,1441899771165,1441899771185,961,334,0,0,0,2,3,1,23,0002-00-0000-02.png,0003-00-0003-34.png
00000009,342,0,1441899774276,1441899774959,507,268,0,0,0,5,4,1,54,0005-00-0003-74.png,0004-00-0007-75.png
00000009,343,1,1441899778496,1441899779197,955,444,0,0,0,3,2,1,32,0003-00-0008-41.png,0002-00-0000-82.png
00000009,344,0,1441899780565,1441899780625,903,358,0,0,0,1,2,1,12,0001-00-0006-33.png,0002-00-0003-62.png
00000009,345,0,1441899783775,1441899783803,949,334,0,0,0,3,4,1,34,0003-00-0004-12.png,0004-00-0006-77.png
00000009,346,1,1441899787014,1441899787729,937,343,0,0,0,5,4,1,54,0005-00-0001-79.png,0004-00-0003-02.png
00000009,347,1,1441899788572,1441899789459,491,251,0,0,0,1,2,1,12,0001-00-0009-79.png,0002-00-0009-09.png
00000009,348,1,1441899790641,1441899790701,939,394,0,0,0,3,2,1,32,0003-00-0006-80.png,0002-00-0007-11.png
00000009,349,1,1441899791794,1441899791834,888,395,0,0,0,4,3,1,43,0004-00-0000-66.png,0003-00-0000-13.png
00000009,350,1,1441899793302,1441899793330,888,378,0,0,0,2,1,1,21,0002-00-0007-96.png,0001-00-0007-88.png
00000009,351,0,1441899794735,1441899794767,932,422,0,0,0,2,3,1,23,0002-00-0002-39.png,0003-00-0002-02.png
00000009,352,0,1441899797843,1441899797875,940,390,0,0,0,4,5,1,45,0004-00-0008-88.png,0005-00-0003-27.png
00000009,353,1,1441899801204,1441899801965,391,436,0,0,0,4,5,1,45,0004-00-0006-98.png,0005-00-0007-68.png
00000009,354,0,1441899803401,1441899803550,964,384,0,0,0,3,4,1,34,0003-00-0009-46.png,0004-00-0005-66.png
00000009,355,0,1441899806521,1441899806537,863,460,0,0,0,1,2,1,12,0001-00-0005-82.png,0002-00-0008-29.png
00000009,356,1,1441899809601,1441899810173,975,344,0,0,0,3,2,1,32,0003-00-0006-67.png,0002-00-0009-16.png
00000009,357,1,1441899811489,1441899811674,954,389,0,0,0,5,4,1,54,0005-00-0001-72.png,0004-00-0000-69.png
00000009,358,1,1441899812721,1441899812791,933,421,0,0,0,2,1,1,21,0002-00-0005-61.png,0001-00-0000-34.png
00000009,359,0,1441899813911,1441899813951,892,414,0,0,0,2,3,1,23,0002-00-0004-41.png,0003-00-0008-89.png
00000009,360,1,1441899816896,1441899817496,933,319,0,0,0,4,3,1,43,0004-00-0004-02.png,0003-00-0005-92.png
00000009,361,0,1441899818358,1441899819231,476,267,0,0,0,5,4,1,54,0005-00-0006-39.png,0004-00-0004-90.png
00000009,362,1,1441899822411,1441899822439,986,336,0,0,0,4,3,1,43,0004-00-0007-63.png,0003-00-0001-21.png
00000009,363,0,1441899823272,1441899823336,865,439,0,0,0,4,5,1,45,0004-00-0001-95.png,0005-00-0002-84.png
00000009,364,0,1441899826396,1441899827047,1133,312,0,0,0,3,4,1,34,0003-00-0002-00.png,0004-00-0006-00.png
00000009,365,1,1441899830062,1441899830617,944,348,0,0,0,3,2,1,32,0003-00-0000-54.png,0002-00-0000-93.png
00000009,366,1,1441899831980,1441899832113,948,362,0,0,0,2,1,1,21,0002-00-0007-55.png,0001-00-0007-87.png
00000009,367,0,1441899833174,1441899833263,913,423,0,0,0,1,2,1,12,0001-00-0009-66.png,0002-00-0008-63.png
00000009,368,1,1441899836621,1441899837269,471,280,0,0,0,2,3,1,23,0002-00-0003-01.png,0003-00-0001-76.png
00000009,369,1,1441899838152,1441899838259,930,462,0,0,0,5,4,1,54,0005-00-0005-48.png,0004-00-0007-11.png
00000009,370,0,1441899839584,1441899839656,904,418,0,0,0,2,3,1,23,0002-00-0009-50.png,0003-00-0009-73.png
00000009,371,1,1441899842511,1441899843079,1071,308,0,0,0,3,2,1,32,0003-00-0007-44.png,0002-00-0002-31.png
00000009,372,0,1441899844363,1441899844532,957,400,0,0,0,1,2,1,12,0001-00-0004-86.png,0002-00-0007-20.png
00000009,373,0,1441899847402,1441899847948,936,364,0,0,0,3,4,1,34,0003-00-0005-36.png,0004-00-0004-94.png
00000009,374,1,1441899851100,1441899851719,342,400,0,0,0,4,5,1,45,0004-00-0000-58.png,0005-00-0007-41.png
00000009,375,1,1441899853196,1441899853296,916,382,0,0,0,2,1,1,21,0002-00-0008-89.png,0001-00-0005-77.png
00000009,376,1,1441899854331,1441899854415,905,444,0,0,0,4,3,1,43,0004-00-0001-81.png,0003-00-0003-86.png
00000009,377,1,1441899855511,1441899855555,862,395,0,0,0,2,1,1,21,0002-00-0009-60.png,0001-00-0004-06.png
00000009,378,0,1441899856826,1441899856874,899,410,0,0,0,1,2,1,12,0001-00-0006-90.png,0002-00-0009-49.png
00000009,379,1,1441899859908,1441899860541,1092,279,0,0,0,4,3,1,43,0004-00-0009-11.png,0003-00-0005-21.png
00000009,380,1,1441899861932,1441899862176,939,420,0,0,0,3,2,1,32,0003-00-0000-14.png,0002-00-0008-23.png
00000009,381,0,1441899863254,1441899863306,904,417,0,0,0,4,5,1,45,0004-00-0003-82.png,0005-00-0009-71.png
00000009,382,1,1441899866384,1441899866609,862,424,0,0,0,5,4,1,54,0005-00-0004-23.png,0004-00-0009-29.png
00000009,383,0,1441899867973,1441899868045,922,386,0,0,0,3,4,1,34,0003-00-0001-15.png,0004-00-0002-13.png
00000009,384,0,1441899871232,1441899871244,954,333,0,0,0,2,3,1,23,0002-00-0005-72.png,0003-00-0009-03.png
00000009,385,1,1441899874305,1441899874935,361,395,0,0,0,4,5,1,45,0004-00-0007-40.png,0005-00-0002-30.png
00000009,386,0,1441899876342,1441899876437,939,358,0,0,0,3,4,1,34,0003-00-0008-02.png,0004-00-0008-78.png
00000009,387,0,1441899879406,1441899879430,886,462,0,0,0,1,2,1,12,0001-00-0008-40.png,0002-00-0006-63.png
00000009,388,1,1441899882582,1441899883291,961,346,0,0,0,2,1,1,21,0002-00-0000-00.png,0001-00-0005-22.png
00000009,389,0,1441899884610,1441899884686,906,389,0,0,0,2,3,1,23,0002-00-0007-40.png,0003-00-0000-70.png
00000009,390,1,1441899887720,1441899887788,936,407,0,0,0,5,4,1,54,0005-00-0007-82.png,0004-00-0003-06.png
00000009,391,1,1441899888718,1441899888794,933,441,0,0,0,4,3,1,43,0004-00-0006-56.png,0003-00-0008-11.png
00000009,392,1,1441899889807,1441899889907,921,437,0,0,0,3,2,1,32,0003-00-0002-06.png,0002-00-0006-80.png
00000009,393,1,1441899891087,1441899891146,900,410,0,0,0,5,4,1,54,0005-00-0003-74.png,0004-00-0002-59.png
00000009,394,0,1441899892488,1441899892516,905,411,0,0,0,1,2,1,12,0001-00-0009-28.png,0002-00-0002-87.png
00000009,395,1,1441899895710,1441899896346,465,273,0,0,0,2,3,1,23,0002-00-0004-85.png,0003-00-0009-54.png
00000009,396,0,1441899897179,1441899897305,913,426,0,0,0,3,4,1,34,0003-00-0004-37.png,0004-00-0001-34.png
00000009,397,1,1441899900430,1441899901043,1088,306,0,0,0,3,2,1,32,0003-00-0006-62.png,0002-00-0002-94.png
00000009,398,1,1441899902355,1441899902471,954,358,0,0,0,4,3,1,43,0004-00-0003-54.png,0003-00-0009-96.png
00000009,399,1,1441899903501,1441899904788,910,352,0,0,0,2,1,1,21,0002-00-0003-61.png,0001-00-0001-50.png
00000009,400,0,1441899905642,1441899905682,948,410,0,0,0,4,5,1,45,0004-00-0002-55.png,0005-00-0001-56.png
00000009,401,0,1441899908565,1441899909446,929,331,0,0,0,4,5,1,45,0004-00-0006-68.png,0005-00-0008-34.png
00000009,402,1,1441899912633,1441899913216,1123,304,0,0,0,2,1,1,21,0002-00-0003-78.png,0001-00-0002-39.png
00000009,403,1,1441899914541,1441899914646,962,368,0,0,0,4,3,1,43,0004-00-0002-86.png,0003-00-0009-15.png
00000009,404,1,1441899915620,1441899915664,888,384,0,0,0,3,2,1,32,0003-00-0009-36.png,0002-00-0007-02.png
00000009,405,1,1441899916703,1441899916787,880,417,0,0,0,5,4,1,54,0005-00-0003-21.png,0004-00-0008-24.png
00000009,406,0,1441899918080,1441899918106,884,387,0,0,0,1,2,1,12,0001-00-0007-68.png,0002-00-0006-88.png
00000009,407,0,1441899921643,1441899921671,893,344,0,0,0,3,4,1,34,0003-00-0003-42.png,0004-00-0005-14.png
00000009,408,0,1441899924874,1441899924914,955,327,0,0,0,2,3,1,23,0002-00-0001-51.png,0003-00-0005-07.png
00000009,409,1,1441899928054,1441899928082,950,351,0,0,0,5,4,1,54,0005-00-0004-90.png,0004-00-0006-71.png
00000009,410,0,1441899929017,1441899930069,934,352,0,0,0,1,2,1,12,0001-00-0001-22.png,0002-00-0006-90.png
00000009,411,0,1441899933173,1441899933201,948,384,0,0,0,2,3,1,23,0002-00-0002-11.png,0003-00-0009-25.png
00000009,412,0,1441899936383,1441899936403,907,355,0,0,0,4,5,1,45,0004-00-0007-50.png,0005-00-0001-93.png
00000009,413,1,1441899939492,1441899940060,952,336,0,0,0,3,2,1,32,0003-00-0002-14.png,0002-00-0006-40.png
00000009,414,1,1441899941450,1441899941611,959,360,0,0,0,2,1,1,21,0002-00-0006-59.png,0001-00-0007-83.png
00000009,415,1,1441899942683,1441899942767,903,410,0,0,0,4,3,1,43,0004-00-0005-62.png,0003-00-0001-61.png
00000009,416,0,1441899943981,1441899944021,888,394,0,0,0,3,4,1,34,0003-00-0001-67.png,0004-00-0004-02.png
00000009,417,1,1441899947201,1441899947234,935,351,0,0,0,4,3,1,43,0004-00-0006-22.png,0003-00-0009-63.png
00000009,418,1,1441899948065,1441899948207,888,425,0,0,0,5,4,1,54,0005-00-0002-17.png,0004-00-0009-04.png
00000009,419,0,1441899949617,1441899949677,888,410,0,0,0,1,2,1,12,0001-00-0005-34.png,0002-00-0009-41.png
00000009,420,1,1441899952876,1441899952884,931,361,0,0,0,3,2,1,32,0003-00-0002-55.png,0002-00-0002-77.png
00000009,421,0,1441899953782,1441899954802,456,273,0,0,0,2,1,1,21,0002-00-0003-14.png,0001-00-0005-85.png
00000009,422,0,1441899957696,1441899957724,886,519,0,0,0,2,3,1,23,0002-00-0009-20.png,0003-00-0003-04.png
00000009,423,1,1441899960898,1441899961540,352,388,0,0,0,3,4,1,34,0003-00-0002-56.png,0004-00-0004-56.png
00000009,424,0,1441899962405,1441899962504,925,410,0,0,0,4,5,1,45,0004-00-0003-32.png,0005-00-0006-70.png
00000009,425,1,1441899965648,1441899965704,984,364,0,0,0,3,2,1,32,0003-00-0003-75.png,0002-00-0005-71.png
00000009,426,1,1441899966597,1441899966741,939,405,0,0,0,5,4,1,54,0005-00-0009-44.png,0004-00-0009-22.png
00000009,427,0,1441899967803,1441899967843,913,384,0,0,0,3,4,1,34,0003-00-0000-43.png,0004-00-0008-36.png
00000009,428,0,1441899970973,1441899971221,913,436,0,0,0,4,5,1,45,0004-00-0008-37.png,0005-00-0000-57.png
00000009,429,0,1441899974352,1441899975345,430,278,0,0,0,4,3,1,43,0004-00-0003-11.png,0003-00-0004-43.png
00000009,430,1,1441899978546,1441899979220,455,293,0,0,0,1,2,1,12,0001-00-0002-23.png,0002-00-0008-87.png
00000009,431,0,1441899980631,1441899980683,888,358,0,0,0,2,3,1,23,0002-00-0007-98.png,0003-00-0002-68.png
00000009,432,0,1441899983900,1441899984494,483,279,0,0,0,2,1,1,21,0002-00-0008-63.png,0001-00-0000-28.png
00000009,433,0,1441899987608,1441899988191,933,317,0,0,0,3,4,1,34,0003-00-0007-66.png,0004-00-0004-82.png
00000009,434,0,1441899991376,1441899992009,436,323,0,0,0,2,1,1,21,0002-00-0008-02.png,0001-00-0008-84.png
00000009,435,1,1441899995527,1441899996085,446,292,0,0,0,1,2,1,12,0001-00-0001-67.png,0002-00-0009-40.png
00000009,436,0,1441899997505,1441899997559,888,358,0,0,0,2,3,1,23,0002-00-0009-00.png,0003-00-0006-32.png
00000009,437,0,1441900000415,1441900000479,913,488,0,0,0,4,5,1,45,0004-00-0009-57.png,0005-00-0006-85.png
00000009,438,0,1441900003648,1441900004240,486,301,0,0,0,3,2,1,32,0003-00-0003-83.png,0002-00-0001-37.png
00000009,439,1,1441900007116,1441900007671,936,324,0,0,0,5,4,1,54,0005-00-0007-07.png,0004-00-0009-16.png
00000009,440,1,1441900009047,1441900009131,931,341,0,0,0,4,3,1,43,0004-00-0006-55.png,0003-00-0002-91.png
00000009,441,1,1441900010219,1441900010286,902,420,0,0,0,3,2,1,32,0003-00-0005-10.png,0002-00-0004-26.png
00000009,442,1,1441900011947,1441900011987,924,400,0,0,0,4,3,1,43,0004-00-0000-03.png,0003-00-0005-32.png
00000009,443,0,1441900013108,1441900013140,873,410,0,0,0,3,4,1,34,0003-00-0000-74.png,0004-00-0009-79.png
00000009,444,1,1441900016677,1441900017293,945,351,0,0,0,2,1,1,21,0002-00-0002-74.png,0001-00-0004-67.png
00000009,445,0,1441900018544,1441900018631,949,358,0,0,0,1,2,1,12,0001-00-0001-03.png,0002-00-0004-44.png
00000009,446,1,1441900021706,1441900022458,426,284,0,0,0,4,5,1,45,0004-00-0002-53.png,0005-00-0000-18.png
00000009,447,0,1441900023303,1441900023396,939,395,0,0,0,2,3,1,23,0002-00-0001-72.png,0003-00-0007-29.png
00000009,448,1,1441900026544,1441900027189,914,350,0,0,0,5,4,1,54,0005-00-0003-04.png,0004-00-0009-99.png
00000009,449,1,1441900028063,1441900028982,358,402,0,0,0,4,5,1,45,0004-00-0007-87.png,0005-00-0004-02.png
00000009,450,0,1441900030031,1441900030091,981,436,0,0,0,3,4,1,34,0003-00-0004-00.png,0004-00-0001-66.png
00000009,451,1,1441900033310,1441900033984,957,313,0,0,0,5,4,1,54,0005-00-0002-21.png,0004-00-0004-89.png
00000009,452,1,1441900034811,1441900034907,939,420,0,0,0,4,3,1,43,0004-00-0006-01.png,0003-00-0003-16.png
00000009,453,0,1441900036462,1441900036490,893,428,0,0,0,1,2,1,12,0001-00-0008-58.png,0002-00-0004-13.png
00000009,454,1,1441900039342,1441900040003,455,278,0,0,0,2,3,1,23,0002-00-0001-81.png,0003-00-0008-04.png
00000009,455,1,1441900040903,1441900040963,925,410,0,0,0,3,2,1,32,0003-00-0008-75.png,0002-00-0002-00.png
00000009,456,1,1441900041795,1441900041847,862,419,0,0,0,2,1,1,21,0002-00-0004-97.png,0001-00-0004-12.png
00000009,457,1,1441900043227,1441900043279,888,384,0,0,0,4,3,1,43,0004-00-0006-86.png,0003-00-0003-16.png
00000009,458,0,1441900044508,1441900044540,911,393,0,0,0,3,4,1,34,0003-00-0001-31.png,0004-00-0004-80.png
00000009,459,1,1441900047700,1441900047720,913,347,0,0,0,3,2,1,32,0003-00-0009-06.png,0002-00-0005-18.png
00000009,460,1,1441900048655,1441900048724,939,420,0,0,0,5,4,1,54,0005-00-0008-93.png,0004-00-0009-80.png
00000009,461,0,1441900050155,1441900050223,913,436,0,0,0,2,3,1,23,0002-00-0009-44.png,0003-00-0005-57.png
00000009,462,0,1441900053395,1441900054019,923,335,0,0,0,4,5,1,45,0004-00-0002-78.png,0005-00-0003-54.png
00000009,463,0,1441900057209,1441900057237,937,402,0,0,0,1,2,1,12,0001-00-0008-69.png,0002-00-0003-36.png
00000009,464,1,1441900060319,1441900060347,862,436,0,0,0,2,1,1,21,0002-00-0008-19.png,0001-00-0004-93.png
00000009,465,1,1441900061211,1441900061322,929,436,0,0,0,2,1,1,21,0002-00-0001-38.png,0001-00-0004-47.png
00000009,466,1,1441900062265,1441900062324,924,432,0,0,0,4,3,1,43,0004-00-0007-45.png,0003-00-0007-89.png
00000009,467,0,1441900063529,1441900063589,931,417,0,0,0,1,2,1,12,0001-00-0009-36.png,0002-00-0004-72.png
00000009,468,1,1441900066728,1441900066736,882,405,0,0,0,3,2,1,32,0003-00-0006-14.png,0002-00-0002-08.png
00000009,469,0,1441900067568,1441900067754,939,462,0,0,0,4,5,1,45,0004-00-0001-66.png,0005-00-0006-26.png
00000009,470,1,1441900070883,1441900071498,479,295,0,0,0,2,3,1,23,0002-00-0009-24.png,0003-00-0006-85.png
00000009,471,1,1441900073019,1441900073087,913,384,0,0,0,5,4,1,54,0005-00-0003-45.png,0004-00-0002-54.png
00000009,472,0,1441900074182,1441900074230,927,428,0,0,0,3,4,1,34,0003-00-0005-56.png,0004-00-0004-19.png
00000009,473,0,1441900077379,1441900077956,457,277,0,0,0,2,1,1,21,0002-00-0004-23.png,0001-00-0001-07.png
00000009,474,1,1441900080879,1441900081571,935,315,0,0,0,5,4,1,54,0005-00-0006-22.png,0004-00-0006-75.png
00000009,475,0,1441900082965,1441900083005,915,360,0,0,0,3,4,1,34,0003-00-0005-48.png,0004-00-0000-92.png
00000009,476,0,1441900086154,1441900086190,938,369,0,0,0,1,2,1,12,0001-00-0000-91.png,0002-00-0007-15.png
00000009,477,1,1441900089328,1441900090009,477,277,0,0,0,2,3,1,23,0002-00-0001-82.png,0003-00-0007-73.png
00000009,478,0,1441900090877,1441900090957,964,400,0,0,0,4,5,1,45,0004-00-0002-97.png,0005-00-0009-86.png
00000009,479,1,1441900094116,1441900094156,959,350,0,0,0,4,3,1,43,0004-00-0000-10.png,0003-00-0003-06.png
00000009,480,1,1441900095009,1441900095996,939,369,0,0,0,3,2,1,32,0003-00-0005-47.png,0002-00-0004-06.png
00000009,481,1,1441900097445,1441900097517,924,395,0,0,0,4,3,1,43,0004-00-0006-34.png,0003-00-0002-89.png
00000009,482,0,1441900098538,1441900098566,898,410,0,0,0,4,5,1,45,0004-00-0001-30.png,0005-00-0005-61.png
00000009,483,0,1441900101676,1441900101720,934,361,0,0,0,2,3,1,23,0002-00-0009-73.png,0003-00-0003-07.png
00000009,484,0,1441900104839,1441900104879,932,372,0,0,0,1,2,1,12,0001-00-0005-15.png,0002-00-0007-78.png
00000009,485,1,1441900108030,1441900108615,941,351,0,0,0,5,4,1,54,0005-00-0009-16.png,0004-00-0000-31.png
00000009,486,0,1441900110016,1441900110112,942,356,0,0,0,3,4,1,34,0003-00-0002-35.png,0004-00-0001-62.png
00000009,487,0,1441900113080,1441900113720,488,265,0,0,0,2,1,1,21,0002-00-0006-73.png,0001-00-0001-89.png
00000009,488,1,1441900116873,1441900116920,984,336,0,0,0,3,2,1,32,0003-00-0003-24.png,0002-00-0007-02.png
00000009,489,1,1441900117786,1441900117921,931,444,0,0,0,5,4,1,54,0005-00-0002-53.png,0004-00-0007-04.png
00000009,490,0,1441900118789,1441900118829,899,384,0,0,0,1,2,1,12,0001-00-0008-34.png,0002-00-0005-93.png
00000009,491,0,1441900121970,1441900122030,1002,336,0,0,0,3,4,1,34,0003-00-0000-51.png,0004-00-0007-06.png
00000009,492,1,1441900125142,1441900125182,959,339,0,0,0,4,3,1,43,0004-00-0002-65.png,0003-00-0008-57.png
00000009,493,1,1441900126055,1441900126118,939,419,0,0,0,2,1,1,21,0002-00-0002-27.png,0001-00-0008-86.png
00000009,494,1,1441900127566,1441900127646,905,436,0,0,0,3,2,1,32,0003-00-0005-96.png,0002-00-0009-04.png
00000009,495,0,1441900128787,1441900128819,890,419,0,0,0,2,3,1,23,0002-00-0009-33.png,0003-00-0009-80.png
00000009,496,1,1441900131870,1441900132472,455,255,0,0,0,4,5,1,45,0004-00-0004-67.png,0005-00-0005-47.png
00000009,497,1,1441900133835,1441900133875,888,332,0,0,0,5,4,1,54,0005-00-0004-95.png,0004-00-0009-05.png
00000009,498,0,1441900134999,1441900135066,920,451,0,0,0,3,4,1,34,0003-00-0004-28.png,0004-00-0007-11.png
00000009,499,1,1441900138205,1441900138802,951,323,0,0,0,2,1,1,21,0002-00-0005-24.png,0001-00-0002-59.png
00000009,500,0,1441900140048,1441900140127,964,373,0,0,0,4,5,1,45,0004-00-0006-41.png,0005-00-0003-94.png
00000009,501,1,1441900143267,1441900143854,968,330,0,0,0,4,3,1,43,0004-00-0007-66.png,0003-00-0002-70.png
00000009,502,0,1441900144686,1441900144766,937,486,0,0,0,1,2,1,12,0001-00-0009-03.png,0002-00-0005-48.png
00000009,503,1,1441900147908,1441900147944,909,339,0,0,0,3,2,1,32,0003-00-0004-43.png,0002-00-0001-61.png
00000009,504,0,1441900148786,1441900148906,964,504,0,0,0,2,3,1,23,0002-00-0004-05.png,0003-00-0004-76.png
00000009,505,1,1441900152062,1441900152122,965,335,0,0,0,3,2,1,32,0003-00-0008-29.png,0002-00-0006-94.png
00000009,506,1,1441900152946,1441900153050,929,462,0,0,0,5,4,1,54,0005-00-0006-86.png,0004-00-0002-01.png
00000009,507,0,1441900154358,1441900154426,913,410,0,0,0,1,2,1,12,0001-00-0002-48.png,0002-00-0008-58.png
00000009,508,0,1441900157447,1441900157467,895,430,0,0,0,3,4,1,34,0003-00-0001-70.png,0004-00-0004-43.png
00000009,509,0,1441900160657,1441900161285,376,394,0,0,0,4,3,1,43,0004-00-0003-95.png,0003-00-0007-60.png
00000009,510,0,1441900164453,1441900165123,958,420,0,0,0,4,5,1,45,0004-00-0005-97.png,0005-00-0004-12.png
00000009,511,1,1441900168260,1441900168840,487,289,0,0,0,2,3,1,23,0002-00-0007-96.png,0003-00-0007-34.png
00000009,512,1,1441900169698,1441900169809,939,488,0,0,0,2,1,1,21,0002-00-0001-57.png,0001-00-0006-94.png
00000009,513,0,1441900170842,1441900170938,898,422,0,0,0,1,2,1,12,0001-00-0008-05.png,0002-00-0004-57.png
00000009,514,1,1441900173961,1441900174001,900,407,0,0,0,4,3,1,43,0004-00-0000-90.png,0003-00-0003-51.png
00000009,515,0,1441900174994,1441900175065,913,436,0,0,0,2,3,1,23,0002-00-0003-23.png,0003-00-0008-47.png
00000009,516,1,1441900178086,1441900178130,913,429,0,0,0,5,4,1,54,0005-00-0003-32.png,0004-00-0008-84.png
00000009,517,0,1441900179047,1441900179135,939,454,0,0,0,4,5,1,45,0004-00-0006-83.png,0005-00-0006-97.png
00000009,518,1,1441900182287,1441900182865,940,344,0,0,0,2,1,1,21,0002-00-0001-67.png,0001-00-0002-33.png
00000009,519,1,1441900184247,1441900184307,935,355,0,0,0,3,2,1,32,0003-00-0000-62.png,0002-00-0004-96.png
00000009,520,0,1441900185456,1441900185521,913,418,0,0,0,3,4,1,34,0003-00-0008-44.png,0004-00-0001-68.png
00000009,521,1,1441900188686,1441900189323,484,252,0,0,0,1,2,1,12,0001-00-0009-45.png,0002-00-0007-17.png
00000009,522,1,1441900190228,1441900190288,939,452,0,0,0,5,4,1,54,0005-00-0003-01.png,0004-00-0003-42.png
00000009,523,0,1441900191560,1441900191620,880,442,0,0,0,4,5,1,45,0004-00-0008-34.png,0005-00-0003-46.png
00000009,524,0,1441900194770,1441900194778,958,404,0,0,0,2,3,1,23,0002-00-0008-97.png,0003-00-0005-80.png
00000009,525,1,1441900197957,1441900198561,958,315,0,0,0,2,1,1,21,0002-00-0001-19.png,0001-00-0004-65.png
00000009,526,1,1441900199765,1441900199857,913,398,0,0,0,4,3,1,43,0004-00-0000-02.png,0003-00-0009-90.png
00000009,527,0,1441900200889,1441900200929,913,410,0,0,0,3,4,1,34,0003-00-0002-94.png,0004-00-0009-69.png
00000009,528,1,1441900203961,1441900204526,1089,280,0,0,0,3,2,1,32,0003-00-0003-06.png,0002-00-0003-77.png
00000009,529,0,1441900205890,1441900206002,933,395,0,0,0,3,4,1,34,0003-00-0006-97.png,0004-00-0002-67.png
00000009,530,1,1441900208933,1441900209454,474,276,0,0,0,2,3,1,23,0002-00-0001-55.png,0003-00-0002-55.png
00000009,531,1,1441900210299,1441900210367,939,424,0,0,0,3,2,1,32,0003-00-0000-35.png,0002-00-0008-25.png
00000009,532,1,1441900211352,1441900211404,888,410,0,0,0,2,1,1,21,0002-00-0001-62.png,0001-00-0005-17.png
00000009,533,1,1441900212545,1441900212605,927,458,0,0,0,5,4,1,54,0005-00-0008-63.png,0004-00-0009-19.png
00000009,534,1,1441900213866,1441900213906,913,421,0,0,0,4,3,1,43,0004-00-0009-90.png,0003-00-0006-16.png
00000009,535,0,1441900215376,1441900215432,897,434,0,0,0,1,2,1,12,0001-00-0000-02.png,0002-00-0009-34.png
00000009,536,0,1441900218267,1441900218882,914,329,0,0,0,4,5,1,45,0004-00-0007-18.png,0005-00-0005-68.png
00000009,537,0,1441900221981,1441900222528,1082,306,0,0,0,3,4,1,34,0003-00-0003-98.png,0004-00-0008-15.png
00000009,538,1,1441900225439,1441900226115,1069,297,0,0,0,3,2,1,32,0003-00-0005-35.png,0002-00-0001-24.png
00000009,539,1,1441900227360,1441900227531,951,381,0,0,0,5,4,1,54,0005-00-0004-89.png,0004-00-0009-96.png
00000009,540,1,1441900229739,1441900230520,1067,270,0,0,0,2,1,1,21,0002-00-0002-32.png,0001-00-0000-32.png
00000009,541,1,1441900231459,1441900232449,389,393,0,0,0,4,5,1,45,0004-00-0006-98.png,0005-00-0002-99.png
00000009,542,0,1441900233435,1441900233516,922,482,0,0,0,1,2,1,12,0001-00-0004-22.png,0002-00-0008-90.png
00000009,543,1,1441900236655,1441900236691,985,386,0,0,0,4,3,1,43,0004-00-0003-65.png,0003-00-0007-90.png
00000009,544,0,1441900237619,1441900237687,905,418,0,0,0,2,3,1,23,0002-00-0004-08.png,0003-00-0003-56.png
00000009,545,0,1441900240680,1441900241393,475,282,0,0,0,4,3,1,43,0004-00-0003-27.png,0003-00-0003-95.png
00000009,546,1,1441900244585,1441900245278,497,287,0,0,0,2,3,1,23,0002-00-0002-90.png,0003-00-0003-63.png
00000009,547,1,1441900246096,1441900246986,371,384,0,0,0,1,2,1,12,0001-00-0002-43.png,0002-00-0009-08.png
00000009,548,1,1441900248549,1441900248613,913,410,0,0,0,3,2,1,32,0003-00-0005-94.png,0002-00-0004-84.png
00000009,549,1,1441900249664,1441900249700,930,448,0,0,0,5,4,1,54,0005-00-0005-74.png,0004-00-0006-20.png
00000009,550,0,1441900251017,1441900251077,905,457,0,0,0,3,4,1,34,0003-00-0003-55.png,0004-00-0003-21.png
00000009,551,1,1441900254090,1441900254804,960,384,0,0,0,2,1,1,21,0002-00-0001-02.png,0001-00-0001-28.png
00000009,552,0,1441900256123,1441900256289,978,432,0,0,0,4,5,1,45,0004-00-0002-64.png,0005-00-0000-46.png
00000009,553,1,1441900259133,1441900259645,935,320,0,0,0,3,2,1,32,0003-00-0001-72.png,0002-00-0005-10.png
00000009,554,1,1441900260517,1441900260593,939,436,0,0,0,5,4,1,54,0005-00-0003-33.png,0004-00-0006-46.png
00000009,555,1,1441900261498,1441900261558,913,448,0,0,0,2,1,1,21,0002-00-0007-89.png,0001-00-0001-82.png
00000009,556,0,1441900262726,1441900262770,914,439,0,0,0,1,2,1,12,0001-00-0002-02.png,0002-00-0006-23.png
00000009,557,0,1441900265780,1441900266342,489,262,0,0,0,4,3,1,43,0004-00-0004-60.png,0003-00-0005-12.png
00000009,558,0,1441900269419,1441900270123,949,347,0,0,0,3,4,1,34,0003-00-0006-81.png,0004-00-0004-25.png
00000009,559,1,1441900273156,1441900273755,435,296,0,0,0,4,5,1,45,0004-00-0008-71.png,0005-00-0008-14.png
00000009,560,0,1441900274677,1441900274737,913,395,0,0,0,2,3,1,23,0002-00-0003-34.png,0003-00-0008-40.png
00000009,561,1,1441900277932,1441900278543,957,349,0,0,0,4,3,1,43,0004-00-0004-74.png,0003-00-0008-07.png
00000009,562,0,1441900279883,1441900279908,960,355,0,0,0,1,2,1,12,0001-00-0007-10.png,0002-00-0009-08.png
00000009,563,1,1441900282803,1441900283528,1092,293,0,0,0,5,4,1,54,0005-00-0001-26.png,0004-00-0005-48.png
00000009,564,0,1441900284892,1441900285015,957,404,0,0,0,3,4,1,34,0003-00-0005-67.png,0004-00-0006-94.png
00000009,565,1,1441900287923,1441900287955,867,353,0,0,0,2,1,1,21,0002-00-0009-99.png,0001-00-0005-84.png
00000009,566,0,1441900288936,1441900288984,932,417,0,0,0,2,3,1,23,0002-00-0006-73.png,0003-00-0008-76.png
00000009,567,0,1441900292364,1441900292416,915,351,0,0,0,4,5,1,45,0004-00-0005-24.png,0005-00-0001-19.png
00000009,568,1,1441900295257,1441900295852,1128,296,0,0,0,3,2,1,32,0003-00-0007-10.png,0002-00-0005-28.png
00000009,569,0,1441900296728,1441900296855,982,463,0,0,0,2,3,1,23,0002-00-0005-37.png,0003-00-0003-46.png
00000009,570,0,1441900300256,1441900300786,973,366,0,0,0,3,4,1,34,0003-00-0002-18.png,0004-00-0003-57.png
00000009,571,0,1441900303931,1441900304543,368,378,0,0,0,2,1,1,21,0002-00-0008-62.png,0001-00-0009-15.png
00000009,572,1,1441900307541,1441900308186,452,290,0,0,0,1,2,1,12,0001-00-0002-55.png,0002-00-0004-89.png
00000009,573,1,1441900309554,1441900309650,913,358,0,0,0,5,4,1,54,0005-00-0006-99.png,0004-00-0009-54.png
00000009,574,1,1441900310741,1441900310797,923,451,0,0,0,4,3,1,43,0004-00-0006-26.png,0003-00-0006-77.png
00000009,575,1,1441900312011,1441900312039,887,416,0,0,0,3,2,1,32,0003-00-0002-65.png,0002-00-0003-80.png
00000009,576,0,1441900313332,1441900313376,901,397,0,0,0,4,5,1,45,0004-00-0003-49.png,0005-00-0005-83.png
00000009,577,0,1441900316293,1441900316341,862,473,0,0,0,4,5,1,45,0004-00-0003-11.png,0005-00-0002-69.png
00000009,578,0,1441900319534,1441900320121,450,290,0,0,0,2,1,1,21,0002-00-0000-40.png,0001-00-0000-42.png
00000009,579,1,1441900324025,1441900324610,932,349,0,0,0,5,4,1,54,0005-00-0002-52.png,0004-00-0000-85.png
00000009,580,1,1441900325486,1441900326357,385,393,0,0,0,3,4,1,34,0003-00-0005-30.png,0004-00-0001-04.png
00000009,581,1,1441900327317,1441900327389,964,436,0,0,0,4,3,1,43,0004-00-0007-80.png,0003-00-0001-59.png
00000009,582,0,1441900329165,1441900329221,899,410,0,0,0,2,3,1,23,0002-00-0008-45.png,0003-00-0008-99.png
00000009,583,1,1441900332412,1441900332954,519,233,0,0,0,1,2,1,12,0001-00-0009-79.png,0002-00-0002-14.png
00000009,584,1,1441900334343,1441900334411,913,375,0,0,0,3,2,1,32,0003-00-0004-83.png,0002-00-0001-53.png
00000009,585,0,1441900335435,1441900335475,891,411,0,0,0,2,3,1,23,0002-00-0008-46.png,0003-00-0005-09.png
00000009,586,1,1441900338645,1441900338701,933,363,0,0,0,4,3,1,43,0004-00-0006-90.png,0003-00-0009-09.png
00000009,587,1,1441900339554,1441900339676,906,477,0,0,0,2,1,1,21,0002-00-0007-20.png,0001-00-0007-55.png
00000009,588,0,1441900340668,1441900340701,910,432,0,0,0,4,5,1,45,0004-00-0003-30.png,0005-00-0007-04.png
00000009,589,1,1441900344266,1441900344789,960,337,0,0,0,3,2,1,32,0003-00-0009-55.png,0002-00-0004-31.png
00000009,590,1,1441900346145,1441900346189,913,384,0,0,0,5,4,1,54,0005-00-0005-08.png,0004-00-0008-15.png
00000009,591,0,1441900347300,1441900347328,888,410,0,0,0,3,4,1,34,0003-00-0009-85.png,0004-00-0006-23.png
00000009,592,0,1441900350466,1441900350490,913,384,0,0,0,1,2,1,12,0001-00-0000-06.png,0002-00-0002-50.png
00000009,593,1,1441900353678,1441900353698,920,381,0,0,0,5,4,1,54,0005-00-0006-53.png,0004-00-0005-04.png
00000009,594,0,1441900354662,1441900354694,888,426,0,0,0,1,2,1,12,0001-00-0004-58.png,0002-00-0008-79.png
00000009,595,1,1441900357563,1441900358422,951,395,0,0,0,4,3,1,43,0004-00-0007-33.png,0003-00-0000-56.png
00000009,596,0,1441900359809,1441900359893,906,385,0,0,0,3,4,1,34,0003-00-0006-31.png,0004-00-0000-43.png
00000009,597,1,1441900362759,1441900362811,865,437,0,0,0,3,2,1,32,0003-00-0008-98.png,0002-00-0003-55.png
00000009,598,1,1441900363686,1441900363742,964,410,0,0,0,2,1,1,21,0002-00-0006-59.png,0001-00-0005-67.png
00000009,599,0,1441900365155,1441900365183,894,413,0,0,0,4,5,1,45,0004-00-0009-05.png,0005-00-0002-57.png
00000009,600,0,1441900368385,1441900368425,928,360,0,0,0,2,3,1,23,0002-00-0001-63.png,0003-00-0003-00.png
00000009,601,1,1441900371291,1441900371935,1066,306,0,0,0,4,3,1,43,0004-00-0003-80.png,0003-00-0000-86.png
00000009,602,0,1441900372769,1441900372845,939,462,0,0,0,1,2,1,12,0001-00-0002-65.png,0002-00-0008-41.png
00000009,603,1,1441900375968,1441900375992,930,411,0,0,0,5,4,1,54,0005-00-0000-39.png,0004-00-0003-07.png
00000009,604,1,1441900376952,1441900377020,939,428,0,0,0,3,2,1,32,0003-00-0001-73.png,0002-00-0009-04.png
00000009,605,0,1441900377995,1441900378035,909,410,0,0,0,3,4,1,34,0003-00-0006-36.png,0004-00-0007-55.png
00000009,606,0,1441900381029,1441900381089,909,413,0,0,0,4,5,1,45,0004-00-0006-47.png,0005-00-0008-01.png
00000009,607,0,1441900384200,1441900384847,470,277,0,0,0,2,1,1,21,0002-00-0000-09.png,0001-00-0009-57.png
00000009,608,0,1441900387981,1441900388567,1092,285,0,0,0,2,3,1,23,0002-00-0008-79.png,0003-00-0000-73.png
00000009,609,0,1441900391738,1441900392270,957,358,0,0,0,3,4,1,34,0003-00-0001-47.png,0004-00-0009-81.png
00000009,610,0,1441900395883,1441900396653,953,324,0,0,0,2,3,1,23,0002-00-0000-90.png,0003-00-0008-43.png
00000009,611,1,1441900399778,1441900400370,1135,306,0,0,0,3,2,1,32,0003-00-0003-34.png,0002-00-0002-72.png
00000009,612,1,1441900401208,1441900401277,971,383,0,0,0,4,3,1,43,0004-00-0009-14.png,0003-00-0004-19.png
00000009,613,0,1441900402441,1441900402501,888,419,0,0,0,4,5,1,45,0004-00-0002-61.png,0005-00-0000-60.png
00000009,614,0,1441900405645,1441900406316,338,425,0,0,0,2,1,1,21,0002-00-0004-03.png,0001-00-0000-39.png
00000009,615,1,1441900409279,1441900409315,877,428,0,0,0,5,4,1,54,0005-00-0009-59.png,0004-00-0002-04.png
00000009,616,1,1441900411176,1441900411967,383,384,0,0,0,1,2,1,12,0001-00-0004-04.png,0002-00-0001-44.png
00000009,617,1,1441900412853,1441900412935,919,426,0,0,0,3,2,1,32,0003-00-0004-71.png,0002-00-0007-26.png
00000009,618,0,1441900413788,1441900413828,862,410,0,0,0,2,3,1,23,0002-00-0007-09.png,0003-00-0003-84.png
00000009,619,1,1441900417010,1441900417576,375,383,0,0,0,4,5,1,45,0004-00-0008-07.png,0005-00-0006-36.png
00000009,620,1,1441900418419,1441900418463,913,436,0,0,0,4,3,1,43,0004-00-0007-50.png,0003-00-0003-37.png
00000009,621,0,1441900420008,1441900420038,863,407,0,0,0,1,2,1,12,0001-00-0003-34.png,0002-00-0007-97.png
00000009,622,1,1441900422862,1441900423498,953,397,0,0,0,5,4,1,54,0005-00-0004-24.png,0004-00-0004-22.png
00000009,623,0,1441900424322,1441900424394,951,436,0,0,0,3,4,1,34,0003-00-0006-00.png,0004-00-0005-77.png
00000009,624,0,1441900427579,1441900428155,489,284,0,0,0,2,1,1,21,0002-00-0004-52.png,0001-00-0005-13.png
00000009,625,0,1441900431703,1441900431735,901,383,0,0,0,2,3,1,23,0002-00-0000-65.png,0003-00-0008-91.png
00000009,626,1,1441900434876,1441900434916,956,383,0,0,0,2,1,1,21,0002-00-0007-02.png,0001-00-0006-06.png
00000009,627,0,1441900435870,1441900435954,926,410,0,0,0,1,2,1,12,0001-00-0004-46.png,0002-00-0005-74.png
00000009,628,1,1441900438842,1441900438870,893,437,0,0,0,4,3,1,43,0004-00-0000-66.png,0003-00-0006-18.png
00000009,629,1,1441900439767,1441900439815,964,436,0,0,0,5,4,1,54,0005-00-0001-01.png,0004-00-0007-20.png
00000009,630,0,1441900441594,1441900441634,911,394,0,0,0,3,4,1,34,0003-00-0008-08.png,0004-00-0005-11.png
00000009,631,1,1441900444775,1441900445364,1093,312,0,0,0,3,2,1,32,0003-00-0000-83.png,0002-00-0006-46.png
00000009,632,0,1441900446761,1441900446857,939,425,0,0,0,4,5,1,45,0004-00-0000-11.png,0005-00-0008-10.png
00000009,633,1,1441900450020,1441900450068,922,391,0,0,0,4,3,1,43,0004-00-0009-51.png,0003-00-0007-10.png
00000009,634,1,1441900450994,1441900451046,977,432,0,0,0,5,4,1,54,0005-00-0009-54.png,0004-00-0006-65.png
00000009,635,0,1441900452078,1441900452130,932,417,0,0,0,4,5,1,45,0004-00-0008-93.png,0005-00-0001-70.png
00000009,636,0,1441900455296,1441900455328,936,351,0,0,0,2,3,1,23,0002-00-0002-11.png,0003-00-0000-49.png
00000009,637,0,1441900458226,1441900458816,1092,307,0,0,0,1,2,1,12,0001-00-0007-90.png,0002-00-0003-35.png
00000009,638,0,1441900462034,1441900462569,489,291,0,0,0,3,2,1,32,0003-00-0002-53.png,0002-00-0008-55.png
00000009,639,0,1441900465484,1441900466027,1067,305,0,0,0,3,4,1,34,0003-00-0007-79.png,0004-00-0007-16.png
00000009,640,1,1441900469209,1441900469269,958,378,0,0,0,2,1,1,21,0002-00-0001-20.png,0001-00-0009-93.png
00000009,641,1,1441900470306,1441900470350,958,434,0,0,0,3,2,1,32,0003-00-0001-13.png,0002-00-0009-53.png
00000009,642,1,1441900471287,1441900471347,893,450,0,0,0,4,3,1,43,0004-00-0001-40.png,0003-00-0007-59.png
00000009,643,1,1441900472567,1441900472611,918,387,0,0,0,5,4,1,54,0005-00-0009-19.png,0004-00-0005-23.png
00000009,644,0,1441900473953,1441900474001,911,428,0,0,0,2,3,1,23,0002-00-0000-82.png,0003-00-0005-94.png
00000009,645,0,1441900477190,1441900477206,933,353,0,0,0,3,4,1,34,0003-00-0003-83.png,0004-00-0004-80.png
00000009,646,0,1441900480737,1441900481443,1094,281,0,0,0,1,2,1,12,0001-00-0009-32.png,0002-00-0000-60.png
00000009,647,1,1441900484626,1441900485258,453,289,0,0,0,4,5,1,45,0004-00-0008-61.png,0005-00-0002-68.png
00000009,648,1,1441900486124,1441900486224,956,436,0,0,0,2,1,1,21,0002-00-0004-49.png,0001-00-0007-66.png
00000009,649,1,1441900487249,1441900487289,898,384,0,0,0,5,4,1,54,0005-00-0001-62.png,0004-00-0009-36.png
00000009,650,0,1441900489591,1441900489615,891,340,0,0,0,4,5,1,45,0004-00-0007-18.png,0005-00-0007-02.png
00000009,651,1,1441900492863,1441900493429,1115,302,0,0,0,4,3,1,43,0004-00-0007-54.png,0003-00-0006-66.png
00000009,652,0,1441900494252,1441900494332,958,397,0,0,0,2,3,1,23,0002-00-0008-57.png,0003-00-0002-52.png
00000009,653,1,1441900497484,1441900498101,463,280,0,0,0,1,2,1,12,0001-00-0003-06.png,0002-00-0002-96.png
00000009,654,1,1441900499528,1441900499548,916,364,0,0,0,3,2,1,32,0003-00-0009-57.png,0002-00-0000-02.png
00000009,655,0,1441900500720,1441900500753,914,443,0,0,0,3,4,1,34,0003-00-0002-20.png,0004-00-0001-64.png
00000009,656,1,1441900503569,1441900504204,1096,304,0,0,0,2,1,1,21,0002-00-0005-76.png,0001-00-0008-24.png
00000009,657,1,1441900505652,1441900505700,914,403,0,0,0,4,3,1,43,0004-00-0004-78.png,0003-00-0008-42.png
00000009,658,0,1441900506960,1441900506984,914,412,0,0,0,3,4,1,34,0003-00-0008-18.png,0004-00-0006-49.png
00000009,659,0,1441900509873,1441900510526,506,259,0,0,0,2,1,1,21,0002-00-0001-45.png,0001-00-0006-25.png
00000009,660,1,1441900513391,1441900513998,1089,300,0,0,0,3,2,1,32,0003-00-0007-35.png,0002-00-0000-98.png
00000009,661,0,1441900515470,1441900515478,888,369,0,0,0,4,5,1,45,0004-00-0006-20.png,0005-00-0000-42.png
00000009,662,1,1441900518637,1441900518689,943,370,0,0,0,5,4,1,54,0005-00-0009-00.png,0004-00-0003-03.png
00000009,663,0,1441900519722,1441900519778,945,427,0,0,0,2,3,1,23,0002-00-0006-62.png,0003-00-0009-66.png
00000009,664,0,1441900522951,1441900522991,953,361,0,0,0,1,2,1,12,0001-00-0000-28.png,0002-00-0006-68.png
00000009,665,0,1441900526131,1441900526163,924,390,0,0,0,4,5,1,45,0004-00-0008-02.png,0005-00-0004-88.png
00000009,666,0,1441900529340,1441900529994,502,265,0,0,0,2,1,1,21,0002-00-0001-93.png,0001-00-0001-70.png
00000009,667,1,1441900533186,1441900533226,919,362,0,0,0,3,2,1,32,0003-00-0008-16.png,0002-00-0008-69.png
00000009,668,0,1441900534223,1441900534307,989,395,0,0,0,3,4,1,34,0003-00-0002-37.png,0004-00-0001-00.png
00000009,669,1,1441900537321,1441900537352,883,456,0,0,0,5,4,1,54,0005-00-0004-45.png,0004-00-0004-81.png
00000009,670,0,1441900538223,1441900538294,913,396,0,0,0,2,3,1,23,0002-00-0007-02.png,0003-00-0007-85.png
00000009,671,0,1441900541950,1441900541978,877,363,0,0,0,1,2,1,12,0001-00-0009-05.png,0002-00-0005-52.png
00000009,672,0,1441900545261,1441900545480,273,427,0,0,0,4,3,1,43,0004-00-0000-10.png,0003-00-0006-15.png
00000009,673,0,1441900548956,1441900549568,990,347,0,0,0,2,3,1,23,0002-00-0000-07.png,0003-00-0002-84.png
00000009,674,0,1441900553178,1441900553896,431,307,0,0,0,4,3,1,43,0004-00-0005-84.png,0003-00-0005-95.png
00000009,675,1,1441900557047,1441900557075,926,358,0,0,0,2,1,1,21,0002-00-0008-33.png,0001-00-0001-94.png
00000009,676,0,1441900558042,1441900558090,879,410,0,0,0,1,2,1,12,0001-00-0004-07.png,0002-00-0007-06.png
00000009,677,1,1441900561319,1441900561343,918,320,0,0,0,5,4,1,54,0005-00-0001-03.png,0004-00-0006-61.png
00000009,678,1,1441900562273,1441900562354,953,402,0,0,0,3,2,1,32,0003-00-0001-91.png,0002-00-0001-08.png
00000009,679,0,1441900563424,1441900563456,884,385,0,0,0,4,5,1,45,0004-00-0000-62.png,0005-00-0006-55.png
00000009,680,0,1441900566637,1441900566645,888,359,0,0,0,3,4,1,34,0003-00-0000-01.png,0004-00-0004-45.png
00000009,681,1,1441900569857,1441900570525,463,296,0,0,0,4,5,1,45,0004-00-0007-22.png,0005-00-0000-05.png
00000009,682,1,1441900572012,1441900572052,896,388,0,0,0,3,2,1,32,0003-00-0005-83.png,0002-00-0004-73.png
00000009,683,0,1441900573034,1441900573058,913,358,0,0,0,2,3,1,23,0002-00-0006-39.png,0003-00-0004-96.png
00000009,684,1,1441900575926,1441900576737,1045,302,0,0,0,5,4,1,54,0005-00-0004-18.png,0004-00-0000-10.png
00000009,685,1,1441900578194,1441900578206,861,406,0,0,0,2,1,1,21,0002-00-0003-99.png,0001-00-0009-05.png
00000009,686,1,1441900579333,1441900579365,888,398,0,0,0,4,3,1,43,0004-00-0007-17.png,0003-00-0002-00.png
00000009,687,0,1441900580675,1441900580707,889,426,0,0,0,1,2,1,12,0001-00-0005-25.png,0002-00-0002-23.png
00000009,688,0,1441900583578,1441900584171,1037,311,0,0,0,3,4,1,34,0003-00-0000-36.png,0004-00-0008-27.png
00000009,689,0,1441900587107,1441900587926,437,279,0,0,0,4,3,1,43,0004-00-0005-66.png,0003-00-0008-50.png
00000009,690,1,1441900591090,1441900591712,1068,315,0,0,0,3,2,1,32,0003-00-0006-04.png,0002-00-0004-02.png
00000009,691,0,1441900592561,1441900592691,978,384,0,0,0,3,4,1,34,0003-00-0009-11.png,0004-00-0008-52.png
00000009,692,1,1441900595722,1441900596317,937,324,0,0,0,5,4,1,54,0005-00-0006-21.png,0004-00-0006-05.png
00000009,693,0,1441900597151,1441900597259,952,384,0,0,0,4,5,1,45,0004-00-0001-36.png,0005-00-0004-22.png
00000009,694,0,1441900600413,1441900600445,868,380,0,0,0,2,3,1,23,0002-00-0007-06.png,0003-00-0000-69.png
00000009,695,1,1441900603554,1441900603590,965,379,0,0,0,2,1,1,21,0002-00-0006-17.png,0001-00-0004-75.png
00000009,696,0,1441900604467,1441900604535,964,412,0,0,0,1,2,1,12,0001-00-0002-89.png,0002-00-0002-79.png
00000009,697,1,1441900607680,1441900607688,888,384,0,0,0,2,1,1,21,0002-00-0007-45.png,0001-00-0000-05.png
00000009,698,0,1441900608550,1441900608638,939,394,0,0,0,4,5,1,45,0004-00-0007-46.png,0005-00-0004-40.png
00000009,699,0,1441900611840,1441900612447,947,343,0,0,0,3,4,1,34,0003-00-0008-03.png,0004-00-0009-00.png
00000009,700,1,1441900615316,1441900615900,1071,305,0,0,0,3,2,1,32,0003-00-0005-55.png,0002-00-0007-16.png
00000009,701,0,1441900617275,1441900617335,954,358,0,0,0,2,3,1,23,0002-00-0005-72.png,0003-00-0007-12.png
00000009,702,1,1441900620166,1441900620862,937,338,0,0,0,4,3,1,43,0004-00-0003-43.png,0003-00-0003-55.png
00000009,703,0,1441900621693,1441900621757,950,375,0,0,0,1,2,1,12,0001-00-0000-61.png,0002-00-0007-89.png
00000009,704,1,1441900624607,1441900625203,927,338,0,0,0,5,4,1,54,0005-00-0009-29.png,0004-00-0006-05.png
00000009,705,1,1441900626544,1441900626612,913,393,0,0,0,3,2,1,32,0003-00-0002-38.png,0002-00-0002-39.png
00000009,706,1,1441900627810,1441900627838,911,390,0,0,0,2,1,1,21,0002-00-0002-23.png,0001-00-0001-96.png
00000009,707,0,1441900629208,1441900629251,901,384,0,0,0,2,3,1,23,0002-00-0004-36.png,0003-00-0009-92.png
00000009,708,0,1441900632219,1441900632982,939,350,0,0,0,4,5,1,45,0004-00-0008-82.png,0005-00-0004-95.png
00000009,709,0,1441900635898,1441900635970,513,455,0,0,0,5,4,1,54,0005-00-0003-16.png,0004-00-0004-96.png
00000009,710,0,1441900639140,1441900639823,476,281,0,0,0,4,3,1,43,0004-00-0009-34.png,0003-00-0001-68.png
00000009,711,0,1441900643003,1441900643036,925,378,0,0,0,3,4,1,34,0003-00-0009-49.png,0004-00-0007-25.png
00000009,712,0,1441900646014,1441900646646,1069,328,0,0,0,1,2,1,12,0001-00-0009-99.png,0002-00-0008-62.png
00000009,713,0,1441900649838,1441900650453,482,311,0,0,0,4,3,1,43,0004-00-0005-69.png,0003-00-0001-68.png
00000009,714,1,1441900653388,1441900653412,946,437,0,0,0,3,2,1,32,0003-00-0000-89.png,0002-00-0008-35.png
00000009,715,0,1441900654354,1441900654458,1009,394,0,0,0,4,5,1,45,0004-00-0007-84.png,0005-00-0000-26.png
00000009,716,0,1441900657353,1441900658032,1076,309,0,0,0,3,4,1,34,0003-00-0004-45.png,0004-00-0005-14.png
00000009,717,0,1441900661191,1441900661826,455,286,0,0,0,2,1,1,21,0002-00-0003-45.png,0001-00-0006-98.png
00000009,718,0,1441900664969,1441900665568,931,366,0,0,0,2,3,1,23,0002-00-0000-04.png,0003-00-0008-57.png
00000009,719,1,1441900668734,1441900668978,888,436,0,0,0,5,4,1,54,0005-00-0006-10.png,0004-00-0001-23.png
00000009,720,0,1441900669885,1441900669953,971,366,0,0,0,1,2,1,12,0001-00-0002-83.png,0002-00-0008-48.png
00000009,721,1,1441900672898,1441900672918,421,523,0,0,0,2,3,1,23,0002-00-0003-53.png,0003-00-0003-26.png
00000009,722,1,1441900673831,1441900673891,925,414,0,0,0,4,3,1,43,0004-00-0004-70.png,0003-00-0006-74.png
00000009,723,1,1441900675479,1441900675527,882,394,0,0,0,3,2,1,32,0003-00-0006-21.png,0002-00-0009-34.png
00000009,724,0,1441900676820,1441900676864,907,423,0,0,0,3,4,1,34,0003-00-0000-05.png,0004-00-0007-78.png
00000009,725,0,1441900679943,1441900680637,1064,308,0,0,0,4,5,1,45,0004-00-0002-16.png,0005-00-0006-21.png
00000009,726,0,1441900683740,1441900683784,962,361,0,0,0,1,2,1,12,0001-00-0000-20.png,0002-00-0002-34.png
00000009,727,1,1441900686908,1441900686948,956,386,0,0,0,2,1,1,21,0002-00-0002-95.png,0001-00-0003-43.png
00000009,728,1,1441900687862,1441900687942,965,371,0,0,0,5,4,1,54,0005-00-0005-34.png,0004-00-0001-59.png
00000009,729,0,1441900689055,1441900689115,906,416,0,0,0,2,3,1,23,0002-00-0009-07.png,0003-00-0009-62.png
00000009,730,0,1441900692275,1441900692866,1093,306,0,0,0,3,4,1,34,0003-00-0001-39.png,0004-00-0008-30.png
00000009,731,0,1441900695960,1441900697081,415,294,0,0,0,4,3,1,43,0004-00-0007-06.png,0003-00-0007-84.png
00000009,732,1,1441900700028,1441900700710,899,385,0,0,0,3,2,1,32,0003-00-0006-70.png,0002-00-0005-38.png
00000009,733,1,1441900701537,1441900701617,910,413,0,0,0,2,1,1,21,0002-00-0004-33.png,0001-00-0001-16.png
00000009,734,0,1441900702978,1441900703042,888,410,0,0,0,4,5,1,45,0004-00-0001-91.png,0005-00-0004-66.png
00000009,735,1,1441900706109,1441900706681,962,346,0,0,0,5,4,1,54,0005-00-0000-12.png,0004-00-0004-07.png
00000009,736,0,1441900708016,1441900708036,884,356,0,0,0,1,2,1,12,0001-00-0007-30.png,0002-00-0005-62.png
00000009,737,1,1441900711624,1441900712223,958,344,0,0,0,4,3,1,43,0004-00-0005-32.png,0003-00-0004-51.png
00000009,738,0,1441900713054,1441900713102,906,391,0,0,0,4,5,1,45,0004-00-0000-60.png,0005-00-0005-85.png
00000009,739,0,1441900716095,1441900716736,938,309,0,0,0,1,2,1,12,0001-00-0000-41.png,0002-00-0004-69.png
00000009,740,0,1441900719843,1441900720431,1082,311,0,0,0,3,4,1,34,0003-00-0000-70.png,0004-00-0008-42.png
00000009,741,1,1441900723569,1441900723645,973,385,0,0,0,5,4,1,54,0005-00-0005-70.png,0004-00-0002-69.png
00000009,742,1,1441900724530,1441900724646,949,436,0,0,0,3,2,1,32,0003-00-0008-30.png,0002-00-0009-35.png
00000009,743,1,1441900725667,1441900725715,879,410,0,0,0,2,1,1,21,0002-00-0008-65.png,0001-00-0000-43.png
00000009,744,0,1441900726947,1441900727011,888,410,0,0,0,2,3,1,23,0002-00-0007-06.png,0003-00-0002-48.png
00000009,745,0,1441900730017,1441900730671,465,292,0,0,0,4,3,1,43,0004-00-0008-71.png,0003-00-0002-69.png
00000009,746,1,1441900733823,1441900734576,365,381,0,0,0,4,5,1,45,0004-00-0002-85.png,0005-00-0007-79.png
00000009,747,1,1441900735421,1441900735505,932,413,0,0,0,5,4,1,54,0005-00-0008-66.png,0004-00-0006-47.png
00000009,748,0,1441900736633,1441900736665,873,398,0,0,0,3,4,1,34,0003-00-0000-32.png,0004-00-0002-06.png
00000009,749,1,1441900739835,1441900739867,959,327,0,0,0,3,2,1,32,0003-00-0005-32.png,0002-00-0007-80.png
00000009,750,1,1441900740849,1441900740893,890,418,0,0,0,2,1,1,21,0002-00-0003-82.png,0001-00-0002-16.png
00000009,751,0,1441900742029,1441900742081,913,399,0,0,0,2,3,1,23,0002-00-0007-60.png,0003-00-0007-31.png
00000009,752,0,1441900745092,1441900745132,888,436,0,0,0,1,2,1,12,0001-00-0009-17.png,0002-00-0004-56.png
00000009,753,0,1441900748064,1441900748638,451,289,0,0,0,4,3,1,43,0004-00-0009-91.png,0003-00-0001-85.png
00000009,754,0,1441900751529,1441900751563,862,436,0,0,0,1,2,1,12,0001-00-0009-94.png,0002-00-0008-69.png
00000009,755,0,1441900754408,1441900755007,912,341,0,0,0,2,3,1,23,0002-00-0005-18.png,0003-00-0009-62.png
00000009,756,1,1441900758121,1441900758753,968,335,0,0,0,2,1,1,21,0002-00-0007-49.png,0001-00-0008-13.png
00000009,757,1,1441900759627,1441900760919,1096,309,0,0,0,5,4,1,54,0005-00-0000-83.png,0004-00-0001-20.png
00000009,758,0,1441900761849,1441900761913,984,394,0,0,0,4,5,1,45,0004-00-0001-41.png,0005-00-0003-31.png
00000009,759,0,1441900765067,1441900765702,1092,297,0,0,0,3,4,1,34,0003-00-0009-44.png,0004-00-0009-52.png
00000009,760,1,1441900768704,1441900769270,1042,306,0,0,0,3,2,1,32,0003-00-0001-40.png,0002-00-0004-23.png
00000009,761,1,1441900770618,1441900770650,914,374,0,0,0,3,2,1,32,0003-00-0001-92.png,0002-00-0003-05.png
00000009,762,0,1441900771785,1441900771853,962,401,0,0,0,2,3,1,23,0002-00-0007-65.png,0003-00-0001-42.png
00000009,763,0,1441900774683,1441900774747,866,397,0,0,0,1,2,1,12,0001-00-0001-80.png,0002-00-0004-18.png
00000009,764,0,1441900777875,1441900777919,953,382,0,0,0,3,4,1,34,0003-00-0006-54.png,0004-00-0002-87.png
00000009,765,1,1441900781520,1441900782107,1076,283,0,0,0,5,4,1,54,0005-00-0006-82.png,0004-00-0006-02.png
00000009,766,0,1441900783477,1441900783595,939,384,0,0,0,4,5,1,45,0004-00-0000-74.png,0005-00-0002-85.png
00000009,767,1,1441900786776,1441900787411,963,331,0,0,0,4,3,1,43,0004-00-0002-05.png,0003-00-0002-71.png
00000009,768,1,1441900788765,1441900788905,964,370,0,0,0,2,1,1,21,0002-00-0007-04.png,0001-00-0003-71.png
00000009,769,0,1441900790085,1441900790109,895,387,0,0,0,3,4,1,34,0003-00-0001-05.png,0004-00-0008-50.png
00000009,770,0,1441900793159,1441900793882,1092,306,0,0,0,1,2,1,12,0001-00-0003-13.png,0002-00-0007-93.png
00000009,771,1,1441900796985,1441900797577,956,332,0,0,0,3,2,1,32,0003-00-0001-74.png,0002-00-0002-05.png
00000009,772,1,1441900798959,1441900799078,939,400,0,0,0,5,4,1,54,0005-00-0001-59.png,0004-00-0005-11.png
00000009,773,1,1441900800170,1441900800215,913,384,0,0,0,4,3,1,43,0004-00-0005-45.png,0003-00-0007-30.png
00000009,774,0,1441900801572,1441900801600,890,409,0,0,0,2,3,1,23,0002-00-0007-87.png,0003-00-0000-02.png
00000009,775,0,1441900804705,1441900804749,927,387,0,0,0,4,5,1,45,0004-00-0005-62.png,0005-00-0005-82.png
00000009,776,0,1441900807634,1441900808349,474,254,0,0,0,2,1,1,21,0002-00-0001-24.png,0001-00-0007-73.png
00000009,777,1,1441900811353,1441900812117,447,290,0,0,0,2,3,1,23,0002-00-0003-23.png,0003-00-0004-89.png
00000009,778,0,1441900813736,1441900813756,899,384,0,0,0,4,5,1,45,0004-00-0002-26.png,0005-00-0002-94.png
00000009,779,0,1441900816619,1441900817219,1098,322,0,0,0,1,2,1,12,0001-00-0003-90.png,0002-00-0003-00.png
00000009,780,1,1441900820066,1441900820673,990,319,0,0,0,3,2,1,32,0003-00-0004-08.png,0002-00-0005-01.png
00000009,781,1,1441900821528,1441900822720,1114,290,0,0,0,2,1,1,21,0002-00-0003-49.png,0001-00-0005-90.png
00000009,782,1,1441900823616,1441900824776,960,369,0,0,0,5,4,1,54,0005-00-0000-27.png,0004-00-0006-13.png
00000009,783,1,1441900825789,1441900825813,990,394,0,0,0,4,3,1,43,0004-00-0009-76.png,0003-00-0009-78.png
00000009,784,0,1441900826994,1441900827042,955,427,0,0,0,3,4,1,34,0003-00-0005-69.png,0004-00-0006-90.png
00000009,785,1,1441900830267,1441900830811,1092,306,0,0,0,2,1,1,21,0002-00-0006-56.png,0001-00-0008-22.png
00000009,786,0,1441900832083,1441900832155,968,355,0,0,0,1,2,1,12,0001-00-0001-03.png,0002-00-0000-83.png
00000009,787,0,1441900834994,1441900835564,1090,308,0,0,0,3,4,1,34,0003-00-0000-53.png,0004-00-0006-99.png
00000009,788,1,1441900838626,1441900839361,451,299,0,0,0,4,5,1,45,0004-00-0009-71.png,0005-00-0001-75.png
00000009,789,0,1441900840845,1441900840897,904,390,0,0,0,2,3,1,23,0002-00-0000-79.png,0003-00-0000-10.png
00000009,790,1,1441900843907,1441900844542,909,349,0,0,0,4,3,1,43,0004-00-0003-22.png,0003-00-0001-81.png
00000009,791,1,1441900846035,1441900846127,914,392,0,0,0,5,4,1,54,0005-00-0005-58.png,0004-00-0005-94.png
00000009,792,1,1441900847337,1441900847365,908,388,0,0,0,3,2,1,32,0003-00-0006-50.png,0002-00-0009-90.png
00000009,793,0,1441900848842,1441900848878,941,372,0,0,0,4,5,1,45,0004-00-0001-84.png,0005-00-0008-90.png
00000009,794,1,1441900852455,1441900853017,943,337,0,0,0,2,1,1,21,0002-00-0005-66.png,0001-00-0002-33.png
00000009,795,1,1441900854341,1441900854381,913,384,0,0,0,5,4,1,54,0005-00-0002-87.png,0004-00-0004-77.png
00000009,796,0,1441900855910,1441900855942,937,387,0,0,0,1,2,1,12,0001-00-0003-93.png,0002-00-0006-23.png
00000009,797,0,1441900859100,1441900859124,917,350,0,0,0,3,4,1,34,0003-00-0000-55.png,0004-00-0000-12.png
00000009,798,1,1441900862668,1441900863300,473,321,0,0,0,2,3,1,23,0002-00-0006-66.png,0003-00-0006-00.png
00000009,799,1,1441900864134,1441900864202,931,417,0,0,0,3,2,1,32,0003-00-0009-60.png,0002-00-0008-22.png
00000009,800,1,1441900865279,1441900865323,872,421,0,0,0,4,3,1,43,0004-00-0001-17.png,0003-00-0009-32.png
00000009,801,1,1441900866682,1441900866710,894,394,0,0,0,5,4,1,54,0005-00-0000-71.png,0004-00-0002-21.png
00000009,802,1,1441900868244,1441900869384,425,284,0,0,0,4,5,1,45,0004-00-0007-75.png,0005-00-0007-82.png
00000009,803,0,1441900870330,1441900870358,899,410,0,0,0,2,3,1,23,0002-00-0005-42.png,0003-00-0004-67.png
00000009,804,0,1441900873538,1441900874068,969,341,0,0,0,3,4,1,34,0003-00-0005-55.png,0004-00-0007-73.png
00000009,805,1,1441900876926,1441900877512,937,353,0,0,0,2,1,1,21,0002-00-0009-66.png,0001-00-0002-67.png
00000009,806,0,1441900878864,1441900878908,924,349,0,0,0,1,2,1,12,0001-00-0002-66.png,0002-00-0009-29.png
00000009,807,1,1441900881957,1441900882252,962,391,0,0,0,4,3,1,43,0004-00-0005-13.png,0003-00-0005-30.png
00000009,808,1,1441900883149,1441900883197,990,358,0,0,0,3,2,1,32,0003-00-0001-14.png,0002-00-0007-00.png
00000009,809,0,1441900884769,1441900884821,947,384,0,0,0,3,4,1,34,0003-00-0009-29.png,0004-00-0004-34.png
00000009,810,1,1441900887961,1441900888557,1067,302,0,0,0,5,4,1,54,0005-00-0000-63.png,0004-00-0002-34.png
00000009,811,1,1441900890006,1441900890063,939,345,0,0,0,3,2,1,32,0003-00-0005-55.png,0002-00-0000-92.png
00000009,812,0,1441900891283,1441900891327,912,410,0,0,0,1,2,1,12,0001-00-0009-10.png,0002-00-0006-50.png
00000009,813,0,1441900894478,1441900895013,469,265,0,0,0,4,3,1,43,0004-00-0004-23.png,0003-00-0002-11.png
00000009,814,0,1441900898173,1441900898233,959,356,0,0,0,2,3,1,23,0002-00-0007-03.png,0003-00-0005-66.png
00000009,815,1,1441900901394,1441900902105,480,269,0,0,0,4,5,1,45,0004-00-0008-79.png,0005-00-0008-53.png
00000009,816,1,1441900902985,1441900903017,975,384,0,0,0,2,1,1,21,0002-00-0008-61.png,0001-00-0008-15.png
00000009,817,0,1441900904046,1441900904074,896,390,0,0,0,4,5,1,45,0004-00-0003-57.png,0005-00-0006-13.png
00000009,818,0,1441900907207,1441900907255,947,361,0,0,0,3,4,1,34,0003-00-0005-35.png,0004-00-0000-26.png
00000009,819,0,1441900910179,1441900910784,1118,279,0,0,0,1,2,1,12,0001-00-0004-68.png,0002-00-0009-47.png
00000009,820,1,1441900913907,1441900914454,932,342,0,0,0,3,2,1,32,0003-00-0002-94.png,0002-00-0006-52.png
00000009,821,1,1441900915324,1441900915388,971,428,0,0,0,2,1,1,21,0002-00-0001-51.png,0001-00-0005-05.png
00000009,822,0,1441900916544,1441900916580,926,378,0,0,0,2,3,1,23,0002-00-0006-75.png,0003-00-0002-31.png
00000009,823,1,1441900919679,1441900920347,1113,279,0,0,0,5,4,1,54,0005-00-0004-55.png,0004-00-0002-33.png
00000009,824,1,1441900921766,1441900921794,913,376,0,0,0,4,3,1,43,0004-00-0002-32.png,0003-00-0009-90.png
00000009,825,1,1441900924078,1441900924926,1110,289,0,0,0,5,4,1,54,0005-00-0006-81.png,0004-00-0006-21.png
00000009,826,1,1441900926474,1441900926494,891,361,0,0,0,3,2,1,32,0003-00-0009-35.png,0002-00-0005-09.png
00000009,827,0,1441900928581,1441900929208,506,291,0,0,0,2,1,1,21,0002-00-0008-03.png,0001-00-0003-37.png
00000009,828,1,1441900933791,1441900933835,869,392,0,0,0,4,3,1,43,0004-00-0000-71.png,0003-00-0006-30.png
00000009,829,0,1441900934863,1441900934895,943,344,0,0,0,2,3,1,23,0002-00-0002-60.png,0003-00-0002-62.png
00000009,830,0,1441900938062,1441900938122,948,358,0,0,0,1,2,1,12,0001-00-0008-44.png,0002-00-0004-11.png
00000009,831,0,1441900941080,1441900941108,862,410,0,0,0,4,5,1,45,0004-00-0005-86.png,0005-00-0006-22.png
00000009,832,1,1441900944362,1441900944899,471,304,0,0,0,3,4,1,34,0003-00-0000-85.png,0004-00-0002-27.png
00000009,833,1,1441900945784,1441900945856,955,410,0,0,0,3,2,1,32,0003-00-0004-37.png,0002-00-0009-36.png
00000009,834,1,1441900946837,1441900946885,940,421,0,0,0,5,4,1,54,0005-00-0005-64.png,0004-00-0002-11.png
00000009,835,0,1441900948246,1441900948278,913,410,0,0,0,3,4,1,34,0003-00-0004-67.png,0004-00-0003-64.png
00000009,836,1,1441900951716,1441900952566,450,293,0,0,0,4,5,1,45,0004-00-0000-63.png,0005-00-0003-41.png
00000009,837,0,1441900953456,1441900953532,976,462,0,0,0,1,2,1,12,0001-00-0006-72.png,0002-00-0006-34.png
00000009,838,1,1441900956716,1441900957456,338,403,0,0,0,2,3,1,23,0002-00-0008-17.png,0003-00-0009-64.png
00000009,839,1,1441900958873,1441900958937,939,349,0,0,0,4,3,1,43,0004-00-0008-70.png,0003-00-0008-32.png
00000009,840,1,1441900960024,1441900960044,912,411,0,0,0,2,1,1,21,0002-00-0001-35.png,0001-00-0009-65.png
00000009,841,1,1441900961334,1441900961398,920,452,0,0,0,4,3,1,43,0004-00-0006-25.png,0003-00-0008-97.png
00000009,842,1,1441900963668,1441900964284,459,282,0,0,0,2,3,1,23,0002-00-0000-01.png,0003-00-0007-64.png
00000009,843,0,1441900965232,1441900965272,948,410,0,0,0,3,4,1,34,0003-00-0008-02.png,0004-00-0005-68.png
00000009,844,1,1441900968242,1441900969119,468,293,0,0,0,1,2,1,12,0001-00-0004-05.png,0002-00-0009-49.png
00000009,845,0,1441900969985,1441900970864,489,269,0,0,0,5,4,1,54,0005-00-0004-54.png,0004-00-0007-90.png
00000009,846,0,1441900974306,1441900974945,427,297,0,0,0,2,1,1,21,0002-00-0005-96.png,0001-00-0009-17.png
00000009,847,0,1441900978090,1441900978118,935,354,0,0,0,4,5,1,45,0004-00-0006-10.png,0005-00-0001-89.png
00000009,848,1,1441900980949,1441900981498,938,338,0,0,0,3,2,1,32,0003-00-0001-95.png,0002-00-0006-55.png
00000009,849,0,1441900982870,1441900982966,939,370,0,0,0,2,3,1,23,0002-00-0004-46.png,0003-00-0004-73.png
00000009,850,1,1441900986070,1441900986739,1064,309,0,0,0,4,3,1,43,0004-00-0003-18.png,0003-00-0008-11.png
00000009,851,0,1441900988764,1441900989444,1093,309,0,0,0,1,2,1,12,0001-00-0006-82.png,0002-00-0008-97.png
00000009,852,0,1441900992429,1441900993275,444,266,0,0,0,2,1,1,21,0002-00-0004-66.png,0001-00-0002-20.png
00000009,853,1,1441900996240,1441900997196,1067,299,0,0,0,5,4,1,54,0005-00-0009-08.png,0004-00-0008-26.png
00000009,854,0,1441900998093,1441900998164,965,413,0,0,0,4,5,1,45,0004-00-0008-82.png,0005-00-0003-01.png
00000009,855,1,1441901001582,1441901002157,452,319,0,0,0,3,4,1,34,0003-00-0007-01.png,0004-00-0009-34.png
00000009,856,1,1441901002992,1441901003068,964,410,0,0,0,3,2,1,32,0003-00-0002-08.png,0002-00-0006-25.png
00000009,857,1,1441901003889,1441901003929,900,411,0,0,0,5,4,1,54,0005-00-0003-61.png,0004-00-0007-37.png
00000009,858,0,1441901005189,1441901005667,1004,529,0,0,0,3,4,1,34,0003-00-0008-87.png,0004-00-0001-62.png
00000009,859,1,1441901008818,1441901008859,898,379,0,0,0,3,2,1,32,0003-00-0006-94.png,0002-00-0000-07.png
00000009,860,0,1441901009801,1441901009871,978,410,0,0,0,2,3,1,23,0002-00-0005-32.png,0003-00-0003-19.png
00000009,861,1,1441901013042,1441901013078,941,378,0,0,0,2,1,1,21,0002-00-0002-06.png,0001-00-0000-30.png
00000009,862,0,1441901013994,1441901014883,490,285,0,0,0,4,3,1,43,0004-00-0005-86.png,0003-00-0001-00.png
00000009,863,0,1441901018069,1441901018093,926,382,0,0,0,1,2,1,12,0001-00-0002-77.png,0002-00-0003-93.png
00000009,864,0,1441901020968,1441901021000,899,410,0,0,0,4,5,1,45,0004-00-0006-33.png,0005-00-0006-22.png
00000009,865,1,1441901024121,1441901024695,941,352,0,0,0,3,2,1,32,0003-00-0003-08.png,0002-00-0007-04.png
00000009,866,0,1441901026058,1441901026090,913,358,0,0,0,3,4,1,34,0003-00-0006-68.png,0004-00-0001-47.png
00000009,867,0,1441901029168,1441901029187,857,411,0,0,0,2,3,1,23,0002-00-0008-36.png,0003-00-0000-30.png
00000009,868,0,1441901032270,1441901032931,454,276,0,0,0,2,1,1,21,0002-00-0007-12.png,0001-00-0007-73.png
00000009,869,1,1441901035917,1441901036619,425,304,0,0,0,4,5,1,45,0004-00-0006-61.png,0005-00-0009-35.png
00000009,870,1,1441901037980,1441901038044,906,365,0,0,0,5,4,1,54,0005-00-0000-09.png,0004-00-0000-43.png
00000009,871,0,1441901039174,1441901039230,928,434,0,0,0,1,2,1,12,0001-00-0004-32.png,0002-00-0000-48.png
00000009,872,0,1441901042416,1441901043025,468,270,0,0,0,4,3,1,43,0004-00-0003-91.png,0003-00-0000-42.png
00000009,873,0,1441901046142,1441901046908,958,344,0,0,0,2,3,1,23,0002-00-0001-77.png,0003-00-0001-07.png
00000009,874,0,1441901050045,1441901050623,939,371,0,0,0,3,4,1,34,0003-00-0009-60.png,0004-00-0001-94.png
00000009,875,1,1441901053816,1441901054437,1105,306,0,0,0,2,1,1,21,0002-00-0008-46.png,0001-00-0000-62.png
00000009,876,1,1441901055333,1441901055365,941,368,0,0,0,4,3,1,43,0004-00-0001-92.png,0003-00-0005-72.png
00000009,877,0,1441901056357,1441901056405,913,384,0,0,0,1,2,1,12,0001-00-0006-39.png,0002-00-0006-65.png
00000009,878,0,1441901059499,1441901060221,478,247,0,0,0,5,4,1,54,0005-00-0003-37.png,0004-00-0003-01.png
00000009,879,0,1441901063423,1441901063703,888,436,0,0,0,4,5,1,45,0004-00-0000-10.png,0005-00-0000-73.png
00000009,880,1,1441901066643,1441901067174,926,340,0,0,0,3,2,1,32,0003-00-0003-46.png,0002-00-0000-90.png
00000009,881,1,1441901067994,1441901068062,913,410,0,0,0,4,3,1,43,0004-00-0005-58.png,0003-00-0001-75.png
00000009,882,0,1441901069057,1441901069109,899,384,0,0,0,3,4,1,34,0003-00-0007-26.png,0004-00-0006-56.png
00000009,883,0,1441901072249,1441901072305,913,388,0,0,0,2,3,1,23,0002-00-0001-41.png,0003-00-0008-83.png
00000009,884,1,1441901075419,1441901075970,1135,309,0,0,0,5,4,1,54,0005-00-0001-66.png,0004-00-0005-08.png
00000009,885,0,1441901077265,1441901077330,939,342,0,0,0,4,5,1,45,0004-00-0002-81.png,0005-00-0004-21.png
00000009,886,1,1441901080357,1441901080931,485,285,0,0,0,1,2,1,12,0001-00-0004-32.png,0002-00-0009-34.png
00000009,887,1,1441901081786,1441901081846,964,422,0,0,0,2,1,1,21,0002-00-0007-68.png,0001-00-0002-93.png
00000009,888,1,1441901083365,1441901083409,922,410,0,0,0,3,2,1,32,0003-00-0001-96.png,0002-00-0007-92.png
00000009,889,1,1441901084666,1441901084789,951,456,0,0,0,4,3,1,43,0004-00-0002-09.png,0003-00-0004-47.png
00000009,890,1,1441901086117,1441901086165,924,448,0,0,0,3,2,1,32,0003-00-0000-24.png,0002-00-0007-12.png
00000009,891,1,1441901087649,1441901087685,917,410,0,0,0,2,1,1,21,0002-00-0007-51.png,0001-00-0005-32.png
00000009,892,0,1441901089029,1441901089061,919,425,0,0,0,2,3,1,23,0002-00-0003-89.png,0003-00-0006-02.png
00000009,893,0,1441901092053,1441901092094,862,488,0,0,0,3,4,1,34,0003-00-0009-31.png,0004-00-0000-85.png
00000009,894,0,1441901095253,1441901095311,933,382,0,0,0,4,5,1,45,0004-00-0007-48.png,0005-00-0004-26.png
00000009,895,1,1441901098491,1441901098545,954,383,0,0,0,5,4,1,54,0005-00-0009-60.png,0004-00-0003-96.png
00000009,896,0,1441901099577,1441901099609,953,436,0,0,0,1,2,1,12,0001-00-0002-96.png,0002-00-0007-68.png
00000009,897,1,1441901102577,1441901103161,373,433,0,0,0,1,2,1,12,0001-00-0007-87.png,0002-00-0004-68.png
00000009,898,1,1441901104634,1441901105253,486,334,0,0,0,2,3,1,23,0002-00-0001-08.png,0003-00-0000-54.png
00000009,899,0,1441901106727,1441901106803,939,384,0,0,0,3,4,1,34,0003-00-0005-54.png,0004-00-0007-83.png
00000009,900,1,1441901109998,1441901110018,919,348,0,0,0,3,2,1,32,0003-00-0008-66.png,0002-00-0006-13.png
00000009,901,1,1441901110992,1441901111803,1071,253,0,0,0,5,4,1,54,0005-00-0002-61.png,0004-00-0004-34.png
00000009,902,1,1441901114113,1441901114153,911,301,0,0,0,4,3,1,43,0004-00-0008-59.png,0003-00-0000-94.png
00000009,903,0,1441901115218,1441901115258,932,442,0,0,0,4,5,1,45,0004-00-0002-14.png,0005-00-0007-38.png
00000009,904,1,1441901118246,1441901118887,982,326,0,0,0,2,1,1,21,0002-00-0002-75.png,0001-00-0006-88.png
00000009,905,0,1441901121001,1441901121753,502,265,0,0,0,4,3,1,43,0004-00-0009-74.png,0003-00-0006-30.png
00000009,906,0,1441901124807,1441901125368,954,343,0,0,0,3,4,1,34,0003-00-0001-44.png,0004-00-0006-69.png
00000009,907,1,1441901128225,1441901128885,479,286,0,0,0,4,5,1,45,0004-00-0002-67.png,0005-00-0003-87.png
00000009,908,0,1441901129733,1441901129797,950,410,0,0,0,1,2,1,12,0001-00-0000-35.png,0002-00-0001-99.png
00000009,909,1,1441901132975,1441901133669,471,282,0,0,0,2,3,1,23,0002-00-0006-53.png,0003-00-0009-83.png
00000009,910,1,1441901134565,1441901134641,928,436,0,0,0,5,4,1,54,0005-00-0003-63.png,0004-00-0007-46.png
00000009,911,1,1441901135886,1441901135906,965,420,0,0,0,2,1,1,21,0002-00-0003-96.png,0001-00-0008-94.png
00000009,912,1,1441901137139,1441901137191,961,452,0,0,0,3,2,1,32,0003-00-0002-36.png,0002-00-0008-59.png
00000009,913,0,1441901138696,1441901138772,933,445,0,0,0,3,4,1,34,0003-00-0006-76.png,0004-00-0008-40.png
00000009,914,1,1441901141966,1441901142602,1092,296,0,0,0,4,3,1,43,0004-00-0005-60.png,0003-00-0005-16.png
00000009,915,1,1441901143442,1441901143506,976,433,0,0,0,2,1,1,21,0002-00-0005-63.png,0001-00-0004-46.png
00000009,916,0,1441901144856,1441901144899,886,410,0,0,0,4,5,1,45,0004-00-0002-64.png,0005-00-0009-01.png
00000009,917,1,1441901148037,1441901148099,913,384,0,0,0,3,2,1,32,0003-00-0003-34.png,0002-00-0007-75.png
00000009,918,0,1441901148983,1441901149067,974,462,0,0,0,2,3,1,23,0002-00-0008-75.png,0003-00-0005-93.png
00000009,919,1,1441901152240,1441901152276,938,377,0,0,0,5,4,1,54,0005-00-0000-39.png,0004-00-0004-96.png
00000009,920,0,1441901153163,1441901153199,889,387,0,0,0,1,2,1,12,0001-00-0006-91.png,0002-00-0006-61.png
00000009,921,1,1441901156286,1441901156903,1070,308,0,0,0,2,1,1,21,0002-00-0004-04.png,0001-00-0005-41.png
00000009,922,1,1441901158233,1441901158285,953,374,0,0,0,5,4,1,54,0005-00-0008-03.png,0004-00-0005-51.png
00000009,923,1,1441901159415,1441901159447,938,456,0,0,0,4,3,1,43,0004-00-0002-20.png,0003-00-0004-09.png
00000009,924,0,1441901160656,1441901160696,911,447,0,0,0,3,4,1,34,0003-00-0004-15.png,0004-00-0007-56.png
00000009,925,1,1441901163629,1441901164244,480,287,0,0,0,4,5,1,45,0004-00-0004-45.png,0005-00-0008-91.png
00000009,926,0,1441901165075,1441901165206,929,514,0,0,0,1,2,1,12,0001-00-0008-28.png,0002-00-0000-57.png
00000009,927,0,1441901168139,1441901168791,970,402,0,0,0,2,3,1,23,0002-00-0003-20.png,0003-00-0009-78.png
00000009,928,1,1441901172005,1441901172613,948,336,0,0,0,3,2,1,32,0003-00-0000-78.png,0002-00-0000-56.png
00000009,929,0,1441901173462,1441901173530,939,446,0,0,0,1,2,1,12,0001-00-0002-80.png,0002-00-0008-70.png
00000009,930,0,1441901176527,1441901177203,507,297,0,0,0,2,1,1,21,0002-00-0007-40.png,0001-00-0007-06.png
00000009,931,0,1441901180352,1441901180384,869,401,0,0,0,2,3,1,23,0002-00-0001-67.png,0003-00-0001-73.png
00000009,932,1,1441901183543,1441901184145,962,292,0,0,0,5,4,1,54,0005-00-0002-78.png,0004-00-0004-76.png
00000009,933,1,1441901184991,1441901185067,990,424,0,0,0,3,2,1,32,0003-00-0001-19.png,0002-00-0009-30.png
00000009,934,0,1441901186097,1441901186145,957,417,0,0,0,3,4,1,34,0003-00-0004-40.png,0004-00-0008-38.png
00000009,935,1,1441901189085,1441901189716,465,305,0,0,0,4,5,1,45,0004-00-0001-71.png,0005-00-0009-14.png
00000009,936,1,1441901191134,1441901191194,929,401,0,0,0,4,3,1,43,0004-00-0001-51.png,0003-00-0007-42.png
00000009,937,0,1441901192357,1441901192405,970,460,0,0,0,4,5,1,45,0004-00-0003-58.png,0005-00-0001-14.png
00000009,938,1,1441901195642,1441901196499,1095,290,0,0,0,2,1,1,21,0002-00-0003-61.png,0001-00-0001-96.png
00000009,939,0,1441901197891,1441901197943,939,371,0,0,0,2,3,1,23,0002-00-0002-92.png,0003-00-0005-12.png
00000009,940,0,1441901201023,1441901201063,914,382,0,0,0,3,4,1,34,0003-00-0001-88.png,0004-00-0006-06.png
00000009,941,0,1441901203943,1441901203983,893,533,0,0,0,1,2,1,12,0001-00-0006-03.png,0002-00-0009-84.png
