subject_id,trial,correct_response,stim_time,response_time,x_coord,y_coord,trial_timeout,timeout_time,interTrial_timeout,left_rank,right_rank,distance,joint_rank,left_image,right_image
00000014,1,1,1440690516742,1440690517182,309,385,0,0,0,2,3,1,23,0002-00-0004-28.png,0003-00-0003-24.png
00000014,2,0,1440690518204,1440690518916,913,426,0,0,0,4,5,1,45,0004-00-0007-75.png,0005-00-0003-29.png
00000014,3,1,1440690521829,1440690522293,931,401,0,0,0,3,2,1,32,0003-00-0004-49.png,0002-00-0000-56.png
00000014,4,1,1440690523249,1440690523622,362,376,0,0,0,1,2,1,12,0001-00-0006-70.png,0002-00-0000-96.png
00000014,5,0,1440690524612,1440690525069,352,369,0,0,0,5,4,1,54,0005-00-0004-35.png,0004-00-0003-32.png
00000014,6,0,1440690528199,1440690528721,924,491,0,0,0,3,4,1,34,0003-00-0004-26.png,0004-00-0004-55.png
00000014,7,1,1440690531617,1440690532233,875,541,0,0,0,2,1,1,21,0002-00-0002-92.png,0001-00-0000-83.png
00000014,8,1,1440690533546,1440690534083,899,481,0,0,0,4,3,1,43,0004-00-0001-53.png,0003-00-0009-59.png
00000014,9,1,1440690535169,1440690535609,316,356,0,0,0,2,3,1,23,0002-00-0004-57.png,0003-00-0005-07.png
00000014,10,1,1440690536657,1440690537127,330,401,0,0,0,4,5,1,45,0004-00-0003-43.png,0005-00-0004-56.png
00000014,11,1,1440690538836,1440690539311,931,375,0,0,0,3,2,1,32,0003-00-0006-95.png,0002-00-0006-30.png
00000014,12,0,1440690540348,1440690540847,877,492,0,0,0,3,4,1,34,0003-00-0003-06.png,0004-00-0006-46.png
00000014,13,0,1440690543802,1440690544296,306,378,0,0,0,5,4,1,54,0005-00-0007-18.png,0004-00-0003-51.png
00000014,14,1,1440690547769,1440690548261,908,420,0,0,0,4,3,1,43,0004-00-0001-32.png,0003-00-0009-67.png
00000014,15,0,1440690549697,1440690550109,376,385,0,0,0,2,1,1,21,0002-00-0002-06.png,0001-00-0006-56.png
00000014,16,0,1440690553186,1440690553696,900,476,0,0,0,1,2,1,12,0001-00-0006-20.png,0002-00-0000-14.png
00000014,17,0,1440690556603,1440690556611,478,384,0,0,0,3,2,1,32,0003-00-0000-80.png,0002-00-0002-35.png
00000014,18,1,1440690560517,1440690561035,899,463,0,0,0,4,3,1,43,0004-00-0008-54.png,0003-00-0005-51.png
00000014,19,1,1440690562777,1440690563199,330,371,0,0,0,1,2,1,12,0001-00-0005-15.png,0002-00-0008-39.png
00000014,20,1,1440690567487,1440690567941,350,384,0,0,0,3,4,1,34,0003-00-0009-07.png,0004-00-0004-19.png
00000014,21,1,1440690569077,1440690569591,303,413,0,0,0,2,3,1,23,0002-00-0001-64.png,0003-00-0005-44.png
00000014,22,0,1440690570517,1440690570993,396,515,0,0,0,2,1,1,21,0002-00-0000-27.png,0001-00-0005-26.png
00000014,23,1,1440690573926,1440690574531,900,456,0,0,0,5,4,1,54,0005-00-0009-81.png,0004-00-0008-43.png
00000014,24,1,1440690575542,1440690576012,329,399,0,0,0,4,5,1,45,0004-00-0005-06.png,0005-00-0006-52.png
00000014,25,1,1440690576927,1440690577390,905,506,0,0,0,2,1,1,21,0002-00-0005-06.png,0001-00-0002-94.png
00000014,26,0,1440690578358,1440690578809,312,398,0,0,0,4,3,1,43,0004-00-0004-38.png,0003-00-0006-23.png
00000014,27,1,1440690581747,1440690582183,316,403,0,0,0,1,2,1,12,0001-00-0000-35.png,0002-00-0004-25.png
00000014,28,1,1440690583107,1440690583582,325,435,0,0,0,3,4,1,34,0003-00-0002-08.png,0004-00-0008-94.png
00000014,29,1,1440690584489,1440690584953,394,518,0,0,0,2,3,1,23,0002-00-0002-69.png,0003-00-0005-02.png
00000014,30,1,1440690585900,1440690586418,345,443,0,0,0,4,5,1,45,0004-00-0007-37.png,0005-00-0005-31.png
00000014,31,0,1440690587371,1440690587425,478,488,0,0,0,3,2,1,32,0003-00-0007-29.png,0002-00-0002-45.png
00000014,32,1,1440690591139,1440690591628,926,424,0,0,0,5,4,1,54,0005-00-0003-93.png,0004-00-0006-93.png
00000014,33,1,1440690592609,1440690593076,273,514,0,0,0,2,3,1,23,0002-00-0007-32.png,0003-00-0009-43.png
00000014,34,0,1440690594059,1440690594641,894,473,0,0,0,1,2,1,12,0001-00-0009-62.png,0002-00-0004-25.png
00000014,35,1,1440690597617,1440690597661,498,480,0,0,0,3,4,1,34,0003-00-0003-78.png,0004-00-0007-39.png
00000014,36,1,1440690598591,1440690599121,926,398,0,0,0,4,3,1,43,0004-00-0000-70.png,0003-00-0007-51.png
00000014,37,1,1440690600082,1440690600591,870,368,0,0,0,3,2,1,32,0003-00-0001-53.png,0002-00-0000-34.png
00000014,38,0,1440690601554,1440690602097,901,503,0,0,0,4,5,1,45,0004-00-0007-60.png,0005-00-0000-48.png
00000014,39,0,1440690605180,1440690605663,365,476,0,0,0,2,1,1,21,0002-00-0000-37.png,0001-00-0005-28.png
00000014,40,1,1440690608618,1440690609113,952,397,0,0,0,5,4,1,54,0005-00-0001-29.png,0004-00-0004-30.png
00000014,41,0,1440690610078,1440690610585,376,490,0,0,0,4,3,1,43,0004-00-0009-03.png,0003-00-0001-37.png
00000014,42,1,1440690613476,1440690613516,470,468,0,0,0,2,3,1,23,0002-00-0003-97.png,0003-00-0004-05.png
00000014,43,1,1440690614463,1440690614953,346,373,0,0,0,4,5,1,45,0004-00-0005-80.png,0005-00-0008-94.png
00000014,44,0,1440690615875,1440690616833,372,423,0,0,0,3,2,1,32,0003-00-0008-44.png,0002-00-0002-40.png
00000014,45,1,1440690619720,1440690619744,466,471,0,0,0,1,2,1,12,0001-00-0002-56.png,0002-00-0007-13.png
00000014,46,1,1440690620816,1440690621307,901,476,0,0,0,2,1,1,21,0002-00-0007-59.png,0001-00-0006-08.png
00000014,47,0,1440690622316,1440690622745,307,412,0,0,0,5,4,1,54,0005-00-0000-40.png,0004-00-0005-31.png
00000014,48,0,1440690625643,1440690626208,940,371,0,0,0,3,4,1,34,0003-00-0009-62.png,0004-00-0004-00.png
00000014,49,1,1440690629404,1440690629859,337,423,0,0,0,1,2,1,12,0001-00-0001-90.png,0002-00-0000-89.png
00000014,50,1,1440690630825,1440690631295,305,409,0,0,0,2,3,1,23,0002-00-0005-31.png,0003-00-0002-95.png
00000014,51,1,1440690632274,1440690632788,861,483,0,0,0,2,1,1,21,0002-00-0007-37.png,0001-00-0003-19.png
00000014,52,1,1440690633781,1440690634272,370,513,0,0,0,4,5,1,45,0004-00-0003-83.png,0005-00-0008-01.png
00000014,53,1,1440690635283,1440690635816,900,461,0,0,0,5,4,1,54,0005-00-0001-39.png,0004-00-0007-96.png
00000014,54,0,1440690636853,1440690637338,327,391,0,0,0,3,2,1,32,0003-00-0001-45.png,0002-00-0006-03.png
00000014,55,1,1440690640550,1440690641013,330,410,0,0,0,3,4,1,34,0003-00-0009-61.png,0004-00-0009-42.png
00000014,56,0,1440690641941,1440690642466,396,505,0,0,0,4,3,1,43,0004-00-0000-16.png,0003-00-0002-68.png
00000014,57,0,1440690645539,1440690645991,334,397,0,0,0,5,4,1,54,0005-00-0002-58.png,0004-00-0005-56.png
00000014,58,1,1440690650417,1440690650880,346,387,0,0,0,2,3,1,23,0002-00-0007-90.png,0003-00-0007-82.png
00000014,59,0,1440690651710,1440690652295,334,395,0,0,0,4,3,1,43,0004-00-0003-17.png,0003-00-0003-16.png
00000014,60,1,1440690655344,1440690655842,930,417,0,0,0,2,1,1,21,0002-00-0004-11.png,0001-00-0005-76.png
00000014,61,0,1440690656777,1440690657297,896,496,0,0,0,3,4,1,34,0003-00-0001-13.png,0004-00-0008-78.png
00000014,62,1,1440690660365,1440690660810,358,452,0,0,0,4,5,1,45,0004-00-0002-43.png,0005-00-0006-16.png
00000014,63,1,1440690661729,1440690662677,928,413,0,0,0,3,2,1,32,0003-00-0005-77.png,0002-00-0002-18.png
00000014,64,1,1440690663623,1440690663663,517,384,0,0,0,1,2,1,12,0001-00-0002-18.png,0002-00-0006-01.png
00000014,65,1,1440690664878,1440690665291,350,436,0,0,0,2,3,1,23,0002-00-0009-06.png,0003-00-0004-62.png
00000014,66,0,1440690666259,1440690666773,878,401,0,0,0,4,5,1,45,0004-00-0005-38.png,0005-00-0005-32.png
00000014,67,0,1440690669906,1440690670408,316,407,0,0,0,5,4,1,54,0005-00-0004-64.png,0004-00-0003-44.png
00000014,68,0,1440690673243,1440690673268,484,445,0,0,0,3,2,1,32,0003-00-0002-73.png,0002-00-0007-38.png
00000014,69,1,1440690676137,1440690676601,273,436,0,0,0,1,2,1,12,0001-00-0007-30.png,0002-00-0006-83.png
00000014,70,0,1440690677467,1440690677479,510,444,0,0,0,2,1,1,21,0002-00-0000-63.png,0001-00-0001-87.png
00000014,71,1,1440690680581,1440690681037,376,384,0,0,0,3,4,1,34,0003-00-0007-09.png,0004-00-0001-52.png
00000014,72,0,1440690681931,1440690681955,504,450,0,0,0,4,3,1,43,0004-00-0006-99.png,0003-00-0009-31.png
00000014,73,0,1440690685062,1440690685106,513,468,0,0,0,2,1,1,21,0002-00-0000-80.png,0001-00-0006-39.png
00000014,74,1,1440690688223,1440690688702,365,418,0,0,0,1,2,1,12,0001-00-0001-21.png,0002-00-0007-55.png
00000014,75,1,1440690689654,1440690690173,401,422,0,0,0,4,5,1,45,0004-00-0002-53.png,0005-00-0005-51.png
00000014,76,0,1440690691267,1440690691757,900,397,0,0,0,2,3,1,23,0002-00-0002-69.png,0003-00-0001-28.png
00000014,77,0,1440690694734,1440690695260,350,408,0,0,0,3,2,1,32,0003-00-0000-36.png,0002-00-0003-61.png
00000014,78,0,1440690698303,1440690698765,339,420,0,0,0,5,4,1,54,0005-00-0002-39.png,0004-00-0004-07.png
00000014,79,0,1440690701682,1440690702208,878,390,0,0,0,3,4,1,34,0003-00-0003-15.png,0004-00-0007-96.png
00000014,80,0,1440690705179,1440690705623,330,400,0,0,0,4,3,1,43,0004-00-0001-69.png,0003-00-0000-72.png
00000014,81,0,1440690708676,1440690709278,876,476,0,0,0,1,2,1,12,0001-00-0002-11.png,0002-00-0008-77.png
00000014,82,1,1440690712346,1440690712861,901,462,0,0,0,5,4,1,54,0005-00-0004-91.png,0004-00-0003-28.png
00000014,83,1,1440690713796,1440690714367,896,472,0,0,0,4,3,1,43,0004-00-0007-94.png,0003-00-0004-91.png
00000014,84,1,1440690715315,1440690715820,376,501,0,0,0,2,3,1,23,0002-00-0000-14.png,0003-00-0000-81.png
00000014,85,0,1440690716846,1440690717349,926,384,0,0,0,3,4,1,34,0003-00-0003-31.png,0004-00-0009-77.png
00000014,86,0,1440690720281,1440690720301,504,423,0,0,0,3,2,1,32,0003-00-0008-68.png,0002-00-0001-12.png
00000014,87,0,1440690723536,1440690723999,361,394,0,0,0,2,1,1,21,0002-00-0001-30.png,0001-00-0009-94.png
00000014,88,1,1440690727987,1440690728437,368,492,0,0,0,4,5,1,45,0004-00-0002-28.png,0005-00-0003-50.png
00000014,89,1,1440690729410,1440690729953,887,464,0,0,0,5,4,1,54,0005-00-0001-16.png,0004-00-0007-61.png
00000014,90,0,1440690730910,1440690731429,306,409,0,0,0,4,3,1,43,0004-00-0002-68.png,0003-00-0006-22.png
00000014,91,0,1440690734608,1440690735134,900,474,0,0,0,2,3,1,23,0002-00-0004-70.png,0003-00-0009-89.png
00000014,92,1,1440690738304,1440690738810,922,471,0,0,0,2,1,1,21,0002-00-0003-25.png,0001-00-0002-53.png
00000014,93,1,1440690739763,1440690740284,915,449,0,0,0,3,2,1,32,0003-00-0005-09.png,0002-00-0007-50.png
00000014,94,1,1440690741365,1440690741841,324,396,0,0,0,1,2,1,12,0001-00-0001-77.png,0002-00-0008-35.png
00000014,95,0,1440690742855,1440690743408,927,382,0,0,0,4,5,1,45,0004-00-0008-03.png,0005-00-0001-72.png
00000014,96,1,1440690746289,1440690746309,514,448,0,0,0,3,4,1,34,0003-00-0000-29.png,0004-00-0004-18.png
00000014,97,1,1440690747367,1440690747934,949,387,0,0,0,3,2,1,32,0003-00-0007-98.png,0002-00-0007-82.png
00000014,98,0,1440690748917,1440690749434,339,416,0,0,0,4,3,1,43,0004-00-0004-29.png,0003-00-0006-78.png
00000014,99,0,1440690752305,1440690752930,931,374,0,0,0,4,5,1,45,0004-00-0001-40.png,0005-00-0001-23.png
00000014,100,0,1440690755874,1440690756364,342,401,0,0,0,2,1,1,21,0002-00-0004-07.png,0001-00-0001-46.png
00000014,101,1,1440690759621,1440690760101,876,476,0,0,0,5,4,1,54,0005-00-0002-27.png,0004-00-0003-36.png
00000014,102,0,1440690761012,1440690761547,929,480,0,0,0,3,4,1,34,0003-00-0005-89.png,0004-00-0006-41.png
00000014,103,1,1440690764387,1440690764980,349,323,0,0,0,1,2,1,12,0001-00-0005-74.png,0002-00-0003-48.png
00000014,104,0,1440690765892,1440690766429,928,391,0,0,0,2,3,1,23,0002-00-0009-47.png,0003-00-0008-47.png
00000014,105,0,1440690769351,1440690769894,882,474,0,0,0,2,3,1,23,0002-00-0002-86.png,0003-00-0006-90.png
00000014,106,1,1440690772968,1440690772984,438,464,0,0,0,4,5,1,45,0004-00-0000-35.png,0005-00-0008-30.png
00000014,107,1,1440690773931,1440690774448,300,405,0,0,0,1,2,1,12,0001-00-0001-02.png,0002-00-0001-83.png
00000014,108,1,1440690775411,1440690776108,891,458,0,0,0,3,2,1,32,0003-00-0006-83.png,0002-00-0003-57.png
00000014,109,1,1440690777062,1440690777587,952,450,0,0,0,4,3,1,43,0004-00-0003-20.png,0003-00-0007-29.png
00000014,110,1,1440690778640,1440690779131,870,388,0,0,0,2,1,1,21,0002-00-0002-66.png,0001-00-0002-94.png
00000014,111,1,1440690780112,1440690780708,898,483,0,0,0,5,4,1,54,0005-00-0007-91.png,0004-00-0001-87.png
00000014,112,0,1440690781752,1440690782241,932,362,0,0,0,3,4,1,34,0003-00-0006-20.png,0004-00-0008-08.png
00000014,113,1,1440690785210,1440690785787,877,466,0,0,0,4,3,1,43,0004-00-0003-88.png,0003-00-0008-80.png
00000014,114,1,1440690786690,1440690787207,899,464,0,0,0,2,1,1,21,0002-00-0007-66.png,0001-00-0006-41.png
00000014,115,0,1440690788192,1440690788752,900,397,0,0,0,2,3,1,23,0002-00-0001-00.png,0003-00-0008-24.png
00000014,116,1,1440690791670,1440690792316,320,405,0,0,0,1,2,1,12,0001-00-0007-39.png,0002-00-0004-92.png
00000014,117,1,1440690793251,1440690793771,875,358,0,0,0,5,4,1,54,0005-00-0009-17.png,0004-00-0009-88.png
00000014,118,1,1440690794751,1440690795237,878,428,0,0,0,3,2,1,32,0003-00-0005-14.png,0002-00-0009-39.png
00000014,119,0,1440690796276,1440690796801,884,357,0,0,0,3,4,1,34,0003-00-0001-18.png,0004-00-0007-20.png
00000014,120,1,1440690801657,1440690801693,458,438,0,0,0,4,5,1,45,0004-00-0003-35.png,0005-00-0003-55.png
00000014,121,1,1440690802838,1440690803356,918,387,0,0,0,5,4,1,54,0005-00-0000-31.png,0004-00-0004-20.png
00000014,122,1,1440690804494,1440690804981,388,515,0,0,0,4,5,1,45,0004-00-0005-66.png,0005-00-0006-05.png
00000014,123,1,1440690806013,1440690806463,947,367,0,0,0,4,3,1,43,0004-00-0000-07.png,0003-00-0005-51.png
00000014,124,1,1440690807453,1440690807961,900,462,0,0,0,2,1,1,21,0002-00-0002-23.png,0001-00-0002-29.png
00000014,125,1,1440690808912,1440690809386,402,489,0,0,0,1,2,1,12,0001-00-0006-88.png,0002-00-0000-22.png
00000014,126,0,1440690810349,1440690810866,952,391,0,0,0,2,3,1,23,0002-00-0003-23.png,0003-00-0005-24.png
00000014,127,1,1440690819577,1440690820002,944,399,0,0,0,3,2,1,32,0003-00-0001-20.png,0002-00-0000-56.png
00000014,128,0,1440690820950,1440690821447,912,503,0,0,0,3,4,1,34,0003-00-0000-58.png,0004-00-0005-33.png
00000014,129,1,1440690824796,1440690825291,893,380,0,0,0,4,3,1,43,0004-00-0008-86.png,0003-00-0005-71.png
00000014,130,0,1440690826199,1440690826243,504,488,0,0,0,3,2,1,32,0003-00-0006-97.png,0002-00-0007-45.png
00000014,131,1,1440690829418,1440690829926,322,410,0,0,0,4,5,1,45,0004-00-0000-64.png,0005-00-0006-66.png
00000014,132,1,1440690830838,1440690830878,478,436,0,0,0,3,4,1,34,0003-00-0007-96.png,0004-00-0009-87.png
00000014,133,1,1440690831992,1440690832519,933,422,0,0,0,5,4,1,54,0005-00-0008-62.png,0004-00-0008-98.png
00000014,134,1,1440690833481,1440690833983,358,393,0,0,0,1,2,1,12,0001-00-0000-69.png,0002-00-0008-39.png
00000014,135,0,1440690834882,1440690834938,453,462,0,0,0,2,1,1,21,0002-00-0003-35.png,0001-00-0008-32.png
00000014,136,1,1440690837767,1440690838201,427,478,0,0,0,2,3,1,23,0002-00-0007-88.png,0003-00-0002-02.png
00000014,137,0,1440690839116,1440690839659,923,509,0,0,0,1,2,1,12,0001-00-0009-13.png,0002-00-0006-30.png
00000014,138,1,1440690842672,1440690843183,875,513,0,0,0,4,3,1,43,0004-00-0002-21.png,0003-00-0002-04.png
00000014,139,0,1440690844054,1440690844082,490,498,0,0,0,5,4,1,54,0005-00-0003-58.png,0004-00-0002-18.png
00000014,140,1,1440690847155,1440690847645,363,491,0,0,0,3,4,1,34,0003-00-0008-43.png,0004-00-0000-36.png
00000014,141,1,1440690848778,1440690849322,877,384,0,0,0,3,2,1,32,0003-00-0006-26.png,0002-00-0006-73.png
00000014,142,0,1440690850306,1440690850867,926,423,0,0,0,2,3,1,23,0002-00-0006-06.png,0003-00-0000-70.png
00000014,143,0,1440690853766,1440690853782,501,469,0,0,0,2,1,1,21,0002-00-0000-88.png,0001-00-0003-18.png
00000014,144,1,1440690858300,1440690858861,394,420,0,0,0,4,5,1,45,0004-00-0005-42.png,0005-00-0001-06.png
00000014,145,1,1440690859777,1440690860395,924,507,0,0,0,2,1,1,21,0002-00-0004-59.png,0001-00-0008-14.png
00000014,146,1,1440690861330,1440690861334,504,479,0,0,0,2,3,1,23,0002-00-0008-55.png,0003-00-0004-92.png
00000014,147,1,1440690862351,1440690862821,342,445,0,0,0,3,4,1,34,0003-00-0009-91.png,0004-00-0005-09.png
00000014,148,1,1440690863782,1440690864319,951,386,0,0,0,3,2,1,32,0003-00-0008-25.png,0002-00-0000-74.png
00000014,149,1,1440690865252,1440690865817,938,455,0,0,0,5,4,1,54,0005-00-0000-55.png,0004-00-0003-65.png
00000014,150,1,1440690866715,1440690867229,387,420,0,0,0,1,2,1,12,0001-00-0007-30.png,0002-00-0001-77.png
00000014,151,1,1440690868692,1440690869187,953,409,0,0,0,4,3,1,43,0004-00-0000-00.png,0003-00-0000-61.png
00000014,152,1,1440690870072,1440690870625,380,399,0,0,0,4,5,1,45,0004-00-0008-33.png,0005-00-0000-42.png
00000014,153,1,1440690871447,1440690871471,504,448,0,0,0,2,3,1,23,0002-00-0009-61.png,0003-00-0002-68.png
00000014,154,1,1440690872448,1440690872994,901,487,0,0,0,2,1,1,21,0002-00-0002-76.png,0001-00-0001-98.png
00000014,155,1,1440690874272,1440690874799,427,419,0,0,0,3,4,1,34,0003-00-0004-79.png,0004-00-0007-32.png
00000014,156,0,1440690875666,1440690875682,453,424,0,0,0,3,2,1,32,0003-00-0005-16.png,0002-00-0004-49.png
00000014,157,1,1440690883372,1440690883871,921,445,0,0,0,5,4,1,54,0005-00-0006-02.png,0004-00-0004-84.png
00000014,158,1,1440690885183,1440690885680,376,488,0,0,0,4,5,1,45,0004-00-0000-59.png,0005-00-0006-85.png
00000014,159,0,1440690886880,1440690886896,509,456,0,0,0,4,3,1,43,0004-00-0004-61.png,0003-00-0007-40.png
00000014,160,1,1440690894442,1440690894912,366,493,0,0,0,1,2,1,12,0001-00-0007-91.png,0002-00-0001-15.png
00000014,161,1,1440690896048,1440690896557,928,415,0,0,0,5,4,1,54,0005-00-0007-51.png,0004-00-0005-04.png
00000014,162,0,1440690897449,1440690897981,977,397,0,0,0,2,3,1,23,0002-00-0003-21.png,0003-00-0004-80.png
00000014,163,1,1440690901126,1440690901537,339,427,0,0,0,1,2,1,12,0001-00-0006-01.png,0002-00-0000-11.png
00000014,164,1,1440690902607,1440690903094,927,488,0,0,0,2,1,1,21,0002-00-0003-97.png,0001-00-0000-55.png
00000014,165,0,1440690903956,1440690903976,478,423,0,0,0,3,2,1,32,0003-00-0005-94.png,0002-00-0001-38.png
00000014,166,1,1440690914710,1440690914714,523,429,0,0,0,4,5,1,45,0004-00-0002-48.png,0005-00-0008-95.png
00000014,167,0,1440690915763,1440690916213,951,383,0,0,0,3,4,1,34,0003-00-0005-78.png,0004-00-0002-14.png
00000014,168,1,1440690919290,1440690919856,876,408,0,0,0,4,3,1,43,0004-00-0005-90.png,0003-00-0008-02.png
00000014,169,1,1440690920743,1440690921304,931,401,0,0,0,4,3,1,43,0004-00-0004-31.png,0003-00-0006-87.png
00000014,170,1,1440690922532,1440690923117,930,401,0,0,0,3,2,1,32,0003-00-0001-84.png,0002-00-0008-42.png
00000014,171,0,1440690924021,1440690924669,365,513,0,0,0,5,4,1,54,0005-00-0003-08.png,0004-00-0001-72.png
00000014,172,1,1440690927559,1440690928123,349,326,0,0,0,1,2,1,12,0001-00-0003-59.png,0002-00-0001-70.png
00000014,173,0,1440690929134,1440690929616,919,401,0,0,0,2,3,1,23,0002-00-0006-41.png,0003-00-0000-21.png
00000014,174,1,1440690932787,1440690932833,517,462,0,0,0,4,5,1,45,0004-00-0008-71.png,0005-00-0008-08.png
00000014,175,1,1440690933870,1440690934373,927,425,0,0,0,2,1,1,21,0002-00-0006-46.png,0001-00-0002-52.png
00000014,176,1,1440690935241,1440690935261,504,478,0,0,0,3,4,1,34,0003-00-0009-86.png,0004-00-0003-45.png
00000014,177,0,1440690936285,1440690936776,870,524,0,0,0,4,5,1,45,0004-00-0002-24.png,0005-00-0000-15.png
00000014,178,0,1440690939664,1440690939684,520,413,0,0,0,5,4,1,54,0005-00-0007-72.png,0004-00-0003-12.png
00000014,179,0,1440690942756,1440690943272,290,406,0,0,0,2,1,1,21,0002-00-0005-64.png,0001-00-0009-95.png
00000014,180,0,1440690946374,1440690946823,288,391,0,0,0,4,3,1,43,0004-00-0005-33.png,0003-00-0003-65.png
00000014,181,1,1440690950548,1440690951019,376,384,0,0,0,2,3,1,23,0002-00-0007-36.png,0003-00-0000-53.png
00000014,182,1,1440690951958,1440690952484,342,402,0,0,0,3,4,1,34,0003-00-0004-40.png,0004-00-0003-36.png
00000014,183,1,1440690953468,1440690954481,901,466,0,0,0,3,2,1,32,0003-00-0003-62.png,0002-00-0004-71.png
00000014,184,1,1440690955405,1440690956419,455,511,0,0,0,1,2,1,12,0001-00-0008-78.png,0002-00-0001-58.png
00000014,185,1,1440690957323,1440690957367,478,480,0,0,0,2,3,1,23,0002-00-0008-61.png,0003-00-0005-62.png
00000014,186,0,1440690958500,1440690959039,293,416,0,0,0,5,4,1,54,0005-00-0001-13.png,0004-00-0006-44.png
00000014,187,0,1440690962034,1440690962046,509,409,0,0,0,4,3,1,43,0004-00-0002-58.png,0003-00-0009-94.png
00000014,188,1,1440690965074,1440690965094,484,420,0,0,0,4,5,1,45,0004-00-0003-57.png,0005-00-0000-73.png
00000014,189,1,1440690966060,1440690966120,517,488,0,0,0,1,2,1,12,0001-00-0009-36.png,0002-00-0005-87.png
00000014,190,0,1440690967183,1440690967687,340,419,0,0,0,2,1,1,21,0002-00-0009-92.png,0001-00-0007-54.png
00000014,191,0,1440690971199,1440690971215,518,448,0,0,0,3,2,1,32,0003-00-0007-47.png,0002-00-0004-54.png
00000014,192,0,1440690974078,1440690974488,926,411,0,0,0,3,4,1,34,0003-00-0003-14.png,0004-00-0001-87.png
00000014,193,0,1440690977490,1440690977506,504,479,0,0,0,3,2,1,32,0003-00-0004-21.png,0002-00-0001-77.png
00000014,194,0,1440690980628,1440690981116,889,491,0,0,0,2,3,1,23,0002-00-0009-97.png,0003-00-0001-35.png
00000014,195,1,1440690984752,1440690985259,344,384,0,0,0,4,5,1,45,0004-00-0009-20.png,0005-00-0007-44.png
00000014,196,1,1440690986226,1440690986697,387,509,0,0,0,1,2,1,12,0001-00-0003-17.png,0002-00-0002-69.png
00000014,197,1,1440690987638,1440690988192,906,468,0,0,0,4,3,1,43,0004-00-0000-84.png,0003-00-0007-62.png
00000014,198,1,1440690989157,1440690989647,875,377,0,0,0,5,4,1,54,0005-00-0007-69.png,0004-00-0003-04.png
00000014,199,1,1440690990588,1440690991129,938,424,0,0,0,2,1,1,21,0002-00-0006-74.png,0001-00-0000-52.png
00000014,200,0,1440690992056,1440690992573,899,488,0,0,0,3,4,1,34,0003-00-0003-98.png,0004-00-0000-95.png
00000014,201,0,1440690995576,1440690996086,875,502,0,0,0,1,2,1,12,0001-00-0008-70.png,0002-00-0009-37.png
00000014,202,0,1440690999720,1440691000179,313,398,0,0,0,2,1,1,21,0002-00-0002-63.png,0001-00-0005-71.png
00000014,203,1,1440691003149,1440691003659,239,482,0,0,0,4,5,1,45,0004-00-0000-25.png,0005-00-0008-56.png
00000014,204,1,1440691004889,1440691005392,927,476,0,0,0,3,2,1,32,0003-00-0004-63.png,0002-00-0005-74.png
00000014,205,1,1440691006214,1440691006722,414,417,0,0,0,2,3,1,23,0002-00-0003-84.png,0003-00-0002-09.png
00000014,206,0,1440691007632,1440691007640,478,422,0,0,0,5,4,1,54,0005-00-0001-81.png,0004-00-0009-53.png
00000014,207,0,1440691010951,1440691010979,494,462,0,0,0,4,3,1,43,0004-00-0009-52.png,0003-00-0003-14.png
00000014,208,0,1440691014540,1440691015005,949,420,0,0,0,3,4,1,34,0003-00-0000-63.png,0004-00-0000-48.png
00000014,209,1,1440691019443,1440691019902,376,410,0,0,0,1,2,1,12,0001-00-0008-91.png,0002-00-0007-24.png
00000014,210,1,1440691020818,1440691021399,426,530,0,0,0,4,5,1,45,0004-00-0003-11.png,0005-00-0006-32.png
00000014,211,0,1440691022338,1440691022851,862,398,0,0,0,2,3,1,23,0002-00-0008-35.png,0003-00-0006-40.png
00000014,212,1,1440691026654,1440691027199,911,469,0,0,0,3,2,1,32,0003-00-0003-39.png,0002-00-0009-85.png
00000014,213,1,1440691028094,1440691028626,880,388,0,0,0,4,3,1,43,0004-00-0002-39.png,0003-00-0006-94.png
00000014,214,1,1440691029554,1440691030063,926,411,0,0,0,5,4,1,54,0005-00-0005-92.png,0004-00-0004-37.png
00000014,215,1,1440691031036,1440691031100,479,481,0,0,0,3,4,1,34,0003-00-0007-57.png,0004-00-0002-25.png
00000014,216,0,1440691032169,1440691032680,387,508,0,0,0,2,1,1,21,0002-00-0005-10.png,0001-00-0007-53.png
00000014,217,0,1440691035538,1440691036002,922,420,0,0,0,1,2,1,12,0001-00-0007-38.png,0002-00-0001-62.png
00000014,218,1,1440691038868,1440691039290,339,404,0,0,0,4,5,1,45,0004-00-0008-78.png,0005-00-0004-52.png
00000014,219,1,1440691040168,1440691040686,954,417,0,0,0,5,4,1,54,0005-00-0003-92.png,0004-00-0001-54.png
00000014,220,1,1440691041590,1440691042097,955,401,0,0,0,2,1,1,21,0002-00-0009-95.png,0001-00-0000-96.png
00000014,221,0,1440691043121,1440691043608,904,506,0,0,0,2,3,1,23,0002-00-0002-92.png,0003-00-0002-04.png
00000014,222,1,1440691046510,1440691046526,520,415,0,0,0,3,4,1,34,0003-00-0002-15.png,0004-00-0002-25.png
00000014,223,1,1440691047505,1440691048005,902,496,0,0,0,3,2,1,32,0003-00-0000-32.png,0002-00-0002-20.png
00000014,224,1,1440691048900,1440691049449,926,412,0,0,0,4,3,1,43,0004-00-0005-54.png,0003-00-0004-58.png
00000014,225,1,1440691050335,1440691050860,908,487,0,0,0,3,2,1,32,0003-00-0002-98.png,0002-00-0004-54.png
00000014,226,1,1440691051855,1440691051919,475,501,0,0,0,3,4,1,34,0003-00-0004-89.png,0004-00-0003-06.png
00000014,227,0,1440691053094,1440691053622,874,371,0,0,0,1,2,1,12,0001-00-0007-95.png,0002-00-0000-44.png
00000014,228,1,1440691056488,1440691056987,929,416,0,0,0,5,4,1,54,0005-00-0003-41.png,0004-00-0007-14.png
00000014,229,1,1440691057930,1440691058476,325,417,0,0,0,4,5,1,45,0004-00-0003-02.png,0005-00-0007-05.png
00000014,230,1,1440691059449,1440691060043,926,386,0,0,0,4,3,1,43,0004-00-0003-37.png,0003-00-0009-51.png
00000014,231,0,1440691061060,1440691061578,952,385,0,0,0,2,3,1,23,0002-00-0009-00.png,0003-00-0000-01.png
00000014,232,1,1440691064636,1440691065211,914,397,0,0,0,2,1,1,21,0002-00-0001-52.png,0001-00-0003-76.png
00000014,233,1,1440691066095,1440691066629,896,484,0,0,0,2,1,1,21,0002-00-0009-77.png,0001-00-0001-24.png
00000014,234,1,1440691067578,1440691068111,872,418,0,0,0,4,3,1,43,0004-00-0002-41.png,0003-00-0005-78.png
00000014,235,0,1440691069154,1440691069166,504,454,0,0,0,3,2,1,32,0003-00-0007-72.png,0002-00-0009-40.png
00000014,236,0,1440691072072,1440691072603,930,401,0,0,0,4,5,1,45,0004-00-0008-36.png,0005-00-0000-10.png
00000014,237,0,1440691075639,1440691075683,503,480,0,0,0,5,4,1,54,0005-00-0001-76.png,0004-00-0005-50.png
00000014,238,1,1440691078709,1440691079261,325,398,0,0,0,3,4,1,34,0003-00-0008-36.png,0004-00-0008-39.png
00000014,239,0,1440691080229,1440691080790,938,372,0,0,0,2,3,1,23,0002-00-0009-74.png,0003-00-0006-14.png
00000014,240,1,1440691083698,1440691084182,197,450,0,0,0,1,2,1,12,0001-00-0001-92.png,0002-00-0009-68.png
00000014,241,1,1440691085022,1440691085626,901,460,0,0,0,4,3,1,43,0004-00-0008-92.png,0003-00-0008-40.png
00000014,242,0,1440691086641,1440691087159,931,401,0,0,0,3,4,1,34,0003-00-0009-30.png,0004-00-0000-54.png
00000014,243,0,1440691090007,1440691090019,505,437,0,0,0,2,1,1,21,0002-00-0001-36.png,0001-00-0007-04.png
00000014,244,1,1440691092991,1440691093015,508,500,0,0,0,1,2,1,12,0001-00-0007-10.png,0002-00-0001-31.png
00000014,245,1,1440691093985,1440691094474,929,415,0,0,0,3,2,1,32,0003-00-0005-45.png,0002-00-0002-45.png
00000014,246,0,1440691095447,1440691096382,376,384,0,0,0,5,4,1,54,0005-00-0003-66.png,0004-00-0000-53.png
00000014,247,1,1440691099243,1440691099251,478,493,0,0,0,4,5,1,45,0004-00-0009-42.png,0005-00-0007-29.png
00000014,248,1,1440691100237,1440691100802,323,377,0,0,0,2,3,1,23,0002-00-0000-51.png,0003-00-0006-55.png
00000014,249,1,1440691101797,1440691101861,478,462,0,0,0,3,4,1,34,0003-00-0004-40.png,0004-00-0001-67.png
00000014,250,1,1440691102951,1440691103437,905,506,0,0,0,4,3,1,43,0004-00-0003-37.png,0003-00-0002-46.png
00000014,251,1,1440691104561,1440691105079,363,428,0,0,0,4,5,1,45,0004-00-0006-49.png,0005-00-0007-34.png
00000014,252,0,1440691106122,1440691106608,926,423,0,0,0,1,2,1,12,0001-00-0004-95.png,0002-00-0002-63.png
00000014,253,0,1440691109808,1440691110442,313,377,0,0,0,5,4,1,54,0005-00-0005-99.png,0004-00-0002-76.png
00000014,254,1,1440691113355,1440691113931,348,388,0,0,0,2,3,1,23,0002-00-0008-62.png,0003-00-0009-92.png
00000014,255,1,1440691114947,1440691115457,904,413,0,0,0,2,1,1,21,0002-00-0006-06.png,0001-00-0004-12.png
00000014,256,1,1440691116437,1440691116950,879,477,0,0,0,3,2,1,32,0003-00-0002-44.png,0002-00-0009-03.png
00000014,257,1,1440691117948,1440691118490,881,388,0,0,0,5,4,1,54,0005-00-0000-90.png,0004-00-0009-58.png
00000014,258,1,1440691119508,1440691120059,914,464,0,0,0,2,1,1,21,0002-00-0004-21.png,0001-00-0006-05.png
00000014,259,0,1440691121019,1440691121514,900,462,0,0,0,2,3,1,23,0002-00-0002-42.png,0003-00-0008-67.png
00000014,260,0,1440691124589,1440691125103,904,401,0,0,0,1,2,1,12,0001-00-0007-07.png,0002-00-0002-26.png
00000014,261,1,1440691128692,1440691129271,922,419,0,0,0,3,2,1,32,0003-00-0006-36.png,0002-00-0001-53.png
00000014,262,1,1440691130153,1440691130675,901,479,0,0,0,4,3,1,43,0004-00-0002-33.png,0003-00-0001-22.png
00000014,263,0,1440691131638,1440691132157,922,472,0,0,0,4,5,1,45,0004-00-0004-53.png,0005-00-0003-26.png
00000014,264,0,1440691135234,1440691135849,876,416,0,0,0,3,4,1,34,0003-00-0006-74.png,0004-00-0005-54.png
00000014,265,0,1440691138730,1440691138778,519,488,0,0,0,2,1,1,21,0002-00-0005-16.png,0001-00-0000-08.png
00000014,266,1,1440691141675,1440691142180,376,358,0,0,0,3,4,1,34,0003-00-0009-00.png,0004-00-0007-90.png
00000014,267,0,1440691143116,1440691143686,887,481,0,0,0,4,5,1,45,0004-00-0000-69.png,0005-00-0007-41.png
00000014,268,0,1440691146863,1440691147387,330,419,0,0,0,5,4,1,54,0005-00-0004-14.png,0004-00-0007-99.png
00000014,269,0,1440691150463,1440691150467,506,452,0,0,0,4,3,1,43,0004-00-0006-55.png,0003-00-0007-76.png
00000014,270,0,1440691153348,1440691153903,921,472,0,0,0,1,2,1,12,0001-00-0008-81.png,0002-00-0002-26.png
00000014,271,0,1440691156776,1440691156788,488,390,0,0,0,3,2,1,32,0003-00-0002-54.png,0002-00-0003-19.png
00000014,272,1,1440691159877,1440691160341,316,398,0,0,0,2,3,1,23,0002-00-0003-58.png,0003-00-0001-13.png
00000014,273,0,1440691161203,1440691161757,928,413,0,0,0,3,4,1,34,0003-00-0003-64.png,0004-00-0007-37.png
00000014,274,0,1440691164613,1440691164637,493,468,0,0,0,2,1,1,21,0002-00-0008-77.png,0001-00-0004-28.png
00000014,275,1,1440691168310,1440691168835,912,497,0,0,0,3,2,1,32,0003-00-0001-21.png,0002-00-0000-30.png
00000014,276,0,1440691169776,1440691170301,413,502,0,0,0,4,3,1,43,0004-00-0001-64.png,0003-00-0001-41.png
00000014,277,1,1440691176657,1440691177105,956,402,0,0,0,5,4,1,54,0005-00-0003-23.png,0004-00-0005-81.png
00000014,278,0,1440691178035,1440691178576,877,468,0,0,0,2,3,1,23,0002-00-0008-03.png,0003-00-0008-66.png
00000014,279,1,1440691181630,1440691182099,350,370,0,0,0,4,5,1,45,0004-00-0006-61.png,0005-00-0009-46.png
00000014,280,1,1440691183068,1440691183545,325,397,0,0,0,1,2,1,12,0001-00-0007-42.png,0002-00-0008-05.png
00000014,281,1,1440691184598,1440691185077,870,368,0,0,0,5,4,1,54,0005-00-0003-02.png,0004-00-0001-39.png
00000014,282,1,1440691186069,1440691186543,869,368,0,0,0,4,3,1,43,0004-00-0003-17.png,0003-00-0008-34.png
00000014,283,1,1440691187560,1440691188031,341,417,0,0,0,1,2,1,12,0001-00-0007-44.png,0002-00-0005-09.png
00000014,284,0,1440691189022,1440691189575,922,394,0,0,0,2,3,1,23,0002-00-0007-40.png,0003-00-0002-61.png
00000014,285,1,1440691192414,1440691192860,343,416,0,0,0,4,5,1,45,0004-00-0005-36.png,0005-00-0005-71.png
00000014,286,0,1440691193707,1440691193755,478,462,0,0,0,2,1,1,21,0002-00-0008-70.png,0001-00-0009-53.png
00000014,287,1,1440691196782,1440691197244,341,424,0,0,0,3,4,1,34,0003-00-0007-08.png,0004-00-0005-45.png
00000014,288,0,1440691198145,1440691198800,384,485,0,0,0,3,2,1,32,0003-00-0001-94.png,0002-00-0009-77.png
00000014,289,0,1440691201981,1440691202478,355,400,0,0,0,2,1,1,21,0002-00-0000-73.png,0001-00-0008-88.png
00000014,290,0,1440691205888,1440691206403,360,422,0,0,0,5,4,1,54,0005-00-0003-77.png,0004-00-0009-39.png
00000014,291,1,1440691209373,1440691209861,367,399,0,0,0,3,4,1,34,0003-00-0004-24.png,0004-00-0005-25.png
00000014,292,0,1440691210795,1440691211336,319,422,0,0,0,4,3,1,43,0004-00-0005-24.png,0003-00-0009-80.png
00000014,293,1,1440691214492,1440691214513,522,471,0,0,0,1,2,1,12,0001-00-0003-53.png,0002-00-0007-22.png
00000014,294,1,1440691215834,1440691216325,389,410,0,0,0,2,3,1,23,0002-00-0009-46.png,0003-00-0009-31.png
00000014,295,1,1440691217781,1440691218314,903,410,0,0,0,3,2,1,32,0003-00-0001-04.png,0002-00-0006-78.png
00000014,296,0,1440691219219,1440691220206,932,500,0,0,0,4,5,1,45,0004-00-0004-45.png,0005-00-0002-41.png
00000014,297,0,1440691223159,1440691223710,932,419,0,0,0,1,2,1,12,0001-00-0002-68.png,0002-00-0006-93.png
00000014,298,0,1440691226766,1440691227296,294,411,0,0,0,5,4,1,54,0005-00-0003-75.png,0004-00-0005-58.png
00000014,299,0,1440691230303,1440691230868,938,447,0,0,0,4,5,1,45,0004-00-0002-16.png,0005-00-0009-76.png
00000014,300,1,1440691233832,1440691234301,392,444,0,0,0,3,4,1,34,0003-00-0003-45.png,0004-00-0000-04.png
00000014,301,0,1440691235224,1440691235786,917,413,0,0,0,2,3,1,23,0002-00-0009-02.png,0003-00-0005-38.png
00000014,302,1,1440691238811,1440691239301,879,506,0,0,0,3,2,1,32,0003-00-0008-53.png,0002-00-0001-86.png
00000014,303,1,1440691240182,1440691240686,878,494,0,0,0,2,1,1,21,0002-00-0006-58.png,0001-00-0002-44.png
00000014,304,1,1440691241623,1440691242138,900,476,0,0,0,4,3,1,43,0004-00-0007-53.png,0003-00-0006-58.png
00000014,305,1,1440691243162,1440691243661,389,528,0,0,0,1,2,1,12,0001-00-0001-54.png,0002-00-0009-35.png
00000014,306,0,1440691244615,1440691245155,879,401,0,0,0,4,5,1,45,0004-00-0008-29.png,0005-00-0000-13.png
00000014,307,1,1440691248193,1440691248698,875,514,0,0,0,4,3,1,43,0004-00-0002-81.png,0003-00-0002-56.png
00000014,308,1,1440691249595,1440691250097,905,401,0,0,0,2,1,1,21,0002-00-0003-84.png,0001-00-0009-33.png
00000014,309,0,1440691251080,1440691251610,900,410,0,0,0,3,4,1,34,0003-00-0007-32.png,0004-00-0002-11.png
00000014,310,0,1440691254429,1440691254997,419,522,0,0,0,3,2,1,32,0003-00-0007-15.png,0002-00-0001-31.png
00000014,311,0,1440691258041,1440691258057,518,423,0,0,0,5,4,1,54,0005-00-0009-10.png,0004-00-0009-38.png
00000014,312,1,1440691261122,1440691261130,477,463,0,0,0,2,3,1,23,0002-00-0003-43.png,0003-00-0005-31.png
00000014,313,0,1440691262062,1440691262580,890,402,0,0,0,4,5,1,45,0004-00-0004-14.png,0005-00-0009-09.png
00000014,314,0,1440691266057,1440691266555,913,424,0,0,0,1,2,1,12,0001-00-0001-44.png,0002-00-0006-13.png
00000014,315,0,1440691269718,1440691270253,886,476,0,0,0,2,3,1,23,0002-00-0002-00.png,0003-00-0006-70.png
00000014,316,1,1440691273217,1440691273738,932,431,0,0,0,2,1,1,21,0002-00-0007-44.png,0001-00-0004-88.png
00000014,317,1,1440691274595,1440691275126,858,391,0,0,0,4,3,1,43,0004-00-0004-45.png,0003-00-0004-85.png
00000014,318,0,1440691276165,1440691276672,900,501,0,0,0,3,4,1,34,0003-00-0007-77.png,0004-00-0006-98.png
00000014,319,1,1440691279696,1440691280282,926,398,0,0,0,5,4,1,54,0005-00-0003-05.png,0004-00-0006-35.png
00000014,320,1,1440691281185,1440691281720,908,427,0,0,0,3,2,1,32,0003-00-0003-33.png,0002-00-0003-43.png
00000014,321,0,1440691282718,1440691283318,873,359,0,0,0,1,2,1,12,0001-00-0003-79.png,0002-00-0002-09.png
00000014,322,1,1440691286343,1440691286821,924,511,0,0,0,2,1,1,21,0002-00-0002-86.png,0001-00-0001-91.png
00000014,323,1,1440691287686,1440691288271,382,408,0,0,0,2,3,1,23,0002-00-0000-31.png,0003-00-0003-63.png
00000014,324,1,1440691289316,1440691289808,350,424,0,0,0,3,4,1,34,0003-00-0009-71.png,0004-00-0000-17.png
00000014,325,0,1440691290889,1440691291431,874,462,0,0,0,4,5,1,45,0004-00-0002-86.png,0005-00-0003-41.png
00000014,326,1,1440691294424,1440691294917,900,502,0,0,0,4,3,1,43,0004-00-0009-25.png,0003-00-0009-76.png
00000014,327,1,1440691295858,1440691296399,916,445,0,0,0,3,2,1,32,0003-00-0000-31.png,0002-00-0000-13.png
00000014,328,1,1440691297403,1440691297896,888,527,0,0,0,5,4,1,54,0005-00-0008-48.png,0004-00-0003-83.png
00000014,329,1,1440691298927,1440691299403,401,384,0,0,0,1,2,1,12,0001-00-0005-11.png,0002-00-0006-66.png
00000014,330,0,1440691300388,1440691300915,902,496,0,0,0,2,3,1,23,0002-00-0006-56.png,0003-00-0000-62.png
00000014,331,1,1440691303913,1440691304492,909,417,0,0,0,5,4,1,54,0005-00-0004-87.png,0004-00-0003-46.png
00000014,332,1,1440691305446,1440691306011,427,410,0,0,0,4,5,1,45,0004-00-0003-82.png,0005-00-0007-58.png
00000014,333,0,1440691307017,1440691307053,504,492,0,0,0,3,2,1,32,0003-00-0006-73.png,0002-00-0000-86.png
00000014,334,1,1440691309988,1440691310012,513,410,0,0,0,3,4,1,34,0003-00-0002-43.png,0004-00-0009-72.png
00000014,335,0,1440691311424,1440691312472,410,393,0,0,0,2,1,1,21,0002-00-0004-73.png,0001-00-0005-42.png
00000014,336,0,1440691315357,1440691315373,490,454,0,0,0,4,3,1,43,0004-00-0007-01.png,0003-00-0005-50.png
00000014,337,1,1440691318765,1440691319303,338,420,0,0,0,1,2,1,12,0001-00-0002-05.png,0002-00-0000-46.png
00000014,338,1,1440691320495,1440691320965,332,435,0,0,0,2,3,1,23,0002-00-0000-16.png,0003-00-0007-73.png
00000014,339,1,1440691322015,1440691322560,878,415,0,0,0,5,4,1,54,0005-00-0006-76.png,0004-00-0004-69.png
00000014,340,0,1440691323506,1440691324028,900,423,0,0,0,4,5,1,45,0004-00-0009-65.png,0005-00-0009-49.png
00000014,341,0,1440691327402,1440691327841,427,410,0,0,0,2,1,1,21,0002-00-0009-61.png,0001-00-0006-15.png
00000014,342,0,1440691331138,1440691331614,928,443,0,0,0,3,4,1,34,0003-00-0000-91.png,0004-00-0009-92.png
00000014,343,0,1440691334535,1440691334551,498,402,0,0,0,3,2,1,32,0003-00-0001-11.png,0002-00-0000-56.png
00000014,344,0,1440691346955,1440691347541,315,436,0,0,0,4,3,1,43,0004-00-0008-00.png,0003-00-0002-12.png
00000014,345,1,1440691350632,1440691351159,907,419,0,0,0,4,3,1,43,0004-00-0006-99.png,0003-00-0000-27.png
00000014,346,1,1440691352331,1440691352779,286,399,0,0,0,1,2,1,12,0001-00-0009-02.png,0002-00-0006-75.png
00000014,347,0,1440691353794,1440691353818,453,436,0,0,0,3,2,1,32,0003-00-0002-51.png,0002-00-0005-45.png
00000014,348,0,1440691356685,1440691356705,512,442,0,0,0,5,4,1,54,0005-00-0004-06.png,0004-00-0008-16.png
00000014,349,1,1440691359725,1440691359761,518,423,0,0,0,3,4,1,34,0003-00-0002-62.png,0004-00-0002-62.png
00000014,350,1,1440691360723,1440691361169,381,412,0,0,0,2,3,1,23,0002-00-0009-30.png,0003-00-0004-91.png
00000014,351,1,1440691362201,1440691362722,875,502,0,0,0,2,1,1,21,0002-00-0005-26.png,0001-00-0001-43.png
00000014,352,1,1440691363694,1440691364628,354,426,0,0,0,4,5,1,45,0004-00-0001-39.png,0005-00-0009-43.png
00000014,353,1,1440691365698,1440691366208,892,492,0,0,0,2,1,1,21,0002-00-0009-61.png,0001-00-0008-97.png
00000014,354,0,1440691367169,1440691367691,878,427,0,0,0,3,4,1,34,0003-00-0005-29.png,0004-00-0007-95.png
00000014,355,0,1440691371592,1440691372126,862,370,0,0,0,2,3,1,23,0002-00-0004-74.png,0003-00-0009-12.png
00000014,356,0,1440691375210,1440691375808,376,436,0,0,0,5,4,1,54,0005-00-0007-87.png,0004-00-0007-84.png
00000014,357,1,1440691378646,1440691379139,905,480,0,0,0,3,2,1,32,0003-00-0009-29.png,0002-00-0002-34.png
00000014,358,1,1440691379984,1440691380514,361,501,0,0,0,1,2,1,12,0001-00-0008-00.png,0002-00-0008-95.png
00000014,359,0,1440691381524,1440691382032,881,516,0,0,0,4,5,1,45,0004-00-0000-02.png,0005-00-0006-65.png
00000014,360,0,1440691384889,1440691384945,460,502,0,0,0,4,3,1,43,0004-00-0002-60.png,0003-00-0002-92.png
00000014,361,1,1440691387963,1440691388514,427,412,0,0,0,2,3,1,23,0002-00-0008-45.png,0003-00-0009-60.png
00000014,362,1,1440691389511,1440691390058,870,498,0,0,0,5,4,1,54,0005-00-0000-41.png,0004-00-0000-96.png
00000014,363,0,1440691391010,1440691391070,504,462,0,0,0,4,3,1,43,0004-00-0000-34.png,0003-00-0000-07.png
00000014,364,1,1440691393933,1440691394398,371,495,0,0,0,1,2,1,12,0001-00-0003-26.png,0002-00-0002-21.png
00000014,365,0,1440691395364,1440691395976,900,387,0,0,0,4,5,1,45,0004-00-0000-78.png,0005-00-0009-12.png
00000014,366,0,1440691399000,1440691399020,517,448,0,0,0,2,1,1,21,0002-00-0008-28.png,0001-00-0005-64.png
00000014,367,0,1440691402103,1440691402597,360,421,0,0,0,3,2,1,32,0003-00-0007-11.png,0002-00-0005-14.png
00000014,368,1,1440691405571,1440691405579,516,442,0,0,0,3,4,1,34,0003-00-0002-21.png,0004-00-0004-57.png
00000014,369,0,1440691406525,1440691407028,898,403,0,0,0,3,4,1,34,0003-00-0000-66.png,0004-00-0007-91.png
00000014,370,1,1440691410212,1440691410869,376,358,0,0,0,2,3,1,23,0002-00-0001-24.png,0003-00-0008-01.png
00000014,371,1,1440691411783,1440691412337,901,398,0,0,0,3,2,1,32,0003-00-0006-02.png,0002-00-0006-07.png
00000014,372,0,1440691413292,1440691413817,877,494,0,0,0,4,5,1,45,0004-00-0005-41.png,0005-00-0005-98.png
00000014,373,1,1440691416699,1440691416727,510,403,0,0,0,1,2,1,12,0001-00-0007-91.png,0002-00-0007-51.png
00000014,374,1,1440691417686,1440691418174,930,375,0,0,0,4,3,1,43,0004-00-0001-99.png,0003-00-0007-59.png
00000014,375,1,1440691419206,1440691419705,886,502,0,0,0,5,4,1,54,0005-00-0008-76.png,0004-00-0009-98.png
00000014,376,1,1440691420747,1440691421237,906,402,0,0,0,2,1,1,21,0002-00-0004-92.png,0001-00-0002-77.png
00000014,377,1,1440691422167,1440691422171,504,472,0,0,0,4,5,1,45,0004-00-0004-65.png,0005-00-0003-22.png
00000014,378,1,1440691423409,1440691423883,886,516,0,0,0,2,1,1,21,0002-00-0001-10.png,0001-00-0004-67.png
00000014,379,1,1440691425130,1440691425608,876,529,0,0,0,3,2,1,32,0003-00-0003-23.png,0002-00-0009-68.png
00000014,380,0,1440691426718,1440691427220,905,427,0,0,0,1,2,1,12,0001-00-0005-83.png,0002-00-0008-12.png
00000014,381,1,1440691430255,1440691430743,921,394,0,0,0,5,4,1,54,0005-00-0003-12.png,0004-00-0005-55.png
00000014,382,0,1440691431688,1440691432206,955,426,0,0,0,3,4,1,34,0003-00-0006-26.png,0004-00-0008-61.png
00000014,383,1,1440691435088,1440691435108,522,396,0,0,0,2,3,1,23,0002-00-0009-29.png,0003-00-0007-12.png
00000014,384,1,1440691436169,1440691436660,901,398,0,0,0,4,3,1,43,0004-00-0007-21.png,0003-00-0006-71.png
00000014,385,1,1440691437602,1440691438109,925,409,0,0,0,2,1,1,21,0002-00-0007-89.png,0001-00-0003-06.png
00000014,386,0,1440691439114,1440691439659,901,476,0,0,0,3,4,1,34,0003-00-0002-64.png,0004-00-0008-00.png
00000014,387,1,1440691442480,1440691443029,877,542,0,0,0,3,2,1,32,0003-00-0006-59.png,0002-00-0002-67.png
00000014,388,0,1440691443954,1440691444963,926,409,0,0,0,1,2,1,12,0001-00-0004-39.png,0002-00-0001-56.png
00000014,389,0,1440691448077,1440691448544,316,402,0,0,0,5,4,1,54,0005-00-0000-78.png,0004-00-0000-88.png
00000014,390,0,1440691451992,1440691452012,502,399,0,0,0,4,3,1,43,0004-00-0001-63.png,0003-00-0003-13.png
00000014,391,1,1440691455035,1440691455071,511,462,0,0,0,4,5,1,45,0004-00-0005-10.png,0005-00-0000-27.png
00000014,392,1,1440691456079,1440691456597,376,423,0,0,0,2,3,1,23,0002-00-0003-13.png,0003-00-0008-62.png
00000014,393,1,1440691457539,1440691458045,913,423,0,0,0,2,1,1,21,0002-00-0007-11.png,0001-00-0007-59.png
00000014,394,1,1440691459109,1440691459658,347,417,0,0,0,2,3,1,23,0002-00-0005-22.png,0003-00-0007-54.png
00000014,395,1,1440691460787,1440691461290,922,413,0,0,0,3,2,1,32,0003-00-0000-14.png,0002-00-0005-91.png
00000014,396,1,1440691462398,1440691462948,394,412,0,0,0,4,5,1,45,0004-00-0003-42.png,0005-00-0009-02.png
00000014,397,1,1440691464128,1440691464673,904,401,0,0,0,5,4,1,54,0005-00-0008-65.png,0004-00-0007-97.png
00000014,398,0,1440691465821,1440691466368,299,397,0,0,0,4,3,1,43,0004-00-0002-62.png,0003-00-0000-67.png
00000014,399,1,1440691469385,1440691469898,423,444,0,0,0,1,2,1,12,0001-00-0007-56.png,0002-00-0004-83.png
00000014,400,0,1440691470887,1440691471787,939,502,0,0,0,3,4,1,34,0003-00-0009-93.png,0004-00-0008-02.png
00000014,401,1,1440691474913,1440691475454,350,384,0,0,0,4,5,1,45,0004-00-0006-16.png,0005-00-0005-02.png
00000014,402,0,1440691476413,1440691476449,478,446,0,0,0,2,1,1,21,0002-00-0003-28.png,0001-00-0006-86.png
00000014,403,0,1440691479513,1440691479533,515,462,0,0,0,4,3,1,43,0004-00-0001-99.png,0003-00-0003-35.png
00000014,404,0,1440691482382,1440691483079,912,450,0,0,0,1,2,1,12,0001-00-0003-56.png,0002-00-0002-83.png
00000014,405,0,1440691486143,1440691486639,376,397,0,0,0,5,4,1,54,0005-00-0004-00.png,0004-00-0004-11.png
00000014,406,1,1440691489820,1440691490511,930,375,0,0,0,3,2,1,32,0003-00-0007-77.png,0002-00-0007-76.png
00000014,407,0,1440691491461,1440691491962,926,411,0,0,0,2,3,1,23,0002-00-0009-04.png,0003-00-0008-54.png
00000014,408,0,1440691495612,1440691496109,902,423,0,0,0,3,4,1,34,0003-00-0006-69.png,0004-00-0000-95.png
00000014,409,1,1440691499201,1440691499765,888,527,0,0,0,4,3,1,43,0004-00-0000-42.png,0003-00-0003-69.png
00000014,410,0,1440691500690,1440691501227,925,413,0,0,0,3,4,1,34,0003-00-0003-48.png,0004-00-0007-94.png
00000014,411,0,1440691504148,1440691504176,485,443,0,0,0,3,2,1,32,0003-00-0002-84.png,0002-00-0002-56.png
00000014,412,1,1440691507171,1440691507643,922,393,0,0,0,2,1,1,21,0002-00-0002-57.png,0001-00-0009-76.png
00000014,413,1,1440691508532,1440691509012,909,399,0,0,0,5,4,1,54,0005-00-0008-10.png,0004-00-0004-23.png
00000014,414,0,1440691510002,1440691510513,903,415,0,0,0,1,2,1,12,0001-00-0009-51.png,0002-00-0007-55.png
00000014,415,1,1440691513418,1440691513872,363,388,0,0,0,4,5,1,45,0004-00-0004-21.png,0005-00-0000-12.png
00000014,416,0,1440691514794,1440691515315,903,413,0,0,0,2,3,1,23,0002-00-0007-54.png,0003-00-0001-14.png
00000014,417,1,1440691518351,1440691518837,903,410,0,0,0,3,2,1,32,0003-00-0001-60.png,0002-00-0000-70.png
00000014,418,1,1440691519792,1440691520316,901,384,0,0,0,5,4,1,54,0005-00-0002-45.png,0004-00-0007-23.png
00000014,419,1,1440691521292,1440691521803,877,492,0,0,0,2,1,1,21,0002-00-0001-72.png,0001-00-0003-86.png
00000014,420,0,1440691522873,1440691523852,914,424,0,0,0,2,3,1,23,0002-00-0002-50.png,0003-00-0004-67.png
00000014,421,0,1440691527276,1440691527781,362,410,0,0,0,4,3,1,43,0004-00-0005-20.png,0003-00-0008-20.png
00000014,422,1,1440691530972,1440691531445,318,409,0,0,0,4,5,1,45,0004-00-0009-72.png,0005-00-0000-12.png
00000014,423,1,1440691532384,1440691532833,401,409,0,0,0,3,4,1,34,0003-00-0003-41.png,0004-00-0000-78.png
00000014,424,0,1440691533885,1440691534448,870,446,0,0,0,1,2,1,12,0001-00-0007-85.png,0002-00-0004-49.png
00000014,425,1,1440691537451,1440691538057,376,514,0,0,0,2,3,1,23,0002-00-0000-09.png,0003-00-0002-54.png
00000014,426,1,1440691539291,1440691539803,914,421,0,0,0,3,2,1,32,0003-00-0000-96.png,0002-00-0005-37.png
00000014,427,0,1440691540732,1440691541254,857,526,0,0,0,3,4,1,34,0003-00-0008-53.png,0004-00-0009-99.png
00000014,428,0,1440691544368,1440691544918,376,397,0,0,0,5,4,1,54,0005-00-0005-49.png,0004-00-0003-79.png
00000014,429,1,1440691547965,1440691548467,930,401,0,0,0,4,3,1,43,0004-00-0006-24.png,0003-00-0009-48.png
00000014,430,0,1440691549478,1440691549981,919,415,0,0,0,4,5,1,45,0004-00-0006-33.png,0005-00-0009-81.png
00000014,431,0,1440691553075,1440691553655,895,498,0,0,0,1,2,1,12,0001-00-0003-89.png,0002-00-0004-98.png
00000014,432,1,1440691556523,1440691557011,940,398,0,0,0,2,1,1,21,0002-00-0005-42.png,0001-00-0003-39.png
00000014,433,1,1440691557996,1440691558503,409,419,0,0,0,4,5,1,45,0004-00-0004-22.png,0005-00-0009-86.png
00000014,434,1,1440691559505,1440691560091,878,418,0,0,0,5,4,1,54,0005-00-0002-98.png,0004-00-0000-26.png
00000014,435,1,1440691561145,1440691561648,904,401,0,0,0,2,1,1,21,0002-00-0004-47.png,0001-00-0009-43.png
00000014,436,1,1440691562790,1440691563346,901,435,0,0,0,4,3,1,43,0004-00-0009-80.png,0003-00-0004-47.png
00000014,437,0,1440691564380,1440691564854,904,401,0,0,0,2,3,1,23,0002-00-0000-82.png,0003-00-0003-89.png
00000014,438,1,1440691567711,1440691567743,510,396,0,0,0,1,2,1,12,0001-00-0001-76.png,0002-00-0002-99.png
00000014,439,0,1440691568738,1440691569204,901,409,0,0,0,3,4,1,34,0003-00-0009-37.png,0004-00-0005-86.png
00000014,440,1,1440691572117,1440691572634,901,435,0,0,0,3,2,1,32,0003-00-0002-65.png,0002-00-0000-95.png
00000014,441,1,1440691573527,1440691574089,902,423,0,0,0,4,3,1,43,0004-00-0003-22.png,0003-00-0009-55.png
00000014,442,1,1440691575089,1440691575573,926,423,0,0,0,2,1,1,21,0002-00-0005-80.png,0001-00-0008-78.png
00000014,443,0,1440691576549,1440691577076,879,427,0,0,0,3,4,1,34,0003-00-0009-01.png,0004-00-0003-27.png
00000014,444,0,1440691580008,1440691580530,350,407,0,0,0,5,4,1,54,0005-00-0002-34.png,0004-00-0007-08.png
00000014,445,1,1440691583482,1440691583911,350,398,0,0,0,4,5,1,45,0004-00-0009-87.png,0005-00-0006-93.png
00000014,446,1,1440691584917,1440691585417,930,403,0,0,0,3,2,1,32,0003-00-0005-56.png,0002-00-0002-46.png
00000014,447,1,1440691586398,1440691586911,273,436,0,0,0,1,2,1,12,0001-00-0001-35.png,0002-00-0000-95.png
00000014,448,0,1440691587965,1440691588464,881,461,0,0,0,2,3,1,23,0002-00-0001-56.png,0003-00-0008-28.png
00000014,449,1,1440691591555,1440691592126,291,401,0,0,0,4,5,1,45,0004-00-0003-29.png,0005-00-0004-19.png
00000014,450,0,1440691593140,1440691593679,334,381,0,0,0,5,4,1,54,0005-00-0000-97.png,0004-00-0003-36.png
00000014,451,1,1440691596862,1440691597394,874,489,0,0,0,2,1,1,21,0002-00-0002-14.png,0001-00-0007-64.png
00000014,452,0,1440691598241,1440691598833,374,421,0,0,0,4,3,1,43,0004-00-0007-86.png,0003-00-0002-81.png
00000014,453,1,1440691601841,1440691602495,291,410,0,0,0,2,3,1,23,0002-00-0002-59.png,0003-00-0007-25.png
00000014,454,1,1440691603441,1440691603477,504,462,0,0,0,1,2,1,12,0001-00-0002-30.png,0002-00-0004-86.png
00000014,455,0,1440691604565,1440691605089,337,449,0,0,0,3,2,1,32,0003-00-0004-40.png,0002-00-0004-41.png
00000014,456,1,1440691608213,1440691608716,401,434,0,0,0,3,4,1,34,0003-00-0001-67.png,0004-00-0001-14.png
00000014,457,0,1440691609752,1440691610264,884,461,0,0,0,1,2,1,12,0001-00-0003-72.png,0002-00-0006-26.png
00000014,458,0,1440691613329,1440691613357,507,479,0,0,0,4,3,1,43,0004-00-0003-72.png,0003-00-0003-05.png
00000014,459,1,1440691616501,1440691617117,875,475,0,0,0,5,4,1,54,0005-00-0005-66.png,0004-00-0000-90.png
00000014,460,1,1440691618112,1440691618624,872,484,0,0,0,3,2,1,32,0003-00-0009-94.png,0002-00-0000-51.png
00000014,461,0,1440691619592,1440691620106,901,410,0,0,0,4,5,1,45,0004-00-0007-38.png,0005-00-0003-05.png
00000014,462,1,1440691623215,1440691623680,399,431,0,0,0,2,3,1,23,0002-00-0000-76.png,0003-00-0003-14.png
00000014,463,0,1440691624631,1440691625123,901,410,0,0,0,3,4,1,34,0003-00-0009-86.png,0004-00-0004-52.png
00000014,464,0,1440691628323,1440691628895,347,439,0,0,0,2,1,1,21,0002-00-0000-48.png,0001-00-0002-59.png
00000014,465,1,1440691632082,1440691632130,507,513,0,0,0,4,5,1,45,0004-00-0000-00.png,0005-00-0006-37.png
00000014,466,0,1440691633073,1440691633563,912,502,0,0,0,2,3,1,23,0002-00-0004-86.png,0003-00-0006-10.png
00000014,467,0,1440691636696,1440691637329,329,367,0,0,0,5,4,1,54,0005-00-0005-09.png,0004-00-0008-60.png
00000014,468,0,1440691640253,1440691640807,342,382,0,0,0,3,2,1,32,0003-00-0007-35.png,0002-00-0005-21.png
00000014,469,1,1440691645581,1440691646065,915,493,0,0,0,2,1,1,21,0002-00-0000-91.png,0001-00-0002-53.png
00000014,470,0,1440691647000,1440691647544,901,422,0,0,0,3,4,1,34,0003-00-0004-53.png,0004-00-0008-07.png
00000014,471,0,1440691650924,1440691650944,523,472,0,0,0,4,3,1,43,0004-00-0002-91.png,0003-00-0001-41.png
00000014,472,1,1440691653848,1440691653948,493,541,0,0,0,1,2,1,12,0001-00-0003-08.png,0002-00-0000-05.png
00000014,473,1,1440691654992,1440691655447,904,401,0,0,0,5,4,1,54,0005-00-0001-72.png,0004-00-0007-29.png
00000014,474,1,1440691656451,1440691656990,879,532,0,0,0,3,2,1,32,0003-00-0001-96.png,0002-00-0006-51.png
00000014,475,0,1440691657958,1440691658478,900,411,0,0,0,4,5,1,45,0004-00-0007-66.png,0005-00-0004-25.png
00000014,476,1,1440691661511,1440691661982,926,409,0,0,0,2,1,1,21,0002-00-0004-26.png,0001-00-0005-76.png
00000014,477,1,1440691662860,1440691663411,906,419,0,0,0,4,3,1,43,0004-00-0008-87.png,0003-00-0005-46.png
00000014,478,0,1440691664363,1440691664867,876,503,0,0,0,1,2,1,12,0001-00-0006-68.png,0002-00-0008-28.png
00000014,479,0,1440691667780,1440691668335,928,416,0,0,0,2,3,1,23,0002-00-0001-68.png,0003-00-0000-60.png
00000014,480,1,1440691671467,1440691671981,387,374,0,0,0,3,4,1,34,0003-00-0008-55.png,0004-00-0008-35.png
00000014,481,1,1440691673169,1440691673699,900,514,0,0,0,5,4,1,54,0005-00-0007-55.png,0004-00-0009-84.png
00000014,482,1,1440691674679,1440691674695,478,453,0,0,0,4,5,1,45,0004-00-0004-58.png,0005-00-0005-24.png
00000014,483,1,1440691675822,1440691676347,398,417,0,0,0,2,3,1,23,0002-00-0004-38.png,0003-00-0003-64.png
00000014,484,1,1440691677354,1440691677839,861,502,0,0,0,4,3,1,43,0004-00-0001-30.png,0003-00-0002-84.png
00000014,485,0,1440691678854,1440691679395,339,424,0,0,0,2,1,1,21,0002-00-0005-58.png,0001-00-0003-11.png
00000014,486,1,1440691682469,1440691682497,516,499,0,0,0,3,4,1,34,0003-00-0002-91.png,0004-00-0008-38.png
00000014,487,1,1440691683550,1440691684126,865,517,0,0,0,3,2,1,32,0003-00-0004-15.png,0002-00-0005-49.png
00000014,488,1,1440691685143,1440691685645,376,396,0,0,0,1,2,1,12,0001-00-0006-28.png,0002-00-0008-32.png
00000014,489,0,1440691687677,1440691688156,365,422,0,0,0,2,1,1,21,0002-00-0000-69.png,0001-00-0008-36.png
00000014,490,1,1440691691015,1440691691549,414,424,0,0,0,4,5,1,45,0004-00-0005-93.png,0005-00-0004-58.png
00000014,491,0,1440691692697,1440691693192,341,427,0,0,0,5,4,1,54,0005-00-0006-73.png,0004-00-0006-55.png
00000014,492,0,1440691696283,1440691696808,403,553,0,0,0,4,3,1,43,0004-00-0006-56.png,0003-00-0000-67.png
00000014,493,1,1440691699883,1440691700386,338,399,0,0,0,3,4,1,34,0003-00-0002-41.png,0004-00-0000-11.png
00000014,494,1,1440691701533,1440691702526,892,416,0,0,0,3,2,1,32,0003-00-0000-13.png,0002-00-0009-79.png
00000014,495,1,1440691703456,1440691703904,333,419,0,0,0,1,2,1,12,0001-00-0007-10.png,0002-00-0006-35.png
00000014,496,0,1440691704911,1440691705479,875,411,0,0,0,2,3,1,23,0002-00-0001-95.png,0003-00-0002-51.png
00000014,497,0,1440691708509,1440691709150,314,390,0,0,0,2,1,1,21,0002-00-0007-46.png,0001-00-0009-61.png
00000014,498,0,1440691712263,1440691712283,504,471,0,0,0,5,4,1,54,0005-00-0006-55.png,0004-00-0008-78.png
00000014,499,0,1440691715376,1440691715384,513,465,0,0,0,4,3,1,43,0004-00-0003-52.png,0003-00-0005-10.png
00000014,500,1,1440691718568,1440691718572,490,462,0,0,0,4,5,1,45,0004-00-0000-91.png,0005-00-0002-52.png
00000014,501,0,1440691719520,1440691720026,900,413,0,0,0,1,2,1,12,0001-00-0005-36.png,0002-00-0002-62.png
00000014,502,1,1440691723218,1440691723630,401,462,0,0,0,2,3,1,23,0002-00-0000-48.png,0003-00-0007-22.png
00000014,503,1,1440691724591,1440691725076,901,398,0,0,0,3,2,1,32,0003-00-0009-06.png,0002-00-0001-73.png
00000014,504,0,1440691726070,1440691726594,871,420,0,0,0,3,4,1,34,0003-00-0003-27.png,0004-00-0008-22.png
00000014,505,1,1440691729658,1440691730154,222,448,0,0,0,4,5,1,45,0004-00-0007-01.png,0005-00-0001-07.png
00000014,506,1,1440691731168,1440691731687,872,482,0,0,0,3,2,1,32,0003-00-0000-33.png,0002-00-0000-75.png
00000014,507,1,1440691732667,1440691733194,872,510,0,0,0,5,4,1,54,0005-00-0000-39.png,0004-00-0008-32.png
00000014,508,0,1440691734274,1440691734804,879,428,0,0,0,3,4,1,34,0003-00-0004-85.png,0004-00-0008-15.png
00000014,509,0,1440691737806,1440691737826,514,442,0,0,0,2,1,1,21,0002-00-0000-78.png,0001-00-0003-80.png
00000014,510,1,1440691740778,1440691741320,337,488,0,0,0,1,2,1,12,0001-00-0007-68.png,0002-00-0007-38.png
00000014,511,0,1440691742258,1440691742803,900,412,0,0,0,2,3,1,23,0002-00-0008-87.png,0003-00-0002-53.png
00000014,512,0,1440691745646,1440691745686,465,499,0,0,0,4,3,1,43,0004-00-0000-04.png,0003-00-0001-36.png
00000014,513,1,1440691748745,1440691749289,931,427,0,0,0,3,2,1,32,0003-00-0006-75.png,0002-00-0007-68.png
00000014,514,1,1440691750178,1440691750737,899,431,0,0,0,5,4,1,54,0005-00-0003-41.png,0004-00-0006-45.png
00000014,515,1,1440691751746,1440691752252,904,418,0,0,0,2,1,1,21,0002-00-0008-34.png,0001-00-0002-36.png
00000014,516,1,1440691753279,1440691753786,913,423,0,0,0,4,3,1,43,0004-00-0008-67.png,0003-00-0000-12.png
00000014,517,0,1440691754899,1440691755413,926,411,0,0,0,3,4,1,34,0003-00-0005-58.png,0004-00-0005-70.png
00000014,518,1,1440691758336,1440691758808,332,419,0,0,0,4,5,1,45,0004-00-0000-58.png,0005-00-0002-90.png
00000014,519,0,1440691759718,1440691760299,900,423,0,0,0,2,3,1,23,0002-00-0001-41.png,0003-00-0004-83.png
00000014,520,1,1440691763436,1440691763927,311,397,0,0,0,1,2,1,12,0001-00-0008-87.png,0002-00-0009-87.png
00000014,521,1,1440691764857,1440691765385,878,375,0,0,0,4,3,1,43,0004-00-0000-16.png,0003-00-0001-31.png
00000014,522,0,1440691766358,1440691766885,312,424,0,0,0,2,1,1,21,0002-00-0000-92.png,0001-00-0009-39.png
00000014,523,1,1440691770280,1440691770706,469,454,0,0,0,4,5,1,45,0004-00-0007-99.png,0005-00-0004-73.png
00000014,524,1,1440691771624,1440691771636,504,462,0,0,0,1,2,1,12,0001-00-0004-34.png,0002-00-0002-72.png
00000014,525,1,1440691772788,1440691773226,319,435,0,0,0,2,3,1,23,0002-00-0000-91.png,0003-00-0009-08.png
00000014,526,1,1440691774331,1440691774787,898,412,0,0,0,3,2,1,32,0003-00-0009-42.png,0002-00-0008-57.png
00000014,527,0,1440691775818,1440691776342,400,384,0,0,0,5,4,1,54,0005-00-0002-38.png,0004-00-0001-75.png
00000014,528,1,1440691779846,1440691780336,444,454,0,0,0,3,4,1,34,0003-00-0002-32.png,0004-00-0009-06.png
00000014,529,0,1440691781235,1440691781279,500,467,0,0,0,3,2,1,32,0003-00-0005-95.png,0002-00-0002-89.png
00000014,530,1,1440691784242,1440691784841,925,423,0,0,0,2,1,1,21,0002-00-0003-76.png,0001-00-0004-13.png
00000014,531,1,1440691785809,1440691786308,401,410,0,0,0,3,4,1,34,0003-00-0006-88.png,0004-00-0002-64.png
00000014,532,1,1440691787270,1440691787770,900,412,0,0,0,5,4,1,54,0005-00-0009-46.png,0004-00-0005-13.png
00000014,533,0,1440691788819,1440691789383,878,418,0,0,0,1,2,1,12,0001-00-0009-61.png,0002-00-0002-94.png
00000014,534,1,1440691792464,1440691793057,350,384,0,0,0,4,5,1,45,0004-00-0005-98.png,0005-00-0006-36.png
00000014,535,1,1440691794037,1440691794528,388,501,0,0,0,2,3,1,23,0002-00-0001-85.png,0003-00-0003-50.png
00000014,536,1,1440691795526,1440691796077,896,446,0,0,0,4,3,1,43,0004-00-0008-32.png,0003-00-0003-42.png
00000014,537,0,1440691797091,1440691797640,875,411,0,0,0,3,4,1,34,0003-00-0006-84.png,0004-00-0007-13.png
00000014,538,0,1440691800653,1440691801174,862,436,0,0,0,2,3,1,23,0002-00-0003-62.png,0003-00-0002-47.png
00000014,539,1,1440691804191,1440691804223,485,468,0,0,0,1,2,1,12,0001-00-0002-52.png,0002-00-0008-76.png
00000014,540,1,1440691805247,1440691805740,876,487,0,0,0,4,3,1,43,0004-00-0006-93.png,0003-00-0006-55.png
00000014,541,1,1440691806713,1440691807688,873,424,0,0,0,5,4,1,54,0005-00-0005-74.png,0004-00-0004-27.png
00000014,542,1,1440691808613,1440691809205,893,437,0,0,0,2,1,1,21,0002-00-0005-32.png,0001-00-0003-39.png
00000014,543,0,1440691810274,1440691810302,506,528,0,0,0,3,2,1,32,0003-00-0001-48.png,0002-00-0004-24.png
00000014,544,1,1440691813404,1440691813855,389,398,0,0,0,4,5,1,45,0004-00-0003-43.png,0005-00-0000-59.png
00000014,545,1,1440691815046,1440691815563,345,411,0,0,0,4,5,1,45,0004-00-0005-67.png,0005-00-0008-02.png
00000014,546,1,1440691816635,1440691817171,299,488,0,0,0,3,4,1,34,0003-00-0007-38.png,0004-00-0000-35.png
00000014,547,1,1440691818186,1440691818661,292,434,0,0,0,2,3,1,23,0002-00-0008-96.png,0003-00-0000-00.png
00000014,548,1,1440691819857,1440691820340,920,429,0,0,0,3,2,1,32,0003-00-0003-92.png,0002-00-0007-50.png
00000014,549,0,1440691821436,1440691821963,409,547,0,0,0,4,3,1,43,0004-00-0001-72.png,0003-00-0003-22.png
00000014,550,0,1440691824904,1440691825469,919,404,0,0,0,1,2,1,12,0001-00-0002-61.png,0002-00-0001-44.png
00000014,551,0,1440691828549,1440691828990,378,419,0,0,0,5,4,1,54,0005-00-0004-83.png,0004-00-0000-31.png
00000014,552,0,1440691831961,1440691831985,498,444,0,0,0,2,1,1,21,0002-00-0004-29.png,0001-00-0002-13.png
00000014,553,1,1440691835002,1440691835010,490,414,0,0,0,2,3,1,23,0002-00-0009-30.png,0003-00-0000-78.png
00000014,554,0,1440691835993,1440691836500,333,418,0,0,0,2,1,1,21,0002-00-0000-14.png,0001-00-0007-21.png
00000014,555,0,1440691840745,1440691841261,877,424,0,0,0,3,4,1,34,0003-00-0009-80.png,0004-00-0007-40.png
00000014,556,0,1440691846523,1440691847020,354,426,0,0,0,4,3,1,43,0004-00-0001-47.png,0003-00-0004-64.png
00000014,557,1,1440691849958,1440691849986,492,420,0,0,0,4,5,1,45,0004-00-0004-94.png,0005-00-0009-40.png
00000014,558,1,1440691850984,1440691851478,875,475,0,0,0,5,4,1,54,0005-00-0006-57.png,0004-00-0003-31.png
00000014,559,1,1440691852483,1440691852992,883,419,0,0,0,3,2,1,32,0003-00-0004-40.png,0002-00-0005-75.png
00000014,560,0,1440691854005,1440691854495,879,428,0,0,0,1,2,1,12,0001-00-0005-48.png,0002-00-0003-63.png
00000014,561,1,1440691857430,1440691857956,877,440,0,0,0,3,2,1,32,0003-00-0004-10.png,0002-00-0008-86.png
00000014,562,1,1440691858831,1440691859383,901,436,0,0,0,4,3,1,43,0004-00-0003-17.png,0003-00-0009-16.png
00000014,563,0,1440691860334,1440691861287,388,397,0,0,0,5,4,1,54,0005-00-0007-96.png,0004-00-0006-49.png
00000014,564,1,1440691865303,1440691865836,882,486,0,0,0,2,1,1,21,0002-00-0008-18.png,0001-00-0004-97.png
00000014,565,0,1440691866814,1440691867399,930,402,0,0,0,2,3,1,23,0002-00-0005-26.png,0003-00-0000-39.png
00000014,566,1,1440691870282,1440691870813,353,473,0,0,0,1,2,1,12,0001-00-0002-50.png,0002-00-0004-82.png
00000014,567,0,1440691871761,1440691872718,952,502,0,0,0,3,4,1,34,0003-00-0001-34.png,0004-00-0005-13.png
00000014,568,1,1440691875558,1440691875566,504,401,0,0,0,4,5,1,45,0004-00-0006-34.png,0005-00-0008-79.png
00000014,569,1,1440691876473,1440691877015,876,461,0,0,0,5,4,1,54,0005-00-0001-19.png,0004-00-0007-22.png
00000014,570,0,1440691878022,1440691878042,504,452,0,0,0,3,2,1,32,0003-00-0001-29.png,0002-00-0007-25.png
00000014,571,1,1440691880971,1440691881434,401,384,0,0,0,2,3,1,23,0002-00-0001-38.png,0003-00-0006-24.png
00000014,572,1,1440691882314,1440691882935,875,371,0,0,0,4,3,1,43,0004-00-0004-32.png,0003-00-0009-41.png
00000014,573,1,1440691883961,1440691883981,504,479,0,0,0,1,2,1,12,0001-00-0003-85.png,0002-00-0003-13.png
00000014,574,1,1440691885107,1440691885143,504,488,0,0,0,4,5,1,45,0004-00-0000-29.png,0005-00-0007-46.png
00000014,575,1,1440691886490,1440691886968,313,412,0,0,0,3,4,1,34,0003-00-0002-21.png,0004-00-0009-03.png
00000014,576,1,1440691888046,1440691888575,890,487,0,0,0,2,1,1,21,0002-00-0000-42.png,0001-00-0005-97.png
00000014,577,1,1440691889623,1440691890158,343,405,0,0,0,3,4,1,34,0003-00-0000-32.png,0004-00-0005-96.png
00000014,578,1,1440691891282,1440691891326,504,504,0,0,0,4,5,1,45,0004-00-0006-42.png,0005-00-0006-31.png
00000014,579,0,1440691892503,1440691893029,874,429,0,0,0,2,3,1,23,0002-00-0003-34.png,0003-00-0004-58.png
00000014,580,0,1440691896248,1440691896268,504,427,0,0,0,2,1,1,21,0002-00-0001-26.png,0001-00-0000-03.png
00000014,581,0,1440691899413,1440691899927,905,480,0,0,0,1,2,1,12,0001-00-0006-66.png,0002-00-0001-28.png
00000014,582,1,1440691902897,1440691903379,862,514,0,0,0,3,2,1,32,0003-00-0000-24.png,0002-00-0007-80.png
00000014,583,1,1440691904331,1440691904866,896,386,0,0,0,4,3,1,43,0004-00-0004-24.png,0003-00-0006-04.png
00000014,584,0,1440691905879,1440691905899,504,446,0,0,0,5,4,1,54,0005-00-0002-90.png,0004-00-0001-83.png
00000014,585,0,1440691908901,1440691909920,894,481,0,0,0,1,2,1,12,0001-00-0003-78.png,0002-00-0009-12.png
00000014,586,0,1440691912968,1440691913416,396,435,0,0,0,4,3,1,43,0004-00-0001-17.png,0003-00-0005-53.png
00000014,587,1,1440691916351,1440691916376,434,469,0,0,0,4,5,1,45,0004-00-0008-22.png,0005-00-0000-50.png
00000014,588,1,1440691917307,1440691917833,342,447,0,0,0,3,4,1,34,0003-00-0001-96.png,0004-00-0004-00.png
00000014,589,0,1440691918811,1440691919442,384,392,0,0,0,5,4,1,54,0005-00-0008-59.png,0004-00-0004-06.png
00000014,590,0,1440691922306,1440691922334,504,451,0,0,0,2,1,1,21,0002-00-0008-33.png,0001-00-0001-53.png
00000014,591,1,1440691925349,1440691925782,299,429,0,0,0,2,3,1,23,0002-00-0006-82.png,0003-00-0007-23.png
00000014,592,1,1440691926743,1440691927190,898,412,0,0,0,3,2,1,32,0003-00-0001-86.png,0002-00-0000-56.png
00000014,593,1,1440691928221,1440691928720,894,377,0,0,0,3,2,1,32,0003-00-0007-89.png,0002-00-0000-62.png
00000014,594,0,1440691929692,1440691930285,879,401,0,0,0,3,4,1,34,0003-00-0002-22.png,0004-00-0005-79.png
00000014,595,1,1440691933191,1440691933199,486,419,0,0,0,2,3,1,23,0002-00-0002-15.png,0003-00-0003-08.png
00000014,596,0,1440691934186,1440691934629,316,415,0,0,0,2,1,1,21,0002-00-0005-75.png,0001-00-0003-28.png
00000014,597,0,1440691937651,1440691937679,516,465,0,0,0,5,4,1,54,0005-00-0009-35.png,0004-00-0009-98.png
00000014,598,0,1440691940635,1440691941207,888,501,0,0,0,1,2,1,12,0001-00-0003-84.png,0002-00-0003-98.png
00000014,599,0,1440691944359,1440691944843,880,427,0,0,0,4,5,1,45,0004-00-0000-88.png,0005-00-0006-53.png
00000014,600,0,1440691948039,1440691948471,392,543,0,0,0,4,3,1,43,0004-00-0001-01.png,0003-00-0004-85.png
00000014,601,1,1440691951416,1440691951885,316,425,0,0,0,4,5,1,45,0004-00-0000-38.png,0005-00-0005-56.png
00000014,602,1,1440691952799,1440691953302,893,392,0,0,0,3,2,1,32,0003-00-0003-95.png,0002-00-0004-24.png
00000014,603,0,1440691954645,1440691955107,325,398,0,0,0,2,1,1,21,0002-00-0000-99.png,0001-00-0002-00.png
00000014,604,0,1440691958054,1440691958066,492,410,0,0,0,4,3,1,43,0004-00-0004-50.png,0003-00-0009-41.png
00000014,605,0,1440691961155,1440691961167,514,461,0,0,0,5,4,1,54,0005-00-0007-11.png,0004-00-0000-41.png
00000014,606,1,1440691964158,1440691964166,515,429,0,0,0,1,2,1,12,0001-00-0008-47.png,0002-00-0000-36.png
00000014,607,1,1440691965113,1440691965657,473,432,0,0,0,2,3,1,23,0002-00-0002-87.png,0003-00-0009-83.png
00000014,608,1,1440691966723,1440691967625,466,410,0,0,0,3,4,1,34,0003-00-0009-84.png,0004-00-0007-95.png
00000014,609,0,1440691968640,1440691969147,860,398,0,0,0,4,5,1,45,0004-00-0005-31.png,0005-00-0001-65.png
00000014,610,0,1440691971997,1440691972037,504,450,0,0,0,3,2,1,32,0003-00-0006-63.png,0002-00-0002-01.png
00000014,611,0,1440691975498,1440691975518,517,397,0,0,0,4,3,1,43,0004-00-0003-27.png,0003-00-0006-17.png
00000014,612,1,1440691978618,1440691979006,358,402,0,0,0,1,2,1,12,0001-00-0001-39.png,0002-00-0007-11.png
00000014,613,0,1440691979845,1440691979869,504,436,0,0,0,5,4,1,54,0005-00-0005-73.png,0004-00-0005-01.png
00000014,614,0,1440691982791,1440691982819,497,384,0,0,0,2,1,1,21,0002-00-0006-60.png,0001-00-0005-54.png
00000014,615,1,1440691985841,1440691985869,522,445,0,0,0,2,3,1,23,0002-00-0009-19.png,0003-00-0004-20.png
00000014,616,0,1440691986848,1440691987340,888,398,0,0,0,3,4,1,34,0003-00-0008-00.png,0004-00-0003-45.png
00000014,617,0,1440691990355,1440691990399,485,465,0,0,0,2,1,1,21,0002-00-0001-80.png,0001-00-0007-83.png
00000014,618,0,1440691993784,1440691994318,292,391,0,0,0,3,2,1,32,0003-00-0002-31.png,0002-00-0002-23.png
00000014,619,1,1440691997143,1440691997167,493,434,0,0,0,1,2,1,12,0001-00-0005-93.png,0002-00-0005-40.png
00000014,620,1,1440691998312,1440691998332,478,462,0,0,0,3,4,1,34,0003-00-0003-85.png,0004-00-0009-21.png
00000014,621,1,1440691999487,1440691999931,887,398,0,0,0,4,3,1,43,0004-00-0007-23.png,0003-00-0009-95.png
00000014,622,1,1440692000888,1440692001400,875,409,0,0,0,5,4,1,54,0005-00-0001-43.png,0004-00-0000-17.png
00000014,623,0,1440692002570,1440692003056,866,417,0,0,0,4,5,1,45,0004-00-0002-46.png,0005-00-0004-54.png
00000014,624,1,1440692005946,1440692006014,495,441,0,0,0,2,3,1,23,0002-00-0002-32.png,0003-00-0005-62.png
00000014,625,1,1440692006881,1440692006905,504,462,0,0,0,4,5,1,45,0004-00-0003-62.png,0005-00-0001-12.png
00000014,626,1,1440692008074,1440692008579,263,416,0,0,0,1,2,1,12,0001-00-0003-04.png,0002-00-0000-83.png
00000014,627,1,1440692009555,1440692010093,880,389,0,0,0,2,1,1,21,0002-00-0005-31.png,0001-00-0007-11.png
00000014,628,1,1440692011042,1440692011683,417,416,0,0,0,3,4,1,34,0003-00-0007-87.png,0004-00-0004-34.png
00000014,629,0,1440692012846,1440692013343,319,435,0,0,0,5,4,1,54,0005-00-0003-49.png,0004-00-0009-39.png
00000014,630,1,1440692016358,1440692016784,363,449,0,0,0,2,3,1,23,0002-00-0002-63.png,0003-00-0005-22.png
00000014,631,1,1440692017923,1440692018428,900,436,0,0,0,4,3,1,43,0004-00-0005-38.png,0003-00-0004-97.png
00000014,632,1,1440692019423,1440692019960,915,425,0,0,0,3,2,1,32,0003-00-0006-50.png,0002-00-0003-08.png
00000014,633,0,1440692020922,1440692021603,900,501,0,0,0,2,3,1,23,0002-00-0008-26.png,0003-00-0006-95.png
00000014,634,0,1440692024560,1440692025141,273,370,0,0,0,2,1,1,21,0002-00-0001-52.png,0001-00-0009-82.png
00000014,635,1,1440692028445,1440692028963,901,449,0,0,0,3,2,1,32,0003-00-0002-19.png,0002-00-0001-36.png
00000014,636,1,1440692029928,1440692029972,504,450,0,0,0,3,4,1,34,0003-00-0001-81.png,0004-00-0009-41.png
00000014,637,0,1440692031141,1440692031693,369,403,0,0,0,4,3,1,43,0004-00-0002-25.png,0003-00-0007-49.png
00000014,638,0,1440692034857,1440692035399,891,418,0,0,0,4,5,1,45,0004-00-0009-35.png,0005-00-0006-16.png
00000014,639,1,1440692038322,1440692038362,517,422,0,0,0,1,2,1,12,0001-00-0009-98.png,0002-00-0001-78.png
00000014,640,1,1440692039407,1440692039876,913,409,0,0,0,5,4,1,54,0005-00-0005-71.png,0004-00-0001-48.png
00000014,641,1,1440692040991,1440692041538,894,402,0,0,0,3,2,1,32,0003-00-0009-70.png,0002-00-0008-44.png
00000014,642,0,1440692042551,1440692042595,478,510,0,0,0,2,1,1,21,0002-00-0005-61.png,0001-00-0002-09.png
00000014,643,0,1440692045623,1440692045651,488,446,0,0,0,4,3,1,43,0004-00-0003-52.png,0003-00-0009-98.png
00000014,644,0,1440692048653,1440692048693,472,453,0,0,0,5,4,1,54,0005-00-0009-29.png,0004-00-0001-41.png
00000014,645,1,1440692051813,1440692052320,488,347,0,0,0,4,5,1,45,0004-00-0001-44.png,0005-00-0001-11.png
00000014,646,1,1440692053255,1440692053770,401,396,0,0,0,2,3,1,23,0002-00-0000-07.png,0003-00-0000-97.png
00000014,647,0,1440692054748,1440692055269,904,416,0,0,0,3,4,1,34,0003-00-0008-35.png,0004-00-0006-63.png
00000014,648,1,1440692058349,1440692058860,359,545,0,0,0,1,2,1,12,0001-00-0005-02.png,0002-00-0009-13.png
00000014,649,1,1440692059804,1440692060309,338,395,0,0,0,2,3,1,23,0002-00-0003-84.png,0003-00-0006-34.png
00000014,650,1,1440692061213,1440692061800,906,444,0,0,0,3,2,1,32,0003-00-0004-38.png,0002-00-0005-18.png
00000014,651,1,1440692062676,1440692063189,358,446,0,0,0,4,5,1,45,0004-00-0004-41.png,0005-00-0005-30.png
00000014,652,0,1440692064218,1440692064242,504,505,0,0,0,5,4,1,54,0005-00-0004-68.png,0004-00-0009-46.png
00000014,653,1,1440692067206,1440692067667,925,411,0,0,0,2,1,1,21,0002-00-0001-15.png,0001-00-0003-89.png
00000014,654,0,1440692068557,1440692069111,356,410,0,0,0,4,3,1,43,0004-00-0002-79.png,0003-00-0004-74.png
00000014,655,1,1440692072204,1440692072701,319,426,0,0,0,1,2,1,12,0001-00-0001-80.png,0002-00-0006-32.png
00000014,656,1,1440692073598,1440692073634,507,454,0,0,0,3,4,1,34,0003-00-0007-49.png,0004-00-0009-52.png
00000014,657,1,1440692074740,1440692075237,859,447,0,0,0,5,4,1,54,0005-00-0009-64.png,0004-00-0004-14.png
00000014,658,1,1440692076190,1440692076713,880,391,0,0,0,2,1,1,21,0002-00-0003-41.png,0001-00-0007-56.png
00000014,659,1,1440692077600,1440692078250,370,488,0,0,0,3,4,1,34,0003-00-0008-86.png,0004-00-0002-84.png
00000014,660,1,1440692079251,1440692079737,872,406,0,0,0,3,2,1,32,0003-00-0007-54.png,0002-00-0000-94.png
00000014,661,1,1440692080642,1440692081248,882,437,0,0,0,4,3,1,43,0004-00-0005-80.png,0003-00-0000-07.png
00000014,662,1,1440692082152,1440692082705,385,400,0,0,0,4,5,1,45,0004-00-0009-60.png,0005-00-0008-99.png
00000014,663,1,1440692084467,1440692084949,420,419,0,0,0,1,2,1,12,0001-00-0004-21.png,0002-00-0007-20.png
00000014,664,0,1440692085877,1440692086394,928,440,0,0,0,2,3,1,23,0002-00-0007-89.png,0003-00-0001-26.png
00000014,665,0,1440692089406,1440692089414,488,425,0,0,0,2,1,1,21,0002-00-0005-19.png,0001-00-0002-96.png
00000014,666,1,1440692092319,1440692092843,899,413,0,0,0,3,2,1,32,0003-00-0007-02.png,0002-00-0009-12.png
00000014,667,1,1440692093717,1440692094235,401,423,0,0,0,2,3,1,23,0002-00-0000-56.png,0003-00-0003-00.png
00000014,668,0,1440692095222,1440692095773,878,442,0,0,0,1,2,1,12,0001-00-0000-94.png,0002-00-0007-03.png
00000014,669,0,1440692098867,1440692098891,488,436,0,0,0,5,4,1,54,0005-00-0001-44.png,0004-00-0000-45.png
00000014,670,1,1440692101869,1440692101889,494,410,0,0,0,4,5,1,45,0004-00-0000-85.png,0005-00-0001-10.png
00000014,671,0,1440692102834,1440692103782,927,397,0,0,0,3,4,1,34,0003-00-0009-21.png,0004-00-0006-94.png
00000014,672,0,1440692106729,1440692107272,386,515,0,0,0,4,3,1,43,0004-00-0005-77.png,0003-00-0002-31.png
00000014,673,0,1440692110176,1440692110224,478,396,0,0,0,3,2,1,32,0003-00-0007-27.png,0002-00-0004-22.png
00000014,674,1,1440692113346,1440692113370,511,422,0,0,0,3,4,1,34,0003-00-0007-41.png,0004-00-0003-38.png
00000014,675,1,1440692114353,1440692114916,926,396,0,0,0,4,3,1,43,0004-00-0009-77.png,0003-00-0007-27.png
00000014,676,0,1440692115813,1440692116365,875,428,0,0,0,4,5,1,45,0004-00-0002-87.png,0005-00-0007-69.png
00000014,677,1,1440692119248,1440692119288,510,442,0,0,0,1,2,1,12,0001-00-0001-98.png,0002-00-0003-10.png
00000014,678,1,1440692120590,1440692121074,401,421,0,0,0,2,3,1,23,0002-00-0009-63.png,0003-00-0001-27.png
00000014,679,0,1440692122185,1440692122691,366,520,0,0,0,5,4,1,54,0005-00-0003-48.png,0004-00-0001-30.png
00000014,680,1,1440692125883,1440692126363,882,419,0,0,0,2,1,1,21,0002-00-0004-54.png,0001-00-0000-10.png
00000014,681,0,1440692127620,1440692128123,901,410,0,0,0,3,4,1,34,0003-00-0002-40.png,0004-00-0000-22.png
00000014,682,0,1440692131217,1440692131225,504,445,0,0,0,3,2,1,32,0003-00-0004-74.png,0002-00-0002-68.png
00000014,683,1,1440692134725,1440692134729,501,432,0,0,0,4,5,1,45,0004-00-0006-11.png,0005-00-0002-04.png
00000014,684,0,1440692136010,1440692136492,290,439,0,0,0,4,3,1,43,0004-00-0000-49.png,0003-00-0003-78.png
00000014,685,1,1440692139782,1440692140351,452,464,0,0,0,1,2,1,12,0001-00-0006-22.png,0002-00-0003-05.png
00000014,686,1,1440692142052,1440692142544,892,417,0,0,0,5,4,1,54,0005-00-0007-50.png,0004-00-0001-54.png
00000014,687,0,1440692144416,1440692144883,899,396,0,0,0,2,3,1,23,0002-00-0002-72.png,0003-00-0005-35.png
00000014,688,1,1440692147898,1440692148410,878,442,0,0,0,2,1,1,21,0002-00-0004-68.png,0001-00-0006-67.png
00000014,689,0,1440692149597,1440692150049,893,410,0,0,0,4,5,1,45,0004-00-0001-02.png,0005-00-0003-86.png
00000014,690,1,1440692154158,1440692154553,376,511,0,0,0,2,3,1,23,0002-00-0004-49.png,0003-00-0004-48.png
00000014,691,1,1440692155659,1440692156173,922,439,0,0,0,3,2,1,32,0003-00-0005-69.png,0002-00-0007-29.png
00000014,692,1,1440692157148,1440692157683,929,414,0,0,0,5,4,1,54,0005-00-0004-22.png,0004-00-0000-69.png
00000014,693,1,1440692158720,1440692159219,899,431,0,0,0,2,1,1,21,0002-00-0009-51.png,0001-00-0002-48.png
00000014,694,0,1440692160128,1440692160673,910,400,0,0,0,1,2,1,12,0001-00-0000-12.png,0002-00-0008-89.png
00000014,695,0,1440692164095,1440692164656,900,410,0,0,0,3,4,1,34,0003-00-0009-61.png,0004-00-0000-46.png
00000014,696,1,1440692167712,1440692168278,897,459,0,0,0,4,3,1,43,0004-00-0003-83.png,0003-00-0007-85.png
00000014,697,1,1440692170087,1440692170593,902,443,0,0,0,5,4,1,54,0005-00-0003-60.png,0004-00-0000-56.png
00000014,698,1,1440692171839,1440692172364,896,420,0,0,0,4,3,1,43,0004-00-0009-18.png,0003-00-0002-52.png
00000014,699,1,1440692173716,1440692174181,317,415,0,0,0,3,4,1,34,0003-00-0000-36.png,0004-00-0006-34.png
00000014,700,1,1440692175972,1440692176965,960,388,0,0,0,3,2,1,32,0003-00-0007-67.png,0002-00-0002-43.png
00000014,701,0,1440692177970,1440692178462,888,424,0,0,0,4,5,1,45,0004-00-0002-85.png,0005-00-0003-96.png
00000014,702,1,1440692181323,1440692181351,485,451,0,0,0,1,2,1,12,0001-00-0005-20.png,0002-00-0006-10.png
00000014,703,1,1440692183228,1440692183701,874,475,0,0,0,2,1,1,21,0002-00-0002-44.png,0001-00-0001-27.png
00000014,704,1,1440692185614,1440692186639,313,462,0,0,0,2,3,1,23,0002-00-0001-89.png,0003-00-0006-35.png
00000014,705,1,1440692187671,1440692188172,366,496,0,0,0,1,2,1,12,0001-00-0004-59.png,0002-00-0003-21.png
00000014,706,1,1440692189131,1440692189625,315,428,0,0,0,3,4,1,34,0003-00-0001-28.png,0004-00-0008-59.png
00000014,707,1,1440692190670,1440692191161,879,420,0,0,0,5,4,1,54,0005-00-0008-56.png,0004-00-0007-92.png
00000014,708,1,1440692192029,1440692192795,895,407,0,0,0,4,3,1,43,0004-00-0001-86.png,0003-00-0008-49.png
00000014,709,1,1440692193800,1440692194284,331,454,0,0,0,2,3,1,23,0002-00-0009-04.png,0003-00-0005-03.png
00000014,710,1,1440692195321,1440692196485,926,455,0,0,0,3,2,1,32,0003-00-0008-88.png,0002-00-0007-21.png
00000014,711,0,1440692197336,1440692197915,318,410,0,0,0,2,1,1,21,0002-00-0003-77.png,0001-00-0001-25.png
00000014,712,1,1440692200953,1440692201410,356,436,0,0,0,4,5,1,45,0004-00-0007-16.png,0005-00-0003-95.png
00000014,713,1,1440692202498,1440692203020,308,380,0,0,0,2,3,1,23,0002-00-0002-06.png,0003-00-0007-42.png
00000014,714,1,1440692203937,1440692204432,902,468,0,0,0,5,4,1,54,0005-00-0008-88.png,0004-00-0004-18.png
00000014,715,0,1440692205387,1440692205399,504,483,0,0,0,4,3,1,43,0004-00-0007-16.png,0003-00-0001-72.png
00000014,716,0,1440692209134,1440692209613,350,416,0,0,0,2,1,1,21,0002-00-0008-82.png,0001-00-0005-74.png
00000014,717,1,1440692212900,1440692213445,343,375,0,0,0,3,4,1,34,0003-00-0003-51.png,0004-00-0002-43.png
00000014,718,1,1440692214780,1440692215300,399,402,0,0,0,4,5,1,45,0004-00-0006-67.png,0005-00-0002-18.png
00000014,719,1,1440692216680,1440692217143,319,411,0,0,0,1,2,1,12,0001-00-0003-42.png,0002-00-0005-56.png
00000014,720,1,1440692218309,1440692218850,884,400,0,0,0,3,2,1,32,0003-00-0004-70.png,0002-00-0008-56.png
00000014,721,1,1440692219791,1440692220655,414,443,0,0,0,4,5,1,45,0004-00-0004-05.png,0005-00-0007-82.png
00000014,722,1,1440692221799,1440692222735,900,412,0,0,0,3,2,1,32,0003-00-0006-53.png,0002-00-0007-79.png
00000014,723,1,1440692223777,1440692223793,504,479,0,0,0,3,4,1,34,0003-00-0007-07.png,0004-00-0009-02.png
00000014,724,1,1440692224740,1440692225234,902,408,0,0,0,2,1,1,21,0002-00-0004-53.png,0001-00-0007-24.png
00000014,725,1,1440692226142,1440692226703,893,512,0,0,0,5,4,1,54,0005-00-0008-20.png,0004-00-0001-28.png
00000014,726,1,1440692227681,1440692228207,285,423,0,0,0,1,2,1,12,0001-00-0001-96.png,0002-00-0000-02.png
00000014,727,0,1440692229193,1440692229703,905,406,0,0,0,2,3,1,23,0002-00-0001-71.png,0003-00-0004-41.png
00000014,728,0,1440692234029,1440692234513,343,421,0,0,0,4,3,1,43,0004-00-0007-50.png,0003-00-0009-68.png
00000014,729,0,1440692237336,1440692237819,335,440,0,0,0,4,3,1,43,0004-00-0006-74.png,0003-00-0004-16.png
00000014,730,1,1440692240776,1440692241323,344,442,0,0,0,1,2,1,12,0001-00-0000-00.png,0002-00-0000-29.png
00000014,731,0,1440692242309,1440692242846,916,424,0,0,0,4,5,1,45,0004-00-0002-59.png,0005-00-0005-76.png
00000014,732,0,1440692247816,1440692248391,928,382,0,0,0,3,4,1,34,0003-00-0007-61.png,0004-00-0008-26.png
00000014,733,0,1440692251500,1440692251964,407,426,0,0,0,2,1,1,21,0002-00-0003-86.png,0001-00-0001-69.png
00000014,734,1,1440692255618,1440692256097,912,398,0,0,0,3,2,1,32,0003-00-0007-65.png,0002-00-0008-91.png
00000014,735,0,1440692257286,1440692257750,376,410,0,0,0,5,4,1,54,0005-00-0008-27.png,0004-00-0007-53.png
00000014,736,0,1440692260934,1440692261424,900,449,0,0,0,2,3,1,23,0002-00-0003-73.png,0003-00-0002-71.png
00000014,737,1,1440692265725,1440692266210,901,438,0,0,0,4,3,1,43,0004-00-0000-87.png,0003-00-0007-24.png
00000014,738,1,1440692267146,1440692267628,387,423,0,0,0,2,3,1,23,0002-00-0007-17.png,0003-00-0000-06.png
00000014,739,1,1440692269144,1440692269632,877,436,0,0,0,5,4,1,54,0005-00-0005-29.png,0004-00-0009-81.png
00000014,740,1,1440692271614,1440692272140,376,384,0,0,0,4,5,1,45,0004-00-0009-86.png,0005-00-0006-63.png
00000014,741,0,1440692273654,1440692274108,875,385,0,0,0,3,4,1,34,0003-00-0006-55.png,0004-00-0009-81.png
00000014,742,1,1440692277162,1440692277613,367,403,0,0,0,1,2,1,12,0001-00-0005-78.png,0002-00-0005-83.png
00000014,743,0,1440692278604,1440692279089,376,384,0,0,0,2,1,1,21,0002-00-0006-29.png,0001-00-0005-77.png
00000014,744,0,1440692283544,1440692283985,414,450,0,0,0,3,2,1,32,0003-00-0000-17.png,0002-00-0006-23.png
00000014,745,1,1440692287141,1440692287616,885,424,0,0,0,4,3,1,43,0004-00-0001-65.png,0003-00-0004-85.png
00000014,746,1,1440692288593,1440692289090,877,415,0,0,0,2,1,1,21,0002-00-0000-70.png,0001-00-0006-57.png
00000014,747,0,1440692290004,1440692290539,896,419,0,0,0,3,4,1,34,0003-00-0009-08.png,0004-00-0003-32.png
00000014,748,0,1440692294299,1440692294811,913,449,0,0,0,1,2,1,12,0001-00-0004-36.png,0002-00-0008-90.png
00000014,749,0,1440692297803,1440692298279,318,437,0,0,0,3,2,1,32,0003-00-0007-04.png,0002-00-0006-30.png
00000014,750,0,1440692301144,1440692301537,363,449,0,0,0,5,4,1,54,0005-00-0009-04.png,0004-00-0009-05.png
00000014,751,0,1440692304422,1440692304922,900,448,0,0,0,4,5,1,45,0004-00-0009-93.png,0005-00-0005-18.png
00000014,752,0,1440692308153,1440692308584,870,498,0,0,0,2,3,1,23,0002-00-0008-56.png,0003-00-0002-85.png
00000014,753,0,1440692311629,1440692312637,431,418,0,0,0,3,2,1,32,0003-00-0003-95.png,0002-00-0008-70.png
00000014,754,1,1440692316690,1440692317225,899,406,0,0,0,2,1,1,21,0002-00-0007-28.png,0001-00-0002-81.png
00000014,755,0,1440692318261,1440692318723,425,418,0,0,0,4,3,1,43,0004-00-0006-63.png,0003-00-0003-71.png
00000014,756,1,1440692321694,1440692322804,876,423,0,0,0,5,4,1,54,0005-00-0008-46.png,0004-00-0007-89.png
00000014,757,0,1440692323677,1440692324206,898,405,0,0,0,2,3,1,23,0002-00-0002-33.png,0003-00-0003-67.png
00000014,758,1,1440692327135,1440692327595,301,410,0,0,0,4,5,1,45,0004-00-0006-02.png,0005-00-0002-13.png
00000014,759,0,1440692328634,1440692329110,880,428,0,0,0,3,4,1,34,0003-00-0001-20.png,0004-00-0004-75.png
00000014,760,1,1440692332192,1440692332605,401,528,0,0,0,1,2,1,12,0001-00-0003-25.png,0002-00-0007-13.png
00000014,761,1,1440692333574,1440692334137,325,397,0,0,0,1,2,1,12,0001-00-0007-22.png,0002-00-0003-42.png
00000014,762,1,1440692335272,1440692335781,913,424,0,0,0,2,1,1,21,0002-00-0006-12.png,0001-00-0005-68.png
00000014,763,0,1440692336675,1440692337193,874,430,0,0,0,4,5,1,45,0004-00-0007-06.png,0005-00-0007-41.png
00000014,764,1,1440692340401,1440692340975,902,408,0,0,0,3,2,1,32,0003-00-0002-23.png,0002-00-0003-20.png
00000014,765,1,1440692342773,1440692343261,882,421,0,0,0,5,4,1,54,0005-00-0007-84.png,0004-00-0001-80.png
00000014,766,0,1440692345242,1440692346136,385,385,0,0,0,4,3,1,43,0004-00-0001-50.png,0003-00-0009-28.png
00000014,767,0,1440692348991,1440692349504,916,439,0,0,0,3,4,1,34,0003-00-0008-04.png,0004-00-0005-12.png
00000014,768,1,1440692352705,1440692353145,359,418,0,0,0,2,3,1,23,0002-00-0004-01.png,0003-00-0008-86.png
00000014,769,0,1440692354335,1440692354815,873,482,0,0,0,3,4,1,34,0003-00-0009-30.png,0004-00-0007-14.png
00000014,770,1,1440692357751,1440692358159,418,403,0,0,0,1,2,1,12,0001-00-0008-31.png,0002-00-0000-92.png
00000014,771,0,1440692359245,1440692359701,868,429,0,0,0,2,3,1,23,0002-00-0005-45.png,0003-00-0007-46.png
00000014,772,0,1440692362682,1440692362710,446,427,0,0,0,4,3,1,43,0004-00-0000-42.png,0003-00-0001-78.png
00000014,773,1,1440692365722,1440692366193,934,416,0,0,0,5,4,1,54,0005-00-0007-90.png,0004-00-0002-55.png
00000014,774,1,1440692367075,1440692367614,905,401,0,0,0,2,1,1,21,0002-00-0000-01.png,0001-00-0008-41.png
00000014,775,0,1440692368536,1440692369043,880,389,0,0,0,4,5,1,45,0004-00-0004-02.png,0005-00-0001-64.png
00000014,776,0,1440692372133,1440692372141,503,449,0,0,0,3,2,1,32,0003-00-0004-04.png,0002-00-0003-99.png
00000014,777,0,1440692375272,1440692375312,485,410,0,0,0,3,2,1,32,0003-00-0007-41.png,0002-00-0007-70.png
00000014,778,0,1440692378385,1440692378868,928,468,0,0,0,1,2,1,12,0001-00-0008-21.png,0002-00-0008-94.png
00000014,779,1,1440692382789,1440692383334,954,449,0,0,0,5,4,1,54,0005-00-0008-37.png,0004-00-0008-19.png
00000014,780,0,1440692385223,1440692385799,886,398,0,0,0,2,3,1,23,0002-00-0007-18.png,0003-00-0007-07.png
00000014,781,0,1440692388882,1440692389273,331,420,0,0,0,2,1,1,21,0002-00-0007-67.png,0001-00-0006-66.png
00000014,782,0,1440692394447,1440692395010,936,425,0,0,0,3,4,1,34,0003-00-0005-42.png,0004-00-0006-73.png
00000014,783,1,1440692398676,1440692399132,915,449,0,0,0,4,3,1,43,0004-00-0001-35.png,0003-00-0005-16.png
00000014,784,1,1440692400331,1440692401250,312,439,0,0,0,4,5,1,45,0004-00-0000-47.png,0005-00-0005-37.png
00000014,785,0,1440692402269,1440692402783,879,418,0,0,0,4,5,1,45,0004-00-0004-74.png,0005-00-0008-45.png
00000014,786,1,1440692405645,1440692406066,920,393,0,0,0,3,2,1,32,0003-00-0007-44.png,0002-00-0000-07.png
00000014,787,0,1440692407169,1440692407659,335,502,0,0,0,4,3,1,43,0004-00-0005-19.png,0003-00-0009-37.png
00000014,788,1,1440692411176,1440692411607,337,423,0,0,0,3,4,1,34,0003-00-0006-91.png,0004-00-0002-79.png
00000014,789,1,1440692413707,1440692414163,874,437,0,0,0,5,4,1,54,0005-00-0008-88.png,0004-00-0005-26.png
00000014,790,1,1440692415941,1440692416397,868,424,0,0,0,2,1,1,21,0002-00-0003-15.png,0001-00-0008-48.png
00000014,791,1,1440692418254,1440692418684,368,416,0,0,0,2,3,1,23,0002-00-0007-55.png,0003-00-0005-92.png
00000014,792,1,1440692419814,1440692420227,367,392,0,0,0,1,2,1,12,0001-00-0009-71.png,0002-00-0003-20.png
00000014,793,0,1440692421569,1440692422024,365,439,0,0,0,4,3,1,43,0004-00-0008-61.png,0003-00-0008-37.png
00000014,794,1,1440692426512,1440692426923,376,384,0,0,0,1,2,1,12,0001-00-0000-83.png,0002-00-0007-63.png
00000014,795,0,1440692428002,1440692428539,926,462,0,0,0,2,3,1,23,0002-00-0005-50.png,0003-00-0007-72.png
00000014,796,0,1440692431698,1440692432169,401,395,0,0,0,3,2,1,32,0003-00-0005-17.png,0002-00-0002-70.png
00000014,797,1,1440692435105,1440692435558,310,422,0,0,0,4,5,1,45,0004-00-0000-02.png,0005-00-0007-57.png
00000014,798,0,1440692437234,1440692438187,340,415,0,0,0,2,1,1,21,0002-00-0009-81.png,0001-00-0009-07.png
00000014,799,1,1440692441068,1440692441108,510,473,0,0,0,3,4,1,34,0003-00-0004-20.png,0004-00-0006-52.png
00000014,800,1,1440692442578,1440692443087,888,449,0,0,0,5,4,1,54,0005-00-0007-30.png,0004-00-0004-62.png
00000014,801,1,1440692445137,1440692445619,902,424,0,0,0,4,3,1,43,0004-00-0007-39.png,0003-00-0001-48.png
00000014,802,1,1440692447252,1440692448124,376,421,0,0,0,3,4,1,34,0003-00-0008-17.png,0004-00-0001-73.png
00000014,803,0,1440692449774,1440692450357,376,396,0,0,0,5,4,1,54,0005-00-0009-71.png,0004-00-0009-45.png
00000014,804,0,1440692453624,1440692453652,461,495,0,0,0,3,2,1,32,0003-00-0007-67.png,0002-00-0004-12.png
00000014,805,1,1440692457188,1440692457668,340,415,0,0,0,1,2,1,12,0001-00-0004-42.png,0002-00-0006-67.png
00000014,806,1,1440692459380,1440692459844,376,501,0,0,0,2,3,1,23,0002-00-0002-96.png,0003-00-0002-96.png
00000014,807,1,1440692461088,1440692461623,872,421,0,0,0,2,1,1,21,0002-00-0008-30.png,0001-00-0006-49.png
00000014,808,1,1440692463266,1440692463720,362,410,0,0,0,4,5,1,45,0004-00-0008-00.png,0005-00-0002-31.png
00000014,809,0,1440692465394,1440692466493,897,500,0,0,0,1,2,1,12,0001-00-0002-08.png,0002-00-0003-74.png
00000014,810,1,1440692469424,1440692469919,907,422,0,0,0,3,2,1,32,0003-00-0001-69.png,0002-00-0004-03.png
00000014,811,1,1440692470850,1440692471401,901,441,0,0,0,5,4,1,54,0005-00-0004-07.png,0004-00-0007-44.png
00000014,812,1,1440692472296,1440692472865,376,506,0,0,0,4,5,1,45,0004-00-0005-19.png,0005-00-0006-11.png
00000014,813,0,1440692473879,1440692474331,897,406,0,0,0,3,4,1,34,0003-00-0009-83.png,0004-00-0007-29.png
00000014,814,1,1440692479246,1440692479686,928,409,0,0,0,4,3,1,43,0004-00-0006-51.png,0003-00-0001-72.png
00000014,815,0,1440692482805,1440692483366,880,401,0,0,0,2,3,1,23,0002-00-0008-65.png,0003-00-0008-08.png
00000014,816,1,1440692487107,1440692487689,907,421,0,0,0,2,1,1,21,0002-00-0000-26.png,0001-00-0008-03.png
00000014,817,1,1440692490024,1440692490537,877,443,0,0,0,2,1,1,21,0002-00-0009-60.png,0001-00-0009-65.png
00000014,818,0,1440692491547,1440692492014,873,430,0,0,0,3,4,1,34,0003-00-0003-65.png,0004-00-0002-00.png
00000014,819,0,1440692495156,1440692495706,862,376,0,0,0,4,5,1,45,0004-00-0001-92.png,0005-00-0004-03.png
00000014,820,1,1440692516693,1440692517144,346,503,0,0,0,1,2,1,12,0001-00-0000-16.png,0002-00-0003-20.png
00000014,821,0,1440692518500,1440692518999,313,371,0,0,0,4,3,1,43,0004-00-0002-38.png,0003-00-0008-33.png
00000014,822,0,1440692521896,1440692522320,376,397,0,0,0,3,2,1,32,0003-00-0006-76.png,0002-00-0001-42.png
00000014,823,1,1440692525537,1440692525972,928,441,0,0,0,5,4,1,54,0005-00-0008-57.png,0004-00-0007-68.png
00000014,824,1,1440692527205,1440692527634,361,502,0,0,0,2,3,1,23,0002-00-0000-29.png,0003-00-0002-14.png
00000014,825,1,1440692528648,1440692529147,901,435,0,0,0,2,1,1,21,0002-00-0000-97.png,0001-00-0000-02.png
00000014,826,0,1440692530115,1440692530620,227,511,0,0,0,3,2,1,32,0003-00-0006-20.png,0002-00-0008-34.png
00000014,827,1,1440692533804,1440692534309,372,416,0,0,0,1,2,1,12,0001-00-0003-15.png,0002-00-0003-68.png
00000014,828,1,1440692535963,1440692536481,376,397,0,0,0,4,5,1,45,0004-00-0007-18.png,0005-00-0006-70.png
00000014,829,0,1440692537463,1440692537965,877,423,0,0,0,3,4,1,34,0003-00-0003-23.png,0004-00-0003-73.png
00000014,830,1,1440692541350,1440692541819,364,500,0,0,0,2,3,1,23,0002-00-0006-38.png,0003-00-0006-16.png
00000014,831,1,1440692544372,1440692544845,887,450,0,0,0,5,4,1,54,0005-00-0006-92.png,0004-00-0006-24.png
00000014,832,0,1440692546425,1440692546910,416,469,0,0,0,4,3,1,43,0004-00-0000-17.png,0003-00-0003-68.png
00000014,833,0,1440692549824,1440692549872,514,436,0,0,0,2,1,1,21,0002-00-0006-35.png,0001-00-0007-02.png
00000014,834,1,1440692553355,1440692553807,344,432,0,0,0,2,3,1,23,0002-00-0001-74.png,0003-00-0008-05.png
00000014,835,1,1440692555720,1440692556306,902,408,0,0,0,5,4,1,54,0005-00-0004-96.png,0004-00-0004-88.png
00000014,836,0,1440692557826,1440692558353,334,420,0,0,0,4,3,1,43,0004-00-0004-40.png,0003-00-0003-10.png
00000014,837,1,1440692561483,1440692561941,401,410,0,0,0,1,2,1,12,0001-00-0003-70.png,0002-00-0001-80.png
00000014,838,1,1440692562906,1440692564284,423,403,0,0,0,3,4,1,34,0003-00-0000-23.png,0004-00-0007-76.png
00000014,839,1,1440692565303,1440692565815,901,397,0,0,0,3,2,1,32,0003-00-0002-36.png,0002-00-0007-68.png
00000014,840,1,1440692566689,1440692567204,317,427,0,0,0,4,5,1,45,0004-00-0000-13.png,0005-00-0004-28.png
00000014,841,1,1440692568154,1440692568624,427,423,0,0,0,2,3,1,23,0002-00-0005-75.png,0003-00-0003-65.png
00000014,842,1,1440692569532,1440692570621,905,401,0,0,0,2,1,1,21,0002-00-0007-32.png,0001-00-0007-83.png
00000014,843,1,1440692571552,1440692572025,401,434,0,0,0,4,5,1,45,0004-00-0007-92.png,0005-00-0007-69.png
00000014,844,1,1440692572982,1440692573539,350,370,0,0,0,1,2,1,12,0001-00-0009-16.png,0002-00-0007-60.png
00000014,845,1,1440692574580,1440692575104,898,413,0,0,0,4,3,1,43,0004-00-0004-04.png,0003-00-0000-73.png
00000014,846,1,1440692576043,1440692576579,876,424,0,0,0,5,4,1,54,0005-00-0000-08.png,0004-00-0004-20.png
00000014,847,0,1440692577535,1440692578023,888,423,0,0,0,3,4,1,34,0003-00-0005-29.png,0004-00-0002-40.png
00000014,848,1,1440692581097,1440692581710,879,532,0,0,0,3,2,1,32,0003-00-0004-72.png,0002-00-0005-99.png
00000014,849,0,1440692582678,1440692583532,414,514,0,0,0,5,4,1,54,0005-00-0004-08.png,0004-00-0007-11.png
00000014,850,1,1440692586713,1440692587222,320,460,0,0,0,3,4,1,34,0003-00-0003-69.png,0004-00-0005-08.png
00000014,851,0,1440692588915,1440692589356,407,420,0,0,0,3,2,1,32,0003-00-0007-87.png,0002-00-0002-54.png
00000014,852,1,1440692592410,1440692592855,394,400,0,0,0,4,5,1,45,0004-00-0009-53.png,0005-00-0007-15.png
00000014,853,1,1440692595073,1440692595581,870,445,0,0,0,2,1,1,21,0002-00-0001-84.png,0001-00-0000-62.png
00000014,854,1,1440692597080,1440692597523,883,421,0,0,0,4,3,1,43,0004-00-0001-98.png,0003-00-0000-23.png
00000014,855,0,1440692598493,1440692599015,876,435,0,0,0,2,3,1,23,0002-00-0002-82.png,0003-00-0009-01.png
00000014,856,1,1440692602051,1440692602978,364,410,0,0,0,1,2,1,12,0001-00-0009-91.png,0002-00-0006-64.png
00000014,857,1,1440692605041,1440692605500,359,489,0,0,0,1,2,1,12,0001-00-0007-40.png,0002-00-0006-95.png
00000014,858,0,1440692606792,1440692607233,314,429,0,0,0,5,4,1,54,0005-00-0001-40.png,0004-00-0001-45.png
00000014,859,0,1440692610465,1440692610901,315,439,0,0,0,4,3,1,43,0004-00-0000-25.png,0003-00-0001-02.png
00000014,860,1,1440692613766,1440692614133,376,515,0,0,0,4,5,1,45,0004-00-0005-70.png,0005-00-0003-72.png
00000014,861,1,1440692615020,1440692615573,885,399,0,0,0,2,1,1,21,0002-00-0001-16.png,0001-00-0003-02.png
00000014,862,1,1440692616672,1440692617158,865,478,0,0,0,3,2,1,32,0003-00-0001-45.png,0002-00-0005-48.png
00000014,863,1,1440692617999,1440692618512,356,412,0,0,0,2,3,1,23,0002-00-0006-95.png,0003-00-0000-20.png
00000014,864,0,1440692619532,1440692620025,906,418,0,0,0,3,4,1,34,0003-00-0003-92.png,0004-00-0003-44.png
00000014,865,1,1440692623727,1440692624210,902,416,0,0,0,4,3,1,43,0004-00-0000-40.png,0003-00-0000-56.png
00000014,866,1,1440692625437,1440692625913,350,398,0,0,0,4,5,1,45,0004-00-0000-36.png,0005-00-0005-50.png
00000014,867,1,1440692627143,1440692628039,381,429,0,0,0,2,3,1,23,0002-00-0007-38.png,0003-00-0005-01.png
00000014,868,0,1440692629045,1440692629621,340,436,0,0,0,2,1,1,21,0002-00-0002-81.png,0001-00-0002-29.png
00000014,869,1,1440692632731,1440692633300,901,476,0,0,0,5,4,1,54,0005-00-0008-17.png,0004-00-0007-49.png
00000014,870,1,1440692635463,1440692636372,376,532,0,0,0,3,4,1,34,0003-00-0002-76.png,0004-00-0000-02.png
00000014,871,1,1440692638215,1440692638693,401,410,0,0,0,1,2,1,12,0001-00-0007-80.png,0002-00-0009-08.png
00000014,872,1,1440692639737,1440692640653,903,399,0,0,0,3,2,1,32,0003-00-0008-36.png,0002-00-0003-08.png
00000014,873,0,1440692641696,1440692642216,369,531,0,0,0,2,1,1,21,0002-00-0009-73.png,0001-00-0004-56.png
00000014,874,1,1440692645123,1440692645202,514,541,0,0,0,2,3,1,23,0002-00-0006-05.png,0003-00-0000-72.png
00000014,875,1,1440692646128,1440692646652,876,424,0,0,0,3,2,1,32,0003-00-0006-71.png,0002-00-0007-81.png
00000014,876,1,1440692647594,1440692648155,886,450,0,0,0,5,4,1,54,0005-00-0004-85.png,0004-00-0002-08.png
00000014,877,1,1440692649202,1440692649697,393,545,0,0,0,3,4,1,34,0003-00-0008-79.png,0004-00-0008-99.png
00000014,878,1,1440692651241,1440692651700,897,432,0,0,0,4,3,1,43,0004-00-0008-69.png,0003-00-0001-60.png
00000014,879,1,1440692653000,1440692653446,427,410,0,0,0,4,5,1,45,0004-00-0008-99.png,0005-00-0005-82.png
00000014,880,0,1440692654398,1440692654981,894,395,0,0,0,1,2,1,12,0001-00-0005-19.png,0002-00-0003-40.png
00000014,881,0,1440692659175,1440692659698,913,398,0,0,0,2,3,1,23,0002-00-0008-13.png,0003-00-0001-81.png
00000014,882,1,1440692662891,1440692663496,942,390,0,0,0,3,2,1,32,0003-00-0008-39.png,0002-00-0001-43.png
00000014,883,1,1440692666987,1440692667473,921,394,0,0,0,5,4,1,54,0005-00-0005-43.png,0004-00-0001-49.png
00000014,884,0,1440692669594,1440692670105,360,396,0,0,0,2,1,1,21,0002-00-0008-98.png,0001-00-0008-34.png
00000014,885,1,1440692673168,1440692673637,366,406,0,0,0,3,4,1,34,0003-00-0002-53.png,0004-00-0001-76.png
00000014,886,1,1440692675407,1440692675865,902,424,0,0,0,4,3,1,43,0004-00-0005-76.png,0003-00-0004-53.png
00000014,887,1,1440692677722,1440692678246,359,395,0,0,0,1,2,1,12,0001-00-0009-04.png,0002-00-0003-37.png
00000014,888,1,1440692679699,1440692680153,415,397,0,0,0,4,5,1,45,0004-00-0001-79.png,0005-00-0003-93.png
00000014,889,1,1440692682151,1440692682630,873,404,0,0,0,4,3,1,43,0004-00-0004-93.png,0003-00-0008-66.png
00000014,890,0,1440692684172,1440692684620,877,518,0,0,0,2,3,1,23,0002-00-0004-82.png,0003-00-0008-18.png
00000014,891,0,1440692687497,1440692687980,325,384,0,0,0,5,4,1,54,0005-00-0002-62.png,0004-00-0001-11.png
00000014,892,0,1440692691398,1440692692087,914,413,0,0,0,4,5,1,45,0004-00-0008-29.png,0005-00-0000-42.png
00000014,893,1,1440692695101,1440692695517,401,423,0,0,0,3,4,1,34,0003-00-0008-75.png,0004-00-0008-28.png
00000014,894,0,1440692697381,1440692697903,431,548,0,0,0,2,1,1,21,0002-00-0007-86.png,0001-00-0003-10.png
00000014,895,0,1440692701724,1440692702197,338,370,0,0,0,3,2,1,32,0003-00-0000-01.png,0002-00-0005-75.png
00000014,896,1,1440692705209,1440692705684,386,408,0,0,0,1,2,1,12,0001-00-0001-81.png,0002-00-0006-59.png
00000014,897,1,1440692707330,1440692707813,358,423,0,0,0,2,3,1,23,0002-00-0001-42.png,0003-00-0004-73.png
00000014,898,0,1440692708883,1440692709353,875,488,0,0,0,3,4,1,34,0003-00-0006-77.png,0004-00-0008-19.png
00000014,899,0,1440692712278,1440692712804,913,517,0,0,0,4,5,1,45,0004-00-0001-37.png,0005-00-0009-04.png
00000014,900,1,1440692715995,1440692716536,926,439,0,0,0,5,4,1,54,0005-00-0005-88.png,0004-00-0006-37.png
00000014,901,1,1440692718169,1440692718728,394,386,0,0,0,1,2,1,12,0001-00-0006-19.png,0002-00-0008-00.png
00000014,902,1,1440692720268,1440692720800,901,408,0,0,0,3,2,1,32,0003-00-0004-88.png,0002-00-0001-70.png
00000014,903,0,1440692721701,1440692722224,355,397,0,0,0,2,1,1,21,0002-00-0004-88.png,0001-00-0004-82.png
00000014,904,0,1440692725169,1440692725551,390,509,0,0,0,4,3,1,43,0004-00-0008-59.png,0003-00-0009-33.png
00000014,905,1,1440692728625,1440692729075,387,430,0,0,0,3,4,1,34,0003-00-0004-48.png,0004-00-0000-89.png
00000014,906,1,1440692730069,1440692730591,367,402,0,0,0,1,2,1,12,0001-00-0007-87.png,0002-00-0002-01.png
00000014,907,1,1440692731569,1440692732123,876,442,0,0,0,4,3,1,43,0004-00-0004-65.png,0003-00-0008-48.png
00000014,908,1,1440692733640,1440692734119,900,449,0,0,0,2,1,1,21,0002-00-0002-42.png,0001-00-0008-98.png
00000014,909,1,1440692735027,1440692735589,872,403,0,0,0,5,4,1,54,0005-00-0004-29.png,0004-00-0006-70.png
00000014,910,0,1440692736498,1440692737064,896,407,0,0,0,4,5,1,45,0004-00-0004-09.png,0005-00-0001-58.png
00000014,911,1,1440692739945,1440692739986,487,470,0,0,0,2,3,1,23,0002-00-0007-79.png,0003-00-0002-63.png
00000014,912,1,1440692742103,1440692742570,864,516,0,0,0,3,2,1,32,0003-00-0000-29.png,0002-00-0007-17.png
00000014,913,1,1440692744144,1440692744610,338,450,0,0,0,4,5,1,45,0004-00-0003-07.png,0005-00-0006-14.png
00000014,914,0,1440692745930,1440692746407,875,528,0,0,0,2,3,1,23,0002-00-0004-92.png,0003-00-0003-16.png
00000014,915,0,1440692749417,1440692749437,512,418,0,0,0,3,2,1,32,0003-00-0001-44.png,0002-00-0007-31.png
00000014,916,1,1440692752348,1440692752360,470,442,0,0,0,3,4,1,34,0003-00-0001-75.png,0004-00-0003-19.png
00000014,917,0,1440692753720,1440692753748,517,440,0,0,0,4,3,1,43,0004-00-0002-88.png,0003-00-0007-93.png
00000014,918,1,1440692756735,1440692756747,504,384,0,0,0,1,2,1,12,0001-00-0006-96.png,0002-00-0006-48.png
00000014,919,1,1440692757661,1440692758184,912,398,0,0,0,2,1,1,21,0002-00-0005-58.png,0001-00-0001-73.png
00000014,920,0,1440692759020,1440692759527,410,416,0,0,0,5,4,1,54,0005-00-0001-40.png,0004-00-0008-14.png
00000014,921,0,1440692763235,1440692763816,937,419,0,0,0,3,4,1,34,0003-00-0001-55.png,0004-00-0009-89.png
00000014,922,0,1440692766929,1440692767416,389,417,0,0,0,4,3,1,43,0004-00-0003-87.png,0003-00-0005-99.png
00000014,923,1,1440692770371,1440692770407,434,484,0,0,0,4,5,1,45,0004-00-0001-49.png,0005-00-0004-59.png
00000014,924,0,1440692771400,1440692771945,880,427,0,0,0,2,3,1,23,0002-00-0004-62.png,0003-00-0004-30.png
00000014,925,1,1440692775113,1440692775618,892,426,0,0,0,3,2,1,32,0003-00-0000-74.png,0002-00-0006-78.png
00000014,926,1,1440692776887,1440692777333,900,423,0,0,0,2,1,1,21,0002-00-0003-41.png,0001-00-0003-44.png
00000014,927,1,1440692778206,1440692778770,901,391,0,0,0,5,4,1,54,0005-00-0009-81.png,0004-00-0006-15.png
00000014,928,1,1440692779959,1440692780443,331,413,0,0,0,1,2,1,12,0001-00-0003-32.png,0002-00-0009-41.png
00000014,929,1,1440692781426,1440692781881,388,512,0,0,0,3,4,1,34,0003-00-0000-17.png,0004-00-0005-98.png
00000014,930,1,1440692782810,1440692783410,319,436,0,0,0,2,3,1,23,0002-00-0009-17.png,0003-00-0000-48.png
00000014,931,1,1440692784301,1440692784851,389,410,0,0,0,4,5,1,45,0004-00-0005-45.png,0005-00-0001-32.png
00000014,932,0,1440692785749,1440692785830,504,514,0,0,0,2,1,1,21,0002-00-0008-61.png,0001-00-0002-69.png
00000014,933,1,1440692788702,1440692789064,341,382,0,0,0,1,2,1,12,0001-00-0007-85.png,0002-00-0009-01.png
00000014,934,0,1440692790331,1440692790828,417,397,0,0,0,4,3,1,43,0004-00-0004-08.png,0003-00-0009-37.png
00000014,935,1,1440692793701,1440692794267,869,539,0,0,0,3,2,1,32,0003-00-0003-17.png,0002-00-0003-28.png
00000014,936,0,1440692796144,1440692796570,350,421,0,0,0,5,4,1,54,0005-00-0004-92.png,0004-00-0003-83.png
00000014,937,0,1440692799722,1440692800178,407,434,0,0,0,2,1,1,21,0002-00-0003-45.png,0001-00-0001-09.png
00000014,938,1,1440692803185,1440692803754,922,479,0,0,0,4,3,1,43,0004-00-0001-83.png,0003-00-0002-19.png
00000014,939,1,1440692804784,1440692805280,376,384,0,0,0,1,2,1,12,0001-00-0007-94.png,0002-00-0000-92.png
00000014,940,0,1440692806184,1440692806722,876,397,0,0,0,3,4,1,34,0003-00-0000-57.png,0004-00-0007-21.png
00000014,941,1,1440692809688,1440692810362,908,418,0,0,0,5,4,1,54,0005-00-0005-05.png,0004-00-0000-53.png
00000014,942,0,1440692811234,1440692811760,899,423,0,0,0,4,5,1,45,0004-00-0006-04.png,0005-00-0000-78.png
