subject_id,trial,correct_response,stim_time,response_time,x_coord,y_coord,trial_timeout,timeout_time,interTrial_timeout,left_rank,right_rank,distance,joint_rank,left_image,right_image
00000014,1,0,1441204574398,1441204575947,350,409,0,0,0,4,3,1,43,0004-00-0006-86.png,0003-00-0009-95.png
00000014,2,1,1441204578969,1441204579511,975,391,0,0,0,3,2,1,32,0003-00-0007-61.png,0002-00-0003-72.png
00000014,3,0,1441204580875,1441204581506,944,484,0,0,0,1,2,1,12,0001-00-0005-24.png,0002-00-0002-07.png
00000014,4,0,1441204584672,1441204585141,381,539,0,0,0,5,4,1,54,0005-00-0007-92.png,0004-00-0002-47.png
00000014,5,1,1441204588097,1441204588577,322,436,0,0,0,3,4,1,34,0003-00-0000-31.png,0004-00-0009-86.png
00000014,6,1,1441204589731,1441204590271,902,477,0,0,0,2,1,1,21,0002-00-0008-67.png,0001-00-0008-26.png
00000014,7,1,1441204591420,1441204591869,340,404,0,0,0,2,3,1,23,0002-00-0004-04.png,0003-00-0003-84.png
00000014,8,0,1441204593030,1441204593592,902,466,0,0,0,4,5,1,45,0004-00-0007-05.png,0005-00-0009-03.png
00000014,9,1,1441204596519,1441204596555,490,425,0,0,0,4,5,1,45,0004-00-0005-47.png,0005-00-0007-18.png
00000014,10,1,1441204597489,1441204597996,902,422,0,0,0,3,2,1,32,0003-00-0005-07.png,0002-00-0003-36.png
00000014,11,1,1441204599611,1441204600013,317,378,0,0,0,2,3,1,23,0002-00-0008-43.png,0003-00-0005-09.png
00000014,12,0,1441204600982,1441204601555,913,483,0,0,0,1,2,1,12,0001-00-0000-87.png,0002-00-0004-66.png
00000014,13,1,1441204604539,1441204605091,927,397,0,0,0,5,4,1,54,0005-00-0005-28.png,0004-00-0002-54.png
00000014,14,1,1441204606079,1441204606632,901,410,0,0,0,2,1,1,21,0002-00-0007-19.png,0001-00-0007-32.png
00000014,15,0,1441204607848,1441204608300,321,409,0,0,0,4,3,1,43,0004-00-0003-44.png,0003-00-0000-72.png
00000014,16,0,1441204611177,1441204611680,922,379,0,0,0,3,4,1,34,0003-00-0008-70.png,0004-00-0003-78.png
00000014,17,1,1441204614826,1441204615315,364,419,0,0,0,3,4,1,34,0003-00-0003-70.png,0004-00-0003-55.png
00000014,18,1,1441204616812,1441204617270,955,401,0,0,0,2,1,1,21,0002-00-0009-26.png,0001-00-0001-39.png
00000014,19,0,1441204618323,1441204618782,361,417,0,0,0,4,3,1,43,0004-00-0003-16.png,0003-00-0008-12.png
00000014,20,0,1441204621641,1441204621709,468,456,0,0,0,3,2,1,32,0003-00-0002-93.png,0002-00-0005-86.png
00000014,21,1,1441204625221,1441204625704,299,423,0,0,0,1,2,1,12,0001-00-0006-74.png,0002-00-0003-28.png
00000014,22,1,1441204627236,1441204627688,330,408,0,0,0,2,3,1,23,0002-00-0003-96.png,0003-00-0007-86.png
00000014,23,1,1441204628749,1441204629223,333,401,0,0,0,4,5,1,45,0004-00-0005-31.png,0005-00-0009-40.png
00000014,24,0,1441204630687,1441204631117,321,402,0,0,0,5,4,1,54,0005-00-0003-54.png,0004-00-0005-21.png
00000014,25,1,1441204634068,1441204634104,453,414,0,0,0,3,4,1,34,0003-00-0000-00.png,0004-00-0009-88.png
00000014,26,1,1441204635118,1441204635548,308,413,0,0,0,1,2,1,12,0001-00-0007-97.png,0002-00-0007-77.png
00000014,27,1,1441204636597,1441204637099,900,371,0,0,0,5,4,1,54,0005-00-0003-47.png,0004-00-0007-29.png
00000014,28,0,1441204638667,1441204639148,389,527,0,0,0,2,1,1,21,0002-00-0001-54.png,0001-00-0007-63.png
00000014,29,0,1441204642154,1441204642206,504,446,0,0,0,4,3,1,43,0004-00-0004-56.png,0003-00-0009-09.png
00000014,30,0,1441204645056,1441204645076,453,373,0,0,0,3,2,1,32,0003-00-0004-43.png,0002-00-0000-80.png
00000014,31,1,1441204647969,1441204647997,478,423,0,0,0,4,5,1,45,0004-00-0008-03.png,0005-00-0008-66.png
00000014,32,0,1441204648990,1441204649518,922,380,0,0,0,2,3,1,23,0002-00-0008-34.png,0003-00-0002-11.png
00000014,33,1,1441204652442,1441204652486,398,491,0,0,0,1,2,1,12,0001-00-0002-69.png,0002-00-0007-05.png
00000014,34,0,1441204653507,1441204653951,342,407,0,0,0,4,3,1,43,0004-00-0007-36.png,0003-00-0007-76.png
00000014,35,0,1441204656814,1441204656882,464,428,0,0,0,3,2,1,32,0003-00-0003-88.png,0002-00-0007-18.png
00000014,36,1,1441204659936,1441204659989,489,464,0,0,0,3,4,1,34,0003-00-0005-09.png,0004-00-0006-02.png
00000014,37,1,1441204660929,1441204661628,325,318,0,0,0,2,3,1,23,0002-00-0002-70.png,0003-00-0006-78.png
00000014,38,1,1441204662619,1441204663708,953,384,0,0,0,2,1,1,21,0002-00-0002-41.png,0001-00-0003-73.png
00000014,39,1,1441204664726,1441204665277,888,359,0,0,0,5,4,1,54,0005-00-0006-70.png,0004-00-0001-08.png
00000014,40,1,1441204666266,1441204666826,360,506,0,0,0,4,5,1,45,0004-00-0003-60.png,0005-00-0005-51.png
00000014,41,0,1441204667837,1441204668353,301,383,0,0,0,5,4,1,54,0005-00-0006-20.png,0004-00-0003-24.png
00000014,42,1,1441204671276,1441204671774,325,400,0,0,0,4,5,1,45,0004-00-0000-05.png,0005-00-0003-34.png
00000014,43,0,1441204672696,1441204673390,366,430,0,0,0,3,2,1,32,0003-00-0006-37.png,0002-00-0001-79.png
00000014,44,1,1441204676550,1441204677005,291,401,0,0,0,1,2,1,12,0001-00-0006-04.png,0002-00-0006-72.png
00000014,45,0,1441204677983,1441204678473,325,410,0,0,0,4,3,1,43,0004-00-0002-69.png,0003-00-0008-52.png
00000014,46,1,1441204681522,1441204682036,354,429,0,0,0,3,4,1,34,0003-00-0006-09.png,0004-00-0004-98.png
00000014,47,0,1441204682992,1441204683517,888,383,0,0,0,2,3,1,23,0002-00-0002-54.png,0003-00-0002-34.png
00000014,48,0,1441204686640,1441204687241,335,411,0,0,0,2,1,1,21,0002-00-0001-13.png,0001-00-0007-79.png
00000014,49,0,1441204690829,1441204691377,888,306,0,0,0,3,4,1,34,0003-00-0002-96.png,0004-00-0009-34.png
00000014,50,1,1441204694602,1441204695052,367,402,0,0,0,4,5,1,45,0004-00-0007-83.png,0005-00-0003-53.png
00000014,51,1,1441204695951,1441204696548,874,475,0,0,0,4,3,1,43,0004-00-0003-11.png,0003-00-0001-88.png
00000014,52,0,1441204697562,1441204698081,913,429,0,0,0,1,2,1,12,0001-00-0008-37.png,0002-00-0006-29.png
00000014,53,0,1441204701060,1441204701657,976,397,0,0,0,2,3,1,23,0002-00-0009-45.png,0003-00-0009-31.png
00000014,54,0,1441204704696,1441204704704,427,396,0,0,0,3,2,1,32,0003-00-0008-50.png,0002-00-0007-67.png
00000014,55,1,1441204707937,1441204708436,887,460,0,0,0,5,4,1,54,0005-00-0007-51.png,0004-00-0002-54.png
00000014,56,1,1441204709418,1441204709923,931,401,0,0,0,2,1,1,21,0002-00-0008-27.png,0001-00-0009-03.png
00000014,57,1,1441204710999,1441204711462,331,416,0,0,0,1,2,1,12,0001-00-0006-62.png,0002-00-0002-60.png
00000014,58,1,1441204712508,1441204713139,913,369,0,0,0,3,2,1,32,0003-00-0000-51.png,0002-00-0007-95.png
00000014,59,1,1441204714119,1441204714619,921,367,0,0,0,2,1,1,21,0002-00-0006-03.png,0001-00-0002-63.png
00000014,60,1,1441204715735,1441204716213,321,405,0,0,0,4,5,1,45,0004-00-0006-75.png,0005-00-0005-09.png
00000014,61,1,1441204717264,1441204717731,377,393,0,0,0,3,4,1,34,0003-00-0001-17.png,0004-00-0004-06.png
00000014,62,1,1441204718984,1441204719468,337,394,0,0,0,2,3,1,23,0002-00-0009-77.png,0003-00-0009-80.png
00000014,63,1,1441204720579,1441204721074,897,382,0,0,0,4,3,1,43,0004-00-0006-91.png,0003-00-0007-02.png
00000014,64,1,1441204722249,1441204722765,894,386,0,0,0,5,4,1,54,0005-00-0005-22.png,0004-00-0006-05.png
00000014,65,1,1441204723820,1441204724339,873,386,0,0,0,4,3,1,43,0004-00-0007-96.png,0003-00-0002-85.png
00000014,66,0,1441204725500,1441204726011,894,367,0,0,0,1,2,1,12,0001-00-0000-44.png,0002-00-0000-44.png
00000014,67,1,1441204729077,1441204729611,935,414,0,0,0,3,2,1,32,0003-00-0002-76.png,0002-00-0004-53.png
00000014,68,1,1441204730618,1441204731114,376,467,0,0,0,3,4,1,34,0003-00-0006-70.png,0004-00-0008-17.png
00000014,69,0,1441204732198,1441204732711,874,397,0,0,0,4,5,1,45,0004-00-0006-77.png,0005-00-0002-55.png
00000014,70,0,1441204735651,1441204735776,523,513,0,0,0,2,1,1,21,0002-00-0001-35.png,0001-00-0004-10.png
00000014,71,1,1441204738973,1441204739481,883,474,0,0,0,5,4,1,54,0005-00-0008-61.png,0004-00-0004-61.png
00000014,72,0,1441204740506,1441204741051,898,485,0,0,0,2,3,1,23,0002-00-0003-05.png,0003-00-0005-10.png
00000014,73,0,1441204744113,1441204744664,360,398,0,0,0,3,2,1,32,0003-00-0003-40.png,0002-00-0005-15.png
00000014,74,1,1441204747548,1441204747556,453,372,0,0,0,4,5,1,45,0004-00-0002-64.png,0005-00-0009-87.png
00000014,75,1,1441204748913,1441204749380,342,396,0,0,0,3,4,1,34,0003-00-0008-00.png,0004-00-0007-39.png
00000014,76,0,1441204750764,1441204751260,901,358,0,0,0,1,2,1,12,0001-00-0003-50.png,0002-00-0005-54.png
00000014,77,1,1441204754460,1441204754936,282,404,0,0,0,2,3,1,23,0002-00-0003-10.png,0003-00-0005-68.png
00000014,78,1,1441204755931,1441204756469,901,383,0,0,0,5,4,1,54,0005-00-0008-71.png,0004-00-0000-80.png
00000014,79,1,1441204757520,1441204758037,953,355,0,0,0,4,3,1,43,0004-00-0001-88.png,0003-00-0001-17.png
00000014,80,0,1441204759156,1441204759675,324,421,0,0,0,2,1,1,21,0002-00-0004-07.png,0001-00-0006-29.png
00000014,81,1,1441204762816,1441204763325,927,397,0,0,0,5,4,1,54,0005-00-0009-46.png,0004-00-0006-17.png
00000014,82,0,1441204764348,1441204764842,940,383,0,0,0,1,2,1,12,0001-00-0003-18.png,0002-00-0006-29.png
00000014,83,1,1441204767954,1441204768506,924,395,0,0,0,2,1,1,21,0002-00-0006-01.png,0001-00-0004-31.png
00000014,84,0,1441204769587,1441204770116,921,367,0,0,0,3,4,1,34,0003-00-0008-48.png,0004-00-0000-00.png
00000014,85,1,1441204773080,1441204773610,404,535,0,0,0,4,5,1,45,0004-00-0007-81.png,0005-00-0002-22.png
00000014,86,1,1441204774651,1441204775200,870,497,0,0,0,3,2,1,32,0003-00-0008-64.png,0002-00-0008-80.png
00000014,87,0,1441204776252,1441204776798,920,368,0,0,0,2,3,1,23,0002-00-0005-05.png,0003-00-0004-31.png
00000014,88,0,1441204779688,1441204779747,478,422,0,0,0,4,3,1,43,0004-00-0003-53.png,0003-00-0006-78.png
00000014,89,0,1441204782579,1441204782680,460,442,0,0,0,3,2,1,32,0003-00-0000-88.png,0002-00-0002-76.png
00000014,90,1,1441204785584,1441204785998,393,401,0,0,0,3,4,1,34,0003-00-0005-24.png,0004-00-0003-49.png
00000014,91,1,1441204786935,1441204787443,951,371,0,0,0,5,4,1,54,0005-00-0001-35.png,0004-00-0007-05.png
00000014,92,0,1441204788485,1441204788980,937,372,0,0,0,2,3,1,23,0002-00-0007-43.png,0003-00-0001-25.png
00000014,93,0,1441204791885,1441204791909,489,426,0,0,0,4,3,1,43,0004-00-0006-03.png,0003-00-0007-37.png
00000014,94,1,1441204795055,1441204795551,964,371,0,0,0,2,1,1,21,0002-00-0008-71.png,0001-00-0008-32.png
00000014,95,0,1441204796552,1441204797081,922,367,0,0,0,4,5,1,45,0004-00-0008-42.png,0005-00-0002-83.png
00000014,96,1,1441204799994,1441204800018,473,393,0,0,0,1,2,1,12,0001-00-0000-59.png,0002-00-0005-38.png
00000014,97,1,1441204801048,1441204801520,278,382,0,0,0,1,2,1,12,0001-00-0003-49.png,0002-00-0005-28.png
00000014,98,1,1441204802694,1441204803229,861,461,0,0,0,4,3,1,43,0004-00-0003-61.png,0003-00-0008-63.png
00000014,99,0,1441204804377,1441204804940,912,371,0,0,0,3,4,1,34,0003-00-0000-76.png,0004-00-0000-35.png
00000014,100,1,1441204807985,1441204808518,900,397,0,0,0,5,4,1,54,0005-00-0007-20.png,0004-00-0004-58.png
00000014,101,1,1441204809527,1441204810019,336,393,0,0,0,2,3,1,23,0002-00-0007-00.png,0003-00-0001-97.png
00000014,102,0,1441204811136,1441204811647,905,401,0,0,0,4,5,1,45,0004-00-0007-53.png,0005-00-0008-23.png
00000014,103,0,1441204814824,1441204815315,260,413,0,0,0,3,2,1,32,0003-00-0004-05.png,0002-00-0008-00.png
00000014,104,1,1441204818580,1441204819147,874,463,0,0,0,2,1,1,21,0002-00-0005-78.png,0001-00-0008-78.png
00000014,105,0,1441204820140,1441204820687,926,397,0,0,0,4,5,1,45,0004-00-0004-83.png,0005-00-0003-94.png
00000014,106,1,1441204823717,1441204824245,388,345,0,0,0,3,4,1,34,0003-00-0004-92.png,0004-00-0002-25.png
00000014,107,1,1441204825208,1441204825702,350,397,0,0,0,1,2,1,12,0001-00-0006-34.png,0002-00-0006-46.png
00000014,108,1,1441204826889,1441204827421,901,391,0,0,0,5,4,1,54,0005-00-0008-42.png,0004-00-0004-59.png
00000014,109,1,1441204828559,1441204829116,895,394,0,0,0,3,2,1,32,0003-00-0006-97.png,0002-00-0007-72.png
00000014,110,0,1441204830198,1441204830686,394,503,0,0,0,2,1,1,21,0002-00-0004-80.png,0001-00-0004-79.png
00000014,111,1,1441204833566,1441204833590,453,370,0,0,0,2,3,1,23,0002-00-0006-38.png,0003-00-0008-48.png
00000014,112,0,1441204834641,1441204835100,379,493,0,0,0,4,3,1,43,0004-00-0006-84.png,0003-00-0003-58.png
00000014,113,1,1441204838138,1441204838222,481,478,0,0,0,1,2,1,12,0001-00-0002-64.png,0002-00-0005-32.png
00000014,114,0,1441204839250,1441204839748,901,371,0,0,0,4,5,1,45,0004-00-0003-50.png,0005-00-0002-28.png
00000014,115,1,1441204842740,1441204842748,491,413,0,0,0,3,4,1,34,0003-00-0004-52.png,0004-00-0002-77.png
00000014,116,0,1441204843742,1441204844214,350,384,0,0,0,2,1,1,21,0002-00-0009-85.png,0001-00-0008-68.png
00000014,117,0,1441204848055,1441204848550,875,371,0,0,0,2,3,1,23,0002-00-0001-70.png,0003-00-0005-48.png
00000014,118,0,1441204851713,1441204852210,299,410,0,0,0,3,2,1,32,0003-00-0005-44.png,0002-00-0003-98.png
00000014,119,1,1441204855114,1441204855777,959,388,0,0,0,4,3,1,43,0004-00-0007-67.png,0003-00-0003-26.png
00000014,120,0,1441204856779,1441204857295,410,495,0,0,0,5,4,1,54,0005-00-0008-41.png,0004-00-0002-75.png
00000014,121,1,1441204860427,1441204861411,926,461,0,0,0,5,4,1,54,0005-00-0008-88.png,0004-00-0002-07.png
00000014,122,0,1441204862468,1441204862991,914,385,0,0,0,3,4,1,34,0003-00-0001-65.png,0004-00-0003-90.png
00000014,123,1,1441204866083,1441204866741,881,472,0,0,0,2,1,1,21,0002-00-0009-46.png,0001-00-0005-28.png
00000014,124,0,1441204867738,1441204868251,324,403,0,0,0,3,2,1,32,0003-00-0001-13.png,0002-00-0009-71.png
00000014,125,0,1441204871086,1441204871134,489,427,0,0,0,4,3,1,43,0004-00-0006-53.png,0003-00-0007-91.png
00000014,126,1,1441204874251,1441204874674,376,384,0,0,0,4,5,1,45,0004-00-0008-21.png,0005-00-0005-68.png
00000014,127,1,1441204875616,1441204876215,319,394,0,0,0,2,3,1,23,0002-00-0003-38.png,0003-00-0006-64.png
00000014,128,1,1441204877302,1441204877795,305,411,0,0,0,1,2,1,12,0001-00-0001-12.png,0002-00-0003-35.png
00000014,129,1,1441204879004,1441204879588,903,391,0,0,0,5,4,1,54,0005-00-0006-23.png,0004-00-0008-79.png
00000014,130,1,1441204880733,1441204881277,926,372,0,0,0,2,1,1,21,0002-00-0004-97.png,0001-00-0005-54.png
00000014,131,1,1441204882461,1441204882991,909,407,0,0,0,3,2,1,32,0003-00-0006-75.png,0002-00-0006-46.png
00000014,132,1,1441204884207,1441204884717,323,403,0,0,0,3,4,1,34,0003-00-0007-16.png,0004-00-0009-82.png
00000014,133,0,1441204885971,1441204886508,899,405,0,0,0,4,5,1,45,0004-00-0003-35.png,0005-00-0009-84.png
00000014,134,1,1441204889575,1441204890129,408,528,0,0,0,1,2,1,12,0001-00-0000-61.png,0002-00-0001-75.png
00000014,135,1,1441204891189,1441204891715,913,384,0,0,0,4,3,1,43,0004-00-0001-51.png,0003-00-0004-12.png
00000014,136,0,1441204892839,1441204893376,929,391,0,0,0,2,3,1,23,0002-00-0009-27.png,0003-00-0009-22.png
00000014,137,1,1441204896308,1441204896332,473,391,0,0,0,4,5,1,45,0004-00-0006-39.png,0005-00-0000-62.png
00000014,138,1,1441204897431,1441204897922,321,383,0,0,0,2,3,1,23,0002-00-0007-63.png,0003-00-0005-79.png
00000014,139,0,1441204899061,1441204899588,888,396,0,0,0,3,4,1,34,0003-00-0005-98.png,0004-00-0009-78.png
00000014,140,0,1441204902639,1441204902647,463,451,0,0,0,2,1,1,21,0002-00-0004-90.png,0001-00-0002-56.png
00000014,141,0,1441204905630,1441204905654,504,347,0,0,0,3,2,1,32,0003-00-0004-21.png,0002-00-0009-22.png
00000014,142,0,1441204908752,1441204908768,512,443,0,0,0,5,4,1,54,0005-00-0008-59.png,0004-00-0003-69.png
00000014,143,0,1441204911793,1441204911837,496,490,0,0,0,4,3,1,43,0004-00-0001-76.png,0003-00-0001-46.png
00000014,144,1,1441204915280,1441204915776,401,398,0,0,0,1,2,1,12,0001-00-0006-92.png,0002-00-0008-91.png
00000014,145,0,1441204916696,1441204917435,902,365,0,0,0,1,2,1,12,0001-00-0006-95.png,0002-00-0005-04.png
00000014,146,1,1441204920284,1441204920862,940,396,0,0,0,2,1,1,21,0002-00-0004-97.png,0001-00-0001-18.png
00000014,147,0,1441204921950,1441204922444,901,371,0,0,0,2,3,1,23,0002-00-0003-38.png,0003-00-0003-67.png
00000014,148,0,1441204925335,1441204925876,930,402,0,0,0,3,4,1,34,0003-00-0006-29.png,0004-00-0008-01.png
00000014,149,1,1441204928994,1441204929598,900,370,0,0,0,3,2,1,32,0003-00-0009-72.png,0002-00-0003-92.png
00000014,150,0,1441204930645,1441204931163,894,394,0,0,0,4,5,1,45,0004-00-0005-67.png,0005-00-0002-66.png
00000014,151,0,1441204934045,1441204934049,512,454,0,0,0,4,3,1,43,0004-00-0002-79.png,0003-00-0006-13.png
00000014,152,0,1441204937234,1441204937758,388,526,0,0,0,5,4,1,54,0005-00-0007-30.png,0004-00-0003-28.png
00000014,153,1,1441204940715,1441204940731,486,393,0,0,0,3,4,1,34,0003-00-0008-00.png,0004-00-0003-58.png
00000014,154,0,1441204941766,1441204942281,881,475,0,0,0,1,2,1,12,0001-00-0006-53.png,0002-00-0002-86.png
00000014,155,0,1441204945324,1441204945390,513,565,0,0,0,2,1,1,21,0002-00-0009-42.png,0001-00-0006-44.png
00000014,156,1,1441204948426,1441204949039,924,335,0,0,0,5,4,1,54,0005-00-0000-33.png,0004-00-0009-86.png
00000014,157,0,1441204950046,1441204950583,914,372,0,0,0,2,3,1,23,0002-00-0003-26.png,0003-00-0003-03.png
00000014,158,0,1441204953613,1441204953629,514,427,0,0,0,3,2,1,32,0003-00-0001-03.png,0002-00-0006-23.png
00000014,159,1,1441204956621,1441204957113,365,401,0,0,0,4,5,1,45,0004-00-0002-43.png,0005-00-0003-40.png
00000014,160,1,1441204958136,1441204958653,901,468,0,0,0,4,3,1,43,0004-00-0003-64.png,0003-00-0000-48.png
00000014,161,0,1441204959869,1441204960390,931,401,0,0,0,1,2,1,12,0001-00-0002-34.png,0002-00-0009-22.png
00000014,162,0,1441204963542,1441204964053,878,350,0,0,0,2,3,1,23,0002-00-0000-31.png,0003-00-0004-51.png
00000014,163,0,1441204967219,1441204967243,504,410,0,0,0,5,4,1,54,0005-00-0004-36.png,0004-00-0003-86.png
00000014,164,1,1441204972617,1441204973204,930,375,0,0,0,2,1,1,21,0002-00-0008-85.png,0001-00-0004-38.png
00000014,165,1,1441204974573,1441204975050,882,501,0,0,0,4,3,1,43,0004-00-0005-68.png,0003-00-0002-40.png
00000014,166,0,1441204976150,1441204976793,877,386,0,0,0,4,5,1,45,0004-00-0000-79.png,0005-00-0001-39.png
00000014,167,0,1441204979890,1441204979910,508,470,0,0,0,3,2,1,32,0003-00-0001-77.png,0002-00-0000-84.png
00000014,168,1,1441204985654,1441204986168,291,382,0,0,0,3,4,1,34,0003-00-0008-60.png,0004-00-0004-06.png
00000014,169,1,1441204987563,1441204988057,393,426,0,0,0,1,2,1,12,0001-00-0004-23.png,0002-00-0008-82.png
00000014,170,1,1441204989073,1441204989587,365,420,0,0,0,3,4,1,34,0003-00-0002-58.png,0004-00-0008-91.png
00000014,171,1,1441204990767,1441204991250,928,417,0,0,0,3,2,1,32,0003-00-0006-29.png,0002-00-0005-74.png
00000014,172,1,1441204992414,1441204992928,878,491,0,0,0,2,1,1,21,0002-00-0009-14.png,0001-00-0003-93.png
00000014,173,0,1441204994035,1441204994580,906,401,0,0,0,2,3,1,23,0002-00-0009-46.png,0003-00-0007-04.png
00000014,174,0,1441205001720,1441205002234,953,370,0,0,0,4,5,1,45,0004-00-0000-96.png,0005-00-0000-15.png
00000014,175,1,1441205005568,1441205006108,886,488,0,0,0,4,3,1,43,0004-00-0000-86.png,0003-00-0007-20.png
00000014,176,1,1441205007478,1441205007972,902,389,0,0,0,5,4,1,54,0005-00-0009-84.png,0004-00-0008-28.png
00000014,177,1,1441205009119,1441205009684,901,445,0,0,0,4,3,1,43,0004-00-0002-78.png,0003-00-0008-09.png
00000014,178,0,1441205010808,1441205011307,927,371,0,0,0,2,3,1,23,0002-00-0006-67.png,0003-00-0008-67.png
00000014,179,0,1441205014474,1441205014952,375,366,0,0,0,2,1,1,21,0002-00-0006-12.png,0001-00-0003-77.png
00000014,180,1,1441205017878,1441205018367,909,492,0,0,0,3,2,1,32,0003-00-0002-77.png,0002-00-0006-26.png
00000014,181,1,1441205019352,1441205019923,312,414,0,0,0,1,2,1,12,0001-00-0009-71.png,0002-00-0005-48.png
00000014,182,1,1441205021033,1441205022035,392,484,0,0,0,4,5,1,45,0004-00-0007-10.png,0005-00-0007-01.png
00000014,183,0,1441205023137,1441205023683,888,424,0,0,0,3,4,1,34,0003-00-0000-07.png,0004-00-0001-36.png
00000014,184,1,1441205027126,1441205027651,930,401,0,0,0,5,4,1,54,0005-00-0005-21.png,0004-00-0001-90.png
00000014,185,0,1441205028618,1441205029239,920,416,0,0,0,3,4,1,34,0003-00-0009-75.png,0004-00-0005-10.png
00000014,186,0,1441205036977,1441205037501,401,436,0,0,0,4,3,1,43,0004-00-0000-24.png,0003-00-0002-61.png
00000014,187,1,1441205040418,1441205040462,450,453,0,0,0,4,5,1,45,0004-00-0002-35.png,0005-00-0006-75.png
00000014,188,1,1441205041524,1441205042032,952,414,0,0,0,5,4,1,54,0005-00-0007-29.png,0004-00-0000-49.png
00000014,189,1,1441205043034,1441205043526,363,502,0,0,0,1,2,1,12,0001-00-0006-09.png,0002-00-0006-53.png
00000014,190,1,1441205044614,1441205045181,331,404,0,0,0,2,3,1,23,0002-00-0007-76.png,0003-00-0007-23.png
00000014,191,1,1441205046203,1441205046696,877,495,0,0,0,3,2,1,32,0003-00-0005-98.png,0002-00-0004-87.png
00000014,192,1,1441205047785,1441205048295,877,529,0,0,0,2,1,1,21,0002-00-0000-00.png,0001-00-0002-17.png
00000014,193,1,1441205049404,1441205049888,890,516,0,0,0,3,2,1,32,0003-00-0001-41.png,0002-00-0004-77.png
00000014,194,0,1441205050993,1441205051485,382,411,0,0,0,5,4,1,54,0005-00-0000-81.png,0004-00-0002-14.png
00000014,195,1,1441205054722,1441205055242,376,384,0,0,0,1,2,1,12,0001-00-0008-06.png,0002-00-0002-09.png
00000014,196,0,1441205056398,1441205056923,893,484,0,0,0,4,5,1,45,0004-00-0000-07.png,0005-00-0006-62.png
00000014,197,0,1441205060068,1441205060625,376,358,0,0,0,2,1,1,21,0002-00-0008-37.png,0001-00-0004-06.png
00000014,198,1,1441205063776,1441205064261,342,376,0,0,0,2,3,1,23,0002-00-0000-38.png,0003-00-0006-57.png
00000014,199,1,1441205065305,1441205065894,937,398,0,0,0,4,3,1,43,0004-00-0003-00.png,0003-00-0002-78.png
00000014,200,0,1441205067026,1441205067602,899,413,0,0,0,3,4,1,34,0003-00-0002-95.png,0004-00-0003-67.png
00000014,201,1,1441205070443,1441205070479,512,436,0,0,0,2,3,1,23,0002-00-0003-00.png,0003-00-0008-30.png
00000014,202,1,1441205071458,1441205071977,864,498,0,0,0,4,3,1,43,0004-00-0009-40.png,0003-00-0003-60.png
00000014,203,1,1441205072989,1441205073492,320,395,0,0,0,1,2,1,12,0001-00-0003-24.png,0002-00-0005-15.png
00000014,204,1,1441205074630,1441205075173,904,402,0,0,0,5,4,1,54,0005-00-0009-69.png,0004-00-0005-79.png
00000014,205,1,1441205076250,1441205076796,349,403,0,0,0,4,5,1,45,0004-00-0001-85.png,0005-00-0003-60.png
00000014,206,0,1441205077941,1441205078554,913,389,0,0,0,3,4,1,34,0003-00-0003-60.png,0004-00-0003-15.png
00000014,207,1,1441205081596,1441205082165,920,393,0,0,0,2,1,1,21,0002-00-0003-18.png,0001-00-0003-07.png
00000014,208,1,1441205083197,1441205083762,923,405,0,0,0,3,2,1,32,0003-00-0007-34.png,0002-00-0005-93.png
00000014,209,0,1441205084837,1441205085331,339,424,0,0,0,2,1,1,21,0002-00-0002-84.png,0001-00-0000-81.png
00000014,210,1,1441205088494,1441205089005,383,420,0,0,0,1,2,1,12,0001-00-0004-26.png,0002-00-0005-65.png
00000014,211,1,1441205090023,1441205090555,905,401,0,0,0,5,4,1,54,0005-00-0004-19.png,0004-00-0009-07.png
00000014,212,1,1441205091564,1441205092095,903,416,0,0,0,3,2,1,32,0003-00-0009-98.png,0002-00-0001-13.png
00000014,213,1,1441205093214,1441205093736,924,388,0,0,0,4,3,1,43,0004-00-0001-32.png,0003-00-0009-76.png
00000014,214,0,1441205094805,1441205095328,912,424,0,0,0,3,4,1,34,0003-00-0006-37.png,0004-00-0008-92.png
00000014,215,1,1441205098202,1441205098230,523,458,0,0,0,4,5,1,45,0004-00-0006-23.png,0005-00-0006-94.png
00000014,216,0,1441205099258,1441205099765,873,481,0,0,0,2,3,1,23,0002-00-0007-24.png,0003-00-0000-26.png
00000014,217,1,1441205102834,1441205103321,401,436,0,0,0,3,4,1,34,0003-00-0006-02.png,0004-00-0007-42.png
00000014,218,0,1441205104683,1441205105242,396,433,0,0,0,2,1,1,21,0002-00-0006-77.png,0001-00-0009-14.png
00000014,219,0,1441205108388,1441205108983,913,423,0,0,0,4,5,1,45,0004-00-0001-44.png,0005-00-0006-06.png
00000014,220,0,1441205111948,1441205111952,514,347,0,0,0,3,2,1,32,0003-00-0003-13.png,0002-00-0000-49.png
00000014,221,1,1441205115097,1441205115681,951,384,0,0,0,5,4,1,54,0005-00-0008-20.png,0004-00-0007-71.png
00000014,222,0,1441205116619,1441205116635,478,454,0,0,0,4,3,1,43,0004-00-0002-54.png,0003-00-0003-32.png
00000014,223,1,1441205119537,1441205119557,472,461,0,0,0,1,2,1,12,0001-00-0001-07.png,0002-00-0005-26.png
00000014,224,1,1441205120491,1441205120972,363,419,0,0,0,2,3,1,23,0002-00-0004-72.png,0003-00-0009-61.png
00000014,225,0,1441205121984,1441205122518,927,383,0,0,0,3,4,1,34,0003-00-0005-72.png,0004-00-0003-74.png
00000014,226,1,1441205125484,1441205125500,504,471,0,0,0,1,2,1,12,0001-00-0009-93.png,0002-00-0008-11.png
00000014,227,0,1441205126455,1441205126471,504,462,0,0,0,3,2,1,32,0003-00-0004-90.png,0002-00-0007-48.png
00000014,228,1,1441205129548,1441205130001,268,420,0,0,0,4,5,1,45,0004-00-0005-48.png,0005-00-0004-56.png
00000014,229,0,1441205130938,1441205131550,903,364,0,0,0,2,3,1,23,0002-00-0000-95.png,0003-00-0005-31.png
00000014,230,0,1441205134573,1441205134581,504,448,0,0,0,5,4,1,54,0005-00-0000-57.png,0004-00-0003-20.png
00000014,231,0,1441205137793,1441205138321,337,375,0,0,0,2,1,1,21,0002-00-0004-54.png,0001-00-0002-48.png
00000014,232,1,1441205141429,1441205141955,901,358,0,0,0,4,3,1,43,0004-00-0009-45.png,0003-00-0001-95.png
00000014,233,1,1441205143060,1441205143586,905,391,0,0,0,5,4,1,54,0005-00-0005-72.png,0004-00-0001-73.png
00000014,234,1,1441205144744,1441205145234,898,360,0,0,0,4,3,1,43,0004-00-0006-52.png,0003-00-0008-04.png
00000014,235,0,1441205146342,1441205146957,891,388,0,0,0,4,5,1,45,0004-00-0004-01.png,0005-00-0003-72.png
00000014,236,1,1441205150027,1441205150502,400,513,0,0,0,1,2,1,12,0001-00-0000-17.png,0002-00-0003-23.png
00000014,237,1,1441205151571,1441205152164,903,364,0,0,0,3,2,1,32,0003-00-0004-05.png,0002-00-0001-00.png
00000014,238,1,1441205153188,1441205153730,401,410,0,0,0,2,3,1,23,0002-00-0000-00.png,0003-00-0000-00.png
00000014,239,1,1441205154721,1441205155275,384,394,0,0,0,3,4,1,34,0003-00-0002-53.png,0004-00-0008-99.png
00000014,240,0,1441205156519,1441205157021,351,407,0,0,0,2,1,1,21,0002-00-0001-66.png,0001-00-0002-13.png
00000014,241,1,1441205160178,1441205160689,318,414,0,0,0,3,4,1,34,0003-00-0003-58.png,0004-00-0007-22.png
00000014,242,1,1441205161756,1441205162264,894,512,0,0,0,3,2,1,32,0003-00-0008-03.png,0002-00-0008-84.png
00000014,243,1,1441205163348,1441205163871,903,394,0,0,0,5,4,1,54,0005-00-0001-17.png,0004-00-0003-61.png
00000014,244,1,1441205164979,1441205165474,930,427,0,0,0,4,3,1,43,0004-00-0006-97.png,0003-00-0005-71.png
00000014,245,1,1441205166627,1441205167153,376,397,0,0,0,1,2,1,12,0001-00-0002-07.png,0002-00-0008-13.png
00000014,246,0,1441205168278,1441205168874,922,408,0,0,0,2,3,1,23,0002-00-0000-90.png,0003-00-0006-98.png
00000014,247,0,1441205171795,1441205172305,882,515,0,0,0,4,5,1,45,0004-00-0009-09.png,0005-00-0009-59.png
00000014,248,1,1441205175483,1441205176039,933,431,0,0,0,2,1,1,21,0002-00-0001-25.png,0001-00-0003-20.png
00000014,249,0,1441205177043,1441205177522,414,410,0,0,0,4,3,1,43,0004-00-0001-87.png,0003-00-0001-21.png
00000014,250,1,1441205181096,1441205181751,903,362,0,0,0,3,2,1,32,0003-00-0001-12.png,0002-00-0000-48.png
00000014,251,1,1441205182798,1441205183375,376,358,0,0,0,1,2,1,12,0001-00-0002-61.png,0002-00-0004-52.png
00000014,252,0,1441205184408,1441205184923,376,396,0,0,0,2,1,1,21,0002-00-0001-49.png,0001-00-0000-43.png
00000014,253,0,1441205187893,1441205188444,931,426,0,0,0,3,4,1,34,0003-00-0004-21.png,0004-00-0002-81.png
00000014,254,1,1441205193683,1441205194124,385,494,0,0,0,4,5,1,45,0004-00-0003-08.png,0005-00-0002-14.png
00000014,255,0,1441205195480,1441205195977,901,470,0,0,0,2,3,1,23,0002-00-0007-59.png,0003-00-0001-61.png
00000014,256,1,1441205199077,1441205199650,926,385,0,0,0,5,4,1,54,0005-00-0005-59.png,0004-00-0008-22.png
00000014,257,1,1441205200677,1441205201258,381,440,0,0,0,4,5,1,45,0004-00-0000-45.png,0005-00-0007-40.png
00000014,258,1,1441205202317,1441205202827,338,390,0,0,0,1,2,1,12,0001-00-0001-11.png,0002-00-0008-36.png
00000014,259,0,1441205204094,1441205204587,362,414,0,0,0,2,1,1,21,0002-00-0003-55.png,0001-00-0000-37.png
00000014,260,1,1441205207479,1441205207491,408,393,0,0,0,3,4,1,34,0003-00-0002-00.png,0004-00-0001-13.png
00000014,261,0,1441205208519,1441205208991,361,412,0,0,0,4,3,1,43,0004-00-0001-74.png,0003-00-0003-53.png
00000014,262,0,1441205212178,1441205212683,417,519,0,0,0,5,4,1,54,0005-00-0001-89.png,0004-00-0009-36.png
00000014,263,0,1441205215972,1441205216599,907,464,0,0,0,2,3,1,23,0002-00-0005-01.png,0003-00-0004-03.png
00000014,264,0,1441205219521,1441205219555,463,450,0,0,0,3,2,1,32,0003-00-0006-73.png,0002-00-0009-90.png
00000014,265,1,1441205222441,1441205222517,427,504,0,0,0,3,4,1,34,0003-00-0003-98.png,0004-00-0006-42.png
00000014,266,0,1441205223536,1441205224054,361,488,0,0,0,3,2,1,32,0003-00-0007-78.png,0002-00-0007-06.png
00000014,267,1,1441205228117,1441205228700,931,427,0,0,0,5,4,1,54,0005-00-0002-23.png,0004-00-0007-37.png
00000014,268,1,1441205229627,1441205230193,899,484,0,0,0,2,1,1,21,0002-00-0009-43.png,0001-00-0003-53.png
00000014,269,1,1441205231298,1441205231820,900,414,0,0,0,4,3,1,43,0004-00-0005-26.png,0003-00-0003-58.png
00000014,270,1,1441205232854,1441205233360,293,410,0,0,0,1,2,1,12,0001-00-0002-83.png,0002-00-0009-39.png
00000014,271,0,1441205234429,1441205235021,866,508,0,0,0,4,5,1,45,0004-00-0009-57.png,0005-00-0009-27.png
00000014,272,1,1441205239229,1441205239705,376,358,0,0,0,2,3,1,23,0002-00-0006-94.png,0003-00-0003-71.png
00000014,273,1,1441205240870,1441205241377,928,413,0,0,0,3,2,1,32,0003-00-0005-51.png,0002-00-0006-51.png
00000014,274,0,1441205242450,1441205242954,900,520,0,0,0,3,4,1,34,0003-00-0001-62.png,0004-00-0008-48.png
00000014,275,1,1441205245978,1441205246432,290,376,0,0,0,2,3,1,23,0002-00-0007-05.png,0003-00-0003-09.png
00000014,276,0,1441205247569,1441205248072,376,476,0,0,0,2,1,1,21,0002-00-0002-13.png,0001-00-0000-28.png
00000014,277,1,1441205251309,1441205251794,934,447,0,0,0,4,3,1,43,0004-00-0003-42.png,0003-00-0002-90.png
00000014,278,1,1441205252804,1441205253293,349,388,0,0,0,1,2,1,12,0001-00-0001-54.png,0002-00-0002-39.png
00000014,279,1,1441205254386,1441205254924,320,394,0,0,0,4,5,1,45,0004-00-0003-85.png,0005-00-0009-96.png
00000014,280,1,1441205256058,1441205256569,928,417,0,0,0,5,4,1,54,0005-00-0007-28.png,0004-00-0003-41.png
00000014,281,1,1441205257603,1441205258129,903,389,0,0,0,4,3,1,43,0004-00-0009-25.png,0003-00-0004-33.png
00000014,282,1,1441205259192,1441205259748,876,521,0,0,0,5,4,1,54,0005-00-0007-33.png,0004-00-0004-94.png
00000014,283,1,1441205260863,1441205261491,900,385,0,0,0,2,1,1,21,0002-00-0002-18.png,0001-00-0000-65.png
00000014,284,0,1441205262601,1441205263146,929,418,0,0,0,2,3,1,23,0002-00-0003-32.png,0003-00-0009-16.png
00000014,285,1,1441205266222,1441205266681,415,436,0,0,0,1,2,1,12,0001-00-0004-04.png,0002-00-0007-04.png
00000014,286,0,1441205267661,1441205268207,390,503,0,0,0,3,2,1,32,0003-00-0000-93.png,0002-00-0006-49.png
00000014,287,1,1441205271251,1441205271775,197,488,0,0,0,4,5,1,45,0004-00-0008-80.png,0005-00-0003-90.png
00000014,288,0,1441205272806,1441205273329,901,514,0,0,0,3,4,1,34,0003-00-0003-69.png,0004-00-0003-54.png
00000014,289,1,1441205276429,1441205276901,313,395,0,0,0,1,2,1,12,0001-00-0007-77.png,0002-00-0005-80.png
00000014,290,0,1441205277949,1441205278503,888,400,0,0,0,3,4,1,34,0003-00-0003-25.png,0004-00-0009-77.png
00000014,291,1,1441205283376,1441205283883,920,443,0,0,0,2,1,1,21,0002-00-0004-32.png,0001-00-0004-98.png
00000014,292,1,1441205284845,1441205285404,925,411,0,0,0,3,2,1,32,0003-00-0004-20.png,0002-00-0001-43.png
00000014,293,1,1441205286479,1441205286991,397,427,0,0,0,4,5,1,45,0004-00-0000-79.png,0005-00-0009-63.png
00000014,294,1,1441205288177,1441205288715,882,488,0,0,0,4,3,1,43,0004-00-0008-48.png,0003-00-0002-91.png
00000014,295,1,1441205289805,1441205290339,927,413,0,0,0,5,4,1,54,0005-00-0002-81.png,0004-00-0007-23.png
00000014,296,0,1441205291421,1441205291991,902,410,0,0,0,2,3,1,23,0002-00-0007-05.png,0003-00-0007-38.png
00000014,297,0,1441205295371,1441205295913,345,436,0,0,0,3,2,1,32,0003-00-0007-58.png,0002-00-0000-47.png
00000014,298,1,1441205299025,1441205299509,945,415,0,0,0,4,3,1,43,0004-00-0009-57.png,0003-00-0001-15.png
00000014,299,0,1441205300489,1441205301032,906,392,0,0,0,3,4,1,34,0003-00-0004-09.png,0004-00-0005-04.png
00000014,300,0,1441205304359,1441205304896,923,392,0,0,0,1,2,1,12,0001-00-0006-02.png,0002-00-0004-26.png
00000014,301,0,1441205308052,1441205308619,911,394,0,0,0,2,3,1,23,0002-00-0003-34.png,0003-00-0001-05.png
00000014,302,0,1441205311726,1441205311738,504,436,0,0,0,2,1,1,21,0002-00-0008-12.png,0001-00-0009-09.png
00000014,303,1,1441205314899,1441205315362,903,391,0,0,0,5,4,1,54,0005-00-0005-66.png,0004-00-0004-44.png
00000014,304,0,1441205316381,1441205316904,915,397,0,0,0,4,5,1,45,0004-00-0002-21.png,0005-00-0004-97.png
00000014,305,1,1441205320858,1441205321396,927,468,0,0,0,4,3,1,43,0004-00-0005-02.png,0003-00-0004-59.png
00000014,306,1,1441205322381,1441205322860,333,418,0,0,0,2,3,1,23,0002-00-0009-90.png,0003-00-0003-79.png
00000014,307,1,1441205323882,1441205324421,905,392,0,0,0,3,2,1,32,0003-00-0008-34.png,0002-00-0001-21.png
00000014,308,1,1441205325472,1441205326018,901,384,0,0,0,5,4,1,54,0005-00-0001-86.png,0004-00-0006-33.png
00000014,309,0,1441205327090,1441205327650,904,403,0,0,0,3,4,1,34,0003-00-0003-30.png,0004-00-0007-38.png
00000014,310,1,1441205330920,1441205331445,364,513,0,0,0,4,5,1,45,0004-00-0006-70.png,0005-00-0008-58.png
00000014,311,0,1441205332439,1441205332940,924,404,0,0,0,1,2,1,12,0001-00-0006-95.png,0002-00-0002-44.png
00000014,312,0,1441205335955,1441205335967,489,448,0,0,0,2,1,1,21,0002-00-0000-58.png,0001-00-0000-06.png
00000014,313,1,1441205339047,1441205339535,925,396,0,0,0,4,3,1,43,0004-00-0000-89.png,0003-00-0003-07.png
00000014,314,0,1441205340547,1441205341052,372,428,0,0,0,2,1,1,21,0002-00-0002-88.png,0001-00-0003-39.png
00000014,315,1,1441205344216,1441205344656,414,436,0,0,0,4,5,1,45,0004-00-0001-64.png,0005-00-0009-84.png
00000014,316,0,1441205345667,1441205346198,903,416,0,0,0,3,4,1,34,0003-00-0009-34.png,0004-00-0002-05.png
00000014,317,0,1441205349165,1441205349189,471,469,0,0,0,3,2,1,32,0003-00-0002-75.png,0002-00-0007-84.png
00000014,318,1,1441205352335,1441205352790,326,392,0,0,0,1,2,1,12,0001-00-0009-94.png,0002-00-0003-85.png
00000014,319,1,1441205353705,1441205353721,472,442,0,0,0,2,3,1,23,0002-00-0000-59.png,0003-00-0008-64.png
00000014,320,1,1441205355077,1441205355663,888,373,0,0,0,5,4,1,54,0005-00-0000-49.png,0004-00-0006-22.png
00000014,321,0,1441205356737,1441205357310,885,483,0,0,0,1,2,1,12,0001-00-0004-05.png,0002-00-0006-18.png
00000014,322,1,1441205360633,1441205361125,363,419,0,0,0,3,4,1,34,0003-00-0001-84.png,0004-00-0007-15.png
00000014,323,1,1441205362269,1441205362779,904,427,0,0,0,3,2,1,32,0003-00-0009-51.png,0002-00-0000-15.png
00000014,324,1,1441205363783,1441205364312,871,394,0,0,0,2,1,1,21,0002-00-0002-88.png,0001-00-0004-50.png
00000014,325,1,1441205365432,1441205365907,350,410,0,0,0,2,3,1,23,0002-00-0004-93.png,0003-00-0002-87.png
00000014,326,1,1441205367081,1441205367652,878,493,0,0,0,5,4,1,54,0005-00-0006-37.png,0004-00-0002-53.png
00000014,327,0,1441205368673,1441205369290,874,463,0,0,0,4,5,1,45,0004-00-0003-44.png,0005-00-0005-66.png
00000014,328,0,1441205372400,1441205372420,504,450,0,0,0,4,3,1,43,0004-00-0006-06.png,0003-00-0000-51.png
00000014,329,1,1441205375451,1441205375479,464,478,0,0,0,1,2,1,12,0001-00-0004-81.png,0002-00-0007-57.png
00000014,330,0,1441205376481,1441205376985,926,409,0,0,0,3,4,1,34,0003-00-0004-29.png,0004-00-0007-74.png
00000014,331,1,1441205379964,1441205379968,504,423,0,0,0,2,3,1,23,0002-00-0008-30.png,0003-00-0003-62.png
00000014,332,1,1441205380986,1441205381520,927,382,0,0,0,4,3,1,43,0004-00-0004-34.png,0003-00-0007-10.png
00000014,333,1,1441205382537,1441205383053,349,424,0,0,0,4,5,1,45,0004-00-0000-75.png,0005-00-0006-22.png
00000014,334,1,1441205384108,1441205384632,873,510,0,0,0,3,2,1,32,0003-00-0003-95.png,0002-00-0008-14.png
00000014,335,1,1441205385758,1441205386291,954,413,0,0,0,2,1,1,21,0002-00-0001-36.png,0001-00-0004-26.png
00000014,336,1,1441205387388,1441205387910,900,410,0,0,0,5,4,1,54,0005-00-0009-23.png,0004-00-0009-71.png
00000014,337,0,1441205389027,1441205389549,911,425,0,0,0,4,5,1,45,0004-00-0005-03.png,0005-00-0007-06.png
00000014,338,1,1441205394455,1441205394926,900,520,0,0,0,4,3,1,43,0004-00-0004-67.png,0003-00-0002-48.png
00000014,339,0,1441205395874,1441205396425,884,513,0,0,0,2,3,1,23,0002-00-0003-24.png,0003-00-0005-57.png
00000014,340,1,1441205399614,1441205400098,902,410,0,0,0,3,2,1,32,0003-00-0008-64.png,0002-00-0005-00.png
00000014,341,1,1441205401032,1441205401052,478,410,0,0,0,3,4,1,34,0003-00-0001-32.png,0004-00-0007-27.png
00000014,342,1,1441205402236,1441205402730,906,391,0,0,0,5,4,1,54,0005-00-0006-37.png,0004-00-0001-80.png
00000014,343,0,1441205403732,1441205404280,427,518,0,0,0,2,1,1,21,0002-00-0005-81.png,0001-00-0001-32.png
00000014,344,0,1441205407729,1441205408268,874,533,0,0,0,1,2,1,12,0001-00-0007-01.png,0002-00-0008-59.png
00000014,345,1,1441205411126,1441205411625,870,393,0,0,0,3,2,1,32,0003-00-0000-39.png,0002-00-0002-88.png
00000014,346,1,1441205412580,1441205413144,928,410,0,0,0,5,4,1,54,0005-00-0009-78.png,0004-00-0009-15.png
00000014,347,1,1441205414151,1441205414666,908,404,0,0,0,4,3,1,43,0004-00-0004-44.png,0003-00-0008-35.png
00000014,348,0,1441205415650,1441205415682,504,448,0,0,0,2,1,1,21,0002-00-0005-58.png,0001-00-0003-37.png
00000014,349,0,1441205419158,1441205419800,876,358,0,0,0,2,3,1,23,0002-00-0004-81.png,0003-00-0001-04.png
00000014,350,0,1441205423940,1441205424462,886,425,0,0,0,1,2,1,12,0001-00-0009-19.png,0002-00-0007-12.png
00000014,351,1,1441205427546,1441205427550,504,436,0,0,0,3,4,1,34,0003-00-0001-14.png,0004-00-0003-06.png
00000014,352,1,1441205428500,1441205429045,412,497,0,0,0,4,5,1,45,0004-00-0009-26.png,0005-00-0007-75.png
00000014,353,0,1441205429982,1441205429986,474,446,0,0,0,2,1,1,21,0002-00-0004-41.png,0001-00-0000-88.png
00000014,354,1,1441205433078,1441205433549,302,408,0,0,0,1,2,1,12,0001-00-0003-66.png,0002-00-0003-96.png
00000014,355,1,1441205434474,1441205435001,911,399,0,0,0,5,4,1,54,0005-00-0009-44.png,0004-00-0002-09.png
00000014,356,0,1441205436005,1441205436519,411,508,0,0,0,4,3,1,43,0004-00-0008-09.png,0003-00-0001-34.png
00000014,357,1,1441205439371,1441205439897,305,373,0,0,0,2,3,1,23,0002-00-0007-13.png,0003-00-0002-40.png
00000014,358,0,1441205440854,1441205441384,927,398,0,0,0,4,5,1,45,0004-00-0003-76.png,0005-00-0003-23.png
00000014,359,1,1441205444533,1441205444993,927,398,0,0,0,3,2,1,32,0003-00-0009-87.png,0002-00-0009-00.png
00000014,360,1,1441205446016,1441205446491,360,427,0,0,0,3,4,1,34,0003-00-0001-35.png,0004-00-0004-85.png
00000014,361,1,1441205447680,1441205448214,905,428,0,0,0,3,2,1,32,0003-00-0007-74.png,0002-00-0002-70.png
00000014,362,0,1441205449269,1441205449744,874,501,0,0,0,3,4,1,34,0003-00-0001-15.png,0004-00-0006-19.png
00000014,363,0,1441205452758,1441205452794,471,479,0,0,0,5,4,1,54,0005-00-0009-52.png,0004-00-0002-84.png
00000014,364,0,1441205455919,1441205456411,906,425,0,0,0,1,2,1,12,0001-00-0006-24.png,0002-00-0003-50.png
00000014,365,0,1441205459833,1441205460312,343,409,0,0,0,4,3,1,43,0004-00-0001-14.png,0003-00-0007-30.png
00000014,366,1,1441205463448,1441205463974,364,503,0,0,0,2,3,1,23,0002-00-0006-62.png,0003-00-0003-95.png
00000014,367,0,1441205464889,1441205465456,930,414,0,0,0,4,5,1,45,0004-00-0009-60.png,0005-00-0004-51.png
00000014,368,1,1441205470689,1441205471194,919,415,0,0,0,2,1,1,21,0002-00-0007-18.png,0001-00-0005-25.png
00000014,369,1,1441205472133,1441205472648,899,517,0,0,0,2,1,1,21,0002-00-0006-15.png,0001-00-0005-92.png
00000014,370,0,1441205473619,1441205474133,401,436,0,0,0,5,4,1,54,0005-00-0000-71.png,0004-00-0004-17.png
00000014,371,0,1441205479755,1441205480202,401,506,0,0,0,4,3,1,43,0004-00-0008-98.png,0003-00-0003-58.png
00000014,372,0,1441205483158,1441205483178,464,395,0,0,0,3,2,1,32,0003-00-0007-45.png,0002-00-0004-69.png
00000014,373,1,1441205491090,1441205491559,436,482,0,0,0,4,5,1,45,0004-00-0009-73.png,0005-00-0002-19.png
00000014,374,0,1441205492516,1441205493035,932,417,0,0,0,2,3,1,23,0002-00-0007-91.png,0003-00-0005-10.png
00000014,375,1,1441205495984,1441205496399,342,419,0,0,0,1,2,1,12,0001-00-0005-27.png,0002-00-0000-12.png
00000014,376,1,1441205497353,1441205497940,401,476,0,0,0,3,4,1,34,0003-00-0006-89.png,0004-00-0004-74.png
00000014,377,1,1441205498835,1441205499402,387,393,0,0,0,4,5,1,45,0004-00-0001-97.png,0005-00-0000-65.png
00000014,378,1,1441205500352,1441205500829,370,393,0,0,0,1,2,1,12,0001-00-0009-94.png,0002-00-0005-06.png
00000014,379,0,1441205501876,1441205502865,345,398,0,0,0,4,3,1,43,0004-00-0003-16.png,0003-00-0005-64.png
00000014,380,1,1441205505729,1441205506172,398,485,0,0,0,2,3,1,23,0002-00-0006-53.png,0003-00-0006-39.png
00000014,381,0,1441205507144,1441205507168,499,472,0,0,0,5,4,1,54,0005-00-0009-42.png,0004-00-0000-71.png
00000014,382,1,1441205510173,1441205510233,517,480,0,0,0,3,4,1,34,0003-00-0006-79.png,0004-00-0000-40.png
00000014,383,1,1441205511178,1441205511702,904,428,0,0,0,2,1,1,21,0002-00-0008-13.png,0001-00-0004-21.png
00000014,384,1,1441205512666,1441205513246,873,458,0,0,0,3,2,1,32,0003-00-0003-32.png,0002-00-0009-83.png
00000014,385,1,1441205514259,1441205514738,427,384,0,0,0,4,5,1,45,0004-00-0005-61.png,0005-00-0008-42.png
00000014,386,0,1441205515729,1441205516300,878,468,0,0,0,2,3,1,23,0002-00-0003-85.png,0003-00-0006-70.png
00000014,387,0,1441205519147,1441205519167,504,449,0,0,0,4,3,1,43,0004-00-0004-39.png,0003-00-0002-47.png
00000014,388,0,1441205522131,1441205522147,453,423,0,0,0,5,4,1,54,0005-00-0002-73.png,0004-00-0003-87.png
00000014,389,0,1441205525090,1441205525150,463,488,0,0,0,2,1,1,21,0002-00-0003-25.png,0001-00-0009-34.png
00000014,390,1,1441205528610,1441205528634,445,481,0,0,0,1,2,1,12,0001-00-0005-11.png,0002-00-0003-34.png
00000014,391,1,1441205529620,1441205530119,350,404,0,0,0,3,4,1,34,0003-00-0009-03.png,0004-00-0009-89.png
00000014,392,1,1441205531064,1441205531635,888,516,0,0,0,3,2,1,32,0003-00-0009-30.png,0002-00-0007-28.png
00000014,393,1,1441205532645,1441205533163,920,397,0,0,0,3,2,1,32,0003-00-0000-83.png,0002-00-0004-94.png
00000014,394,0,1441205534153,1441205534698,879,402,0,0,0,1,2,1,12,0001-00-0008-26.png,0002-00-0006-34.png
00000014,395,1,1441205538252,1441205538758,346,411,0,0,0,4,5,1,45,0004-00-0002-64.png,0005-00-0004-88.png
00000014,396,0,1441205539662,1441205540211,430,375,0,0,0,2,1,1,21,0002-00-0009-66.png,0001-00-0000-47.png
00000014,397,1,1441205558177,1441205558605,324,357,0,0,0,3,4,1,34,0003-00-0009-51.png,0004-00-0004-13.png
00000014,398,1,1441205559739,1441205560223,953,409,0,0,0,5,4,1,54,0005-00-0007-42.png,0004-00-0007-73.png
00000014,399,1,1441205561721,1441205562193,401,424,0,0,0,2,3,1,23,0002-00-0000-75.png,0003-00-0009-53.png
00000014,400,1,1441205563198,1441205563729,886,379,0,0,0,4,3,1,43,0004-00-0009-70.png,0003-00-0006-77.png
00000014,401,1,1441205564778,1441205565356,905,401,0,0,0,5,4,1,54,0005-00-0008-50.png,0004-00-0000-68.png
00000014,402,1,1441205566417,1441205566971,928,415,0,0,0,4,3,1,43,0004-00-0005-06.png,0003-00-0007-99.png
00000014,403,0,1441205567947,1441205568472,892,411,0,0,0,4,5,1,45,0004-00-0000-45.png,0005-00-0007-01.png
00000014,404,0,1441205571793,1441205572271,929,402,0,0,0,2,3,1,23,0002-00-0004-39.png,0003-00-0006-57.png
00000014,405,1,1441205575620,1441205576133,394,504,0,0,0,3,4,1,34,0003-00-0009-21.png,0004-00-0007-81.png
00000014,406,1,1441205577142,1441205577754,905,375,0,0,0,2,1,1,21,0002-00-0009-94.png,0001-00-0006-16.png
00000014,407,1,1441205578699,1441205578755,504,510,0,0,0,1,2,1,12,0001-00-0005-65.png,0002-00-0005-68.png
00000014,408,1,1441205579793,1441205580359,870,497,0,0,0,3,2,1,32,0003-00-0006-40.png,0002-00-0006-45.png
00000014,409,1,1441205581682,1441205582156,903,418,0,0,0,3,2,1,32,0003-00-0005-74.png,0002-00-0004-53.png
00000014,410,1,1441205583023,1441205583585,904,428,0,0,0,2,1,1,21,0002-00-0001-00.png,0001-00-0004-66.png
00000014,411,0,1441205584605,1441205585191,901,384,0,0,0,3,4,1,34,0003-00-0005-49.png,0004-00-0009-02.png
00000014,412,1,1441205589564,1441205590013,350,397,0,0,0,2,3,1,23,0002-00-0006-32.png,0003-00-0005-63.png
00000014,413,1,1441205591337,1441205591860,908,421,0,0,0,4,3,1,43,0004-00-0007-40.png,0003-00-0007-32.png
00000014,414,0,1441205592843,1441205593356,427,396,0,0,0,5,4,1,54,0005-00-0009-59.png,0004-00-0002-69.png
00000014,415,1,1441205596255,1441205596716,395,404,0,0,0,4,5,1,45,0004-00-0001-68.png,0005-00-0004-05.png
00000014,416,1,1441205597632,1441205598165,342,421,0,0,0,1,2,1,12,0001-00-0008-28.png,0002-00-0001-03.png
00000014,417,0,1441205599204,1441205599822,930,400,0,0,0,1,2,1,12,0001-00-0001-77.png,0002-00-0005-39.png
00000014,418,1,1441205602795,1441205602799,509,436,0,0,0,4,5,1,45,0004-00-0002-85.png,0005-00-0006-76.png
00000014,419,1,1441205603745,1441205604215,902,410,0,0,0,4,3,1,43,0004-00-0000-57.png,0003-00-0008-77.png
00000014,420,0,1441205605256,1441205605743,427,384,0,0,0,3,2,1,32,0003-00-0008-45.png,0002-00-0007-87.png
00000014,421,0,1441205609370,1441205609854,411,397,0,0,0,5,4,1,54,0005-00-0009-17.png,0004-00-0004-07.png
00000014,422,0,1441205612919,1441205612927,502,443,0,0,0,2,1,1,21,0002-00-0003-20.png,0001-00-0001-50.png
00000014,423,0,1441205617937,1441205618433,900,435,0,0,0,3,4,1,34,0003-00-0006-53.png,0004-00-0002-02.png
00000014,424,0,1441205623083,1441205623655,929,393,0,0,0,2,3,1,23,0002-00-0008-46.png,0003-00-0007-66.png
00000014,425,1,1441205626555,1441205626559,473,398,0,0,0,1,2,1,12,0001-00-0006-47.png,0002-00-0001-01.png
00000014,426,1,1441205627528,1441205628023,882,455,0,0,0,3,2,1,32,0003-00-0005-83.png,0002-00-0001-76.png
00000014,427,0,1441205629049,1441205629564,928,389,0,0,0,3,4,1,34,0003-00-0005-67.png,0004-00-0006-01.png
00000014,428,0,1441205633123,1441205633666,340,414,0,0,0,4,3,1,43,0004-00-0003-41.png,0003-00-0003-16.png
00000014,429,0,1441205636688,1441205637252,900,386,0,0,0,2,3,1,23,0002-00-0003-04.png,0003-00-0003-12.png
00000014,430,0,1441205640336,1441205640797,425,427,0,0,0,5,4,1,54,0005-00-0007-89.png,0004-00-0000-80.png
00000014,431,1,1441205644174,1441205644640,876,443,0,0,0,2,1,1,21,0002-00-0006-07.png,0001-00-0000-50.png
00000014,432,1,1441205645544,1441205646058,358,398,0,0,0,4,5,1,45,0004-00-0009-78.png,0005-00-0002-50.png
00000014,433,0,1441205647155,1441205647808,864,399,0,0,0,4,5,1,45,0004-00-0002-05.png,0005-00-0000-38.png
00000014,434,0,1441205650713,1441205651277,905,401,0,0,0,1,2,1,12,0001-00-0004-96.png,0002-00-0009-53.png
00000014,435,0,1441205654358,1441205654837,262,462,0,0,0,2,1,1,21,0002-00-0003-56.png,0001-00-0000-37.png
00000014,436,0,1441205657967,1441205658393,386,397,0,0,0,4,3,1,43,0004-00-0001-90.png,0003-00-0007-23.png
00000014,437,1,1441205661626,1441205662170,902,397,0,0,0,5,4,1,54,0005-00-0002-52.png,0004-00-0006-69.png
00000014,438,0,1441205663096,1441205663680,874,481,0,0,0,2,3,1,23,0002-00-0009-74.png,0003-00-0007-27.png
00000014,439,1,1441205668467,1441205669027,929,402,0,0,0,3,2,1,32,0003-00-0003-73.png,0002-00-0004-48.png
00000014,440,0,1441205670034,1441205670536,905,479,0,0,0,3,4,1,34,0003-00-0002-90.png,0004-00-0006-29.png
00000014,441,1,1441205673660,1441205674105,388,410,0,0,0,4,5,1,45,0004-00-0008-24.png,0005-00-0009-74.png
00000014,442,0,1441205675011,1441205675646,899,457,0,0,0,2,3,1,23,0002-00-0006-80.png,0003-00-0009-03.png
00000014,443,0,1441205678496,1441205679088,926,463,0,0,0,3,4,1,34,0003-00-0001-11.png,0004-00-0001-43.png
00000014,444,1,1441205692581,1441205693119,979,408,0,0,0,4,3,1,43,0004-00-0006-61.png,0003-00-0002-59.png
00000014,445,1,1441205694152,1441205694634,935,411,0,0,0,3,2,1,32,0003-00-0003-91.png,0002-00-0000-31.png
00000014,446,0,1441205695614,1441205696212,927,408,0,0,0,1,2,1,12,0001-00-0003-74.png,0002-00-0000-38.png
00000014,447,1,1441205700014,1441205700540,908,382,0,0,0,2,1,1,21,0002-00-0002-09.png,0001-00-0008-26.png
00000014,448,1,1441205701686,1441205702162,951,384,0,0,0,5,4,1,54,0005-00-0001-86.png,0004-00-0004-90.png
00000014,449,1,1441205703207,1441205703773,882,526,0,0,0,3,2,1,32,0003-00-0005-13.png,0002-00-0008-55.png
00000014,450,0,1441205704706,1441205705257,938,425,0,0,0,2,3,1,23,0002-00-0009-99.png,0003-00-0004-41.png
00000014,451,1,1441205708535,1441205708990,363,398,0,0,0,1,2,1,12,0001-00-0002-46.png,0002-00-0007-47.png
00000014,452,0,1441205710015,1441205710554,927,436,0,0,0,3,4,1,34,0003-00-0007-24.png,0004-00-0003-70.png
00000014,453,0,1441205713387,1441205713886,325,386,0,0,0,5,4,1,54,0005-00-0003-12.png,0004-00-0008-50.png
00000014,454,1,1441205716770,1441205717218,901,424,0,0,0,2,1,1,21,0002-00-0007-24.png,0001-00-0003-21.png
00000014,455,1,1441205718174,1441205718707,858,383,0,0,0,4,3,1,43,0004-00-0000-62.png,0003-00-0009-27.png
00000014,456,1,1441205719654,1441205720178,409,402,0,0,0,4,5,1,45,0004-00-0006-19.png,0005-00-0000-76.png
00000014,457,1,1441205721235,1441205721758,896,472,0,0,0,3,2,1,32,0003-00-0002-62.png,0002-00-0006-96.png
00000014,458,1,1441205722786,1441205723328,901,424,0,0,0,5,4,1,54,0005-00-0005-92.png,0004-00-0002-72.png
00000014,459,0,1441205724324,1441205724840,880,428,0,0,0,4,5,1,45,0004-00-0002-96.png,0005-00-0009-91.png
00000014,460,0,1441205727993,1441205728502,426,414,0,0,0,2,1,1,21,0002-00-0003-42.png,0001-00-0007-03.png
00000014,461,1,1441205731957,1441205732479,376,384,0,0,0,3,4,1,34,0003-00-0007-88.png,0004-00-0004-36.png
00000014,462,0,1441205733437,1441205733984,876,503,0,0,0,2,3,1,23,0002-00-0000-26.png,0003-00-0006-47.png
00000014,463,1,1441205736924,1441205737472,929,391,0,0,0,4,3,1,43,0004-00-0004-53.png,0003-00-0001-11.png
00000014,464,1,1441205738377,1441205738905,410,496,0,0,0,1,2,1,12,0001-00-0009-93.png,0002-00-0002-32.png
00000014,465,1,1441205739878,1441205741453,933,383,0,0,0,2,1,1,21,0002-00-0007-15.png,0001-00-0008-91.png
00000014,466,1,1441205742476,1441205742988,864,501,0,0,0,3,2,1,32,0003-00-0009-92.png,0002-00-0009-10.png
00000014,467,0,1441205744008,1441205744535,905,419,0,0,0,4,5,1,45,0004-00-0002-28.png,0005-00-0005-36.png
00000014,468,1,1441205748356,1441205748847,912,432,0,0,0,5,4,1,54,0005-00-0002-82.png,0004-00-0001-69.png
00000014,469,0,1441205749845,1441205750391,893,483,0,0,0,1,2,1,12,0001-00-0009-11.png,0002-00-0001-62.png
00000014,470,0,1441205753531,1441205754050,900,397,0,0,0,2,3,1,23,0002-00-0004-35.png,0003-00-0003-77.png
00000014,471,0,1441205757091,1441205757660,913,390,0,0,0,3,4,1,34,0003-00-0007-52.png,0004-00-0006-60.png
00000014,472,0,1441205760779,1441205761271,392,417,0,0,0,4,3,1,43,0004-00-0007-91.png,0003-00-0003-20.png
00000014,473,0,1441205764634,1441205765138,898,443,0,0,0,3,4,1,34,0003-00-0001-29.png,0004-00-0009-31.png
00000014,474,1,1441205768261,1441205768305,513,519,0,0,0,2,3,1,23,0002-00-0002-00.png,0003-00-0002-94.png
00000014,475,1,1441205769336,1441205769830,910,391,0,0,0,4,3,1,43,0004-00-0001-21.png,0003-00-0008-90.png
00000014,476,1,1441205771055,1441205771507,862,358,0,0,0,2,1,1,21,0002-00-0003-23.png,0001-00-0008-00.png
00000014,477,0,1441205772555,1441205773116,901,398,0,0,0,1,2,1,12,0001-00-0004-65.png,0002-00-0007-69.png
00000014,478,1,1441205776293,1441205776748,885,525,0,0,0,3,2,1,32,0003-00-0001-73.png,0002-00-0002-06.png
00000014,479,1,1441205777712,1441205778167,881,500,0,0,0,5,4,1,54,0005-00-0005-51.png,0004-00-0002-01.png
00000014,480,0,1441205779204,1441205779730,891,441,0,0,0,4,5,1,45,0004-00-0007-19.png,0005-00-0006-34.png
00000014,481,0,1441205783218,1441205783694,376,436,0,0,0,4,3,1,43,0004-00-0006-39.png,0003-00-0006-31.png
00000014,482,0,1441205787105,1441205787664,927,410,0,0,0,1,2,1,12,0001-00-0003-05.png,0002-00-0005-18.png
00000014,483,1,1441205790500,1441205791098,316,425,0,0,0,3,4,1,34,0003-00-0009-01.png,0004-00-0002-75.png
00000014,484,1,1441205792083,1441205792614,952,409,0,0,0,2,1,1,21,0002-00-0002-82.png,0001-00-0003-40.png
00000014,485,1,1441205793604,1441205794118,311,410,0,0,0,2,3,1,23,0002-00-0003-21.png,0003-00-0005-38.png
00000014,486,0,1441205795114,1441205795697,888,432,0,0,0,4,5,1,45,0004-00-0000-91.png,0005-00-0000-57.png
00000014,487,0,1441205799168,1441205799188,517,475,0,0,0,5,4,1,54,0005-00-0004-09.png,0004-00-0002-80.png
00000014,488,0,1441205802130,1441205802178,401,520,0,0,0,3,2,1,32,0003-00-0000-28.png,0002-00-0007-37.png
00000014,489,1,1441205805112,1441205805148,401,449,0,0,0,4,5,1,45,0004-00-0006-36.png,0005-00-0002-59.png
00000014,490,1,1441205806115,1441205806629,924,408,0,0,0,3,2,1,32,0003-00-0005-19.png,0002-00-0002-46.png
00000014,491,1,1441205807677,1441205808210,875,502,0,0,0,4,3,1,43,0004-00-0004-87.png,0003-00-0002-56.png
00000014,492,0,1441205809226,1441205809747,983,392,0,0,0,3,4,1,34,0003-00-0007-58.png,0004-00-0007-83.png
00000014,493,1,1441205812783,1441205813368,921,472,0,0,0,5,4,1,54,0005-00-0002-88.png,0004-00-0009-76.png
00000014,494,0,1441205814526,1441205815055,376,358,0,0,0,2,1,1,21,0002-00-0005-52.png,0001-00-0005-42.png
00000014,495,1,1441205818330,1441205818855,371,391,0,0,0,1,2,1,12,0001-00-0001-71.png,0002-00-0003-75.png
00000014,496,1,1441205819891,1441205820423,376,384,0,0,0,2,3,1,23,0002-00-0006-84.png,0003-00-0002-16.png
00000014,497,0,1441205821491,1441205822005,893,410,0,0,0,4,5,1,45,0004-00-0005-45.png,0005-00-0002-35.png
00000014,498,0,1441205825018,1441205825560,879,416,0,0,0,1,2,1,12,0001-00-0008-64.png,0002-00-0002-66.png
00000014,499,0,1441205828566,1441205829051,427,397,0,0,0,3,2,1,32,0003-00-0007-08.png,0002-00-0009-84.png
00000014,500,1,1441205832023,1441205832567,366,480,0,0,0,3,4,1,34,0003-00-0002-61.png,0004-00-0009-56.png
00000014,501,1,1441205833555,1441205834070,873,509,0,0,0,2,1,1,21,0002-00-0007-09.png,0001-00-0002-61.png
00000014,502,1,1441205835075,1441205835616,374,398,0,0,0,2,3,1,23,0002-00-0003-13.png,0003-00-0009-23.png
00000014,503,1,1441205836657,1441205837210,875,528,0,0,0,4,3,1,43,0004-00-0006-50.png,0003-00-0002-84.png
00000014,504,1,1441205838247,1441205838806,878,416,0,0,0,5,4,1,54,0005-00-0003-05.png,0004-00-0003-84.png
00000014,505,1,1441205839857,1441205840369,905,412,0,0,0,5,4,1,54,0005-00-0007-87.png,0004-00-0002-54.png
00000014,506,0,1441205841395,1441205841920,895,420,0,0,0,3,4,1,34,0003-00-0005-79.png,0004-00-0002-29.png
00000014,507,1,1441205844863,1441205844875,504,436,0,0,0,1,2,1,12,0001-00-0009-60.png,0002-00-0006-44.png
00000014,508,1,1441205845853,1441205846372,893,510,0,0,0,4,3,1,43,0004-00-0008-55.png,0003-00-0000-77.png
00000014,509,0,1441205847375,1441205847857,388,401,0,0,0,2,1,1,21,0002-00-0000-71.png,0001-00-0009-11.png
00000014,510,0,1441205850796,1441205850832,515,474,0,0,0,3,2,1,32,0003-00-0009-16.png,0002-00-0008-35.png
00000014,511,0,1441205853898,1441205854449,865,484,0,0,0,4,5,1,45,0004-00-0009-12.png,0005-00-0007-03.png
00000014,512,1,1441205857277,1441205857305,491,447,0,0,0,2,3,1,23,0002-00-0001-32.png,0003-00-0009-30.png
00000014,513,0,1441205858323,1441205858866,870,497,0,0,0,2,3,1,23,0002-00-0004-47.png,0003-00-0008-05.png
00000014,514,0,1441205861818,1441205861838,499,442,0,0,0,2,1,1,21,0002-00-0009-48.png,0001-00-0003-12.png
00000014,515,1,1441205865170,1441205866036,339,365,0,0,0,4,5,1,45,0004-00-0006-21.png,0005-00-0005-34.png
00000014,516,1,1441205867198,1441205867729,880,427,0,0,0,4,3,1,43,0004-00-0000-33.png,0003-00-0007-75.png
00000014,517,0,1441205868775,1441205869340,868,408,0,0,0,1,2,1,12,0001-00-0006-19.png,0002-00-0007-37.png
00000014,518,0,1441205872183,1441205872219,433,473,0,0,0,5,4,1,54,0005-00-0003-24.png,0004-00-0005-14.png
00000014,519,1,1441205875055,1441205875541,873,507,0,0,0,3,2,1,32,0003-00-0004-12.png,0002-00-0007-33.png
00000014,520,0,1441205876498,1441205877008,915,423,0,0,0,3,4,1,34,0003-00-0005-85.png,0004-00-0005-63.png
00000014,521,1,1441205880021,1441205880033,523,469,0,0,0,4,5,1,45,0004-00-0005-03.png,0005-00-0005-34.png
00000014,522,1,1441205880950,1441205881485,394,506,0,0,0,3,4,1,34,0003-00-0004-40.png,0004-00-0004-94.png
00000014,523,1,1441205882499,1441205883023,866,482,0,0,0,3,2,1,32,0003-00-0003-41.png,0002-00-0007-27.png
00000014,524,1,1441205884142,1441205884620,876,503,0,0,0,2,1,1,21,0002-00-0009-56.png,0001-00-0008-78.png
00000014,525,0,1441205885671,1441205886196,899,405,0,0,0,2,3,1,23,0002-00-0002-27.png,0003-00-0002-85.png
00000014,526,0,1441205889117,1441205889151,494,425,0,0,0,4,3,1,43,0004-00-0007-11.png,0003-00-0006-76.png
00000014,527,0,1441205892108,1441205892145,418,455,0,0,0,5,4,1,54,0005-00-0005-71.png,0004-00-0001-93.png
00000014,528,1,1441205895070,1441205895551,350,410,0,0,0,1,2,1,12,0001-00-0006-89.png,0002-00-0009-61.png
00000014,529,0,1441205896442,1441205896972,359,397,0,0,0,3,2,1,32,0003-00-0009-09.png,0002-00-0002-48.png
00000014,530,0,1441205900306,1441205900826,913,410,0,0,0,3,4,1,34,0003-00-0000-43.png,0004-00-0001-18.png
00000014,531,1,1441205904713,1441205905198,305,401,0,0,0,2,3,1,23,0002-00-0000-32.png,0003-00-0005-22.png
00000014,532,1,1441205906165,1441205906657,325,398,0,0,0,1,2,1,12,0001-00-0008-65.png,0002-00-0007-82.png
00000014,533,0,1441205907773,1441205908283,376,462,0,0,0,5,4,1,54,0005-00-0006-80.png,0004-00-0008-78.png
00000014,534,0,1441205911550,1441205913388,459,484,0,0,0,4,3,1,43,0004-00-0001-71.png,0003-00-0007-41.png
00000014,535,0,1441205916560,1441205916568,484,427,0,0,0,2,1,1,21,0002-00-0009-83.png,0001-00-0005-90.png
00000014,536,1,1441205919621,1441205920232,312,371,0,0,0,4,5,1,45,0004-00-0005-13.png,0005-00-0005-77.png
00000014,537,0,1441205921229,1441205921773,347,403,0,0,0,3,2,1,32,0003-00-0007-64.png,0002-00-0009-89.png
00000014,538,1,1441205924923,1441205925390,393,403,0,0,0,2,3,1,23,0002-00-0007-38.png,0003-00-0006-16.png
00000014,539,0,1441205926319,1441205926872,887,398,0,0,0,4,5,1,45,0004-00-0000-14.png,0005-00-0002-28.png
00000014,540,1,1441205929860,1441205930421,323,410,0,0,0,3,4,1,34,0003-00-0007-76.png,0004-00-0003-37.png
00000014,541,0,1441205931388,1441205931404,478,465,0,0,0,2,1,1,21,0002-00-0007-90.png,0001-00-0007-56.png
00000014,542,0,1441205934245,1441205934672,334,411,0,0,0,4,3,1,43,0004-00-0001-35.png,0003-00-0007-16.png
00000014,543,1,1441205937992,1441205938396,414,436,0,0,0,1,2,1,12,0001-00-0001-19.png,0002-00-0001-13.png
00000014,544,0,1441205939277,1441205939827,424,403,0,0,0,5,4,1,54,0005-00-0007-35.png,0004-00-0002-09.png
00000014,545,1,1441205943044,1441205943515,328,399,0,0,0,1,2,1,12,0001-00-0004-99.png,0002-00-0000-36.png
00000014,546,1,1441205944465,1441205944987,375,416,0,0,0,3,4,1,34,0003-00-0006-01.png,0004-00-0008-13.png
00000014,547,0,1441205946080,1441205946536,376,384,0,0,0,4,3,1,43,0004-00-0003-74.png,0003-00-0004-09.png
00000014,548,1,1441205949652,1441205950174,882,517,0,0,0,3,2,1,32,0003-00-0001-14.png,0002-00-0007-50.png
00000014,549,0,1441205951103,1441205951583,331,436,0,0,0,2,1,1,21,0002-00-0003-63.png,0001-00-0007-12.png
00000014,550,1,1441205954698,1441205955275,337,372,0,0,0,2,3,1,23,0002-00-0004-86.png,0003-00-0001-72.png
00000014,551,0,1441205956201,1441205956728,900,437,0,0,0,4,5,1,45,0004-00-0008-95.png,0005-00-0002-71.png
00000014,552,1,1441205959748,1441205960390,887,398,0,0,0,5,4,1,54,0005-00-0006-28.png,0004-00-0004-85.png
00000014,553,1,1441205961358,1441205961888,882,491,0,0,0,3,2,1,32,0003-00-0001-52.png,0002-00-0004-30.png
00000014,554,0,1441205962866,1441205963422,898,410,0,0,0,4,5,1,45,0004-00-0006-94.png,0005-00-0008-31.png
00000014,555,1,1441205967653,1441205968162,386,542,0,0,0,1,2,1,12,0001-00-0006-17.png,0002-00-0002-75.png
00000014,556,0,1441205969171,1441205969727,874,502,0,0,0,2,3,1,23,0002-00-0007-71.png,0003-00-0003-12.png
00000014,557,0,1441205972769,1441205973274,343,421,0,0,0,2,1,1,21,0002-00-0001-81.png,0001-00-0003-71.png
00000014,558,0,1441205976325,1441205976333,486,437,0,0,0,4,3,1,43,0004-00-0001-57.png,0003-00-0003-56.png
00000014,559,0,1441205979743,1441205980290,927,397,0,0,0,3,4,1,34,0003-00-0001-19.png,0004-00-0007-86.png
00000014,560,1,1441205983312,1441205983839,904,402,0,0,0,5,4,1,54,0005-00-0003-52.png,0004-00-0009-54.png
00000014,561,1,1441205984881,1441205985463,395,432,0,0,0,4,5,1,45,0004-00-0006-30.png,0005-00-0006-81.png
00000014,562,0,1441205986442,1441205987004,878,390,0,0,0,1,2,1,12,0001-00-0006-43.png,0002-00-0003-35.png
00000014,563,1,1441205990118,1441205990644,926,419,0,0,0,3,2,1,32,0003-00-0005-25.png,0002-00-0003-16.png
00000014,564,1,1441205991529,1441205992084,360,388,0,0,0,3,4,1,34,0003-00-0000-50.png,0004-00-0000-80.png
00000014,565,1,1441205993120,1441205993642,348,448,0,0,0,2,3,1,23,0002-00-0000-24.png,0003-00-0007-93.png
00000014,566,0,1441205994717,1441205995232,416,502,0,0,0,4,3,1,43,0004-00-0000-42.png,0003-00-0008-96.png
00000014,567,1,1441205998268,1441205998841,903,439,0,0,0,5,4,1,54,0005-00-0001-67.png,0004-00-0005-36.png
00000014,568,0,1441205999808,1441205999845,503,508,0,0,0,2,1,1,21,0002-00-0009-95.png,0001-00-0002-04.png
00000014,569,1,1441206003248,1441206003769,401,514,0,0,0,4,5,1,45,0004-00-0005-94.png,0005-00-0006-53.png
00000014,570,1,1441206004696,1441206005249,889,423,0,0,0,5,4,1,54,0005-00-0000-27.png,0004-00-0009-00.png
00000014,571,0,1441206006267,1441206007390,862,395,0,0,0,2,3,1,23,0002-00-0009-13.png,0003-00-0001-07.png
00000014,572,1,1441206010271,1441206010303,522,411,0,0,0,3,4,1,34,0003-00-0004-21.png,0004-00-0003-50.png
00000014,573,1,1441206011307,1441206011795,399,385,0,0,0,1,2,1,12,0001-00-0001-94.png,0002-00-0002-86.png
00000014,574,1,1441206012734,1441206013279,887,424,0,0,0,4,3,1,43,0004-00-0006-88.png,0003-00-0001-41.png
00000014,575,1,1441206014323,1441206014812,870,550,0,0,0,3,2,1,32,0003-00-0007-02.png,0002-00-0009-63.png
00000014,576,1,1441206015887,1441206016425,879,401,0,0,0,2,1,1,21,0002-00-0002-81.png,0001-00-0006-82.png
00000014,577,1,1441206017495,1441206017989,325,423,0,0,0,4,5,1,45,0004-00-0000-63.png,0005-00-0002-28.png
00000014,578,1,1441206019197,1441206019698,874,431,0,0,0,5,4,1,54,0005-00-0004-08.png,0004-00-0009-05.png
00000014,579,1,1441206020818,1441206021349,390,491,0,0,0,2,3,1,23,0002-00-0006-17.png,0003-00-0006-53.png
00000014,580,1,1441206022556,1441206023018,389,514,0,0,0,1,2,1,12,0001-00-0003-86.png,0002-00-0008-16.png
00000014,581,0,1441206024205,1441206025147,339,417,0,0,0,3,2,1,32,0003-00-0001-66.png,0002-00-0009-50.png
00000014,582,0,1441206028177,1441206029097,383,420,0,0,0,4,3,1,43,0004-00-0008-03.png,0003-00-0008-14.png
00000014,583,0,1441206032549,1441206033014,862,358,0,0,0,3,4,1,34,0003-00-0009-13.png,0004-00-0004-36.png
00000014,584,0,1441206036665,1441206037127,401,397,0,0,0,2,1,1,21,0002-00-0007-68.png,0001-00-0007-29.png
00000014,585,1,1441206040232,1441206040707,350,424,0,0,0,3,4,1,34,0003-00-0004-03.png,0004-00-0000-00.png
00000014,586,1,1441206041665,1441206042137,385,419,0,0,0,2,3,1,23,0002-00-0001-57.png,0003-00-0000-67.png
00000014,587,1,1441206043206,1441206043731,362,403,0,0,0,4,5,1,45,0004-00-0000-57.png,0005-00-0004-68.png
00000014,588,1,1441206044775,1441206045297,880,427,0,0,0,2,1,1,21,0002-00-0004-35.png,0001-00-0004-00.png
00000014,589,1,1441206046336,1441206046858,376,410,0,0,0,1,2,1,12,0001-00-0008-26.png,0002-00-0003-93.png
00000014,590,1,1441206047967,1441206048476,876,436,0,0,0,3,2,1,32,0003-00-0002-29.png,0002-00-0002-44.png
00000014,591,1,1441206049563,1441206050117,875,397,0,0,0,5,4,1,54,0005-00-0002-00.png,0004-00-0008-28.png
00000014,592,0,1441206051204,1441206051773,376,423,0,0,0,4,3,1,43,0004-00-0002-79.png,0003-00-0006-18.png
00000014,593,1,1441206054759,1441206054780,519,464,0,0,0,3,4,1,34,0003-00-0008-13.png,0004-00-0000-82.png
00000014,594,1,1441206055737,1441206056282,344,421,0,0,0,2,3,1,23,0002-00-0009-24.png,0003-00-0000-25.png
00000014,595,1,1441206057366,1441206057891,876,424,0,0,0,4,3,1,43,0004-00-0001-06.png,0003-00-0008-61.png
00000014,596,0,1441206058926,1441206059552,880,401,0,0,0,1,2,1,12,0001-00-0009-11.png,0002-00-0003-11.png
00000014,597,0,1441206062702,1441206062729,516,502,0,0,0,3,2,1,32,0003-00-0000-44.png,0002-00-0001-30.png
00000014,598,0,1441206066946,1441206067516,376,423,0,0,0,2,1,1,21,0002-00-0004-19.png,0001-00-0000-27.png
00000014,599,1,1441206070614,1441206071131,911,399,0,0,0,5,4,1,54,0005-00-0007-60.png,0004-00-0007-14.png
00000014,600,0,1441206072103,1441206072612,880,401,0,0,0,4,5,1,45,0004-00-0001-23.png,0005-00-0008-92.png
00000014,601,0,1441206075907,1441206076455,901,397,0,0,0,4,5,1,45,0004-00-0006-68.png,0005-00-0005-21.png
00000014,602,0,1441206079309,1441206079337,512,428,0,0,0,5,4,1,54,0005-00-0002-08.png,0004-00-0002-27.png
00000014,603,0,1441206082397,1441206082917,878,364,0,0,0,1,2,1,12,0001-00-0005-29.png,0002-00-0000-52.png
00000014,604,1,1441206085997,1441206086021,472,426,0,0,0,2,3,1,23,0002-00-0007-37.png,0003-00-0000-03.png
00000014,605,1,1441206087013,1441206087583,903,402,0,0,0,4,3,1,43,0004-00-0002-27.png,0003-00-0005-94.png
00000014,606,1,1441206088559,1441206088584,478,446,0,0,0,3,4,1,34,0003-00-0000-32.png,0004-00-0004-91.png
00000014,607,0,1441206089805,1441206090408,325,383,0,0,0,3,2,1,32,0003-00-0009-03.png,0002-00-0004-08.png
00000014,608,0,1441206093280,1441206093311,511,460,0,0,0,2,1,1,21,0002-00-0001-63.png,0001-00-0004-55.png
00000014,609,0,1441206096365,1441206096881,412,423,0,0,0,5,4,1,54,0005-00-0007-65.png,0004-00-0002-42.png
00000014,610,0,1441206099974,1441206100505,927,383,0,0,0,3,4,1,34,0003-00-0003-50.png,0004-00-0002-41.png
00000014,611,1,1441206103536,1441206104052,363,397,0,0,0,1,2,1,12,0001-00-0006-64.png,0002-00-0008-35.png
00000014,612,1,1441206104962,1441206105518,887,398,0,0,0,2,1,1,21,0002-00-0007-97.png,0001-00-0006-49.png
00000014,613,1,1441206106542,1441206107037,397,421,0,0,0,2,3,1,23,0002-00-0008-25.png,0003-00-0001-12.png
00000014,614,0,1441206108233,1441206108317,503,562,0,0,0,4,3,1,43,0004-00-0002-57.png,0003-00-0003-81.png
00000014,615,0,1441206111415,1441206111861,407,446,0,0,0,3,2,1,32,0003-00-0004-68.png,0002-00-0003-97.png
00000014,616,1,1441206115336,1441206115800,418,402,0,0,0,4,5,1,45,0004-00-0006-80.png,0005-00-0006-63.png
00000014,617,1,1441206116749,1441206117279,874,508,0,0,0,3,2,1,32,0003-00-0008-36.png,0002-00-0006-07.png
00000014,618,1,1441206118314,1441206118826,902,408,0,0,0,4,3,1,43,0004-00-0003-83.png,0003-00-0001-44.png
00000014,619,0,1441206119859,1441206120379,875,409,0,0,0,1,2,1,12,0001-00-0008-93.png,0002-00-0002-27.png
00000014,620,1,1441206123522,1441206123534,511,414,0,0,0,2,3,1,23,0002-00-0003-44.png,0003-00-0001-54.png
00000014,621,0,1441206124487,1441206125022,880,454,0,0,0,3,4,1,34,0003-00-0008-65.png,0004-00-0000-49.png
00000014,622,1,1441206127953,1441206128487,900,450,0,0,0,5,4,1,54,0005-00-0006-34.png,0004-00-0003-48.png
00000014,623,0,1441206129440,1441206129971,366,397,0,0,0,2,1,1,21,0002-00-0001-80.png,0001-00-0002-44.png
00000014,624,1,1441206132959,1441206132995,424,523,0,0,0,4,5,1,45,0004-00-0006-19.png,0005-00-0006-58.png
00000014,625,0,1441206133981,1441206134506,862,398,0,0,0,4,5,1,45,0004-00-0008-42.png,0005-00-0006-22.png
00000014,626,1,1441206137909,1441206138376,401,410,0,0,0,1,2,1,12,0001-00-0000-39.png,0002-00-0007-31.png
00000014,627,1,1441206139298,1441206139827,904,417,0,0,0,4,3,1,43,0004-00-0008-60.png,0003-00-0004-79.png
00000014,628,1,1441206140869,1441206141421,875,397,0,0,0,3,2,1,32,0003-00-0006-09.png,0002-00-0005-14.png
00000014,629,1,1441206142528,1441206142552,478,477,0,0,0,3,4,1,34,0003-00-0009-98.png,0004-00-0003-10.png
00000014,630,1,1441206143762,1441206144792,900,398,0,0,0,2,1,1,21,0002-00-0006-92.png,0001-00-0001-59.png
00000014,631,1,1441206145829,1441206146328,888,399,0,0,0,5,4,1,54,0005-00-0004-04.png,0004-00-0000-20.png
00000014,632,1,1441206147407,1441206147908,400,413,0,0,0,2,3,1,23,0002-00-0003-63.png,0003-00-0005-00.png
00000014,633,0,1441206149146,1441206149633,862,514,0,0,0,1,2,1,12,0001-00-0008-61.png,0002-00-0002-63.png
00000014,634,1,1441206153729,1441206154241,879,427,0,0,0,4,3,1,43,0004-00-0004-18.png,0003-00-0004-58.png
00000014,635,1,1441206155427,1441206155951,362,401,0,0,0,4,5,1,45,0004-00-0000-98.png,0005-00-0004-78.png
00000014,636,1,1441206156927,1441206157546,878,417,0,0,0,3,2,1,32,0003-00-0008-29.png,0002-00-0005-69.png
00000014,637,0,1441206158596,1441206159145,872,443,0,0,0,3,4,1,34,0003-00-0007-74.png,0004-00-0000-80.png
00000014,638,1,1441206162533,1441206163098,299,397,0,0,0,2,3,1,23,0002-00-0007-91.png,0003-00-0004-95.png
00000014,639,1,1441206164102,1441206164630,896,439,0,0,0,5,4,1,54,0005-00-0001-76.png,0004-00-0001-09.png
00000014,640,1,1441206165672,1441206167304,906,417,0,0,0,2,1,1,21,0002-00-0007-12.png,0001-00-0007-12.png
00000014,641,1,1441206168353,1441206168384,504,467,0,0,0,1,2,1,12,0001-00-0002-80.png,0002-00-0005-80.png
00000014,642,0,1441206169697,1441206170564,427,407,0,0,0,5,4,1,54,0005-00-0009-85.png,0004-00-0009-59.png
00000014,643,1,1441206173642,1441206174112,294,421,0,0,0,2,3,1,23,0002-00-0002-43.png,0003-00-0007-39.png
00000014,644,1,1441206175092,1441206175952,387,404,0,0,0,3,4,1,34,0003-00-0001-59.png,0004-00-0005-46.png
00000014,645,1,1441206177047,1441206177618,889,480,0,0,0,2,1,1,21,0002-00-0005-15.png,0001-00-0001-69.png
00000014,646,1,1441206178830,1441206179341,931,388,0,0,0,4,3,1,43,0004-00-0001-76.png,0003-00-0009-23.png
00000014,647,0,1441206180371,1441206181468,427,516,0,0,0,3,2,1,32,0003-00-0007-13.png,0002-00-0000-08.png
00000014,648,1,1441206184291,1441206184319,518,410,0,0,0,4,5,1,45,0004-00-0008-16.png,0005-00-0008-55.png
00000014,649,1,1441206185277,1441206186269,878,412,0,0,0,4,3,1,43,0004-00-0001-40.png,0003-00-0008-42.png
00000014,650,1,1441206187367,1441206187909,863,423,0,0,0,3,2,1,32,0003-00-0002-55.png,0002-00-0008-08.png
00000014,651,1,1441206188957,1441206189454,342,400,0,0,0,4,5,1,45,0004-00-0006-03.png,0005-00-0006-22.png
00000014,652,0,1441206190557,1441206191067,323,397,0,0,0,5,4,1,54,0005-00-0002-98.png,0004-00-0000-26.png
00000014,653,1,1441206194204,1441206194232,512,469,0,0,0,2,3,1,23,0002-00-0008-55.png,0003-00-0007-85.png
00000014,654,0,1441206195215,1441206195697,877,440,0,0,0,3,4,1,34,0003-00-0009-53.png,0004-00-0008-78.png
00000014,655,1,1441206198985,1441206199440,312,410,0,0,0,1,2,1,12,0001-00-0003-24.png,0002-00-0006-87.png
00000014,656,0,1441206200486,1441206200494,504,462,0,0,0,2,1,1,21,0002-00-0001-76.png,0001-00-0004-72.png
00000014,657,0,1441206203460,1441206203932,320,421,0,0,0,4,3,1,43,0004-00-0005-70.png,0003-00-0002-18.png
00000014,658,0,1441206207141,1441206207707,901,410,0,0,0,1,2,1,12,0001-00-0006-70.png,0002-00-0005-74.png
00000014,659,1,1441206210692,1441206211213,348,397,0,0,0,4,5,1,45,0004-00-0003-74.png,0005-00-0006-10.png
00000014,660,1,1441206212214,1441206212745,893,400,0,0,0,3,2,1,32,0003-00-0005-76.png,0002-00-0005-32.png
00000014,661,1,1441206213803,1441206214292,409,394,0,0,0,3,4,1,34,0003-00-0000-06.png,0004-00-0002-78.png
00000014,662,1,1441206215402,1441206215967,874,413,0,0,0,2,1,1,21,0002-00-0006-81.png,0001-00-0002-93.png
00000014,663,1,1441206217002,1441206217516,365,416,0,0,0,2,3,1,23,0002-00-0003-25.png,0003-00-0009-16.png
00000014,664,0,1441206218631,1441206219697,430,521,0,0,0,5,4,1,54,0005-00-0007-23.png,0004-00-0008-17.png
00000014,665,1,1441206223252,1441206223746,471,442,0,0,0,3,4,1,34,0003-00-0008-01.png,0004-00-0002-41.png
00000014,666,0,1441206224705,1441206225258,886,477,0,0,0,2,3,1,23,0002-00-0008-15.png,0003-00-0002-32.png
00000014,667,1,1441206228401,1441206228893,877,409,0,0,0,3,2,1,32,0003-00-0007-07.png,0002-00-0002-03.png
00000014,668,1,1441206229902,1441206230454,879,428,0,0,0,5,4,1,54,0005-00-0008-35.png,0004-00-0007-00.png
00000014,669,0,1441206231562,1441206232049,401,424,0,0,0,4,3,1,43,0004-00-0000-39.png,0003-00-0003-68.png
00000014,670,1,1441206235844,1441206236407,876,408,0,0,0,2,1,1,21,0002-00-0000-29.png,0001-00-0007-57.png
00000014,671,1,1441206237400,1441206237930,337,448,0,0,0,4,5,1,45,0004-00-0009-60.png,0005-00-0003-83.png
00000014,672,1,1441206238984,1441206239486,344,421,0,0,0,1,2,1,12,0001-00-0001-94.png,0002-00-0005-44.png
00000014,673,1,1441206240635,1441206241160,427,410,0,0,0,4,5,1,45,0004-00-0006-59.png,0005-00-0007-87.png
00000014,674,1,1441206242235,1441206242777,879,427,0,0,0,2,1,1,21,0002-00-0009-49.png,0001-00-0007-32.png
00000014,675,1,1441206243844,1441206245414,896,416,0,0,0,4,3,1,43,0004-00-0000-21.png,0003-00-0003-13.png
00000014,676,1,1441206246905,1441206247430,389,393,0,0,0,1,2,1,12,0001-00-0004-03.png,0002-00-0003-28.png
00000014,677,1,1441206248665,1441206249157,879,428,0,0,0,3,2,1,32,0003-00-0008-49.png,0002-00-0002-93.png
00000014,678,0,1441206250404,1441206250938,888,421,0,0,0,3,4,1,34,0003-00-0000-84.png,0004-00-0005-95.png
00000014,679,1,1441206253833,1441206253861,501,438,0,0,0,2,3,1,23,0002-00-0002-22.png,0003-00-0007-51.png
00000014,680,0,1441206254847,1441206254871,512,482,0,0,0,5,4,1,54,0005-00-0009-25.png,0004-00-0001-89.png
00000014,681,0,1441206257935,1441206258402,401,424,0,0,0,4,3,1,43,0004-00-0000-66.png,0003-00-0002-62.png
00000014,682,1,1441206261334,1441206261823,386,431,0,0,0,1,2,1,12,0001-00-0006-37.png,0002-00-0000-16.png
00000014,683,0,1441206262682,1441206262714,493,436,0,0,0,3,2,1,32,0003-00-0005-11.png,0002-00-0008-21.png
00000014,684,1,1441206265627,1441206266110,368,510,0,0,0,2,3,1,23,0002-00-0004-09.png,0003-00-0008-02.png
00000014,685,0,1441206266989,1441206267017,504,436,0,0,0,5,4,1,54,0005-00-0000-40.png,0004-00-0009-49.png
00000014,686,1,1441206269903,1441206270988,312,410,0,0,0,4,5,1,45,0004-00-0005-47.png,0005-00-0005-19.png
00000014,687,1,1441206272384,1441206273341,906,388,0,0,0,2,1,1,21,0002-00-0000-60.png,0001-00-0007-62.png
00000014,688,1,1441206274281,1441206274806,354,403,0,0,0,3,4,1,34,0003-00-0002-87.png,0004-00-0006-61.png
00000014,689,1,1441206276034,1441206276517,394,505,0,0,0,2,3,1,23,0002-00-0004-84.png,0003-00-0006-26.png
00000014,690,1,1441206277630,1441206278147,871,420,0,0,0,2,1,1,21,0002-00-0001-08.png,0001-00-0004-63.png
00000014,691,0,1441206279243,1441206279758,888,424,0,0,0,3,4,1,34,0003-00-0002-10.png,0004-00-0005-63.png
00000014,692,0,1441206282702,1441206282714,503,424,0,0,0,5,4,1,54,0005-00-0003-65.png,0004-00-0002-02.png
00000014,693,0,1441206285542,1441206285959,334,423,0,0,0,4,3,1,43,0004-00-0005-75.png,0003-00-0009-44.png
00000014,694,1,1441206289199,1441206289745,391,502,0,0,0,1,2,1,12,0001-00-0001-68.png,0002-00-0003-35.png
00000014,695,1,1441206290714,1441206291244,350,410,0,0,0,4,5,1,45,0004-00-0003-05.png,0005-00-0002-16.png
00000014,696,1,1441206292290,1441206292808,860,424,0,0,0,3,2,1,32,0003-00-0005-69.png,0002-00-0008-55.png
00000014,697,1,1441206293861,1441206294373,376,397,0,0,0,3,4,1,34,0003-00-0005-35.png,0004-00-0008-34.png
00000014,698,1,1441206295462,1441206295987,874,409,0,0,0,3,2,1,32,0003-00-0002-71.png,0002-00-0000-51.png
00000014,699,0,1441206296992,1441206297048,483,465,0,0,0,4,3,1,43,0004-00-0002-20.png,0003-00-0000-19.png
00000014,700,1,1441206300071,1441206301115,337,423,0,0,0,4,5,1,45,0004-00-0004-11.png,0005-00-0003-44.png
00000014,701,1,1441206302080,1441206302637,875,437,0,0,0,2,1,1,21,0002-00-0003-22.png,0001-00-0001-24.png
00000014,702,1,1441206303713,1441206304180,413,527,0,0,0,2,3,1,23,0002-00-0008-90.png,0003-00-0003-91.png
00000014,703,1,1441206305310,1441206305821,880,427,0,0,0,5,4,1,54,0005-00-0001-24.png,0004-00-0004-35.png
00000014,704,1,1441206306889,1441206307860,362,411,0,0,0,1,2,1,12,0001-00-0003-74.png,0002-00-0006-63.png
00000014,705,1,1441206309142,1441206309644,874,436,0,0,0,4,3,1,43,0004-00-0009-73.png,0003-00-0003-70.png
00000014,706,1,1441206310716,1441206311185,363,418,0,0,0,1,2,1,12,0001-00-0003-89.png,0002-00-0007-45.png
00000014,707,1,1441206312370,1441206312402,478,488,0,0,0,2,3,1,23,0002-00-0003-68.png,0003-00-0005-09.png
00000014,708,1,1441206313638,1441206314721,906,524,0,0,0,2,1,1,21,0002-00-0005-70.png,0001-00-0009-80.png
00000014,709,1,1441206316003,1441206316528,388,420,0,0,0,4,5,1,45,0004-00-0006-36.png,0005-00-0008-67.png
00000014,710,0,1441206318059,1441206318534,869,560,0,0,0,3,4,1,34,0003-00-0003-25.png,0004-00-0001-76.png
00000014,711,0,1441206321799,1441206322318,325,422,0,0,0,5,4,1,54,0005-00-0002-00.png,0004-00-0006-79.png
00000014,712,0,1441206325603,1441206326046,390,436,0,0,0,3,2,1,32,0003-00-0002-48.png,0002-00-0003-19.png
00000014,713,1,1441206329159,1441206329698,363,371,0,0,0,3,4,1,34,0003-00-0007-45.png,0004-00-0005-51.png
00000014,714,1,1441206330782,1441206331312,875,397,0,0,0,5,4,1,54,0005-00-0002-75.png,0004-00-0005-08.png
00000014,715,1,1441206332431,1441206332507,505,556,0,0,0,2,3,1,23,0002-00-0008-68.png,0003-00-0000-17.png
00000014,716,0,1441206334130,1441206334665,429,436,0,0,0,4,3,1,43,0004-00-0009-30.png,0003-00-0007-27.png
00000014,717,0,1441206337749,1441206338169,318,399,0,0,0,2,1,1,21,0002-00-0000-50.png,0001-00-0004-86.png
00000014,718,1,1441206341614,1441206342060,387,410,0,0,0,4,5,1,45,0004-00-0005-15.png,0005-00-0000-71.png
00000014,719,1,1441206343017,1441206343081,507,532,0,0,0,1,2,1,12,0001-00-0009-12.png,0002-00-0008-65.png
00000014,720,1,1441206344308,1441206344773,873,462,0,0,0,3,2,1,32,0003-00-0005-08.png,0002-00-0008-25.png
00000014,721,1,1441206345878,1441206346981,900,412,0,0,0,4,3,1,43,0004-00-0008-61.png,0003-00-0002-79.png
00000014,722,1,1441206347916,1441206348471,887,424,0,0,0,5,4,1,54,0005-00-0004-58.png,0004-00-0003-15.png
00000014,723,0,1441206349556,1441206350081,865,508,0,0,0,3,4,1,34,0003-00-0005-76.png,0004-00-0000-80.png
00000014,724,0,1441206352933,1441206353347,397,381,0,0,0,2,1,1,21,0002-00-0007-90.png,0001-00-0002-12.png
00000014,725,0,1441206356350,1441206356390,497,444,0,0,0,3,2,1,32,0003-00-0006-55.png,0002-00-0002-40.png
00000014,726,1,1441206359274,1441206359278,507,414,0,0,0,4,5,1,45,0004-00-0001-03.png,0005-00-0000-34.png
00000014,727,1,1441206360379,1441206360862,327,402,0,0,0,2,3,1,23,0002-00-0009-01.png,0003-00-0008-76.png
00000014,728,0,1441206361888,1441206362391,879,427,0,0,0,1,2,1,12,0001-00-0001-18.png,0002-00-0002-17.png
00000014,729,1,1441206365305,1441206365329,472,419,0,0,0,2,3,1,23,0002-00-0009-36.png,0003-00-0006-50.png
00000014,730,1,1441206366331,1441206366849,872,432,0,0,0,5,4,1,54,0005-00-0005-71.png,0004-00-0002-73.png
00000014,731,1,1441206367902,1441206368437,893,411,0,0,0,4,3,1,43,0004-00-0002-80.png,0003-00-0009-81.png
00000014,732,1,1441206369531,1441206369990,343,421,0,0,0,4,5,1,45,0004-00-0001-20.png,0005-00-0003-34.png
00000014,733,1,1441206371233,1441206371743,878,413,0,0,0,2,1,1,21,0002-00-0009-92.png,0001-00-0003-62.png
00000014,734,1,1441206372932,1441206373434,906,416,0,0,0,3,2,1,32,0003-00-0006-15.png,0002-00-0001-71.png
00000014,735,0,1441206374749,1441206375274,883,390,0,0,0,1,2,1,12,0001-00-0001-31.png,0002-00-0007-21.png
00000014,736,0,1441206378427,1441206378931,904,401,0,0,0,3,4,1,34,0003-00-0000-45.png,0004-00-0009-02.png
00000014,737,1,1441206381964,1441206382451,355,384,0,0,0,2,3,1,23,0002-00-0007-14.png,0003-00-0007-25.png
00000014,738,1,1441206383563,1441206384016,356,403,0,0,0,4,5,1,45,0004-00-0005-30.png,0005-00-0001-55.png
00000014,739,1,1441206385075,1441206385598,864,506,0,0,0,4,3,1,43,0004-00-0004-29.png,0003-00-0008-31.png
00000014,740,1,1441206386713,1441206387224,900,412,0,0,0,3,2,1,32,0003-00-0004-92.png,0002-00-0002-63.png
00000014,741,0,1441206388254,1441206388768,396,414,0,0,0,2,1,1,21,0002-00-0000-43.png,0001-00-0005-73.png
00000014,742,1,1441206391629,1441206391661,491,441,0,0,0,1,2,1,12,0001-00-0002-27.png,0002-00-0003-14.png
00000014,743,0,1441206392618,1441206392634,491,478,0,0,0,5,4,1,54,0005-00-0004-38.png,0004-00-0004-60.png
00000014,744,1,1441206395644,1441206396148,401,384,0,0,0,3,4,1,34,0003-00-0004-79.png,0004-00-0005-05.png
00000014,745,1,1441206397100,1441206397660,878,433,0,0,0,3,2,1,32,0003-00-0000-49.png,0002-00-0000-39.png
00000014,746,1,1441206398589,1441206399567,337,410,0,0,0,4,5,1,45,0004-00-0006-90.png,0005-00-0002-66.png
00000014,747,1,1441206400737,1441206401249,391,515,0,0,0,3,4,1,34,0003-00-0007-69.png,0004-00-0002-65.png
00000014,748,1,1441206402275,1441206402774,324,393,0,0,0,1,2,1,12,0001-00-0001-64.png,0002-00-0005-52.png
00000014,749,0,1441206403926,1441206403943,466,480,0,0,0,5,4,1,54,0005-00-0006-28.png,0004-00-0004-11.png
00000014,750,0,1441206407612,1441206408099,401,384,0,0,0,2,1,1,21,0002-00-0004-18.png,0001-00-0008-16.png
00000014,751,1,1441206412303,1441206412757,344,385,0,0,0,2,3,1,23,0002-00-0003-42.png,0003-00-0004-94.png
00000014,752,1,1441206413804,1441206414321,878,414,0,0,0,4,3,1,43,0004-00-0008-60.png,0003-00-0001-57.png
00000014,753,1,1441206415403,1441206415935,340,392,0,0,0,1,2,1,12,0001-00-0001-93.png,0002-00-0005-19.png
00000014,754,1,1441206417193,1441206417729,879,428,0,0,0,3,2,1,32,0003-00-0006-10.png,0002-00-0008-84.png
00000014,755,1,1441206418833,1441206419356,427,384,0,0,0,4,5,1,45,0004-00-0009-57.png,0005-00-0006-47.png
00000014,756,0,1441206420631,1441206421163,482,384,0,0,0,4,3,1,43,0004-00-0007-35.png,0003-00-0001-08.png
00000014,757,1,1441206424027,1441206424039,517,442,0,0,0,3,4,1,34,0003-00-0005-16.png,0004-00-0004-72.png
00000014,758,0,1441206425119,1441206425564,401,411,0,0,0,2,1,1,21,0002-00-0007-29.png,0001-00-0005-02.png
00000014,759,0,1441206428400,1441206428424,493,414,0,0,0,5,4,1,54,0005-00-0001-25.png,0004-00-0004-99.png
00000014,760,1,1441206431734,1441206432502,406,490,0,0,0,2,3,1,23,0002-00-0004-77.png,0003-00-0001-36.png
00000014,761,1,1441206433492,1441206433952,389,421,0,0,0,2,3,1,23,0002-00-0003-92.png,0003-00-0000-97.png
00000014,762,0,1441206435160,1441206435663,881,388,0,0,0,3,4,1,34,0003-00-0000-96.png,0004-00-0009-16.png
00000014,763,0,1441206438677,1441206439204,325,410,0,0,0,5,4,1,54,0005-00-0009-78.png,0004-00-0009-10.png
00000014,764,0,1441206442552,1441206442999,401,436,0,0,0,4,3,1,43,0004-00-0002-00.png,0003-00-0001-75.png
00000014,765,1,1441206446840,1441206447263,350,423,0,0,0,4,5,1,45,0004-00-0005-80.png,0005-00-0008-83.png
00000014,766,1,1441206448410,1441206448919,875,501,0,0,0,2,1,1,21,0002-00-0003-84.png,0001-00-0000-30.png
00000014,767,1,1441206449980,1441206450491,876,409,0,0,0,3,2,1,32,0003-00-0005-60.png,0002-00-0005-53.png
00000014,768,1,1441206451620,1441206452054,376,437,0,0,0,1,2,1,12,0001-00-0004-00.png,0002-00-0000-13.png
00000014,769,0,1441206453340,1441206453780,365,436,0,0,0,3,2,1,32,0003-00-0007-68.png,0002-00-0004-66.png
00000014,770,0,1441206456688,1441206457127,391,416,0,0,0,4,3,1,43,0004-00-0003-78.png,0003-00-0001-06.png
00000014,771,0,1441206460246,1441206460274,511,445,0,0,0,2,1,1,21,0002-00-0008-77.png,0001-00-0004-69.png
00000014,772,1,1441206463306,1441206463318,505,442,0,0,0,1,2,1,12,0001-00-0007-84.png,0002-00-0006-61.png
00000014,773,0,1441206464212,1441206464889,930,453,0,0,0,2,3,1,23,0002-00-0001-58.png,0003-00-0002-19.png
00000014,774,1,1441206467818,1441206468254,401,384,0,0,0,4,5,1,45,0004-00-0002-50.png,0005-00-0009-41.png
00000014,775,1,1441206469181,1441206469197,504,424,0,0,0,3,4,1,34,0003-00-0007-03.png,0004-00-0003-15.png
00000014,776,0,1441206470379,1441206470876,366,402,0,0,0,5,4,1,54,0005-00-0005-64.png,0004-00-0002-39.png
00000014,777,0,1441206473970,1441206474386,388,384,0,0,0,5,4,1,54,0005-00-0002-15.png,0004-00-0005-52.png
00000014,778,0,1441206477440,1441206478401,913,458,0,0,0,2,3,1,23,0002-00-0003-31.png,0003-00-0002-60.png
00000014,779,1,1441206481364,1441206481874,400,513,0,0,0,4,5,1,45,0004-00-0002-56.png,0005-00-0003-58.png
00000014,780,1,1441206482794,1441206482814,504,436,0,0,0,1,2,1,12,0001-00-0001-58.png,0002-00-0006-84.png
00000014,781,1,1441206484009,1441206484535,318,421,0,0,0,3,4,1,34,0003-00-0004-13.png,0004-00-0008-07.png
00000014,782,1,1441206485539,1441206486084,888,432,0,0,0,4,3,1,43,0004-00-0004-87.png,0003-00-0009-64.png
00000014,783,1,1441206487100,1441206487644,891,414,0,0,0,2,1,1,21,0002-00-0004-06.png,0001-00-0002-95.png
00000014,784,0,1441206488686,1441206488738,512,504,0,0,0,3,2,1,32,0003-00-0008-47.png,0002-00-0004-89.png
00000014,785,0,1441206491757,1441206492256,370,436,0,0,0,4,3,1,43,0004-00-0004-62.png,0003-00-0007-97.png
00000014,786,1,1441206495176,1441206495604,389,397,0,0,0,4,5,1,45,0004-00-0002-41.png,0005-00-0005-49.png
00000014,787,0,1441206496680,1441206497182,878,479,0,0,0,1,2,1,12,0001-00-0005-35.png,0002-00-0000-51.png
00000014,788,1,1441206500089,1441206500097,469,481,0,0,0,3,4,1,34,0003-00-0006-00.png,0004-00-0005-58.png
00000014,789,0,1441206500973,1441206501495,333,438,0,0,0,5,4,1,54,0005-00-0005-14.png,0004-00-0007-03.png
00000014,790,0,1441206504404,1441206504419,521,429,0,0,0,2,1,1,21,0002-00-0000-41.png,0001-00-0008-66.png
00000014,791,0,1441206507431,1441206507851,367,401,0,0,0,3,2,1,32,0003-00-0003-90.png,0002-00-0007-58.png
00000014,792,1,1441206510774,1441206510782,521,414,0,0,0,2,3,1,23,0002-00-0006-88.png,0003-00-0000-57.png
00000014,793,0,1441206511768,1441206512262,332,410,0,0,0,2,1,1,21,0002-00-0003-58.png,0001-00-0009-99.png
00000014,794,0,1441206515338,1441206516129,376,358,0,0,0,4,3,1,43,0004-00-0002-61.png,0003-00-0009-24.png
00000014,795,1,1441206519241,1441206519685,401,410,0,0,0,4,5,1,45,0004-00-0002-36.png,0005-00-0007-49.png
00000014,796,1,1441206520578,1441206520611,497,433,0,0,0,2,3,1,23,0002-00-0005-72.png,0003-00-0006-98.png
00000014,797,1,1441206521717,1441206522260,350,409,0,0,0,1,2,1,12,0001-00-0006-13.png,0002-00-0002-21.png
00000014,798,1,1441206523355,1441206523903,880,419,0,0,0,3,2,1,32,0003-00-0001-89.png,0002-00-0000-67.png
00000014,799,1,1441206524946,1441206525463,865,510,0,0,0,5,4,1,54,0005-00-0001-12.png,0004-00-0005-18.png
00000014,800,0,1441206526476,1441206527009,881,417,0,0,0,3,4,1,34,0003-00-0008-86.png,0004-00-0008-22.png
00000014,801,1,1441206529958,1441206530456,376,384,0,0,0,3,4,1,34,0003-00-0002-66.png,0004-00-0009-78.png
00000014,802,0,1441206531435,1441206531995,877,415,0,0,0,2,3,1,23,0002-00-0005-88.png,0003-00-0000-79.png
00000014,803,1,1441206535433,1441206535459,510,473,0,0,0,1,2,1,12,0001-00-0005-60.png,0002-00-0003-12.png
00000014,804,1,1441206536384,1441206537376,901,410,0,0,0,3,2,1,32,0003-00-0009-12.png,0002-00-0005-45.png
00000014,805,0,1441206538300,1441206538320,504,462,0,0,0,4,3,1,43,0004-00-0009-16.png,0003-00-0001-52.png
00000014,806,1,1441206541290,1441206541728,401,436,0,0,0,4,5,1,45,0004-00-0001-10.png,0005-00-0009-25.png
00000014,807,1,1441206542612,1441206543253,870,413,0,0,0,5,4,1,54,0005-00-0006-74.png,0004-00-0002-69.png
00000014,808,1,1441206544231,1441206544760,869,423,0,0,0,2,1,1,21,0002-00-0007-51.png,0001-00-0006-73.png
00000014,809,0,1441206545774,1441206545798,504,462,0,0,0,5,4,1,54,0005-00-0008-06.png,0004-00-0007-14.png
00000014,810,1,1441206548775,1441206548791,515,434,0,0,0,1,2,1,12,0001-00-0000-24.png,0002-00-0000-68.png
00000014,811,0,1441206549778,1441206550257,876,435,0,0,0,3,4,1,34,0003-00-0009-79.png,0004-00-0001-03.png
00000014,812,0,1441206553315,1441206553759,376,450,0,0,0,4,3,1,43,0004-00-0000-06.png,0003-00-0007-63.png
00000014,813,1,1441206556811,1441206556831,504,410,0,0,0,2,3,1,23,0002-00-0004-47.png,0003-00-0009-50.png
00000014,814,0,1441206557728,1441206557768,504,488,0,0,0,3,2,1,32,0003-00-0005-67.png,0002-00-0004-74.png
00000014,815,1,1441206560758,1441206561311,903,417,0,0,0,2,1,1,21,0002-00-0001-52.png,0001-00-0001-50.png
00000014,816,1,1441206562201,1441206563145,418,392,0,0,0,4,5,1,45,0004-00-0003-50.png,0005-00-0002-66.png
00000014,817,0,1441206564155,1441206564179,504,462,0,0,0,5,4,1,54,0005-00-0008-89.png,0004-00-0003-91.png
00000014,818,0,1441206567061,1441206567481,320,399,0,0,0,3,2,1,32,0003-00-0000-67.png,0002-00-0001-82.png
00000014,819,1,1441206570895,1441206570931,514,495,0,0,0,3,4,1,34,0003-00-0003-22.png,0004-00-0007-88.png
00000014,820,1,1441206572376,1441206572858,875,423,0,0,0,4,3,1,43,0004-00-0008-48.png,0003-00-0005-80.png
00000014,821,1,1441206574037,1441206574073,504,472,0,0,0,2,3,1,23,0002-00-0001-17.png,0003-00-0006-89.png
00000014,822,0,1441206575219,1441206576175,367,430,0,0,0,2,1,1,21,0002-00-0005-59.png,0001-00-0001-94.png
00000014,823,0,1441206579083,1441206579660,899,490,0,0,0,1,2,1,12,0001-00-0000-44.png,0002-00-0002-46.png
00000014,824,1,1441206582882,1441206583336,376,384,0,0,0,4,5,1,45,0004-00-0001-80.png,0005-00-0000-70.png
00000014,825,1,1441206584343,1441206584965,874,490,0,0,0,2,1,1,21,0002-00-0002-57.png,0001-00-0004-39.png
00000014,826,1,1441206585972,1441206586517,908,393,0,0,0,3,2,1,32,0003-00-0005-76.png,0002-00-0007-67.png
00000014,827,1,1441206587521,1441206588067,901,411,0,0,0,5,4,1,54,0005-00-0006-14.png,0004-00-0001-87.png
00000014,828,0,1441206589023,1441206589597,888,424,0,0,0,3,4,1,34,0003-00-0002-84.png,0004-00-0006-06.png
00000014,829,0,1441206592564,1441206592591,502,424,0,0,0,4,3,1,43,0004-00-0002-17.png,0003-00-0006-58.png
00000014,830,0,1441206595431,1441206595906,898,435,0,0,0,1,2,1,12,0001-00-0009-67.png,0002-00-0000-45.png
00000014,831,1,1441206599170,1441206599633,404,499,0,0,0,4,5,1,45,0004-00-0007-19.png,0005-00-0001-04.png
00000014,832,0,1441206600596,1441206601134,873,508,0,0,0,2,3,1,23,0002-00-0008-00.png,0003-00-0000-63.png
00000014,833,0,1441206604108,1441206604128,495,428,0,0,0,5,4,1,54,0005-00-0007-67.png,0004-00-0007-90.png
00000014,834,1,1441206606999,1441206607458,320,374,0,0,0,4,5,1,45,0004-00-0009-45.png,0005-00-0004-15.png
00000014,835,0,1441206608342,1441206608354,504,449,0,0,0,2,1,1,21,0002-00-0009-50.png,0001-00-0003-76.png
00000014,836,0,1441206611384,1441206611412,498,522,0,0,0,3,2,1,32,0003-00-0000-75.png,0002-00-0005-52.png
00000014,837,0,1441206614305,1441206614321,511,435,0,0,0,4,3,1,43,0004-00-0006-25.png,0003-00-0000-80.png
00000014,838,0,1441206617248,1441206617789,900,411,0,0,0,3,4,1,34,0003-00-0003-59.png,0004-00-0003-53.png
00000014,839,1,1441206621705,1441206622167,331,395,0,0,0,1,2,1,12,0001-00-0004-72.png,0002-00-0005-38.png
00000014,840,1,1441206623131,1441206623648,323,397,0,0,0,2,3,1,23,0002-00-0002-52.png,0003-00-0003-57.png
00000014,841,0,1441206624612,1441206625194,876,441,0,0,0,2,3,1,23,0002-00-0005-67.png,0003-00-0009-69.png
00000014,842,1,1441206628337,1441206628810,338,423,0,0,0,4,5,1,45,0004-00-0002-98.png,0005-00-0001-63.png
00000014,843,0,1441206629840,1441206630337,877,392,0,0,0,3,4,1,34,0003-00-0006-60.png,0004-00-0007-26.png
00000014,844,0,1441206633429,1441206633910,426,434,0,0,0,5,4,1,54,0005-00-0007-13.png,0004-00-0009-89.png
00000014,845,1,1441206637154,1441206637555,318,412,0,0,0,1,2,1,12,0001-00-0008-48.png,0002-00-0008-05.png
00000014,846,0,1441206638530,1441206638566,513,462,0,0,0,4,3,1,43,0004-00-0008-61.png,0003-00-0002-92.png
00000014,847,0,1441206641559,1441206641584,457,460,0,0,0,3,2,1,32,0003-00-0001-51.png,0002-00-0004-28.png
00000014,848,0,1441206644576,1441206645045,314,391,0,0,0,2,1,1,21,0002-00-0009-76.png,0001-00-0007-86.png
00000014,849,1,1441206647935,1441206648504,889,498,0,0,0,3,2,1,32,0003-00-0004-20.png,0002-00-0001-27.png
00000014,850,1,1441206649895,1441206650376,388,410,0,0,0,2,3,1,23,0002-00-0003-64.png,0003-00-0008-66.png
00000014,851,0,1441206651742,1441206651782,519,462,0,0,0,2,1,1,21,0002-00-0003-49.png,0001-00-0007-87.png
00000014,852,0,1441206656306,1441206656834,888,476,0,0,0,3,4,1,34,0003-00-0007-81.png,0004-00-0006-85.png
00000014,853,1,1441206659762,1441206660297,901,430,0,0,0,4,3,1,43,0004-00-0000-68.png,0003-00-0009-96.png
00000014,854,0,1441206661330,1441206661778,886,425,0,0,0,4,5,1,45,0004-00-0003-69.png,0005-00-0000-01.png
00000014,855,0,1441206666580,1441206667693,414,443,0,0,0,5,4,1,54,0005-00-0007-81.png,0004-00-0009-72.png
00000014,856,1,1441206671708,1441206672140,349,402,0,0,0,1,2,1,12,0001-00-0000-44.png,0002-00-0003-26.png
00000014,857,0,1441206674429,1441206674892,413,451,0,0,0,5,4,1,54,0005-00-0006-58.png,0004-00-0007-90.png
00000014,858,0,1441206677977,1441206678462,888,441,0,0,0,2,3,1,23,0002-00-0008-30.png,0003-00-0005-66.png
00000014,859,0,1441206681398,1441206681422,453,450,0,0,0,2,1,1,21,0002-00-0002-03.png,0001-00-0003-17.png
00000014,860,1,1441206685574,1441206686009,376,397,0,0,0,3,4,1,34,0003-00-0009-64.png,0004-00-0005-84.png
00000014,861,1,1441206687872,1441206688341,401,398,0,0,0,4,5,1,45,0004-00-0000-77.png,0005-00-0008-48.png
00000014,862,0,1441206690017,1441206690472,401,514,0,0,0,4,3,1,43,0004-00-0003-86.png,0003-00-0005-27.png
00000014,863,1,1441206693418,1441206693891,376,397,0,0,0,1,2,1,12,0001-00-0008-15.png,0002-00-0009-53.png
00000014,864,1,1441206695026,1441206695509,873,535,0,0,0,3,2,1,32,0003-00-0003-39.png,0002-00-0007-12.png
00000014,865,0,1441206696472,1441206696989,880,401,0,0,0,3,4,1,34,0003-00-0006-97.png,0004-00-0000-50.png
00000014,866,1,1441206700084,1441206700566,907,408,0,0,0,3,2,1,32,0003-00-0008-42.png,0002-00-0001-03.png
00000014,867,1,1441206702401,1441206702916,356,437,0,0,0,1,2,1,12,0001-00-0005-42.png,0002-00-0003-38.png
00000014,868,1,1441206704121,1441206704609,862,384,0,0,0,5,4,1,54,0005-00-0001-72.png,0004-00-0002-21.png
00000014,869,0,1441206705770,1441206706272,376,409,0,0,0,4,3,1,43,0004-00-0005-99.png,0003-00-0005-25.png
00000014,870,1,1441206709507,1441206710007,928,410,0,0,0,2,1,1,21,0002-00-0007-44.png,0001-00-0001-30.png
00000014,871,1,1441206711859,1441206712360,299,414,0,0,0,4,5,1,45,0004-00-0005-13.png,0005-00-0005-23.png
00000014,872,1,1441206714108,1441206714575,364,424,0,0,0,2,3,1,23,0002-00-0004-70.png,0003-00-0003-15.png
00000014,873,0,1441206716291,1441206716798,401,344,0,0,0,2,1,1,21,0002-00-0007-54.png,0001-00-0007-89.png
00000014,874,1,1441206720074,1441206720444,316,445,0,0,0,1,2,1,12,0001-00-0002-63.png,0002-00-0009-07.png
00000014,875,1,1441206722545,1441206723010,401,435,0,0,0,2,3,1,23,0002-00-0001-73.png,0003-00-0007-73.png
00000014,876,0,1441206724892,1441206725838,307,453,0,0,0,4,3,1,43,0004-00-0003-40.png,0003-00-0005-50.png
00000014,877,1,1441206731064,1441206731551,415,403,0,0,0,4,5,1,45,0004-00-0005-27.png,0005-00-0005-42.png
00000014,878,0,1441206733356,1441206734290,441,540,0,0,0,5,4,1,54,0005-00-0001-01.png,0004-00-0007-61.png
00000014,879,0,1441206737494,1441206737997,387,410,0,0,0,3,2,1,32,0003-00-0005-11.png,0002-00-0003-43.png
00000014,880,1,1441206741030,1441206741078,513,462,0,0,0,3,4,1,34,0003-00-0009-80.png,0004-00-0001-70.png
00000014,881,1,1441206742891,1441206743339,325,410,0,0,0,1,2,1,12,0001-00-0001-68.png,0002-00-0006-55.png
00000014,882,1,1441206744981,1441206745558,325,397,0,0,0,2,3,1,23,0002-00-0003-46.png,0003-00-0002-72.png
00000014,883,0,1441206747582,1441206748103,367,427,0,0,0,2,1,1,21,0002-00-0005-19.png,0001-00-0007-89.png
00000014,884,1,1441206750935,1441206751433,350,427,0,0,0,3,4,1,34,0003-00-0001-59.png,0004-00-0004-81.png
00000014,885,1,1441206752963,1441206753548,315,426,0,0,0,4,5,1,45,0004-00-0003-78.png,0005-00-0003-99.png
00000014,886,1,1441206755138,1441206756195,899,372,0,0,0,5,4,1,54,0005-00-0003-27.png,0004-00-0006-76.png
00000014,887,1,1441206757313,1441206757867,875,410,0,0,0,4,3,1,43,0004-00-0003-47.png,0003-00-0009-15.png
00000014,888,1,1441206758922,1441206759423,880,401,0,0,0,3,2,1,32,0003-00-0008-87.png,0002-00-0006-52.png
00000014,889,1,1441206760513,1441206760933,334,423,0,0,0,1,2,1,12,0001-00-0001-12.png,0002-00-0007-07.png
00000014,890,0,1441206761923,1441206762916,349,411,0,0,0,2,1,1,21,0002-00-0000-58.png,0001-00-0003-53.png
00000014,891,1,1441206765873,1441206766258,335,371,0,0,0,4,5,1,45,0004-00-0005-32.png,0005-00-0001-76.png
00000014,892,1,1441206767916,1441206768393,376,422,0,0,0,2,3,1,23,0002-00-0004-10.png,0003-00-0000-73.png
00000014,893,1,1441206769971,1441206770900,425,413,0,0,0,3,4,1,34,0003-00-0007-76.png,0004-00-0003-40.png
00000014,894,1,1441206772579,1441206773101,879,401,0,0,0,3,2,1,32,0003-00-0003-62.png,0002-00-0001-87.png
00000014,895,0,1441206774113,1441206774632,294,442,0,0,0,4,3,1,43,0004-00-0003-92.png,0003-00-0008-85.png
00000014,896,0,1441206777526,1441206777546,389,562,0,0,0,5,4,1,54,0005-00-0005-31.png,0004-00-0002-99.png
00000014,897,0,1441206780408,1441206780860,348,379,0,0,0,3,2,1,32,0003-00-0005-99.png,0002-00-0007-09.png
00000014,898,0,1441206784397,1441206784819,311,384,0,0,0,2,1,1,21,0002-00-0000-91.png,0001-00-0002-66.png
00000014,899,1,1441206787863,1441206788340,287,397,0,0,0,3,4,1,34,0003-00-0007-41.png,0004-00-0009-37.png
00000014,900,1,1441206789951,1441206790453,375,359,0,0,0,4,5,1,45,0004-00-0007-15.png,0005-00-0000-38.png
00000014,901,0,1441206791972,1441206792451,360,427,0,0,0,5,4,1,54,0005-00-0009-46.png,0004-00-0003-41.png
00000014,902,1,1441206795484,1441206795492,491,410,0,0,0,2,3,1,23,0002-00-0004-58.png,0003-00-0005-53.png
00000014,903,0,1441206796939,1441206797476,874,490,0,0,0,1,2,1,12,0001-00-0007-37.png,0002-00-0004-15.png
00000014,904,1,1441206800537,1441206801129,888,371,0,0,0,4,3,1,43,0004-00-0009-21.png,0003-00-0004-31.png
00000014,905,0,1441206802808,1441206803376,881,526,0,0,0,3,4,1,34,0003-00-0005-54.png,0004-00-0009-96.png
00000014,906,1,1441206806437,1441206806943,902,392,0,0,0,4,3,1,43,0004-00-0005-95.png,0003-00-0005-19.png
00000014,907,1,1441206808628,1441206808636,510,470,0,0,0,2,3,1,23,0002-00-0000-10.png,0003-00-0000-95.png
00000014,908,0,1441206809680,1441206810198,320,406,0,0,0,2,1,1,21,0002-00-0000-79.png,0001-00-0006-56.png
00000014,909,1,1441206813227,1441206813765,913,384,0,0,0,5,4,1,54,0005-00-0001-78.png,0004-00-0001-02.png
00000014,910,0,1441206815556,1441206816041,876,423,0,0,0,4,5,1,45,0004-00-0005-38.png,0005-00-0004-50.png
00000014,911,0,1441206818919,1441206819452,862,370,0,0,0,1,2,1,12,0001-00-0000-61.png,0002-00-0003-10.png
00000014,912,0,1441206822388,1441206822418,504,398,0,0,0,3,2,1,32,0003-00-0009-89.png,0002-00-0005-56.png
00000014,913,0,1441206825248,1441206825276,495,376,0,0,0,4,3,1,43,0004-00-0002-15.png,0003-00-0006-82.png
00000014,914,1,1441206828147,1441206828593,336,375,0,0,0,4,5,1,45,0004-00-0005-52.png,0005-00-0008-69.png
00000014,915,1,1441206830204,1441206830701,889,431,0,0,0,3,2,1,32,0003-00-0002-41.png,0002-00-0005-48.png
00000014,916,1,1441206831725,1441206832259,902,414,0,0,0,5,4,1,54,0005-00-0009-24.png,0004-00-0001-08.png
00000014,917,1,1441206833261,1441206833809,873,406,0,0,0,2,1,1,21,0002-00-0008-60.png,0001-00-0006-74.png
00000014,918,0,1441206835202,1441206836241,908,404,0,0,0,2,3,1,23,0002-00-0003-46.png,0003-00-0005-60.png
00000014,919,1,1441206839243,1441206839255,424,421,0,0,0,1,2,1,12,0001-00-0008-52.png,0002-00-0004-30.png
00000014,920,1,1441206840223,1441206840279,508,540,0,0,0,3,4,1,34,0003-00-0009-47.png,0004-00-0001-14.png
00000014,921,1,1441206841358,1441206841840,879,427,0,0,0,4,3,1,43,0004-00-0001-57.png,0003-00-0004-97.png
00000014,922,0,1441206842866,1441206843385,861,502,0,0,0,3,4,1,34,0003-00-0005-89.png,0004-00-0009-14.png
00000014,923,0,1441206847427,1441206848339,462,534,0,0,0,2,1,1,21,0002-00-0005-19.png,0001-00-0002-20.png
00000014,924,0,1441206851198,1441206851665,248,488,0,0,0,5,4,1,54,0005-00-0007-97.png,0004-00-0001-97.png
00000014,925,1,1441206854726,1441206855275,325,421,0,0,0,2,3,1,23,0002-00-0003-86.png,0003-00-0006-38.png
00000014,926,0,1441206856839,1441206857334,322,406,0,0,0,3,2,1,32,0003-00-0009-31.png,0002-00-0004-44.png
00000014,927,1,1441206860325,1441206860345,494,444,0,0,0,4,5,1,45,0004-00-0007-61.png,0005-00-0001-81.png
00000014,928,0,1441206861789,1441206862328,900,429,0,0,0,1,2,1,12,0001-00-0000-72.png,0002-00-0003-18.png
00000014,929,0,1441206865697,1441206866120,899,516,0,0,0,4,5,1,45,0004-00-0008-49.png,0005-00-0003-47.png
00000014,930,1,1441206869335,1441206870211,408,411,0,0,0,2,3,1,23,0002-00-0009-02.png,0003-00-0006-59.png
00000014,931,0,1441206872258,1441206872808,874,481,0,0,0,1,2,1,12,0001-00-0004-21.png,0002-00-0000-63.png
00000014,932,0,1441206876488,1441206876974,875,489,0,0,0,3,4,1,34,0003-00-0000-75.png,0004-00-0007-61.png
00000014,933,1,1441206880029,1441206880604,929,389,0,0,0,5,4,1,54,0005-00-0009-03.png,0004-00-0006-17.png
00000014,934,0,1441206882282,1441206883180,376,398,0,0,0,2,1,1,21,0002-00-0005-83.png,0001-00-0008-69.png
00000014,935,0,1441206886538,1441206886979,317,377,0,0,0,4,3,1,43,0004-00-0003-79.png,0003-00-0009-51.png
00000014,936,0,1441206890589,1441206891104,376,359,0,0,0,3,2,1,32,0003-00-0004-71.png,0002-00-0006-18.png
00000014,937,1,1441206894793,1441206895299,904,428,0,0,0,4,3,1,43,0004-00-0004-71.png,0003-00-0002-49.png
00000014,938,1,1441206899157,1441206899610,376,397,0,0,0,3,4,1,34,0003-00-0007-64.png,0004-00-0001-63.png
00000014,939,1,1441206901353,1441206901894,879,427,0,0,0,3,2,1,32,0003-00-0009-24.png,0002-00-0009-98.png
00000014,940,0,1441206906998,1441206907480,881,436,0,0,0,4,5,1,45,0004-00-0000-93.png,0005-00-0007-95.png
00000014,941,0,1441206910425,1441206910445,498,426,0,0,0,2,1,1,21,0002-00-0004-49.png,0001-00-0001-49.png
00000014,942,1,1441206914075,1441206914531,367,372,0,0,0,2,3,1,23,0002-00-0001-63.png,0003-00-0000-09.png
