subject_id,trial,correct_response,stim_time,response_time,x_coord,y_coord,trial_timeout,timeout_time,interTrial_timeout,left_rank,right_rank,distance,joint_rank,left_image,right_image
00000014,1,0,1438271717449,1438271731852,408,448,0,0,0,4,3,1,43,0004-00-0001-45.png,0003-00-0001-53.png
00000014,2,0,1438271733345,1438271734196,374,394,0,0,0,5,4,1,54,0005-00-0000-67.png,0004-00-0000-34.png
00000014,3,1,1438271735320,1438271736022,361,539,0,0,0,4,5,1,45,0004-00-0000-60.png,0005-00-0000-09.png
00000014,4,1,1438271737686,1438271738309,314,409,0,0,0,2,3,1,23,0002-00-0001-06.png,0003-00-0001-73.png
00000014,5,0,1438271739928,1438271740465,299,414,0,0,0,3,2,1,32,0003-00-0001-08.png,0002-00-0000-91.png
00000014,6,1,1438271743847,1438271743903,521,488,0,0,0,3,4,1,34,0003-00-0000-40.png,0004-00-0001-44.png
00000014,7,1,1438271745260,1438271745740,325,394,0,0,0,1,2,1,12,0001-00-0000-15.png,0002-00-0001-92.png
00000014,8,0,1438271747765,1438271748383,325,423,0,0,0,2,1,1,21,0002-00-0001-84.png,0001-00-0001-61.png
00000014,9,1,1438271750219,1438271750883,291,393,0,0,0,4,5,1,45,0004-00-0001-11.png,0005-00-0001-23.png
00000014,10,0,1438271752361,1438271752890,197,500,0,0,0,4,3,1,43,0004-00-0000-89.png,0003-00-0000-81.png
00000014,11,1,1438271753901,1438271754339,256,399,0,0,0,2,3,1,23,0002-00-0001-56.png,0003-00-0001-03.png
00000014,12,1,1438271756306,1438271756867,313,527,0,0,0,3,4,1,34,0003-00-0000-20.png,0004-00-0000-00.png
00000014,13,0,1438271759566,1438271760060,304,420,0,0,0,3,2,1,32,0003-00-0000-61.png,0002-00-0000-94.png
00000014,14,1,1438271761121,1438271761628,332,502,0,0,0,1,2,1,12,0001-00-0000-58.png,0002-00-0000-09.png
00000014,15,0,1438271763062,1438271763588,254,391,0,0,0,2,1,1,21,0002-00-0001-08.png,0001-00-0001-18.png
00000014,16,0,1438271767017,1438271767683,266,402,0,0,0,5,4,1,54,0005-00-0000-22.png,0004-00-0000-95.png
00000014,17,1,1438271776774,1438271777418,203,400,0,0,0,3,4,1,34,0003-00-0000-38.png,0004-00-0000-03.png
00000014,18,1,1438271779072,1438271779532,305,479,0,0,0,1,2,1,12,0001-00-0001-93.png,0002-00-0000-47.png
00000014,19,1,1438271781814,1438271782415,336,450,0,0,0,2,3,1,23,0002-00-0001-17.png,0003-00-0000-89.png
00000014,20,0,1438271784126,1438271784672,299,452,0,0,0,2,1,1,21,0002-00-0000-31.png,0001-00-0001-37.png
00000014,21,1,1438271786423,1438271787296,309,469,0,0,0,4,5,1,45,0004-00-0001-21.png,0005-00-0000-94.png
00000014,22,0,1438271789007,1438271789514,250,367,0,0,0,5,4,1,54,0005-00-0001-62.png,0004-00-0001-94.png
00000014,23,0,1438271791704,1438271792188,325,450,0,0,0,4,3,1,43,0004-00-0000-57.png,0003-00-0001-66.png
00000014,24,0,1438271794685,1438271795215,265,387,0,0,0,3,2,1,32,0003-00-0000-88.png,0002-00-0000-39.png
00000014,25,1,1438271796234,1438271796242,500,506,0,0,0,1,2,1,12,0001-00-0000-18.png,0002-00-0001-53.png
00000014,26,0,1438271797735,1438271798269,329,464,0,0,0,3,2,1,32,0003-00-0001-23.png,0002-00-0001-17.png
00000014,27,0,1438271799692,1438271800213,302,403,0,0,0,4,3,1,43,0004-00-0001-34.png,0003-00-0001-90.png
00000014,28,0,1438271801220,1438271802116,280,374,0,0,0,5,4,1,54,0005-00-0000-14.png,0004-00-0000-47.png
00000014,29,1,1438271803182,1438271803647,281,387,0,0,0,4,5,1,45,0004-00-0000-61.png,0005-00-0001-55.png
00000014,30,0,1438271805139,1438271805892,949,457,0,0,0,3,4,1,34,0003-00-0001-83.png,0004-00-0001-74.png
00000014,31,1,1438271806800,1438271807240,279,372,0,0,0,2,3,1,23,0002-00-0000-17.png,0003-00-0001-58.png
00000014,32,0,1438271808638,1438271809187,337,484,0,0,0,2,1,1,21,0002-00-0001-14.png,0001-00-0001-42.png
00000014,33,1,1438271810647,1438271811479,982,367,0,0,0,2,1,1,21,0002-00-0000-42.png,0001-00-0000-49.png
00000014,34,1,1438271812893,1438271813531,877,335,0,0,0,4,3,1,43,0004-00-0001-26.png,0003-00-0001-68.png
00000014,35,0,1438271814940,1438271815467,248,358,0,0,0,3,2,1,32,0003-00-0000-36.png,0002-00-0000-75.png
00000014,36,1,1438271816307,1438271816821,330,472,0,0,0,1,2,1,12,0001-00-0000-67.png,0002-00-0000-05.png
00000014,37,1,1438271818186,1438271818723,336,497,0,0,0,3,4,1,34,0003-00-0001-16.png,0004-00-0000-69.png
00000014,38,1,1438271820679,1438271821187,319,488,0,0,0,2,3,1,23,0002-00-0001-95.png,0003-00-0001-30.png
00000014,39,0,1438271823040,1438271823596,261,345,0,0,0,5,4,1,54,0005-00-0001-77.png,0004-00-0000-80.png
00000014,40,1,1438271824456,1438271824951,197,389,0,0,0,4,5,1,45,0004-00-0000-06.png,0005-00-0000-11.png
00000014,41,0,1438271826321,1438271827102,962,414,0,0,0,2,3,1,23,0002-00-0001-29.png,0003-00-0000-81.png
00000014,42,0,1438271828230,1438271828754,293,382,0,0,0,4,3,1,43,0004-00-0001-17.png,0003-00-0001-90.png
00000014,43,0,1438271829720,1438271829732,522,523,0,0,0,2,1,1,21,0002-00-0000-01.png,0001-00-0000-03.png
00000014,44,0,1438271831148,1438271831961,943,420,0,0,0,4,5,1,45,0004-00-0000-05.png,0005-00-0001-64.png
00000014,45,1,1438271832827,1438271833339,222,479,0,0,0,3,4,1,34,0003-00-0001-84.png,0004-00-0000-84.png
00000014,46,0,1438271834669,1438271835175,296,368,0,0,0,3,2,1,32,0003-00-0001-11.png,0002-00-0000-30.png
00000014,47,1,1438271836502,1438271837339,944,456,0,0,0,5,4,1,54,0005-00-0000-15.png,0004-00-0000-59.png
00000014,48,1,1438271838684,1438271839201,325,397,0,0,0,1,2,1,12,0001-00-0001-78.png,0002-00-0000-25.png
00000014,49,0,1438271840653,1438271841158,261,371,0,0,0,2,1,1,21,0002-00-0001-73.png,0001-00-0001-87.png
00000014,50,1,1438271842441,1438271843105,913,488,0,0,0,3,2,1,32,0003-00-0000-47.png,0002-00-0000-34.png
00000014,51,0,1438271844461,1438271845107,916,478,0,0,0,4,5,1,45,0004-00-0000-15.png,0005-00-0000-99.png
00000014,52,1,1438271846235,1438271846754,259,387,0,0,0,3,4,1,34,0003-00-0001-15.png,0004-00-0001-50.png
00000014,53,0,1438271848185,1438271848818,343,383,0,0,0,4,3,1,43,0004-00-0001-12.png,0003-00-0000-65.png
00000014,54,1,1438271850631,1438271851141,302,377,0,0,0,2,3,1,23,0002-00-0000-76.png,0003-00-0001-36.png
00000014,55,0,1438271852440,1438271852932,286,384,0,0,0,5,4,1,54,0005-00-0001-49.png,0004-00-0000-42.png
00000014,56,1,1438271853862,1438271854386,361,551,0,0,0,1,2,1,12,0001-00-0001-56.png,0002-00-0000-51.png
00000014,57,1,1438271855768,1438271856272,302,390,0,0,0,1,2,1,12,0001-00-0001-20.png,0002-00-0001-44.png
00000014,58,1,1438271858240,1438271858747,311,384,0,0,0,2,3,1,23,0002-00-0001-76.png,0003-00-0000-00.png
00000014,59,0,1438271860014,1438271860608,255,365,0,0,0,3,2,1,32,0003-00-0001-73.png,0002-00-0000-70.png
00000014,60,0,1438271861485,1438271862145,961,396,0,0,0,3,4,1,34,0003-00-0000-04.png,0004-00-0000-67.png
00000014,61,1,1438271863354,1438271863884,273,404,0,0,0,4,5,1,45,0004-00-0000-03.png,0005-00-0001-13.png
00000014,62,0,1438271865252,1438271865817,351,421,0,0,0,4,3,1,43,0004-00-0001-81.png,0003-00-0001-49.png
00000014,63,0,1438271867012,1438271867686,313,384,0,0,0,2,1,1,21,0002-00-0001-10.png,0001-00-0000-31.png
00000014,64,1,1438271868720,1438271869676,939,358,0,0,0,5,4,1,54,0005-00-0000-64.png,0004-00-0001-48.png
00000014,65,0,1438271871037,1438271871710,981,453,0,0,0,4,5,1,45,0004-00-0001-96.png,0005-00-0001-14.png
00000014,66,0,1438271872725,1438271873256,357,419,0,0,0,4,3,1,43,0004-00-0001-36.png,0003-00-0001-52.png
00000014,67,0,1438271874434,1438271875016,976,385,0,0,0,3,4,1,34,0003-00-0001-97.png,0004-00-0000-01.png
00000014,68,1,1438271876175,1438271876684,299,383,0,0,0,2,3,1,23,0002-00-0000-71.png,0003-00-0000-14.png
00000014,69,0,1438271878054,1438271878581,316,496,0,0,0,3,2,1,32,0003-00-0001-32.png,0002-00-0001-88.png
00000014,70,0,1438271879430,1438271880043,299,425,0,0,0,2,1,1,21,0002-00-0001-18.png,0001-00-0001-26.png
00000014,71,1,1438271881232,1438271882007,299,371,0,0,0,1,2,1,12,0001-00-0000-97.png,0002-00-0000-17.png
00000014,72,0,1438271883778,1438271884334,312,422,0,0,0,5,4,1,54,0005-00-0001-53.png,0004-00-0000-60.png
00000014,73,1,1438271885437,1438271886119,248,475,0,0,0,2,3,1,23,0002-00-0001-80.png,0003-00-0001-97.png
00000014,74,0,1438271887306,1438271887951,953,390,0,0,0,3,4,1,34,0003-00-0001-36.png,0004-00-0001-03.png
00000014,75,0,1438271889095,1438271889695,222,436,0,0,0,4,3,1,43,0004-00-0001-51.png,0003-00-0001-24.png
00000014,76,0,1438271890744,1438271892146,938,424,0,0,0,1,2,1,12,0001-00-0000-73.png,0002-00-0001-48.png
00000014,77,1,1438271893317,1438271893964,982,377,0,0,0,2,1,1,21,0002-00-0000-38.png,0001-00-0001-44.png
00000014,78,1,1438271895128,1438271895798,932,522,0,0,0,5,4,1,54,0005-00-0000-50.png,0004-00-0000-47.png
00000014,79,0,1438271897166,1438271897770,186,462,0,0,0,3,2,1,32,0003-00-0000-51.png,0002-00-0000-04.png
00000014,80,0,1438271898863,1438271899507,997,395,0,0,0,4,5,1,45,0004-00-0000-57.png,0005-00-0001-04.png
00000014,81,0,1438271900494,1438271901008,260,396,0,0,0,3,2,1,32,0003-00-0000-13.png,0002-00-0001-17.png
00000014,82,1,1438271902054,1438271902579,325,355,0,0,0,4,5,1,45,0004-00-0000-50.png,0005-00-0001-53.png
00000014,83,1,1438271903941,1438271903961,523,426,0,0,0,2,3,1,23,0002-00-0000-48.png,0003-00-0000-35.png
00000014,84,1,1438271905379,1438271905895,351,501,0,0,0,1,2,1,12,0001-00-0001-00.png,0002-00-0001-60.png
00000014,85,0,1438271907520,1438271908001,294,391,0,0,0,4,3,1,43,0004-00-0001-64.png,0003-00-0000-33.png
00000014,86,0,1438271908942,1438271909497,304,441,0,0,0,5,4,1,54,0005-00-0000-78.png,0004-00-0000-83.png
00000014,87,1,1438271910551,1438271911384,963,389,0,0,0,2,1,1,21,0002-00-0001-65.png,0001-00-0000-48.png
00000014,88,1,1438271912609,1438271913190,300,389,0,0,0,3,4,1,34,0003-00-0001-45.png,0004-00-0000-31.png
00000014,89,1,1438271914536,1438271915062,350,396,0,0,0,2,3,1,23,0002-00-0000-37.png,0003-00-0000-64.png
00000014,90,1,1438271916347,1438271916853,318,376,0,0,0,4,5,1,45,0004-00-0000-14.png,0005-00-0001-24.png
00000014,91,0,1438271918154,1438271918668,320,498,0,0,0,4,3,1,43,0004-00-0001-49.png,0003-00-0000-20.png
00000014,92,1,1438271919855,1438271920764,939,517,0,0,0,3,2,1,32,0003-00-0001-44.png,0002-00-0000-43.png
00000014,93,1,1438271921993,1438271922826,950,455,0,0,0,5,4,1,54,0005-00-0000-84.png,0004-00-0001-88.png
00000014,94,0,1438271923870,1438271927644,325,370,0,0,0,2,1,1,21,0002-00-0001-08.png,0001-00-0001-76.png
00000014,95,0,1438271928641,1438271929374,900,355,0,0,0,3,4,1,34,0003-00-0001-45.png,0004-00-0000-74.png
00000014,96,1,1438271930305,1438271930847,362,502,0,0,0,1,2,1,12,0001-00-0001-78.png,0002-00-0000-06.png
00000014,97,1,1438271931791,1438271932496,379,511,0,0,0,3,4,1,34,0003-00-0001-80.png,0004-00-0001-23.png
00000014,98,0,1438271933451,1438271934162,386,498,0,0,0,2,1,1,21,0002-00-0001-24.png,0001-00-0000-25.png
00000014,99,0,1438271935010,1438271935808,988,398,0,0,0,1,2,1,12,0001-00-0001-85.png,0002-00-0000-81.png
00000014,100,1,1438271936841,1438271937403,238,406,0,0,0,4,5,1,45,0004-00-0001-53.png,0005-00-0000-55.png
00000014,101,1,1438271938446,1438271939089,900,372,0,0,0,5,4,1,54,0005-00-0001-23.png,0004-00-0001-80.png
00000014,102,1,1438271940068,1438271940555,316,392,0,0,0,2,3,1,23,0002-00-0000-11.png,0003-00-0001-06.png
00000014,103,0,1438271941514,1438271942026,339,481,0,0,0,4,3,1,43,0004-00-0000-44.png,0003-00-0000-59.png
00000014,104,0,1438271942885,1438271943577,292,427,0,0,0,3,2,1,32,0003-00-0000-39.png,0002-00-0000-08.png
00000014,105,1,1438271944843,1438271945447,303,398,0,0,0,2,3,1,23,0002-00-0001-00.png,0003-00-0001-84.png
00000014,106,0,1438271946320,1438271946332,504,411,0,0,0,4,3,1,43,0004-00-0001-19.png,0003-00-0000-60.png
00000014,107,1,1438271947206,1438271947710,282,351,0,0,0,4,5,1,45,0004-00-0001-24.png,0005-00-0001-03.png
00000014,108,1,1438271948671,1438271949174,311,384,0,0,0,1,2,1,12,0001-00-0001-52.png,0002-00-0001-54.png
00000014,109,1,1438271950143,1438271950147,504,424,0,0,0,3,4,1,34,0003-00-0001-00.png,0004-00-0000-49.png
00000014,110,1,1438271951238,1438271951917,949,387,0,0,0,5,4,1,54,0005-00-0001-61.png,0004-00-0000-62.png
00000014,111,0,1438271952882,1438271953393,244,407,0,0,0,3,2,1,32,0003-00-0000-58.png,0002-00-0001-96.png
00000014,112,0,1438271954231,1438271954812,350,397,0,0,0,2,1,1,21,0002-00-0001-69.png,0001-00-0000-17.png
00000014,113,1,1438271955650,1438271956161,341,480,0,0,0,3,4,1,34,0003-00-0001-18.png,0004-00-0001-26.png
00000014,114,0,1438271957095,1438271957796,337,371,0,0,0,5,4,1,54,0005-00-0001-13.png,0004-00-0001-19.png
00000014,115,1,1438271958642,1438271959218,362,384,0,0,0,1,2,1,12,0001-00-0000-17.png,0002-00-0000-51.png
00000014,116,1,1438271960115,1438271960798,879,350,0,0,0,3,2,1,32,0003-00-0001-98.png,0002-00-0001-24.png
00000014,117,1,1438271961721,1438271961752,520,452,0,0,0,2,3,1,23,0002-00-0000-92.png,0003-00-0001-61.png
00000014,118,1,1438271963527,1438271963986,306,367,0,0,0,4,5,1,45,0004-00-0001-24.png,0005-00-0001-73.png
00000014,119,0,1438271964995,1438271965442,253,410,0,0,0,4,3,1,43,0004-00-0001-64.png,0003-00-0000-48.png
00000014,120,1,1438271966277,1438271966940,951,358,0,0,0,2,1,1,21,0002-00-0000-77.png,0001-00-0000-62.png
00000014,121,0,1438271967852,1438271968377,254,385,0,0,0,3,2,1,32,0003-00-0001-28.png,0002-00-0000-22.png
00000014,122,1,1438271969606,1438271970141,888,332,0,0,0,2,1,1,21,0002-00-0001-18.png,0001-00-0000-67.png
00000014,123,1,1438271971076,1438271971633,371,488,0,0,0,2,3,1,23,0002-00-0000-72.png,0003-00-0000-42.png
00000014,124,1,1438271972611,1438271973152,299,384,0,0,0,4,5,1,45,0004-00-0000-24.png,0005-00-0000-70.png
00000014,125,1,1438271974146,1438271974162,513,424,0,0,0,3,4,1,34,0003-00-0001-30.png,0004-00-0000-37.png
00000014,126,1,1438271975300,1438271975977,964,358,0,0,0,5,4,1,54,0005-00-0001-46.png,0004-00-0001-56.png
00000014,127,1,1438271976929,1438271977577,337,476,0,0,0,1,2,1,12,0001-00-0001-19.png,0002-00-0000-22.png
00000014,128,0,1438271979006,1438271979454,343,368,0,0,0,4,3,1,43,0004-00-0001-23.png,0003-00-0001-92.png
00000014,129,1,1438271980615,1438271980631,523,373,0,0,0,2,3,1,23,0002-00-0000-66.png,0003-00-0000-27.png
00000014,130,0,1438271981600,1438271982254,359,476,0,0,0,4,3,1,43,0004-00-0000-08.png,0003-00-0001-67.png
00000014,131,1,1438271983071,1438271983779,907,496,0,0,0,3,2,1,32,0003-00-0001-67.png,0002-00-0000-19.png
00000014,132,1,1438271984691,1438271985252,946,342,0,0,0,5,4,1,54,0005-00-0001-74.png,0004-00-0001-61.png
00000014,133,1,1438271986262,1438271986943,870,340,0,0,0,2,1,1,21,0002-00-0000-58.png,0001-00-0000-42.png
00000014,134,0,1438271987946,1438271988526,921,351,0,0,0,1,2,1,12,0001-00-0001-25.png,0002-00-0000-64.png
00000014,135,1,1438271989828,1438271989876,478,384,0,0,0,4,5,1,45,0004-00-0001-63.png,0005-00-0001-10.png
00000014,136,0,1438271990812,1438271991427,939,426,0,0,0,3,4,1,34,0003-00-0000-46.png,0004-00-0000-25.png
00000014,137,1,1438271994479,1438271995121,980,393,0,0,0,4,3,1,43,0004-00-0001-79.png,0003-00-0001-32.png
00000014,138,1,1438271996085,1438271996669,949,458,0,0,0,3,2,1,32,0003-00-0000-15.png,0002-00-0001-04.png
00000014,139,0,1438271997620,1438271998218,964,358,0,0,0,4,5,1,45,0004-00-0001-58.png,0005-00-0000-15.png
00000014,140,1,1438271999099,1438271999612,299,370,0,0,0,3,4,1,34,0003-00-0001-79.png,0004-00-0000-71.png
00000014,141,0,1438272000641,1438272000657,516,427,0,0,0,5,4,1,54,0005-00-0001-34.png,0004-00-0000-78.png
00000014,142,1,1438272001518,1438272001534,519,410,0,0,0,1,2,1,12,0001-00-0001-93.png,0002-00-0000-12.png
00000014,143,0,1438272002742,1438272002770,522,455,0,0,0,2,1,1,21,0002-00-0001-78.png,0001-00-0000-52.png
00000014,144,1,1438272003608,1438272004157,325,344,0,0,0,2,3,1,23,0002-00-0000-49.png,0003-00-0000-82.png
00000014,145,1,1438272005124,1438272005132,514,425,0,0,0,1,2,1,12,0001-00-0000-01.png,0002-00-0000-43.png
00000014,146,1,1438272006146,1438272006719,982,375,0,0,0,3,2,1,32,0003-00-0001-41.png,0002-00-0001-26.png
00000014,147,1,1438272007717,1438272008267,936,450,0,0,0,5,4,1,54,0005-00-0000-60.png,0004-00-0000-50.png
00000014,148,0,1438272009213,1438272010687,984,322,0,0,0,3,4,1,34,0003-00-0001-92.png,0004-00-0001-28.png
00000014,149,0,1438272011637,1438272012131,325,346,0,0,0,4,3,1,43,0004-00-0001-33.png,0003-00-0001-43.png
00000014,150,1,1438272013253,1438272013759,361,487,0,0,0,2,3,1,23,0002-00-0000-34.png,0003-00-0001-60.png
00000014,151,0,1438272014639,1438272014651,486,405,0,0,0,2,1,1,21,0002-00-0001-19.png,0001-00-0001-99.png
00000014,152,1,1438272015558,1438272016109,255,355,0,0,0,4,5,1,45,0004-00-0000-53.png,0005-00-0001-84.png
00000014,153,1,1438272017157,1438272017721,273,371,0,0,0,3,4,1,34,0003-00-0001-44.png,0004-00-0001-85.png
00000014,154,0,1438272018762,1438272019691,998,368,0,0,0,2,3,1,23,0002-00-0001-02.png,0003-00-0000-61.png
00000014,155,0,1438272020701,1438272021973,339,477,0,0,0,2,1,1,21,0002-00-0001-43.png,0001-00-0000-36.png
00000014,156,1,1438272022797,1438272023412,994,432,0,0,0,5,4,1,54,0005-00-0001-03.png,0004-00-0000-45.png
00000014,157,0,1438272024320,1438272024909,922,460,0,0,0,1,2,1,12,0001-00-0000-22.png,0002-00-0001-32.png
00000014,158,1,1438272025804,1438272026475,964,456,0,0,0,4,3,1,43,0004-00-0000-52.png,0003-00-0001-31.png
00000014,159,1,1438272027396,1438272027946,897,381,0,0,0,3,2,1,32,0003-00-0000-19.png,0002-00-0001-92.png
00000014,160,0,1438272028912,1438272029571,893,378,0,0,0,4,5,1,45,0004-00-0001-96.png,0005-00-0000-66.png
00000014,161,1,1438272030400,1438272030888,342,469,0,0,0,1,2,1,12,0001-00-0000-79.png,0002-00-0000-00.png
00000014,162,1,1438272031819,1438272032288,325,369,0,0,0,4,5,1,45,0004-00-0001-64.png,0005-00-0000-65.png
00000014,163,0,1438272033215,1438272033768,964,344,0,0,0,3,4,1,34,0003-00-0001-03.png,0004-00-0001-99.png
00000014,164,1,1438272034705,1438272034741,514,358,0,0,0,2,3,1,23,0002-00-0000-40.png,0003-00-0000-84.png
00000014,165,0,1438272035709,1438272036443,299,345,0,0,0,2,1,1,21,0002-00-0000-56.png,0001-00-0000-03.png
00000014,166,0,1438272037287,1438272037295,485,391,0,0,0,3,2,1,32,0003-00-0001-59.png,0002-00-0001-35.png
00000014,167,0,1438272038342,1438272038818,280,366,0,0,0,4,3,1,43,0004-00-0001-37.png,0003-00-0001-75.png
00000014,168,1,1438272039651,1438272040378,862,317,0,0,0,5,4,1,54,0005-00-0000-86.png,0004-00-0001-59.png
00000014,169,1,1438272041295,1438272041848,287,372,0,0,0,1,2,1,12,0001-00-0000-05.png,0002-00-0000-39.png
00000014,170,1,1438272042794,1438272042806,516,414,0,0,0,3,4,1,34,0003-00-0001-52.png,0004-00-0001-57.png
00000014,171,1,1438272043859,1438272044633,972,348,0,0,0,5,4,1,54,0005-00-0000-74.png,0004-00-0000-96.png
00000014,172,0,1438272045619,1438272046186,276,375,0,0,0,4,3,1,43,0004-00-0000-17.png,0003-00-0001-48.png
00000014,173,1,1438272047108,1438272047679,925,483,0,0,0,2,1,1,21,0002-00-0001-19.png,0001-00-0000-05.png
00000014,174,1,1438272048577,1438272049177,289,398,0,0,0,2,3,1,23,0002-00-0001-31.png,0003-00-0000-84.png
00000014,175,1,1438272050153,1438272050703,927,376,0,0,0,3,2,1,32,0003-00-0001-21.png,0002-00-0000-91.png
00000014,176,1,1438272051648,1438272052265,299,342,0,0,0,4,5,1,45,0004-00-0000-33.png,0005-00-0000-01.png
00000014,177,0,1438272053228,1438272053244,511,418,0,0,0,2,1,1,21,0002-00-0001-59.png,0001-00-0001-38.png
00000014,178,1,1438272054196,1438272054728,299,362,0,0,0,4,5,1,45,0004-00-0000-19.png,0005-00-0001-97.png
00000014,179,0,1438272055657,1438272055677,510,445,0,0,0,5,4,1,54,0005-00-0001-65.png,0004-00-0000-61.png
00000014,180,1,1438272056672,1438272057131,292,340,0,0,0,1,2,1,12,0001-00-0000-95.png,0002-00-0001-08.png
00000014,181,1,1438272058088,1438272058606,273,397,0,0,0,2,3,1,23,0002-00-0000-09.png,0003-00-0000-19.png
00000014,182,1,1438272059578,1438272060202,287,410,0,0,0,3,4,1,34,0003-00-0001-72.png,0004-00-0001-43.png
00000014,183,1,1438272061109,1438272061909,947,365,0,0,0,3,2,1,32,0003-00-0000-17.png,0002-00-0000-20.png
00000014,184,1,1438272062807,1438272063568,947,366,0,0,0,4,3,1,43,0004-00-0000-99.png,0003-00-0001-12.png
00000014,185,0,1438272064587,1438272065295,964,346,0,0,0,4,5,1,45,0004-00-0001-04.png,0005-00-0000-75.png
00000014,186,1,1438272066246,1438272066262,499,391,0,0,0,3,4,1,34,0003-00-0000-32.png,0004-00-0001-68.png
00000014,187,1,1438272067166,1438272067829,931,453,0,0,0,3,2,1,32,0003-00-0000-79.png,0002-00-0001-17.png
00000014,188,1,1438272068768,1438272069334,940,449,0,0,0,5,4,1,54,0005-00-0000-11.png,0004-00-0000-48.png
00000014,189,1,1438272070231,1438272070781,947,366,0,0,0,4,3,1,43,0004-00-0001-15.png,0003-00-0000-07.png
00000014,190,1,1438272071721,1438272072459,954,428,0,0,0,2,1,1,21,0002-00-0000-61.png,0001-00-0001-00.png
00000014,191,1,1438272073391,1438272074009,288,371,0,0,0,1,2,1,12,0001-00-0000-05.png,0002-00-0000-96.png
00000014,192,1,1438272074911,1438272075585,316,468,0,0,0,2,3,1,23,0002-00-0000-85.png,0003-00-0000-36.png
00000014,193,0,1438272076550,1438272076562,521,425,0,0,0,5,4,1,54,0005-00-0001-39.png,0004-00-0000-41.png
00000014,194,1,1438272077494,1438272078169,955,350,0,0,0,4,3,1,43,0004-00-0000-96.png,0003-00-0000-02.png
00000014,195,0,1438272079123,1438272079671,269,390,0,0,0,2,1,1,21,0002-00-0001-72.png,0001-00-0000-44.png
00000014,196,1,1438272080824,1438272080828,504,368,0,0,0,3,4,1,34,0003-00-0001-35.png,0004-00-0000-56.png
00000014,197,0,1438272081822,1438272082313,325,400,0,0,0,3,2,1,32,0003-00-0001-57.png,0002-00-0001-75.png
00000014,198,1,1438272083525,1438272084217,255,371,0,0,0,4,5,1,45,0004-00-0001-36.png,0005-00-0001-87.png
00000014,199,1,1438272085054,1438272085540,325,370,0,0,0,1,2,1,12,0001-00-0001-52.png,0002-00-0001-17.png
00000014,200,1,1438272086478,1438272087199,263,390,0,0,0,2,3,1,23,0002-00-0000-08.png,0003-00-0000-53.png
00000014,201,0,1438272088198,1438272088218,498,427,0,0,0,5,4,1,54,0005-00-0000-05.png,0004-00-0000-20.png
00000014,202,1,1438272089152,1438272089641,286,358,0,0,0,4,5,1,45,0004-00-0001-65.png,0005-00-0000-05.png
00000014,203,1,1438272090593,1438272090597,485,417,0,0,0,2,3,1,23,0002-00-0000-88.png,0003-00-0000-83.png
00000014,204,0,1438272091644,1438272092268,325,460,0,0,0,2,1,1,21,0002-00-0001-90.png,0001-00-0000-56.png
00000014,205,1,1438272093177,1438272093749,976,366,0,0,0,3,2,1,32,0003-00-0000-74.png,0002-00-0001-79.png
00000014,206,1,1438272094685,1438272095281,303,374,0,0,0,1,2,1,12,0001-00-0001-95.png,0002-00-0000-00.png
00000014,207,0,1438272096343,1438272096850,299,320,0,0,0,4,3,1,43,0004-00-0001-07.png,0003-00-0000-95.png
00000014,208,0,1438272098076,1438272098673,903,443,0,0,0,3,4,1,34,0003-00-0001-18.png,0004-00-0000-64.png
00000014,209,1,1438272099763,1438272100363,255,371,0,0,0,4,5,1,45,0004-00-0001-82.png,0005-00-0001-46.png
00000014,210,0,1438272101265,1438272101835,946,392,0,0,0,1,2,1,12,0001-00-0001-03.png,0002-00-0001-07.png
00000014,211,0,1438272102864,1438272103358,262,354,0,0,0,2,1,1,21,0002-00-0000-64.png,0001-00-0001-67.png
00000014,212,0,1438272104383,1438272104403,523,375,0,0,0,3,2,1,32,0003-00-0000-51.png,0002-00-0001-61.png
00000014,213,0,1438272105538,1438272106230,925,344,0,0,0,2,3,1,23,0002-00-0000-04.png,0003-00-0001-00.png
00000014,214,1,1438272107187,1438272107886,976,387,0,0,0,5,4,1,54,0005-00-0001-29.png,0004-00-0000-84.png
00000014,215,0,1438272108836,1438272109286,337,358,0,0,0,4,3,1,43,0004-00-0000-48.png,0003-00-0001-39.png
00000014,216,1,1438272110642,1438272110670,523,425,0,0,0,3,4,1,34,0003-00-0000-80.png,0004-00-0000-15.png
00000014,217,0,1438272111676,1438272112170,284,370,0,0,0,3,2,1,32,0003-00-0000-25.png,0002-00-0001-79.png
00000014,218,0,1438272113259,1438272113830,967,386,0,0,0,1,2,1,12,0001-00-0000-09.png,0002-00-0001-14.png
00000014,219,0,1438272114945,1438272114965,504,430,0,0,0,5,4,1,54,0005-00-0001-32.png,0004-00-0001-74.png
00000014,220,1,1438272115930,1438272116373,238,376,0,0,0,3,4,1,34,0003-00-0000-13.png,0004-00-0000-88.png
00000014,221,1,1438272117310,1438272117767,358,365,0,0,0,4,5,1,45,0004-00-0000-03.png,0005-00-0000-74.png
00000014,222,0,1438272118693,1438272118713,516,445,0,0,0,2,1,1,21,0002-00-0000-22.png,0001-00-0000-39.png
00000014,223,1,1438272119618,1438272120087,359,481,0,0,0,2,3,1,23,0002-00-0000-38.png,0003-00-0000-06.png
00000014,224,0,1438272121138,1438272121154,517,452,0,0,0,4,3,1,43,0004-00-0000-39.png,0003-00-0000-21.png
00000014,225,0,1438272122426,1438272122977,341,493,0,0,0,4,3,1,43,0004-00-0000-28.png,0003-00-0000-89.png
00000014,226,0,1438272123826,1438272124403,943,372,0,0,0,3,4,1,34,0003-00-0001-24.png,0004-00-0000-21.png
00000014,227,0,1438272125684,1438272126130,350,496,0,0,0,3,2,1,32,0003-00-0000-88.png,0002-00-0001-32.png
00000014,228,1,1438272127160,1438272127184,508,487,0,0,0,4,5,1,45,0004-00-0000-65.png,0005-00-0001-55.png
00000014,229,1,1438272128144,1438272128874,955,349,0,0,0,2,1,1,21,0002-00-0001-95.png,0001-00-0001-43.png
00000014,230,0,1438272129844,1438272130427,367,483,0,0,0,5,4,1,54,0005-00-0000-69.png,0004-00-0000-96.png
00000014,231,1,1438272131624,1438272132127,299,344,0,0,0,2,3,1,23,0002-00-0001-19.png,0003-00-0001-03.png
00000014,232,0,1438272133012,1438272133606,920,341,0,0,0,1,2,1,12,0001-00-0000-35.png,0002-00-0000-70.png
00000014,233,1,1438272134532,1438272134544,509,471,0,0,0,3,4,1,34,0003-00-0000-73.png,0004-00-0000-34.png
00000014,234,0,1438272135514,1438272136092,261,371,0,0,0,2,1,1,21,0002-00-0000-69.png,0001-00-0001-03.png
00000014,235,1,1438272136946,1438272137482,979,363,0,0,0,3,2,1,32,0003-00-0000-84.png,0002-00-0001-04.png
00000014,236,0,1438272138395,1438272138882,325,346,0,0,0,4,3,1,43,0004-00-0001-62.png,0003-00-0000-97.png
00000014,237,0,1438272139779,1438272139791,472,437,0,0,0,5,4,1,54,0005-00-0000-60.png,0004-00-0001-63.png
00000014,238,1,1438272140883,1438272140900,467,410,0,0,0,2,3,1,23,0002-00-0001-30.png,0003-00-0000-49.png
00000014,239,1,1438272141897,1438272142382,351,489,0,0,0,1,2,1,12,0001-00-0000-68.png,0002-00-0000-08.png
00000014,240,1,1438272143307,1438272144022,358,315,0,0,0,4,5,1,45,0004-00-0000-50.png,0005-00-0000-99.png
00000014,241,0,1438272144895,1438272145541,947,367,0,0,0,1,2,1,12,0001-00-0000-69.png,0002-00-0000-03.png
00000014,242,1,1438272146458,1438272146940,973,367,0,0,0,5,4,1,54,0005-00-0000-70.png,0004-00-0001-37.png
00000014,243,0,1438272147818,1438272148380,882,348,0,0,0,2,3,1,23,0002-00-0000-66.png,0003-00-0001-96.png
00000014,244,0,1438272149248,1438272149711,306,351,0,0,0,2,1,1,21,0002-00-0000-94.png,0001-00-0000-97.png
00000014,245,1,1438272150789,1438272150797,516,396,0,0,0,4,5,1,45,0004-00-0001-83.png,0005-00-0001-56.png
00000014,246,0,1438272151711,1438272152139,325,368,0,0,0,3,2,1,32,0003-00-0001-31.png,0002-00-0000-97.png
00000014,247,0,1438272153025,1438272153073,520,455,0,0,0,4,3,1,43,0004-00-0000-59.png,0003-00-0000-01.png
00000014,248,0,1438272153973,1438272154576,903,494,0,0,0,3,4,1,34,0003-00-0001-20.png,0004-00-0000-67.png
00000014,249,1,1438272155481,1438272155994,248,330,0,0,0,2,3,1,23,0002-00-0000-99.png,0003-00-0000-04.png
00000014,250,0,1438272156912,1438272157458,261,398,0,0,0,2,1,1,21,0002-00-0000-80.png,0001-00-0000-08.png
00000014,251,0,1438272158432,1438272158440,465,448,0,0,0,3,2,1,32,0003-00-0000-09.png,0002-00-0000-63.png
00000014,252,0,1438272159721,1438272159739,504,422,0,0,0,4,3,1,43,0004-00-0000-25.png,0003-00-0000-08.png
00000014,253,0,1438272160807,1438272161300,208,358,0,0,0,5,4,1,54,0005-00-0001-64.png,0004-00-0001-83.png
00000014,254,1,1438272162359,1438272162375,515,410,0,0,0,1,2,1,12,0001-00-0000-57.png,0002-00-0001-48.png
00000014,255,0,1438272163321,1438272163991,944,352,0,0,0,3,4,1,34,0003-00-0000-17.png,0004-00-0000-71.png
00000014,256,0,1438272164821,1438272165538,927,356,0,0,0,4,5,1,45,0004-00-0001-83.png,0005-00-0001-95.png
00000014,257,1,1438272166600,1438272167139,307,401,0,0,0,1,2,1,12,0001-00-0000-17.png,0002-00-0001-81.png
00000014,258,0,1438272167993,1438272168011,497,428,0,0,0,3,2,1,32,0003-00-0001-54.png,0002-00-0000-28.png
00000014,259,0,1438272168906,1438272168918,515,412,0,0,0,5,4,1,54,0005-00-0001-70.png,0004-00-0000-03.png
00000014,260,0,1438272169880,1438272170374,350,370,0,0,0,4,3,1,43,0004-00-0001-12.png,0003-00-0000-75.png
00000014,261,1,1438272171298,1438272172005,409,546,0,0,0,4,5,1,45,0004-00-0001-43.png,0005-00-0000-80.png
00000014,262,1,1438272172977,1438272173526,350,358,0,0,0,3,4,1,34,0003-00-0000-71.png,0004-00-0000-70.png
00000014,263,1,1438272174451,1438272175071,299,344,0,0,0,2,3,1,23,0002-00-0000-85.png,0003-00-0001-11.png
00000014,264,0,1438272176057,1438272176557,257,382,0,0,0,2,1,1,21,0002-00-0000-00.png,0001-00-0001-09.png
00000014,265,1,1438272177488,1438272178207,936,477,0,0,0,4,3,1,43,0004-00-0001-59.png,0003-00-0000-27.png
00000014,266,1,1438272179091,1438272179641,925,360,0,0,0,5,4,1,54,0005-00-0001-88.png,0004-00-0001-15.png
00000014,267,0,1438272180622,1438272181341,281,323,0,0,0,2,1,1,21,0002-00-0001-01.png,0001-00-0001-57.png
00000014,268,1,1438272182201,1438272182806,929,350,0,0,0,3,2,1,32,0003-00-0001-72.png,0002-00-0000-97.png
00000014,269,0,1438272183680,1438272184249,875,345,0,0,0,3,4,1,34,0003-00-0001-92.png,0004-00-0000-89.png
00000014,270,1,1438272185122,1438272185624,350,305,0,0,0,4,5,1,45,0004-00-0000-00.png,0005-00-0000-25.png
00000014,271,0,1438272186492,1438272187137,937,456,0,0,0,2,3,1,23,0002-00-0001-78.png,0003-00-0001-69.png
00000014,272,1,1438272188401,1438272189089,335,455,0,0,0,1,2,1,12,0001-00-0000-06.png,0002-00-0001-68.png
00000014,273,1,1438272190509,1438272191601,296,399,0,0,0,4,5,1,45,0004-00-0001-11.png,0005-00-0001-46.png
00000014,274,1,1438272192485,1438272193058,898,458,0,0,0,2,1,1,21,0002-00-0001-79.png,0001-00-0000-85.png
00000014,275,0,1438272193976,1438272193996,519,423,0,0,0,3,2,1,32,0003-00-0000-34.png,0002-00-0000-09.png
00000014,276,0,1438272195010,1438272195058,518,458,0,0,0,5,4,1,54,0005-00-0001-92.png,0004-00-0000-49.png
00000014,277,0,1438272196223,1438272196865,318,367,0,0,0,4,3,1,43,0004-00-0000-09.png,0003-00-0000-68.png
00000014,278,0,1438272197880,1438272198381,952,371,0,0,0,3,4,1,34,0003-00-0000-38.png,0004-00-0000-24.png
00000014,279,1,1438272199301,1438272200115,376,370,0,0,0,2,3,1,23,0002-00-0001-90.png,0003-00-0000-41.png
00000014,280,1,1438272201023,1438272201618,325,385,0,0,0,1,2,1,12,0001-00-0001-57.png,0002-00-0000-88.png
00000014,281,0,1438272202513,1438272203087,951,371,0,0,0,1,2,1,12,0001-00-0000-03.png,0002-00-0001-53.png
00000014,282,0,1438272204423,1438272204929,945,472,0,0,0,2,3,1,23,0002-00-0001-90.png,0003-00-0000-35.png
00000014,283,1,1438272206142,1438272206768,231,387,0,0,0,4,5,1,45,0004-00-0001-67.png,0005-00-0001-98.png
00000014,284,0,1438272207626,1438272207650,499,452,0,0,0,2,1,1,21,0002-00-0001-25.png,0001-00-0000-97.png
00000014,285,1,1438272208542,1438272209046,931,479,0,0,0,5,4,1,54,0005-00-0000-62.png,0004-00-0001-80.png
00000014,286,0,1438272209966,1438272210557,917,451,0,0,0,3,4,1,34,0003-00-0000-15.png,0004-00-0001-89.png
00000014,287,0,1438272211467,1438272212074,334,467,0,0,0,4,3,1,43,0004-00-0000-90.png,0003-00-0000-01.png
00000014,288,0,1438272213106,1438272213201,504,452,0,0,0,3,2,1,32,0003-00-0001-60.png,0002-00-0000-28.png
00000014,289,1,1438272214180,1438272214758,392,494,0,0,0,2,3,1,23,0002-00-0000-51.png,0003-00-0001-48.png
00000014,290,1,1438272215730,1438272216253,298,355,0,0,0,3,4,1,34,0003-00-0000-41.png,0004-00-0000-13.png
00000014,291,1,1438272217207,1438272217737,245,386,0,0,0,4,5,1,45,0004-00-0001-80.png,0005-00-0000-16.png
00000014,292,0,1438272218713,1438272219265,299,398,0,0,0,3,2,1,32,0003-00-0000-08.png,0002-00-0000-28.png
00000014,293,1,1438272220518,1438272221062,968,371,0,0,0,5,4,1,54,0005-00-0000-54.png,0004-00-0000-48.png
00000014,294,0,1438272221999,1438272222806,955,427,0,0,0,1,2,1,12,0001-00-0000-57.png,0002-00-0001-64.png
00000014,295,0,1438272223731,1438272224282,349,498,0,0,0,4,3,1,43,0004-00-0001-83.png,0003-00-0000-15.png
00000014,296,0,1438272225523,1438272225535,514,410,0,0,0,2,1,1,21,0002-00-0000-91.png,0001-00-0001-84.png
00000014,297,1,1438272226612,1438272226655,523,483,0,0,0,3,4,1,34,0003-00-0001-46.png,0004-00-0000-28.png
00000014,298,0,1438272227671,1438272227750,518,526,0,0,0,2,1,1,21,0002-00-0000-01.png,0001-00-0000-95.png
00000014,299,0,1438272228973,1438272229481,907,489,0,0,0,1,2,1,12,0001-00-0001-18.png,0002-00-0000-43.png
00000014,300,1,1438272230305,1438272230809,332,450,0,0,0,4,5,1,45,0004-00-0001-74.png,0005-00-0000-81.png
00000014,301,0,1438272231728,1438272231756,509,429,0,0,0,5,4,1,54,0005-00-0000-54.png,0004-00-0000-34.png
00000014,302,0,1438272232633,1438272233188,254,389,0,0,0,3,2,1,32,0003-00-0001-18.png,0002-00-0001-85.png
00000014,303,0,1438272234250,1438272234270,502,422,0,0,0,4,3,1,43,0004-00-0001-64.png,0003-00-0000-10.png
00000014,304,1,1438272235733,1438272235749,492,384,0,0,0,2,3,1,23,0002-00-0000-67.png,0003-00-0001-92.png
00000014,305,0,1438272236826,1438272237285,327,458,0,0,0,3,2,1,32,0003-00-0000-60.png,0002-00-0000-52.png
00000014,306,0,1438272238187,1438272238679,237,398,0,0,0,4,3,1,43,0004-00-0000-67.png,0003-00-0001-98.png
00000014,307,1,1438272239688,1438272239700,478,393,0,0,0,3,4,1,34,0003-00-0000-02.png,0004-00-0001-13.png
00000014,308,1,1438272240702,1438272240714,523,453,0,0,0,1,2,1,12,0001-00-0001-81.png,0002-00-0001-52.png
00000014,309,1,1438272241666,1438272242236,955,379,0,0,0,5,4,1,54,0005-00-0000-65.png,0004-00-0001-54.png
00000014,310,1,1438272243288,1438272243829,230,365,0,0,0,2,3,1,23,0002-00-0000-37.png,0003-00-0000-42.png
00000014,311,1,1438272244838,1438272244894,502,512,0,0,0,4,5,1,45,0004-00-0001-32.png,0005-00-0000-05.png
00000014,312,0,1438272246038,1438272246122,506,508,0,0,0,2,1,1,21,0002-00-0001-43.png,0001-00-0001-15.png
00000014,313,1,1438272247013,1438272247025,504,474,0,0,0,1,2,1,12,0001-00-0001-69.png,0002-00-0001-85.png
00000014,314,0,1438272247977,1438272248525,952,371,0,0,0,3,4,1,34,0003-00-0000-00.png,0004-00-0001-80.png
00000014,315,0,1438272249416,1438272249905,313,358,0,0,0,3,2,1,32,0003-00-0000-66.png,0002-00-0001-33.png
00000014,316,1,1438272250738,1438272251325,248,397,0,0,0,2,3,1,23,0002-00-0000-31.png,0003-00-0000-33.png
00000014,317,0,1438272252270,1438272252278,498,409,0,0,0,4,3,1,43,0004-00-0001-46.png,0003-00-0000-70.png
00000014,318,1,1438272253123,1438272254032,965,414,0,0,0,5,4,1,54,0005-00-0000-39.png,0004-00-0001-08.png
00000014,319,1,1438272254961,1438272255634,940,380,0,0,0,2,1,1,21,0002-00-0000-29.png,0001-00-0001-85.png
00000014,320,1,1438272256573,1438272257106,350,370,0,0,0,4,5,1,45,0004-00-0000-27.png,0005-00-0000-47.png
00000014,321,0,1438272258522,1438272258606,478,501,0,0,0,4,3,1,43,0004-00-0001-72.png,0003-00-0001-83.png
00000014,322,1,1438272259854,1438272259898,504,422,0,0,0,3,4,1,34,0003-00-0000-80.png,0004-00-0001-11.png
00000014,323,0,1438272260844,1438272261925,346,387,0,0,0,2,1,1,21,0002-00-0001-75.png,0001-00-0000-85.png
00000014,324,0,1438272262924,1438272262928,511,392,0,0,0,3,2,1,32,0003-00-0000-85.png,0002-00-0000-78.png
00000014,325,1,1438272263788,1438272264241,301,390,0,0,0,2,3,1,23,0002-00-0001-70.png,0003-00-0001-48.png
00000014,326,1,1438272265136,1438272265156,493,423,0,0,0,4,5,1,45,0004-00-0000-88.png,0005-00-0000-41.png
00000014,327,1,1438272266195,1438272266877,985,441,0,0,0,5,4,1,54,0005-00-0000-56.png,0004-00-0000-98.png
00000014,328,1,1438272267781,1438272268536,271,360,0,0,0,1,2,1,12,0001-00-0001-55.png,0002-00-0001-37.png
00000014,329,0,1438272269413,1438272269421,492,451,0,0,0,4,3,1,43,0004-00-0001-99.png,0003-00-0000-45.png
00000014,330,0,1438272270369,1438272270385,427,424,0,0,0,5,4,1,54,0005-00-0000-92.png,0004-00-0000-04.png
00000014,331,0,1438272271490,1438272271546,498,453,0,0,0,2,1,1,21,0002-00-0001-20.png,0001-00-0001-50.png
00000014,332,0,1438272272690,1438272273280,928,390,0,0,0,4,5,1,45,0004-00-0000-27.png,0005-00-0001-28.png
00000014,333,0,1438272274390,1438272274406,475,422,0,0,0,3,2,1,32,0003-00-0000-13.png,0002-00-0000-07.png
00000014,334,1,1438272275465,1438272275961,341,469,0,0,0,3,4,1,34,0003-00-0001-14.png,0004-00-0000-05.png
00000014,335,1,1438272277331,1438272277944,285,377,0,0,0,2,3,1,23,0002-00-0001-50.png,0003-00-0001-74.png
00000014,336,1,1438272279776,1438272279796,514,410,0,0,0,1,2,1,12,0001-00-0001-56.png,0002-00-0000-80.png
00000014,337,0,1438272280842,1438272281363,266,375,0,0,0,4,3,1,43,0004-00-0001-33.png,0003-00-0000-21.png
00000014,338,1,1438272282560,1438272282584,501,420,0,0,0,2,3,1,23,0002-00-0000-03.png,0003-00-0000-27.png
00000014,339,0,1438272283535,1438272283551,498,468,0,0,0,5,4,1,54,0005-00-0000-42.png,0004-00-0001-04.png
00000014,340,0,1438272284489,1438272285027,930,375,0,0,0,3,4,1,34,0003-00-0001-83.png,0004-00-0000-68.png
00000014,341,1,1438272286135,1438272286631,925,346,0,0,0,3,2,1,32,0003-00-0001-49.png,0002-00-0001-75.png
00000014,342,0,1438272287576,1438272288313,945,373,0,0,0,4,5,1,45,0004-00-0000-36.png,0005-00-0001-48.png
00000014,343,0,1438272289477,1438272289955,182,426,0,0,0,2,1,1,21,0002-00-0001-17.png,0001-00-0001-40.png
00000014,344,1,1438272291088,1438272291644,240,401,0,0,0,1,2,1,12,0001-00-0000-88.png,0002-00-0000-75.png
00000014,345,0,1438272292492,1438272293346,222,478,0,0,0,2,1,1,21,0002-00-0000-12.png,0001-00-0001-95.png
00000014,346,0,1438272294516,1438272295166,338,438,0,0,0,5,4,1,54,0005-00-0001-44.png,0004-00-0000-08.png
00000014,347,1,1438272296585,1438272297116,236,398,0,0,0,4,5,1,45,0004-00-0000-17.png,0005-00-0000-17.png
00000014,348,0,1438272298042,1438272298050,514,450,0,0,0,3,2,1,32,0003-00-0000-11.png,0002-00-0001-84.png
00000014,349,1,1438272298893,1438272299446,905,375,0,0,0,4,3,1,43,0004-00-0001-58.png,0003-00-0000-77.png
00000014,350,0,1438272300367,1438272300958,945,358,0,0,0,2,3,1,23,0002-00-0000-15.png,0003-00-0001-55.png
00000014,351,0,1438272302096,1438272302826,947,387,0,0,0,3,4,1,34,0003-00-0001-50.png,0004-00-0001-58.png
00000014,352,1,1438272303944,1438272304575,269,389,0,0,0,1,2,1,12,0001-00-0001-97.png,0002-00-0001-27.png
00000014,353,0,1438272305486,1438272306778,376,357,0,0,0,5,4,1,54,0005-00-0000-42.png,0004-00-0000-18.png
00000014,354,0,1438272308386,1438272309036,299,370,0,0,0,3,2,1,32,0003-00-0001-95.png,0002-00-0000-67.png
00000014,355,1,1438272309934,1438272310456,287,388,0,0,0,4,5,1,45,0004-00-0000-75.png,0005-00-0001-50.png
00000014,356,0,1438272311344,1438272312021,361,461,0,0,0,4,3,1,43,0004-00-0000-88.png,0003-00-0000-17.png
00000014,357,0,1438272312858,1438272313383,260,397,0,0,0,2,1,1,21,0002-00-0001-91.png,0001-00-0000-35.png
00000014,358,1,1438272314438,1438272314454,504,395,0,0,0,3,4,1,34,0003-00-0000-12.png,0004-00-0001-10.png
00000014,359,1,1438272315351,1438272315945,312,406,0,0,0,1,2,1,12,0001-00-0000-71.png,0002-00-0001-35.png
00000014,360,1,1438272316888,1438272317887,252,433,0,0,0,2,3,1,23,0002-00-0001-76.png,0003-00-0001-05.png
00000014,361,1,1438272319247,1438272319744,299,384,0,0,0,3,4,1,34,0003-00-0001-09.png,0004-00-0000-18.png
00000014,362,1,1438272320728,1438272321303,248,371,0,0,0,1,2,1,12,0001-00-0001-86.png,0002-00-0000-90.png
00000014,363,1,1438272322250,1438272323049,872,352,0,0,0,3,2,1,32,0003-00-0001-08.png,0002-00-0000-44.png
00000014,364,0,1438272323987,1438272324451,311,384,0,0,0,4,3,1,43,0004-00-0000-37.png,0003-00-0000-74.png
00000014,365,0,1438272325646,1438272326138,249,358,0,0,0,2,1,1,21,0002-00-0001-95.png,0001-00-0000-69.png
00000014,366,0,1438272327307,1438272327932,299,332,0,0,0,5,4,1,54,0005-00-0001-87.png,0004-00-0000-00.png
00000014,367,0,1438272328866,1438272329630,971,368,0,0,0,2,3,1,23,0002-00-0000-18.png,0003-00-0000-61.png
00000014,368,1,1438272330595,1438272331040,299,345,0,0,0,4,5,1,45,0004-00-0001-80.png,0005-00-0001-87.png
00000014,369,0,1438272331926,1438272331946,470,399,0,0,0,4,3,1,43,0004-00-0001-50.png,0003-00-0000-64.png
00000014,370,0,1438272332831,1438272333324,306,367,0,0,0,2,1,1,21,0002-00-0000-41.png,0001-00-0001-08.png
00000014,371,1,1438272334300,1438272334327,460,437,0,0,0,1,2,1,12,0001-00-0001-35.png,0002-00-0001-95.png
00000014,372,1,1438272335782,1438272336296,341,456,0,0,0,3,4,1,34,0003-00-0000-27.png,0004-00-0001-98.png
00000014,373,1,1438272337215,1438272337239,473,437,0,0,0,2,3,1,23,0002-00-0001-50.png,0003-00-0000-47.png
00000014,374,1,1438272338783,1438272338859,505,545,0,0,0,4,5,1,45,0004-00-0001-45.png,0005-00-0000-06.png
00000014,375,0,1438272339912,1438272341078,177,442,0,0,0,3,2,1,32,0003-00-0001-63.png,0002-00-0001-99.png
00000014,376,0,1438272341931,1438272342494,355,492,0,0,0,5,4,1,54,0005-00-0000-60.png,0004-00-0001-41.png
00000014,377,1,1438272343321,1438272343333,492,423,0,0,0,1,2,1,12,0001-00-0000-59.png,0002-00-0000-21.png
00000014,378,1,1438272344330,1438272344942,932,362,0,0,0,3,2,1,32,0003-00-0001-33.png,0002-00-0000-44.png
00000014,379,0,1438272345886,1438272346538,299,344,0,0,0,4,3,1,43,0004-00-0000-46.png,0003-00-0001-40.png
00000014,380,0,1438272347451,1438272347455,510,445,0,0,0,5,4,1,54,0005-00-0000-83.png,0004-00-0001-00.png
00000014,381,1,1438272348322,1438272348330,501,388,0,0,0,3,4,1,34,0003-00-0000-68.png,0004-00-0000-43.png
00000014,382,1,1438272349429,1438272349952,358,473,0,0,0,4,5,1,45,0004-00-0001-29.png,0005-00-0001-74.png
00000014,383,1,1438272350878,1438272350894,514,452,0,0,0,2,3,1,23,0002-00-0000-44.png,0003-00-0000-29.png
00000014,384,1,1438272351939,1438272352553,926,347,0,0,0,2,1,1,21,0002-00-0001-77.png,0001-00-0000-79.png
00000014,385,0,1438272353505,1438272354151,926,452,0,0,0,2,3,1,23,0002-00-0000-61.png,0003-00-0000-54.png
00000014,386,1,1438272355813,1438272356321,284,387,0,0,0,3,4,1,34,0003-00-0001-94.png,0004-00-0000-67.png
00000014,387,1,1438272357671,1438272358158,350,345,0,0,0,1,2,1,12,0001-00-0000-98.png,0002-00-0001-91.png
00000014,388,0,1438272359046,1438272359054,499,432,0,0,0,2,1,1,21,0002-00-0001-65.png,0001-00-0000-04.png
00000014,389,1,1438272359980,1438272360494,862,347,0,0,0,5,4,1,54,0005-00-0001-09.png,0004-00-0001-61.png
00000014,390,1,1438272361420,1438272362006,861,352,0,0,0,3,2,1,32,0003-00-0001-71.png,0002-00-0000-93.png
00000014,391,0,1438272362971,1438272363586,235,333,0,0,0,4,3,1,43,0004-00-0001-75.png,0003-00-0001-35.png
00000014,392,1,1438272364517,1438272365074,325,370,0,0,0,4,5,1,45,0004-00-0000-38.png,0005-00-0000-66.png
00000014,393,0,1438272365943,1438272365951,472,453,0,0,0,2,1,1,21,0002-00-0001-83.png,0001-00-0000-28.png
00000014,394,0,1438272367165,1438272367181,511,392,0,0,0,3,2,1,32,0003-00-0001-15.png,0002-00-0001-14.png
00000014,395,1,1438272368244,1438272368706,350,358,0,0,0,4,5,1,45,0004-00-0001-10.png,0005-00-0000-53.png
00000014,396,1,1438272369609,1438272369617,509,420,0,0,0,3,4,1,34,0003-00-0000-92.png,0004-00-0001-51.png
00000014,397,1,1438272370683,1438272370783,505,550,0,0,0,2,3,1,23,0002-00-0000-32.png,0003-00-0001-80.png
00000014,398,0,1438272371783,1438272372328,338,462,0,0,0,4,3,1,43,0004-00-0000-88.png,0003-00-0000-34.png
00000014,399,1,1438272373247,1438272373263,476,405,0,0,0,1,2,1,12,0001-00-0000-05.png,0002-00-0001-80.png
00000014,400,0,1438272374237,1438272374886,337,462,0,0,0,5,4,1,54,0005-00-0000-21.png,0004-00-0001-52.png
00000014,401,0,1438272376046,1438272376652,179,470,0,0,0,5,4,1,54,0005-00-0001-23.png,0004-00-0001-00.png
00000014,402,0,1438272377760,1438272378364,952,384,0,0,0,3,4,1,34,0003-00-0001-62.png,0004-00-0000-66.png
00000014,403,0,1438272379265,1438272380031,325,370,0,0,0,4,3,1,43,0004-00-0000-05.png,0003-00-0001-61.png
00000014,404,0,1438272381526,1438272382216,896,471,0,0,0,1,2,1,12,0001-00-0000-59.png,0002-00-0000-36.png
00000014,405,0,1438272384297,1438272384317,472,418,0,0,0,2,1,1,21,0002-00-0001-11.png,0001-00-0000-22.png
00000014,406,1,1438272386273,1438272386761,325,436,0,0,0,2,3,1,23,0002-00-0000-87.png,0003-00-0001-03.png
00000014,407,1,1438272387736,1438272387744,513,416,0,0,0,4,5,1,45,0004-00-0000-07.png,0005-00-0001-03.png
00000014,408,1,1438272388787,1438272389363,893,468,0,0,0,3,2,1,32,0003-00-0001-06.png,0002-00-0001-27.png
00000014,409,1,1438272390374,1438272390912,317,348,0,0,0,4,5,1,45,0004-00-0000-35.png,0005-00-0001-21.png
00000014,410,1,1438272392812,1438272392841,511,416,0,0,0,3,4,1,34,0003-00-0001-88.png,0004-00-0001-98.png
00000014,411,0,1438272393849,1438272394332,262,397,0,0,0,2,1,1,21,0002-00-0001-10.png,0001-00-0001-77.png
00000014,412,1,1438272395267,1438272395795,299,371,0,0,0,2,3,1,23,0002-00-0000-05.png,0003-00-0000-14.png
00000014,413,0,1438272396682,1438272396690,479,437,0,0,0,5,4,1,54,0005-00-0001-90.png,0004-00-0001-78.png
00000014,414,0,1438272397563,1438272397574,515,423,0,0,0,3,2,1,32,0003-00-0001-51.png,0002-00-0001-71.png
00000014,415,1,1438272398447,1438272398933,363,459,0,0,0,1,2,1,12,0001-00-0000-10.png,0002-00-0000-36.png
00000014,416,0,1438272399852,1438272399860,496,439,0,0,0,4,3,1,43,0004-00-0001-65.png,0003-00-0000-91.png
00000014,417,1,1438272400690,1438272401330,355,440,0,0,0,1,2,1,12,0001-00-0000-69.png,0002-00-0001-94.png
00000014,418,1,1438272402245,1438272402265,511,445,0,0,0,4,5,1,45,0004-00-0001-37.png,0005-00-0001-16.png
00000014,419,0,1438272403448,1438272403452,510,420,0,0,0,2,1,1,21,0002-00-0000-86.png,0001-00-0001-14.png
00000014,420,0,1438272404473,1438272404938,248,345,0,0,0,4,3,1,43,0004-00-0000-46.png,0003-00-0000-95.png
00000014,421,0,1438272405805,1438272406368,325,358,0,0,0,3,2,1,32,0003-00-0001-53.png,0002-00-0000-34.png
00000014,422,1,1438272407950,1438272407970,451,438,0,0,0,2,3,1,23,0002-00-0000-26.png,0003-00-0001-44.png
00000014,423,0,1438272408921,1438272409540,177,454,0,0,0,5,4,1,54,0005-00-0001-78.png,0004-00-0000-41.png
00000014,424,1,1438272410436,1438272410448,489,426,0,0,0,3,4,1,34,0003-00-0000-40.png,0004-00-0000-02.png
00000014,425,0,1438272411410,1438272411925,258,395,0,0,0,3,2,1,32,0003-00-0000-88.png,0002-00-0001-46.png
00000014,426,1,1438272412813,1438272412828,484,402,0,0,0,2,3,1,23,0002-00-0001-75.png,0003-00-0000-98.png
00000014,427,0,1438272413736,1438272414361,272,352,0,0,0,5,4,1,54,0005-00-0000-01.png,0004-00-0000-91.png
00000014,428,0,1438272415192,1438272415736,350,384,0,0,0,4,3,1,43,0004-00-0000-15.png,0003-00-0001-04.png
00000014,429,1,1438272416696,1438272417273,299,371,0,0,0,4,5,1,45,0004-00-0001-55.png,0005-00-0000-97.png
00000014,430,1,1438272418287,1438272418307,514,451,0,0,0,1,2,1,12,0001-00-0000-90.png,0002-00-0000-32.png
00000014,431,1,1438272419332,1438272419877,877,466,0,0,0,2,1,1,21,0002-00-0000-61.png,0001-00-0001-76.png
00000014,432,1,1438272420871,1438272421552,325,370,0,0,0,3,4,1,34,0003-00-0000-82.png,0004-00-0001-92.png
00000014,433,1,1438272422481,1438272423846,950,332,0,0,0,3,2,1,32,0003-00-0000-36.png,0002-00-0000-31.png
00000014,434,1,1438272425259,1438272425728,325,370,0,0,0,1,2,1,12,0001-00-0001-52.png,0002-00-0001-30.png
00000014,435,0,1438272426673,1438272426677,471,427,0,0,0,2,1,1,21,0002-00-0000-84.png,0001-00-0000-16.png
00000014,436,1,1438272427534,1438272428002,299,358,0,0,0,4,5,1,45,0004-00-0000-55.png,0005-00-0000-55.png
00000014,437,0,1438272429075,1438272429620,914,461,0,0,0,2,3,1,23,0002-00-0000-19.png,0003-00-0001-09.png
00000014,438,0,1438272430499,1438272431000,930,375,0,0,0,3,4,1,34,0003-00-0000-27.png,0004-00-0000-16.png
00000014,439,0,1438272432028,1438272432534,215,374,0,0,0,4,3,1,43,0004-00-0001-58.png,0003-00-0001-98.png
00000014,440,1,1438272433470,1438272434214,938,372,0,0,0,5,4,1,54,0005-00-0001-65.png,0004-00-0000-02.png
00000014,441,1,1438272435647,1438272436299,874,307,0,0,0,5,4,1,54,0005-00-0000-82.png,0004-00-0000-08.png
00000014,442,0,1438272437214,1438272437799,952,371,0,0,0,2,3,1,23,0002-00-0000-48.png,0003-00-0000-46.png
00000014,443,1,1438272438895,1438272439334,299,332,0,0,0,1,2,1,12,0001-00-0001-85.png,0002-00-0001-43.png
00000014,444,0,1438272440247,1438272440782,325,334,0,0,0,4,3,1,43,0004-00-0000-20.png,0003-00-0001-06.png
00000014,445,1,1438272441637,1438272442113,264,374,0,0,0,4,5,1,45,0004-00-0001-59.png,0005-00-0000-23.png
00000014,446,0,1438272442994,1438272443005,504,410,0,0,0,2,1,1,21,0002-00-0001-42.png,0001-00-0001-64.png
00000014,447,1,1438272443944,1438272444537,988,347,0,0,0,3,2,1,32,0003-00-0001-62.png,0002-00-0000-52.png
00000014,448,0,1438272445949,1438272446478,918,350,0,0,0,3,4,1,34,0003-00-0001-97.png,0004-00-0001-96.png
00000014,449,1,1438272447311,1438272447896,985,346,0,0,0,5,4,1,54,0005-00-0000-59.png,0004-00-0000-21.png
00000014,450,1,1438272448793,1438272449524,363,459,0,0,0,3,4,1,34,0003-00-0001-18.png,0004-00-0000-28.png
00000014,451,1,1438272450458,1438272450932,268,395,0,0,0,4,5,1,45,0004-00-0000-19.png,0005-00-0001-41.png
00000014,452,0,1438272451894,1438272452408,325,345,0,0,0,3,2,1,32,0003-00-0001-52.png,0002-00-0000-48.png
00000014,453,1,1438272453328,1438272453809,299,345,0,0,0,2,3,1,23,0002-00-0001-72.png,0003-00-0001-52.png
00000014,454,0,1438272454715,1438272455222,299,370,0,0,0,2,1,1,21,0002-00-0001-02.png,0001-00-0001-72.png
00000014,455,0,1438272456077,1438272456547,299,384,0,0,0,4,3,1,43,0004-00-0001-57.png,0003-00-0000-07.png
00000014,456,0,1438272457668,1438272458359,939,371,0,0,0,1,2,1,12,0001-00-0000-26.png,0002-00-0000-15.png
00000014,457,0,1438272459453,1438272459978,872,365,0,0,0,1,2,1,12,0001-00-0000-59.png,0002-00-0000-81.png
00000014,458,0,1438272461065,1438272461081,472,424,0,0,0,2,1,1,21,0002-00-0001-99.png,0001-00-0000-75.png
00000014,459,1,1438272461939,1438272461947,504,421,0,0,0,2,3,1,23,0002-00-0001-45.png,0003-00-0001-77.png
00000014,460,0,1438272463001,1438272463479,216,375,0,0,0,3,2,1,32,0003-00-0000-07.png,0002-00-0001-69.png
00000014,461,0,1438272468897,1438272468941,518,488,0,0,0,4,3,1,43,0004-00-0001-09.png,0003-00-0000-03.png
00000014,462,1,1438272470058,1438272470074,486,417,0,0,0,4,5,1,45,0004-00-0000-03.png,0005-00-0001-73.png
00000014,463,0,1438272471063,1438272471644,951,372,0,0,0,3,4,1,34,0003-00-0000-06.png,0004-00-0000-03.png
00000014,464,0,1438272472942,1438272473508,216,436,0,0,0,5,4,1,54,0005-00-0001-05.png,0004-00-0001-07.png
00000014,465,1,1438272474353,1438272474884,240,434,0,0,0,2,3,1,23,0002-00-0000-11.png,0003-00-0000-89.png
00000014,466,1,1438272475791,1438272475803,502,467,0,0,0,1,2,1,12,0001-00-0001-37.png,0002-00-0000-95.png
00000014,467,0,1438272476809,1438272477506,879,358,0,0,0,3,4,1,34,0003-00-0001-90.png,0004-00-0001-91.png
00000014,468,0,1438272478751,1438272478771,509,433,0,0,0,5,4,1,54,0005-00-0001-16.png,0004-00-0001-94.png
00000014,469,0,1438272479737,1438272480202,307,368,0,0,0,2,1,1,21,0002-00-0001-07.png,0001-00-0001-46.png
00000014,470,1,1438272481064,1438272481088,506,463,0,0,0,4,5,1,45,0004-00-0000-16.png,0005-00-0001-85.png
00000014,471,1,1438272482052,1438272483168,973,478,0,0,0,4,3,1,43,0004-00-0001-53.png,0003-00-0000-22.png
00000014,472,1,1438272484139,1438272484723,930,376,0,0,0,3,2,1,32,0003-00-0001-77.png,0002-00-0001-13.png
00000014,473,1,1438272485709,1438272486216,926,359,0,0,0,3,2,1,32,0003-00-0001-55.png,0002-00-0000-81.png
00000014,474,1,1438272487206,1438272487736,912,398,0,0,0,5,4,1,54,0005-00-0001-34.png,0004-00-0001-87.png
00000014,475,0,1438272488763,1438272489301,925,402,0,0,0,1,2,1,12,0001-00-0000-19.png,0002-00-0001-88.png
00000014,476,1,1438272490212,1438272490746,315,457,0,0,0,4,5,1,45,0004-00-0000-33.png,0005-00-0000-08.png
00000014,477,1,1438272491688,1438272492296,305,326,0,0,0,2,3,1,23,0002-00-0000-27.png,0003-00-0000-64.png
00000014,478,1,1438272493254,1438272493990,915,400,0,0,0,2,1,1,21,0002-00-0000-60.png,0001-00-0000-25.png
00000014,479,1,1438272494953,1438272495572,946,389,0,0,0,4,3,1,43,0004-00-0000-86.png,0003-00-0000-16.png
00000014,480,0,1438272496469,1438272497057,918,452,0,0,0,3,4,1,34,0003-00-0001-28.png,0004-00-0001-25.png
00000014,481,1,1438272497878,1438272498385,207,391,0,0,0,4,5,1,45,0004-00-0001-03.png,0005-00-0000-86.png
00000014,482,1,1438272499252,1438272499260,491,430,0,0,0,2,3,1,23,0002-00-0000-19.png,0003-00-0000-77.png
00000014,483,0,1438272500293,1438272500862,899,510,0,0,0,1,2,1,12,0001-00-0001-17.png,0002-00-0001-64.png
00000014,484,0,1438272501789,1438272502413,325,358,0,0,0,5,4,1,54,0005-00-0001-57.png,0004-00-0000-90.png
00000014,485,0,1438272503676,1438272503688,510,368,0,0,0,3,2,1,32,0003-00-0000-18.png,0002-00-0001-24.png
00000014,486,1,1438272504519,1438272505072,901,512,0,0,0,4,3,1,43,0004-00-0000-96.png,0003-00-0000-76.png
00000014,487,1,1438272505938,1438272505962,503,429,0,0,0,3,4,1,34,0003-00-0000-75.png,0004-00-0000-91.png
00000014,488,0,1438272506875,1438272506891,498,408,0,0,0,2,1,1,21,0002-00-0000-59.png,0001-00-0000-17.png
00000014,489,1,1438272507830,1438272507846,514,433,0,0,0,3,4,1,34,0003-00-0001-33.png,0004-00-0000-36.png
00000014,490,1,1438272508804,1438272509332,294,394,0,0,0,1,2,1,12,0001-00-0001-62.png,0002-00-0000-77.png
00000014,491,1,1438272510244,1438272510252,495,413,0,0,0,2,3,1,23,0002-00-0000-35.png,0003-00-0000-31.png
00000014,492,0,1438272511285,1438272511298,514,462,0,0,0,3,2,1,32,0003-00-0000-72.png,0002-00-0001-00.png
00000014,493,1,1438272512212,1438272512841,874,370,0,0,0,5,4,1,54,0005-00-0001-46.png,0004-00-0001-29.png
00000014,494,1,1438272513754,1438272514330,941,476,0,0,0,2,1,1,21,0002-00-0001-51.png,0001-00-0001-00.png
00000014,495,0,1438272515332,1438272515344,516,395,0,0,0,4,3,1,43,0004-00-0001-91.png,0003-00-0000-60.png
00000014,496,1,1438272516246,1438272516266,484,429,0,0,0,4,5,1,45,0004-00-0001-59.png,0005-00-0001-02.png
00000014,497,0,1438272517220,1438272517232,508,440,0,0,0,4,3,1,43,0004-00-0001-93.png,0003-00-0001-42.png
00000014,498,1,1438272518499,1438272519523,946,334,0,0,0,5,4,1,54,0005-00-0000-70.png,0004-00-0000-54.png
00000014,499,0,1438272520457,1438272521118,942,457,0,0,0,4,5,1,45,0004-00-0001-92.png,0005-00-0000-51.png
00000014,500,0,1438272521950,1438272522421,281,366,0,0,0,2,1,1,21,0002-00-0001-35.png,0001-00-0001-24.png
00000014,501,1,1438272523462,1438272524008,268,394,0,0,0,2,3,1,23,0002-00-0000-87.png,0003-00-0000-83.png
00000014,502,1,1438272524890,1438272524906,483,448,0,0,0,1,2,1,12,0001-00-0001-55.png,0002-00-0001-10.png
00000014,503,0,1438272525876,1438272525892,510,446,0,0,0,3,2,1,32,0003-00-0000-90.png,0002-00-0001-20.png
00000014,504,1,1438272526809,1438272526821,498,402,0,0,0,3,4,1,34,0003-00-0001-98.png,0004-00-0000-02.png
00000014,505,0,1438272527773,1438272528429,366,495,0,0,0,4,3,1,43,0004-00-0000-05.png,0003-00-0000-46.png
00000014,506,1,1438272540170,1438272540657,197,462,0,0,0,4,5,1,45,0004-00-0000-30.png,0005-00-0000-06.png
00000014,507,1,1438272541603,1438272541619,492,452,0,0,0,1,2,1,12,0001-00-0000-59.png,0002-00-0000-48.png
00000014,508,1,1438272542854,1438272543419,292,356,0,0,0,2,3,1,23,0002-00-0001-66.png,0003-00-0000-43.png
00000014,509,1,1438272544345,1438272544365,512,450,0,0,0,3,4,1,34,0003-00-0000-23.png,0004-00-0000-85.png
00000014,510,0,1438272545944,1438272546022,511,478,0,0,0,2,1,1,21,0002-00-0001-50.png,0001-00-0000-40.png
00000014,511,0,1438272547218,1438272547748,313,468,0,0,0,3,2,1,32,0003-00-0001-52.png,0002-00-0001-84.png
00000014,512,0,1438272549175,1438272549669,363,501,0,0,0,5,4,1,54,0005-00-0000-82.png,0004-00-0001-06.png
00000014,513,1,1438272550889,1438272551632,286,380,0,0,0,1,2,1,12,0001-00-0001-80.png,0002-00-0001-41.png
00000014,514,0,1438272552546,1438272553168,240,375,0,0,0,3,2,1,32,0003-00-0001-82.png,0002-00-0000-17.png
00000014,515,0,1438272554041,1438272554605,862,379,0,0,0,3,4,1,34,0003-00-0001-42.png,0004-00-0000-55.png
00000014,516,0,1438272557178,1438272557906,313,463,0,0,0,5,4,1,54,0005-00-0001-98.png,0004-00-0001-68.png
00000014,517,0,1438272558970,1438272559002,494,436,0,0,0,2,1,1,21,0002-00-0001-06.png,0001-00-0000-38.png
00000014,518,0,1438272560197,1438272560221,504,450,0,0,0,4,3,1,43,0004-00-0000-13.png,0003-00-0000-54.png
00000014,519,1,1438272561140,1438272561653,334,471,0,0,0,4,5,1,45,0004-00-0001-83.png,0005-00-0000-23.png
00000014,520,1,1438272562519,1438272563082,301,415,0,0,0,2,3,1,23,0002-00-0000-78.png,0003-00-0000-03.png
00000014,521,0,1438272564073,1438272564698,890,344,0,0,0,1,2,1,12,0001-00-0000-53.png,0002-00-0001-59.png
00000014,522,0,1438272565623,1438272565643,469,424,0,0,0,2,1,1,21,0002-00-0001-48.png,0001-00-0000-54.png
00000014,523,1,1438272566604,1438272567199,895,342,0,0,0,4,3,1,43,0004-00-0000-01.png,0003-00-0000-39.png
00000014,524,0,1438272568135,1438272568147,514,420,0,0,0,3,2,1,32,0003-00-0000-04.png,0002-00-0000-30.png
00000014,525,0,1438272569050,1438272569066,517,448,0,0,0,5,4,1,54,0005-00-0001-62.png,0004-00-0001-56.png
00000014,526,1,1438272570132,1438272570637,323,395,0,0,0,2,3,1,23,0002-00-0000-09.png,0003-00-0001-94.png
00000014,527,1,1438272571991,1438272572011,462,390,0,0,0,3,4,1,34,0003-00-0001-16.png,0004-00-0001-60.png
00000014,528,1,1438272572993,1438272573555,360,381,0,0,0,4,5,1,45,0004-00-0001-33.png,0005-00-0000-78.png
00000014,529,0,1438272575003,1438272575007,504,401,0,0,0,2,1,1,21,0002-00-0001-74.png,0001-00-0001-63.png
00000014,530,1,1438272575955,1438272576444,322,364,0,0,0,4,5,1,45,0004-00-0000-44.png,0005-00-0001-84.png
00000014,531,1,1438272577358,1438272577366,485,445,0,0,0,1,2,1,12,0001-00-0000-19.png,0002-00-0000-02.png
00000014,532,0,1438272578352,1438272578372,496,428,0,0,0,3,2,1,32,0003-00-0000-95.png,0002-00-0001-63.png
00000014,533,0,1438272579235,1438272579255,492,390,0,0,0,4,3,1,43,0004-00-0001-20.png,0003-00-0000-45.png
00000014,534,1,1438272580141,1438272580595,273,382,0,0,0,3,4,1,34,0003-00-0001-09.png,0004-00-0001-08.png
00000014,535,0,1438272582018,1438272582038,494,396,0,0,0,5,4,1,54,0005-00-0000-99.png,0004-00-0000-01.png
00000014,536,1,1438272582931,1438272582943,478,475,0,0,0,2,3,1,23,0002-00-0001-89.png,0003-00-0001-77.png
00000014,537,0,1438272583944,1438272584537,283,382,0,0,0,4,3,1,43,0004-00-0001-18.png,0003-00-0000-42.png
00000014,538,0,1438272585445,1438272585989,901,495,0,0,0,3,4,1,34,0003-00-0001-16.png,0004-00-0000-06.png
00000014,539,0,1438272587004,1438272587667,307,393,0,0,0,2,1,1,21,0002-00-0000-02.png,0001-00-0001-75.png
00000014,540,0,1438272588535,1438272589009,299,356,0,0,0,3,2,1,32,0003-00-0001-44.png,0002-00-0000-72.png
00000014,541,1,1438272589887,1438272590791,913,371,0,0,0,5,4,1,54,0005-00-0001-10.png,0004-00-0001-26.png
00000014,542,0,1438272592211,1438272592755,939,371,0,0,0,2,3,1,23,0002-00-0001-66.png,0003-00-0000-56.png
00000014,543,1,1438272594029,1438272594535,325,489,0,0,0,1,2,1,12,0001-00-0000-17.png,0002-00-0000-85.png
00000014,544,0,1438272595391,1438272596013,924,483,0,0,0,4,5,1,45,0004-00-0001-96.png,0005-00-0001-61.png
00000014,545,1,1438272597251,1438272597287,509,395,0,0,0,2,3,1,23,0002-00-0000-90.png,0003-00-0001-88.png
00000014,546,1,1438272598253,1438272598859,927,407,0,0,0,2,1,1,21,0002-00-0000-13.png,0001-00-0001-81.png
00000014,547,1,1438272599826,1438272599843,496,434,0,0,0,1,2,1,12,0001-00-0001-37.png,0002-00-0000-88.png
00000014,548,0,1438272600808,1438272600837,519,456,0,0,0,3,2,1,32,0003-00-0001-49.png,0002-00-0000-61.png
00000014,549,0,1438272601744,1438272602291,341,458,0,0,0,5,4,1,54,0005-00-0001-74.png,0004-00-0001-73.png
00000014,550,0,1438272603203,1438272603919,924,384,0,0,0,3,4,1,34,0003-00-0000-95.png,0004-00-0001-93.png
00000014,551,1,1438272604914,1438272605375,355,463,0,0,0,4,5,1,45,0004-00-0001-46.png,0005-00-0000-29.png
00000014,552,0,1438272606751,1438272606771,510,420,0,0,0,4,3,1,43,0004-00-0001-28.png,0003-00-0001-53.png
00000014,553,1,1438272607614,1438272607626,496,455,0,0,0,3,4,1,34,0003-00-0000-77.png,0004-00-0000-77.png
00000014,554,1,1438272608567,1438272609104,299,370,0,0,0,2,3,1,23,0002-00-0000-95.png,0003-00-0000-87.png
00000014,555,0,1438272610017,1438272610524,316,404,0,0,0,3,2,1,32,0003-00-0000-46.png,0002-00-0000-77.png
00000014,556,1,1438272611470,1438272612104,862,371,0,0,0,5,4,1,54,0005-00-0000-61.png,0004-00-0001-59.png
00000014,557,1,1438272613064,1438272613084,518,463,0,0,0,4,5,1,45,0004-00-0000-22.png,0005-00-0001-75.png
00000014,558,1,1438272614016,1438272614028,521,421,0,0,0,1,2,1,12,0001-00-0001-50.png,0002-00-0000-24.png
00000014,559,0,1438272615077,1438272615608,299,345,0,0,0,4,3,1,43,0004-00-0000-96.png,0003-00-0001-91.png
00000014,560,1,1438272616491,1438272617054,936,368,0,0,0,2,1,1,21,0002-00-0001-83.png,0001-00-0001-78.png
00000014,561,0,1438272617982,1438272617994,509,446,0,0,0,3,2,1,32,0003-00-0000-69.png,0002-00-0001-56.png
00000014,562,0,1438272618947,1438272619493,951,371,0,0,0,1,2,1,12,0001-00-0001-16.png,0002-00-0001-27.png
00000014,563,1,1438272620697,1438272621172,325,373,0,0,0,3,4,1,34,0003-00-0000-37.png,0004-00-0001-14.png
00000014,564,0,1438272622039,1438272622540,310,392,0,0,0,4,3,1,43,0004-00-0001-99.png,0003-00-0000-70.png
00000014,565,1,1438272623744,1438272623764,469,380,0,0,0,2,3,1,23,0002-00-0000-96.png,0003-00-0001-87.png
00000014,566,1,1438272624668,1438272625253,299,402,0,0,0,4,5,1,45,0004-00-0001-78.png,0005-00-0000-91.png
00000014,567,1,1438272626206,1438272626784,945,371,0,0,0,5,4,1,54,0005-00-0000-02.png,0004-00-0001-61.png
00000014,568,1,1438272627729,1438272628267,913,358,0,0,0,2,1,1,21,0002-00-0001-28.png,0001-00-0000-85.png
00000014,569,0,1438272629217,1438272629781,935,373,0,0,0,1,2,1,12,0001-00-0000-68.png,0002-00-0000-99.png
00000014,570,1,1438272630658,1438272631218,963,358,0,0,0,3,2,1,32,0003-00-0000-70.png,0002-00-0000-26.png
00000014,571,1,1438272632110,1438272632122,508,411,0,0,0,4,5,1,45,0004-00-0001-94.png,0005-00-0001-89.png
00000014,572,1,1438272633064,1438272633668,927,493,0,0,0,2,1,1,21,0002-00-0000-95.png,0001-00-0000-08.png
00000014,573,0,1438272634585,1438272635167,937,411,0,0,0,3,4,1,34,0003-00-0000-49.png,0004-00-0001-62.png
00000014,574,1,1438272636026,1438272636501,897,366,0,0,0,4,3,1,43,0004-00-0000-88.png,0003-00-0001-68.png
00000014,575,0,1438272637399,1438272637914,906,366,0,0,0,2,3,1,23,0002-00-0000-25.png,0003-00-0001-66.png
00000014,576,0,1438272638829,1438272639361,340,487,0,0,0,5,4,1,54,0005-00-0001-58.png,0004-00-0000-88.png
00000014,577,0,1438272640205,1438272640752,943,435,0,0,0,3,4,1,34,0003-00-0000-44.png,0004-00-0000-24.png
00000014,578,0,1438272641618,1438272642111,325,358,0,0,0,4,3,1,43,0004-00-0000-68.png,0003-00-0001-50.png
00000014,579,0,1438272643172,1438272643188,485,427,0,0,0,2,1,1,21,0002-00-0000-91.png,0001-00-0000-15.png
00000014,580,1,1438272644143,1438272645554,870,339,0,0,0,5,4,1,54,0005-00-0001-49.png,0004-00-0001-52.png
00000014,581,1,1438272646967,1438272647577,925,437,0,0,0,3,2,1,32,0003-00-0001-59.png,0002-00-0000-14.png
00000014,582,1,1438272648990,1438272649569,275,365,0,0,0,4,5,1,45,0004-00-0000-29.png,0005-00-0001-00.png
00000014,583,1,1438272650465,1438272651027,308,374,0,0,0,2,3,1,23,0002-00-0001-57.png,0003-00-0001-08.png
00000014,584,1,1438272651975,1438272652588,299,384,0,0,0,1,2,1,12,0001-00-0000-18.png,0002-00-0001-54.png
00000014,585,1,1438272653484,1438272653504,488,422,0,0,0,1,2,1,12,0001-00-0001-47.png,0002-00-0001-56.png
00000014,586,1,1438272654491,1438272655117,242,383,0,0,0,2,3,1,23,0002-00-0001-04.png,0003-00-0001-59.png
00000014,587,0,1438272656039,1438272656047,495,423,0,0,0,4,3,1,43,0004-00-0000-23.png,0003-00-0000-02.png
00000014,588,1,1438272656993,1438272658072,929,403,0,0,0,5,4,1,54,0005-00-0000-01.png,0004-00-0000-78.png
00000014,589,1,1438272658951,1438272659604,220,369,0,0,0,4,5,1,45,0004-00-0001-39.png,0005-00-0001-84.png
00000014,590,1,1438272660499,1438272661061,913,476,0,0,0,3,2,1,32,0003-00-0001-65.png,0002-00-0001-72.png
00000014,591,0,1438272662012,1438272662067,499,454,0,0,0,2,1,1,21,0002-00-0000-36.png,0001-00-0001-19.png
00000014,592,1,1438272662946,1438272663548,350,371,0,0,0,3,4,1,34,0003-00-0000-15.png,0004-00-0000-05.png
00000014,593,1,1438272664535,1438272664551,516,425,0,0,0,2,3,1,23,0002-00-0001-85.png,0003-00-0001-14.png
00000014,594,0,1438272665519,1438272666212,298,350,0,0,0,5,4,1,54,0005-00-0001-60.png,0004-00-0000-28.png
00000014,595,1,1438272667239,1438272667251,461,391,0,0,0,3,4,1,34,0003-00-0000-63.png,0004-00-0001-23.png
00000014,596,0,1438272668250,1438272668726,361,476,0,0,0,4,3,1,43,0004-00-0001-74.png,0003-00-0001-14.png
00000014,597,1,1438272669644,1438272670301,953,391,0,0,0,3,2,1,32,0003-00-0001-75.png,0002-00-0000-88.png
00000014,598,1,1438272671183,1438272671203,509,398,0,0,0,1,2,1,12,0001-00-0001-42.png,0002-00-0001-96.png
00000014,599,0,1438272672217,1438272672783,894,371,0,0,0,4,5,1,45,0004-00-0000-95.png,0005-00-0000-73.png
00000014,600,0,1438272673667,1438272673679,442,404,0,0,0,2,1,1,21,0002-00-0001-87.png,0001-00-0000-62.png
00000014,601,1,1438272674661,1438272675292,355,478,0,0,0,2,3,1,23,0002-00-0001-24.png,0003-00-0000-33.png
00000014,602,1,1438272676158,1438272676716,868,341,0,0,0,3,2,1,32,0003-00-0001-08.png,0002-00-0001-60.png
00000014,603,0,1438272677611,1438272678356,960,423,0,0,0,1,2,1,12,0001-00-0001-93.png,0002-00-0000-52.png
00000014,604,1,1438272679431,1438272679467,480,442,0,0,0,3,4,1,34,0003-00-0001-47.png,0004-00-0000-71.png
00000014,605,0,1438272680364,1438272680866,284,390,0,0,0,2,1,1,21,0002-00-0000-49.png,0001-00-0000-94.png
00000014,606,1,1438272682141,1438272682681,936,367,0,0,0,5,4,1,54,0005-00-0001-74.png,0004-00-0001-36.png
00000014,607,0,1438272683554,1438272684103,272,372,0,0,0,4,3,1,43,0004-00-0001-70.png,0003-00-0000-89.png
00000014,608,1,1438272684924,1438272685413,257,391,0,0,0,4,5,1,45,0004-00-0000-62.png,0005-00-0000-79.png
00000014,609,1,1438272686328,1438272686925,905,454,0,0,0,5,4,1,54,0005-00-0000-24.png,0004-00-0001-59.png
00000014,610,1,1438272687865,1438272687877,518,424,0,0,0,2,3,1,23,0002-00-0000-36.png,0003-00-0001-24.png
00000014,611,0,1438272688862,1438272688898,504,419,0,0,0,3,2,1,32,0003-00-0001-39.png,0002-00-0000-50.png
00000014,612,1,1438272689915,1438272690413,350,358,0,0,0,4,5,1,45,0004-00-0000-85.png,0005-00-0001-37.png
00000014,613,1,1438272691365,1438272691377,474,413,0,0,0,3,4,1,34,0003-00-0001-72.png,0004-00-0001-77.png
00000014,614,1,1438272692596,1438272693153,265,383,0,0,0,1,2,1,12,0001-00-0000-74.png,0002-00-0000-53.png
00000014,615,1,1438272694097,1438272694653,901,384,0,0,0,2,1,1,21,0002-00-0001-81.png,0001-00-0001-64.png
00000014,616,0,1438272695689,1438272696243,290,376,0,0,0,4,3,1,43,0004-00-0000-08.png,0003-00-0000-48.png
00000014,617,1,1438272697544,1438272698073,285,380,0,0,0,1,2,1,12,0001-00-0001-71.png,0002-00-0001-77.png
00000014,618,0,1438272698948,1438272699499,334,353,0,0,0,2,1,1,21,0002-00-0000-29.png,0001-00-0001-72.png
00000014,619,1,1438272700359,1438272700862,240,393,0,0,0,4,5,1,45,0004-00-0000-88.png,0005-00-0000-12.png
00000014,620,0,1438272701822,1438272702943,258,357,0,0,0,4,3,1,43,0004-00-0001-82.png,0003-00-0000-05.png
00000014,621,0,1438272704282,1438272715013,373,510,0,0,0,3,2,1,32,0003-00-0001-94.png,0002-00-0001-24.png
00000014,622,1,1438272716481,1438272716971,178,443,0,0,0,2,3,1,23,0002-00-0001-43.png,0003-00-0000-05.png
00000014,623,1,1438272717881,1438272718545,972,396,0,0,0,5,4,1,54,0005-00-0000-70.png,0004-00-0000-33.png
00000014,624,1,1438272719412,1438272719428,485,450,0,0,0,3,4,1,34,0003-00-0000-75.png,0004-00-0001-41.png
00000014,625,1,1438272720404,1438272720946,967,355,0,0,0,5,4,1,54,0005-00-0001-53.png,0004-00-0001-97.png
00000014,626,0,1438272721885,1438272722410,943,374,0,0,0,1,2,1,12,0001-00-0001-97.png,0002-00-0000-35.png
00000014,627,0,1438272723307,1438272723799,346,467,0,0,0,4,3,1,43,0004-00-0001-46.png,0003-00-0001-45.png
00000014,628,1,1438272724978,1438272725510,967,393,0,0,0,3,2,1,32,0003-00-0001-04.png,0002-00-0001-97.png
00000014,629,1,1438272726378,1438272726920,299,343,0,0,0,4,5,1,45,0004-00-0001-55.png,0005-00-0001-23.png
00000014,630,1,1438272727798,1438272727814,485,445,0,0,0,2,3,1,23,0002-00-0001-72.png,0003-00-0000-41.png
00000014,631,1,1438272728781,1438272729362,935,432,0,0,0,2,1,1,21,0002-00-0000-55.png,0001-00-0001-74.png
00000014,632,1,1438272730293,1438272730301,490,422,0,0,0,3,4,1,34,0003-00-0001-93.png,0004-00-0000-96.png
00000014,633,1,1438272731256,1438272731781,862,318,0,0,0,3,2,1,32,0003-00-0000-35.png,0002-00-0000-84.png
00000014,634,0,1438272732796,1438272733320,299,345,0,0,0,4,3,1,43,0004-00-0000-82.png,0003-00-0000-36.png
00000014,635,1,1438272734291,1438272734833,913,449,0,0,0,2,1,1,21,0002-00-0000-16.png,0001-00-0000-04.png
00000014,636,0,1438272735772,1438272736321,921,377,0,0,0,3,4,1,34,0003-00-0000-35.png,0004-00-0001-91.png
00000014,637,0,1438272737314,1438272737912,953,365,0,0,0,1,2,1,12,0001-00-0001-36.png,0002-00-0001-07.png
00000014,638,0,1438272738767,1438272738999,486,396,0,0,0,5,4,1,54,0005-00-0001-28.png,0004-00-0000-86.png
00000014,639,1,1438272740116,1438272740136,495,429,0,0,0,4,5,1,45,0004-00-0000-38.png,0005-00-0001-96.png
00000014,640,1,1438272741080,1438272741605,261,389,0,0,0,2,3,1,23,0002-00-0000-20.png,0003-00-0001-06.png
00000014,641,1,1438272742461,1438272742477,467,384,0,0,0,3,4,1,34,0003-00-0000-07.png,0004-00-0001-01.png
00000014,642,1,1438272743434,1438272744021,967,369,0,0,0,3,2,1,32,0003-00-0000-40.png,0002-00-0000-48.png
00000014,643,0,1438272744948,1438272745694,957,390,0,0,0,1,2,1,12,0001-00-0001-38.png,0002-00-0001-83.png
00000014,644,1,1438272747111,1438272747629,301,385,0,0,0,2,3,1,23,0002-00-0001-70.png,0003-00-0000-50.png
00000014,645,1,1438272749684,1438272750201,273,370,0,0,0,4,5,1,45,0004-00-0001-88.png,0005-00-0001-71.png
00000014,646,0,1438272751100,1438272751120,466,451,0,0,0,4,3,1,43,0004-00-0000-70.png,0003-00-0001-63.png
00000014,647,0,1438272752080,1438272752092,494,445,0,0,0,5,4,1,54,0005-00-0001-88.png,0004-00-0001-76.png
00000014,648,0,1438272753135,1438272753151,478,480,0,0,0,2,1,1,21,0002-00-0001-00.png,0001-00-0000-61.png
00000014,649,0,1438272755860,1438272756316,376,399,0,0,0,3,2,1,32,0003-00-0001-39.png,0002-00-0000-35.png
00000014,650,1,1438272757479,1438272757495,511,419,0,0,0,2,3,1,23,0002-00-0000-74.png,0003-00-0000-45.png
00000014,651,1,1438272761994,1438272762517,182,514,0,0,0,4,5,1,45,0004-00-0001-38.png,0005-00-0000-79.png
00000014,652,0,1438272763850,1438272763862,463,462,0,0,0,5,4,1,54,0005-00-0001-16.png,0004-00-0001-98.png
00000014,653,1,1438272764710,1438272765154,314,400,0,0,0,1,2,1,12,0001-00-0000-02.png,0002-00-0001-19.png
00000014,654,0,1438272766409,1438272766440,496,454,0,0,0,2,1,1,21,0002-00-0001-95.png,0001-00-0000-71.png
00000014,655,0,1438272767712,1438272768254,920,484,0,0,0,3,4,1,34,0003-00-0000-48.png,0004-00-0000-04.png
00000014,656,0,1438272773779,1438272773795,504,453,0,0,0,4,3,1,43,0004-00-0000-84.png,0003-00-0001-77.png
00000014,657,1,1438272774629,1438272775101,273,399,0,0,0,1,2,1,12,0001-00-0001-98.png,0002-00-0001-33.png
00000014,658,0,1438272776320,1438272776782,311,371,0,0,0,3,2,1,32,0003-00-0000-64.png,0002-00-0000-60.png
00000014,659,1,1438272778012,1438272778572,963,424,0,0,0,5,4,1,54,0005-00-0000-52.png,0004-00-0000-16.png
00000014,660,1,1438272779776,1438272780304,282,398,0,0,0,4,5,1,45,0004-00-0001-52.png,0005-00-0001-75.png
00000014,661,0,1438272781600,1438272782162,366,468,0,0,0,2,1,1,21,0002-00-0000-30.png,0001-00-0000-06.png
00000014,662,0,1438272784659,1438272785176,926,371,0,0,0,3,4,1,34,0003-00-0000-84.png,0004-00-0001-45.png
00000014,663,1,1438272786377,1438272786883,341,509,0,0,0,2,3,1,23,0002-00-0000-06.png,0003-00-0000-87.png
00000014,664,0,1438272787735,1438272788243,361,489,0,0,0,4,3,1,43,0004-00-0000-16.png,0003-00-0001-43.png
00000014,665,0,1438272789537,1438272789560,467,443,0,0,0,2,1,1,21,0002-00-0000-68.png,0001-00-0001-76.png
00000014,666,0,1438272790390,1438272790826,299,384,0,0,0,4,3,1,43,0004-00-0001-15.png,0003-00-0001-91.png
00000014,667,0,1438272791768,1438272792408,889,376,0,0,0,2,3,1,23,0002-00-0001-61.png,0003-00-0000-94.png
00000014,668,1,1438272793503,1438272793980,924,483,0,0,0,3,2,1,32,0003-00-0001-08.png,0002-00-0001-25.png
00000014,669,0,1438272794822,1438272795364,937,424,0,0,0,4,5,1,45,0004-00-0000-13.png,0005-00-0000-40.png
00000014,670,0,1438272796425,1438272796445,491,440,0,0,0,5,4,1,54,0005-00-0001-76.png,0004-00-0000-75.png
00000014,671,1,1438272797408,1438272797416,472,403,0,0,0,3,4,1,34,0003-00-0000-26.png,0004-00-0000-02.png
00000014,672,1,1438272798331,1438272798855,250,388,0,0,0,1,2,1,12,0001-00-0001-85.png,0002-00-0000-81.png
00000014,673,0,1438272799682,1438272799694,478,424,0,0,0,5,4,1,54,0005-00-0001-06.png,0004-00-0000-12.png
00000014,674,1,1438272800633,1438272801087,248,397,0,0,0,2,3,1,23,0002-00-0001-96.png,0003-00-0001-88.png
00000014,675,1,1438272801935,1438272801959,453,448,0,0,0,3,4,1,34,0003-00-0000-38.png,0004-00-0001-90.png
00000014,676,0,1438272802874,1438272802890,466,436,0,0,0,2,1,1,21,0002-00-0000-29.png,0001-00-0000-60.png
00000014,677,1,1438272803728,1438272804264,256,399,0,0,0,1,2,1,12,0001-00-0000-69.png,0002-00-0000-76.png
00000014,678,1,1438272805526,1438272806063,884,434,0,0,0,3,2,1,32,0003-00-0000-11.png,0002-00-0000-39.png
00000014,679,0,1438272806944,1438272807456,280,400,0,0,0,4,3,1,43,0004-00-0001-60.png,0003-00-0000-55.png
00000014,680,1,1438272808617,1438272808633,510,418,0,0,0,4,5,1,45,0004-00-0000-62.png,0005-00-0000-98.png
00000014,681,0,1438272810017,1438272810556,931,401,0,0,0,1,2,1,12,0001-00-0001-06.png,0002-00-0001-71.png
00000014,682,0,1438272812847,1438272813293,278,386,0,0,0,2,1,1,21,0002-00-0000-71.png,0001-00-0001-51.png
00000014,683,1,1438272814418,1438272814917,314,482,0,0,0,4,5,1,45,0004-00-0000-06.png,0005-00-0000-73.png
00000014,684,0,1438272815787,1438272816314,304,412,0,0,0,5,4,1,54,0005-00-0001-45.png,0004-00-0001-21.png
00000014,685,1,1438272817393,1438272818198,896,341,0,0,0,3,2,1,32,0003-00-0000-12.png,0002-00-0000-49.png
00000014,686,0,1438272819021,1438272819553,944,349,0,0,0,3,4,1,34,0003-00-0000-92.png,0004-00-0000-98.png
00000014,687,0,1438272820540,1438272820994,259,387,0,0,0,4,3,1,43,0004-00-0000-82.png,0003-00-0000-06.png
00000014,688,1,1438272822376,1438272822888,306,401,0,0,0,2,3,1,23,0002-00-0000-16.png,0003-00-0001-00.png
00000014,689,1,1438272824186,1438272824741,184,488,0,0,0,1,2,1,12,0001-00-0000-38.png,0002-00-0000-12.png
00000014,690,1,1438272825995,1438272826023,480,437,0,0,0,2,3,1,23,0002-00-0001-91.png,0003-00-0000-87.png
00000014,691,1,1438272826981,1438272827744,950,483,0,0,0,5,4,1,54,0005-00-0000-27.png,0004-00-0001-90.png
00000014,692,0,1438272828653,1438272829183,923,455,0,0,0,3,4,1,34,0003-00-0000-34.png,0004-00-0000-23.png
00000014,693,1,1438272830290,1438272830754,370,488,0,0,0,4,5,1,45,0004-00-0000-08.png,0005-00-0000-42.png
00000014,694,0,1438272831630,1438272832235,191,503,0,0,0,2,1,1,21,0002-00-0000-59.png,0001-00-0000-47.png
00000014,695,1,1438272833366,1438272833850,874,370,0,0,0,4,3,1,43,0004-00-0001-40.png,0003-00-0001-15.png
00000014,696,1,1438272834681,1438272835201,925,464,0,0,0,3,2,1,32,0003-00-0000-39.png,0002-00-0001-04.png
00000014,697,0,1438272836124,1438272836625,887,353,0,0,0,3,4,1,34,0003-00-0000-43.png,0004-00-0000-41.png
00000014,698,1,1438272837900,1438272837936,504,447,0,0,0,4,5,1,45,0004-00-0001-75.png,0005-00-0001-48.png
00000014,699,1,1438272838925,1438272839445,870,341,0,0,0,3,2,1,32,0003-00-0001-23.png,0002-00-0001-27.png
00000014,700,0,1438272840802,1438272840814,478,410,0,0,0,4,3,1,43,0004-00-0001-12.png,0003-00-0000-11.png
00000014,701,1,1438272841843,1438272842373,303,377,0,0,0,1,2,1,12,0001-00-0000-77.png,0002-00-0001-37.png
00000014,702,0,1438272843193,1438272843733,286,377,0,0,0,2,1,1,21,0002-00-0001-99.png,0001-00-0001-79.png
00000014,703,0,1438272844865,1438272845320,277,397,0,0,0,5,4,1,54,0005-00-0001-44.png,0004-00-0000-55.png
00000014,704,1,1438272846588,1438272847141,284,421,0,0,0,2,3,1,23,0002-00-0000-88.png,0003-00-0001-96.png
00000014,705,0,1438272848002,1438272848619,925,464,0,0,0,3,4,1,34,0003-00-0001-96.png,0004-00-0000-32.png
00000014,706,0,1438272849619,1438272849645,493,473,0,0,0,2,1,1,21,0002-00-0001-10.png,0001-00-0000-07.png
00000014,707,1,1438272851045,1438272851583,350,410,0,0,0,1,2,1,12,0001-00-0000-45.png,0002-00-0001-52.png
00000014,708,0,1438272852805,1438272852825,498,445,0,0,0,3,2,1,32,0003-00-0000-57.png,0002-00-0000-54.png
00000014,709,0,1438272853836,1438272854323,197,477,0,0,0,5,4,1,54,0005-00-0000-31.png,0004-00-0001-78.png
00000014,710,0,1438272855219,1438272855700,254,394,0,0,0,4,3,1,43,0004-00-0000-35.png,0003-00-0001-54.png
00000014,711,0,1438272856796,1438272857474,860,346,0,0,0,4,5,1,45,0004-00-0001-13.png,0005-00-0000-10.png
00000014,712,1,1438272859790,1438272859810,512,453,0,0,0,2,3,1,23,0002-00-0000-81.png,0003-00-0001-04.png
00000014,713,1,1438272860776,1438272861249,359,468,0,0,0,2,3,1,23,0002-00-0001-92.png,0003-00-0000-28.png
00000014,714,0,1438272862131,1438272862750,912,444,0,0,0,3,4,1,34,0003-00-0001-04.png,0004-00-0001-00.png
00000014,715,0,1438272863864,1438272863884,467,421,0,0,0,5,4,1,54,0005-00-0001-45.png,0004-00-0001-70.png
00000014,716,1,1438272864736,1438272864756,522,416,0,0,0,4,5,1,45,0004-00-0001-23.png,0005-00-0001-78.png
00000014,717,1,1438272865635,1438272866150,310,387,0,0,0,1,2,1,12,0001-00-0001-98.png,0002-00-0000-99.png
00000014,718,1,1438272867087,1438272868134,874,312,0,0,0,4,3,1,43,0004-00-0001-72.png,0003-00-0000-71.png
00000014,719,0,1438272869043,1438272869716,312,383,0,0,0,2,1,1,21,0002-00-0001-40.png,0001-00-0001-10.png
00000014,720,0,1438272870841,1438272870861,472,404,0,0,0,3,2,1,32,0003-00-0000-08.png,0002-00-0001-32.png
00000014,721,1,1438272871754,1438272871790,506,408,0,0,0,2,3,1,23,0002-00-0001-88.png,0003-00-0000-40.png
00000014,722,1,1438272872727,1438272873286,862,345,0,0,0,2,1,1,21,0002-00-0001-88.png,0001-00-0000-14.png
00000014,723,0,1438272874159,1438272874763,273,389,0,0,0,5,4,1,54,0005-00-0000-34.png,0004-00-0001-27.png
00000014,724,1,1438272875688,1438272875696,484,465,0,0,0,3,4,1,34,0003-00-0001-99.png,0004-00-0000-33.png
00000014,725,0,1438272876712,1438272877150,325,370,0,0,0,4,3,1,43,0004-00-0001-80.png,0003-00-0000-38.png
00000014,726,0,1438272878335,1438272878806,929,362,0,0,0,1,2,1,12,0001-00-0000-07.png,0002-00-0000-55.png
00000014,727,1,1438272880123,1438272880139,482,426,0,0,0,4,5,1,45,0004-00-0001-06.png,0005-00-0001-59.png
00000014,728,1,1438272880975,1438272881587,857,351,0,0,0,3,2,1,32,0003-00-0000-94.png,0002-00-0001-95.png
00000014,729,0,1438272882488,1438272883007,290,416,0,0,0,3,2,1,32,0003-00-0001-53.png,0002-00-0000-31.png
00000014,730,1,1438272883889,1438272884388,857,342,0,0,0,2,1,1,21,0002-00-0000-12.png,0001-00-0001-00.png
00000014,731,0,1438272885312,1438272885320,520,407,0,0,0,5,4,1,54,0005-00-0000-82.png,0004-00-0000-72.png
00000014,732,1,1438272886212,1438272886692,272,385,0,0,0,2,3,1,23,0002-00-0000-97.png,0003-00-0000-09.png
00000014,733,1,1438272887943,1438272887959,460,449,0,0,0,3,4,1,34,0003-00-0001-27.png,0004-00-0001-26.png
00000014,734,0,1438272888898,1438272889379,273,369,0,0,0,4,3,1,43,0004-00-0000-85.png,0003-00-0000-56.png
00000014,735,0,1438272890235,1438272890992,952,357,0,0,0,1,2,1,12,0001-00-0001-96.png,0002-00-0001-21.png
00000014,736,1,1438272892753,1438272893413,292,394,0,0,0,4,5,1,45,0004-00-0001-35.png,0005-00-0001-94.png
00000014,737,0,1438272894697,1438272894721,498,426,0,0,0,2,1,1,21,0002-00-0001-15.png,0001-00-0000-51.png
00000014,738,1,1438272895872,1438272895893,485,429,0,0,0,2,3,1,23,0002-00-0000-35.png,0003-00-0001-34.png
00000014,739,1,1438272896848,1438272897474,265,401,0,0,0,4,5,1,45,0004-00-0001-36.png,0005-00-0001-02.png
00000014,740,1,1438272898297,1438272898861,913,410,0,0,0,4,3,1,43,0004-00-0000-83.png,0003-00-0000-88.png
00000014,741,0,1438272899740,1438272900452,311,345,0,0,0,5,4,1,54,0005-00-0001-55.png,0004-00-0000-88.png
00000014,742,1,1438272901504,1438272901981,346,483,0,0,0,1,2,1,12,0001-00-0001-43.png,0002-00-0000-60.png
00000014,743,0,1438272903641,1438272904188,915,425,0,0,0,3,4,1,34,0003-00-0001-90.png,0004-00-0001-14.png
00000014,744,1,1438272905667,1438272906313,928,350,0,0,0,3,2,1,32,0003-00-0001-09.png,0002-00-0001-31.png
00000014,745,1,1438272907189,1438272907686,336,399,0,0,0,4,5,1,45,0004-00-0000-87.png,0005-00-0001-92.png
00000014,746,0,1438272909000,1438272909016,468,435,0,0,0,5,4,1,54,0005-00-0000-56.png,0004-00-0001-43.png
00000014,747,1,1438272909964,1438272910976,937,465,0,0,0,2,1,1,21,0002-00-0000-77.png,0001-00-0000-70.png
00000014,748,1,1438272911872,1438272912561,367,450,0,0,0,2,3,1,23,0002-00-0000-12.png,0003-00-0001-83.png
00000014,749,1,1438272913413,1438272913961,915,449,0,0,0,3,2,1,32,0003-00-0001-26.png,0002-00-0001-77.png
00000014,750,1,1438272914820,1438272915380,278,364,0,0,0,3,4,1,34,0003-00-0001-53.png,0004-00-0000-94.png
00000014,751,1,1438272917525,1438272918048,922,364,0,0,0,4,3,1,43,0004-00-0000-96.png,0003-00-0001-82.png
00000014,752,0,1438272918915,1438272919463,917,431,0,0,0,1,2,1,12,0001-00-0001-07.png,0002-00-0000-32.png
00000014,753,0,1438272920316,1438272920806,349,446,0,0,0,2,1,1,21,0002-00-0000-37.png,0001-00-0000-45.png
00000014,754,0,1438272921727,1438272922190,284,393,0,0,0,4,3,1,43,0004-00-0000-03.png,0003-00-0001-13.png
00000014,755,1,1438272923160,1438272923643,222,525,0,0,0,3,4,1,34,0003-00-0000-65.png,0004-00-0000-22.png
00000014,756,0,1438272924498,1438272924522,478,439,0,0,0,5,4,1,54,0005-00-0001-42.png,0004-00-0000-23.png
00000014,757,1,1438272925385,1438272925879,307,366,0,0,0,4,5,1,45,0004-00-0000-97.png,0005-00-0001-23.png
00000014,758,1,1438272926764,1438272927249,299,371,0,0,0,2,3,1,23,0002-00-0000-99.png,0003-00-0000-14.png
00000014,759,0,1438272928593,1438272929095,870,366,0,0,0,1,2,1,12,0001-00-0001-18.png,0002-00-0000-28.png
00000014,760,0,1438272930899,1438272930911,504,446,0,0,0,3,2,1,32,0003-00-0001-72.png,0002-00-0001-22.png
00000014,761,0,1438272931945,1438272932564,281,398,0,0,0,4,3,1,43,0004-00-0001-37.png,0003-00-0001-72.png
00000014,762,0,1438272933821,1438272933833,513,452,0,0,0,3,2,1,32,0003-00-0000-94.png,0002-00-0000-69.png
00000014,763,1,1438272934773,1438272934781,498,418,0,0,0,3,4,1,34,0003-00-0000-34.png,0004-00-0001-84.png
00000014,764,0,1438272935888,1438272935908,509,447,0,0,0,5,4,1,54,0005-00-0000-65.png,0004-00-0001-74.png
00000014,765,1,1438272936921,1438272937386,310,409,0,0,0,4,5,1,45,0004-00-0001-54.png,0005-00-0000-14.png
00000014,766,1,1438272938304,1438272938829,359,469,0,0,0,1,2,1,12,0001-00-0000-10.png,0002-00-0000-35.png
00000014,767,0,1438272939672,1438272940249,262,368,0,0,0,2,1,1,21,0002-00-0000-23.png,0001-00-0001-97.png
00000014,768,1,1438272941225,1438272941699,285,373,0,0,0,2,3,1,23,0002-00-0001-89.png,0003-00-0001-74.png
00000014,769,1,1438272942952,1438272943525,902,467,0,0,0,5,4,1,54,0005-00-0000-03.png,0004-00-0001-19.png
00000014,770,1,1438272944425,1438272944437,478,423,0,0,0,1,2,1,12,0001-00-0001-80.png,0002-00-0000-31.png
00000014,771,1,1438272945408,1438272945910,265,382,0,0,0,2,3,1,23,0002-00-0001-50.png,0003-00-0000-28.png
00000014,772,1,1438272946797,1438272947423,917,465,0,0,0,4,3,1,43,0004-00-0000-17.png,0003-00-0000-57.png
00000014,773,0,1438272948286,1438272949132,923,463,0,0,0,4,5,1,45,0004-00-0001-90.png,0005-00-0000-75.png
00000014,774,1,1438272950327,1438272950395,506,445,0,0,0,3,4,1,34,0003-00-0001-50.png,0004-00-0000-63.png
00000014,775,0,1438272951330,1438272951354,518,448,0,0,0,2,1,1,21,0002-00-0001-63.png,0001-00-0000-34.png
00000014,776,0,1438272952298,1438272952760,291,408,0,0,0,3,2,1,32,0003-00-0001-60.png,0002-00-0000-43.png
00000014,777,0,1438272953735,1438272953747,492,436,0,0,0,5,4,1,54,0005-00-0000-77.png,0004-00-0000-21.png
00000014,778,1,1438272955058,1438272955074,509,433,0,0,0,3,4,1,34,0003-00-0000-40.png,0004-00-0001-26.png
00000014,779,1,1438272955907,1438272956379,298,380,0,0,0,4,5,1,45,0004-00-0000-25.png,0005-00-0000-01.png
00000014,780,0,1438272957722,1438272958192,348,466,0,0,0,4,3,1,43,0004-00-0001-08.png,0003-00-0000-48.png
00000014,781,1,1438272959082,1438272959102,491,423,0,0,0,1,2,1,12,0001-00-0000-41.png,0002-00-0000-53.png
00000014,782,0,1438272959962,1438272959978,489,397,0,0,0,3,2,1,32,0003-00-0001-91.png,0002-00-0000-27.png
00000014,783,1,1438272960889,1438272960905,492,448,0,0,0,2,3,1,23,0002-00-0001-70.png,0003-00-0000-64.png
00000014,784,0,1438272961814,1438272962476,267,384,0,0,0,2,1,1,21,0002-00-0000-46.png,0001-00-0000-61.png
00000014,785,1,1438272963652,1438272964191,318,403,0,0,0,4,5,1,45,0004-00-0001-92.png,0005-00-0000-42.png
00000014,786,1,1438272965511,1438272965527,478,422,0,0,0,3,4,1,34,0003-00-0000-99.png,0004-00-0001-52.png
00000014,787,0,1438272966484,1438272966504,518,436,0,0,0,4,3,1,43,0004-00-0001-59.png,0003-00-0001-89.png
00000014,788,0,1438272967400,1438272967921,300,398,0,0,0,5,4,1,54,0005-00-0001-47.png,0004-00-0001-26.png
00000014,789,1,1438272969076,1438272969612,930,359,0,0,0,2,1,1,21,0002-00-0000-54.png,0001-00-0001-77.png
00000014,790,0,1438272970993,1438272970997,489,441,0,0,0,3,2,1,32,0003-00-0000-67.png,0002-00-0001-47.png
00000014,791,1,1438272971828,1438272972322,317,412,0,0,0,2,3,1,23,0002-00-0000-84.png,0003-00-0000-39.png
00000014,792,0,1438272973660,1438272974254,916,378,0,0,0,1,2,1,12,0001-00-0000-18.png,0002-00-0000-76.png
00000014,793,1,1438272975101,1438272975767,888,417,0,0,0,3,2,1,32,0003-00-0001-37.png,0002-00-0000-53.png
00000014,794,0,1438272977086,1438272977691,248,415,0,0,0,4,3,1,43,0004-00-0000-69.png,0003-00-0000-63.png
00000014,795,1,1438272978577,1438272979154,939,471,0,0,0,2,1,1,21,0002-00-0000-07.png,0001-00-0000-83.png
00000014,796,1,1438272980433,1438272980445,489,424,0,0,0,2,3,1,23,0002-00-0000-35.png,0003-00-0001-68.png
00000014,797,1,1438272981317,1438272981337,494,450,0,0,0,3,4,1,34,0003-00-0001-42.png,0004-00-0001-36.png
00000014,798,0,1438272982270,1438272982282,521,428,0,0,0,5,4,1,54,0005-00-0000-04.png,0004-00-0001-66.png
00000014,799,1,1438272983197,1438272983691,361,490,0,0,0,4,5,1,45,0004-00-0001-54.png,0005-00-0000-13.png
00000014,800,0,1438272984545,1438272985152,939,384,0,0,0,1,2,1,12,0001-00-0000-61.png,0002-00-0001-48.png
00000014,801,1,1438272985989,1438272986428,249,383,0,0,0,2,3,1,23,0002-00-0000-13.png,0003-00-0000-04.png
00000014,802,1,1438272987738,1438272988282,366,482,0,0,0,1,2,1,12,0001-00-0000-50.png,0002-00-0001-08.png
00000014,803,0,1438272989156,1438272990141,893,398,0,0,0,3,4,1,34,0003-00-0001-01.png,0004-00-0001-67.png
00000014,804,1,1438272990991,1438272991497,925,417,0,0,0,3,2,1,32,0003-00-0001-69.png,0002-00-0001-43.png
00000014,805,1,1438272992347,1438272992909,951,437,0,0,0,4,3,1,43,0004-00-0000-07.png,0003-00-0001-15.png
00000014,806,0,1438272993769,1438272994327,325,345,0,0,0,5,4,1,54,0005-00-0000-51.png,0004-00-0001-53.png
00000014,807,0,1438272995161,1438272995708,313,398,0,0,0,2,1,1,21,0002-00-0000-97.png,0001-00-0000-60.png
00000014,808,1,1438272996689,1438272997202,301,375,0,0,0,4,5,1,45,0004-00-0001-33.png,0005-00-0001-64.png
00000014,809,1,1438272998041,1438272998620,918,389,0,0,0,3,2,1,32,0003-00-0001-75.png,0002-00-0001-99.png
00000014,810,0,1438272999523,1438273000056,913,384,0,0,0,2,3,1,23,0002-00-0001-65.png,0003-00-0001-22.png
00000014,811,0,1438273001113,1438273001584,266,387,0,0,0,4,3,1,43,0004-00-0000-07.png,0003-00-0000-54.png
00000014,812,0,1438273002693,1438273003176,862,346,0,0,0,3,4,1,34,0003-00-0001-40.png,0004-00-0000-58.png
00000014,813,1,1438273004312,1438273004782,314,396,0,0,0,1,2,1,12,0001-00-0001-26.png,0002-00-0001-10.png
00000014,814,1,1438273006081,1438273006598,907,443,0,0,0,5,4,1,54,0005-00-0001-65.png,0004-00-0000-31.png
00000014,815,1,1438273007449,1438273007987,911,479,0,0,0,2,1,1,21,0002-00-0001-31.png,0001-00-0000-58.png
00000014,816,1,1438273008887,1438273009507,199,469,0,0,0,4,5,1,45,0004-00-0000-60.png,0005-00-0001-27.png
00000014,817,1,1438273010353,1438273010942,201,479,0,0,0,2,3,1,23,0002-00-0001-52.png,0003-00-0000-79.png
00000014,818,0,1438273011856,1438273011872,491,462,0,0,0,5,4,1,54,0005-00-0000-69.png,0004-00-0001-05.png
00000014,819,1,1438273012717,1438273013228,248,411,0,0,0,1,2,1,12,0001-00-0001-00.png,0002-00-0001-44.png
00000014,820,1,1438273014540,1438273014576,470,478,0,0,0,4,5,1,45,0004-00-0000-29.png,0005-00-0001-18.png
00000014,821,1,1438273015515,1438273016038,870,368,0,0,0,2,1,1,21,0002-00-0000-52.png,0001-00-0001-64.png
00000014,822,1,1438273017429,1438273018008,922,357,0,0,0,3,2,1,32,0003-00-0001-59.png,0002-00-0000-03.png
00000014,823,0,1438273018866,1438273019395,891,402,0,0,0,3,4,1,34,0003-00-0001-48.png,0004-00-0000-97.png
00000014,824,0,1438273020481,1438273020493,495,391,0,0,0,4,3,1,43,0004-00-0000-46.png,0003-00-0001-96.png
00000014,825,0,1438273021423,1438273021955,915,445,0,0,0,1,2,1,12,0001-00-0000-78.png,0002-00-0001-94.png
00000014,826,0,1438273022814,1438273023297,862,344,0,0,0,3,4,1,34,0003-00-0001-21.png,0004-00-0000-20.png
00000014,827,0,1438273024335,1438273024808,354,492,0,0,0,5,4,1,54,0005-00-0001-44.png,0004-00-0001-70.png
00000014,828,1,1438273025787,1438273025803,516,440,0,0,0,2,3,1,23,0002-00-0000-16.png,0003-00-0001-72.png
00000014,829,0,1438273026700,1438273027257,928,369,0,0,0,4,5,1,45,0004-00-0001-79.png,0005-00-0001-56.png
00000014,830,0,1438273028382,1438273028402,478,421,0,0,0,2,1,1,21,0002-00-0001-40.png,0001-00-0000-81.png
00000014,831,1,1438273029514,1438273030189,923,440,0,0,0,3,2,1,32,0003-00-0000-47.png,0002-00-0001-47.png
00000014,832,0,1438273031062,1438273031636,310,372,0,0,0,4,3,1,43,0004-00-0000-85.png,0003-00-0001-60.png
00000014,833,1,1438273032630,1438273032654,447,401,0,0,0,2,3,1,23,0002-00-0000-53.png,0003-00-0000-50.png
00000014,834,1,1438273033527,1438273034105,910,463,0,0,0,5,4,1,54,0005-00-0000-90.png,0004-00-0000-34.png
00000014,835,0,1438273035010,1438273035553,897,450,0,0,0,4,5,1,45,0004-00-0001-34.png,0005-00-0001-16.png
00000014,836,0,1438273036706,1438273037442,932,435,0,0,0,1,2,1,12,0001-00-0001-76.png,0002-00-0000-99.png
00000014,837,1,1438273038279,1438273038729,892,432,0,0,0,3,2,1,32,0003-00-0000-38.png,0002-00-0001-06.png
00000014,838,0,1438273039575,1438273040151,924,430,0,0,0,3,4,1,34,0003-00-0000-00.png,0004-00-0000-31.png
00000014,839,0,1438273041200,1438273041834,384,483,0,0,0,4,3,1,43,0004-00-0000-95.png,0003-00-0000-49.png
00000014,840,1,1438273042694,1438273043252,865,345,0,0,0,2,1,1,21,0002-00-0000-05.png,0001-00-0000-20.png
00000014,841,0,1438273044157,1438273044670,311,400,0,0,0,3,2,1,32,0003-00-0001-28.png,0002-00-0000-15.png
00000014,842,1,1438273045720,1438273046242,235,410,0,0,0,4,5,1,45,0004-00-0001-54.png,0005-00-0000-13.png
00000014,843,0,1438273047120,1438273048231,197,448,0,0,0,2,1,1,21,0002-00-0000-74.png,0001-00-0001-46.png
00000014,844,1,1438273049064,1438273049542,325,397,0,0,0,3,4,1,34,0003-00-0001-32.png,0004-00-0001-59.png
00000014,845,1,1438273050850,1438273052166,928,415,0,0,0,5,4,1,54,0005-00-0000-08.png,0004-00-0000-89.png
00000014,846,1,1438273053023,1438273053664,923,483,0,0,0,4,3,1,43,0004-00-0000-65.png,0003-00-0001-33.png
00000014,847,1,1438273054515,1438273055056,325,358,0,0,0,2,3,1,23,0002-00-0001-28.png,0003-00-0001-38.png
00000014,848,0,1438273055901,1438273056441,942,454,0,0,0,1,2,1,12,0001-00-0001-00.png,0002-00-0001-61.png
00000014,849,0,1438273057344,1438273057355,504,410,0,0,0,4,3,1,43,0004-00-0001-07.png,0003-00-0000-88.png
00000014,850,0,1438273058229,1438273058245,510,392,0,0,0,3,2,1,32,0003-00-0000-10.png,0002-00-0000-52.png
00000014,851,1,1438273060317,1438273060800,290,392,0,0,0,2,3,1,23,0002-00-0001-76.png,0003-00-0000-29.png
00000014,852,1,1438273061658,1438273062312,952,434,0,0,0,5,4,1,54,0005-00-0000-87.png,0004-00-0001-97.png
00000014,853,1,1438273063267,1438273063283,515,424,0,0,0,4,5,1,45,0004-00-0000-41.png,0005-00-0001-61.png
00000014,854,1,1438273064273,1438273064813,259,395,0,0,0,3,4,1,34,0003-00-0000-88.png,0004-00-0001-49.png
00000014,855,1,1438273065701,1438273066295,299,370,0,0,0,1,2,1,12,0001-00-0000-27.png,0002-00-0000-72.png
00000014,856,0,1438273067252,1438273067748,302,398,0,0,0,2,1,1,21,0002-00-0001-71.png,0001-00-0001-53.png
00000014,857,1,1438273068622,1438273069098,372,492,0,0,0,4,5,1,45,0004-00-0001-88.png,0005-00-0000-43.png
00000014,858,0,1438273069945,1438273071026,239,401,0,0,0,2,1,1,21,0002-00-0001-60.png,0001-00-0001-11.png
00000014,859,0,1438273072070,1438273072090,468,422,0,0,0,4,3,1,43,0004-00-0000-60.png,0003-00-0000-06.png
00000014,860,1,1438273074028,1438273074609,905,348,0,0,0,5,4,1,54,0005-00-0000-25.png,0004-00-0000-89.png
00000014,861,1,1438273076000,1438273076525,904,454,0,0,0,3,2,1,32,0003-00-0001-39.png,0002-00-0000-53.png
00000014,862,0,1438273077377,1438273077976,893,431,0,0,0,3,4,1,34,0003-00-0001-53.png,0004-00-0001-19.png
00000014,863,0,1438273079198,1438273079735,888,384,0,0,0,2,3,1,23,0002-00-0001-82.png,0003-00-0001-09.png
00000014,864,0,1438273080628,1438273081299,926,436,0,0,0,1,2,1,12,0001-00-0000-43.png,0002-00-0001-73.png
00000014,865,0,1438273082755,1438273082767,497,429,0,0,0,4,3,1,43,0004-00-0000-28.png,0003-00-0001-05.png
00000014,866,0,1438273083956,1438273084432,286,410,0,0,0,5,4,1,54,0005-00-0000-97.png,0004-00-0000-17.png
00000014,867,1,1438273085713,1438273086207,900,474,0,0,0,2,1,1,21,0002-00-0001-42.png,0001-00-0000-26.png
00000014,868,0,1438273087134,1438273087714,928,469,0,0,0,1,2,1,12,0001-00-0000-75.png,0002-00-0001-20.png
00000014,869,0,1438273088617,1438273089251,951,371,0,0,0,3,4,1,34,0003-00-0000-69.png,0004-00-0000-58.png
00000014,870,1,1438273090283,1438273090791,939,405,0,0,0,3,2,1,32,0003-00-0001-03.png,0002-00-0000-61.png
00000014,871,0,1438273091668,1438273092297,900,384,0,0,0,4,5,1,45,0004-00-0000-94.png,0005-00-0001-19.png
00000014,872,1,1438273093138,1438273093706,282,380,0,0,0,2,3,1,23,0002-00-0001-64.png,0003-00-0000-81.png
00000014,873,0,1438273094650,1438273094676,499,425,0,0,0,5,4,1,54,0005-00-0000-36.png,0004-00-0001-30.png
00000014,874,1,1438273095889,1438273095901,512,415,0,0,0,2,3,1,23,0002-00-0001-20.png,0003-00-0000-81.png
00000014,875,1,1438273096842,1438273097910,888,345,0,0,0,2,1,1,21,0002-00-0000-21.png,0001-00-0000-92.png
00000014,876,1,1438273098803,1438273099310,311,401,0,0,0,3,4,1,34,0003-00-0000-81.png,0004-00-0000-64.png
00000014,877,1,1438273100235,1438273101064,388,459,0,0,0,4,5,1,45,0004-00-0001-59.png,0005-00-0001-76.png
00000014,878,0,1438273101909,1438273101933,458,470,0,0,0,3,2,1,32,0003-00-0001-40.png,0002-00-0000-73.png
00000014,879,0,1438273103076,1438273103593,946,400,0,0,0,1,2,1,12,0001-00-0000-25.png,0002-00-0001-94.png
00000014,880,0,1438273104975,1438273105784,288,392,0,0,0,4,3,1,43,0004-00-0000-23.png,0003-00-0001-68.png
00000014,881,1,1438273106781,1438273107646,946,341,0,0,0,2,1,1,21,0002-00-0001-55.png,0001-00-0001-71.png
00000014,882,1,1438273108481,1438273109055,359,469,0,0,0,4,5,1,45,0004-00-0001-59.png,0005-00-0001-77.png
00000014,883,1,1438273109949,1438273110536,900,461,0,0,0,3,2,1,32,0003-00-0000-00.png,0002-00-0000-11.png
00000014,884,1,1438273111409,1438273112102,936,405,0,0,0,4,3,1,43,0004-00-0000-26.png,0003-00-0000-85.png
00000014,885,0,1438273112982,1438273113503,902,468,0,0,0,3,4,1,34,0003-00-0000-98.png,0004-00-0000-54.png
00000014,886,0,1438273114445,1438273114991,948,337,0,0,0,1,2,1,12,0001-00-0001-13.png,0002-00-0000-68.png
00000014,887,1,1438273115931,1438273116426,929,428,0,0,0,5,4,1,54,0005-00-0000-75.png,0004-00-0001-63.png
00000014,888,1,1438273117723,1438273117743,494,423,0,0,0,2,3,1,23,0002-00-0000-25.png,0003-00-0001-12.png
00000014,889,0,1438273118676,1438273119229,923,416,0,0,0,4,5,1,45,0004-00-0001-44.png,0005-00-0000-54.png
00000014,890,1,1438273120455,1438273121169,874,315,0,0,0,5,4,1,54,0005-00-0001-14.png,0004-00-0001-55.png
00000014,891,1,1438273122527,1438273123058,349,461,0,0,0,3,4,1,34,0003-00-0000-14.png,0004-00-0000-76.png
00000014,892,1,1438273123984,1438273124598,286,384,0,0,0,2,3,1,23,0002-00-0001-76.png,0003-00-0000-34.png
00000014,893,1,1438273125473,1438273126584,936,381,0,0,0,2,1,1,21,0002-00-0000-73.png,0001-00-0001-94.png
00000014,894,1,1438273127488,1438273128021,859,368,0,0,0,3,2,1,32,0003-00-0000-99.png,0002-00-0000-34.png
00000014,895,1,1438273128916,1438273128936,521,407,0,0,0,1,2,1,12,0001-00-0001-89.png,0002-00-0000-85.png
00000014,896,0,1438273129904,1438273130411,273,397,0,0,0,4,3,1,43,0004-00-0000-17.png,0003-00-0001-98.png
00000014,897,1,1438273131282,1438273131304,396,450,0,0,0,3,4,1,34,0003-00-0000-62.png,0004-00-0000-75.png
00000014,898,1,1438273132238,1438273132258,498,435,0,0,0,1,2,1,12,0001-00-0000-40.png,0002-00-0000-81.png
00000014,899,1,1438273133186,1438273133202,512,418,0,0,0,2,3,1,23,0002-00-0001-01.png,0003-00-0000-86.png
00000014,900,0,1438273134186,1438273134780,186,507,0,0,0,3,2,1,32,0003-00-0000-21.png,0002-00-0000-87.png
00000014,901,1,1438273135853,1438273136425,874,313,0,0,0,5,4,1,54,0005-00-0000-12.png,0004-00-0000-27.png
00000014,902,1,1438273137306,1438273137796,297,398,0,0,0,4,5,1,45,0004-00-0000-82.png,0005-00-0000-13.png
00000014,903,1,1438273138651,1438273139360,940,449,0,0,0,2,1,1,21,0002-00-0001-50.png,0001-00-0000-00.png
00000014,904,1,1438273140260,1438273140949,924,479,0,0,0,4,3,1,43,0004-00-0001-94.png,0003-00-0001-79.png
00000014,905,0,1438273141890,1438273142519,954,477,0,0,0,2,3,1,23,0002-00-0001-42.png,0003-00-0000-14.png
00000014,906,0,1438273143410,1438273143854,283,398,0,0,0,3,2,1,32,0003-00-0001-68.png,0002-00-0000-09.png
00000014,907,0,1438273144841,1438273145282,286,403,0,0,0,4,3,1,43,0004-00-0001-33.png,0003-00-0001-92.png
00000014,908,1,1438273146192,1438273146647,351,489,0,0,0,4,5,1,45,0004-00-0001-65.png,0005-00-0000-42.png
00000014,909,0,1438273147562,1438273148200,287,370,0,0,0,2,1,1,21,0002-00-0000-08.png,0001-00-0001-41.png
00000014,910,1,1438273149198,1438273149222,483,401,0,0,0,1,2,1,12,0001-00-0001-40.png,0002-00-0001-28.png
00000014,911,1,1438273150522,1438273151001,870,366,0,0,0,5,4,1,54,0005-00-0001-56.png,0004-00-0001-60.png
00000014,912,0,1438273151839,1438273152414,927,377,0,0,0,3,4,1,34,0003-00-0000-00.png,0004-00-0000-72.png
00000014,913,1,1438273153373,1438273153393,499,426,0,0,0,1,2,1,12,0001-00-0001-93.png,0002-00-0001-53.png
00000014,914,0,1438273154288,1438273154296,498,463,0,0,0,5,4,1,54,0005-00-0000-96.png,0004-00-0001-32.png
00000014,915,1,1438273155263,1438273156396,885,358,0,0,0,4,3,1,43,0004-00-0000-45.png,0003-00-0000-58.png
00000014,916,1,1438273157269,1438273157281,518,410,0,0,0,4,5,1,45,0004-00-0001-54.png,0005-00-0001-08.png
00000014,917,1,1438273158184,1438273158842,926,359,0,0,0,2,1,1,21,0002-00-0001-37.png,0001-00-0001-89.png
00000014,918,0,1438273159724,1438273160424,876,339,0,0,0,2,3,1,23,0002-00-0001-90.png,0003-00-0000-39.png
00000014,919,1,1438273161313,1438273161793,912,455,0,0,0,3,2,1,32,0003-00-0001-53.png,0002-00-0000-95.png
00000014,920,0,1438273163492,1438273163968,869,350,0,0,0,3,4,1,34,0003-00-0000-40.png,0004-00-0001-54.png
00000014,921,1,1438273164988,1438273165767,913,306,0,0,0,3,2,1,32,0003-00-0000-69.png,0002-00-0000-39.png
00000014,922,0,1438273167128,1438273167156,504,399,0,0,0,2,1,1,21,0002-00-0000-14.png,0001-00-0001-12.png
00000014,923,1,1438273168011,1438273168539,248,423,0,0,0,2,3,1,23,0002-00-0001-57.png,0003-00-0000-19.png
00000014,924,0,1438273170317,1438273170821,920,376,0,0,0,1,2,1,12,0001-00-0001-47.png,0002-00-0000-70.png
00000014,925,0,1438273172265,1438273172287,504,423,0,0,0,5,4,1,54,0005-00-0001-52.png,0004-00-0001-70.png
00000014,926,0,1438273173375,1438273173833,287,400,0,0,0,4,3,1,43,0004-00-0001-54.png,0003-00-0001-40.png
00000014,927,0,1438273174889,1438273175598,868,363,0,0,0,4,5,1,45,0004-00-0001-66.png,0005-00-0000-17.png
00000014,928,1,1438273176906,1438273176918,516,474,0,0,0,3,4,1,34,0003-00-0001-71.png,0004-00-0000-31.png
00000014,929,0,1438273177853,1438273178363,913,410,0,0,0,1,2,1,12,0001-00-0001-62.png,0002-00-0000-40.png
00000014,930,0,1438273179219,1438273179845,885,306,0,0,0,2,3,1,23,0002-00-0000-10.png,0003-00-0000-26.png
00000014,931,1,1438273181152,1438273181812,928,441,0,0,0,5,4,1,54,0005-00-0001-43.png,0004-00-0000-28.png
00000014,932,1,1438273182890,1438273183428,218,465,0,0,0,4,5,1,45,0004-00-0000-07.png,0005-00-0001-07.png
00000014,933,0,1438273184298,1438273185026,261,397,0,0,0,2,1,1,21,0002-00-0000-69.png,0001-00-0001-66.png
00000014,934,1,1438273186128,1438273186148,472,424,0,0,0,3,4,1,34,0003-00-0000-55.png,0004-00-0000-81.png
00000014,935,1,1438273187041,1438273187609,864,388,0,0,0,3,2,1,32,0003-00-0000-89.png,0002-00-0000-28.png
00000014,936,1,1438273188470,1438273189119,913,402,0,0,0,4,3,1,43,0004-00-0001-29.png,0003-00-0000-69.png
00000014,937,1,1438273190045,1438273190683,943,456,0,0,0,3,2,1,32,0003-00-0001-74.png,0002-00-0000-42.png
00000014,938,1,1438273191626,1438273192186,915,404,0,0,0,4,3,1,43,0004-00-0001-13.png,0003-00-0000-12.png
00000014,939,1,1438273193136,1438273193636,888,398,0,0,0,5,4,1,54,0005-00-0001-60.png,0004-00-0001-87.png
00000014,940,1,1438273195068,1438273195080,489,398,0,0,0,1,2,1,12,0001-00-0000-33.png,0002-00-0001-69.png
00000014,941,0,1438273196076,1438273196642,876,339,0,0,0,3,4,1,34,0003-00-0001-08.png,0004-00-0000-05.png
00000014,942,1,1438273197608,1438273198186,260,397,0,0,0,4,5,1,45,0004-00-0001-95.png,0005-00-0001-88.png
