subject_id,trial,correct_response,stim_time,response_time,x_coord,y_coord,trial_timeout,timeout_time,interTrial_timeout,left_rank,right_rank,distance,joint_rank,left_image,right_image
00000014,1,1,1440168919940,1440168920449,883,487,0,0,0,3,2,1,32,0003-00-0002-92.png,0002-00-0003-54.png
00000014,2,1,1440168921482,1440168921976,327,373,0,0,0,1,2,1,12,0001-00-0003-70.png,0002-00-0002-59.png
00000014,3,1,1440168923131,1440168923743,951,408,0,0,0,4,3,1,43,0004-00-0003-30.png,0003-00-0005-80.png
00000014,4,1,1440168924732,1440168925237,376,449,0,0,0,4,5,1,45,0004-00-0007-49.png,0005-00-0001-32.png
00000014,5,1,1440168926264,1440168926799,925,426,0,0,0,2,1,1,21,0002-00-0009-13.png,0001-00-0003-42.png
00000014,6,1,1440168927814,1440168928317,948,393,0,0,0,5,4,1,54,0005-00-0000-23.png,0004-00-0008-63.png
00000014,7,1,1440168929293,1440168929723,338,390,0,0,0,3,4,1,34,0003-00-0003-81.png,0004-00-0007-40.png
00000014,8,1,1440168930677,1440168931111,350,405,0,0,0,2,3,1,23,0002-00-0009-20.png,0003-00-0009-27.png
00000014,9,1,1440168932088,1440168932560,335,350,0,0,0,3,4,1,34,0003-00-0000-63.png,0004-00-0004-19.png
00000014,10,0,1440168933670,1440168934085,329,382,0,0,0,4,3,1,43,0004-00-0008-97.png,0003-00-0001-52.png
00000014,11,1,1440168937108,1440168937512,353,347,0,0,0,4,5,1,45,0004-00-0007-47.png,0005-00-0004-72.png
00000014,12,0,1440168938486,1440168938995,913,399,0,0,0,2,3,1,23,0002-00-0005-86.png,0003-00-0003-90.png
00000014,13,0,1440168941969,1440168942037,478,448,0,0,0,5,4,1,54,0005-00-0001-36.png,0004-00-0001-85.png
00000014,14,0,1440168944890,1440168945406,940,396,0,0,0,1,2,1,12,0001-00-0004-56.png,0002-00-0003-59.png
00000014,15,1,1440168948440,1440168949024,933,463,0,0,0,3,2,1,32,0003-00-0007-55.png,0002-00-0004-80.png
00000014,16,1,1440168949995,1440168950512,947,382,0,0,0,2,1,1,21,0002-00-0000-74.png,0001-00-0008-41.png
00000014,17,0,1440168951748,1440168952333,905,480,0,0,0,3,4,1,34,0003-00-0005-61.png,0004-00-0008-76.png
00000014,18,1,1440168955462,1440168955884,330,362,0,0,0,4,5,1,45,0004-00-0009-17.png,0005-00-0004-32.png
00000014,19,0,1440168956924,1440168957418,333,366,0,0,0,5,4,1,54,0005-00-0009-76.png,0004-00-0007-71.png
00000014,20,1,1440168960573,1440168961105,921,367,0,0,0,2,1,1,21,0002-00-0002-24.png,0001-00-0000-04.png
00000014,21,1,1440168962164,1440168962629,334,388,0,0,0,2,3,1,23,0002-00-0009-66.png,0003-00-0003-59.png
00000014,22,1,1440168963644,1440168964130,338,349,0,0,0,1,2,1,12,0001-00-0008-17.png,0002-00-0003-08.png
00000014,23,1,1440168965174,1440168965706,896,394,0,0,0,3,2,1,32,0003-00-0004-21.png,0002-00-0006-70.png
00000014,24,0,1440168966805,1440168967290,401,475,0,0,0,4,3,1,43,0004-00-0004-40.png,0003-00-0005-23.png
00000014,25,0,1440168970461,1440168970883,350,379,0,0,0,5,4,1,54,0005-00-0000-54.png,0004-00-0007-37.png
00000014,26,0,1440168974037,1440168974524,875,398,0,0,0,3,4,1,34,0003-00-0009-37.png,0004-00-0002-24.png
00000014,27,1,1440168978822,1440168979332,913,371,0,0,0,3,2,1,32,0003-00-0001-54.png,0002-00-0000-20.png
00000014,28,1,1440168980392,1440168980884,298,384,0,0,0,1,2,1,12,0001-00-0005-49.png,0002-00-0009-62.png
00000014,29,1,1440168981932,1440168982482,929,375,0,0,0,2,1,1,21,0002-00-0000-32.png,0001-00-0004-83.png
00000014,30,0,1440168983522,1440168984045,924,459,0,0,0,2,3,1,23,0002-00-0003-24.png,0003-00-0003-97.png
00000014,31,0,1440168986879,1440168986899,516,418,0,0,0,4,3,1,43,0004-00-0009-41.png,0003-00-0001-57.png
00000014,32,0,1440168989805,1440168990482,876,397,0,0,0,4,5,1,45,0004-00-0000-95.png,0005-00-0007-59.png
00000014,33,1,1440168993651,1440168994140,915,371,0,0,0,5,4,1,54,0005-00-0004-79.png,0004-00-0005-01.png
00000014,34,1,1440168995200,1440168995661,372,373,0,0,0,1,2,1,12,0001-00-0009-24.png,0002-00-0003-52.png
00000014,35,1,1440168996730,1440168997238,330,358,0,0,0,4,5,1,45,0004-00-0007-32.png,0005-00-0000-33.png
00000014,36,0,1440168998260,1440168998711,298,369,0,0,0,3,2,1,32,0003-00-0003-96.png,0002-00-0007-89.png
00000014,37,1,1440169001545,1440169002045,895,457,0,0,0,2,1,1,21,0002-00-0008-10.png,0001-00-0002-04.png
00000014,38,1,1440169003001,1440169003539,955,349,0,0,0,4,3,1,43,0004-00-0003-30.png,0003-00-0008-92.png
00000014,39,1,1440169004561,1440169005008,291,396,0,0,0,3,4,1,34,0003-00-0004-42.png,0004-00-0009-93.png
00000014,40,1,1440169006012,1440169006475,369,499,0,0,0,2,3,1,23,0002-00-0006-84.png,0003-00-0000-96.png
00000014,41,1,1440169007534,1440169008062,879,350,0,0,0,4,3,1,43,0004-00-0002-22.png,0003-00-0008-27.png
00000014,42,1,1440169009093,1440169009563,862,358,0,0,0,3,2,1,32,0003-00-0008-45.png,0002-00-0000-14.png
00000014,43,1,1440169010593,1440169011080,323,375,0,0,0,1,2,1,12,0001-00-0003-60.png,0002-00-0008-27.png
00000014,44,1,1440169012140,1440169012765,349,348,0,0,0,3,4,1,34,0003-00-0000-33.png,0004-00-0006-52.png
00000014,45,1,1440169013772,1440169014256,377,474,0,0,0,2,3,1,23,0002-00-0002-32.png,0003-00-0000-44.png
00000014,46,1,1440169015314,1440169015807,317,370,0,0,0,4,5,1,45,0004-00-0001-72.png,0005-00-0009-93.png
00000014,47,1,1440169016825,1440169017367,878,489,0,0,0,2,1,1,21,0002-00-0003-31.png,0001-00-0004-20.png
00000014,48,0,1440169018415,1440169018884,379,376,0,0,0,5,4,1,54,0005-00-0009-40.png,0004-00-0003-97.png
00000014,49,0,1440169021794,1440169022239,369,345,0,0,0,3,2,1,32,0003-00-0008-74.png,0002-00-0009-14.png
00000014,50,1,1440169025444,1440169026100,330,332,0,0,0,4,5,1,45,0004-00-0005-15.png,0005-00-0005-54.png
00000014,51,0,1440169027092,1440169027571,351,390,0,0,0,5,4,1,54,0005-00-0007-88.png,0004-00-0002-46.png
00000014,52,0,1440169030529,1440169031012,334,348,0,0,0,4,3,1,43,0004-00-0003-36.png,0003-00-0003-69.png
00000014,53,0,1440169034048,1440169034542,358,401,0,0,0,2,1,1,21,0002-00-0009-43.png,0001-00-0006-45.png
00000014,54,1,1440169037407,1440169037854,350,381,0,0,0,2,3,1,23,0002-00-0002-22.png,0003-00-0003-23.png
00000014,55,1,1440169038858,1440169039336,376,396,0,0,0,3,4,1,34,0003-00-0004-41.png,0004-00-0006-53.png
00000014,56,0,1440169040360,1440169040882,926,345,0,0,0,1,2,1,12,0001-00-0009-36.png,0002-00-0007-28.png
00000014,57,1,1440169044007,1440169044760,371,484,0,0,0,1,2,1,12,0001-00-0009-98.png,0002-00-0000-41.png
00000014,58,1,1440169045904,1440169046365,332,372,0,0,0,3,4,1,34,0003-00-0007-34.png,0004-00-0004-51.png
00000014,59,1,1440169047377,1440169047883,862,358,0,0,0,5,4,1,54,0005-00-0002-34.png,0004-00-0004-93.png
00000014,60,1,1440169048966,1440169049496,892,376,0,0,0,3,2,1,32,0003-00-0006-02.png,0002-00-0007-42.png
00000014,61,1,1440169050576,1440169051091,328,378,0,0,0,4,5,1,45,0004-00-0000-59.png,0005-00-0001-63.png
00000014,62,0,1440169052156,1440169052594,326,397,0,0,0,4,3,1,43,0004-00-0009-26.png,0003-00-0006-29.png
00000014,63,1,1440169055497,1440169055996,906,373,0,0,0,2,1,1,21,0002-00-0008-64.png,0001-00-0004-77.png
00000014,64,0,1440169057075,1440169057593,924,361,0,0,0,2,3,1,23,0002-00-0005-42.png,0003-00-0002-36.png
00000014,65,0,1440169060764,1440169061198,369,367,0,0,0,4,3,1,43,0004-00-0005-85.png,0003-00-0007-84.png
00000014,66,1,1440169064123,1440169064159,523,400,0,0,0,1,2,1,12,0001-00-0001-48.png,0002-00-0008-94.png
00000014,67,1,1440169065243,1440169065832,299,345,0,0,0,4,5,1,45,0004-00-0006-95.png,0005-00-0000-60.png
00000014,68,0,1440169066887,1440169067441,864,344,0,0,0,2,3,1,23,0002-00-0008-35.png,0003-00-0000-22.png
00000014,69,0,1440169070543,1440169071045,383,460,0,0,0,3,2,1,32,0003-00-0008-87.png,0002-00-0001-45.png
00000014,70,0,1440169074271,1440169074733,378,329,0,0,0,5,4,1,54,0005-00-0004-51.png,0004-00-0003-68.png
00000014,71,1,1440169077711,1440169078253,924,366,0,0,0,2,1,1,21,0002-00-0004-15.png,0001-00-0009-66.png
00000014,72,1,1440169079231,1440169079756,361,395,0,0,0,3,4,1,34,0003-00-0001-96.png,0004-00-0005-57.png
00000014,73,1,1440169080821,1440169081365,926,371,0,0,0,2,1,1,21,0002-00-0000-10.png,0001-00-0008-25.png
00000014,74,1,1440169082461,1440169083015,878,467,0,0,0,4,3,1,43,0004-00-0000-76.png,0003-00-0008-24.png
00000014,75,0,1440169084481,1440169084944,325,363,0,0,0,3,2,1,32,0003-00-0007-43.png,0002-00-0007-41.png
00000014,76,1,1440169087796,1440169088286,350,345,0,0,0,3,4,1,34,0003-00-0009-16.png,0004-00-0006-38.png
00000014,77,1,1440169089677,1440169090158,377,398,0,0,0,1,2,1,12,0001-00-0008-08.png,0002-00-0002-02.png
00000014,78,1,1440169091263,1440169091812,327,375,0,0,0,4,5,1,45,0004-00-0004-03.png,0005-00-0000-87.png
00000014,79,1,1440169092817,1440169093304,360,397,0,0,0,2,3,1,23,0002-00-0001-80.png,0003-00-0003-10.png
00000014,80,0,1440169094397,1440169095416,342,375,0,0,0,5,4,1,54,0005-00-0009-79.png,0004-00-0004-99.png
00000014,81,0,1440169098552,1440169098997,356,355,0,0,0,3,2,1,32,0003-00-0004-56.png,0002-00-0004-66.png
00000014,82,0,1440169101990,1440169102467,350,387,0,0,0,5,4,1,54,0005-00-0005-80.png,0004-00-0006-77.png
00000014,83,1,1440169105871,1440169106401,339,394,0,0,0,4,5,1,45,0004-00-0003-67.png,0005-00-0007-96.png
00000014,84,1,1440169107328,1440169107867,878,375,0,0,0,4,3,1,43,0004-00-0009-06.png,0003-00-0007-08.png
00000014,85,1,1440169108918,1440169109414,904,375,0,0,0,2,1,1,21,0002-00-0000-65.png,0001-00-0004-20.png
00000014,86,1,1440169110637,1440169111139,354,365,0,0,0,2,3,1,23,0002-00-0005-99.png,0003-00-0005-08.png
00000014,87,1,1440169112155,1440169112691,274,370,0,0,0,1,2,1,12,0001-00-0004-31.png,0002-00-0008-39.png
00000014,88,0,1440169113966,1440169114552,908,365,0,0,0,3,4,1,34,0003-00-0001-50.png,0004-00-0000-40.png
00000014,89,1,1440169117535,1440169118028,342,389,0,0,0,4,5,1,45,0004-00-0007-25.png,0005-00-0008-79.png
00000014,90,0,1440169119035,1440169119625,364,384,0,0,0,3,2,1,32,0003-00-0003-67.png,0002-00-0003-60.png
00000014,91,0,1440169122612,1440169123279,898,370,0,0,0,3,4,1,34,0003-00-0009-47.png,0004-00-0003-88.png
00000014,92,0,1440169126119,1440169126143,485,437,0,0,0,4,3,1,43,0004-00-0007-98.png,0003-00-0007-83.png
00000014,93,0,1440169129172,1440169129188,518,455,0,0,0,2,1,1,21,0002-00-0001-27.png,0001-00-0004-60.png
00000014,94,0,1440169132224,1440169132778,902,477,0,0,0,2,3,1,23,0002-00-0002-33.png,0003-00-0004-66.png
00000014,95,1,1440169135863,1440169136338,341,368,0,0,0,1,2,1,12,0001-00-0004-55.png,0002-00-0002-16.png
00000014,96,1,1440169137262,1440169137820,900,468,0,0,0,5,4,1,54,0005-00-0005-86.png,0004-00-0000-97.png
00000014,97,1,1440169138873,1440169139372,313,358,0,0,0,3,4,1,34,0003-00-0002-66.png,0004-00-0008-41.png
00000014,98,0,1440169140463,1440169141017,875,373,0,0,0,4,5,1,45,0004-00-0003-79.png,0005-00-0005-22.png
00000014,99,0,1440169143929,1440169144416,401,474,0,0,0,5,4,1,54,0005-00-0005-32.png,0004-00-0009-76.png
00000014,100,0,1440169147441,1440169147956,383,342,0,0,0,2,1,1,21,0002-00-0005-99.png,0001-00-0001-51.png
00000014,101,0,1440169151464,1440169151934,329,348,0,0,0,4,3,1,43,0004-00-0001-26.png,0003-00-0008-56.png
00000014,102,0,1440169155051,1440169155506,387,395,0,0,0,3,2,1,32,0003-00-0000-37.png,0002-00-0007-58.png
00000014,103,1,1440169158472,1440169159092,348,360,0,0,0,2,3,1,23,0002-00-0001-77.png,0003-00-0001-75.png
00000014,104,1,1440169160211,1440169160716,363,383,0,0,0,1,2,1,12,0001-00-0001-74.png,0002-00-0000-66.png
00000014,105,1,1440169161758,1440169162264,350,370,0,0,0,3,4,1,34,0003-00-0006-29.png,0004-00-0001-26.png
00000014,106,0,1440169163559,1440169164028,338,365,0,0,0,2,1,1,21,0002-00-0001-06.png,0001-00-0005-88.png
00000014,107,0,1440169167159,1440169167682,325,396,0,0,0,4,3,1,43,0004-00-0005-33.png,0003-00-0000-70.png
00000014,108,1,1440169170564,1440169171055,342,378,0,0,0,1,2,1,12,0001-00-0002-06.png,0002-00-0001-22.png
00000014,109,1,1440169172078,1440169172626,415,502,0,0,0,4,5,1,45,0004-00-0005-40.png,0005-00-0003-72.png
00000014,110,0,1440169173678,1440169174215,877,464,0,0,0,2,3,1,23,0002-00-0000-45.png,0003-00-0009-24.png
00000014,111,1,1440169177442,1440169178040,901,428,0,0,0,5,4,1,54,0005-00-0003-07.png,0004-00-0006-56.png
00000014,112,0,1440169179041,1440169179555,350,398,0,0,0,3,2,1,32,0003-00-0004-65.png,0002-00-0005-00.png
00000014,113,1,1440169182495,1440169182997,900,476,0,0,0,5,4,1,54,0005-00-0003-18.png,0004-00-0008-36.png
00000014,114,0,1440169184025,1440169184648,925,386,0,0,0,3,4,1,34,0003-00-0006-62.png,0004-00-0003-43.png
00000014,115,1,1440169187652,1440169188126,330,397,0,0,0,1,2,1,12,0001-00-0001-58.png,0002-00-0000-65.png
00000014,116,0,1440169189163,1440169189697,876,390,0,0,0,2,3,1,23,0002-00-0001-46.png,0003-00-0000-58.png
00000014,117,0,1440169192560,1440169192608,517,413,0,0,0,2,1,1,21,0002-00-0008-95.png,0001-00-0000-40.png
00000014,118,1,1440169196239,1440169196704,329,343,0,0,0,4,5,1,45,0004-00-0009-14.png,0005-00-0005-88.png
00000014,119,1,1440169197789,1440169198274,862,347,0,0,0,4,3,1,43,0004-00-0003-98.png,0003-00-0003-06.png
00000014,120,1,1440169199360,1440169199885,896,394,0,0,0,3,2,1,32,0003-00-0004-05.png,0002-00-0000-24.png
00000014,121,1,1440169200929,1440169201464,924,383,0,0,0,5,4,1,54,0005-00-0007-73.png,0004-00-0001-64.png
00000014,122,0,1440169202560,1440169203030,356,400,0,0,0,3,2,1,32,0003-00-0009-45.png,0002-00-0003-60.png
00000014,123,0,1440169206138,1440169206563,354,380,0,0,0,4,3,1,43,0004-00-0007-79.png,0003-00-0002-95.png
00000014,124,0,1440169209577,1440169210092,931,401,0,0,0,2,3,1,23,0002-00-0001-31.png,0003-00-0002-46.png
00000014,125,0,1440169212966,1440169213433,324,351,0,0,0,2,1,1,21,0002-00-0008-39.png,0001-00-0006-21.png
00000014,126,1,1440169216644,1440169217123,350,346,0,0,0,4,5,1,45,0004-00-0003-59.png,0005-00-0004-46.png
00000014,127,0,1440169218132,1440169218628,876,381,0,0,0,3,4,1,34,0003-00-0003-65.png,0004-00-0002-98.png
00000014,128,0,1440169221623,1440169222189,951,371,0,0,0,1,2,1,12,0001-00-0000-33.png,0002-00-0002-52.png
00000014,129,1,1440169225208,1440169225738,926,385,0,0,0,3,2,1,32,0003-00-0002-38.png,0002-00-0003-55.png
00000014,130,0,1440169226729,1440169227284,905,400,0,0,0,3,4,1,34,0003-00-0003-28.png,0004-00-0000-15.png
00000014,131,0,1440169230368,1440169230818,319,367,0,0,0,4,3,1,43,0004-00-0005-52.png,0003-00-0004-71.png
00000014,132,0,1440169233707,1440169233755,521,473,0,0,0,5,4,1,54,0005-00-0001-96.png,0004-00-0005-62.png
00000014,133,1,1440169236825,1440169237350,337,394,0,0,0,1,2,1,12,0001-00-0004-40.png,0002-00-0005-77.png
00000014,134,1,1440169238338,1440169238850,375,385,0,0,0,4,5,1,45,0004-00-0006-07.png,0005-00-0005-50.png
00000014,135,0,1440169239897,1440169240425,354,390,0,0,0,2,1,1,21,0002-00-0007-42.png,0001-00-0001-78.png
00000014,136,1,1440169243428,1440169243473,516,532,0,0,0,2,3,1,23,0002-00-0000-82.png,0003-00-0002-19.png
00000014,137,1,1440169244510,1440169245009,921,394,0,0,0,2,1,1,21,0002-00-0000-72.png,0001-00-0004-77.png
00000014,138,1,1440169246061,1440169246586,879,366,0,0,0,3,2,1,32,0003-00-0000-16.png,0002-00-0006-04.png
00000014,139,1,1440169247760,1440169248241,316,372,0,0,0,3,4,1,34,0003-00-0008-20.png,0004-00-0002-22.png
00000014,140,1,1440169249381,1440169250020,873,465,0,0,0,4,3,1,43,0004-00-0007-05.png,0003-00-0000-32.png
00000014,141,1,1440169251241,1440169251693,329,404,0,0,0,4,5,1,45,0004-00-0004-51.png,0005-00-0009-07.png
00000014,142,1,1440169252821,1440169253325,350,388,0,0,0,2,3,1,23,0002-00-0004-23.png,0003-00-0001-70.png
00000014,143,1,1440169255235,1440169255752,339,418,0,0,0,1,2,1,12,0001-00-0009-29.png,0002-00-0008-42.png
00000014,144,1,1440169256835,1440169257362,872,493,0,0,0,5,4,1,54,0005-00-0000-16.png,0004-00-0008-76.png
00000014,145,1,1440169258525,1440169259028,341,375,0,0,0,2,3,1,23,0002-00-0006-78.png,0003-00-0004-77.png
00000014,146,0,1440169260303,1440169260850,347,395,0,0,0,4,3,1,43,0004-00-0005-77.png,0003-00-0005-13.png
00000014,147,1,1440169263873,1440169264466,376,372,0,0,0,3,4,1,34,0003-00-0007-63.png,0004-00-0000-17.png
00000014,148,1,1440169265572,1440169266079,906,391,0,0,0,5,4,1,54,0005-00-0002-92.png,0004-00-0006-43.png
00000014,149,1,1440169267152,1440169267745,876,424,0,0,0,3,2,1,32,0003-00-0004-74.png,0002-00-0002-27.png
00000014,150,1,1440169268860,1440169269439,341,396,0,0,0,1,2,1,12,0001-00-0004-24.png,0002-00-0008-06.png
00000014,151,1,1440169270533,1440169271197,877,491,0,0,0,2,1,1,21,0002-00-0000-32.png,0001-00-0000-14.png
00000014,152,1,1440169272349,1440169272904,340,390,0,0,0,4,5,1,45,0004-00-0009-56.png,0005-00-0001-19.png
00000014,153,1,1440169273962,1440169274552,859,469,0,0,0,5,4,1,54,0005-00-0001-10.png,0004-00-0006-72.png
00000014,154,1,1440169275620,1440169276192,361,398,0,0,0,4,5,1,45,0004-00-0002-91.png,0005-00-0003-94.png
00000014,155,0,1440169277311,1440169277837,354,397,0,0,0,3,2,1,32,0003-00-0002-25.png,0002-00-0003-00.png
00000014,156,1,1440169280999,1440169281459,387,397,0,0,0,1,2,1,12,0001-00-0005-48.png,0002-00-0006-16.png
00000014,157,1,1440169282479,1440169283060,878,374,0,0,0,4,3,1,43,0004-00-0008-23.png,0003-00-0000-77.png
00000014,158,0,1440169284130,1440169284614,347,402,0,0,0,2,1,1,21,0002-00-0006-75.png,0001-00-0008-23.png
00000014,159,1,1440169287548,1440169287592,487,444,0,0,0,2,3,1,23,0002-00-0006-17.png,0003-00-0004-67.png
00000014,160,1,1440169288591,1440169289551,393,402,0,0,0,3,4,1,34,0003-00-0009-78.png,0004-00-0006-32.png
00000014,161,1,1440169290590,1440169291118,351,404,0,0,0,4,5,1,45,0004-00-0003-38.png,0005-00-0007-76.png
00000014,162,1,1440169292109,1440169292663,876,496,0,0,0,3,2,1,32,0003-00-0009-18.png,0002-00-0005-87.png
00000014,163,0,1440169293720,1440169294280,386,374,0,0,0,5,4,1,54,0005-00-0007-69.png,0004-00-0009-02.png
00000014,164,1,1440169297118,1440169297812,929,389,0,0,0,4,3,1,43,0004-00-0004-66.png,0003-00-0007-02.png
00000014,165,1,1440169298779,1440169299326,342,393,0,0,0,1,2,1,12,0001-00-0006-44.png,0002-00-0005-50.png
00000014,166,1,1440169300358,1440169300921,350,396,0,0,0,2,3,1,23,0002-00-0000-06.png,0003-00-0001-24.png
00000014,167,1,1440169301969,1440169302515,931,428,0,0,0,2,1,1,21,0002-00-0006-46.png,0001-00-0002-21.png
00000014,168,0,1440169303548,1440169304096,889,397,0,0,0,3,4,1,34,0003-00-0003-54.png,0004-00-0005-84.png
00000014,169,0,1440169307038,1440169307621,901,476,0,0,0,2,3,1,23,0002-00-0003-40.png,0003-00-0007-30.png
00000014,170,0,1440169310481,1440169310521,467,424,0,0,0,4,3,1,43,0004-00-0006-49.png,0003-00-0005-96.png
00000014,171,0,1440169313608,1440169314149,888,422,0,0,0,1,2,1,12,0001-00-0002-65.png,0002-00-0002-94.png
00000014,172,0,1440169317043,1440169317079,472,443,0,0,0,2,1,1,21,0002-00-0003-63.png,0001-00-0001-87.png
00000014,173,0,1440169320253,1440169320767,298,394,0,0,0,3,2,1,32,0003-00-0003-38.png,0002-00-0006-22.png
00000014,174,1,1440169323827,1440169323859,491,471,0,0,0,4,5,1,45,0004-00-0004-53.png,0005-00-0009-27.png
00000014,175,0,1440169325293,1440169325739,922,394,0,0,0,3,4,1,34,0003-00-0002-48.png,0004-00-0007-47.png
00000014,176,0,1440169328589,1440169329135,375,375,0,0,0,5,4,1,54,0005-00-0005-63.png,0004-00-0000-68.png
00000014,177,1,1440169332141,1440169332620,376,488,0,0,0,4,5,1,45,0004-00-0003-40.png,0005-00-0000-22.png
00000014,178,1,1440169333613,1440169334182,369,393,0,0,0,3,4,1,34,0003-00-0008-40.png,0004-00-0008-28.png
00000014,179,0,1440169335312,1440169335810,410,496,0,0,0,3,2,1,32,0003-00-0005-61.png,0002-00-0000-59.png
00000014,180,1,1440169338878,1440169339414,343,373,0,0,0,1,2,1,12,0001-00-0002-93.png,0002-00-0001-11.png
00000014,181,0,1440169340510,1440169341031,885,481,0,0,0,2,3,1,23,0002-00-0003-26.png,0003-00-0009-49.png
00000014,182,0,1440169343957,1440169343993,519,436,0,0,0,2,1,1,21,0002-00-0007-52.png,0001-00-0002-97.png
00000014,183,0,1440169346942,1440169346950,508,443,0,0,0,5,4,1,54,0005-00-0002-73.png,0004-00-0003-55.png
00000014,184,0,1440169349871,1440169349899,497,375,0,0,0,4,3,1,43,0004-00-0000-57.png,0003-00-0001-91.png
00000014,185,1,1440169352746,1440169353237,372,367,0,0,0,2,3,1,23,0002-00-0003-95.png,0003-00-0001-77.png
00000014,186,1,1440169354306,1440169354831,868,456,0,0,0,2,1,1,21,0002-00-0009-19.png,0001-00-0005-88.png
00000014,187,0,1440169355934,1440169356468,376,423,0,0,0,3,2,1,32,0003-00-0001-20.png,0002-00-0007-87.png
00000014,188,0,1440169359610,1440169360590,440,410,0,0,0,4,3,1,43,0004-00-0009-40.png,0003-00-0002-66.png
00000014,189,1,1440169366491,1440169366990,316,349,0,0,0,3,4,1,34,0003-00-0007-28.png,0004-00-0006-68.png
00000014,190,1,1440169368337,1440169368860,878,387,0,0,0,5,4,1,54,0005-00-0002-49.png,0004-00-0009-17.png
00000014,191,1,1440169369896,1440169370468,363,418,0,0,0,4,5,1,45,0004-00-0002-11.png,0005-00-0003-15.png
00000014,192,0,1440169371486,1440169372050,876,410,0,0,0,1,2,1,12,0001-00-0003-05.png,0002-00-0004-77.png
00000014,193,1,1440169375074,1440169375098,497,433,0,0,0,1,2,1,12,0001-00-0004-58.png,0002-00-0008-40.png
00000014,194,0,1440169376118,1440169376662,401,384,0,0,0,5,4,1,54,0005-00-0007-67.png,0004-00-0007-62.png
00000014,195,0,1440169379519,1440169379583,473,531,0,0,0,3,2,1,32,0003-00-0008-27.png,0002-00-0009-79.png
00000014,196,1,1440169382619,1440169382663,495,504,0,0,0,3,4,1,34,0003-00-0000-89.png,0004-00-0005-00.png
00000014,197,1,1440169383622,1440169384618,419,401,0,0,0,2,3,1,23,0002-00-0004-55.png,0003-00-0009-70.png
00000014,198,0,1440169385636,1440169386244,341,370,0,0,0,2,1,1,21,0002-00-0003-38.png,0001-00-0008-74.png
00000014,199,1,1440169389323,1440169389897,350,318,0,0,0,4,5,1,45,0004-00-0002-63.png,0005-00-0005-95.png
00000014,200,0,1440169390937,1440169391503,373,423,0,0,0,4,3,1,43,0004-00-0007-08.png,0003-00-0007-05.png
00000014,201,1,1440169394495,1440169394527,473,486,0,0,0,1,2,1,12,0001-00-0000-25.png,0002-00-0006-62.png
00000014,202,1,1440169395508,1440169396131,418,492,0,0,0,3,4,1,34,0003-00-0003-44.png,0004-00-0009-01.png
00000014,203,0,1440169397138,1440169397711,376,407,0,0,0,3,2,1,32,0003-00-0001-08.png,0002-00-0002-55.png
00000014,204,1,1440169400804,1440169401362,911,424,0,0,0,2,1,1,21,0002-00-0004-93.png,0001-00-0009-26.png
00000014,205,1,1440169402322,1440169402889,346,419,0,0,0,4,5,1,45,0004-00-0009-38.png,0005-00-0004-08.png
00000014,206,0,1440169403915,1440169405104,334,413,0,0,0,4,3,1,43,0004-00-0002-71.png,0003-00-0009-08.png
00000014,207,0,1440169408018,1440169408038,514,449,0,0,0,5,4,1,54,0005-00-0009-38.png,0004-00-0004-72.png
00000014,208,1,1440169410912,1440169410956,453,504,0,0,0,2,3,1,23,0002-00-0003-51.png,0003-00-0006-98.png
00000014,209,1,1440169411935,1440169412449,342,397,0,0,0,1,2,1,12,0001-00-0003-91.png,0002-00-0007-87.png
00000014,210,1,1440169413527,1440169414086,908,513,0,0,0,5,4,1,54,0005-00-0001-23.png,0004-00-0001-30.png
00000014,211,1,1440169415135,1440169415696,342,395,0,0,0,4,5,1,45,0004-00-0005-32.png,0005-00-0008-89.png
00000014,212,1,1440169416815,1440169417380,877,498,0,0,0,2,1,1,21,0002-00-0007-35.png,0001-00-0007-78.png
00000014,213,1,1440169418384,1440169418952,900,436,0,0,0,3,2,1,32,0003-00-0002-61.png,0002-00-0001-23.png
00000014,214,1,1440169419986,1440169420549,917,496,0,0,0,4,3,1,43,0004-00-0001-93.png,0003-00-0002-75.png
00000014,215,1,1440169421624,1440169422132,401,384,0,0,0,3,4,1,34,0003-00-0002-85.png,0004-00-0000-57.png
00000014,216,0,1440169423227,1440169423852,871,392,0,0,0,2,3,1,23,0002-00-0005-15.png,0003-00-0003-48.png
00000014,217,0,1440169426795,1440169427322,341,389,0,0,0,5,4,1,54,0005-00-0003-57.png,0004-00-0007-98.png
00000014,218,0,1440169430230,1440169430726,903,403,0,0,0,3,4,1,34,0003-00-0003-05.png,0004-00-0000-37.png
00000014,219,0,1440169433670,1440169433690,485,390,0,0,0,2,1,1,21,0002-00-0000-23.png,0001-00-0002-92.png
00000014,220,1,1440169436704,1440169436720,512,448,0,0,0,1,2,1,12,0001-00-0005-78.png,0002-00-0009-07.png
00000014,221,1,1440169437731,1440169438311,344,414,0,0,0,2,3,1,23,0002-00-0009-39.png,0003-00-0006-96.png
00000014,222,0,1440169439334,1440169439886,346,405,0,0,0,4,3,1,43,0004-00-0007-48.png,0003-00-0006-00.png
00000014,223,0,1440169442906,1440169443425,368,391,0,0,0,3,2,1,32,0003-00-0000-97.png,0002-00-0004-16.png
00000014,224,1,1440169446305,1440169446751,233,462,0,0,0,4,5,1,45,0004-00-0007-62.png,0005-00-0001-83.png
00000014,225,0,1440169447806,1440169448340,875,398,0,0,0,3,4,1,34,0003-00-0007-86.png,0004-00-0004-23.png
00000014,226,0,1440169451233,1440169451789,902,444,0,0,0,2,3,1,23,0002-00-0001-94.png,0003-00-0004-61.png
00000014,227,0,1440169454730,1440169454798,522,469,0,0,0,4,3,1,43,0004-00-0007-70.png,0003-00-0004-95.png
00000014,228,1,1440169457954,1440169458441,401,371,0,0,0,1,2,1,12,0001-00-0005-98.png,0002-00-0006-59.png
00000014,229,0,1440169459480,1440169460032,343,416,0,0,0,5,4,1,54,0005-00-0007-01.png,0004-00-0001-66.png
00000014,230,0,1440169463032,1440169463088,523,494,0,0,0,2,1,1,21,0002-00-0008-56.png,0001-00-0003-03.png
00000014,231,1,1440169465983,1440169466007,485,489,0,0,0,4,5,1,45,0004-00-0004-45.png,0005-00-0000-95.png
00000014,232,0,1440169467065,1440169467588,376,384,0,0,0,3,2,1,32,0003-00-0007-41.png,0002-00-0008-07.png
00000014,233,0,1440169470740,1440169471252,339,393,0,0,0,3,2,1,32,0003-00-0009-03.png,0002-00-0000-02.png
00000014,234,0,1440169475226,1440169475722,862,371,0,0,0,3,4,1,34,0003-00-0003-15.png,0004-00-0005-98.png
00000014,235,1,1440169488717,1440169489263,341,429,0,0,0,2,3,1,23,0002-00-0001-53.png,0003-00-0002-24.png
00000014,236,0,1440169490619,1440169491414,349,392,0,0,0,5,4,1,54,0005-00-0005-38.png,0004-00-0005-20.png
00000014,237,1,1440169494365,1440169494925,877,466,0,0,0,4,3,1,43,0004-00-0008-39.png,0003-00-0009-22.png
00000014,238,1,1440169496011,1440169496540,401,358,0,0,0,4,5,1,45,0004-00-0002-14.png,0005-00-0000-98.png
00000014,239,0,1440169497596,1440169498133,876,383,0,0,0,1,2,1,12,0001-00-0004-79.png,0002-00-0008-63.png
00000014,240,0,1440169501025,1440169501458,390,381,0,0,0,2,1,1,21,0002-00-0000-72.png,0001-00-0002-98.png
00000014,241,1,1440169504937,1440169505459,898,482,0,0,0,4,3,1,43,0004-00-0006-60.png,0003-00-0007-57.png
00000014,242,0,1440169506472,1440169506956,347,390,0,0,0,2,1,1,21,0002-00-0001-97.png,0001-00-0004-54.png
00000014,243,0,1440169510154,1440169510810,920,383,0,0,0,2,3,1,23,0002-00-0009-26.png,0003-00-0002-03.png
00000014,244,0,1440169513984,1440169514487,901,409,0,0,0,1,2,1,12,0001-00-0004-04.png,0002-00-0006-58.png
00000014,245,0,1440169519401,1440169519991,337,348,0,0,0,3,2,1,32,0003-00-0000-23.png,0002-00-0004-56.png
00000014,246,1,1440169523024,1440169523092,490,491,0,0,0,4,5,1,45,0004-00-0009-60.png,0005-00-0003-37.png
00000014,247,0,1440169524070,1440169524616,336,403,0,0,0,5,4,1,54,0005-00-0002-42.png,0004-00-0008-04.png
00000014,248,1,1440169527777,1440169528364,375,406,0,0,0,3,4,1,34,0003-00-0007-54.png,0004-00-0002-30.png
00000014,249,1,1440169529469,1440169529991,362,406,0,0,0,4,5,1,45,0004-00-0001-20.png,0005-00-0001-68.png
00000014,250,1,1440169531019,1440169531552,881,505,0,0,0,4,3,1,43,0004-00-0008-49.png,0003-00-0002-56.png
00000014,251,0,1440169532620,1440169533137,903,425,0,0,0,2,3,1,23,0002-00-0005-44.png,0003-00-0002-92.png
00000014,252,1,1440169537545,1440169538231,332,390,0,0,0,3,4,1,34,0003-00-0006-87.png,0004-00-0006-08.png
00000014,253,1,1440169539503,1440169539983,875,436,0,0,0,2,1,1,21,0002-00-0001-31.png,0001-00-0001-40.png
00000014,254,1,1440169541025,1440169541539,894,399,0,0,0,5,4,1,54,0005-00-0000-85.png,0004-00-0008-84.png
00000014,255,1,1440169542665,1440169543183,335,397,0,0,0,1,2,1,12,0001-00-0006-50.png,0002-00-0006-41.png
00000014,256,1,1440169544300,1440169544906,874,410,0,0,0,3,2,1,32,0003-00-0007-58.png,0002-00-0007-31.png
00000014,257,0,1440169546040,1440169546571,371,423,0,0,0,2,1,1,21,0002-00-0007-39.png,0001-00-0000-63.png
00000014,258,1,1440169549627,1440169549655,519,484,0,0,0,3,4,1,34,0003-00-0007-09.png,0004-00-0009-46.png
00000014,259,1,1440169550710,1440169551224,354,399,0,0,0,1,2,1,12,0001-00-0003-27.png,0002-00-0002-29.png
00000014,260,0,1440169552360,1440169552882,349,398,0,0,0,5,4,1,54,0005-00-0002-27.png,0004-00-0000-61.png
00000014,261,1,1440169556853,1440169557395,350,397,0,0,0,4,5,1,45,0004-00-0002-53.png,0005-00-0009-01.png
00000014,262,0,1440169558520,1440169559046,882,411,0,0,0,2,3,1,23,0002-00-0002-07.png,0003-00-0002-12.png
00000014,263,0,1440169562267,1440169562782,332,344,0,0,0,4,3,1,43,0004-00-0001-72.png,0003-00-0003-99.png
00000014,264,1,1440169565875,1440169566430,858,354,0,0,0,3,2,1,32,0003-00-0005-42.png,0002-00-0001-88.png
00000014,265,1,1440169567471,1440169567983,357,413,0,0,0,4,5,1,45,0004-00-0004-86.png,0005-00-0006-68.png
00000014,266,0,1440169568993,1440169569552,407,516,0,0,0,4,3,1,43,0004-00-0008-00.png,0003-00-0003-71.png
00000014,267,0,1440169572594,1440169573179,900,383,0,0,0,2,3,1,23,0002-00-0000-00.png,0003-00-0001-91.png
00000014,268,1,1440169576273,1440169576795,394,393,0,0,0,1,2,1,12,0001-00-0007-64.png,0002-00-0005-25.png
00000014,269,0,1440169577883,1440169578466,345,388,0,0,0,2,1,1,21,0002-00-0006-69.png,0001-00-0009-43.png
00000014,270,1,1440169581391,1440169581945,312,393,0,0,0,3,4,1,34,0003-00-0004-95.png,0004-00-0005-98.png
00000014,271,1,1440169583051,1440169583774,902,345,0,0,0,3,2,1,32,0003-00-0002-94.png,0002-00-0005-12.png
00000014,272,1,1440169584841,1440169585342,873,491,0,0,0,5,4,1,54,0005-00-0007-96.png,0004-00-0006-20.png
00000014,273,1,1440169586486,1440169587013,365,392,0,0,0,2,3,1,23,0002-00-0007-06.png,0003-00-0006-27.png
00000014,274,0,1440169588107,1440169588815,905,401,0,0,0,3,4,1,34,0003-00-0003-27.png,0004-00-0007-07.png
00000014,275,0,1440169591735,1440169591739,478,453,0,0,0,3,2,1,32,0003-00-0001-84.png,0002-00-0009-61.png
00000014,276,1,1440169594776,1440169595304,902,387,0,0,0,4,3,1,43,0004-00-0001-23.png,0003-00-0001-44.png
00000014,277,1,1440169596289,1440169596838,901,391,0,0,0,2,1,1,21,0002-00-0005-28.png,0001-00-0007-91.png
00000014,278,1,1440169597928,1440169598420,401,410,0,0,0,1,2,1,12,0001-00-0007-77.png,0002-00-0000-21.png
00000014,279,1,1440169599534,1440169600124,886,508,0,0,0,5,4,1,54,0005-00-0009-84.png,0004-00-0007-87.png
00000014,280,0,1440169601109,1440169601770,878,403,0,0,0,4,5,1,45,0004-00-0004-35.png,0005-00-0009-11.png
00000014,281,1,1440169604774,1440169605339,336,397,0,0,0,2,3,1,23,0002-00-0000-95.png,0003-00-0000-45.png
00000014,282,1,1440169606365,1440169606906,895,420,0,0,0,2,1,1,21,0002-00-0006-72.png,0001-00-0002-40.png
00000014,283,1,1440169607995,1440169608473,372,404,0,0,0,4,5,1,45,0004-00-0006-48.png,0005-00-0001-83.png
00000014,284,1,1440169609498,1440169610126,877,416,0,0,0,3,2,1,32,0003-00-0004-26.png,0002-00-0004-91.png
00000014,285,0,1440169611237,1440169611790,413,502,0,0,0,5,4,1,54,0005-00-0009-28.png,0004-00-0004-89.png
00000014,286,1,1440169616454,1440169616972,879,410,0,0,0,4,3,1,43,0004-00-0003-87.png,0003-00-0005-61.png
00000014,287,0,1440169618021,1440169618508,880,400,0,0,0,3,4,1,34,0003-00-0001-04.png,0004-00-0007-88.png
00000014,288,1,1440169621692,1440169622188,340,377,0,0,0,1,2,1,12,0001-00-0009-00.png,0002-00-0000-54.png
00000014,289,1,1440169623214,1440169623762,387,420,0,0,0,1,2,1,12,0001-00-0006-49.png,0002-00-0007-25.png
00000014,290,1,1440169624812,1440169625353,357,427,0,0,0,3,4,1,34,0003-00-0003-11.png,0004-00-0006-99.png
00000014,291,0,1440169626452,1440169627476,323,410,0,0,0,4,3,1,43,0004-00-0001-45.png,0003-00-0005-91.png
00000014,292,0,1440169630504,1440169630573,453,525,0,0,0,5,4,1,54,0005-00-0003-64.png,0004-00-0000-48.png
00000014,293,0,1440169633595,1440169634156,363,514,0,0,0,3,2,1,32,0003-00-0004-53.png,0002-00-0008-05.png
00000014,294,1,1440169637077,1440169637663,335,382,0,0,0,2,3,1,23,0002-00-0008-49.png,0003-00-0003-01.png
00000014,295,0,1440169638746,1440169639279,877,412,0,0,0,4,5,1,45,0004-00-0009-59.png,0005-00-0000-14.png
00000014,296,1,1440169642257,1440169642890,952,371,0,0,0,2,1,1,21,0002-00-0006-09.png,0001-00-0006-81.png
00000014,297,0,1440169643903,1440169644458,340,393,0,0,0,3,2,1,32,0003-00-0000-83.png,0002-00-0008-35.png
00000014,298,1,1440169647401,1440169647430,471,487,0,0,0,4,5,1,45,0004-00-0006-24.png,0005-00-0003-47.png
00000014,299,0,1440169648387,1440169648925,880,375,0,0,0,2,3,1,23,0002-00-0002-49.png,0003-00-0006-10.png
00000014,300,0,1440169654846,1440169655387,879,400,0,0,0,3,4,1,34,0003-00-0006-34.png,0004-00-0006-87.png
00000014,301,1,1440169658385,1440169658971,882,463,0,0,0,4,3,1,43,0004-00-0004-72.png,0003-00-0008-23.png
00000014,302,1,1440169659976,1440169660514,900,397,0,0,0,2,1,1,21,0002-00-0009-63.png,0001-00-0009-03.png
00000014,303,0,1440169661560,1440169662078,374,412,0,0,0,5,4,1,54,0005-00-0009-28.png,0004-00-0000-04.png
00000014,304,1,1440169665151,1440169665747,376,449,0,0,0,1,2,1,12,0001-00-0006-43.png,0002-00-0003-44.png
00000014,305,1,1440169666779,1440169667276,880,392,0,0,0,3,2,1,32,0003-00-0003-27.png,0002-00-0001-35.png
00000014,306,0,1440169668779,1440169669303,369,401,0,0,0,5,4,1,54,0005-00-0000-69.png,0004-00-0005-57.png
00000014,307,1,1440169672166,1440169672214,504,436,0,0,0,4,5,1,45,0004-00-0007-80.png,0005-00-0004-46.png
00000014,308,0,1440169673211,1440169673745,875,410,0,0,0,2,3,1,23,0002-00-0000-31.png,0003-00-0001-25.png
00000014,309,0,1440169677953,1440169678528,291,393,0,0,0,2,1,1,21,0002-00-0008-62.png,0001-00-0006-83.png
00000014,310,0,1440169682405,1440169683515,926,370,0,0,0,3,4,1,34,0003-00-0007-70.png,0004-00-0002-38.png
00000014,311,1,1440169686698,1440169687434,907,392,0,0,0,4,3,1,43,0004-00-0005-69.png,0003-00-0008-20.png
00000014,312,1,1440169688554,1440169689052,387,409,0,0,0,1,2,1,12,0001-00-0002-90.png,0002-00-0000-59.png
00000014,313,1,1440169690253,1440169690790,350,396,0,0,0,2,3,1,23,0002-00-0009-90.png,0003-00-0006-08.png
00000014,314,0,1440169691887,1440169692450,380,389,0,0,0,4,3,1,43,0004-00-0003-05.png,0003-00-0009-73.png
00000014,315,0,1440169695383,1440169695391,511,495,0,0,0,5,4,1,54,0005-00-0006-70.png,0004-00-0006-79.png
00000014,316,0,1440169699361,1440169699931,323,383,0,0,0,3,2,1,32,0003-00-0000-04.png,0002-00-0004-17.png
00000014,317,0,1440169703792,1440169704299,882,514,0,0,0,3,4,1,34,0003-00-0004-47.png,0004-00-0000-25.png
00000014,318,1,1440169707149,1440169707173,522,445,0,0,0,1,2,1,12,0001-00-0006-51.png,0002-00-0008-75.png
00000014,319,0,1440169708195,1440169708696,319,390,0,0,0,2,1,1,21,0002-00-0000-45.png,0001-00-0008-07.png
00000014,320,0,1440169711902,1440169712611,901,397,0,0,0,4,5,1,45,0004-00-0001-34.png,0005-00-0000-92.png
00000014,321,0,1440169715848,1440169716331,376,488,0,0,0,3,2,1,32,0003-00-0001-37.png,0002-00-0001-04.png
00000014,322,0,1440169719247,1440169719263,431,413,0,0,0,2,1,1,21,0002-00-0009-40.png,0001-00-0008-91.png
00000014,323,0,1440169722357,1440169722911,869,524,0,0,0,3,4,1,34,0003-00-0002-65.png,0004-00-0000-66.png
00000014,324,0,1440169725839,1440169725869,520,461,0,0,0,5,4,1,54,0005-00-0004-13.png,0004-00-0000-00.png
00000014,325,0,1440169728979,1440169729413,337,406,0,0,0,4,3,1,43,0004-00-0005-65.png,0003-00-0009-30.png
00000014,326,1,1440169732466,1440169733050,323,338,0,0,0,2,3,1,23,0002-00-0007-65.png,0003-00-0002-52.png
00000014,327,1,1440169734174,1440169734716,322,391,0,0,0,1,2,1,12,0001-00-0009-71.png,0002-00-0008-12.png
00000014,328,1,1440169735794,1440169736365,401,384,0,0,0,4,5,1,45,0004-00-0009-95.png,0005-00-0004-24.png
00000014,329,0,1440169737831,1440169738306,880,402,0,0,0,1,2,1,12,0001-00-0007-63.png,0002-00-0006-08.png
00000014,330,1,1440169741217,1440169741233,507,500,0,0,0,4,5,1,45,0004-00-0006-37.png,0005-00-0002-04.png
00000014,331,1,1440169742620,1440169743482,879,428,0,0,0,2,1,1,21,0002-00-0004-06.png,0001-00-0005-70.png
00000014,332,1,1440169744492,1440169745010,876,407,0,0,0,3,2,1,32,0003-00-0002-14.png,0002-00-0001-99.png
00000014,333,0,1440169746668,1440169747133,338,400,0,0,0,4,3,1,43,0004-00-0002-98.png,0003-00-0005-63.png
00000014,334,1,1440169750105,1440169750125,498,479,0,0,0,3,4,1,34,0003-00-0003-47.png,0004-00-0000-32.png
00000014,335,1,1440169751547,1440169752086,877,392,0,0,0,5,4,1,54,0005-00-0006-28.png,0004-00-0008-20.png
00000014,336,1,1440169753545,1440169754096,342,394,0,0,0,2,3,1,23,0002-00-0005-55.png,0003-00-0000-25.png
00000014,337,1,1440169755176,1440169755681,343,399,0,0,0,1,2,1,12,0001-00-0009-78.png,0002-00-0001-19.png
00000014,338,0,1440169756745,1440169757309,350,422,0,0,0,2,1,1,21,0002-00-0009-74.png,0001-00-0008-98.png
00000014,339,1,1440169760393,1440169760916,345,378,0,0,0,4,5,1,45,0004-00-0003-96.png,0005-00-0002-16.png
00000014,340,0,1440169762029,1440169762570,361,398,0,0,0,4,3,1,43,0004-00-0003-43.png,0003-00-0008-19.png
00000014,341,0,1440169765442,1440169765478,516,499,0,0,0,3,2,1,32,0003-00-0009-48.png,0002-00-0001-36.png
00000014,342,0,1440169768503,1440169769083,926,371,0,0,0,3,4,1,34,0003-00-0005-85.png,0004-00-0004-09.png
00000014,343,0,1440169772200,1440169772692,355,400,0,0,0,5,4,1,54,0005-00-0009-31.png,0004-00-0005-38.png
00000014,344,1,1440169775739,1440169775783,462,521,0,0,0,2,3,1,23,0002-00-0002-96.png,0003-00-0001-87.png
00000014,345,1,1440169776792,1440169777358,322,376,0,0,0,1,2,1,12,0001-00-0009-16.png,0002-00-0006-80.png
00000014,346,0,1440169778553,1440169779118,888,423,0,0,0,4,5,1,45,0004-00-0005-10.png,0005-00-0003-87.png
00000014,347,0,1440169782100,1440169782627,363,384,0,0,0,5,4,1,54,0005-00-0001-75.png,0004-00-0003-99.png
00000014,348,1,1440169785815,1440169786300,325,398,0,0,0,3,4,1,34,0003-00-0004-88.png,0004-00-0005-77.png
00000014,349,0,1440169787337,1440169787874,359,407,0,0,0,4,3,1,43,0004-00-0002-09.png,0003-00-0001-78.png
00000014,350,0,1440169791003,1440169791590,874,464,0,0,0,2,3,1,23,0002-00-0001-67.png,0003-00-0009-77.png
00000014,351,1,1440169794722,1440169795324,881,463,0,0,0,3,2,1,32,0003-00-0004-22.png,0002-00-0007-86.png
00000014,352,0,1440169796282,1440169796856,349,422,0,0,0,2,1,1,21,0002-00-0003-28.png,0001-00-0000-27.png
00000014,353,1,1440169799938,1440169800554,343,349,0,0,0,4,5,1,45,0004-00-0000-43.png,0005-00-0001-47.png
00000014,354,1,1440169801598,1440169802131,900,377,0,0,0,4,3,1,43,0004-00-0003-09.png,0003-00-0003-05.png
00000014,355,0,1440169803646,1440169804170,882,416,0,0,0,2,3,1,23,0002-00-0001-90.png,0003-00-0002-41.png
00000014,356,0,1440169807255,1440169807843,359,348,0,0,0,5,4,1,54,0005-00-0006-06.png,0004-00-0003-04.png
00000014,357,0,1440169810670,1440169811298,932,409,0,0,0,3,4,1,34,0003-00-0007-44.png,0004-00-0002-25.png
00000014,358,0,1440169814279,1440169814315,518,499,0,0,0,3,2,1,32,0003-00-0009-52.png,0002-00-0001-70.png
00000014,359,1,1440169817232,1440169817746,323,372,0,0,0,1,2,1,12,0001-00-0000-19.png,0002-00-0002-51.png
00000014,360,1,1440169818772,1440169819447,901,453,0,0,0,2,1,1,21,0002-00-0003-46.png,0001-00-0005-01.png
00000014,361,0,1440169820900,1440169821374,367,419,0,0,0,4,3,1,43,0004-00-0006-20.png,0003-00-0000-05.png
00000014,362,0,1440169824429,1440169824437,513,449,0,0,0,3,2,1,32,0003-00-0002-74.png,0002-00-0002-96.png
00000014,363,1,1440169827610,1440169828057,879,402,0,0,0,2,1,1,21,0002-00-0004-23.png,0001-00-0003-19.png
00000014,364,1,1440169829149,1440169829674,309,379,0,0,0,1,2,1,12,0001-00-0005-60.png,0002-00-0004-61.png
00000014,365,0,1440169830839,1440169831358,877,442,0,0,0,3,4,1,34,0003-00-0002-52.png,0004-00-0007-07.png
00000014,366,1,1440169834307,1440169834850,365,394,0,0,0,4,5,1,45,0004-00-0004-22.png,0005-00-0001-30.png
00000014,367,0,1440169836253,1440169836836,361,392,0,0,0,5,4,1,54,0005-00-0002-89.png,0004-00-0000-79.png
00000014,368,0,1440169839710,1440169840247,900,455,0,0,0,2,3,1,23,0002-00-0001-25.png,0003-00-0006-58.png
00000014,369,0,1440169843440,1440169843929,374,497,0,0,0,5,4,1,54,0005-00-0002-25.png,0004-00-0008-79.png
00000014,370,1,1440169847236,1440169847969,368,402,0,0,0,4,5,1,45,0004-00-0008-72.png,0005-00-0000-84.png
00000014,371,0,1440169849053,1440169849597,392,508,0,0,0,2,1,1,21,0002-00-0002-03.png,0001-00-0000-95.png
00000014,372,0,1440169852532,1440169852556,495,509,0,0,0,3,2,1,32,0003-00-0005-62.png,0002-00-0008-76.png
00000014,373,1,1440169855524,1440169856047,389,397,0,0,0,2,3,1,23,0002-00-0001-06.png,0003-00-0007-33.png
00000014,374,1,1440169857433,1440169857912,376,398,0,0,0,1,2,1,12,0001-00-0005-56.png,0002-00-0002-76.png
00000014,375,1,1440169858962,1440169859527,880,427,0,0,0,4,3,1,43,0004-00-0009-79.png,0003-00-0002-44.png
00000014,376,0,1440169860563,1440169861125,899,388,0,0,0,3,4,1,34,0003-00-0008-21.png,0004-00-0007-14.png
00000014,377,0,1440169864244,1440169864810,875,487,0,0,0,2,3,1,23,0002-00-0003-43.png,0003-00-0004-78.png
00000014,378,0,1440169867649,1440169868123,343,391,0,0,0,2,1,1,21,0002-00-0005-39.png,0001-00-0002-70.png
00000014,379,0,1440169871305,1440169871876,338,367,0,0,0,5,4,1,54,0005-00-0009-36.png,0004-00-0008-26.png
00000014,380,0,1440169875456,1440169875996,901,440,0,0,0,3,4,1,34,0003-00-0001-93.png,0004-00-0001-56.png
00000014,381,1,1440169878936,1440169878984,504,451,0,0,0,1,2,1,12,0001-00-0005-41.png,0002-00-0007-67.png
00000014,382,1,1440169879960,1440169880507,937,398,0,0,0,4,3,1,43,0004-00-0002-83.png,0003-00-0001-88.png
00000014,383,1,1440169881482,1440169882006,358,428,0,0,0,4,5,1,45,0004-00-0006-48.png,0005-00-0007-48.png
00000014,384,1,1440169883043,1440169883565,875,410,0,0,0,3,2,1,32,0003-00-0006-65.png,0002-00-0008-81.png
00000014,385,0,1440169884572,1440169885107,888,398,0,0,0,3,4,1,34,0003-00-0001-27.png,0004-00-0007-92.png
00000014,386,0,1440169890634,1440169891246,904,387,0,0,0,1,2,1,12,0001-00-0004-66.png,0002-00-0002-17.png
00000014,387,1,1440169908060,1440169908749,936,399,0,0,0,4,3,1,43,0004-00-0009-32.png,0003-00-0005-67.png
00000014,388,1,1440169909727,1440169910194,921,393,0,0,0,3,2,1,32,0003-00-0002-95.png,0002-00-0001-89.png
00000014,389,0,1440169911200,1440169911803,354,406,0,0,0,5,4,1,54,0005-00-0000-73.png,0004-00-0000-77.png
00000014,390,1,1440169914817,1440169914865,504,436,0,0,0,4,5,1,45,0004-00-0001-41.png,0005-00-0007-23.png
00000014,391,0,1440169915861,1440169916410,390,403,0,0,0,2,1,1,21,0002-00-0004-96.png,0001-00-0001-07.png
00000014,392,0,1440169919718,1440169920341,904,401,0,0,0,2,3,1,23,0002-00-0009-03.png,0003-00-0001-30.png
00000014,393,0,1440169923531,1440169924076,376,410,0,0,0,2,1,1,21,0002-00-0007-15.png,0001-00-0006-53.png
00000014,394,0,1440169927089,1440169927137,509,475,0,0,0,5,4,1,54,0005-00-0008-55.png,0004-00-0001-20.png
00000014,395,1,1440169930332,1440169931004,912,398,0,0,0,3,2,1,32,0003-00-0006-16.png,0002-00-0006-63.png
00000014,396,1,1440169932074,1440169932662,349,345,0,0,0,4,5,1,45,0004-00-0009-12.png,0005-00-0002-40.png
00000014,397,0,1440169933690,1440169934274,876,408,0,0,0,3,4,1,34,0003-00-0002-84.png,0004-00-0005-36.png
00000014,398,1,1440169937158,1440169937673,340,372,0,0,0,1,2,1,12,0001-00-0007-12.png,0002-00-0003-70.png
00000014,399,0,1440169938698,1440169939646,427,384,0,0,0,4,3,1,43,0004-00-0003-06.png,0003-00-0009-37.png
00000014,400,0,1440169942705,1440169943298,874,463,0,0,0,2,3,1,23,0002-00-0009-18.png,0003-00-0006-26.png
00000014,401,0,1440169946392,1440169946945,340,397,0,0,0,5,4,1,54,0005-00-0006-36.png,0004-00-0004-77.png
00000014,402,1,1440169949918,1440169950456,332,397,0,0,0,1,2,1,12,0001-00-0007-47.png,0002-00-0001-77.png
00000014,403,0,1440169951550,1440169952148,877,493,0,0,0,4,5,1,45,0004-00-0003-69.png,0005-00-0001-74.png
00000014,404,0,1440169955128,1440169955172,521,462,0,0,0,3,2,1,32,0003-00-0009-81.png,0002-00-0003-66.png
00000014,405,0,1440169958627,1440169959052,401,397,0,0,0,4,3,1,43,0004-00-0001-66.png,0003-00-0005-08.png
00000014,406,0,1440169962354,1440169962926,900,437,0,0,0,3,4,1,34,0003-00-0008-89.png,0004-00-0004-23.png
00000014,407,0,1440169965948,1440169966535,358,362,0,0,0,2,1,1,21,0002-00-0003-44.png,0001-00-0007-12.png
00000014,408,0,1440169969429,1440169969989,903,363,0,0,0,2,3,1,23,0002-00-0004-20.png,0003-00-0009-17.png
00000014,409,0,1440169972878,1440169973487,922,367,0,0,0,1,2,1,12,0001-00-0008-55.png,0002-00-0007-18.png
00000014,410,0,1440169976932,1440169977475,372,385,0,0,0,2,1,1,21,0002-00-0002-01.png,0001-00-0003-80.png
00000014,411,1,1440169980627,1440169981167,886,507,0,0,0,5,4,1,54,0005-00-0003-80.png,0004-00-0001-43.png
00000014,412,0,1440169982177,1440169982758,902,414,0,0,0,2,3,1,23,0002-00-0004-76.png,0003-00-0003-34.png
00000014,413,0,1440169985897,1440169986368,385,403,0,0,0,4,3,1,43,0004-00-0005-66.png,0003-00-0005-58.png
00000014,414,1,1440169989397,1440169989992,382,487,0,0,0,4,5,1,45,0004-00-0006-69.png,0005-00-0001-48.png
00000014,415,1,1440169991036,1440169991528,874,386,0,0,0,3,2,1,32,0003-00-0000-41.png,0002-00-0006-22.png
00000014,416,0,1440169992627,1440169993211,902,396,0,0,0,3,4,1,34,0003-00-0000-09.png,0004-00-0008-65.png
00000014,417,1,1440169996056,1440169996749,927,390,0,0,0,3,2,1,32,0003-00-0004-17.png,0002-00-0004-50.png
00000014,418,0,1440169997802,1440169998382,376,488,0,0,0,4,3,1,43,0004-00-0008-71.png,0003-00-0008-78.png
00000014,419,1,1440170001520,1440170002042,352,396,0,0,0,1,2,1,12,0001-00-0008-46.png,0002-00-0004-39.png
00000014,420,1,1440170003066,1440170003642,913,410,0,0,0,2,1,1,21,0002-00-0002-77.png,0001-00-0009-96.png
00000014,421,1,1440170004660,1440170005225,401,514,0,0,0,4,5,1,45,0004-00-0007-29.png,0005-00-0001-45.png
00000014,422,0,1440170006229,1440170007257,392,429,0,0,0,5,4,1,54,0005-00-0006-48.png,0004-00-0004-24.png
00000014,423,1,1440170010191,1440170010731,409,393,0,0,0,3,4,1,34,0003-00-0001-30.png,0004-00-0005-73.png
00000014,424,0,1440170011826,1440170012374,900,403,0,0,0,2,3,1,23,0002-00-0006-44.png,0003-00-0000-06.png
00000014,425,0,1440170015699,1440170016256,376,384,0,0,0,4,3,1,43,0004-00-0007-08.png,0003-00-0002-36.png
00000014,426,1,1440170019368,1440170020001,303,353,0,0,0,3,4,1,34,0003-00-0001-96.png,0004-00-0005-58.png
00000014,427,1,1440170021179,1440170022272,930,427,0,0,0,5,4,1,54,0005-00-0008-18.png,0004-00-0002-26.png
00000014,428,1,1440170023394,1440170024352,344,413,0,0,0,1,2,1,12,0001-00-0002-12.png,0002-00-0001-16.png
00000014,429,0,1440170025420,1440170025910,338,410,0,0,0,3,2,1,32,0003-00-0004-11.png,0002-00-0000-21.png
00000014,430,0,1440170029000,1440170029048,521,504,0,0,0,2,1,1,21,0002-00-0006-41.png,0001-00-0006-21.png
00000014,431,1,1440170032535,1440170033047,322,396,0,0,0,4,5,1,45,0004-00-0004-86.png,0005-00-0007-11.png
00000014,432,0,1440170034251,1440170034782,901,434,0,0,0,2,3,1,23,0002-00-0000-39.png,0003-00-0004-03.png
00000014,433,1,1440170037626,1440170038157,417,403,0,0,0,4,5,1,45,0004-00-0009-19.png,0005-00-0004-48.png
00000014,434,1,1440170039156,1440170039723,423,419,0,0,0,3,4,1,34,0003-00-0008-05.png,0004-00-0007-23.png
00000014,435,1,1440170040815,1440170041324,325,411,0,0,0,1,2,1,12,0001-00-0006-04.png,0002-00-0000-55.png
00000014,436,0,1440170042878,1440170043858,441,434,0,0,0,4,3,1,43,0004-00-0002-17.png,0003-00-0008-86.png
00000014,437,1,1440170047016,1440170047526,350,396,0,0,0,2,3,1,23,0002-00-0007-62.png,0003-00-0007-12.png
00000014,438,0,1440170048604,1440170049167,345,419,0,0,0,3,2,1,32,0003-00-0006-39.png,0002-00-0007-52.png
00000014,439,1,1440170052143,1440170052666,899,490,0,0,0,2,1,1,21,0002-00-0003-60.png,0001-00-0008-50.png
00000014,440,1,1440170053644,1440170054215,861,472,0,0,0,5,4,1,54,0005-00-0007-53.png,0004-00-0003-04.png
00000014,441,0,1440170055304,1440170055875,341,428,0,0,0,5,4,1,54,0005-00-0009-75.png,0004-00-0001-67.png
00000014,442,0,1440170058911,1440170059418,362,393,0,0,0,3,2,1,32,0003-00-0006-07.png,0002-00-0005-90.png
00000014,443,0,1440170062507,1440170063210,902,465,0,0,0,2,3,1,23,0002-00-0001-07.png,0003-00-0000-69.png
00000014,444,1,1440170066255,1440170066771,324,398,0,0,0,4,5,1,45,0004-00-0009-05.png,0005-00-0001-12.png
00000014,445,0,1440170067852,1440170068407,359,423,0,0,0,4,3,1,43,0004-00-0006-52.png,0003-00-0004-91.png
00000014,446,0,1440170071612,1440170072171,376,474,0,0,0,2,1,1,21,0002-00-0006-86.png,0001-00-0003-98.png
00000014,447,0,1440170075230,1440170075802,874,501,0,0,0,1,2,1,12,0001-00-0008-57.png,0002-00-0004-54.png
00000014,448,1,1440170078849,1440170079479,275,351,0,0,0,3,4,1,34,0003-00-0000-72.png,0004-00-0006-80.png
00000014,449,1,1440170080607,1440170081164,878,444,0,0,0,2,1,1,21,0002-00-0000-59.png,0001-00-0001-11.png
00000014,450,1,1440170082216,1440170082711,355,424,0,0,0,1,2,1,12,0001-00-0000-14.png,0002-00-0008-92.png
00000014,451,0,1440170083967,1440170084532,911,424,0,0,0,2,3,1,23,0002-00-0003-71.png,0003-00-0001-27.png
00000014,452,0,1440170087481,1440170087980,376,410,0,0,0,5,4,1,54,0005-00-0001-12.png,0004-00-0001-83.png
00000014,453,1,1440170091307,1440170091802,880,428,0,0,0,4,3,1,43,0004-00-0000-70.png,0003-00-0009-15.png
00000014,454,1,1440170093338,1440170093860,367,397,0,0,0,4,5,1,45,0004-00-0004-82.png,0005-00-0007-94.png
00000014,455,0,1440170094926,1440170095410,869,524,0,0,0,3,4,1,34,0003-00-0009-78.png,0004-00-0003-05.png
00000014,456,1,1440170098864,1440170099332,875,437,0,0,0,3,2,1,32,0003-00-0000-34.png,0002-00-0003-50.png
00000014,457,1,1440170100348,1440170100904,365,403,0,0,0,2,3,1,23,0002-00-0005-69.png,0003-00-0001-59.png
00000014,458,1,1440170101996,1440170102612,880,427,0,0,0,3,2,1,32,0003-00-0000-94.png,0002-00-0000-09.png
00000014,459,1,1440170103684,1440170104243,876,408,0,0,0,5,4,1,54,0005-00-0000-19.png,0004-00-0002-48.png
00000014,460,0,1440170105346,1440170105868,342,405,0,0,0,4,3,1,43,0004-00-0006-06.png,0003-00-0002-32.png
00000014,461,1,1440170108943,1440170109479,401,422,0,0,0,4,5,1,45,0004-00-0002-44.png,0005-00-0007-59.png
00000014,462,1,1440170110512,1440170111047,875,410,0,0,0,2,1,1,21,0002-00-0000-49.png,0001-00-0004-53.png
00000014,463,0,1440170112110,1440170112645,900,429,0,0,0,1,2,1,12,0001-00-0002-87.png,0002-00-0000-29.png
00000014,464,0,1440170116268,1440170116950,899,483,0,0,0,3,4,1,34,0003-00-0005-81.png,0004-00-0007-73.png
00000014,465,1,1440170119825,1440170119845,497,479,0,0,0,3,4,1,34,0003-00-0001-04.png,0004-00-0008-88.png
00000014,466,0,1440170121287,1440170121969,390,396,0,0,0,5,4,1,54,0005-00-0009-61.png,0004-00-0006-39.png
00000014,467,1,1440170125124,1440170125852,875,470,0,0,0,2,1,1,21,0002-00-0004-93.png,0001-00-0003-65.png
00000014,468,1,1440170126990,1440170127504,366,421,0,0,0,2,3,1,23,0002-00-0005-67.png,0003-00-0002-09.png
00000014,469,1,1440170128562,1440170129131,875,436,0,0,0,3,2,1,32,0003-00-0006-70.png,0002-00-0006-74.png
00000014,470,1,1440170130579,1440170131111,420,546,0,0,0,4,5,1,45,0004-00-0008-38.png,0005-00-0008-49.png
00000014,471,0,1440170132160,1440170132765,438,528,0,0,0,4,3,1,43,0004-00-0006-88.png,0003-00-0009-83.png
00000014,472,1,1440170135696,1440170136238,319,395,0,0,0,1,2,1,12,0001-00-0002-49.png,0002-00-0000-77.png
00000014,473,1,1440170137266,1440170137854,352,398,0,0,0,3,4,1,34,0003-00-0001-43.png,0004-00-0009-16.png
00000014,474,1,1440170138948,1440170139498,380,410,0,0,0,4,5,1,45,0004-00-0004-34.png,0005-00-0000-07.png
00000014,475,0,1440170140609,1440170141152,389,501,0,0,0,4,3,1,43,0004-00-0008-26.png,0003-00-0007-34.png
00000014,476,1,1440170144234,1440170144749,904,419,0,0,0,2,1,1,21,0002-00-0007-02.png,0001-00-0003-31.png
00000014,477,1,1440170145715,1440170146314,425,385,0,0,0,2,3,1,23,0002-00-0009-06.png,0003-00-0001-90.png
00000014,478,0,1440170147395,1440170147985,899,410,0,0,0,1,2,1,12,0001-00-0007-95.png,0002-00-0006-19.png
00000014,479,0,1440170151062,1440170151667,363,394,0,0,0,5,4,1,54,0005-00-0006-20.png,0004-00-0000-82.png
00000014,480,0,1440170154769,1440170155740,388,436,0,0,0,3,2,1,32,0003-00-0001-57.png,0002-00-0005-59.png
00000014,481,1,1440170158943,1440170159417,387,410,0,0,0,4,5,1,45,0004-00-0008-56.png,0005-00-0007-87.png
00000014,482,0,1440170160454,1440170160983,359,401,0,0,0,3,2,1,32,0003-00-0000-51.png,0002-00-0007-78.png
00000014,483,1,1440170163968,1440170164478,382,369,0,0,0,1,2,1,12,0001-00-0000-40.png,0002-00-0007-73.png
00000014,484,1,1440170165451,1440170166018,401,384,0,0,0,3,4,1,34,0003-00-0000-26.png,0004-00-0005-49.png
00000014,485,1,1440170167162,1440170167999,401,361,0,0,0,2,3,1,23,0002-00-0004-92.png,0003-00-0004-99.png
00000014,486,0,1440170169398,1440170169921,387,527,0,0,0,4,3,1,43,0004-00-0002-77.png,0003-00-0002-89.png
00000014,487,0,1440170172847,1440170172867,496,464,0,0,0,2,1,1,21,0002-00-0003-15.png,0001-00-0003-59.png
00000014,488,0,1440170176253,1440170176737,366,496,0,0,0,5,4,1,54,0005-00-0000-32.png,0004-00-0004-70.png
00000014,489,1,1440170179716,1440170180214,926,410,0,0,0,4,3,1,43,0004-00-0003-09.png,0003-00-0002-17.png
00000014,490,1,1440170181205,1440170181766,273,397,0,0,0,1,2,1,12,0001-00-0002-86.png,0002-00-0002-22.png
00000014,491,0,1440170182812,1440170183947,912,451,0,0,0,4,5,1,45,0004-00-0000-95.png,0005-00-0004-55.png
00000014,492,0,1440170187008,1440170187503,351,403,0,0,0,5,4,1,54,0005-00-0001-95.png,0004-00-0001-60.png
00000014,493,0,1440170190577,1440170191119,357,389,0,0,0,3,2,1,32,0003-00-0008-06.png,0002-00-0007-27.png
00000014,494,0,1440170193975,1440170194531,907,418,0,0,0,2,3,1,23,0002-00-0002-71.png,0003-00-0006-54.png
00000014,495,0,1440170197652,1440170198206,414,495,0,0,0,2,1,1,21,0002-00-0002-10.png,0001-00-0005-79.png
00000014,496,1,1440170201141,1440170201647,397,410,0,0,0,3,4,1,34,0003-00-0002-02.png,0004-00-0004-89.png
00000014,497,1,1440170202705,1440170203296,325,397,0,0,0,4,5,1,45,0004-00-0004-78.png,0005-00-0000-41.png
00000014,498,0,1440170204383,1440170204985,401,537,0,0,0,2,1,1,21,0002-00-0003-22.png,0001-00-0007-35.png
00000014,499,0,1440170207980,1440170208601,359,335,0,0,0,3,2,1,32,0003-00-0003-16.png,0002-00-0003-36.png
00000014,500,0,1440170211587,1440170212084,376,397,0,0,0,4,3,1,43,0004-00-0007-54.png,0003-00-0002-69.png
00000014,501,1,1440170215236,1440170215719,376,436,0,0,0,3,4,1,34,0003-00-0008-06.png,0004-00-0008-04.png
00000014,502,1,1440170217183,1440170218000,413,502,0,0,0,2,3,1,23,0002-00-0009-34.png,0003-00-0006-88.png
00000014,503,0,1440170219108,1440170219647,394,400,0,0,0,5,4,1,54,0005-00-0008-12.png,0004-00-0001-65.png
00000014,504,1,1440170222766,1440170223338,342,401,0,0,0,1,2,1,12,0001-00-0007-23.png,0002-00-0000-51.png
00000014,505,1,1440170224477,1440170225001,401,436,0,0,0,3,4,1,34,0003-00-0000-83.png,0004-00-0004-53.png
00000014,506,0,1440170225986,1440170226937,356,435,0,0,0,5,4,1,54,0005-00-0000-48.png,0004-00-0005-82.png
00000014,507,0,1440170229945,1440170229949,498,498,0,0,0,4,3,1,43,0004-00-0009-49.png,0003-00-0006-72.png
00000014,508,1,1440170232916,1440170232980,509,496,0,0,0,2,3,1,23,0002-00-0003-56.png,0003-00-0005-54.png
00000014,509,1,1440170233990,1440170234521,362,371,0,0,0,4,5,1,45,0004-00-0002-24.png,0005-00-0001-66.png
00000014,510,0,1440170235533,1440170236063,365,404,0,0,0,2,1,1,21,0002-00-0001-61.png,0001-00-0005-71.png
00000014,511,0,1440170239336,1440170239873,372,404,0,0,0,3,2,1,32,0003-00-0002-16.png,0002-00-0001-26.png
00000014,512,1,1440170242825,1440170243387,350,384,0,0,0,1,2,1,12,0001-00-0004-49.png,0002-00-0005-33.png
00000014,513,1,1440170244379,1440170244918,875,411,0,0,0,3,2,1,32,0003-00-0007-52.png,0002-00-0007-50.png
00000014,514,0,1440170245943,1440170246724,337,398,0,0,0,2,1,1,21,0002-00-0005-85.png,0001-00-0001-22.png
00000014,515,1,1440170250009,1440170250490,361,390,0,0,0,4,5,1,45,0004-00-0001-13.png,0005-00-0000-00.png
00000014,516,0,1440170251579,1440170252149,340,392,0,0,0,5,4,1,54,0005-00-0009-68.png,0004-00-0003-71.png
00000014,517,1,1440170255187,1440170255722,401,473,0,0,0,3,4,1,34,0003-00-0007-77.png,0004-00-0001-11.png
00000014,518,0,1440170256708,1440170257230,393,413,0,0,0,4,3,1,43,0004-00-0007-24.png,0003-00-0000-23.png
00000014,519,1,1440170260084,1440170260536,343,399,0,0,0,1,2,1,12,0001-00-0009-65.png,0002-00-0009-22.png
00000014,520,0,1440170261512,1440170262160,887,398,0,0,0,2,3,1,23,0002-00-0005-67.png,0003-00-0005-98.png
00000014,521,0,1440170265033,1440170265528,401,396,0,0,0,5,4,1,54,0005-00-0009-47.png,0004-00-0004-96.png
00000014,522,1,1440170268564,1440170269273,882,436,0,0,0,2,1,1,21,0002-00-0003-20.png,0001-00-0007-91.png
00000014,523,1,1440170270212,1440170270751,886,425,0,0,0,3,2,1,32,0003-00-0008-24.png,0002-00-0008-47.png
00000014,524,1,1440170271712,1440170272237,365,416,0,0,0,1,2,1,12,0001-00-0006-35.png,0002-00-0005-04.png
00000014,525,1,1440170273573,1440170274122,874,436,0,0,0,4,3,1,43,0004-00-0001-52.png,0003-00-0009-96.png
00000014,526,1,1440170275280,1440170275857,336,414,0,0,0,4,5,1,45,0004-00-0001-38.png,0005-00-0002-73.png
00000014,527,0,1440170276869,1440170277547,875,410,0,0,0,2,3,1,23,0002-00-0001-77.png,0003-00-0007-15.png
00000014,528,1,1440170280529,1440170281021,395,513,0,0,0,3,4,1,34,0003-00-0003-38.png,0004-00-0004-20.png
00000014,529,0,1440170282033,1440170282570,874,436,0,0,0,1,2,1,12,0001-00-0005-08.png,0002-00-0009-62.png
00000014,530,1,1440170285557,1440170286084,369,410,0,0,0,2,3,1,23,0002-00-0003-11.png,0003-00-0004-41.png
00000014,531,1,1440170287150,1440170287680,365,430,0,0,0,3,4,1,34,0003-00-0006-67.png,0004-00-0001-55.png
00000014,532,0,1440170288769,1440170289448,386,327,0,0,0,3,2,1,32,0003-00-0002-46.png,0002-00-0007-39.png
00000014,533,0,1440170292475,1440170292990,328,401,0,0,0,2,1,1,21,0002-00-0006-27.png,0001-00-0009-13.png
00000014,534,1,1440170296081,1440170296545,358,397,0,0,0,4,5,1,45,0004-00-0001-22.png,0005-00-0005-86.png
00000014,535,1,1440170297723,1440170298243,871,446,0,0,0,4,3,1,43,0004-00-0001-53.png,0003-00-0008-72.png
00000014,536,1,1440170299384,1440170299938,877,425,0,0,0,5,4,1,54,0005-00-0002-94.png,0004-00-0006-06.png
00000014,537,1,1440170300983,1440170302003,905,480,0,0,0,2,1,1,21,0002-00-0001-16.png,0001-00-0003-17.png
00000014,538,0,1440170303058,1440170303710,300,377,0,0,0,5,4,1,54,0005-00-0003-67.png,0004-00-0009-11.png
00000014,539,0,1440170306556,1440170307099,902,422,0,0,0,2,3,1,23,0002-00-0007-34.png,0003-00-0006-27.png
00000014,540,1,1440170310128,1440170310136,514,498,0,0,0,4,5,1,45,0004-00-0001-28.png,0005-00-0005-29.png
00000014,541,1,1440170311202,1440170311692,875,437,0,0,0,4,3,1,43,0004-00-0000-26.png,0003-00-0008-57.png
00000014,542,1,1440170312838,1440170313373,376,384,0,0,0,1,2,1,12,0001-00-0008-15.png,0002-00-0004-90.png
00000014,543,0,1440170314825,1440170315331,376,425,0,0,0,3,2,1,32,0003-00-0005-67.png,0002-00-0007-62.png
00000014,544,0,1440170318246,1440170318804,899,490,0,0,0,3,4,1,34,0003-00-0001-63.png,0004-00-0005-50.png
00000014,545,0,1440170321916,1440170322594,925,410,0,0,0,2,3,1,23,0002-00-0002-13.png,0003-00-0001-17.png
00000014,546,1,1440170325460,1440170325950,908,421,0,0,0,2,1,1,21,0002-00-0004-82.png,0001-00-0000-61.png
00000014,547,0,1440170326954,1440170327456,355,450,0,0,0,3,2,1,32,0003-00-0009-92.png,0002-00-0003-44.png
00000014,548,0,1440170330461,1440170331049,889,501,0,0,0,3,4,1,34,0003-00-0009-61.png,0004-00-0001-76.png
00000014,549,1,1440170334356,1440170334877,336,397,0,0,0,4,5,1,45,0004-00-0003-90.png,0005-00-0004-07.png
00000014,550,1,1440170335924,1440170336484,862,476,0,0,0,5,4,1,54,0005-00-0000-32.png,0004-00-0002-98.png
00000014,551,1,1440170337557,1440170338083,885,426,0,0,0,4,3,1,43,0004-00-0009-32.png,0003-00-0002-35.png
00000014,552,1,1440170339157,1440170339710,373,423,0,0,0,1,2,1,12,0001-00-0009-67.png,0002-00-0003-15.png
00000014,553,1,1440170340777,1440170341310,900,429,0,0,0,5,4,1,54,0005-00-0005-84.png,0004-00-0002-17.png
00000014,554,0,1440170342298,1440170342808,879,428,0,0,0,3,4,1,34,0003-00-0003-00.png,0004-00-0001-03.png
00000014,555,1,1440170345844,1440170346385,326,406,0,0,0,2,3,1,23,0002-00-0000-35.png,0003-00-0006-51.png
00000014,556,0,1440170347452,1440170348000,388,495,0,0,0,3,2,1,32,0003-00-0007-59.png,0002-00-0002-22.png
00000014,557,1,1440170350885,1440170351421,350,400,0,0,0,1,2,1,12,0001-00-0001-43.png,0002-00-0008-31.png
00000014,558,0,1440170352415,1440170352961,327,431,0,0,0,4,3,1,43,0004-00-0008-92.png,0003-00-0004-39.png
00000014,559,1,1440170355982,1440170356614,929,402,0,0,0,2,1,1,21,0002-00-0006-84.png,0001-00-0002-94.png
00000014,560,1,1440170357541,1440170358128,367,424,0,0,0,4,5,1,45,0004-00-0003-84.png,0005-00-0004-02.png
00000014,561,1,1440170359184,1440170359711,350,403,0,0,0,3,4,1,34,0003-00-0006-00.png,0004-00-0006-29.png
00000014,562,0,1440170360732,1440170361307,884,418,0,0,0,2,3,1,23,0002-00-0009-96.png,0003-00-0000-35.png
00000014,563,1,1440170364280,1440170364961,903,391,0,0,0,3,2,1,32,0003-00-0004-35.png,0002-00-0003-81.png
00000014,564,1,1440170365899,1440170366631,877,415,0,0,0,5,4,1,54,0005-00-0006-51.png,0004-00-0004-89.png
00000014,565,0,1440170367691,1440170368241,385,427,0,0,0,2,1,1,21,0002-00-0004-12.png,0001-00-0002-45.png
00000014,566,1,1440170371215,1440170371732,442,546,0,0,0,1,2,1,12,0001-00-0004-86.png,0002-00-0000-86.png
00000014,567,0,1440170372666,1440170373290,894,498,0,0,0,4,5,1,45,0004-00-0006-03.png,0005-00-0007-64.png
00000014,568,0,1440170376215,1440170376747,378,389,0,0,0,4,3,1,43,0004-00-0005-26.png,0003-00-0003-42.png
00000014,569,1,1440170379821,1440170380604,355,356,0,0,0,3,4,1,34,0003-00-0004-24.png,0004-00-0000-35.png
00000014,570,1,1440170381641,1440170382175,874,436,0,0,0,4,3,1,43,0004-00-0004-03.png,0003-00-0002-30.png
00000014,571,1,1440170383212,1440170383825,876,418,0,0,0,5,4,1,54,0005-00-0007-72.png,0004-00-0009-07.png
00000014,572,1,1440170384880,1440170385385,378,424,0,0,0,1,2,1,12,0001-00-0000-58.png,0002-00-0003-16.png
00000014,573,1,1440170386472,1440170387106,896,395,0,0,0,3,2,1,32,0003-00-0002-06.png,0002-00-0004-57.png
00000014,574,1,1440170388129,1440170388711,875,410,0,0,0,2,1,1,21,0002-00-0001-32.png,0001-00-0009-73.png
00000014,575,0,1440170389771,1440170390401,870,394,0,0,0,4,5,1,45,0004-00-0009-06.png,0005-00-0004-81.png
00000014,576,1,1440170393823,1440170394362,346,377,0,0,0,2,3,1,23,0002-00-0006-09.png,0003-00-0006-65.png
00000014,577,1,1440170395383,1440170395919,869,445,0,0,0,5,4,1,54,0005-00-0009-96.png,0004-00-0003-41.png
00000014,578,1,1440170396986,1440170397536,401,528,0,0,0,3,4,1,34,0003-00-0002-30.png,0004-00-0003-11.png
00000014,579,0,1440170398556,1440170399191,418,528,0,0,0,4,3,1,43,0004-00-0008-40.png,0003-00-0004-14.png
00000014,580,1,1440170402258,1440170402722,335,371,0,0,0,4,5,1,45,0004-00-0004-19.png,0005-00-0004-04.png
00000014,581,0,1440170403773,1440170404318,273,462,0,0,0,3,2,1,32,0003-00-0001-35.png,0002-00-0007-66.png
00000014,582,1,1440170407190,1440170407203,437,495,0,0,0,1,2,1,12,0001-00-0005-15.png,0002-00-0004-89.png
00000014,583,1,1440170408240,1440170408740,901,409,0,0,0,2,1,1,21,0002-00-0000-09.png,0001-00-0005-99.png
00000014,584,1,1440170409736,1440170410267,348,403,0,0,0,2,3,1,23,0002-00-0000-06.png,0003-00-0004-45.png
00000014,585,1,1440170411357,1440170412465,913,410,0,0,0,2,1,1,21,0002-00-0001-93.png,0001-00-0009-16.png
00000014,586,0,1440170413541,1440170414095,380,415,0,0,0,4,3,1,43,0004-00-0009-58.png,0003-00-0004-37.png
00000014,587,0,1440170417079,1440170418589,902,545,0,0,0,1,2,1,12,0001-00-0007-90.png,0002-00-0009-57.png
00000014,588,0,1440170421593,1440170421637,523,479,0,0,0,5,4,1,54,0005-00-0004-26.png,0004-00-0001-28.png
00000014,589,1,1440170424533,1440170425483,440,436,0,0,0,2,3,1,23,0002-00-0000-96.png,0003-00-0007-13.png
00000014,590,1,1440170426463,1440170427416,443,416,0,0,0,4,5,1,45,0004-00-0005-22.png,0005-00-0000-99.png
00000014,591,0,1440170428391,1440170428953,369,405,0,0,0,3,2,1,32,0003-00-0007-81.png,0002-00-0002-92.png
00000014,592,1,1440170431848,1440170431876,510,444,0,0,0,3,4,1,34,0003-00-0007-91.png,0004-00-0001-52.png
00000014,593,1,1440170432921,1440170433468,876,410,0,0,0,4,3,1,43,0004-00-0000-58.png,0003-00-0008-99.png
00000014,594,0,1440170434471,1440170435040,401,436,0,0,0,2,1,1,21,0002-00-0007-26.png,0001-00-0009-91.png
00000014,595,0,1440170438106,1440170438592,318,394,0,0,0,3,2,1,32,0003-00-0000-30.png,0002-00-0009-90.png
00000014,596,1,1440170441468,1440170441488,494,446,0,0,0,2,3,1,23,0002-00-0006-82.png,0003-00-0002-07.png
00000014,597,1,1440170442502,1440170443050,342,435,0,0,0,4,5,1,45,0004-00-0001-85.png,0005-00-0004-22.png
00000014,598,0,1440170444011,1440170444583,367,401,0,0,0,5,4,1,54,0005-00-0002-07.png,0004-00-0004-16.png
00000014,599,0,1440170447528,1440170448159,939,423,0,0,0,1,2,1,12,0001-00-0002-01.png,0002-00-0005-90.png
00000014,600,0,1440170451673,1440170452145,875,371,0,0,0,3,4,1,34,0003-00-0001-29.png,0004-00-0000-87.png
00000014,601,1,1440170455354,1440170455799,382,368,0,0,0,1,2,1,12,0001-00-0001-05.png,0002-00-0008-31.png
00000014,602,1,1440170456814,1440170457337,337,396,0,0,0,3,4,1,34,0003-00-0007-69.png,0004-00-0002-46.png
00000014,603,0,1440170458323,1440170459354,444,386,0,0,0,4,3,1,43,0004-00-0004-28.png,0003-00-0002-74.png
00000014,604,0,1440170462207,1440170462684,412,527,0,0,0,5,4,1,54,0005-00-0003-71.png,0004-00-0007-94.png
00000014,605,1,1440170465665,1440170466139,359,400,0,0,0,4,5,1,45,0004-00-0004-83.png,0005-00-0007-61.png
00000014,606,1,1440170467130,1440170468095,464,430,0,0,0,2,3,1,23,0002-00-0003-69.png,0003-00-0008-91.png
00000014,607,1,1440170469093,1440170469611,901,435,0,0,0,2,1,1,21,0002-00-0005-84.png,0001-00-0002-46.png
00000014,608,1,1440170470641,1440170471162,867,427,0,0,0,3,2,1,32,0003-00-0007-93.png,0002-00-0004-96.png
00000014,609,1,1440170472177,1440170472742,319,407,0,0,0,4,5,1,45,0004-00-0008-54.png,0005-00-0004-47.png
00000014,610,0,1440170473845,1440170474355,875,435,0,0,0,1,2,1,12,0001-00-0003-85.png,0002-00-0005-17.png
00000014,611,1,1440170477861,1440170478389,873,429,0,0,0,4,3,1,43,0004-00-0002-10.png,0003-00-0001-41.png
00000014,612,1,1440170479321,1440170479874,350,393,0,0,0,3,4,1,34,0003-00-0001-69.png,0004-00-0007-25.png
00000014,613,0,1440170480922,1440170481529,880,418,0,0,0,2,3,1,23,0002-00-0001-19.png,0003-00-0003-67.png
00000014,614,0,1440170484828,1440170485363,349,378,0,0,0,3,2,1,32,0003-00-0006-56.png,0002-00-0009-92.png
00000014,615,1,1440170488424,1440170488964,888,449,0,0,0,5,4,1,54,0005-00-0000-01.png,0004-00-0009-33.png
00000014,616,0,1440170490069,1440170490552,385,521,0,0,0,2,1,1,21,0002-00-0005-87.png,0001-00-0005-58.png
00000014,617,1,1440170493612,1440170494263,926,436,0,0,0,3,2,1,32,0003-00-0001-17.png,0002-00-0005-14.png
00000014,618,0,1440170495204,1440170495743,392,415,0,0,0,4,3,1,43,0004-00-0000-66.png,0003-00-0003-22.png
00000014,619,0,1440170498721,1440170499216,366,401,0,0,0,2,1,1,21,0002-00-0000-33.png,0001-00-0009-64.png
00000014,620,1,1440170502069,1440170502521,354,408,0,0,0,4,5,1,45,0004-00-0001-50.png,0005-00-0003-55.png
00000014,621,0,1440170503522,1440170504052,875,397,0,0,0,2,3,1,23,0002-00-0005-70.png,0003-00-0007-75.png
00000014,622,1,1440170507150,1440170507665,879,402,0,0,0,5,4,1,54,0005-00-0006-27.png,0004-00-0004-92.png
00000014,623,0,1440170508740,1440170509224,869,498,0,0,0,3,4,1,34,0003-00-0008-57.png,0004-00-0004-56.png
00000014,624,1,1440170512187,1440170512207,520,462,0,0,0,1,2,1,12,0001-00-0001-76.png,0002-00-0006-38.png
00000014,625,1,1440170513191,1440170513697,353,391,0,0,0,3,4,1,34,0003-00-0001-87.png,0004-00-0003-26.png
00000014,626,0,1440170514724,1440170515279,340,372,0,0,0,4,3,1,43,0004-00-0005-97.png,0003-00-0009-84.png
00000014,627,1,1440170518208,1440170518798,401,384,0,0,0,4,5,1,45,0004-00-0002-32.png,0005-00-0002-44.png
00000014,628,1,1440170520188,1440170520677,904,401,0,0,0,2,1,1,21,0002-00-0006-40.png,0001-00-0001-62.png
00000014,629,1,1440170521630,1440170522165,400,435,0,0,0,2,3,1,23,0002-00-0006-60.png,0003-00-0004-83.png
00000014,630,0,1440170523160,1440170523700,341,400,0,0,0,3,2,1,32,0003-00-0009-65.png,0002-00-0004-63.png
00000014,631,1,1440170526576,1440170526608,523,505,0,0,0,1,2,1,12,0001-00-0009-30.png,0002-00-0007-28.png
00000014,632,1,1440170527593,1440170528079,871,428,0,0,0,5,4,1,54,0005-00-0004-72.png,0004-00-0003-72.png
00000014,633,1,1440170529069,1440170530113,905,428,0,0,0,5,4,1,54,0005-00-0004-08.png,0004-00-0008-51.png
00000014,634,0,1440170531152,1440170531659,877,408,0,0,0,2,3,1,23,0002-00-0009-89.png,0003-00-0003-07.png
00000014,635,1,1440170534656,1440170535120,401,424,0,0,0,1,2,1,12,0001-00-0007-86.png,0002-00-0007-03.png
00000014,636,1,1440170536150,1440170537022,396,488,0,0,0,4,5,1,45,0004-00-0005-76.png,0005-00-0008-24.png
00000014,637,1,1440170538078,1440170538586,878,401,0,0,0,2,1,1,21,0002-00-0002-46.png,0001-00-0006-61.png
00000014,638,1,1440170539567,1440170540132,363,411,0,0,0,3,4,1,34,0003-00-0008-46.png,0004-00-0003-80.png
00000014,639,0,1440170541169,1440170542095,389,422,0,0,0,3,2,1,32,0003-00-0006-38.png,0002-00-0006-74.png
00000014,640,0,1440170545530,1440170546052,314,440,0,0,0,4,3,1,43,0004-00-0005-45.png,0003-00-0001-34.png
00000014,641,1,1440170549492,1440170550038,918,417,0,0,0,5,4,1,54,0005-00-0002-64.png,0004-00-0001-90.png
00000014,642,1,1440170551004,1440170551041,507,479,0,0,0,3,4,1,34,0003-00-0004-50.png,0004-00-0009-21.png
00000014,643,0,1440170552155,1440170553047,420,401,0,0,0,3,2,1,32,0003-00-0005-73.png,0002-00-0009-07.png
00000014,644,1,1440170555879,1440170555913,504,410,0,0,0,4,5,1,45,0004-00-0000-38.png,0005-00-0003-34.png
00000014,645,1,1440170556920,1440170557421,345,413,0,0,0,2,3,1,23,0002-00-0003-26.png,0003-00-0002-23.png
00000014,646,0,1440170558836,1440170559338,356,371,0,0,0,4,3,1,43,0004-00-0000-45.png,0003-00-0001-43.png
00000014,647,0,1440170562451,1440170562991,394,522,0,0,0,2,1,1,21,0002-00-0001-20.png,0001-00-0003-74.png
00000014,648,0,1440170566071,1440170566660,886,491,0,0,0,1,2,1,12,0001-00-0005-88.png,0002-00-0007-68.png
00000014,649,0,1440170569486,1440170570009,404,380,0,0,0,3,2,1,32,0003-00-0003-46.png,0002-00-0003-02.png
00000014,650,1,1440170573217,1440170573796,392,522,0,0,0,1,2,1,12,0001-00-0007-49.png,0002-00-0009-01.png
00000014,651,1,1440170574810,1440170575352,874,411,0,0,0,4,3,1,43,0004-00-0003-64.png,0003-00-0000-49.png
00000014,652,1,1440170576388,1440170576924,340,392,0,0,0,4,5,1,45,0004-00-0008-39.png,0005-00-0009-51.png
00000014,653,0,1440170577957,1440170578549,385,521,0,0,0,2,1,1,21,0002-00-0004-52.png,0001-00-0007-73.png
00000014,654,1,1440170581613,1440170582090,364,420,0,0,0,2,3,1,23,0002-00-0007-00.png,0003-00-0008-46.png
00000014,655,1,1440170583077,1440170583670,346,424,0,0,0,3,4,1,34,0003-00-0000-71.png,0004-00-0001-53.png
00000014,656,0,1440170584656,1440170585210,395,505,0,0,0,5,4,1,54,0005-00-0004-28.png,0004-00-0000-57.png
00000014,657,0,1440170588083,1440170588676,894,484,0,0,0,1,2,1,12,0001-00-0007-26.png,0002-00-0000-74.png
00000014,658,0,1440170591658,1440170591682,491,498,0,0,0,3,2,1,32,0003-00-0005-79.png,0002-00-0002-09.png
00000014,659,1,1440170594702,1440170594738,508,486,0,0,0,4,5,1,45,0004-00-0005-12.png,0005-00-0007-17.png
00000014,660,1,1440170595773,1440170596281,342,418,0,0,0,3,4,1,34,0003-00-0004-41.png,0004-00-0004-28.png
00000014,661,1,1440170597306,1440170597840,326,402,0,0,0,2,3,1,23,0002-00-0001-60.png,0003-00-0009-29.png
00000014,662,1,1440170598913,1440170599439,875,435,0,0,0,5,4,1,54,0005-00-0002-08.png,0004-00-0002-14.png
00000014,663,0,1440170600384,1440170600971,361,401,0,0,0,2,1,1,21,0002-00-0006-48.png,0001-00-0002-43.png
00000014,664,0,1440170604005,1440170604013,439,524,0,0,0,4,3,1,43,0004-00-0008-31.png,0003-00-0006-71.png
00000014,665,1,1440170606843,1440170606903,513,488,0,0,0,2,3,1,23,0002-00-0005-92.png,0003-00-0008-23.png
00000014,666,0,1440170607841,1440170608403,313,424,0,0,0,5,4,1,54,0005-00-0004-65.png,0004-00-0003-36.png
00000014,667,0,1440170611596,1440170612112,345,420,0,0,0,3,2,1,32,0003-00-0002-56.png,0002-00-0000-52.png
00000014,668,1,1440170615442,1440170615880,350,410,0,0,0,1,2,1,12,0001-00-0002-49.png,0002-00-0009-00.png
00000014,669,1,1440170616899,1440170617906,883,413,0,0,0,4,3,1,43,0004-00-0008-10.png,0003-00-0001-50.png
00000014,670,1,1440170618801,1440170619355,337,436,0,0,0,4,5,1,45,0004-00-0002-88.png,0005-00-0001-85.png
00000014,671,1,1440170620363,1440170620381,504,481,0,0,0,3,4,1,34,0003-00-0004-29.png,0004-00-0001-42.png
00000014,672,1,1440170621416,1440170621963,879,428,0,0,0,2,1,1,21,0002-00-0009-08.png,0001-00-0000-00.png
00000014,673,1,1440170622949,1440170623487,360,400,0,0,0,3,4,1,34,0003-00-0009-75.png,0004-00-0000-79.png
00000014,674,0,1440170624529,1440170625127,875,411,0,0,0,2,3,1,23,0002-00-0007-06.png,0003-00-0003-98.png
00000014,675,1,1440170628561,1440170629027,877,467,0,0,0,5,4,1,54,0005-00-0006-11.png,0004-00-0004-23.png
00000014,676,1,1440170630012,1440170630527,400,413,0,0,0,1,2,1,12,0001-00-0007-96.png,0002-00-0002-16.png
00000014,677,1,1440170631522,1440170632062,896,420,0,0,0,2,1,1,21,0002-00-0001-15.png,0001-00-0007-76.png
00000014,678,0,1440170632993,1440170634012,366,421,0,0,0,3,2,1,32,0003-00-0005-13.png,0002-00-0004-79.png
00000014,679,1,1440170636984,1440170637496,392,415,0,0,0,4,5,1,45,0004-00-0007-00.png,0005-00-0004-33.png
00000014,680,1,1440170638494,1440170638934,873,517,0,0,0,4,3,1,43,0004-00-0001-90.png,0003-00-0009-43.png
00000014,681,1,1440170639951,1440170640514,351,429,0,0,0,3,4,1,34,0003-00-0001-01.png,0004-00-0003-12.png
00000014,682,1,1440170641482,1440170642065,387,394,0,0,0,4,5,1,45,0004-00-0006-37.png,0005-00-0006-45.png
00000014,683,0,1440170643041,1440170643582,383,419,0,0,0,2,1,1,21,0002-00-0007-88.png,0001-00-0000-09.png
00000014,684,1,1440170646548,1440170647146,922,394,0,0,0,4,3,1,43,0004-00-0007-50.png,0003-00-0005-62.png
00000014,685,1,1440170648074,1440170648660,393,414,0,0,0,1,2,1,12,0001-00-0006-83.png,0002-00-0002-77.png
00000014,686,1,1440170649680,1440170650206,401,384,0,0,0,2,3,1,23,0002-00-0007-28.png,0003-00-0004-75.png
00000014,687,0,1440170651139,1440170651693,350,404,0,0,0,5,4,1,54,0005-00-0008-83.png,0004-00-0007-91.png
00000014,688,1,1440170654565,1440170655042,904,401,0,0,0,3,2,1,32,0003-00-0005-29.png,0002-00-0005-26.png
00000014,689,1,1440170656357,1440170656864,901,423,0,0,0,2,1,1,21,0002-00-0004-02.png,0001-00-0004-40.png
00000014,690,1,1440170657789,1440170658354,431,509,0,0,0,2,3,1,23,0002-00-0008-20.png,0003-00-0002-48.png
00000014,691,1,1440170659331,1440170659904,366,418,0,0,0,4,5,1,45,0004-00-0008-22.png,0005-00-0001-14.png
00000014,692,1,1440170661283,1440170662289,888,456,0,0,0,3,2,1,32,0003-00-0002-00.png,0002-00-0004-98.png
00000014,693,1,1440170663234,1440170663739,879,427,0,0,0,5,4,1,54,0005-00-0004-69.png,0004-00-0005-55.png
00000014,694,1,1440170664724,1440170665196,401,398,0,0,0,3,4,1,34,0003-00-0001-35.png,0004-00-0006-52.png
00000014,695,0,1440170666264,1440170666836,394,479,0,0,0,4,3,1,43,0004-00-0001-46.png,0003-00-0008-47.png
00000014,696,0,1440170669902,1440170670441,900,409,0,0,0,1,2,1,12,0001-00-0006-61.png,0002-00-0001-05.png
00000014,697,1,1440170673656,1440170674148,384,393,0,0,0,1,2,1,12,0001-00-0002-79.png,0002-00-0006-74.png
00000014,698,1,1440170675109,1440170675664,869,472,0,0,0,4,3,1,43,0004-00-0007-43.png,0003-00-0007-94.png
00000014,699,1,1440170676597,1440170677531,370,406,0,0,0,4,5,1,45,0004-00-0005-74.png,0005-00-0009-87.png
00000014,700,0,1440170678487,1440170679048,875,423,0,0,0,3,4,1,34,0003-00-0004-55.png,0004-00-0001-41.png
00000014,701,1,1440170682121,1440170682651,925,462,0,0,0,5,4,1,54,0005-00-0008-08.png,0004-00-0009-13.png
00000014,702,0,1440170683579,1440170684191,901,423,0,0,0,2,3,1,23,0002-00-0001-13.png,0003-00-0006-28.png
00000014,703,0,1440170687212,1440170687269,520,488,0,0,0,2,1,1,21,0002-00-0000-35.png,0001-00-0005-92.png
00000014,704,1,1440170690313,1440170691336,907,515,0,0,0,3,2,1,32,0003-00-0002-72.png,0002-00-0001-17.png
00000014,705,0,1440170692221,1440170692821,374,423,0,0,0,5,4,1,54,0005-00-0007-91.png,0004-00-0004-05.png
00000014,706,0,1440170695958,1440170696450,364,393,0,0,0,2,1,1,21,0002-00-0009-07.png,0001-00-0001-71.png
00000014,707,1,1440170699542,1440170700004,346,419,0,0,0,4,5,1,45,0004-00-0000-04.png,0005-00-0002-02.png
00000014,708,0,1440170701015,1440170701547,411,497,0,0,0,3,2,1,32,0003-00-0009-02.png,0002-00-0002-41.png
00000014,709,1,1440170704462,1440170704482,513,434,0,0,0,3,4,1,34,0003-00-0002-03.png,0004-00-0001-24.png
00000014,710,1,1440170705457,1440170705949,418,376,0,0,0,1,2,1,12,0001-00-0004-81.png,0002-00-0001-09.png
00000014,711,1,1440170706958,1440170707473,393,494,0,0,0,2,3,1,23,0002-00-0003-90.png,0003-00-0000-60.png
00000014,712,1,1440170708467,1440170708981,875,417,0,0,0,4,3,1,43,0004-00-0001-83.png,0003-00-0009-70.png
00000014,713,0,1440170709999,1440170710532,362,396,0,0,0,2,1,1,21,0002-00-0005-57.png,0001-00-0006-11.png
00000014,714,0,1440170713415,1440170713467,518,488,0,0,0,3,2,1,32,0003-00-0002-36.png,0002-00-0005-65.png
00000014,715,1,1440170716590,1440170717060,316,376,0,0,0,1,2,1,12,0001-00-0000-46.png,0002-00-0007-94.png
00000014,716,1,1440170718062,1440170718998,368,401,0,0,0,4,5,1,45,0004-00-0001-40.png,0005-00-0006-13.png
00000014,717,1,1440170719969,1440170720964,448,403,0,0,0,3,4,1,34,0003-00-0002-47.png,0004-00-0002-49.png
00000014,718,0,1440170721936,1440170722469,888,424,0,0,0,2,3,1,23,0002-00-0003-96.png,0003-00-0008-19.png
00000014,719,0,1440170725392,1440170726336,376,409,0,0,0,4,3,1,43,0004-00-0000-08.png,0003-00-0002-37.png
00000014,720,1,1440170729332,1440170729880,893,456,0,0,0,5,4,1,54,0005-00-0004-40.png,0004-00-0008-62.png
00000014,721,0,1440170730823,1440170731338,447,422,0,0,0,3,2,1,32,0003-00-0000-99.png,0002-00-0002-74.png
00000014,722,0,1440170734185,1440170734902,926,436,0,0,0,4,5,1,45,0004-00-0006-53.png,0005-00-0001-30.png
00000014,723,1,1440170738162,1440170738795,894,443,0,0,0,4,3,1,43,0004-00-0001-48.png,0003-00-0007-97.png
00000014,724,1,1440170739723,1440170740250,890,418,0,0,0,5,4,1,54,0005-00-0008-56.png,0004-00-0005-33.png
00000014,725,0,1440170741206,1440170741759,876,435,0,0,0,3,4,1,34,0003-00-0005-04.png,0004-00-0004-16.png
00000014,726,0,1440170744832,1440170745295,876,462,0,0,0,1,2,1,12,0001-00-0004-51.png,0002-00-0004-96.png
00000014,727,0,1440170748311,1440170748943,925,438,0,0,0,2,3,1,23,0002-00-0003-57.png,0003-00-0005-06.png
00000014,728,0,1440170753598,1440170754282,327,354,0,0,0,2,1,1,21,0002-00-0002-19.png,0001-00-0002-02.png
00000014,729,1,1440170757838,1440170758367,875,463,0,0,0,4,3,1,43,0004-00-0002-07.png,0003-00-0005-41.png
00000014,730,1,1440170759799,1440170760856,869,393,0,0,0,3,2,1,32,0003-00-0005-87.png,0002-00-0000-61.png
00000014,731,0,1440170761872,1440170762909,943,417,0,0,0,3,4,1,34,0003-00-0001-79.png,0004-00-0009-34.png
00000014,732,0,1440170766222,1440170766639,893,432,0,0,0,1,2,1,12,0001-00-0003-10.png,0002-00-0001-19.png
00000014,733,0,1440170769837,1440170770389,344,391,0,0,0,2,1,1,21,0002-00-0006-97.png,0001-00-0008-98.png
00000014,734,0,1440170773581,1440170774087,903,419,0,0,0,2,3,1,23,0002-00-0002-69.png,0003-00-0000-27.png
00000014,735,1,1440170777977,1440170778645,294,411,0,0,0,4,5,1,45,0004-00-0006-18.png,0005-00-0006-00.png
00000014,736,1,1440170779765,1440170780268,916,397,0,0,0,5,4,1,54,0005-00-0008-39.png,0004-00-0008-93.png
00000014,737,0,1440170781475,1440170782455,863,397,0,0,0,3,4,1,34,0003-00-0008-96.png,0004-00-0008-04.png
00000014,738,0,1440170785339,1440170786003,421,550,0,0,0,4,3,1,43,0004-00-0005-08.png,0003-00-0007-19.png
00000014,739,0,1440170789205,1440170789684,331,393,0,0,0,2,1,1,21,0002-00-0002-02.png,0001-00-0004-16.png
00000014,740,0,1440170792815,1440170792871,516,491,0,0,0,3,2,1,32,0003-00-0004-60.png,0002-00-0001-52.png
00000014,741,1,1440170795905,1440170796440,358,371,0,0,0,2,3,1,23,0002-00-0003-58.png,0003-00-0009-70.png
00000014,742,1,1440170797813,1440170798865,944,441,0,0,0,5,4,1,54,0005-00-0005-93.png,0004-00-0009-09.png
00000014,743,0,1440170799858,1440170800356,863,423,0,0,0,4,5,1,45,0004-00-0006-64.png,0005-00-0009-87.png
00000014,744,0,1440170803415,1440170803991,902,383,0,0,0,1,2,1,12,0001-00-0007-49.png,0002-00-0002-87.png
00000014,745,0,1440170807752,1440170808408,312,387,0,0,0,5,4,1,54,0005-00-0006-62.png,0004-00-0003-02.png
00000014,746,1,1440170811624,1440170812142,899,413,0,0,0,4,3,1,43,0004-00-0002-46.png,0003-00-0006-17.png
00000014,747,0,1440170813305,1440170813905,351,423,0,0,0,2,1,1,21,0002-00-0005-82.png,0001-00-0008-68.png
00000014,748,1,1440170816733,1440170817237,376,384,0,0,0,4,5,1,45,0004-00-0009-13.png,0005-00-0004-10.png
00000014,749,1,1440170818644,1440170819461,412,403,0,0,0,1,2,1,12,0001-00-0000-08.png,0002-00-0003-13.png
00000014,750,1,1440170820772,1440170821353,319,411,0,0,0,2,3,1,23,0002-00-0009-42.png,0003-00-0005-18.png
00000014,751,0,1440170822381,1440170822961,317,401,0,0,0,3,2,1,32,0003-00-0009-46.png,0002-00-0005-11.png
00000014,752,0,1440170826109,1440170826670,877,408,0,0,0,3,4,1,34,0003-00-0007-17.png,0004-00-0003-63.png
00000014,753,1,1440170831660,1440170832257,407,526,0,0,0,1,2,1,12,0001-00-0000-08.png,0002-00-0004-32.png
00000014,754,1,1440170834366,1440170834842,333,397,0,0,0,4,5,1,45,0004-00-0001-56.png,0005-00-0001-84.png
00000014,755,1,1440170836262,1440170836716,887,423,0,0,0,3,2,1,32,0003-00-0009-91.png,0002-00-0009-34.png
00000014,756,1,1440170838084,1440170838547,315,392,0,0,0,2,3,1,23,0002-00-0008-75.png,0003-00-0003-05.png
00000014,757,0,1440170839636,1440170840134,368,401,0,0,0,4,3,1,43,0004-00-0000-29.png,0003-00-0005-82.png
00000014,758,1,1440170843034,1440170843537,931,402,0,0,0,5,4,1,54,0005-00-0007-36.png,0004-00-0003-34.png
00000014,759,1,1440170844719,1440170845245,903,442,0,0,0,2,1,1,21,0002-00-0006-66.png,0001-00-0000-87.png
00000014,760,0,1440170846325,1440170846806,876,423,0,0,0,3,4,1,34,0003-00-0007-37.png,0004-00-0001-51.png
00000014,761,0,1440170849756,1440170850285,877,439,0,0,0,3,4,1,34,0003-00-0001-93.png,0004-00-0006-04.png
00000014,762,1,1440170853168,1440170853702,901,397,0,0,0,4,3,1,43,0004-00-0001-25.png,0003-00-0007-95.png
00000014,763,1,1440170854753,1440170855304,919,435,0,0,0,2,1,1,21,0002-00-0000-58.png,0001-00-0006-55.png
00000014,764,1,1440170856263,1440170856793,387,393,0,0,0,1,2,1,12,0001-00-0000-99.png,0002-00-0006-33.png
00000014,765,1,1440170857772,1440170858310,864,427,0,0,0,5,4,1,54,0005-00-0009-58.png,0004-00-0007-19.png
00000014,766,0,1440170859343,1440170859888,889,397,0,0,0,2,3,1,23,0002-00-0008-11.png,0003-00-0000-47.png
00000014,767,1,1440170863020,1440170863493,912,423,0,0,0,3,2,1,32,0003-00-0005-30.png,0002-00-0006-84.png
00000014,768,0,1440170864450,1440170864933,888,462,0,0,0,4,5,1,45,0004-00-0001-72.png,0005-00-0006-67.png
00000014,769,1,1440170868358,1440170868886,389,475,0,0,0,1,2,1,12,0001-00-0007-48.png,0002-00-0007-37.png
00000014,770,1,1440170870410,1440170870899,906,414,0,0,0,3,2,1,32,0003-00-0000-32.png,0002-00-0001-86.png
00000014,771,1,1440170872164,1440170872644,906,402,0,0,0,4,3,1,43,0004-00-0008-67.png,0003-00-0004-59.png
00000014,772,1,1440170873903,1440170874405,337,414,0,0,0,4,5,1,45,0004-00-0000-15.png,0005-00-0004-35.png
00000014,773,0,1440170875324,1440170876295,894,430,0,0,0,2,3,1,23,0002-00-0006-78.png,0003-00-0001-86.png
00000014,774,1,1440170879176,1440170879758,919,391,0,0,0,2,1,1,21,0002-00-0001-02.png,0001-00-0000-52.png
00000014,775,0,1440170880787,1440170881341,337,342,0,0,0,5,4,1,54,0005-00-0009-03.png,0004-00-0004-35.png
00000014,776,1,1440170884576,1440170885593,350,401,0,0,0,3,4,1,34,0003-00-0001-94.png,0004-00-0002-66.png
00000014,777,1,1440170886792,1440170887247,367,402,0,0,0,1,2,1,12,0001-00-0004-20.png,0002-00-0004-06.png
00000014,778,1,1440170888291,1440170888803,877,522,0,0,0,2,1,1,21,0002-00-0005-27.png,0001-00-0007-46.png
00000014,779,1,1440170889652,1440170890144,875,519,0,0,0,4,3,1,43,0004-00-0001-27.png,0003-00-0004-05.png
00000014,780,0,1440170891463,1440170891945,889,423,0,0,0,3,4,1,34,0003-00-0006-67.png,0004-00-0007-27.png
00000014,781,1,1440170895281,1440170895823,384,423,0,0,0,4,5,1,45,0004-00-0000-19.png,0005-00-0001-07.png
00000014,782,0,1440170896900,1440170897375,376,397,0,0,0,3,2,1,32,0003-00-0002-12.png,0002-00-0004-15.png
00000014,783,1,1440170900794,1440170901248,379,373,0,0,0,2,3,1,23,0002-00-0006-42.png,0003-00-0008-96.png
00000014,784,1,1440170902225,1440170902758,866,440,0,0,0,5,4,1,54,0005-00-0002-34.png,0004-00-0000-47.png
00000014,785,1,1440170903762,1440170904293,453,423,0,0,0,1,2,1,12,0001-00-0001-81.png,0002-00-0001-22.png
00000014,786,0,1440170905225,1440170905775,874,436,0,0,0,2,3,1,23,0002-00-0006-58.png,0003-00-0001-45.png
00000014,787,1,1440170908903,1440170909454,333,363,0,0,0,4,5,1,45,0004-00-0000-16.png,0005-00-0004-66.png
00000014,788,1,1440170910482,1440170910980,878,443,0,0,0,5,4,1,54,0005-00-0002-07.png,0004-00-0001-18.png
00000014,789,0,1440170911964,1440170913472,376,410,0,0,0,3,2,1,32,0003-00-0006-42.png,0002-00-0004-47.png
00000014,790,0,1440170916512,1440170917063,862,423,0,0,0,3,4,1,34,0003-00-0005-39.png,0004-00-0008-05.png
00000014,791,0,1440170919922,1440170920364,352,387,0,0,0,2,1,1,21,0002-00-0005-33.png,0001-00-0002-68.png
00000014,792,1,1440170923262,1440170923886,874,414,0,0,0,4,3,1,43,0004-00-0003-35.png,0003-00-0009-64.png
00000014,793,1,1440170924902,1440170925399,334,404,0,0,0,4,5,1,45,0004-00-0009-06.png,0005-00-0007-79.png
00000014,794,1,1440170926264,1440170926789,876,398,0,0,0,2,1,1,21,0002-00-0000-05.png,0001-00-0001-83.png
00000014,795,0,1440170927745,1440170928319,415,514,0,0,0,4,3,1,43,0004-00-0003-25.png,0003-00-0008-12.png
00000014,796,0,1440170931452,1440170931944,401,384,0,0,0,5,4,1,54,0005-00-0001-96.png,0004-00-0002-31.png
00000014,797,1,1440170935049,1440170936012,472,443,0,0,0,1,2,1,12,0001-00-0001-37.png,0002-00-0001-92.png
00000014,798,1,1440170937001,1440170937496,401,396,0,0,0,2,3,1,23,0002-00-0001-26.png,0003-00-0001-68.png
00000014,799,1,1440170938451,1440170938980,876,409,0,0,0,3,2,1,32,0003-00-0009-33.png,0002-00-0000-71.png
00000014,800,0,1440170939884,1440170940573,899,432,0,0,0,3,4,1,34,0003-00-0005-42.png,0004-00-0004-52.png
00000014,801,1,1440170943588,1440170944179,900,488,0,0,0,4,3,1,43,0004-00-0004-82.png,0003-00-0009-70.png
00000014,802,1,1440170945446,1440170945964,290,444,0,0,0,2,3,1,23,0002-00-0009-34.png,0003-00-0003-66.png
00000014,803,1,1440170946968,1440170947471,325,389,0,0,0,4,5,1,45,0004-00-0004-19.png,0005-00-0009-48.png
00000014,804,1,1440170948587,1440170949548,349,403,0,0,0,1,2,1,12,0001-00-0002-12.png,0002-00-0002-89.png
00000014,805,1,1440170950981,1440170951501,896,420,0,0,0,2,1,1,21,0002-00-0009-24.png,0001-00-0000-76.png
00000014,806,0,1440170952490,1440170953017,334,397,0,0,0,5,4,1,54,0005-00-0008-85.png,0004-00-0005-51.png
00000014,807,0,1440170955960,1440170956441,380,380,0,0,0,3,2,1,32,0003-00-0000-59.png,0002-00-0009-50.png
00000014,808,1,1440170959805,1440170960267,412,410,0,0,0,3,4,1,34,0003-00-0006-78.png,0004-00-0004-42.png
00000014,809,1,1440170961644,1440170962092,362,405,0,0,0,1,2,1,12,0001-00-0007-22.png,0002-00-0001-09.png
00000014,810,0,1440170963013,1440170963588,880,428,0,0,0,4,5,1,45,0004-00-0009-53.png,0005-00-0004-00.png
00000014,811,0,1440170966642,1440170967162,401,373,0,0,0,3,2,1,32,0003-00-0002-28.png,0002-00-0001-95.png
00000014,812,0,1440170976468,1440170977051,376,396,0,0,0,4,3,1,43,0004-00-0007-38.png,0003-00-0004-21.png
00000014,813,0,1440170980189,1440170980710,347,359,0,0,0,2,1,1,21,0002-00-0005-65.png,0001-00-0002-46.png
00000014,814,1,1440170983836,1440170984283,344,412,0,0,0,2,3,1,23,0002-00-0008-60.png,0003-00-0009-77.png
00000014,815,0,1440170985309,1440170985833,863,501,0,0,0,3,4,1,34,0003-00-0006-07.png,0004-00-0000-25.png
00000014,816,0,1440170989082,1440170989553,392,525,0,0,0,5,4,1,54,0005-00-0007-25.png,0004-00-0000-27.png
00000014,817,0,1440170994273,1440170994768,313,408,0,0,0,3,2,1,32,0003-00-0003-97.png,0002-00-0003-98.png
00000014,818,1,1440170997608,1440170998116,334,345,0,0,0,3,4,1,34,0003-00-0008-48.png,0004-00-0002-42.png
00000014,819,1,1440170999144,1440170999644,890,396,0,0,0,5,4,1,54,0005-00-0007-25.png,0004-00-0009-33.png
00000014,820,1,1440171000632,1440171001118,358,391,0,0,0,1,2,1,12,0001-00-0006-55.png,0002-00-0001-02.png
00000014,821,1,1440171002216,1440171002729,389,400,0,0,0,4,5,1,45,0004-00-0001-05.png,0005-00-0001-21.png
00000014,822,0,1440171003794,1440171004247,407,514,0,0,0,4,3,1,43,0004-00-0006-00.png,0003-00-0002-23.png
00000014,823,0,1440171007338,1440171007803,903,442,0,0,0,2,3,1,23,0002-00-0007-05.png,0003-00-0009-40.png
00000014,824,1,1440171012092,1440171012562,900,456,0,0,0,2,1,1,21,0002-00-0006-27.png,0001-00-0008-01.png
00000014,825,1,1440171013892,1440171014448,916,516,0,0,0,5,4,1,54,0005-00-0008-72.png,0004-00-0008-27.png
00000014,826,1,1440171015472,1440171016017,376,399,0,0,0,4,5,1,45,0004-00-0002-74.png,0005-00-0000-33.png
00000014,827,0,1440171017023,1440171017528,905,454,0,0,0,1,2,1,12,0001-00-0005-68.png,0002-00-0002-08.png
00000014,828,1,1440171022677,1440171023362,923,458,0,0,0,4,3,1,43,0004-00-0000-13.png,0003-00-0000-20.png
00000014,829,1,1440171024522,1440171024993,908,435,0,0,0,2,1,1,21,0002-00-0004-39.png,0001-00-0008-06.png
00000014,830,0,1440171026176,1440171026701,378,402,0,0,0,3,2,1,32,0003-00-0009-51.png,0002-00-0003-74.png
00000014,831,1,1440171029770,1440171030286,340,374,0,0,0,3,4,1,34,0003-00-0009-21.png,0004-00-0006-72.png
00000014,832,1,1440171032186,1440171033112,369,408,0,0,0,2,3,1,23,0002-00-0004-81.png,0003-00-0002-32.png
00000014,833,1,1440171034367,1440171034893,361,373,0,0,0,2,3,1,23,0002-00-0009-58.png,0003-00-0000-23.png
00000014,834,1,1440171035935,1440171036417,878,391,0,0,0,4,3,1,43,0004-00-0003-75.png,0003-00-0006-84.png
00000014,835,1,1440171037336,1440171037887,376,408,0,0,0,4,5,1,45,0004-00-0003-97.png,0005-00-0008-93.png
00000014,836,1,1440171038997,1440171039526,896,421,0,0,0,2,1,1,21,0002-00-0004-37.png,0001-00-0009-92.png
00000014,837,0,1440171040416,1440171040921,388,393,0,0,0,3,2,1,32,0003-00-0004-49.png,0002-00-0003-36.png
00000014,838,1,1440171043844,1440171044316,337,377,0,0,0,1,2,1,12,0001-00-0004-86.png,0002-00-0001-23.png
00000014,839,0,1440171045297,1440171045788,868,399,0,0,0,3,4,1,34,0003-00-0002-32.png,0004-00-0002-10.png
00000014,840,0,1440171051765,1440171052310,401,411,0,0,0,5,4,1,54,0005-00-0007-71.png,0004-00-0009-80.png
00000014,841,0,1440171055382,1440171055402,490,488,0,0,0,4,3,1,43,0004-00-0008-05.png,0003-00-0008-17.png
00000014,842,1,1440171058245,1440171058771,906,376,0,0,0,2,1,1,21,0002-00-0008-43.png,0001-00-0008-08.png
00000014,843,1,1440171059887,1440171060421,406,497,0,0,0,1,2,1,12,0001-00-0007-35.png,0002-00-0008-32.png
00000014,844,1,1440171061536,1440171062061,916,423,0,0,0,3,2,1,32,0003-00-0006-82.png,0002-00-0004-56.png
00000014,845,0,1440171063402,1440171063856,899,423,0,0,0,3,4,1,34,0003-00-0004-77.png,0004-00-0005-08.png
00000014,846,1,1440171066772,1440171067851,887,470,0,0,0,5,4,1,54,0005-00-0008-43.png,0004-00-0008-16.png
00000014,847,0,1440171068791,1440171069273,865,443,0,0,0,2,3,1,23,0002-00-0005-70.png,0003-00-0003-84.png
00000014,848,1,1440171073220,1440171073755,349,369,0,0,0,4,5,1,45,0004-00-0005-92.png,0005-00-0006-25.png
00000014,849,1,1440171074883,1440171075906,922,419,0,0,0,4,3,1,43,0004-00-0006-70.png,0003-00-0000-98.png
00000014,850,0,1440171077084,1440171077552,376,415,0,0,0,3,2,1,32,0003-00-0003-49.png,0002-00-0006-86.png
00000014,851,0,1440171080625,1440171081119,363,398,0,0,0,5,4,1,54,0005-00-0009-41.png,0004-00-0003-81.png
00000014,852,1,1440171084164,1440171084637,375,369,0,0,0,2,3,1,23,0002-00-0009-63.png,0003-00-0003-96.png
00000014,853,0,1440171086081,1440171086726,893,413,0,0,0,3,4,1,34,0003-00-0009-68.png,0004-00-0004-74.png
00000014,854,0,1440171094642,1440171095214,874,422,0,0,0,4,5,1,45,0004-00-0000-61.png,0005-00-0000-14.png
00000014,855,1,1440171098050,1440171098502,376,424,0,0,0,1,2,1,12,0001-00-0009-26.png,0002-00-0000-62.png
00000014,856,1,1440171099664,1440171100189,919,407,0,0,0,2,1,1,21,0002-00-0003-03.png,0001-00-0007-12.png
00000014,857,0,1440171101133,1440171101647,376,396,0,0,0,4,3,1,43,0004-00-0000-75.png,0003-00-0000-52.png
00000014,858,1,1440171104627,1440171105155,367,419,0,0,0,1,2,1,12,0001-00-0006-31.png,0002-00-0008-88.png
00000014,859,0,1440171106122,1440171107079,435,406,0,0,0,5,4,1,54,0005-00-0002-52.png,0004-00-0000-84.png
00000014,860,1,1440171110334,1440171110872,380,483,0,0,0,2,3,1,23,0002-00-0000-14.png,0003-00-0008-67.png
00000014,861,0,1440171111886,1440171112422,877,441,0,0,0,4,5,1,45,0004-00-0002-30.png,0005-00-0003-53.png
00000014,862,1,1440171115852,1440171116339,361,388,0,0,0,3,4,1,34,0003-00-0005-39.png,0004-00-0000-33.png
00000014,863,0,1440171117455,1440171117953,324,367,0,0,0,3,2,1,32,0003-00-0003-27.png,0002-00-0009-12.png
00000014,864,0,1440171120806,1440171120841,498,503,0,0,0,2,1,1,21,0002-00-0001-56.png,0001-00-0007-73.png
00000014,865,0,1440171123701,1440171124139,427,410,0,0,0,5,4,1,54,0005-00-0008-04.png,0004-00-0003-73.png
00000014,866,1,1440171127516,1440171128004,404,510,0,0,0,4,5,1,45,0004-00-0008-81.png,0005-00-0008-60.png
00000014,867,1,1440171128980,1440171129515,380,505,0,0,0,1,2,1,12,0001-00-0002-76.png,0002-00-0005-99.png
00000014,868,0,1440171130609,1440171131107,328,401,0,0,0,2,1,1,21,0002-00-0000-23.png,0001-00-0001-36.png
00000014,869,1,1440171134886,1440171135440,900,423,0,0,0,4,3,1,43,0004-00-0006-27.png,0003-00-0005-24.png
00000014,870,0,1440171137387,1440171138031,901,397,0,0,0,3,4,1,34,0003-00-0005-59.png,0004-00-0000-08.png
00000014,871,0,1440171140910,1440171140926,485,497,0,0,0,3,2,1,32,0003-00-0004-85.png,0002-00-0002-57.png
00000014,872,0,1440171144174,1440171144665,860,436,0,0,0,2,3,1,23,0002-00-0004-41.png,0003-00-0007-75.png
00000014,873,0,1440171147499,1440171148060,352,402,0,0,0,2,1,1,21,0002-00-0007-59.png,0001-00-0003-62.png
00000014,874,1,1440171151502,1440171152024,350,375,0,0,0,3,4,1,34,0003-00-0006-80.png,0004-00-0006-61.png
00000014,875,0,1440171153904,1440171155089,943,418,0,0,0,2,3,1,23,0002-00-0002-31.png,0003-00-0008-69.png
00000014,876,0,1440171158290,1440171158698,376,436,0,0,0,3,2,1,32,0003-00-0001-94.png,0002-00-0006-06.png
00000014,877,1,1440171161854,1440171162307,384,392,0,0,0,4,5,1,45,0004-00-0008-04.png,0005-00-0005-49.png
00000014,878,0,1440171163378,1440171163901,427,415,0,0,0,4,3,1,43,0004-00-0009-77.png,0003-00-0006-82.png
00000014,879,1,1440171168715,1440171169274,401,401,0,0,0,1,2,1,12,0001-00-0004-26.png,0002-00-0008-42.png
00000014,880,0,1440171170282,1440171170868,319,434,0,0,0,5,4,1,54,0005-00-0002-84.png,0004-00-0009-15.png
00000014,881,1,1440171173841,1440171174308,339,389,0,0,0,3,4,1,34,0003-00-0000-90.png,0004-00-0005-62.png
00000014,882,1,1440171175263,1440171175770,346,395,0,0,0,4,5,1,45,0004-00-0004-70.png,0005-00-0003-98.png
00000014,883,0,1440171176714,1440171177254,892,464,0,0,0,1,2,1,12,0001-00-0005-71.png,0002-00-0000-37.png
00000014,884,0,1440171180261,1440171180269,523,447,0,0,0,4,3,1,43,0004-00-0006-76.png,0003-00-0009-84.png
00000014,885,1,1440171185121,1440171185608,926,423,0,0,0,5,4,1,54,0005-00-0006-86.png,0004-00-0008-97.png
00000014,886,1,1440171186771,1440171187724,925,423,0,0,0,3,2,1,32,0003-00-0009-56.png,0002-00-0000-49.png
00000014,887,1,1440171188690,1440171189165,904,419,0,0,0,2,1,1,21,0002-00-0007-78.png,0001-00-0004-59.png
00000014,888,1,1440171190155,1440171190676,376,396,0,0,0,2,3,1,23,0002-00-0004-56.png,0003-00-0001-24.png
00000014,889,1,1440171191600,1440171192136,897,430,0,0,0,5,4,1,54,0005-00-0002-20.png,0004-00-0009-54.png
00000014,890,1,1440171193111,1440171193624,868,486,0,0,0,4,3,1,43,0004-00-0008-47.png,0003-00-0006-14.png
00000014,891,1,1440171195014,1440171195472,376,400,0,0,0,4,5,1,45,0004-00-0009-83.png,0005-00-0001-49.png
00000014,892,1,1440171196709,1440171197617,919,481,0,0,0,2,1,1,21,0002-00-0001-14.png,0001-00-0003-67.png
00000014,893,1,1440171198535,1440171199061,325,411,0,0,0,3,4,1,34,0003-00-0008-28.png,0004-00-0002-77.png
00000014,894,0,1440171200026,1440171200578,877,420,0,0,0,1,2,1,12,0001-00-0001-36.png,0002-00-0006-04.png
00000014,895,0,1440171208333,1440171208822,362,423,0,0,0,3,2,1,32,0003-00-0004-96.png,0002-00-0002-16.png
00000014,896,1,1440171211663,1440171212169,401,422,0,0,0,2,3,1,23,0002-00-0006-16.png,0003-00-0003-25.png
00000014,897,1,1440171213376,1440171213850,357,420,0,0,0,1,2,1,12,0001-00-0002-46.png,0002-00-0006-00.png
00000014,898,1,1440171214865,1440171215309,898,404,0,0,0,3,2,1,32,0003-00-0001-69.png,0002-00-0004-69.png
00000014,899,0,1440171216411,1440171216952,385,438,0,0,0,2,1,1,21,0002-00-0005-27.png,0001-00-0003-11.png
00000014,900,0,1440171219854,1440171220371,924,411,0,0,0,2,3,1,23,0002-00-0008-05.png,0003-00-0000-78.png
00000014,901,0,1440171231326,1440171231928,955,538,0,0,0,4,5,1,45,0004-00-0009-69.png,0005-00-0000-71.png
00000014,902,1,1440171235221,1440171235794,922,402,0,0,0,4,3,1,43,0004-00-0008-78.png,0003-00-0009-54.png
00000014,903,0,1440171237580,1440171238115,337,422,0,0,0,5,4,1,54,0005-00-0002-04.png,0004-00-0007-04.png
00000014,904,1,1440171241473,1440171241990,401,410,0,0,0,3,4,1,34,0003-00-0001-60.png,0004-00-0002-23.png
00000014,905,1,1440171243502,1440171244002,364,417,0,0,0,4,5,1,45,0004-00-0006-37.png,0005-00-0003-04.png
00000014,906,0,1440171245104,1440171246081,453,397,0,0,0,3,2,1,32,0003-00-0002-67.png,0002-00-0002-41.png
00000014,907,1,1440171249037,1440171249565,896,408,0,0,0,2,1,1,21,0002-00-0001-86.png,0001-00-0006-69.png
00000014,908,1,1440171250821,1440171251319,424,400,0,0,0,3,4,1,34,0003-00-0005-48.png,0004-00-0007-33.png
00000014,909,0,1440171252209,1440171252740,343,400,0,0,0,4,3,1,43,0004-00-0009-01.png,0003-00-0008-91.png
00000014,910,1,1440171255817,1440171256338,396,466,0,0,0,1,2,1,12,0001-00-0008-46.png,0002-00-0000-71.png
00000014,911,0,1440171259347,1440171259855,336,395,0,0,0,5,4,1,54,0005-00-0006-80.png,0004-00-0002-84.png
00000014,912,1,1440171262902,1440171263364,354,401,0,0,0,2,3,1,23,0002-00-0003-56.png,0003-00-0007-71.png
00000014,913,1,1440171264458,1440171265010,316,404,0,0,0,3,4,1,34,0003-00-0004-18.png,0004-00-0009-58.png
00000014,914,1,1440171266115,1440171266677,901,397,0,0,0,5,4,1,54,0005-00-0003-95.png,0004-00-0003-29.png
00000014,915,0,1440171267635,1440171268646,401,396,0,0,0,4,3,1,43,0004-00-0006-63.png,0003-00-0002-34.png
00000014,916,0,1440171271649,1440171272125,388,384,0,0,0,2,1,1,21,0002-00-0007-40.png,0001-00-0008-83.png
00000014,917,1,1440171274964,1440171275441,427,384,0,0,0,4,5,1,45,0004-00-0007-95.png,0005-00-0001-33.png
00000014,918,0,1440171276447,1440171276925,401,436,0,0,0,3,2,1,32,0003-00-0007-64.png,0002-00-0003-48.png
00000014,919,1,1440171280861,1440171281277,383,393,0,0,0,1,2,1,12,0001-00-0006-44.png,0002-00-0007-21.png
00000014,920,1,1440171282344,1440171282873,414,410,0,0,0,2,3,1,23,0002-00-0005-26.png,0003-00-0006-30.png
00000014,921,1,1440171283925,1440171284870,416,398,0,0,0,4,5,1,45,0004-00-0009-69.png,0005-00-0001-08.png
00000014,922,0,1440171285980,1440171286497,406,513,0,0,0,5,4,1,54,0005-00-0000-60.png,0004-00-0005-76.png
00000014,923,1,1440171290045,1440171290541,900,424,0,0,0,4,3,1,43,0004-00-0009-37.png,0003-00-0008-31.png
00000014,924,0,1440171291677,1440171292134,350,385,0,0,0,3,2,1,32,0003-00-0001-59.png,0002-00-0000-02.png
00000014,925,1,1440171295134,1440171295582,370,362,0,0,0,1,2,1,12,0001-00-0002-98.png,0002-00-0008-64.png
00000014,926,0,1440171296495,1440171297543,952,410,0,0,0,3,4,1,34,0003-00-0005-27.png,0004-00-0000-25.png
00000014,927,0,1440171300886,1440171301363,357,392,0,0,0,2,1,1,21,0002-00-0006-73.png,0001-00-0000-33.png
00000014,928,1,1440171304431,1440171304472,512,444,0,0,0,2,3,1,23,0002-00-0001-36.png,0003-00-0000-23.png
00000014,929,0,1440171305450,1440171305953,880,419,0,0,0,1,2,1,12,0001-00-0006-59.png,0002-00-0001-23.png
00000014,930,0,1440171309045,1440171309515,444,427,0,0,0,3,2,1,32,0003-00-0005-78.png,0002-00-0005-99.png
00000014,931,0,1440171313322,1440171313892,874,448,0,0,0,4,5,1,45,0004-00-0009-48.png,0005-00-0001-87.png
00000014,932,0,1440171316938,1440171317353,378,396,0,0,0,2,1,1,21,0002-00-0009-18.png,0001-00-0004-33.png
00000014,933,0,1440171320416,1440171320862,381,540,0,0,0,5,4,1,54,0005-00-0001-19.png,0004-00-0009-38.png
00000014,934,0,1440171324432,1440171324890,874,515,0,0,0,2,3,1,23,0002-00-0003-88.png,0003-00-0006-11.png
00000014,935,1,1440171329769,1440171330345,920,454,0,0,0,4,3,1,43,0004-00-0000-11.png,0003-00-0004-92.png
00000014,936,0,1440171331487,1440171331950,867,394,0,0,0,3,4,1,34,0003-00-0002-95.png,0004-00-0004-18.png
00000014,937,1,1440171334905,1440171334921,510,443,0,0,0,2,3,1,23,0002-00-0004-29.png,0003-00-0006-45.png
00000014,938,1,1440171335934,1440171336561,902,424,0,0,0,3,2,1,32,0003-00-0004-77.png,0002-00-0005-97.png
00000014,939,0,1440171337541,1440171338070,358,433,0,0,0,2,1,1,21,0002-00-0006-08.png,0001-00-0003-80.png
00000014,940,1,1440171341107,1440171341660,370,513,0,0,0,4,5,1,45,0004-00-0001-74.png,0005-00-0003-40.png
00000014,941,1,1440171342848,1440171343399,325,396,0,0,0,3,4,1,34,0003-00-0006-02.png,0004-00-0002-08.png
00000014,942,1,1440171344598,1440171345226,325,422,0,0,0,1,2,1,12,0001-00-0007-31.png,0002-00-0000-90.png
