subject_id,trial,correct_response,stim_time,response_time,x_coord,y_coord,trial_timeout,timeout_time,interTrial_timeout,left_rank,right_rank,distance,joint_rank,left_image,right_image
00000014,1,1,1440597137585,1440597138029,334,354,0,0,0,4,5,1,45,0004-00-0006-03.png,0005-00-0007-37.png
00000014,2,0,1440597139538,1440597140062,898,487,0,0,0,1,2,1,12,0001-00-0003-92.png,0002-00-0002-55.png
00000014,3,1,1440597143126,1440597143609,350,357,0,0,0,3,4,1,34,0003-00-0001-76.png,0004-00-0006-37.png
00000014,4,1,1440597144647,1440597145221,931,401,0,0,0,2,1,1,21,0002-00-0008-73.png,0001-00-0005-30.png
00000014,5,0,1440597146203,1440597146722,320,397,0,0,0,5,4,1,54,0005-00-0007-82.png,0004-00-0004-31.png
00000014,6,0,1440597149684,1440597149748,504,475,0,0,0,3,2,1,32,0003-00-0006-35.png,0002-00-0008-13.png
00000014,7,1,1440597152765,1440597153274,303,396,0,0,0,2,3,1,23,0002-00-0001-81.png,0003-00-0009-58.png
00000014,8,1,1440597154715,1440597155210,901,502,0,0,0,4,3,1,43,0004-00-0003-69.png,0003-00-0009-45.png
00000014,9,1,1440597157337,1440597157933,315,347,0,0,0,3,4,1,34,0003-00-0000-86.png,0004-00-0000-29.png
00000014,10,0,1440597159456,1440597159982,366,506,0,0,0,3,2,1,32,0003-00-0003-47.png,0002-00-0001-63.png
00000014,11,1,1440597162853,1440597162869,478,451,0,0,0,4,5,1,45,0004-00-0008-10.png,0005-00-0008-48.png
00000014,12,0,1440597164107,1440597164596,904,389,0,0,0,2,3,1,23,0002-00-0009-87.png,0003-00-0007-74.png
00000014,13,1,1440597167817,1440597168283,311,384,0,0,0,1,2,1,12,0001-00-0004-32.png,0002-00-0006-25.png
00000014,14,1,1440597170409,1440597170909,924,384,0,0,0,4,3,1,43,0004-00-0006-70.png,0003-00-0008-60.png
00000014,15,1,1440597172830,1440597173366,902,387,0,0,0,2,1,1,21,0002-00-0009-76.png,0001-00-0009-22.png
00000014,16,0,1440597175983,1440597176515,300,389,0,0,0,5,4,1,54,0005-00-0001-54.png,0004-00-0001-62.png
00000014,17,0,1440597179621,1440597180045,350,410,0,0,0,4,3,1,43,0004-00-0007-89.png,0003-00-0004-01.png
00000014,18,0,1440597183397,1440597183855,363,488,0,0,0,2,1,1,21,0002-00-0004-99.png,0001-00-0003-77.png
00000014,19,1,1440597186797,1440597186821,504,412,0,0,0,4,5,1,45,0004-00-0007-77.png,0005-00-0006-26.png
00000014,20,1,1440597188887,1440597189313,353,347,0,0,0,2,3,1,23,0002-00-0001-77.png,0003-00-0006-22.png
00000014,21,1,1440597191327,1440597191821,904,401,0,0,0,3,2,1,32,0003-00-0004-96.png,0002-00-0000-09.png
00000014,22,0,1440597193734,1440597194196,324,374,0,0,0,5,4,1,54,0005-00-0002-00.png,0004-00-0003-84.png
00000014,23,0,1440597197370,1440597197886,927,383,0,0,0,3,4,1,34,0003-00-0006-17.png,0004-00-0007-27.png
00000014,24,0,1440597201010,1440597201563,902,346,0,0,0,1,2,1,12,0001-00-0009-41.png,0002-00-0005-11.png
00000014,25,1,1440597204587,1440597205101,310,372,0,0,0,2,3,1,23,0002-00-0007-76.png,0003-00-0006-95.png
00000014,26,0,1440597207777,1440597208209,367,375,0,0,0,5,4,1,54,0005-00-0004-10.png,0004-00-0008-26.png
00000014,27,1,1440597211081,1440597211105,489,391,0,0,0,1,2,1,12,0001-00-0001-95.png,0002-00-0005-08.png
00000014,28,1,1440597212757,1440597213243,904,351,0,0,0,3,2,1,32,0003-00-0002-88.png,0002-00-0005-77.png
00000014,29,1,1440597214974,1440597215483,388,471,0,0,0,4,5,1,45,0004-00-0005-42.png,0005-00-0006-47.png
00000014,30,1,1440597217196,1440597217707,923,406,0,0,0,4,3,1,43,0004-00-0002-99.png,0003-00-0006-81.png
00000014,31,0,1440597219427,1440597219932,354,365,0,0,0,2,1,1,21,0002-00-0005-92.png,0001-00-0007-97.png
00000014,32,1,1440597222779,1440597223291,360,371,0,0,0,3,4,1,34,0003-00-0004-59.png,0004-00-0009-70.png
00000014,33,1,1440597224346,1440597224848,327,385,0,0,0,3,4,1,34,0003-00-0008-81.png,0004-00-0004-10.png
00000014,34,0,1440597225994,1440597226552,920,394,0,0,0,1,2,1,12,0001-00-0000-95.png,0002-00-0007-77.png
00000014,35,0,1440597229514,1440597229526,498,446,0,0,0,4,3,1,43,0004-00-0009-42.png,0003-00-0005-12.png
00000014,36,0,1440597232497,1440597232529,494,491,0,0,0,2,1,1,21,0002-00-0000-47.png,0001-00-0007-07.png
00000014,37,1,1440597235657,1440597235681,481,461,0,0,0,2,3,1,23,0002-00-0006-82.png,0003-00-0007-79.png
00000014,38,0,1440597236680,1440597237170,350,414,0,0,0,5,4,1,54,0005-00-0000-14.png,0004-00-0000-97.png
00000014,39,0,1440597240178,1440597240242,481,540,0,0,0,3,2,1,32,0003-00-0009-81.png,0002-00-0005-00.png
00000014,40,0,1440597243309,1440597243944,876,332,0,0,0,4,5,1,45,0004-00-0001-81.png,0005-00-0008-41.png
00000014,41,0,1440597246946,1440597247608,927,387,0,0,0,4,5,1,45,0004-00-0006-02.png,0005-00-0002-92.png
00000014,42,0,1440597250693,1440597250737,504,487,0,0,0,4,3,1,43,0004-00-0008-65.png,0003-00-0001-86.png
00000014,43,1,1440597253864,1440597253864,514,419,0,0,0,1,2,1,12,0001-00-0000-47.png,0002-00-0001-27.png
00000014,44,0,1440597254907,1440597255449,900,358,0,0,0,2,3,1,23,0002-00-0007-39.png,0003-00-0005-55.png
00000014,45,0,1440597258594,1440597259157,356,392,0,0,0,2,1,1,21,0002-00-0002-28.png,0001-00-0002-15.png
00000014,46,1,1440597262091,1440597262127,460,438,0,0,0,3,4,1,34,0003-00-0008-50.png,0004-00-0003-46.png
00000014,47,1,1440597263165,1440597263687,896,356,0,0,0,3,2,1,32,0003-00-0009-23.png,0002-00-0002-89.png
00000014,48,1,1440597264756,1440597265276,910,386,0,0,0,5,4,1,54,0005-00-0006-73.png,0004-00-0004-03.png
00000014,49,0,1440597266429,1440597266977,874,371,0,0,0,4,5,1,45,0004-00-0003-27.png,0005-00-0003-88.png
00000014,50,0,1440597269973,1440597270005,520,475,0,0,0,2,1,1,21,0002-00-0000-91.png,0001-00-0003-50.png
00000014,51,1,1440597272926,1440597273509,902,451,0,0,0,4,3,1,43,0004-00-0003-35.png,0003-00-0006-74.png
00000014,52,0,1440597274496,1440597275046,335,398,0,0,0,5,4,1,54,0005-00-0004-41.png,0004-00-0007-80.png
00000014,53,0,1440597278144,1440597278795,874,396,0,0,0,3,4,1,34,0003-00-0000-64.png,0004-00-0009-70.png
00000014,54,1,1440597282059,1440597282667,857,389,0,0,0,3,2,1,32,0003-00-0005-14.png,0002-00-0006-47.png
00000014,55,0,1440597283647,1440597284183,939,359,0,0,0,2,3,1,23,0002-00-0008-92.png,0003-00-0007-25.png
00000014,56,1,1440597287246,1440597287791,349,377,0,0,0,1,2,1,12,0001-00-0007-49.png,0002-00-0005-52.png
00000014,57,1,1440597288868,1440597289410,903,338,0,0,0,3,2,1,32,0003-00-0002-17.png,0002-00-0005-89.png
00000014,58,1,1440597290575,1440597291078,908,434,0,0,0,4,3,1,43,0004-00-0003-47.png,0003-00-0009-71.png
00000014,59,1,1440597292225,1440597292717,341,389,0,0,0,2,3,1,23,0002-00-0004-12.png,0003-00-0004-64.png
00000014,60,1,1440597293936,1440597294498,926,397,0,0,0,2,1,1,21,0002-00-0005-72.png,0001-00-0007-63.png
00000014,61,1,1440597295789,1440597296280,285,372,0,0,0,4,5,1,45,0004-00-0004-42.png,0005-00-0002-35.png
00000014,62,0,1440597297498,1440597298040,900,357,0,0,0,3,4,1,34,0003-00-0001-69.png,0004-00-0001-81.png
00000014,63,1,1440597300890,1440597300898,516,419,0,0,0,1,2,1,12,0001-00-0000-74.png,0002-00-0000-08.png
00000014,64,1,1440597302095,1440597302599,921,367,0,0,0,5,4,1,54,0005-00-0000-67.png,0004-00-0006-78.png
00000014,65,1,1440597303815,1440597304377,889,438,0,0,0,5,4,1,54,0005-00-0004-03.png,0004-00-0009-69.png
00000014,66,1,1440597305565,1440597306055,306,368,0,0,0,1,2,1,12,0001-00-0005-07.png,0002-00-0008-64.png
00000014,67,1,1440597307275,1440597307749,350,371,0,0,0,2,3,1,23,0002-00-0006-20.png,0003-00-0006-78.png
00000014,68,1,1440597308953,1440597309478,886,372,0,0,0,2,1,1,21,0002-00-0003-95.png,0001-00-0001-19.png
00000014,69,1,1440597310663,1440597311236,931,349,0,0,0,4,3,1,43,0004-00-0008-86.png,0003-00-0001-33.png
00000014,70,1,1440597312392,1440597313086,323,396,0,0,0,4,5,1,45,0004-00-0004-92.png,0005-00-0001-09.png
00000014,71,1,1440597314459,1440597315009,867,360,0,0,0,3,2,1,32,0003-00-0003-00.png,0002-00-0005-37.png
00000014,72,0,1440597316277,1440597316799,880,453,0,0,0,3,4,1,34,0003-00-0000-96.png,0004-00-0005-61.png
00000014,73,0,1440597319817,1440597319849,478,486,0,0,0,5,4,1,54,0005-00-0009-10.png,0004-00-0004-63.png
00000014,74,1,1440597322896,1440597322932,478,463,0,0,0,1,2,1,12,0001-00-0008-60.png,0002-00-0008-44.png
00000014,75,0,1440597324021,1440597324504,931,350,0,0,0,2,3,1,23,0002-00-0009-83.png,0003-00-0005-28.png
00000014,76,0,1440597327547,1440597328120,879,453,0,0,0,4,5,1,45,0004-00-0009-73.png,0005-00-0008-53.png
00000014,77,0,1440597331085,1440597331181,427,449,0,0,0,3,2,1,32,0003-00-0005-56.png,0002-00-0008-48.png
00000014,78,1,1440597334022,1440597334038,478,427,0,0,0,3,4,1,34,0003-00-0001-79.png,0004-00-0004-48.png
00000014,79,0,1440597335118,1440597335613,376,384,0,0,0,2,1,1,21,0002-00-0003-84.png,0001-00-0006-53.png
00000014,80,0,1440597338769,1440597339316,321,385,0,0,0,4,3,1,43,0004-00-0000-95.png,0003-00-0003-47.png
00000014,81,1,1440597342228,1440597342252,428,468,0,0,0,3,4,1,34,0003-00-0008-61.png,0004-00-0000-05.png
00000014,82,1,1440597343318,1440597343816,358,371,0,0,0,2,3,1,23,0002-00-0004-07.png,0003-00-0009-46.png
00000014,83,1,1440597345099,1440597345685,372,440,0,0,0,1,2,1,12,0001-00-0002-00.png,0002-00-0008-20.png
00000014,84,0,1440597347304,1440597347779,900,371,0,0,0,4,5,1,45,0004-00-0000-05.png,0005-00-0007-41.png
00000014,85,0,1440597350901,1440597351376,350,370,0,0,0,2,1,1,21,0002-00-0007-79.png,0001-00-0000-79.png
00000014,86,0,1440597354279,1440597354328,460,461,0,0,0,3,2,1,32,0003-00-0006-82.png,0002-00-0000-20.png
00000014,87,0,1440597357460,1440597357963,341,387,0,0,0,5,4,1,54,0005-00-0006-66.png,0004-00-0006-31.png
00000014,88,0,1440597361158,1440597361780,350,344,0,0,0,4,3,1,43,0004-00-0009-70.png,0003-00-0003-73.png
00000014,89,0,1440597364776,1440597364820,478,448,0,0,0,2,1,1,21,0002-00-0007-52.png,0001-00-0001-59.png
00000014,90,1,1440597368015,1440597368536,340,468,0,0,0,4,5,1,45,0004-00-0008-62.png,0005-00-0003-96.png
00000014,91,1,1440597369566,1440597370070,339,363,0,0,0,2,3,1,23,0002-00-0008-08.png,0003-00-0005-97.png
00000014,92,0,1440597371246,1440597371830,890,453,0,0,0,3,4,1,34,0003-00-0002-60.png,0004-00-0009-50.png
00000014,93,0,1440597374689,1440597374749,478,471,0,0,0,3,2,1,32,0003-00-0002-88.png,0002-00-0004-45.png
00000014,94,0,1440597377695,1440597377723,513,436,0,0,0,5,4,1,54,0005-00-0001-68.png,0004-00-0009-24.png
00000014,95,0,1440597380698,1440597380734,453,473,0,0,0,4,3,1,43,0004-00-0005-80.png,0003-00-0000-88.png
00000014,96,1,1440597383610,1440597383634,467,472,0,0,0,1,2,1,12,0001-00-0006-13.png,0002-00-0007-97.png
00000014,97,0,1440597385130,1440597385655,908,392,0,0,0,3,4,1,34,0003-00-0001-63.png,0004-00-0003-54.png
00000014,98,0,1440597388598,1440597388634,510,444,0,0,0,2,1,1,21,0002-00-0009-72.png,0001-00-0007-64.png
00000014,99,0,1440597391851,1440597392432,364,502,0,0,0,5,4,1,54,0005-00-0000-41.png,0004-00-0008-33.png
00000014,100,0,1440597395538,1440597396019,358,368,0,0,0,4,3,1,43,0004-00-0004-08.png,0003-00-0008-72.png
00000014,101,1,1440597399010,1440597399050,504,479,0,0,0,1,2,1,12,0001-00-0000-96.png,0002-00-0004-69.png
00000014,102,1,1440597400018,1440597400496,343,399,0,0,0,4,5,1,45,0004-00-0003-94.png,0005-00-0001-09.png
00000014,103,1,1440597401679,1440597402242,359,360,0,0,0,2,3,1,23,0002-00-0007-50.png,0003-00-0002-66.png
00000014,104,0,1440597403368,1440597403985,325,358,0,0,0,3,2,1,32,0003-00-0000-45.png,0002-00-0004-11.png
00000014,105,1,1440597406916,1440597407356,333,397,0,0,0,1,2,1,12,0001-00-0004-63.png,0002-00-0001-90.png
00000014,106,0,1440597408801,1440597409284,323,412,0,0,0,4,3,1,43,0004-00-0003-96.png,0003-00-0008-96.png
00000014,107,1,1440597412265,1440597412309,466,484,0,0,0,2,3,1,23,0002-00-0008-90.png,0003-00-0001-57.png
00000014,108,1,1440597413325,1440597413862,877,469,0,0,0,3,2,1,32,0003-00-0000-15.png,0002-00-0002-64.png
00000014,109,0,1440597415087,1440597415618,881,404,0,0,0,4,5,1,45,0004-00-0006-11.png,0005-00-0007-22.png
00000014,110,1,1440597418674,1440597419296,876,439,0,0,0,5,4,1,54,0005-00-0002-42.png,0004-00-0003-54.png
00000014,111,0,1440597420324,1440597420829,882,461,0,0,0,3,4,1,34,0003-00-0003-26.png,0004-00-0009-95.png
00000014,112,1,1440597423918,1440597424407,901,371,0,0,0,2,1,1,21,0002-00-0008-06.png,0001-00-0006-44.png
00000014,113,0,1440597425368,1440597425877,370,460,0,0,0,2,1,1,21,0002-00-0001-88.png,0001-00-0001-85.png
00000014,114,0,1440597429000,1440597429024,443,526,0,0,0,4,3,1,43,0004-00-0005-07.png,0003-00-0008-52.png
00000014,115,1,1440597431879,1440597432325,340,405,0,0,0,4,5,1,45,0004-00-0001-61.png,0005-00-0007-42.png
00000014,116,0,1440597433303,1440597433980,299,358,0,0,0,5,4,1,54,0005-00-0003-23.png,0004-00-0007-01.png
00000014,117,1,1440597436928,1440597436948,488,391,0,0,0,3,4,1,34,0003-00-0009-35.png,0004-00-0008-94.png
00000014,118,1,1440597437904,1440597438516,922,380,0,0,0,3,2,1,32,0003-00-0001-41.png,0002-00-0005-58.png
00000014,119,1,1440597439619,1440597440127,338,408,0,0,0,2,3,1,23,0002-00-0008-56.png,0003-00-0006-53.png
00000014,120,1,1440597441260,1440597441752,299,369,0,0,0,1,2,1,12,0001-00-0007-51.png,0002-00-0008-93.png
00000014,121,0,1440597443460,1440597443930,386,471,0,0,0,4,3,1,43,0004-00-0008-84.png,0003-00-0003-63.png
00000014,122,1,1440597447023,1440597447489,305,367,0,0,0,1,2,1,12,0001-00-0006-52.png,0002-00-0003-93.png
00000014,123,0,1440597448559,1440597449085,924,388,0,0,0,3,4,1,34,0003-00-0007-40.png,0004-00-0000-23.png
00000014,124,0,1440597452196,1440597452232,485,473,0,0,0,3,2,1,32,0003-00-0008-68.png,0002-00-0006-07.png
00000014,125,0,1440597455187,1440597455211,453,477,0,0,0,2,1,1,21,0002-00-0008-82.png,0001-00-0005-85.png
00000014,126,0,1440597458350,1440597458920,857,366,0,0,0,2,3,1,23,0002-00-0006-27.png,0003-00-0006-43.png
00000014,127,1,1440597462382,1440597462939,363,503,0,0,0,4,5,1,45,0004-00-0003-16.png,0005-00-0006-51.png
00000014,128,1,1440597464382,1440597464906,883,417,0,0,0,5,4,1,54,0005-00-0004-56.png,0004-00-0004-12.png
00000014,129,1,1440597466047,1440597466573,862,464,0,0,0,5,4,1,54,0005-00-0005-07.png,0004-00-0001-50.png
00000014,130,1,1440597467809,1440597468331,377,488,0,0,0,4,5,1,45,0004-00-0006-93.png,0005-00-0006-48.png
00000014,131,0,1440597469529,1440597470043,348,388,0,0,0,3,2,1,32,0003-00-0007-90.png,0002-00-0004-67.png
00000014,132,1,1440597473024,1440597473540,325,398,0,0,0,2,3,1,23,0002-00-0004-40.png,0003-00-0008-49.png
00000014,133,0,1440597474648,1440597475190,399,488,0,0,0,2,1,1,21,0002-00-0002-92.png,0001-00-0003-71.png
00000014,134,1,1440597478255,1440597478270,442,423,0,0,0,1,2,1,12,0001-00-0009-46.png,0002-00-0006-97.png
00000014,135,1,1440597479308,1440597479850,337,373,0,0,0,3,4,1,34,0003-00-0003-70.png,0004-00-0000-19.png
00000014,136,1,1440597481177,1440597481734,874,464,0,0,0,4,3,1,43,0004-00-0002-53.png,0003-00-0005-71.png
00000014,137,1,1440597482921,1440597483507,880,374,0,0,0,5,4,1,54,0005-00-0008-68.png,0004-00-0003-51.png
00000014,138,1,1440597484704,1440597485203,401,384,0,0,0,3,4,1,34,0003-00-0007-76.png,0004-00-0001-69.png
00000014,139,1,1440597486514,1440597487087,880,374,0,0,0,3,2,1,32,0003-00-0004-26.png,0002-00-0000-59.png
00000014,140,1,1440597488253,1440597488828,370,409,0,0,0,1,2,1,12,0001-00-0003-82.png,0002-00-0008-71.png
00000014,141,1,1440597490182,1440597490748,883,395,0,0,0,2,1,1,21,0002-00-0001-94.png,0001-00-0008-12.png
00000014,142,0,1440597492070,1440597492576,867,387,0,0,0,2,3,1,23,0002-00-0003-92.png,0003-00-0007-20.png
00000014,143,0,1440597495677,1440597496164,292,400,0,0,0,4,3,1,43,0004-00-0009-98.png,0003-00-0001-85.png
00000014,144,1,1440597499016,1440597499040,453,488,0,0,0,4,5,1,45,0004-00-0002-81.png,0005-00-0007-39.png
00000014,145,1,1440597500260,1440597500828,876,398,0,0,0,4,3,1,43,0004-00-0007-75.png,0003-00-0007-40.png
00000014,146,0,1440597501979,1440597502540,907,373,0,0,0,3,4,1,34,0003-00-0006-00.png,0004-00-0008-42.png
00000014,147,0,1440597505677,1440597506137,316,376,0,0,0,5,4,1,54,0005-00-0004-18.png,0004-00-0003-88.png
00000014,148,1,1440597509493,1440597509517,491,384,0,0,0,4,5,1,45,0004-00-0008-90.png,0005-00-0009-88.png
00000014,149,1,1440597510695,1440597511187,876,396,0,0,0,2,1,1,21,0002-00-0000-48.png,0001-00-0004-35.png
00000014,150,1,1440597512357,1440597512828,361,414,0,0,0,2,3,1,23,0002-00-0005-91.png,0003-00-0008-17.png
00000014,151,1,1440597514085,1440597514594,888,346,0,0,0,3,2,1,32,0003-00-0001-29.png,0002-00-0001-31.png
00000014,152,1,1440597515696,1440597516198,317,391,0,0,0,1,2,1,12,0001-00-0008-26.png,0002-00-0004-33.png
00000014,153,1,1440597517342,1440597517911,872,465,0,0,0,3,2,1,32,0003-00-0001-09.png,0002-00-0001-56.png
00000014,154,1,1440597519135,1440597519636,364,391,0,0,0,4,5,1,45,0004-00-0004-72.png,0005-00-0006-43.png
00000014,155,1,1440597520842,1440597521376,376,358,0,0,0,3,4,1,34,0003-00-0009-75.png,0004-00-0006-49.png
00000014,156,0,1440597522663,1440597523322,339,370,0,0,0,5,4,1,54,0005-00-0006-99.png,0004-00-0006-17.png
00000014,157,0,1440597526395,1440597526960,904,376,0,0,0,1,2,1,12,0001-00-0002-14.png,0002-00-0005-16.png
00000014,158,1,1440597530154,1440597530682,349,381,0,0,0,2,3,1,23,0002-00-0007-41.png,0003-00-0006-85.png
00000014,159,0,1440597531877,1440597532429,376,358,0,0,0,4,3,1,43,0004-00-0002-54.png,0003-00-0006-41.png
00000014,160,0,1440597535584,1440597536037,376,410,0,0,0,2,1,1,21,0002-00-0005-77.png,0001-00-0004-07.png
00000014,161,1,1440597539029,1440597539531,327,378,0,0,0,1,2,1,12,0001-00-0001-09.png,0002-00-0009-43.png
00000014,162,1,1440597540573,1440597541074,419,401,0,0,0,2,3,1,23,0002-00-0004-96.png,0003-00-0004-71.png
00000014,163,0,1440597542343,1440597542843,905,401,0,0,0,4,5,1,45,0004-00-0007-48.png,0005-00-0005-77.png
00000014,164,0,1440597545829,1440597545877,447,420,0,0,0,5,4,1,54,0005-00-0009-10.png,0004-00-0009-73.png
00000014,165,1,1440597553628,1440597554123,939,413,0,0,0,2,1,1,21,0002-00-0008-92.png,0001-00-0003-87.png
00000014,166,1,1440597555218,1440597555674,350,513,0,0,0,3,4,1,34,0003-00-0001-32.png,0004-00-0008-90.png
00000014,167,1,1440597556968,1440597557541,895,392,0,0,0,4,3,1,43,0004-00-0003-57.png,0003-00-0001-48.png
00000014,168,1,1440597558617,1440597559167,890,453,0,0,0,3,2,1,32,0003-00-0005-05.png,0002-00-0004-49.png
00000014,169,1,1440597560316,1440597560847,873,480,0,0,0,3,2,1,32,0003-00-0009-84.png,0002-00-0004-43.png
00000014,170,0,1440597562027,1440597562541,902,450,0,0,0,2,3,1,23,0002-00-0002-17.png,0003-00-0002-36.png
00000014,171,0,1440597565565,1440597566066,330,402,0,0,0,4,3,1,43,0004-00-0007-42.png,0003-00-0004-91.png
00000014,172,1,1440597568963,1440597568983,453,447,0,0,0,1,2,1,12,0001-00-0005-25.png,0002-00-0001-48.png
00000014,173,0,1440597569967,1440597570507,346,377,0,0,0,5,4,1,54,0005-00-0007-80.png,0004-00-0009-00.png
00000014,174,0,1440597573653,1440597574233,903,387,0,0,0,3,4,1,34,0003-00-0007-31.png,0004-00-0000-62.png
00000014,175,0,1440597577261,1440597577784,872,339,0,0,0,4,5,1,45,0004-00-0007-11.png,0005-00-0009-47.png
00000014,176,0,1440597580949,1440597581454,362,463,0,0,0,2,1,1,21,0002-00-0004-24.png,0001-00-0003-01.png
00000014,177,1,1440597584654,1440597585225,909,419,0,0,0,3,2,1,32,0003-00-0000-63.png,0002-00-0007-68.png
00000014,178,1,1440597586238,1440597586721,370,512,0,0,0,4,5,1,45,0004-00-0007-58.png,0005-00-0008-76.png
00000014,179,1,1440597587827,1440597588333,338,395,0,0,0,2,3,1,23,0002-00-0000-06.png,0003-00-0001-92.png
00000014,180,1,1440597589504,1440597589976,401,410,0,0,0,1,2,1,12,0001-00-0002-62.png,0002-00-0007-44.png
00000014,181,1,1440597591202,1440597591673,875,423,0,0,0,2,1,1,21,0002-00-0004-23.png,0001-00-0003-82.png
00000014,182,0,1440597592825,1440597593483,879,374,0,0,0,3,4,1,34,0003-00-0004-43.png,0004-00-0006-69.png
00000014,183,0,1440597596317,1440597596357,520,458,0,0,0,4,3,1,43,0004-00-0008-62.png,0003-00-0005-74.png
00000014,184,0,1440597599180,1440597599208,478,449,0,0,0,5,4,1,54,0005-00-0009-07.png,0004-00-0003-17.png
00000014,185,0,1440597602065,1440597602687,905,402,0,0,0,3,4,1,34,0003-00-0001-17.png,0004-00-0009-51.png
00000014,186,0,1440597605934,1440597605970,504,474,0,0,0,5,4,1,54,0005-00-0001-62.png,0004-00-0004-13.png
00000014,187,0,1440597608852,1440597609463,899,480,0,0,0,4,5,1,45,0004-00-0005-39.png,0005-00-0002-33.png
00000014,188,1,1440597612680,1440597613193,877,413,0,0,0,2,1,1,21,0002-00-0006-68.png,0001-00-0005-07.png
00000014,189,1,1440597614279,1440597614779,387,481,0,0,0,1,2,1,12,0001-00-0004-88.png,0002-00-0000-35.png
00000014,190,1,1440597616310,1440597616806,900,370,0,0,0,4,3,1,43,0004-00-0006-95.png,0003-00-0007-69.png
00000014,191,1,1440597617870,1440597618326,361,384,0,0,0,2,3,1,23,0002-00-0006-54.png,0003-00-0006-48.png
00000014,192,1,1440597619570,1440597620071,904,401,0,0,0,3,2,1,32,0003-00-0002-38.png,0002-00-0006-98.png
00000014,193,0,1440597621259,1440597621751,367,481,0,0,0,5,4,1,54,0005-00-0003-71.png,0004-00-0006-57.png
00000014,194,1,1440597624837,1440597625278,342,402,0,0,0,2,3,1,23,0002-00-0000-34.png,0003-00-0006-82.png
00000014,195,0,1440597626349,1440597626801,376,358,0,0,0,2,1,1,21,0002-00-0004-39.png,0001-00-0004-08.png
00000014,196,1,1440597629695,1440597629723,478,450,0,0,0,4,5,1,45,0004-00-0005-44.png,0005-00-0003-49.png
00000014,197,1,1440597630768,1440597631246,392,509,0,0,0,3,4,1,34,0003-00-0008-95.png,0004-00-0004-08.png
00000014,198,1,1440597632408,1440597633446,934,427,0,0,0,3,2,1,32,0003-00-0007-05.png,0002-00-0004-76.png
00000014,199,0,1440597634536,1440597635021,367,416,0,0,0,4,3,1,43,0004-00-0007-04.png,0003-00-0009-33.png
00000014,200,1,1440597637912,1440597637960,487,470,0,0,0,1,2,1,12,0001-00-0009-32.png,0002-00-0007-63.png
00000014,201,0,1440597638947,1440597639488,876,424,0,0,0,2,3,1,23,0002-00-0002-86.png,0003-00-0002-08.png
00000014,202,0,1440597642465,1440597642493,504,448,0,0,0,2,1,1,21,0002-00-0000-39.png,0001-00-0001-50.png
00000014,203,1,1440597645401,1440597645433,368,548,0,0,0,3,4,1,34,0003-00-0002-76.png,0004-00-0009-11.png
00000014,204,1,1440597646522,1440597647064,906,374,0,0,0,5,4,1,54,0005-00-0007-49.png,0004-00-0000-00.png
00000014,205,1,1440597648480,1440597649027,293,401,0,0,0,4,5,1,45,0004-00-0001-37.png,0005-00-0001-92.png
00000014,206,1,1440597650289,1440597650815,866,405,0,0,0,3,2,1,32,0003-00-0003-88.png,0002-00-0008-92.png
00000014,207,1,1440597651979,1440597652457,325,398,0,0,0,1,2,1,12,0001-00-0000-40.png,0002-00-0008-13.png
00000014,208,0,1440597653668,1440597654164,315,424,0,0,0,4,3,1,43,0004-00-0007-56.png,0003-00-0006-48.png
00000014,209,1,1440597657306,1440597658350,337,436,0,0,0,2,3,1,23,0002-00-0004-67.png,0003-00-0003-18.png
00000014,210,0,1440597659997,1440597660435,356,414,0,0,0,4,3,1,43,0004-00-0004-12.png,0003-00-0000-59.png
00000014,211,1,1440597663538,1440597664024,393,409,0,0,0,3,4,1,34,0003-00-0007-89.png,0004-00-0002-47.png
00000014,212,1,1440597665174,1440597665703,897,381,0,0,0,5,4,1,54,0005-00-0000-53.png,0004-00-0007-14.png
00000014,213,0,1440597666937,1440597667472,876,398,0,0,0,1,2,1,12,0001-00-0003-00.png,0002-00-0006-41.png
00000014,214,1,1440597670603,1440597670639,478,450,0,0,0,4,5,1,45,0004-00-0001-15.png,0005-00-0003-56.png
00000014,215,1,1440597671853,1440597672374,894,394,0,0,0,3,2,1,32,0003-00-0007-40.png,0002-00-0000-37.png
00000014,216,0,1440597673779,1440597674747,435,367,0,0,0,2,1,1,21,0002-00-0007-05.png,0001-00-0006-32.png
00000014,217,1,1440597677711,1440597678181,320,394,0,0,0,2,3,1,23,0002-00-0009-63.png,0003-00-0006-04.png
00000014,218,1,1440597679320,1440597679883,312,397,0,0,0,1,2,1,12,0001-00-0006-14.png,0002-00-0003-88.png
00000014,219,0,1440597681148,1440597681724,877,389,0,0,0,3,4,1,34,0003-00-0003-10.png,0004-00-0009-09.png
00000014,220,1,1440597684743,1440597684755,513,462,0,0,0,4,5,1,45,0004-00-0003-33.png,0005-00-0000-91.png
00000014,221,1,1440597685840,1440597686378,876,398,0,0,0,4,3,1,43,0004-00-0003-59.png,0003-00-0000-57.png
00000014,222,0,1440597688126,1440597688630,317,395,0,0,0,2,1,1,21,0002-00-0001-18.png,0001-00-0007-21.png
00000014,223,0,1440597691692,1440597692187,389,397,0,0,0,5,4,1,54,0005-00-0001-05.png,0004-00-0001-40.png
00000014,224,1,1440597695222,1440597695847,937,398,0,0,0,3,2,1,32,0003-00-0004-19.png,0002-00-0006-06.png
00000014,225,0,1440597696911,1440597697413,401,358,0,0,0,2,1,1,21,0002-00-0000-84.png,0001-00-0009-27.png
00000014,226,0,1440597700406,1440597700446,474,472,0,0,0,5,4,1,54,0005-00-0004-41.png,0004-00-0006-99.png
00000014,227,0,1440597703419,1440597703459,498,496,0,0,0,3,2,1,32,0003-00-0008-83.png,0002-00-0008-12.png
00000014,228,1,1440597706503,1440597706527,456,497,0,0,0,2,3,1,23,0002-00-0000-16.png,0003-00-0002-16.png
00000014,229,0,1440597707566,1440597708088,874,475,0,0,0,1,2,1,12,0001-00-0008-83.png,0002-00-0007-28.png
00000014,230,1,1440597711006,1440597711543,339,474,0,0,0,4,5,1,45,0004-00-0000-26.png,0005-00-0003-04.png
00000014,231,1,1440597712711,1440597713288,867,459,0,0,0,4,3,1,43,0004-00-0000-78.png,0003-00-0002-20.png
00000014,232,0,1440597715120,1440597715774,894,472,0,0,0,3,4,1,34,0003-00-0001-07.png,0004-00-0007-86.png
00000014,233,1,1440597718716,1440597718752,513,443,0,0,0,4,5,1,45,0004-00-0002-29.png,0005-00-0001-60.png
00000014,234,0,1440597719771,1440597720331,880,400,0,0,0,1,2,1,12,0001-00-0001-38.png,0002-00-0003-95.png
00000014,235,1,1440597723427,1440597724099,901,358,0,0,0,2,1,1,21,0002-00-0002-93.png,0001-00-0004-52.png
00000014,236,0,1440597725206,1440597725751,926,390,0,0,0,3,4,1,34,0003-00-0007-31.png,0004-00-0002-69.png
00000014,237,1,1440597728852,1440597729637,899,385,0,0,0,5,4,1,54,0005-00-0008-38.png,0004-00-0000-91.png
00000014,238,1,1440597730891,1440597731444,875,398,0,0,0,3,2,1,32,0003-00-0003-02.png,0002-00-0006-02.png
00000014,239,1,1440597732550,1440597733086,905,375,0,0,0,4,3,1,43,0004-00-0004-70.png,0003-00-0008-67.png
00000014,240,0,1440597734278,1440597734793,901,398,0,0,0,2,3,1,23,0002-00-0002-25.png,0003-00-0009-55.png
00000014,241,1,1440597737919,1440597738524,905,376,0,0,0,4,3,1,43,0004-00-0009-96.png,0003-00-0002-38.png
00000014,242,1,1440597739782,1440597740303,920,411,0,0,0,5,4,1,54,0005-00-0003-98.png,0004-00-0003-33.png
00000014,243,0,1440597741523,1440597742009,393,401,0,0,0,2,1,1,21,0002-00-0003-18.png,0001-00-0001-83.png
00000014,244,0,1440597745162,1440597745684,875,409,0,0,0,2,3,1,23,0002-00-0003-25.png,0003-00-0009-02.png
00000014,245,1,1440597748719,1440597748727,504,449,0,0,0,3,4,1,34,0003-00-0006-40.png,0004-00-0001-38.png
00000014,246,0,1440597750121,1440597750683,892,389,0,0,0,1,2,1,12,0001-00-0008-71.png,0002-00-0007-36.png
00000014,247,1,1440597753899,1440597754394,323,391,0,0,0,4,5,1,45,0004-00-0003-92.png,0005-00-0002-59.png
00000014,248,0,1440597755578,1440597756097,376,396,0,0,0,3,2,1,32,0003-00-0001-26.png,0002-00-0006-48.png
00000014,249,0,1440597759364,1440597760177,920,368,0,0,0,2,3,1,23,0002-00-0003-80.png,0003-00-0007-02.png
00000014,250,1,1440597763171,1440597763187,453,449,0,0,0,4,5,1,45,0004-00-0001-94.png,0005-00-0007-29.png
00000014,251,1,1440597764305,1440597764843,879,386,0,0,0,4,3,1,43,0004-00-0008-99.png,0003-00-0001-64.png
00000014,252,0,1440597766144,1440597766638,360,381,0,0,0,2,1,1,21,0002-00-0002-11.png,0001-00-0005-95.png
00000014,253,1,1440597769592,1440597769608,466,388,0,0,0,1,2,1,12,0001-00-0004-84.png,0002-00-0001-49.png
00000014,254,1,1440597770635,1440597771200,899,387,0,0,0,3,2,1,32,0003-00-0003-79.png,0002-00-0007-95.png
00000014,255,0,1440597772455,1440597773006,862,473,0,0,0,3,4,1,34,0003-00-0000-75.png,0004-00-0004-97.png
00000014,256,0,1440597775847,1440597775883,501,497,0,0,0,5,4,1,54,0005-00-0001-48.png,0004-00-0004-86.png
00000014,257,0,1440597779352,1440597779989,305,380,0,0,0,4,3,1,43,0004-00-0003-41.png,0003-00-0008-12.png
00000014,258,1,1440597783080,1440597783124,425,512,0,0,0,3,4,1,34,0003-00-0003-16.png,0004-00-0004-94.png
00000014,259,0,1440597784372,1440597784900,866,398,0,0,0,4,5,1,45,0004-00-0000-73.png,0005-00-0005-04.png
00000014,260,0,1440597787942,1440597788523,899,423,0,0,0,1,2,1,12,0001-00-0007-66.png,0002-00-0005-55.png
00000014,261,1,1440597791675,1440597792198,901,399,0,0,0,2,1,1,21,0002-00-0007-98.png,0001-00-0009-56.png
00000014,262,1,1440597793268,1440597793784,899,398,0,0,0,5,4,1,54,0005-00-0006-15.png,0004-00-0002-00.png
00000014,263,1,1440597794949,1440597795479,879,402,0,0,0,3,2,1,32,0003-00-0005-62.png,0002-00-0009-39.png
00000014,264,1,1440597796707,1440597797252,314,393,0,0,0,2,3,1,23,0002-00-0001-17.png,0003-00-0006-03.png
00000014,265,0,1440597798604,1440597799118,359,423,0,0,0,4,3,1,43,0004-00-0003-21.png,0003-00-0004-74.png
00000014,266,0,1440597802094,1440597802560,350,376,0,0,0,3,2,1,32,0003-00-0009-70.png,0002-00-0002-51.png
00000014,267,1,1440597805619,1440597805646,514,488,0,0,0,2,3,1,23,0002-00-0001-63.png,0003-00-0008-51.png
00000014,268,0,1440597806774,1440597807292,877,391,0,0,0,3,4,1,34,0003-00-0000-11.png,0004-00-0003-37.png
00000014,269,0,1440597810450,1440597810995,865,482,0,0,0,4,5,1,45,0004-00-0000-48.png,0005-00-0004-55.png
00000014,270,0,1440597814174,1440597814860,348,357,0,0,0,5,4,1,54,0005-00-0008-63.png,0004-00-0008-73.png
00000014,271,1,1440597818026,1440597818713,369,374,0,0,0,1,2,1,12,0001-00-0005-06.png,0002-00-0004-14.png
00000014,272,0,1440597820063,1440597820537,376,410,0,0,0,2,1,1,21,0002-00-0009-96.png,0001-00-0007-94.png
00000014,273,0,1440597823610,1440597823670,505,536,0,0,0,2,1,1,21,0002-00-0005-47.png,0001-00-0001-24.png
00000014,274,1,1440597826770,1440597827353,880,428,0,0,0,5,4,1,54,0005-00-0008-77.png,0004-00-0008-01.png
00000014,275,1,1440597828799,1440597829331,905,401,0,0,0,3,2,1,32,0003-00-0009-06.png,0002-00-0003-38.png
00000014,276,0,1440597830519,1440597831009,876,477,0,0,0,3,4,1,34,0003-00-0000-74.png,0004-00-0009-96.png
00000014,277,1,1440597834087,1440597834519,376,384,0,0,0,4,5,1,45,0004-00-0000-78.png,0005-00-0008-59.png
00000014,278,1,1440597835642,1440597836201,401,384,0,0,0,1,2,1,12,0001-00-0006-97.png,0002-00-0000-97.png
00000014,279,0,1440597837380,1440597837936,396,387,0,0,0,4,3,1,43,0004-00-0006-82.png,0003-00-0005-09.png
00000014,280,1,1440597840892,1440597840920,463,442,0,0,0,2,3,1,23,0002-00-0007-64.png,0003-00-0007-53.png
00000014,281,1,1440597841925,1440597842457,363,405,0,0,0,2,3,1,23,0002-00-0004-55.png,0003-00-0008-36.png
00000014,282,1,1440597843757,1440597844281,901,389,0,0,0,5,4,1,54,0005-00-0008-61.png,0004-00-0000-86.png
00000014,283,0,1440597845611,1440597846168,863,433,0,0,0,4,5,1,45,0004-00-0008-34.png,0005-00-0008-99.png
00000014,284,1,1440597849102,1440597849122,427,447,0,0,0,1,2,1,12,0001-00-0007-15.png,0002-00-0002-39.png
00000014,285,0,1440597850164,1440597850684,318,396,0,0,0,4,3,1,43,0004-00-0003-54.png,0003-00-0002-55.png
00000014,286,0,1440597853694,1440597853742,504,473,0,0,0,2,1,1,21,0002-00-0008-13.png,0001-00-0003-40.png
00000014,287,0,1440597856635,1440597856683,441,472,0,0,0,3,2,1,32,0003-00-0004-75.png,0002-00-0009-46.png
00000014,288,1,1440597859917,1440597860466,376,410,0,0,0,3,4,1,34,0003-00-0007-27.png,0004-00-0007-52.png
00000014,289,1,1440597861741,1440597862360,889,433,0,0,0,3,2,1,32,0003-00-0000-66.png,0002-00-0000-82.png
00000014,290,1,1440597863664,1440597864205,876,392,0,0,0,5,4,1,54,0005-00-0007-65.png,0004-00-0008-26.png
00000014,291,0,1440597865582,1440597866129,879,375,0,0,0,1,2,1,12,0001-00-0001-80.png,0002-00-0005-31.png
00000014,292,1,1440597869261,1440597869265,478,488,0,0,0,4,5,1,45,0004-00-0008-50.png,0005-00-0000-32.png
00000014,293,1,1440597870699,1440597871330,918,440,0,0,0,4,3,1,43,0004-00-0006-91.png,0003-00-0006-26.png
00000014,294,0,1440597872505,1440597873005,888,397,0,0,0,2,3,1,23,0002-00-0001-74.png,0003-00-0003-90.png
00000014,295,1,1440597875835,1440597875883,511,472,0,0,0,3,4,1,34,0003-00-0004-45.png,0004-00-0003-31.png
00000014,296,0,1440597877341,1440597877835,368,401,0,0,0,2,1,1,21,0002-00-0008-63.png,0001-00-0002-29.png
00000014,297,1,1440597880935,1440597881522,900,397,0,0,0,3,2,1,32,0003-00-0006-63.png,0002-00-0004-35.png
00000014,298,0,1440597882994,1440597883553,876,391,0,0,0,2,3,1,23,0002-00-0008-38.png,0003-00-0001-05.png
00000014,299,1,1440597890348,1440597890911,915,370,0,0,0,5,4,1,54,0005-00-0007-98.png,0004-00-0008-68.png
00000014,300,1,1440597892288,1440597892813,922,366,0,0,0,4,3,1,43,0004-00-0007-02.png,0003-00-0003-82.png
00000014,301,1,1440597894072,1440597894559,916,414,0,0,0,2,1,1,21,0002-00-0005-28.png,0001-00-0007-87.png
00000014,302,0,1440597896042,1440597896540,887,397,0,0,0,3,4,1,34,0003-00-0004-18.png,0004-00-0001-10.png
00000014,303,1,1440597899459,1440597899974,329,379,0,0,0,1,2,1,12,0001-00-0007-37.png,0002-00-0007-43.png
00000014,304,1,1440597901329,1440597901874,328,404,0,0,0,4,5,1,45,0004-00-0006-62.png,0005-00-0005-36.png
00000014,305,0,1440597903231,1440597903753,408,403,0,0,0,4,3,1,43,0004-00-0009-01.png,0003-00-0007-04.png
00000014,306,1,1440597906598,1440597906625,486,427,0,0,0,1,2,1,12,0001-00-0000-66.png,0002-00-0008-30.png
00000014,307,1,1440597907771,1440597908438,376,385,0,0,0,3,4,1,34,0003-00-0007-58.png,0004-00-0008-41.png
00000014,308,0,1440597909778,1440597910252,336,424,0,0,0,3,2,1,32,0003-00-0001-57.png,0002-00-0007-35.png
00000014,309,1,1440597913159,1440597913227,504,467,0,0,0,4,5,1,45,0004-00-0002-26.png,0005-00-0009-85.png
00000014,310,0,1440597914716,1440597915637,427,398,0,0,0,2,1,1,21,0002-00-0007-59.png,0001-00-0002-34.png
00000014,311,1,1440597918744,1440597919229,376,383,0,0,0,2,3,1,23,0002-00-0003-38.png,0003-00-0000-72.png
00000014,312,1,1440597920370,1440597920893,879,401,0,0,0,5,4,1,54,0005-00-0000-49.png,0004-00-0000-90.png
00000014,313,0,1440597922214,1440597922718,894,394,0,0,0,2,3,1,23,0002-00-0006-84.png,0003-00-0000-91.png
00000014,314,0,1440597925850,1440597926474,299,377,0,0,0,4,3,1,43,0004-00-0009-56.png,0003-00-0007-17.png
00000014,315,0,1440597929387,1440597929399,486,522,0,0,0,3,2,1,32,0003-00-0008-44.png,0002-00-0006-63.png
00000014,316,1,1440597932400,1440597932424,477,410,0,0,0,1,2,1,12,0001-00-0009-36.png,0002-00-0005-23.png
00000014,317,0,1440597933502,1440597933994,401,397,0,0,0,2,1,1,21,0002-00-0007-28.png,0001-00-0006-22.png
00000014,318,0,1440597937063,1440597937699,872,383,0,0,0,3,4,1,34,0003-00-0001-76.png,0004-00-0009-31.png
00000014,319,1,1440597940538,1440597941046,350,450,0,0,0,4,5,1,45,0004-00-0004-43.png,0005-00-0009-91.png
00000014,320,1,1440597942140,1440597943211,877,519,0,0,0,5,4,1,54,0005-00-0004-75.png,0004-00-0004-57.png
00000014,321,1,1440597944400,1440597944901,860,481,0,0,0,3,2,1,32,0003-00-0006-97.png,0002-00-0007-75.png
00000014,322,0,1440597946512,1440597946988,857,387,0,0,0,2,3,1,23,0002-00-0003-32.png,0003-00-0008-64.png
00000014,323,1,1440597949963,1440597949987,510,446,0,0,0,3,4,1,34,0003-00-0000-92.png,0004-00-0003-52.png
00000014,324,0,1440597951474,1440597951996,898,409,0,0,0,1,2,1,12,0001-00-0005-83.png,0002-00-0005-87.png
00000014,325,1,1440597954834,1440597955508,882,515,0,0,0,2,1,1,21,0002-00-0005-43.png,0001-00-0004-74.png
00000014,326,0,1440597957167,1440597957682,391,424,0,0,0,5,4,1,54,0005-00-0009-49.png,0004-00-0000-08.png
00000014,327,0,1440597960625,1440597960661,453,475,0,0,0,4,3,1,43,0004-00-0007-83.png,0003-00-0006-72.png
00000014,328,0,1440597963672,1440597964149,902,410,0,0,0,4,5,1,45,0004-00-0002-10.png,0005-00-0005-01.png
00000014,329,0,1440597967014,1440597967042,474,461,0,0,0,2,1,1,21,0002-00-0004-48.png,0001-00-0000-44.png
00000014,330,0,1440597970076,1440597970112,509,453,0,0,0,4,3,1,43,0004-00-0007-01.png,0003-00-0006-59.png
00000014,331,0,1440597973207,1440597973858,877,389,0,0,0,2,3,1,23,0002-00-0008-27.png,0003-00-0007-84.png
00000014,332,0,1440597977002,1440597977722,918,409,0,0,0,3,4,1,34,0003-00-0006-96.png,0004-00-0004-84.png
00000014,333,0,1440597980980,1440597981604,904,413,0,0,0,1,2,1,12,0001-00-0004-21.png,0002-00-0003-98.png
00000014,334,1,1440597984466,1440597984494,478,410,0,0,0,4,5,1,45,0004-00-0001-26.png,0005-00-0001-30.png
00000014,335,1,1440597985592,1440597986149,888,397,0,0,0,3,2,1,32,0003-00-0003-30.png,0002-00-0000-76.png
00000014,336,0,1440597987371,1440597987914,360,398,0,0,0,5,4,1,54,0005-00-0005-92.png,0004-00-0009-66.png
00000014,337,0,1440597990827,1440597990855,478,440,0,0,0,2,1,1,21,0002-00-0004-51.png,0001-00-0003-27.png
00000014,338,1,1440597993728,1440597993748,487,443,0,0,0,3,4,1,34,0003-00-0004-76.png,0004-00-0006-43.png
00000014,339,1,1440597995197,1440597995750,345,434,0,0,0,2,3,1,23,0002-00-0008-85.png,0003-00-0000-00.png
00000014,340,1,1440597996941,1440597997478,376,384,0,0,0,1,2,1,12,0001-00-0005-53.png,0002-00-0002-23.png
00000014,341,1,1440597998728,1440597999267,881,425,0,0,0,3,2,1,32,0003-00-0005-02.png,0002-00-0006-00.png
00000014,342,1,1440598000757,1440598001257,882,410,0,0,0,5,4,1,54,0005-00-0008-19.png,0004-00-0006-60.png
00000014,343,1,1440598002426,1440598002954,881,401,0,0,0,4,3,1,43,0004-00-0001-52.png,0003-00-0006-28.png
00000014,344,1,1440598004307,1440598004801,317,418,0,0,0,4,5,1,45,0004-00-0003-48.png,0005-00-0006-25.png
00000014,345,1,1440598006371,1440598006872,885,411,0,0,0,3,2,1,32,0003-00-0003-22.png,0002-00-0001-86.png
00000014,346,1,1440598008269,1440598008770,898,409,0,0,0,2,1,1,21,0002-00-0000-36.png,0001-00-0003-47.png
00000014,347,1,1440598010190,1440598010649,894,419,0,0,0,5,4,1,54,0005-00-0007-01.png,0004-00-0007-05.png
00000014,348,0,1440598012179,1440598012683,344,419,0,0,0,4,3,1,43,0004-00-0003-26.png,0003-00-0008-48.png
00000014,349,0,1440598015756,1440598016246,874,507,0,0,0,2,3,1,23,0002-00-0005-27.png,0003-00-0002-92.png
00000014,350,1,1440598019194,1440598019631,362,372,0,0,0,4,5,1,45,0004-00-0004-72.png,0005-00-0000-40.png
00000014,351,0,1440598020786,1440598021301,878,495,0,0,0,3,4,1,34,0003-00-0004-34.png,0004-00-0007-23.png
00000014,352,1,1440598024323,1440598024347,475,462,0,0,0,1,2,1,12,0001-00-0008-69.png,0002-00-0007-73.png
00000014,353,1,1440598025517,1440598026020,902,390,0,0,0,5,4,1,54,0005-00-0005-66.png,0004-00-0004-45.png
00000014,354,1,1440598027384,1440598027867,338,410,0,0,0,1,2,1,12,0001-00-0009-50.png,0002-00-0004-82.png
00000014,355,0,1440598029312,1440598029921,905,402,0,0,0,2,3,1,23,0002-00-0008-37.png,0003-00-0005-93.png
00000014,356,1,1440598033089,1440598033666,879,391,0,0,0,2,1,1,21,0002-00-0003-72.png,0001-00-0007-57.png
00000014,357,1,1440598035197,1440598035696,905,401,0,0,0,4,3,1,43,0004-00-0001-26.png,0003-00-0004-92.png
00000014,358,1,1440598036965,1440598037482,880,401,0,0,0,3,2,1,32,0003-00-0006-79.png,0002-00-0004-99.png
00000014,359,0,1440598038865,1440598039396,876,413,0,0,0,4,5,1,45,0004-00-0004-13.png,0005-00-0007-21.png
00000014,360,1,1440598042398,1440598042466,487,507,0,0,0,3,4,1,34,0003-00-0005-22.png,0004-00-0005-40.png
00000014,361,1,1440598043555,1440598044060,401,384,0,0,0,2,3,1,23,0002-00-0001-93.png,0003-00-0007-11.png
00000014,362,1,1440598045440,1440598045922,876,389,0,0,0,2,1,1,21,0002-00-0002-96.png,0001-00-0004-21.png
00000014,363,0,1440598047304,1440598047865,368,507,0,0,0,4,3,1,43,0004-00-0007-65.png,0003-00-0005-90.png
00000014,364,0,1440598050782,1440598050798,459,462,0,0,0,5,4,1,54,0005-00-0001-43.png,0004-00-0003-10.png
00000014,365,0,1440598054507,1440598055199,871,379,0,0,0,3,4,1,34,0003-00-0008-06.png,0004-00-0001-99.png
00000014,366,1,1440598058020,1440598058052,495,403,0,0,0,4,5,1,45,0004-00-0001-39.png,0005-00-0005-48.png
00000014,367,1,1440598059200,1440598059738,869,484,0,0,0,3,2,1,32,0003-00-0003-18.png,0002-00-0002-63.png
00000014,368,0,1440598060995,1440598061488,880,427,0,0,0,1,2,1,12,0001-00-0002-92.png,0002-00-0004-39.png
00000014,369,0,1440598064465,1440598064485,487,436,0,0,0,3,2,1,32,0003-00-0005-85.png,0002-00-0000-38.png
00000014,370,0,1440598067360,1440598067384,434,440,0,0,0,4,3,1,43,0004-00-0009-26.png,0003-00-0001-81.png
00000014,371,0,1440598070471,1440598070475,483,427,0,0,0,5,4,1,54,0005-00-0001-03.png,0004-00-0004-88.png
00000014,372,0,1440598073661,1440598073685,478,462,0,0,0,2,1,1,21,0002-00-0007-97.png,0001-00-0003-34.png
00000014,373,1,1440598077039,1440598077075,504,537,0,0,0,1,2,1,12,0001-00-0005-83.png,0002-00-0000-64.png
00000014,374,1,1440598078186,1440598078711,359,508,0,0,0,3,4,1,34,0003-00-0002-85.png,0004-00-0004-24.png
00000014,375,0,1440598080002,1440598080665,883,427,0,0,0,4,5,1,45,0004-00-0005-90.png,0005-00-0007-31.png
00000014,376,1,1440598083689,1440598083709,401,450,0,0,0,2,3,1,23,0002-00-0005-06.png,0003-00-0009-86.png
00000014,377,1,1440598084774,1440598085284,222,488,0,0,0,3,4,1,34,0003-00-0007-15.png,0004-00-0008-58.png
00000014,378,1,1440598086579,1440598087120,899,388,0,0,0,3,2,1,32,0003-00-0003-83.png,0002-00-0006-57.png
00000014,379,1,1440598088348,1440598088875,899,412,0,0,0,5,4,1,54,0005-00-0006-78.png,0004-00-0003-50.png
00000014,380,1,1440598090121,1440598090696,912,457,0,0,0,4,3,1,43,0004-00-0000-34.png,0003-00-0003-72.png
00000014,381,1,1440598092109,1440598093132,366,443,0,0,0,4,5,1,45,0004-00-0008-96.png,0005-00-0000-54.png
00000014,382,0,1440598094420,1440598094971,872,510,0,0,0,1,2,1,12,0001-00-0000-73.png,0002-00-0009-47.png
00000014,383,0,1440598097951,1440598097955,478,447,0,0,0,2,1,1,21,0002-00-0006-69.png,0001-00-0003-99.png
00000014,384,1,1440598100854,1440598100898,450,518,0,0,0,2,3,1,23,0002-00-0004-68.png,0003-00-0007-49.png
00000014,385,0,1440598102085,1440598102552,902,397,0,0,0,3,4,1,34,0003-00-0009-86.png,0004-00-0002-54.png
00000014,386,1,1440598105475,1440598106022,358,393,0,0,0,2,3,1,23,0002-00-0007-77.png,0003-00-0002-20.png
00000014,387,1,1440598107207,1440598107713,350,397,0,0,0,1,2,1,12,0001-00-0007-37.png,0002-00-0004-35.png
00000014,388,0,1440598109046,1440598109622,328,400,0,0,0,2,1,1,21,0002-00-0007-78.png,0001-00-0000-06.png
00000014,389,1,1440598112482,1440598112496,427,501,0,0,0,4,5,1,45,0004-00-0004-07.png,0005-00-0005-55.png
00000014,390,1,1440598114287,1440598114807,900,359,0,0,0,4,3,1,43,0004-00-0006-57.png,0003-00-0006-44.png
00000014,391,0,1440598116470,1440598117021,337,436,0,0,0,5,4,1,54,0005-00-0003-12.png,0004-00-0009-04.png
00000014,392,0,1440598120189,1440598120197,497,505,0,0,0,3,2,1,32,0003-00-0008-88.png,0002-00-0001-90.png
00000014,393,0,1440598123237,1440598123695,338,426,0,0,0,4,3,1,43,0004-00-0003-92.png,0003-00-0000-12.png
00000014,394,1,1440598126728,1440598126756,497,454,0,0,0,2,3,1,23,0002-00-0008-90.png,0003-00-0002-66.png
00000014,395,1,1440598127848,1440598128366,876,409,0,0,0,3,2,1,32,0003-00-0008-28.png,0002-00-0007-59.png
00000014,396,1,1440598129587,1440598130074,888,424,0,0,0,2,1,1,21,0002-00-0004-55.png,0001-00-0002-30.png
00000014,397,0,1440598131320,1440598131861,877,399,0,0,0,3,4,1,34,0003-00-0005-50.png,0004-00-0003-95.png
00000014,398,0,1440598135035,1440598135047,504,529,0,0,0,5,4,1,54,0005-00-0001-86.png,0004-00-0007-63.png
00000014,399,0,1440598138138,1440598138724,888,461,0,0,0,1,2,1,12,0001-00-0002-23.png,0002-00-0002-88.png
00000014,400,1,1440598141894,1440598142406,398,405,0,0,0,4,5,1,45,0004-00-0004-72.png,0005-00-0004-19.png
00000014,401,1,1440598143581,1440598144169,366,403,0,0,0,4,5,1,45,0004-00-0000-13.png,0005-00-0007-01.png
00000014,402,1,1440598145331,1440598145880,319,421,0,0,0,1,2,1,12,0001-00-0001-91.png,0002-00-0002-77.png
00000014,403,0,1440598147202,1440598148168,323,425,0,0,0,4,3,1,43,0004-00-0007-62.png,0003-00-0006-78.png
00000014,404,1,1440598151364,1440598151875,896,393,0,0,0,5,4,1,54,0005-00-0007-75.png,0004-00-0009-45.png
00000014,405,1,1440598152986,1440598153540,363,395,0,0,0,3,4,1,34,0003-00-0005-45.png,0004-00-0008-64.png
00000014,406,0,1440598154905,1440598155395,364,393,0,0,0,3,2,1,32,0003-00-0009-46.png,0002-00-0005-70.png
00000014,407,0,1440598158293,1440598158337,453,488,0,0,0,2,1,1,21,0002-00-0001-57.png,0001-00-0006-03.png
00000014,408,1,1440598161204,1440598161224,422,446,0,0,0,2,3,1,23,0002-00-0000-51.png,0003-00-0007-11.png
00000014,409,1,1440598162437,1440598163178,357,420,0,0,0,1,2,1,12,0001-00-0005-50.png,0002-00-0001-86.png
00000014,410,0,1440598164432,1440598164942,375,430,0,0,0,5,4,1,54,0005-00-0001-04.png,0004-00-0006-54.png
00000014,411,0,1440598167951,1440598167979,441,508,0,0,0,2,1,1,21,0002-00-0000-98.png,0001-00-0005-50.png
00000014,412,0,1440598170887,1440598170923,461,478,0,0,0,4,3,1,43,0004-00-0005-14.png,0003-00-0006-13.png
00000014,413,0,1440598173917,1440598174583,913,398,0,0,0,4,5,1,45,0004-00-0002-10.png,0005-00-0006-25.png
00000014,414,1,1440598177444,1440598177540,414,462,0,0,0,3,4,1,34,0003-00-0002-48.png,0004-00-0006-47.png
00000014,415,0,1440598178634,1440598179119,879,401,0,0,0,2,3,1,23,0002-00-0006-17.png,0003-00-0005-44.png
00000014,416,0,1440598182015,1440598182083,412,488,0,0,0,3,2,1,32,0003-00-0009-70.png,0002-00-0001-98.png
00000014,417,1,1440598185000,1440598185036,478,528,0,0,0,4,5,1,45,0004-00-0008-62.png,0005-00-0000-12.png
00000014,418,1,1440598186260,1440598187119,388,489,0,0,0,3,4,1,34,0003-00-0007-32.png,0004-00-0004-00.png
00000014,419,1,1440598188348,1440598188890,879,427,0,0,0,2,1,1,21,0002-00-0000-25.png,0001-00-0005-54.png
00000014,420,0,1440598190178,1440598190650,305,412,0,0,0,5,4,1,54,0005-00-0006-73.png,0004-00-0009-28.png
00000014,421,1,1440598193586,1440598193614,459,456,0,0,0,2,3,1,23,0002-00-0003-05.png,0003-00-0006-50.png
00000014,422,1,1440598194728,1440598195264,879,401,0,0,0,3,2,1,32,0003-00-0003-92.png,0002-00-0003-81.png
00000014,423,1,1440598196617,1440598197181,295,399,0,0,0,1,2,1,12,0001-00-0000-18.png,0002-00-0005-14.png
00000014,424,0,1440598198468,1440598199443,374,397,0,0,0,4,3,1,43,0004-00-0006-10.png,0003-00-0007-89.png
00000014,425,1,1440598202311,1440598202321,475,437,0,0,0,2,3,1,23,0002-00-0006-37.png,0003-00-0000-67.png
00000014,426,0,1440598203396,1440598203917,376,397,0,0,0,4,3,1,43,0004-00-0008-69.png,0003-00-0001-89.png
00000014,427,0,1440598206816,1440598206820,502,493,0,0,0,5,4,1,54,0005-00-0006-03.png,0004-00-0005-20.png
00000014,428,0,1440598209928,1440598209952,472,495,0,0,0,2,1,1,21,0002-00-0008-94.png,0001-00-0006-70.png
00000014,429,0,1440598212827,1440598212831,476,437,0,0,0,3,2,1,32,0003-00-0009-40.png,0002-00-0002-85.png
00000014,430,1,1440598215708,1440598215756,483,467,0,0,0,4,5,1,45,0004-00-0008-43.png,0005-00-0003-99.png
00000014,431,1,1440598216982,1440598217492,383,410,0,0,0,1,2,1,12,0001-00-0008-65.png,0002-00-0001-89.png
00000014,432,1,1440598218901,1440598219810,401,358,0,0,0,3,4,1,34,0003-00-0005-93.png,0004-00-0000-72.png
00000014,433,1,1440598221028,1440598221551,876,398,0,0,0,2,1,1,21,0002-00-0008-99.png,0001-00-0009-98.png
00000014,434,1,1440598222706,1440598223624,389,410,0,0,0,4,5,1,45,0004-00-0002-27.png,0005-00-0007-65.png
00000014,435,0,1440598224895,1440598225443,882,424,0,0,0,2,3,1,23,0002-00-0003-22.png,0003-00-0006-63.png
00000014,436,1,1440598228297,1440598228865,901,409,0,0,0,4,3,1,43,0004-00-0005-63.png,0003-00-0007-25.png
00000014,437,1,1440598229954,1440598230471,875,397,0,0,0,5,4,1,54,0005-00-0000-86.png,0004-00-0003-18.png
00000014,438,0,1440598231604,1440598232167,878,419,0,0,0,1,2,1,12,0001-00-0006-31.png,0002-00-0001-28.png
00000014,439,1,1440598235070,1440598235106,478,451,0,0,0,3,4,1,34,0003-00-0005-51.png,0004-00-0003-50.png
00000014,440,1,1440598236282,1440598236794,868,410,0,0,0,3,2,1,32,0003-00-0005-94.png,0002-00-0003-98.png
00000014,441,1,1440598238471,1440598239035,899,423,0,0,0,2,1,1,21,0002-00-0006-32.png,0001-00-0008-81.png
00000014,442,1,1440598240198,1440598240689,862,400,0,0,0,5,4,1,54,0005-00-0001-19.png,0004-00-0005-60.png
00000014,443,1,1440598241929,1440598242446,343,421,0,0,0,2,3,1,23,0002-00-0002-06.png,0003-00-0005-70.png
00000014,444,1,1440598243700,1440598244231,877,417,0,0,0,4,3,1,43,0004-00-0006-13.png,0003-00-0007-09.png
00000014,445,1,1440598246074,1440598246585,388,396,0,0,0,4,5,1,45,0004-00-0003-45.png,0005-00-0004-71.png
00000014,446,0,1440598248001,1440598248558,376,448,0,0,0,3,2,1,32,0003-00-0009-05.png,0002-00-0008-43.png
00000014,447,1,1440598251450,1440598251462,446,481,0,0,0,3,4,1,34,0003-00-0004-22.png,0004-00-0002-09.png
00000014,448,1,1440598252901,1440598253376,340,441,0,0,0,1,2,1,12,0001-00-0006-31.png,0002-00-0007-95.png
00000014,449,1,1440598254729,1440598255199,878,415,0,0,0,2,1,1,21,0002-00-0000-55.png,0001-00-0008-91.png
00000014,450,0,1440598256542,1440598257069,875,384,0,0,0,3,4,1,34,0003-00-0001-18.png,0004-00-0009-30.png
00000014,451,1,1440598260098,1440598260588,898,432,0,0,0,4,3,1,43,0004-00-0005-58.png,0003-00-0001-18.png
00000014,452,1,1440598261830,1440598262374,305,437,0,0,0,2,3,1,23,0002-00-0007-96.png,0003-00-0007-91.png
00000014,453,1,1440598263570,1440598264100,349,434,0,0,0,1,2,1,12,0001-00-0007-63.png,0002-00-0009-83.png
00000014,454,1,1440598265549,1440598266508,401,384,0,0,0,4,5,1,45,0004-00-0001-94.png,0005-00-0002-84.png
00000014,455,0,1440598267754,1440598268248,375,515,0,0,0,5,4,1,54,0005-00-0009-59.png,0004-00-0003-41.png
00000014,456,0,1440598271311,1440598271331,486,497,0,0,0,3,2,1,32,0003-00-0002-71.png,0002-00-0003-99.png
00000014,457,1,1440598274423,1440598275128,900,438,0,0,0,3,2,1,32,0003-00-0004-09.png,0002-00-0000-01.png
00000014,458,1,1440598276212,1440598277084,317,393,0,0,0,3,4,1,34,0003-00-0002-96.png,0004-00-0001-59.png
00000014,459,1,1440598278728,1440598279404,344,347,0,0,0,4,5,1,45,0004-00-0002-39.png,0005-00-0001-33.png
00000014,460,1,1440598280724,1440598281184,401,410,0,0,0,1,2,1,12,0001-00-0007-92.png,0002-00-0001-10.png
00000014,461,1,1440598282499,1440598283072,878,401,0,0,0,2,1,1,21,0002-00-0001-57.png,0001-00-0003-66.png
00000014,462,1,1440598284330,1440598284856,865,461,0,0,0,4,3,1,43,0004-00-0001-32.png,0003-00-0008-50.png
00000014,463,1,1440598286241,1440598286715,876,398,0,0,0,5,4,1,54,0005-00-0005-72.png,0004-00-0005-37.png
00000014,464,0,1440598288183,1440598288691,888,431,0,0,0,2,3,1,23,0002-00-0004-16.png,0003-00-0009-95.png
00000014,465,0,1440598291757,1440598292308,332,398,0,0,0,3,2,1,32,0003-00-0009-21.png,0002-00-0003-48.png
00000014,466,0,1440598295241,1440598295273,447,479,0,0,0,5,4,1,54,0005-00-0000-77.png,0004-00-0007-54.png
00000014,467,1,1440598298531,1440598299072,444,427,0,0,0,4,5,1,45,0004-00-0000-96.png,0005-00-0003-60.png
00000014,468,1,1440598300344,1440598300846,349,429,0,0,0,2,3,1,23,0002-00-0009-20.png,0003-00-0001-97.png
00000014,469,0,1440598302051,1440598302585,901,440,0,0,0,1,2,1,12,0001-00-0007-01.png,0002-00-0008-76.png
00000014,470,1,1440598306904,1440598307406,880,403,0,0,0,2,1,1,21,0002-00-0008-50.png,0001-00-0007-00.png
00000014,471,0,1440598308563,1440598309037,414,423,0,0,0,4,3,1,43,0004-00-0003-32.png,0003-00-0000-38.png
00000014,472,1,1440598312061,1440598312101,498,516,0,0,0,3,4,1,34,0003-00-0005-22.png,0004-00-0001-76.png
00000014,473,1,1440598313286,1440598313794,862,399,0,0,0,5,4,1,54,0005-00-0007-95.png,0004-00-0003-25.png
00000014,474,0,1440598315072,1440598315591,877,399,0,0,0,1,2,1,12,0001-00-0006-73.png,0002-00-0005-86.png
00000014,475,0,1440598318426,1440598318462,478,466,0,0,0,3,2,1,32,0003-00-0005-02.png,0002-00-0007-10.png
00000014,476,1,1440598321332,1440598321372,487,512,0,0,0,3,4,1,34,0003-00-0004-35.png,0004-00-0000-28.png
00000014,477,0,1440598322465,1440598322990,343,405,0,0,0,2,1,1,21,0002-00-0009-73.png,0001-00-0005-37.png
00000014,478,1,1440598326256,1440598326750,925,436,0,0,0,4,3,1,43,0004-00-0007-23.png,0003-00-0004-33.png
00000014,479,1,1440598327876,1440598328365,375,514,0,0,0,4,5,1,45,0004-00-0003-71.png,0005-00-0004-69.png
00000014,480,1,1440598329631,1440598330159,376,395,0,0,0,2,3,1,23,0002-00-0006-62.png,0003-00-0008-11.png
00000014,481,1,1440598331545,1440598332049,350,384,0,0,0,1,2,1,12,0001-00-0003-02.png,0002-00-0007-18.png
00000014,482,0,1440598333331,1440598333863,306,419,0,0,0,4,3,1,43,0004-00-0007-26.png,0003-00-0004-22.png
00000014,483,1,1440598336981,1440598337469,376,422,0,0,0,4,5,1,45,0004-00-0000-58.png,0005-00-0000-22.png
00000014,484,1,1440598339046,1440598339534,889,423,0,0,0,2,1,1,21,0002-00-0002-29.png,0001-00-0005-41.png
00000014,485,1,1440598340776,1440598341248,373,393,0,0,0,3,4,1,34,0003-00-0005-04.png,0004-00-0005-93.png
00000014,486,0,1440598342655,1440598343246,315,392,0,0,0,3,2,1,32,0003-00-0008-20.png,0002-00-0009-68.png
00000014,487,1,1440598346503,1440598346997,367,416,0,0,0,2,3,1,23,0002-00-0004-60.png,0003-00-0001-49.png
00000014,488,1,1440598348281,1440598348825,880,401,0,0,0,5,4,1,54,0005-00-0004-07.png,0004-00-0008-60.png
00000014,489,1,1440598350135,1440598350622,351,390,0,0,0,4,5,1,45,0004-00-0009-07.png,0005-00-0001-34.png
00000014,490,0,1440598352317,1440598352821,876,424,0,0,0,3,4,1,34,0003-00-0008-59.png,0004-00-0002-19.png
00000014,491,1,1440598355863,1440598355901,479,482,0,0,0,2,3,1,23,0002-00-0001-23.png,0003-00-0000-96.png
00000014,492,1,1440598357295,1440598357827,872,422,0,0,0,3,2,1,32,0003-00-0002-75.png,0002-00-0004-10.png
00000014,493,1,1440598359172,1440598359648,890,411,0,0,0,2,1,1,21,0002-00-0008-17.png,0001-00-0006-52.png
00000014,494,1,1440598361242,1440598361702,346,405,0,0,0,1,2,1,12,0001-00-0000-49.png,0002-00-0001-91.png
00000014,495,0,1440598363211,1440598363655,436,419,0,0,0,4,3,1,43,0004-00-0004-20.png,0003-00-0005-04.png
00000014,496,0,1440598366817,1440598367361,382,508,0,0,0,5,4,1,54,0005-00-0005-38.png,0004-00-0002-32.png
00000014,497,0,1440598370551,1440598370565,504,500,0,0,0,4,3,1,43,0004-00-0007-02.png,0003-00-0008-73.png
00000014,498,0,1440598373486,1440598373513,494,454,0,0,0,2,1,1,21,0002-00-0007-15.png,0001-00-0004-91.png
00000014,499,0,1440598376656,1440598377133,401,410,0,0,0,3,2,1,32,0003-00-0006-69.png,0002-00-0002-46.png
00000014,500,1,1440598380115,1440598380628,312,422,0,0,0,4,5,1,45,0004-00-0005-65.png,0005-00-0006-27.png
00000014,501,0,1440598381816,1440598382277,886,398,0,0,0,1,2,1,12,0001-00-0007-15.png,0002-00-0009-13.png
00000014,502,0,1440598385443,1440598386000,878,470,0,0,0,3,4,1,34,0003-00-0005-33.png,0004-00-0007-42.png
00000014,503,0,1440598389248,1440598389761,339,423,0,0,0,5,4,1,54,0005-00-0009-62.png,0004-00-0006-13.png
00000014,504,1,1440598392877,1440598392893,510,508,0,0,0,2,3,1,23,0002-00-0000-15.png,0003-00-0000-52.png
00000014,505,0,1440598394369,1440598394875,878,416,0,0,0,2,3,1,23,0002-00-0005-64.png,0003-00-0008-99.png
00000014,506,0,1440598397877,1440598397897,471,494,0,0,0,4,3,1,43,0004-00-0002-10.png,0003-00-0002-06.png
00000014,507,1,1440598400736,1440598400776,478,400,0,0,0,3,4,1,34,0003-00-0008-19.png,0004-00-0009-50.png
00000014,508,1,1440598401830,1440598402267,384,393,0,0,0,1,2,1,12,0001-00-0009-38.png,0002-00-0007-76.png
00000014,509,1,1440598403513,1440598404018,876,408,0,0,0,5,4,1,54,0005-00-0009-31.png,0004-00-0006-90.png
00000014,510,1,1440598405343,1440598405875,888,398,0,0,0,2,1,1,21,0002-00-0008-34.png,0001-00-0004-03.png
00000014,511,0,1440598407122,1440598407634,883,417,0,0,0,4,5,1,45,0004-00-0007-72.png,0005-00-0003-38.png
00000014,512,0,1440598410495,1440598410507,489,461,0,0,0,3,2,1,32,0003-00-0001-78.png,0002-00-0005-18.png
00000014,513,1,1440598413438,1440598413912,389,410,0,0,0,1,2,1,12,0001-00-0009-44.png,0002-00-0006-12.png
00000014,514,1,1440598415034,1440598415589,878,417,0,0,0,3,2,1,32,0003-00-0003-59.png,0002-00-0007-86.png
00000014,515,0,1440598416742,1440598417232,366,418,0,0,0,2,1,1,21,0002-00-0000-14.png,0001-00-0002-72.png
00000014,516,1,1440598420176,1440598420200,478,448,0,0,0,3,4,1,34,0003-00-0001-63.png,0004-00-0007-53.png
00000014,517,1,1440598421617,1440598422104,325,410,0,0,0,2,3,1,23,0002-00-0001-87.png,0003-00-0008-56.png
00000014,518,1,1440598423725,1440598424295,337,449,0,0,0,4,5,1,45,0004-00-0002-04.png,0005-00-0000-56.png
00000014,519,1,1440598425438,1440598426095,931,427,0,0,0,4,3,1,43,0004-00-0008-09.png,0003-00-0001-62.png
00000014,520,1,1440598427287,1440598427900,894,410,0,0,0,5,4,1,54,0005-00-0000-05.png,0004-00-0006-68.png
00000014,521,1,1440598429504,1440598430019,869,419,0,0,0,5,4,1,54,0005-00-0001-17.png,0004-00-0001-59.png
00000014,522,0,1440598431268,1440598432206,363,419,0,0,0,4,3,1,43,0004-00-0003-81.png,0003-00-0009-21.png
00000014,523,1,1440598435077,1440598435089,470,453,0,0,0,2,3,1,23,0002-00-0002-17.png,0003-00-0004-89.png
00000014,524,0,1440598436159,1440598437142,903,428,0,0,0,3,4,1,34,0003-00-0003-23.png,0004-00-0000-89.png
00000014,525,0,1440598439985,1440598440009,507,463,0,0,0,3,2,1,32,0003-00-0001-11.png,0002-00-0000-91.png
00000014,526,1,1440598443028,1440598443605,939,423,0,0,0,2,1,1,21,0002-00-0001-05.png,0001-00-0002-67.png
00000014,527,0,1440598444652,1440598445190,885,415,0,0,0,4,5,1,45,0004-00-0009-98.png,0005-00-0003-36.png
00000014,528,1,1440598448098,1440598448151,427,504,0,0,0,1,2,1,12,0001-00-0005-83.png,0002-00-0008-93.png
00000014,529,1,1440598449349,1440598449853,873,406,0,0,0,5,4,1,54,0005-00-0004-50.png,0004-00-0008-56.png
00000014,530,1,1440598451302,1440598451810,900,413,0,0,0,3,2,1,32,0003-00-0006-20.png,0002-00-0007-81.png
00000014,531,1,1440598453029,1440598453561,337,429,0,0,0,3,4,1,34,0003-00-0000-29.png,0004-00-0005-73.png
00000014,532,1,1440598454910,1440598455417,311,423,0,0,0,1,2,1,12,0001-00-0008-27.png,0002-00-0008-10.png
00000014,533,1,1440598456773,1440598457281,882,443,0,0,0,2,1,1,21,0002-00-0007-59.png,0001-00-0009-04.png
00000014,534,0,1440598458493,1440598458987,870,394,0,0,0,2,3,1,23,0002-00-0004-49.png,0003-00-0003-69.png
00000014,535,1,1440598461914,1440598462406,435,418,0,0,0,4,5,1,45,0004-00-0008-19.png,0005-00-0009-88.png
00000014,536,1,1440598463637,1440598464147,871,407,0,0,0,4,3,1,43,0004-00-0002-88.png,0003-00-0004-23.png
00000014,537,0,1440598465413,1440598465880,376,410,0,0,0,4,3,1,43,0004-00-0002-15.png,0003-00-0007-23.png
00000014,538,1,1440598469209,1440598469704,369,426,0,0,0,3,4,1,34,0003-00-0008-41.png,0004-00-0006-38.png
00000014,539,1,1440598471234,1440598471732,401,422,0,0,0,1,2,1,12,0001-00-0007-06.png,0002-00-0005-27.png
00000014,540,0,1440598473066,1440598473607,876,398,0,0,0,4,5,1,45,0004-00-0002-90.png,0005-00-0004-12.png
00000014,541,1,1440598476473,1440598477129,928,413,0,0,0,2,1,1,21,0002-00-0000-75.png,0001-00-0005-40.png
00000014,542,0,1440598478266,1440598478777,897,388,0,0,0,2,3,1,23,0002-00-0009-41.png,0003-00-0004-21.png
00000014,543,1,1440598481969,1440598482664,869,470,0,0,0,3,2,1,32,0003-00-0005-97.png,0002-00-0007-55.png
00000014,544,1,1440598484158,1440598484625,880,402,0,0,0,5,4,1,54,0005-00-0006-01.png,0004-00-0005-18.png
00000014,545,0,1440598485888,1440598486391,872,407,0,0,0,3,4,1,34,0003-00-0002-91.png,0004-00-0006-69.png
00000014,546,1,1440598489464,1440598489987,875,398,0,0,0,3,2,1,32,0003-00-0008-71.png,0002-00-0001-66.png
00000014,547,1,1440598491040,1440598491558,415,410,0,0,0,4,5,1,45,0004-00-0008-36.png,0005-00-0003-78.png
00000014,548,1,1440598492743,1440598493250,380,518,0,0,0,1,2,1,12,0001-00-0005-63.png,0002-00-0003-09.png
00000014,549,1,1440598494465,1440598495022,875,413,0,0,0,2,1,1,21,0002-00-0006-11.png,0001-00-0005-81.png
00000014,550,1,1440598496384,1440598496888,875,411,0,0,0,4,3,1,43,0004-00-0002-45.png,0003-00-0002-40.png
00000014,551,0,1440598498083,1440598498615,875,397,0,0,0,2,3,1,23,0002-00-0007-32.png,0003-00-0002-45.png
00000014,552,0,1440598501528,1440598501564,484,496,0,0,0,5,4,1,54,0005-00-0004-35.png,0004-00-0002-04.png
00000014,553,0,1440598504459,1440598504479,438,462,0,0,0,2,1,1,21,0002-00-0009-63.png,0001-00-0001-63.png
00000014,554,1,1440598507584,1440598507612,504,488,0,0,0,4,5,1,45,0004-00-0006-37.png,0005-00-0009-64.png
00000014,555,0,1440598509081,1440598509604,873,413,0,0,0,3,4,1,34,0003-00-0009-49.png,0004-00-0001-67.png
00000014,556,1,1440598512770,1440598513293,893,435,0,0,0,3,2,1,32,0003-00-0001-54.png,0002-00-0000-45.png
00000014,557,0,1440598514755,1440598514803,504,514,0,0,0,5,4,1,54,0005-00-0001-74.png,0004-00-0007-00.png
00000014,558,0,1440598517858,1440598518396,865,382,0,0,0,2,3,1,23,0002-00-0004-42.png,0003-00-0009-89.png
00000014,559,1,1440598521575,1440598522090,366,503,0,0,0,1,2,1,12,0001-00-0000-61.png,0002-00-0005-10.png
00000014,560,1,1440598523225,1440598523736,900,463,0,0,0,4,3,1,43,0004-00-0001-33.png,0003-00-0003-07.png
00000014,561,1,1440598524886,1440598525393,880,428,0,0,0,5,4,1,54,0005-00-0006-52.png,0004-00-0005-02.png
00000014,562,0,1440598526661,1440598527112,869,394,0,0,0,4,5,1,45,0004-00-0008-10.png,0005-00-0000-72.png
00000014,563,1,1440598530043,1440598530628,330,396,0,0,0,3,4,1,34,0003-00-0009-81.png,0004-00-0000-90.png
00000014,564,1,1440598531749,1440598532263,905,402,0,0,0,4,3,1,43,0004-00-0008-14.png,0003-00-0000-30.png
00000014,565,1,1440598533464,1440598534006,446,389,0,0,0,2,3,1,23,0002-00-0006-95.png,0003-00-0005-62.png
00000014,566,0,1440598535313,1440598535761,888,400,0,0,0,1,2,1,12,0001-00-0004-08.png,0002-00-0008-76.png
00000014,567,0,1440598538900,1440598539489,423,413,0,0,0,3,2,1,32,0003-00-0005-81.png,0002-00-0002-23.png
00000014,568,1,1440598542663,1440598543141,924,430,0,0,0,2,1,1,21,0002-00-0003-88.png,0001-00-0000-96.png
00000014,569,1,1440598544199,1440598544700,913,416,0,0,0,5,4,1,54,0005-00-0000-93.png,0004-00-0003-54.png
00000014,570,0,1440598545928,1440598546429,389,410,0,0,0,4,3,1,43,0004-00-0009-85.png,0003-00-0008-43.png
00000014,571,1,1440598549452,1440598549476,478,462,0,0,0,4,5,1,45,0004-00-0003-21.png,0005-00-0007-15.png
00000014,572,1,1440598550646,1440598551231,862,527,0,0,0,3,2,1,32,0003-00-0001-97.png,0002-00-0002-10.png
00000014,573,0,1440598552346,1440598552874,876,474,0,0,0,2,3,1,23,0002-00-0005-29.png,0003-00-0003-48.png
00000014,574,1,1440598555804,1440598555832,504,479,0,0,0,3,4,1,34,0003-00-0007-10.png,0004-00-0008-95.png
00000014,575,1,1440598556969,1440598557407,427,397,0,0,0,1,2,1,12,0001-00-0009-50.png,0002-00-0001-99.png
00000014,576,1,1440598559036,1440598559602,876,397,0,0,0,2,1,1,21,0002-00-0006-63.png,0001-00-0009-42.png
00000014,577,0,1440598560703,1440598561249,337,423,0,0,0,5,4,1,54,0005-00-0002-18.png,0004-00-0003-93.png
00000014,578,1,1440598564422,1440598564886,903,417,0,0,0,3,2,1,32,0003-00-0004-60.png,0002-00-0001-50.png
00000014,579,0,1440598566051,1440598566520,329,421,0,0,0,2,1,1,21,0002-00-0005-85.png,0001-00-0000-17.png
00000014,580,1,1440598570184,1440598570814,861,432,0,0,0,4,3,1,43,0004-00-0002-75.png,0003-00-0005-89.png
00000014,581,1,1440598572361,1440598572389,497,480,0,0,0,3,4,1,34,0003-00-0000-87.png,0004-00-0004-19.png
00000014,582,1,1440598573789,1440598574299,288,398,0,0,0,2,3,1,23,0002-00-0004-43.png,0003-00-0000-82.png
00000014,583,1,1440598575557,1440598576018,314,424,0,0,0,1,2,1,12,0001-00-0003-47.png,0002-00-0008-44.png
00000014,584,0,1440598577265,1440598577799,875,450,0,0,0,4,5,1,45,0004-00-0003-46.png,0005-00-0009-24.png
00000014,585,1,1440598581090,1440598581577,350,410,0,0,0,4,5,1,45,0004-00-0008-50.png,0005-00-0006-24.png
00000014,586,1,1440598582671,1440598583198,905,401,0,0,0,2,1,1,21,0002-00-0009-23.png,0001-00-0001-90.png
00000014,587,1,1440598584462,1440598584952,405,385,0,0,0,1,2,1,12,0001-00-0009-78.png,0002-00-0009-79.png
00000014,588,1,1440598586339,1440598586862,875,398,0,0,0,4,3,1,43,0004-00-0000-31.png,0003-00-0003-52.png
00000014,589,1,1440598588296,1440598588872,921,446,0,0,0,3,2,1,32,0003-00-0007-39.png,0002-00-0007-99.png
00000014,590,0,1440598590237,1440598590726,905,401,0,0,0,2,3,1,23,0002-00-0002-86.png,0003-00-0000-77.png
00000014,591,0,1440598593735,1440598594297,951,448,0,0,0,3,4,1,34,0003-00-0008-44.png,0004-00-0008-12.png
00000014,592,1,1440598597221,1440598597737,876,495,0,0,0,5,4,1,54,0005-00-0000-41.png,0004-00-0005-55.png
00000014,593,1,1440598598801,1440598599356,901,451,0,0,0,3,2,1,32,0003-00-0005-08.png,0002-00-0001-96.png
00000014,594,1,1440598600512,1440598601071,332,420,0,0,0,1,2,1,12,0001-00-0007-14.png,0002-00-0000-12.png
00000014,595,1,1440598602292,1440598602811,901,435,0,0,0,5,4,1,54,0005-00-0009-56.png,0004-00-0001-46.png
00000014,596,1,1440598604802,1440598605300,899,407,0,0,0,2,1,1,21,0002-00-0008-93.png,0001-00-0006-87.png
00000014,597,1,1440598606560,1440598607527,900,398,0,0,0,4,3,1,43,0004-00-0001-32.png,0003-00-0008-66.png
00000014,598,0,1440598609340,1440598609831,875,436,0,0,0,4,5,1,45,0004-00-0005-77.png,0005-00-0001-31.png
00000014,599,1,1440598612859,1440598612891,427,450,0,0,0,3,4,1,34,0003-00-0000-34.png,0004-00-0005-84.png
00000014,600,0,1440598614105,1440598614608,881,401,0,0,0,2,3,1,23,0002-00-0002-07.png,0003-00-0002-60.png
00000014,601,0,1440598617814,1440598617854,514,469,0,0,0,2,1,1,21,0002-00-0008-49.png,0001-00-0008-42.png
00000014,602,1,1440598621623,1440598622262,900,449,0,0,0,5,4,1,54,0005-00-0006-69.png,0004-00-0009-47.png
00000014,603,0,1440598623492,1440598624034,901,424,0,0,0,1,2,1,12,0001-00-0005-38.png,0002-00-0002-87.png
00000014,604,1,1440598627429,1440598627449,478,473,0,0,0,3,4,1,34,0003-00-0004-13.png,0004-00-0005-49.png
00000014,605,1,1440598628682,1440598629214,875,423,0,0,0,3,2,1,32,0003-00-0007-43.png,0002-00-0002-38.png
00000014,606,0,1440598630695,1440598631259,350,406,0,0,0,4,3,1,43,0004-00-0008-78.png,0003-00-0006-36.png
00000014,607,0,1440598634363,1440598634886,862,436,0,0,0,4,5,1,45,0004-00-0005-93.png,0005-00-0005-70.png
00000014,608,0,1440598638022,1440598638633,888,448,0,0,0,2,3,1,23,0002-00-0000-68.png,0003-00-0001-72.png
00000014,609,1,1440598641809,1440598641849,453,478,0,0,0,2,3,1,23,0002-00-0003-29.png,0003-00-0004-27.png
00000014,610,1,1440598642931,1440598643455,330,412,0,0,0,4,5,1,45,0004-00-0002-80.png,0005-00-0003-46.png
00000014,611,1,1440598644702,1440598645246,903,415,0,0,0,4,3,1,43,0004-00-0008-81.png,0003-00-0001-35.png
00000014,612,0,1440598646518,1440598647421,344,421,0,0,0,5,4,1,54,0005-00-0002-12.png,0004-00-0000-77.png
00000014,613,0,1440598650434,1440598650470,487,438,0,0,0,3,2,1,32,0003-00-0004-38.png,0002-00-0004-56.png
00000014,614,0,1440598653602,1440598653614,478,488,0,0,0,2,1,1,21,0002-00-0001-95.png,0001-00-0008-15.png
00000014,615,0,1440598656808,1440598657392,905,401,0,0,0,3,4,1,34,0003-00-0006-13.png,0004-00-0006-79.png
00000014,616,1,1440598660314,1440598660322,474,467,0,0,0,1,2,1,12,0001-00-0004-97.png,0002-00-0007-89.png
00000014,617,0,1440598661369,1440598661890,867,477,0,0,0,1,2,1,12,0001-00-0007-31.png,0002-00-0006-08.png
00000014,618,0,1440598664884,1440598665378,368,402,0,0,0,5,4,1,54,0005-00-0003-79.png,0004-00-0007-18.png
00000014,619,1,1440598668365,1440598668393,458,481,0,0,0,2,3,1,23,0002-00-0007-61.png,0003-00-0001-23.png
00000014,620,1,1440598669396,1440598670033,346,393,0,0,0,4,5,1,45,0004-00-0001-36.png,0005-00-0008-55.png
00000014,621,1,1440598671149,1440598672136,917,437,0,0,0,2,1,1,21,0002-00-0009-67.png,0001-00-0006-77.png
00000014,622,1,1440598673475,1440598674005,359,397,0,0,0,3,4,1,34,0003-00-0003-55.png,0004-00-0009-28.png
00000014,623,1,1440598675192,1440598675698,879,401,0,0,0,4,3,1,43,0004-00-0003-49.png,0003-00-0000-49.png
00000014,624,1,1440598676882,1440598677421,880,419,0,0,0,3,2,1,32,0003-00-0009-48.png,0002-00-0003-48.png
00000014,625,1,1440598678770,1440598679260,907,401,0,0,0,5,4,1,54,0005-00-0000-76.png,0004-00-0000-00.png
00000014,626,0,1440598680602,1440598681104,876,416,0,0,0,3,4,1,34,0003-00-0007-35.png,0004-00-0009-31.png
00000014,627,1,1440598684090,1440598684114,469,481,0,0,0,2,3,1,23,0002-00-0005-18.png,0003-00-0007-28.png
00000014,628,1,1440598685616,1440598686132,435,403,0,0,0,4,5,1,45,0004-00-0007-57.png,0005-00-0003-10.png
00000014,629,0,1440598687226,1440598687761,405,545,0,0,0,2,1,1,21,0002-00-0003-55.png,0001-00-0004-19.png
00000014,630,0,1440598690824,1440598690860,491,478,0,0,0,3,2,1,32,0003-00-0004-71.png,0002-00-0007-06.png
00000014,631,1,1440598693990,1440598694002,458,499,0,0,0,1,2,1,12,0001-00-0009-88.png,0002-00-0001-79.png
00000014,632,1,1440598695060,1440598695637,879,402,0,0,0,4,3,1,43,0004-00-0009-78.png,0003-00-0001-30.png
00000014,633,1,1440598696750,1440598697264,400,514,0,0,0,1,2,1,12,0001-00-0006-64.png,0002-00-0003-51.png
00000014,634,1,1440598698648,1440598699148,872,491,0,0,0,2,1,1,21,0002-00-0005-49.png,0001-00-0003-94.png
00000014,635,0,1440598700835,1440598701314,904,453,0,0,0,3,4,1,34,0003-00-0008-25.png,0004-00-0005-90.png
00000014,636,0,1440598704362,1440598704859,897,432,0,0,0,2,3,1,23,0002-00-0001-99.png,0003-00-0005-28.png
00000014,637,0,1440598707834,1440598707863,478,475,0,0,0,5,4,1,54,0005-00-0006-41.png,0004-00-0006-99.png
00000014,638,0,1440598712316,1440598712782,351,488,0,0,0,4,3,1,43,0004-00-0007-33.png,0003-00-0003-10.png
00000014,639,0,1440598715663,1440598716333,903,390,0,0,0,4,5,1,45,0004-00-0007-61.png,0005-00-0003-63.png
00000014,640,0,1440598719319,1440598719348,486,438,0,0,0,3,2,1,32,0003-00-0005-58.png,0002-00-0002-99.png
00000014,641,0,1440598722219,1440598722231,499,438,0,0,0,2,1,1,21,0002-00-0006-53.png,0001-00-0006-84.png
00000014,642,0,1440598725223,1440598725667,420,406,0,0,0,4,3,1,43,0004-00-0002-30.png,0003-00-0001-62.png
00000014,643,0,1440598728552,1440598729068,904,441,0,0,0,3,4,1,34,0003-00-0008-02.png,0004-00-0008-94.png
00000014,644,1,1440598732053,1440598732073,493,476,0,0,0,1,2,1,12,0001-00-0006-96.png,0002-00-0008-63.png
00000014,645,1,1440598733118,1440598733678,293,426,0,0,0,2,3,1,23,0002-00-0001-64.png,0003-00-0003-05.png
00000014,646,0,1440598734895,1440598735390,873,412,0,0,0,4,5,1,45,0004-00-0006-79.png,0005-00-0008-70.png
00000014,647,0,1440598738531,1440598738559,503,506,0,0,0,3,2,1,32,0003-00-0003-93.png,0002-00-0002-16.png
00000014,648,0,1440598741535,1440598741571,487,514,0,0,0,5,4,1,54,0005-00-0005-19.png,0004-00-0001-61.png
00000014,649,1,1440598744574,1440598744594,518,489,0,0,0,4,5,1,45,0004-00-0008-72.png,0005-00-0002-72.png
00000014,650,1,1440598745550,1440598746071,427,384,0,0,0,2,3,1,23,0002-00-0004-56.png,0003-00-0003-26.png
00000014,651,1,1440598747218,1440598747744,905,427,0,0,0,2,1,1,21,0002-00-0006-35.png,0001-00-0000-38.png
00000014,652,1,1440598748930,1440598749422,314,441,0,0,0,3,4,1,34,0003-00-0008-20.png,0004-00-0007-46.png
00000014,653,1,1440598750560,1440598751081,299,398,0,0,0,1,2,1,12,0001-00-0002-14.png,0002-00-0004-86.png
00000014,654,0,1440598752264,1440598752296,478,514,0,0,0,4,3,1,43,0004-00-0003-25.png,0003-00-0003-57.png
00000014,655,0,1440598755227,1440598755255,487,504,0,0,0,5,4,1,54,0005-00-0003-70.png,0004-00-0008-51.png
00000014,656,0,1440598758349,1440598758389,504,499,0,0,0,3,2,1,32,0003-00-0000-91.png,0002-00-0009-87.png
00000014,657,1,1440598761331,1440598761359,492,502,0,0,0,4,5,1,45,0004-00-0007-01.png,0005-00-0009-42.png
00000014,658,0,1440598762418,1440598762923,895,394,0,0,0,2,3,1,23,0002-00-0004-11.png,0003-00-0002-22.png
00000014,659,1,1440598766560,1440598767107,878,445,0,0,0,4,3,1,43,0004-00-0007-39.png,0003-00-0004-11.png
00000014,660,0,1440598768151,1440598768637,401,422,0,0,0,5,4,1,54,0005-00-0000-99.png,0004-00-0002-11.png
00000014,661,0,1440598771779,1440598772271,876,410,0,0,0,3,4,1,34,0003-00-0006-85.png,0004-00-0006-08.png
00000014,662,1,1440598775235,1440598775271,484,445,0,0,0,1,2,1,12,0001-00-0002-50.png,0002-00-0003-57.png
00000014,663,1,1440598776331,1440598776826,879,415,0,0,0,3,2,1,32,0003-00-0001-96.png,0002-00-0008-89.png
00000014,664,1,1440598777934,1440598778437,870,498,0,0,0,2,1,1,21,0002-00-0000-20.png,0001-00-0009-59.png
00000014,665,1,1440598779610,1440598780155,376,411,0,0,0,2,3,1,23,0002-00-0004-58.png,0003-00-0002-43.png
00000014,666,0,1440598781291,1440598781358,478,502,0,0,0,4,3,1,43,0004-00-0009-42.png,0003-00-0007-37.png
00000014,667,0,1440598784209,1440598784241,513,522,0,0,0,3,2,1,32,0003-00-0000-13.png,0002-00-0004-97.png
00000014,668,0,1440598787160,1440598787184,478,472,0,0,0,2,1,1,21,0002-00-0005-11.png,0001-00-0004-33.png
00000014,669,1,1440598790255,1440598790834,342,405,0,0,0,1,2,1,12,0001-00-0007-43.png,0002-00-0001-70.png
00000014,670,0,1440598791876,1440598792402,905,389,0,0,0,4,5,1,45,0004-00-0007-52.png,0005-00-0009-72.png
00000014,671,1,1440598795263,1440598795287,508,437,0,0,0,3,4,1,34,0003-00-0005-22.png,0004-00-0008-24.png
00000014,672,1,1440598796260,1440598797267,873,516,0,0,0,5,4,1,54,0005-00-0002-95.png,0004-00-0003-57.png
00000014,673,1,1440598798277,1440598799262,861,502,0,0,0,4,3,1,43,0004-00-0004-65.png,0003-00-0000-97.png
00000014,674,0,1440598800817,1440598801291,344,411,0,0,0,2,1,1,21,0002-00-0006-94.png,0001-00-0009-13.png
00000014,675,0,1440598804127,1440598804578,342,397,0,0,0,5,4,1,54,0005-00-0001-12.png,0004-00-0000-60.png
00000014,676,1,1440598807560,1440598808175,937,398,0,0,0,3,2,1,32,0003-00-0006-25.png,0002-00-0007-98.png
00000014,677,0,1440598809165,1440598809665,899,516,0,0,0,1,2,1,12,0001-00-0000-57.png,0002-00-0001-57.png
00000014,678,0,1440598812618,1440598813153,929,394,0,0,0,2,3,1,23,0002-00-0005-06.png,0003-00-0006-65.png
00000014,679,1,1440598816107,1440598816636,478,373,0,0,0,4,5,1,45,0004-00-0008-90.png,0005-00-0003-46.png
00000014,680,0,1440598817727,1440598818197,878,506,0,0,0,3,4,1,34,0003-00-0005-28.png,0004-00-0004-75.png
00000014,681,1,1440598821373,1440598821837,878,410,0,0,0,5,4,1,54,0005-00-0008-80.png,0004-00-0003-36.png
00000014,682,1,1440598822834,1440598822890,504,462,0,0,0,3,4,1,34,0003-00-0000-98.png,0004-00-0007-23.png
00000014,683,1,1440598824068,1440598824989,408,417,0,0,0,4,5,1,45,0004-00-0006-38.png,0005-00-0008-78.png
00000014,684,1,1440598826436,1440598826959,350,422,0,0,0,1,2,1,12,0001-00-0002-90.png,0002-00-0004-42.png
00000014,685,0,1440598828043,1440598828595,878,418,0,0,0,2,3,1,23,0002-00-0006-70.png,0003-00-0008-19.png
00000014,686,1,1440598831648,1440598832182,905,427,0,0,0,2,1,1,21,0002-00-0006-79.png,0001-00-0007-11.png
00000014,687,1,1440598833170,1440598833683,887,398,0,0,0,3,2,1,32,0003-00-0005-92.png,0002-00-0007-51.png
00000014,688,0,1440598834761,1440598835262,406,514,0,0,0,4,3,1,43,0004-00-0002-96.png,0003-00-0002-32.png
00000014,689,1,1440598838210,1440598838841,899,386,0,0,0,3,2,1,32,0003-00-0006-97.png,0002-00-0007-04.png
00000014,690,0,1440598839797,1440598840311,330,436,0,0,0,5,4,1,54,0005-00-0007-93.png,0004-00-0000-57.png
00000014,691,0,1440598843338,1440598843366,487,453,0,0,0,2,1,1,21,0002-00-0004-70.png,0001-00-0006-88.png
00000014,692,0,1440598846854,1440598846890,478,450,0,0,0,4,3,1,43,0004-00-0009-64.png,0003-00-0001-48.png
00000014,693,1,1440598849918,1440598850021,432,536,0,0,0,2,3,1,23,0002-00-0009-56.png,0003-00-0005-20.png
00000014,694,0,1440598851033,1440598851523,892,452,0,0,0,3,4,1,34,0003-00-0001-32.png,0004-00-0001-88.png
00000014,695,1,1440598854566,1440598854595,463,467,0,0,0,1,2,1,12,0001-00-0007-04.png,0002-00-0005-54.png
00000014,696,1,1440598855592,1440598856069,389,529,0,0,0,4,5,1,45,0004-00-0004-75.png,0005-00-0002-77.png
00000014,697,1,1440598857122,1440598857648,880,418,0,0,0,5,4,1,54,0005-00-0002-62.png,0004-00-0007-87.png
00000014,698,0,1440598858724,1440598859297,318,435,0,0,0,4,3,1,43,0004-00-0000-75.png,0003-00-0001-83.png
00000014,699,0,1440598862620,1440598862648,509,498,0,0,0,3,2,1,32,0003-00-0002-03.png,0002-00-0000-84.png
00000014,700,1,1440598865612,1440598865656,473,550,0,0,0,1,2,1,12,0001-00-0005-22.png,0002-00-0002-39.png
00000014,701,1,1440598867170,1440598867665,427,410,0,0,0,2,3,1,23,0002-00-0006-51.png,0003-00-0001-27.png
00000014,702,0,1440598868799,1440598869291,907,461,0,0,0,3,4,1,34,0003-00-0002-96.png,0004-00-0008-02.png
00000014,703,0,1440598872270,1440598872282,511,470,0,0,0,2,1,1,21,0002-00-0007-38.png,0001-00-0008-05.png
00000014,704,1,1440598875211,1440598875243,487,462,0,0,0,4,5,1,45,0004-00-0009-95.png,0005-00-0009-24.png
00000014,705,1,1440598876255,1440598876766,341,428,0,0,0,1,2,1,12,0001-00-0008-77.png,0002-00-0009-08.png
00000014,706,0,1440598877941,1440598878470,339,449,0,0,0,3,2,1,32,0003-00-0003-83.png,0002-00-0000-97.png
00000014,707,1,1440598881573,1440598882086,894,428,0,0,0,4,3,1,43,0004-00-0008-34.png,0003-00-0002-19.png
00000014,708,0,1440598883243,1440598883760,875,410,0,0,0,3,4,1,34,0003-00-0006-89.png,0004-00-0009-54.png
00000014,709,1,1440598887167,1440598887598,337,423,0,0,0,4,5,1,45,0004-00-0005-42.png,0005-00-0009-14.png
00000014,710,1,1440598888629,1440598889101,359,427,0,0,0,2,3,1,23,0002-00-0003-01.png,0003-00-0006-97.png
00000014,711,0,1440598890228,1440598890277,478,501,0,0,0,5,4,1,54,0005-00-0001-12.png,0004-00-0003-10.png
00000014,712,1,1440598893219,1440598893826,908,487,0,0,0,2,1,1,21,0002-00-0006-84.png,0001-00-0007-80.png
00000014,713,0,1440598894831,1440598895363,877,416,0,0,0,4,5,1,45,0004-00-0004-45.png,0005-00-0006-44.png
00000014,714,0,1440598898414,1440598898888,349,403,0,0,0,2,1,1,21,0002-00-0007-28.png,0001-00-0007-80.png
00000014,715,0,1440598902323,1440598902964,376,410,0,0,0,3,2,1,32,0003-00-0007-21.png,0002-00-0005-03.png
00000014,716,0,1440598906478,1440598907003,470,402,0,0,0,4,3,1,43,0004-00-0008-39.png,0003-00-0000-86.png
00000014,717,1,1440598909916,1440598909944,438,473,0,0,0,3,4,1,34,0003-00-0009-51.png,0004-00-0005-79.png
00000014,718,1,1440598910970,1440598911471,876,424,0,0,0,5,4,1,54,0005-00-0002-28.png,0004-00-0003-42.png
00000014,719,1,1440598912582,1440598913021,322,423,0,0,0,1,2,1,12,0001-00-0003-66.png,0002-00-0006-89.png
00000014,720,0,1440598914400,1440598914922,894,419,0,0,0,2,3,1,23,0002-00-0008-95.png,0003-00-0006-69.png
00000014,721,0,1440598919051,1440598919511,350,422,0,0,0,2,1,1,21,0002-00-0008-81.png,0001-00-0005-35.png
00000014,722,1,1440598924457,1440598925645,290,426,0,0,0,2,3,1,23,0002-00-0007-63.png,0003-00-0006-82.png
00000014,723,1,1440598927320,1440598927852,878,521,0,0,0,5,4,1,54,0005-00-0003-45.png,0004-00-0000-23.png
00000014,724,1,1440598929724,1440598930209,900,398,0,0,0,4,3,1,43,0004-00-0008-81.png,0003-00-0002-86.png
00000014,725,0,1440598931779,1440598932282,923,410,0,0,0,3,4,1,34,0003-00-0000-25.png,0004-00-0000-15.png
00000014,726,0,1440598935271,1440598935743,900,423,0,0,0,4,5,1,45,0004-00-0008-41.png,0005-00-0003-30.png
00000014,727,1,1440598938720,1440598939211,401,396,0,0,0,1,2,1,12,0001-00-0002-89.png,0002-00-0003-99.png
00000014,728,0,1440598940649,1440598941135,311,410,0,0,0,3,2,1,32,0003-00-0005-46.png,0002-00-0006-87.png
00000014,729,0,1440598944074,1440598944142,518,488,0,0,0,4,3,1,43,0004-00-0001-65.png,0003-00-0000-50.png
00000014,730,1,1440598947346,1440598947834,867,486,0,0,0,2,1,1,21,0002-00-0004-34.png,0001-00-0009-33.png
00000014,731,1,1440598949121,1440598949621,901,410,0,0,0,3,2,1,32,0003-00-0007-42.png,0002-00-0000-93.png
00000014,732,0,1440598950756,1440598951288,899,397,0,0,0,4,5,1,45,0004-00-0004-05.png,0005-00-0004-92.png
00000014,733,0,1440598955745,1440598956260,903,521,0,0,0,2,3,1,23,0002-00-0004-23.png,0003-00-0003-56.png
00000014,734,0,1440598959492,1440598959995,874,527,0,0,0,1,2,1,12,0001-00-0007-67.png,0002-00-0000-32.png
00000014,735,0,1440598963167,1440598963764,376,397,0,0,0,5,4,1,54,0005-00-0004-68.png,0004-00-0009-69.png
00000014,736,0,1440598966885,1440598967461,899,508,0,0,0,3,4,1,34,0003-00-0002-88.png,0004-00-0005-20.png
00000014,737,1,1440598971200,1440598971752,926,423,0,0,0,5,4,1,54,0005-00-0006-34.png,0004-00-0004-44.png
00000014,738,0,1440598973773,1440598974407,317,392,0,0,0,4,3,1,43,0004-00-0006-24.png,0003-00-0006-61.png
00000014,739,0,1440598977510,1440598978039,376,499,0,0,0,3,2,1,32,0003-00-0005-70.png,0002-00-0007-87.png
00000014,740,1,1440598982808,1440598983973,325,358,0,0,0,2,3,1,23,0002-00-0004-14.png,0003-00-0002-08.png
00000014,741,1,1440598989516,1440598990029,338,398,0,0,0,4,5,1,45,0004-00-0004-69.png,0005-00-0001-55.png
00000014,742,0,1440598992111,1440598992582,857,371,0,0,0,3,4,1,34,0003-00-0008-84.png,0004-00-0000-82.png
00000014,743,0,1440598996483,1440598997021,959,445,0,0,0,1,2,1,12,0001-00-0004-45.png,0002-00-0001-23.png
00000014,744,1,1440598999869,1440599000394,925,423,0,0,0,2,1,1,21,0002-00-0002-93.png,0001-00-0008-29.png
00000014,745,0,1440599001942,1440599002474,878,442,0,0,0,2,3,1,23,0002-00-0006-92.png,0003-00-0001-53.png
00000014,746,1,1440599005436,1440599005929,925,414,0,0,0,2,1,1,21,0002-00-0000-36.png,0001-00-0003-93.png
00000014,747,0,1440599007561,1440599008053,351,410,0,0,0,4,3,1,43,0004-00-0009-40.png,0003-00-0000-55.png
00000014,748,0,1440599011459,1440599011884,364,396,0,0,0,5,4,1,54,0005-00-0001-87.png,0004-00-0004-86.png
00000014,749,0,1440599015116,1440599015682,929,415,0,0,0,1,2,1,12,0001-00-0007-53.png,0002-00-0001-41.png
00000014,750,1,1440599018823,1440599019304,899,403,0,0,0,3,2,1,32,0003-00-0007-01.png,0002-00-0008-66.png
00000014,751,1,1440599021451,1440599021965,399,417,0,0,0,4,5,1,45,0004-00-0007-41.png,0005-00-0008-91.png
00000014,752,1,1440599023487,1440599024391,359,396,0,0,0,3,4,1,34,0003-00-0007-96.png,0004-00-0005-82.png
00000014,753,1,1440599026112,1440599026599,324,416,0,0,0,3,4,1,34,0003-00-0008-31.png,0004-00-0004-74.png
00000014,754,0,1440599028921,1440599029455,335,397,0,0,0,5,4,1,54,0005-00-0004-13.png,0004-00-0004-34.png
00000014,755,0,1440599032409,1440599032433,504,410,0,0,0,4,3,1,43,0004-00-0006-74.png,0003-00-0008-20.png
00000014,756,0,1440599035541,1440599035549,504,421,0,0,0,3,2,1,32,0003-00-0005-68.png,0002-00-0003-12.png
00000014,757,0,1440599038424,1440599038931,354,388,0,0,0,2,1,1,21,0002-00-0002-19.png,0001-00-0006-20.png
00000014,758,1,1440599041832,1440599041880,453,555,0,0,0,4,5,1,45,0004-00-0001-57.png,0005-00-0007-76.png
00000014,759,1,1440599044089,1440599044582,363,410,0,0,0,2,3,1,23,0002-00-0009-36.png,0003-00-0003-75.png
00000014,760,1,1440599045820,1440599046292,376,384,0,0,0,1,2,1,12,0001-00-0003-35.png,0002-00-0002-36.png
00000014,761,1,1440599047390,1440599047958,344,447,0,0,0,1,2,1,12,0001-00-0006-51.png,0002-00-0008-23.png
00000014,762,0,1440599049795,1440599050350,346,369,0,0,0,2,1,1,21,0002-00-0000-26.png,0001-00-0006-27.png
00000014,763,0,1440599053471,1440599053486,504,501,0,0,0,5,4,1,54,0005-00-0009-35.png,0004-00-0007-30.png
00000014,764,1,1440599057122,1440599057663,339,420,0,0,0,3,4,1,34,0003-00-0003-78.png,0004-00-0004-51.png
00000014,765,1,1440599058711,1440599059260,888,449,0,0,0,3,2,1,32,0003-00-0002-99.png,0002-00-0004-83.png
00000014,766,0,1440599060353,1440599060861,873,483,0,0,0,2,3,1,23,0002-00-0002-83.png,0003-00-0000-90.png
00000014,767,1,1440599064224,1440599064723,885,411,0,0,0,4,3,1,43,0004-00-0005-39.png,0003-00-0009-23.png
00000014,768,1,1440599066003,1440599066954,358,445,0,0,0,4,5,1,45,0004-00-0002-73.png,0005-00-0008-37.png
00000014,769,0,1440599068065,1440599068618,857,514,0,0,0,1,2,1,12,0001-00-0000-59.png,0002-00-0006-94.png
00000014,770,1,1440599071535,1440599072069,365,403,0,0,0,4,5,1,45,0004-00-0001-48.png,0005-00-0004-47.png
00000014,771,1,1440599073090,1440599073666,926,417,0,0,0,2,1,1,21,0002-00-0002-52.png,0001-00-0006-96.png
00000014,772,1,1440599074623,1440599075106,392,444,0,0,0,3,4,1,34,0003-00-0005-61.png,0004-00-0002-21.png
00000014,773,0,1440599076154,1440599077167,360,464,0,0,0,3,2,1,32,0003-00-0007-37.png,0002-00-0006-62.png
00000014,774,0,1440599080513,1440599080987,372,415,0,0,0,4,3,1,43,0004-00-0004-34.png,0003-00-0004-64.png
00000014,775,1,1440599085020,1440599085542,301,396,0,0,0,2,3,1,23,0002-00-0002-05.png,0003-00-0002-38.png
00000014,776,0,1440599086885,1440599087452,325,434,0,0,0,5,4,1,54,0005-00-0000-96.png,0004-00-0007-73.png
00000014,777,0,1440599090294,1440599090336,442,481,0,0,0,5,4,1,54,0005-00-0002-69.png,0004-00-0001-43.png
00000014,778,1,1440599093614,1440599094091,320,394,0,0,0,4,5,1,45,0004-00-0005-37.png,0005-00-0007-31.png
00000014,779,1,1440599095702,1440599096278,343,384,0,0,0,2,3,1,23,0002-00-0000-99.png,0003-00-0009-23.png
00000014,780,1,1440599097464,1440599097991,896,419,0,0,0,4,3,1,43,0004-00-0007-90.png,0003-00-0008-02.png
00000014,781,0,1440599099034,1440599099534,857,371,0,0,0,1,2,1,12,0001-00-0002-01.png,0002-00-0003-61.png
00000014,782,1,1440599102569,1440599103119,923,429,0,0,0,3,2,1,32,0003-00-0006-79.png,0002-00-0004-25.png
00000014,783,1,1440599104162,1440599104652,887,423,0,0,0,2,1,1,21,0002-00-0000-02.png,0001-00-0009-03.png
00000014,784,1,1440599105714,1440599106201,397,511,0,0,0,3,4,1,34,0003-00-0008-75.png,0004-00-0009-15.png
00000014,785,1,1440599107628,1440599108082,350,397,0,0,0,4,5,1,45,0004-00-0007-77.png,0005-00-0005-00.png
00000014,786,0,1440599109070,1440599109574,394,506,0,0,0,4,3,1,43,0004-00-0007-41.png,0003-00-0000-86.png
00000014,787,1,1440599113025,1440599113490,880,401,0,0,0,5,4,1,54,0005-00-0008-00.png,0004-00-0001-61.png
00000014,788,1,1440599115420,1440599115879,335,387,0,0,0,2,3,1,23,0002-00-0001-28.png,0003-00-0008-55.png
00000014,789,0,1440599117031,1440599117556,880,401,0,0,0,1,2,1,12,0001-00-0006-02.png,0002-00-0004-49.png
00000014,790,1,1440599120798,1440599121888,948,419,0,0,0,3,2,1,32,0003-00-0007-20.png,0002-00-0004-14.png
00000014,791,1,1440599122930,1440599123437,900,397,0,0,0,2,1,1,21,0002-00-0004-44.png,0001-00-0006-80.png
00000014,792,1,1440599124353,1440599124812,376,410,0,0,0,3,4,1,34,0003-00-0004-11.png,0004-00-0003-63.png
00000014,793,0,1440599125825,1440599126425,404,384,0,0,0,3,2,1,32,0003-00-0005-60.png,0002-00-0007-22.png
00000014,794,1,1440599129632,1440599129648,478,488,0,0,0,2,3,1,23,0002-00-0003-37.png,0003-00-0003-09.png
00000014,795,0,1440599131657,1440599132242,352,372,0,0,0,2,1,1,21,0002-00-0004-06.png,0001-00-0000-42.png
00000014,796,1,1440599135462,1440599135490,478,488,0,0,0,3,4,1,34,0003-00-0002-37.png,0004-00-0001-28.png
00000014,797,0,1440599136626,1440599137120,356,426,0,0,0,5,4,1,54,0005-00-0005-26.png,0004-00-0005-77.png
00000014,798,1,1440599140162,1440599140647,357,427,0,0,0,1,2,1,12,0001-00-0001-30.png,0002-00-0003-16.png
00000014,799,0,1440599141684,1440599142575,437,416,0,0,0,4,3,1,43,0004-00-0004-76.png,0003-00-0000-64.png
00000014,800,1,1440599145650,1440599145729,510,533,0,0,0,4,5,1,45,0004-00-0008-95.png,0005-00-0005-97.png
00000014,801,1,1440599147380,1440599148277,401,410,0,0,0,2,3,1,23,0002-00-0009-44.png,0003-00-0001-76.png
00000014,802,0,1440599149408,1440599150374,358,391,0,0,0,3,2,1,32,0003-00-0001-27.png,0002-00-0006-88.png
00000014,803,0,1440599153389,1440599153421,513,462,0,0,0,4,3,1,43,0004-00-0002-77.png,0003-00-0004-48.png
00000014,804,1,1440599156852,1440599157288,376,398,0,0,0,1,2,1,12,0001-00-0004-23.png,0002-00-0004-73.png
00000014,805,1,1440599158383,1440599158874,318,435,0,0,0,4,5,1,45,0004-00-0003-76.png,0005-00-0006-78.png
00000014,806,0,1440599159994,1440599160488,896,393,0,0,0,3,4,1,34,0003-00-0004-07.png,0004-00-0005-01.png
00000014,807,0,1440599163729,1440599164190,376,402,0,0,0,2,1,1,21,0002-00-0006-48.png,0001-00-0008-03.png
00000014,808,1,1440599167287,1440599167860,923,406,0,0,0,5,4,1,54,0005-00-0000-16.png,0004-00-0005-72.png
00000014,809,1,1440599168806,1440599169293,337,442,0,0,0,2,3,1,23,0002-00-0009-09.png,0003-00-0009-66.png
00000014,810,1,1440599170250,1440599170794,866,425,0,0,0,3,2,1,32,0003-00-0002-77.png,0002-00-0009-17.png
00000014,811,0,1440599171788,1440599172665,320,421,0,0,0,5,4,1,54,0005-00-0003-21.png,0004-00-0005-00.png
00000014,812,1,1440599177175,1440599177627,315,408,0,0,0,1,2,1,12,0001-00-0000-58.png,0002-00-0003-63.png
00000014,813,1,1440599179002,1440599179477,364,410,0,0,0,4,5,1,45,0004-00-0004-90.png,0005-00-0003-51.png
00000014,814,0,1440599180512,1440599181031,875,422,0,0,0,3,4,1,34,0003-00-0009-41.png,0004-00-0007-28.png
00000014,815,0,1440599184183,1440599184681,388,446,0,0,0,4,3,1,43,0004-00-0004-35.png,0003-00-0007-35.png
00000014,816,1,1440599187550,1440599188067,931,400,0,0,0,2,1,1,21,0002-00-0006-74.png,0001-00-0003-19.png
00000014,817,1,1440599189310,1440599190371,905,490,0,0,0,4,3,1,43,0004-00-0008-17.png,0003-00-0003-77.png
00000014,818,0,1440599191421,1440599191882,401,528,0,0,0,3,2,1,32,0003-00-0003-77.png,0002-00-0006-66.png
00000014,819,1,1440599195182,1440599195624,337,408,0,0,0,3,4,1,34,0003-00-0009-73.png,0004-00-0000-28.png
00000014,820,1,1440599197083,1440599197675,880,401,0,0,0,5,4,1,54,0005-00-0001-02.png,0004-00-0006-87.png
00000014,821,1,1440599199278,1440599199842,879,446,0,0,0,2,1,1,21,0002-00-0005-07.png,0001-00-0003-15.png
00000014,822,1,1440599200870,1440599200918,510,496,0,0,0,4,5,1,45,0004-00-0006-59.png,0005-00-0008-85.png
00000014,823,1,1440599202243,1440599202764,397,401,0,0,0,1,2,1,12,0001-00-0005-74.png,0002-00-0003-19.png
00000014,824,0,1440599203863,1440599204471,907,388,0,0,0,2,3,1,23,0002-00-0001-01.png,0003-00-0005-00.png
00000014,825,1,1440599207318,1440599207358,478,514,0,0,0,2,3,1,23,0002-00-0003-59.png,0003-00-0004-72.png
00000014,826,1,1440599209217,1440599209715,399,431,0,0,0,3,4,1,34,0003-00-0003-72.png,0004-00-0000-35.png
00000014,827,0,1440599210782,1440599211813,369,452,0,0,0,4,3,1,43,0004-00-0001-62.png,0003-00-0009-17.png
00000014,828,0,1440599215046,1440599215618,916,427,0,0,0,4,5,1,45,0004-00-0003-83.png,0005-00-0004-71.png
00000014,829,0,1440599218611,1440599218651,486,522,0,0,0,3,2,1,32,0003-00-0005-11.png,0002-00-0003-99.png
00000014,830,0,1440599221522,1440599221558,498,479,0,0,0,5,4,1,54,0005-00-0006-12.png,0004-00-0002-54.png
00000014,831,1,1440599225113,1440599225647,338,397,0,0,0,1,2,1,12,0001-00-0002-67.png,0002-00-0009-36.png
00000014,832,1,1440599226862,1440599227360,888,423,0,0,0,2,1,1,21,0002-00-0005-37.png,0001-00-0004-87.png
00000014,833,1,1440599228393,1440599228890,359,411,0,0,0,3,4,1,34,0003-00-0004-23.png,0004-00-0007-70.png
00000014,834,0,1440599230267,1440599230311,485,498,0,0,0,3,2,1,32,0003-00-0002-77.png,0002-00-0004-25.png
00000014,835,1,1440599236045,1440599236619,880,418,0,0,0,5,4,1,54,0005-00-0004-68.png,0004-00-0007-69.png
00000014,836,1,1440599237668,1440599238230,882,442,0,0,0,4,3,1,43,0004-00-0006-77.png,0003-00-0002-96.png
00000014,837,1,1440599240040,1440599240511,325,422,0,0,0,1,2,1,12,0001-00-0002-14.png,0002-00-0001-90.png
00000014,838,0,1440599241449,1440599242141,376,410,0,0,0,2,1,1,21,0002-00-0002-70.png,0001-00-0003-36.png
00000014,839,1,1440599246201,1440599246641,394,436,0,0,0,2,3,1,23,0002-00-0002-63.png,0003-00-0009-62.png
00000014,840,0,1440599247622,1440599248201,877,415,0,0,0,4,5,1,45,0004-00-0009-95.png,0005-00-0007-01.png
00000014,841,0,1440599251210,1440599251230,427,451,0,0,0,5,4,1,54,0005-00-0007-69.png,0004-00-0005-62.png
00000014,842,1,1440599254858,1440599255351,888,514,0,0,0,2,1,1,21,0002-00-0003-81.png,0001-00-0004-09.png
00000014,843,1,1440599256278,1440599257249,901,548,0,0,0,4,3,1,43,0004-00-0005-84.png,0003-00-0007-75.png
00000014,844,1,1440599258416,1440599258926,322,421,0,0,0,3,4,1,34,0003-00-0000-61.png,0004-00-0003-19.png
00000014,845,1,1440599259903,1440599259951,453,488,0,0,0,2,3,1,23,0002-00-0005-11.png,0003-00-0006-39.png
00000014,846,0,1440599261000,1440599261872,862,513,0,0,0,4,5,1,45,0004-00-0000-51.png,0005-00-0009-99.png
00000014,847,0,1440599265192,1440599265676,876,548,0,0,0,1,2,1,12,0001-00-0006-07.png,0002-00-0005-26.png
00000014,848,1,1440599269100,1440599269712,894,475,0,0,0,3,2,1,32,0003-00-0002-86.png,0002-00-0005-69.png
00000014,849,1,1440599271173,1440599271695,875,501,0,0,0,2,1,1,21,0002-00-0009-24.png,0001-00-0005-76.png
00000014,850,0,1440599272797,1440599273328,339,437,0,0,0,4,3,1,43,0004-00-0002-19.png,0003-00-0008-57.png
00000014,851,1,1440599276255,1440599276271,459,438,0,0,0,2,3,1,23,0002-00-0008-44.png,0003-00-0000-49.png
00000014,852,0,1440599277136,1440599277615,903,417,0,0,0,1,2,1,12,0001-00-0005-32.png,0002-00-0004-69.png
00000014,853,1,1440599284513,1440599285126,918,495,0,0,0,3,2,1,32,0003-00-0003-84.png,0002-00-0006-25.png
00000014,854,1,1440599286137,1440599286656,909,401,0,0,0,5,4,1,54,0005-00-0002-90.png,0004-00-0008-51.png
00000014,855,1,1440599288521,1440599289036,368,418,0,0,0,4,5,1,45,0004-00-0008-79.png,0005-00-0001-20.png
00000014,856,0,1440599290212,1440599290739,871,511,0,0,0,3,4,1,34,0003-00-0003-82.png,0004-00-0001-87.png
00000014,857,0,1440599296057,1440599296543,376,384,0,0,0,4,3,1,43,0004-00-0005-10.png,0003-00-0006-18.png
00000014,858,1,1440599300000,1440599300436,401,410,0,0,0,1,2,1,12,0001-00-0005-12.png,0002-00-0000-85.png
00000014,859,0,1440599301505,1440599301991,879,401,0,0,0,4,5,1,45,0004-00-0003-81.png,0005-00-0005-87.png
00000014,860,0,1440599305180,1440599305742,336,397,0,0,0,5,4,1,54,0005-00-0007-13.png,0004-00-0001-33.png
00000014,861,1,1440599308918,1440599309416,376,488,0,0,0,2,3,1,23,0002-00-0007-64.png,0003-00-0007-97.png
00000014,862,1,1440599311062,1440599311505,372,525,0,0,0,3,4,1,34,0003-00-0004-45.png,0004-00-0007-79.png
00000014,863,0,1440599312694,1440599313229,400,436,0,0,0,2,1,1,21,0002-00-0003-66.png,0001-00-0000-12.png
00000014,864,0,1440599316292,1440599316892,343,376,0,0,0,3,2,1,32,0003-00-0001-23.png,0002-00-0008-31.png
00000014,865,1,1440599321102,1440599321604,329,412,0,0,0,2,3,1,23,0002-00-0007-05.png,0003-00-0009-53.png
00000014,866,0,1440599323169,1440599323751,880,427,0,0,0,1,2,1,12,0001-00-0009-66.png,0002-00-0007-25.png
00000014,867,1,1440599326823,1440599327349,358,419,0,0,0,4,5,1,45,0004-00-0006-05.png,0005-00-0003-56.png
00000014,868,0,1440599330724,1440599331222,389,493,0,0,0,2,1,1,21,0002-00-0005-98.png,0001-00-0006-12.png
00000014,869,0,1440599334779,1440599335292,407,498,0,0,0,5,4,1,54,0005-00-0007-03.png,0004-00-0008-49.png
00000014,870,0,1440599338605,1440599339119,317,392,0,0,0,4,3,1,43,0004-00-0004-86.png,0003-00-0009-38.png
00000014,871,1,1440599342041,1440599342514,901,410,0,0,0,3,2,1,32,0003-00-0004-95.png,0002-00-0006-35.png
00000014,872,1,1440599344398,1440599344971,325,410,0,0,0,3,4,1,34,0003-00-0008-55.png,0004-00-0003-59.png
00000014,873,0,1440599346796,1440599347470,376,475,0,0,0,4,3,1,43,0004-00-0001-66.png,0003-00-0004-45.png
00000014,874,0,1440599350307,1440599350927,875,422,0,0,0,2,3,1,23,0002-00-0001-43.png,0003-00-0006-77.png
00000014,875,0,1440599353958,1440599354506,330,395,0,0,0,5,4,1,54,0005-00-0006-25.png,0004-00-0004-06.png
00000014,876,1,1440599358034,1440599358588,872,410,0,0,0,2,1,1,21,0002-00-0007-72.png,0001-00-0003-99.png
00000014,877,1,1440599360746,1440599361301,325,449,0,0,0,3,4,1,34,0003-00-0001-45.png,0004-00-0009-10.png
00000014,878,1,1440599362795,1440599363663,363,422,0,0,0,4,5,1,45,0004-00-0008-29.png,0005-00-0007-29.png
00000014,879,1,1440599365378,1440599366017,894,414,0,0,0,3,2,1,32,0003-00-0007-95.png,0002-00-0004-45.png
00000014,880,1,1440599367476,1440599367959,350,411,0,0,0,1,2,1,12,0001-00-0008-25.png,0002-00-0001-47.png
00000014,881,1,1440599369196,1440599369775,879,374,0,0,0,2,1,1,21,0002-00-0001-54.png,0001-00-0006-43.png
00000014,882,1,1440599370982,1440599371421,409,513,0,0,0,4,5,1,45,0004-00-0004-69.png,0005-00-0009-24.png
00000014,883,0,1440599372444,1440599373313,354,419,0,0,0,5,4,1,54,0005-00-0001-26.png,0004-00-0006-14.png
00000014,884,1,1440599376848,1440599377472,900,462,0,0,0,3,2,1,32,0003-00-0001-91.png,0002-00-0008-53.png
00000014,885,0,1440599379797,1440599380275,874,422,0,0,0,3,4,1,34,0003-00-0002-99.png,0004-00-0002-06.png
00000014,886,1,1440599384153,1440599384719,334,414,0,0,0,2,3,1,23,0002-00-0008-98.png,0003-00-0000-10.png
00000014,887,1,1440599386022,1440599386544,370,420,0,0,0,1,2,1,12,0001-00-0005-04.png,0002-00-0003-64.png
00000014,888,0,1440599387641,1440599388217,368,443,0,0,0,4,3,1,43,0004-00-0005-65.png,0003-00-0002-81.png
00000014,889,0,1440599391916,1440599392956,343,416,0,0,0,4,3,1,43,0004-00-0001-47.png,0003-00-0000-30.png
00000014,890,1,1440599396018,1440599396599,926,462,0,0,0,2,1,1,21,0002-00-0000-76.png,0001-00-0002-30.png
00000014,891,1,1440599397521,1440599398018,877,414,0,0,0,5,4,1,54,0005-00-0008-85.png,0004-00-0007-57.png
00000014,892,0,1440599398890,1440599399418,383,408,0,0,0,3,2,1,32,0003-00-0006-59.png,0002-00-0007-37.png
00000014,893,0,1440599405033,1440599405683,926,397,0,0,0,2,3,1,23,0002-00-0001-29.png,0003-00-0008-70.png
00000014,894,1,1440599409275,1440599409692,323,367,0,0,0,3,4,1,34,0003-00-0004-25.png,0004-00-0005-57.png
00000014,895,1,1440599411621,1440599412091,382,401,0,0,0,1,2,1,12,0001-00-0002-17.png,0002-00-0003-74.png
00000014,896,1,1440599413211,1440599413697,330,409,0,0,0,4,5,1,45,0004-00-0007-29.png,0005-00-0007-97.png
00000014,897,0,1440599415351,1440599415892,349,412,0,0,0,4,3,1,43,0004-00-0002-64.png,0003-00-0002-10.png
00000014,898,1,1440599419443,1440599419495,504,448,0,0,0,1,2,1,12,0001-00-0002-79.png,0002-00-0000-37.png
00000014,899,0,1440599420549,1440599420989,363,384,0,0,0,3,2,1,32,0003-00-0005-26.png,0002-00-0008-71.png
00000014,900,0,1440599424354,1440599424947,950,386,0,0,0,3,4,1,34,0003-00-0004-04.png,0004-00-0007-31.png
00000014,901,0,1440599428100,1440599428613,388,450,0,0,0,5,4,1,54,0005-00-0005-78.png,0004-00-0004-88.png
00000014,902,1,1440599431758,1440599431782,504,468,0,0,0,4,5,1,45,0004-00-0002-44.png,0005-00-0008-13.png
00000014,903,1,1440599433996,1440599434508,921,418,0,0,0,2,1,1,21,0002-00-0002-75.png,0001-00-0002-05.png
00000014,904,1,1440599436333,1440599436848,359,423,0,0,0,2,3,1,23,0002-00-0002-94.png,0003-00-0001-51.png
00000014,905,1,1440599440018,1440599440530,881,446,0,0,0,4,3,1,43,0004-00-0005-88.png,0003-00-0005-09.png
00000014,906,1,1440599441559,1440599442067,332,393,0,0,0,3,4,1,34,0003-00-0005-10.png,0004-00-0004-96.png
00000014,907,1,1440599443139,1440599443647,363,436,0,0,0,1,2,1,12,0001-00-0000-17.png,0002-00-0000-39.png
00000014,908,0,1440599444626,1440599445649,368,427,0,0,0,5,4,1,54,0005-00-0000-46.png,0004-00-0003-02.png
00000014,909,1,1440599449320,1440599449803,386,384,0,0,0,4,5,1,45,0004-00-0005-06.png,0005-00-0003-63.png
00000014,910,1,1440599451824,1440599452886,888,475,0,0,0,3,2,1,32,0003-00-0000-50.png,0002-00-0000-35.png
00000014,911,0,1440599454955,1440599455557,875,397,0,0,0,2,3,1,23,0002-00-0005-57.png,0003-00-0004-57.png
00000014,912,0,1440599458789,1440599459274,403,490,0,0,0,2,1,1,21,0002-00-0006-48.png,0001-00-0006-06.png
00000014,913,1,1440599462430,1440599462900,902,414,0,0,0,5,4,1,54,0005-00-0004-10.png,0004-00-0008-05.png
00000014,914,1,1440599463891,1440599464409,350,396,0,0,0,3,4,1,34,0003-00-0002-49.png,0004-00-0001-13.png
00000014,915,1,1440599465411,1440599465973,888,423,0,0,0,3,2,1,32,0003-00-0003-37.png,0002-00-0002-51.png
00000014,916,0,1440599466938,1440599467485,879,427,0,0,0,2,3,1,23,0002-00-0009-55.png,0003-00-0006-01.png
00000014,917,1,1440599470433,1440599470942,385,418,0,0,0,1,2,1,12,0001-00-0009-85.png,0002-00-0001-86.png
00000014,918,1,1440599471818,1440599472360,324,422,0,0,0,4,5,1,45,0004-00-0008-10.png,0005-00-0003-09.png
00000014,919,1,1440599473372,1440599473936,901,409,0,0,0,2,1,1,21,0002-00-0006-22.png,0001-00-0005-97.png
00000014,920,1,1440599474839,1440599475530,883,400,0,0,0,4,3,1,43,0004-00-0001-36.png,0003-00-0005-94.png
00000014,921,0,1440599476407,1440599477004,885,393,0,0,0,3,4,1,34,0003-00-0002-42.png,0004-00-0003-27.png
00000014,922,1,1440599480193,1440599480762,343,402,0,0,0,1,2,1,12,0001-00-0006-39.png,0002-00-0003-16.png
00000014,923,1,1440599482653,1440599483714,928,414,0,0,0,5,4,1,54,0005-00-0000-78.png,0004-00-0009-69.png
00000014,924,0,1440599484988,1440599485874,369,401,0,0,0,2,1,1,21,0002-00-0007-78.png,0001-00-0005-19.png
00000014,925,0,1440599489120,1440599489681,873,491,0,0,0,4,5,1,45,0004-00-0006-91.png,0005-00-0008-06.png
00000014,926,0,1440599492848,1440599493354,350,384,0,0,0,4,3,1,43,0004-00-0009-20.png,0003-00-0007-30.png
00000014,927,1,1440599496415,1440599496443,485,469,0,0,0,2,3,1,23,0002-00-0003-96.png,0003-00-0001-51.png
00000014,928,1,1440599498315,1440599498835,875,396,0,0,0,3,2,1,32,0003-00-0009-87.png,0002-00-0009-92.png
00000014,929,1,1440599500075,1440599500536,398,530,0,0,0,4,5,1,45,0004-00-0000-27.png,0005-00-0003-24.png
00000014,930,0,1440599501515,1440599502066,872,379,0,0,0,2,3,1,23,0002-00-0009-50.png,0003-00-0002-75.png
00000014,931,0,1440599505020,1440599505600,376,384,0,0,0,3,2,1,32,0003-00-0006-57.png,0002-00-0002-92.png
00000014,932,0,1440599508807,1440599509363,900,507,0,0,0,3,4,1,34,0003-00-0002-07.png,0004-00-0006-36.png
00000014,933,0,1440599512793,1440599513240,868,529,0,0,0,1,2,1,12,0001-00-0008-88.png,0002-00-0001-17.png
00000014,934,1,1440599518370,1440599519004,949,410,0,0,0,4,3,1,43,0004-00-0000-88.png,0003-00-0009-91.png
00000014,935,0,1440599523369,1440599524050,350,358,0,0,0,2,1,1,21,0002-00-0009-81.png,0001-00-0002-57.png
00000014,936,0,1440599527876,1440599528440,372,381,0,0,0,5,4,1,54,0005-00-0007-78.png,0004-00-0004-03.png
00000014,937,1,1440599531565,1440599532116,887,502,0,0,0,2,1,1,21,0002-00-0004-16.png,0001-00-0006-11.png
00000014,938,1,1440599533293,1440599533802,352,390,0,0,0,3,4,1,34,0003-00-0000-17.png,0004-00-0009-26.png
00000014,939,0,1440599535051,1440599535569,303,409,0,0,0,3,2,1,32,0003-00-0004-83.png,0002-00-0001-22.png
00000014,940,1,1440599538544,1440599538991,354,373,0,0,0,4,5,1,45,0004-00-0003-72.png,0005-00-0006-17.png
00000014,941,1,1440599540543,1440599541067,911,424,0,0,0,4,3,1,43,0004-00-0005-36.png,0003-00-0003-77.png
00000014,942,0,1440599542134,1440599542683,884,432,0,0,0,2,3,1,23,0002-00-0007-13.png,0003-00-0006-39.png
