subject_id,trial,correct_response,stim_time,response_time,x_coord,y_coord,trial_timeout,timeout_time,interTrial_timeout,left_rank,right_rank,distance,joint_rank,left_image,right_image
00000009,1,1,1440429777424,1440429777462,888,242,0,0,0,4,3,1,43,0004-00-0001-56.png,0003-00-0009-37.png
00000009,2,1,1440429779988,1440429780032,913,244,0,0,0,3,2,1,32,0003-00-0008-63.png,0002-00-0004-17.png
00000009,3,0,1440429781955,1440429782371,1010,365,0,0,0,1,2,1,12,0001-00-0004-04.png,0002-00-0005-32.png
00000009,4,1,1440429785781,1440429786678,1041,317,0,0,0,2,1,1,21,0002-00-0001-89.png,0001-00-0005-55.png
00000009,5,0,1440429787749,1440429788685,965,345,0,0,0,4,5,1,45,0004-00-0002-25.png,0005-00-0000-48.png
00000009,6,1,1440429792114,1440429792712,967,402,0,0,0,5,4,1,54,0005-00-0004-62.png,0004-00-0002-80.png
00000009,7,0,1440429793701,1440429793979,881,472,0,0,0,3,4,1,34,0003-00-0001-61.png,0004-00-0002-67.png
00000009,8,0,1440429797192,1440429797769,947,357,0,0,0,2,3,1,23,0002-00-0008-95.png,0003-00-0006-64.png
00000009,9,0,1440429800669,1440429801351,1069,299,0,0,0,2,3,1,23,0002-00-0006-86.png,0003-00-0000-99.png
00000009,10,1,1440429804626,1440429805152,962,342,0,0,0,4,3,1,43,0004-00-0009-87.png,0003-00-0001-32.png
00000009,11,0,1440429806155,1440429806271,888,462,0,0,0,1,2,1,12,0001-00-0005-85.png,0002-00-0007-57.png
00000009,12,1,1440429809473,1440429810068,936,351,0,0,0,3,2,1,32,0003-00-0009-24.png,0002-00-0003-10.png
00000009,13,0,1440429811062,1440429811122,913,400,0,0,0,4,5,1,45,0004-00-0005-20.png,0005-00-0003-28.png
00000009,14,0,1440429814294,1440429814893,943,412,0,0,0,3,4,1,34,0003-00-0003-10.png,0004-00-0008-96.png
00000009,15,1,1440429818259,1440429818797,1067,322,0,0,0,2,1,1,21,0002-00-0006-36.png,0001-00-0003-82.png
00000009,16,1,1440429819740,1440429820590,943,378,0,0,0,5,4,1,54,0005-00-0000-50.png,0004-00-0005-58.png
00000009,17,0,1440429821525,1440429821687,887,458,0,0,0,4,5,1,45,0004-00-0001-04.png,0005-00-0003-67.png
00000009,18,0,1440429824917,1440429825483,1071,286,0,0,0,1,2,1,12,0001-00-0008-64.png,0002-00-0004-60.png
00000009,19,1,1440429829607,1440429830183,990,296,0,0,0,2,1,1,21,0002-00-0002-13.png,0001-00-0007-13.png
00000009,20,1,1440429831545,1440429832031,975,552,0,0,0,5,4,1,54,0005-00-0007-21.png,0004-00-0007-36.png
00000009,21,0,1440429833087,1440429833928,917,341,0,0,0,3,4,1,34,0003-00-0009-26.png,0004-00-0008-57.png
00000009,22,1,1440429836771,1440429837362,926,311,0,0,0,3,2,1,32,0003-00-0006-90.png,0002-00-0004-11.png
00000009,23,1,1440429839108,1440429839722,937,358,0,0,0,4,3,1,43,0004-00-0004-07.png,0003-00-0009-62.png
00000009,24,0,1440429841580,1440429842100,939,384,0,0,0,2,3,1,23,0002-00-0002-72.png,0003-00-0003-11.png
00000009,25,0,1440429845617,1440429846229,964,296,0,0,0,1,2,1,12,0001-00-0001-42.png,0002-00-0006-94.png
00000009,26,0,1440429849184,1440429849202,495,313,0,0,0,4,3,1,43,0004-00-0008-71.png,0003-00-0002-38.png
00000009,27,0,1440429852384,1440429852986,913,328,0,0,0,2,3,1,23,0002-00-0000-15.png,0003-00-0001-78.png
00000009,28,1,1440429855980,1440429856895,963,306,0,0,0,5,4,1,54,0005-00-0004-64.png,0004-00-0006-63.png
00000009,29,0,1440429857808,1440429858447,969,514,0,0,0,4,5,1,45,0004-00-0001-53.png,0005-00-0008-75.png
00000009,30,1,1440429861966,1440429862478,914,384,0,0,0,2,1,1,21,0002-00-0005-79.png,0001-00-0008-34.png
00000009,31,0,1440429863383,1440429864395,988,345,0,0,0,3,4,1,34,0003-00-0002-41.png,0004-00-0004-38.png
00000009,32,1,1440429867599,1440429868134,942,325,0,0,0,3,2,1,32,0003-00-0006-60.png,0002-00-0002-21.png
00000009,33,0,1440429869905,1440429870425,1095,286,0,0,0,1,2,1,12,0001-00-0007-77.png,0002-00-0001-94.png
00000009,34,0,1440429873640,1440429873784,888,384,0,0,0,4,5,1,45,0004-00-0005-84.png,0005-00-0003-43.png
00000009,35,1,1440429876750,1440429877413,954,309,0,0,0,4,3,1,43,0004-00-0005-01.png,0003-00-0003-11.png
00000009,36,1,1440429878310,1440429879312,917,357,0,0,0,5,4,1,54,0005-00-0004-75.png,0004-00-0009-28.png
00000009,37,1,1440429880281,1440429880542,862,447,0,0,0,2,1,1,21,0002-00-0003-81.png,0001-00-0004-58.png
00000009,38,1,1440429882118,1440429882622,883,492,0,0,0,3,2,1,32,0003-00-0003-11.png,0002-00-0004-95.png
00000009,39,0,1440429883567,1440429884684,1019,276,0,0,0,2,3,1,23,0002-00-0003-86.png,0003-00-0001-82.png
00000009,40,0,1440429887574,1440429887630,860,469,0,0,0,3,4,1,34,0003-00-0007-68.png,0004-00-0002-52.png
00000009,41,1,1440429890792,1440429891576,292,419,0,0,0,3,4,1,34,0003-00-0007-18.png,0004-00-0008-46.png
00000009,42,1,1440429893366,1440429893493,888,340,0,0,0,3,2,1,32,0003-00-0005-80.png,0002-00-0007-28.png
00000009,43,0,1440429894456,1440429894606,862,436,0,0,0,1,2,1,12,0001-00-0004-34.png,0002-00-0002-97.png
00000009,44,1,1440429897730,1440429898197,1068,283,0,0,0,4,3,1,43,0004-00-0009-36.png,0003-00-0000-92.png
00000009,45,0,1440429899706,1440429900052,888,368,0,0,0,4,5,1,45,0004-00-0004-43.png,0005-00-0003-39.png
00000009,46,1,1440429903135,1440429903635,937,306,0,0,0,2,1,1,21,0002-00-0005-39.png,0001-00-0009-81.png
00000009,47,0,1440429905222,1440429905306,862,358,0,0,0,2,3,1,23,0002-00-0004-96.png,0003-00-0000-81.png
00000009,48,1,1440429908321,1440429908858,954,323,0,0,0,5,4,1,54,0005-00-0008-57.png,0004-00-0004-95.png
00000009,49,1,1440429910171,1440429911265,907,364,0,0,0,4,3,1,43,0004-00-0004-30.png,0003-00-0005-75.png
00000009,50,1,1440429912095,1440429912175,883,441,0,0,0,5,4,1,54,0005-00-0000-91.png,0004-00-0002-97.png
00000009,51,0,1440429913735,1440429914569,895,330,0,0,0,4,5,1,45,0004-00-0002-55.png,0005-00-0008-28.png
00000009,52,1,1440429917752,1440429918309,925,337,0,0,0,2,1,1,21,0002-00-0008-86.png,0001-00-0000-88.png
00000009,53,0,1440429919721,1440429919831,862,397,0,0,0,2,3,1,23,0002-00-0003-75.png,0003-00-0006-70.png
00000009,54,0,1440429922892,1440429923420,948,331,0,0,0,1,2,1,12,0001-00-0008-09.png,0002-00-0006-96.png
00000009,55,0,1440429926489,1440429927002,942,280,0,0,0,3,4,1,34,0003-00-0006-27.png,0004-00-0006-74.png
00000009,56,1,1440429930173,1440429930712,1092,306,0,0,0,3,2,1,32,0003-00-0000-83.png,0002-00-0001-17.png
00000009,57,1,1440429932610,1440429933270,911,350,0,0,0,4,3,1,43,0004-00-0007-94.png,0003-00-0002-25.png
00000009,58,0,1440429934446,1440429934542,888,410,0,0,0,4,5,1,45,0004-00-0003-23.png,0005-00-0001-71.png
00000009,59,0,1440429937760,1440429937879,883,400,0,0,0,1,2,1,12,0001-00-0008-26.png,0002-00-0002-05.png
00000009,60,1,1440429941055,1440429941615,937,299,0,0,0,5,4,1,54,0005-00-0003-32.png,0004-00-0007-14.png
00000009,61,1,1440429943460,1440429944367,411,250,0,0,0,2,3,1,23,0002-00-0001-33.png,0003-00-0005-91.png
00000009,62,1,1440429946275,1440429946818,1051,248,0,0,0,2,1,1,21,0002-00-0005-36.png,0001-00-0003-73.png
00000009,63,1,1440429948340,1440429948775,909,466,0,0,0,3,2,1,32,0003-00-0003-28.png,0002-00-0004-12.png
00000009,64,0,1440429949701,1440429951449,977,355,0,0,0,3,4,1,34,0003-00-0007-57.png,0004-00-0000-28.png
00000009,65,1,1440429954353,1440429954828,974,279,0,0,0,5,4,1,54,0005-00-0004-59.png,0004-00-0007-29.png
00000009,66,0,1440429956130,1440429956613,939,462,0,0,0,2,3,1,23,0002-00-0000-03.png,0003-00-0005-32.png
00000009,67,0,1440429959775,1440429959881,911,298,0,0,0,4,5,1,45,0004-00-0006-84.png,0005-00-0005-42.png
00000009,68,0,1440429963100,1440429963647,1062,290,0,0,0,3,4,1,34,0003-00-0001-23.png,0004-00-0001-31.png
00000009,69,0,1440429966797,1440429967311,933,300,0,0,0,1,2,1,12,0001-00-0000-19.png,0002-00-0000-43.png
00000009,70,1,1440429970481,1440429970957,943,327,0,0,0,4,3,1,43,0004-00-0006-51.png,0003-00-0002-48.png
00000009,71,1,1440429971863,1440429972011,888,453,0,0,0,2,1,1,21,0002-00-0000-30.png,0001-00-0000-65.png
00000009,72,1,1440429973445,1440429974315,935,338,0,0,0,3,2,1,32,0003-00-0009-72.png,0002-00-0007-12.png
00000009,73,0,1440429975150,1440429976274,1084,256,0,0,0,3,4,1,34,0003-00-0002-03.png,0004-00-0001-03.png
00000009,74,0,1440429979158,1440429979198,874,332,0,0,0,4,5,1,45,0004-00-0009-72.png,0005-00-0002-53.png
00000009,75,0,1440429982411,1440429982875,935,330,0,0,0,1,2,1,12,0001-00-0002-93.png,0002-00-0001-85.png
00000009,76,1,1440429985947,1440429986642,970,314,0,0,0,4,3,1,43,0004-00-0007-61.png,0003-00-0004-73.png
00000009,77,0,1440429988521,1440429989067,1067,250,0,0,0,2,3,1,23,0002-00-0005-09.png,0003-00-0009-23.png
00000009,78,1,1440429991897,1440429992507,942,295,0,0,0,3,2,1,32,0003-00-0000-91.png,0002-00-0001-32.png
00000009,79,1,1440429994383,1440429994908,964,356,0,0,0,2,1,1,21,0002-00-0000-11.png,0001-00-0002-43.png
00000009,80,1,1440429995792,1440429997147,1067,258,0,0,0,5,4,1,54,0005-00-0005-73.png,0004-00-0007-69.png
00000009,81,1,1440429998609,1440429999016,913,410,0,0,0,2,1,1,21,0002-00-0003-17.png,0001-00-0004-84.png
00000009,82,1,1440429999980,1440430001136,919,326,0,0,0,4,3,1,43,0004-00-0008-77.png,0003-00-0005-20.png
00000009,83,0,1440430002443,1440430002855,861,440,0,0,0,2,3,1,23,0002-00-0007-87.png,0003-00-0004-37.png
00000009,84,0,1440430006068,1440430006961,1014,268,0,0,0,1,2,1,12,0001-00-0007-51.png,0002-00-0008-61.png
00000009,85,1,1440430009814,1440430010468,967,277,0,0,0,5,4,1,54,0005-00-0005-80.png,0004-00-0007-79.png
00000009,86,1,1440430011425,1440430012559,932,345,0,0,0,3,2,1,32,0003-00-0002-14.png,0002-00-0007-41.png
00000009,87,0,1440430014142,1440430014568,940,509,0,0,0,3,4,1,34,0003-00-0000-67.png,0004-00-0009-82.png
00000009,88,0,1440430017748,1440430018386,964,277,0,0,0,4,5,1,45,0004-00-0008-24.png,0005-00-0003-64.png
00000009,89,0,1440430021525,1440430022037,1092,269,0,0,0,3,4,1,34,0003-00-0000-25.png,0004-00-0007-32.png
00000009,90,0,1440430025200,1440430025787,1051,279,0,0,0,2,3,1,23,0002-00-0007-69.png,0003-00-0009-32.png
00000009,91,1,1440430028889,1440430029532,962,383,0,0,0,4,3,1,43,0004-00-0008-90.png,0003-00-0007-87.png
00000009,92,1,1440430031322,1440430032010,939,308,0,0,0,3,2,1,32,0003-00-0002-98.png,0002-00-0004-54.png
00000009,93,1,1440430034193,1440430034378,879,384,0,0,0,5,4,1,54,0005-00-0007-83.png,0004-00-0001-45.png
00000009,94,0,1440430035465,1440430036248,955,307,0,0,0,4,5,1,45,0004-00-0003-74.png,0005-00-0005-53.png
00000009,95,1,1440430039186,1440430039250,1021,405,0,0,0,2,1,1,21,0002-00-0000-21.png,0001-00-0009-95.png
00000009,96,1,1440430040117,1440430040125,518,479,0,0,0,1,2,1,12,0001-00-0003-95.png,0002-00-0007-44.png
00000009,97,1,1440430041471,1440430042759,351,375,0,0,0,3,4,1,34,0003-00-0005-94.png,0004-00-0006-23.png
00000009,98,0,1440430044355,1440430045392,413,220,0,0,0,2,1,1,21,0002-00-0004-74.png,0001-00-0005-79.png
00000009,99,0,1440430048397,1440430048939,1078,279,0,0,0,4,5,1,45,0004-00-0006-72.png,0005-00-0009-49.png
00000009,100,0,1440430052134,1440430053041,305,346,0,0,0,5,4,1,54,0005-00-0007-96.png,0004-00-0005-76.png
00000009,101,0,1440430056166,1440430056823,955,392,0,0,0,1,2,1,12,0001-00-0004-69.png,0002-00-0001-86.png
00000009,102,1,1440430059944,1440430061564,308,343,0,0,0,2,3,1,23,0002-00-0008-51.png,0003-00-0006-92.png
00000009,103,1,1440430063324,1440430063907,912,317,0,0,0,4,3,1,43,0004-00-0003-12.png,0003-00-0003-20.png
00000009,104,1,1440430065589,1440430065906,883,408,0,0,0,3,2,1,32,0003-00-0003-82.png,0002-00-0001-00.png
00000009,105,0,1440430066733,1440430068103,939,309,0,0,0,4,5,1,45,0004-00-0001-32.png,0005-00-0000-85.png
00000009,106,1,1440430071004,1440430071076,862,436,0,0,0,2,1,1,21,0002-00-0004-84.png,0001-00-0008-91.png
00000009,107,0,1440430071925,1440430072138,862,448,0,0,0,2,3,1,23,0002-00-0003-60.png,0003-00-0007-76.png
00000009,108,1,1440430075319,1440430075407,924,277,0,0,0,3,2,1,32,0003-00-0004-21.png,0002-00-0008-49.png
00000009,109,1,1440430077076,1440430078101,976,408,0,0,0,5,4,1,54,0005-00-0006-36.png,0004-00-0007-97.png
00000009,110,0,1440430079669,1440430079768,905,462,0,0,0,3,4,1,34,0003-00-0002-64.png,0004-00-0007-18.png
00000009,111,1,1440430083686,1440430084169,964,393,0,0,0,4,3,1,43,0004-00-0009-68.png,0003-00-0004-78.png
00000009,112,1,1440430085943,1440430086788,406,238,0,0,0,1,2,1,12,0001-00-0005-68.png,0002-00-0003-61.png
00000009,113,1,1440430088436,1440430089118,1042,256,0,0,0,3,2,1,32,0003-00-0008-96.png,0002-00-0008-60.png
00000009,114,0,1440430090456,1440430091503,956,295,0,0,0,2,3,1,23,0002-00-0006-51.png,0003-00-0008-39.png
00000009,115,0,1440430094324,1440430094875,953,322,0,0,0,4,5,1,45,0004-00-0004-88.png,0005-00-0006-04.png
00000009,116,1,1440430098007,1440430098122,857,463,0,0,0,2,1,1,21,0002-00-0003-93.png,0001-00-0005-66.png
00000009,117,0,1440430098971,1440430099168,880,418,0,0,0,1,2,1,12,0001-00-0004-92.png,0002-00-0006-87.png
00000009,118,0,1440430102326,1440430103482,291,340,0,0,0,5,4,1,54,0005-00-0007-38.png,0004-00-0000-88.png
00000009,119,1,1440430106321,1440430106881,934,322,0,0,0,4,3,1,43,0004-00-0007-10.png,0003-00-0000-09.png
00000009,120,0,1440430108787,1440430110131,964,348,0,0,0,3,4,1,34,0003-00-0004-31.png,0004-00-0007-74.png
00000009,121,0,1440430113072,1440430113895,320,363,0,0,0,5,4,1,54,0005-00-0000-74.png,0004-00-0009-41.png
00000009,122,0,1440430116880,1440430117641,940,305,0,0,0,2,3,1,23,0002-00-0004-38.png,0003-00-0002-39.png
00000009,123,1,1440430120865,1440430121546,958,376,0,0,0,4,3,1,43,0004-00-0007-73.png,0003-00-0009-93.png
00000009,124,0,1440430123280,1440430124140,970,295,0,0,0,1,2,1,12,0001-00-0007-79.png,0002-00-0000-83.png
00000009,125,1,1440430127224,1440430127819,964,395,0,0,0,3,2,1,32,0003-00-0005-17.png,0002-00-0008-68.png
00000009,126,1,1440430129619,1440430130641,330,340,0,0,0,3,4,1,34,0003-00-0006-18.png,0004-00-0006-88.png
00000009,127,0,1440430132155,1440430132251,879,384,0,0,0,4,5,1,45,0004-00-0005-62.png,0005-00-0002-01.png
00000009,128,1,1440430135574,1440430136406,973,309,0,0,0,2,1,1,21,0002-00-0006-24.png,0001-00-0009-66.png
00000009,129,0,1440430137740,1440430137863,870,401,0,0,0,2,3,1,23,0002-00-0004-90.png,0003-00-0000-43.png
00000009,130,1,1440430141394,1440430142310,970,297,0,0,0,5,4,1,54,0005-00-0003-43.png,0004-00-0005-41.png
00000009,131,1,1440430143842,1440430145221,294,365,0,0,0,3,4,1,34,0003-00-0006-51.png,0004-00-0006-48.png
00000009,132,1,1440430146662,1440430147651,939,341,0,0,0,2,1,1,21,0002-00-0001-54.png,0001-00-0001-66.png
00000009,133,0,1440430149169,1440430149245,862,424,0,0,0,1,2,1,12,0001-00-0009-80.png,0002-00-0003-66.png
00000009,134,1,1440430152197,1440430153254,939,375,0,0,0,4,3,1,43,0004-00-0007-79.png,0003-00-0007-99.png
00000009,135,1,1440430154621,1440430154709,888,424,0,0,0,3,2,1,32,0003-00-0005-43.png,0002-00-0000-31.png
00000009,136,1,1440430155705,1440430156963,358,401,0,0,0,4,5,1,45,0004-00-0008-17.png,0005-00-0000-60.png
00000009,137,0,1440430157849,1440430158959,341,353,0,0,0,2,1,1,21,0002-00-0004-59.png,0001-00-0003-90.png
00000009,138,1,1440430161947,1440430162652,340,363,0,0,0,1,2,1,12,0001-00-0007-69.png,0002-00-0003-40.png
00000009,139,0,1440430163992,1440430164093,888,410,0,0,0,3,4,1,34,0003-00-0005-29.png,0004-00-0001-39.png
00000009,140,0,1440430166955,1440430167769,964,358,0,0,0,4,5,1,45,0004-00-0005-73.png,0005-00-0002-36.png
00000009,141,1,1440430170961,1440430171684,425,242,0,0,0,2,3,1,23,0002-00-0002-56.png,0003-00-0005-61.png
00000009,142,1,1440430173494,1440430174225,909,299,0,0,0,5,4,1,54,0005-00-0002-00.png,0004-00-0003-87.png
00000009,143,1,1440430176239,1440430177012,1095,282,0,0,0,3,2,1,32,0003-00-0002-59.png,0002-00-0007-55.png
00000009,144,1,1440430178533,1440430178625,888,423,0,0,0,4,3,1,43,0004-00-0007-91.png,0003-00-0002-35.png
00000009,145,1,1440430179645,1440430180896,436,275,0,0,0,3,4,1,34,0003-00-0009-50.png,0004-00-0006-94.png
00000009,146,0,1440430182368,1440430183401,947,328,0,0,0,2,3,1,23,0002-00-0006-05.png,0003-00-0006-10.png
00000009,147,1,1440430186489,1440430186620,881,443,0,0,0,3,2,1,32,0003-00-0003-33.png,0002-00-0000-00.png
00000009,148,1,1440430187687,1440430187735,876,498,0,0,0,2,1,1,21,0002-00-0004-02.png,0001-00-0003-47.png
00000009,149,1,1440430189154,1440430189579,870,481,0,0,0,4,3,1,43,0004-00-0001-96.png,0003-00-0005-67.png
00000009,150,0,1440430190603,1440430191704,337,392,0,0,0,5,4,1,54,0005-00-0009-13.png,0004-00-0005-34.png
00000009,151,0,1440430194569,1440430195281,957,286,0,0,0,1,2,1,12,0001-00-0006-91.png,0002-00-0005-67.png
00000009,152,0,1440430198427,1440430199088,927,331,0,0,0,4,5,1,45,0004-00-0001-00.png,0005-00-0002-79.png
00000009,153,1,1440430202015,1440430202973,939,371,0,0,0,2,1,1,21,0002-00-0002-76.png,0001-00-0001-54.png
00000009,154,1,1440430204777,1440430205491,348,403,0,0,0,1,2,1,12,0001-00-0003-47.png,0002-00-0007-51.png
00000009,155,1,1440430206389,1440430207416,914,347,0,0,0,5,4,1,54,0005-00-0008-07.png,0004-00-0003-20.png
00000009,156,1,1440430209310,1440430209904,454,254,0,0,0,2,3,1,23,0002-00-0002-49.png,0003-00-0005-77.png
00000009,157,0,1440430211468,1440430211576,904,436,0,0,0,3,4,1,34,0003-00-0003-39.png,0004-00-0004-71.png
00000009,158,1,1440430214733,1440430215276,964,349,0,0,0,4,3,1,43,0004-00-0002-43.png,0003-00-0004-59.png
00000009,159,0,1440430216723,1440430216831,904,380,0,0,0,4,5,1,45,0004-00-0008-16.png,0005-00-0005-64.png
00000009,160,1,1440430219973,1440430220755,965,297,0,0,0,3,2,1,32,0003-00-0009-63.png,0002-00-0002-09.png
00000009,161,1,1440430222528,1440430223209,955,305,0,0,0,3,2,1,32,0003-00-0009-18.png,0002-00-0004-78.png
00000009,162,1,1440430225058,1440430225740,976,302,0,0,0,2,1,1,21,0002-00-0000-91.png,0001-00-0009-73.png
00000009,163,0,1440430227135,1440430227363,887,432,0,0,0,3,4,1,34,0003-00-0009-40.png,0004-00-0005-80.png
00000009,164,0,1440430230555,1440430230583,867,293,0,0,0,2,3,1,23,0002-00-0005-22.png,0003-00-0002-62.png
00000009,165,0,1440430233706,1440430233734,922,328,0,0,0,4,5,1,45,0004-00-0000-91.png,0005-00-0009-84.png
00000009,166,1,1440430236737,1440430237293,964,294,0,0,0,5,4,1,54,0005-00-0002-15.png,0004-00-0001-95.png
00000009,167,0,1440430238236,1440430239170,322,365,0,0,0,4,3,1,43,0004-00-0007-93.png,0003-00-0004-19.png
00000009,168,0,1440430242133,1440430242161,859,292,0,0,0,1,2,1,12,0001-00-0001-51.png,0002-00-0001-20.png
00000009,169,1,1440430245263,1440430245824,960,278,0,0,0,5,4,1,54,0005-00-0006-16.png,0004-00-0002-90.png
00000009,170,1,1440430247588,1440430248355,437,235,0,0,0,2,3,1,23,0002-00-0005-80.png,0003-00-0002-96.png
00000009,171,0,1440430249175,1440430250817,1092,279,0,0,0,3,4,1,34,0003-00-0005-57.png,0004-00-0003-99.png
00000009,172,1,1440430254226,1440430254777,956,328,0,0,0,2,1,1,21,0002-00-0004-25.png,0001-00-0000-47.png
00000009,173,1,1440430256562,1440430257172,365,410,0,0,0,1,2,1,12,0001-00-0005-09.png,0002-00-0000-50.png
00000009,174,1,1440430258907,1440430258927,901,298,0,0,0,4,3,1,43,0004-00-0007-98.png,0003-00-0004-39.png
00000009,175,1,1440430259824,1440430261081,340,372,0,0,0,4,5,1,45,0004-00-0003-04.png,0005-00-0005-15.png
00000009,176,1,1440430262574,1440430263123,929,486,0,0,0,3,2,1,32,0003-00-0002-60.png,0002-00-0003-28.png
00000009,177,0,1440430264065,1440430264796,928,529,0,0,0,3,4,1,34,0003-00-0008-31.png,0004-00-0004-90.png
00000009,178,1,1440430268058,1440430268583,974,328,0,0,0,3,2,1,32,0003-00-0004-14.png,0002-00-0007-15.png
00000009,179,1,1440430270245,1440430270788,957,314,0,0,0,5,4,1,54,0005-00-0008-07.png,0004-00-0003-40.png
00000009,180,0,1440430272433,1440430272505,862,384,0,0,0,2,3,1,23,0002-00-0009-15.png,0003-00-0004-26.png
00000009,181,0,1440430275653,1440430276131,1027,304,0,0,0,4,5,1,45,0004-00-0000-71.png,0005-00-0002-60.png
00000009,182,0,1440430279289,1440430279842,964,287,0,0,0,1,2,1,12,0001-00-0005-02.png,0002-00-0003-52.png
00000009,183,1,1440430282717,1440430283909,1112,323,0,0,0,4,3,1,43,0004-00-0008-04.png,0003-00-0006-17.png
00000009,184,1,1440430285691,1440430286195,1095,255,0,0,0,2,1,1,21,0002-00-0001-12.png,0001-00-0006-01.png
00000009,185,1,1440430287520,1440430287610,872,429,0,0,0,4,3,1,43,0004-00-0004-89.png,0003-00-0003-60.png
00000009,186,0,1440430288946,1440430289324,881,486,0,0,0,1,2,1,12,0001-00-0006-09.png,0002-00-0001-40.png
00000009,187,0,1440430292328,1440430292364,888,289,0,0,0,2,3,1,23,0002-00-0006-54.png,0003-00-0007-67.png
00000009,188,0,1440430295298,1440430295858,934,300,0,0,0,3,4,1,34,0003-00-0005-82.png,0004-00-0007-30.png
00000009,189,1,1440430299037,1440430299832,1122,298,0,0,0,3,2,1,32,0003-00-0009-05.png,0002-00-0003-02.png
00000009,190,1,1440430301502,1440430302203,425,227,0,0,0,4,5,1,45,0004-00-0007-97.png,0005-00-0009-31.png
00000009,191,1,1440430303824,1440430303960,900,384,0,0,0,5,4,1,54,0005-00-0002-06.png,0004-00-0007-44.png
00000009,192,1,1440430305052,1440430306169,924,384,0,0,0,2,1,1,21,0002-00-0004-08.png,0001-00-0001-27.png
00000009,193,0,1440430307583,1440430307734,886,380,0,0,0,2,3,1,23,0002-00-0000-19.png,0003-00-0008-11.png
00000009,194,1,1440430310662,1440430311367,425,229,0,0,0,1,2,1,12,0001-00-0009-61.png,0002-00-0002-51.png
00000009,195,1,1440430312743,1440430312866,900,393,0,0,0,5,4,1,54,0005-00-0002-98.png,0004-00-0006-06.png
00000009,196,0,1440430313875,1440430315104,435,293,0,0,0,4,3,1,43,0004-00-0007-97.png,0003-00-0002-40.png
00000009,197,1,1440430319011,1440430319536,996,382,0,0,0,2,1,1,21,0002-00-0005-77.png,0001-00-0004-12.png
00000009,198,0,1440430320849,1440430320947,869,388,0,0,0,3,4,1,34,0003-00-0006-21.png,0004-00-0008-65.png
00000009,199,0,1440430324018,1440430324584,957,393,0,0,0,4,5,1,45,0004-00-0004-08.png,0005-00-0002-57.png
00000009,200,1,1440430327638,1440430328367,964,291,0,0,0,3,2,1,32,0003-00-0007-82.png,0002-00-0003-86.png
00000009,201,1,1440430330896,1440430331473,942,307,0,0,0,5,4,1,54,0005-00-0008-80.png,0004-00-0002-11.png
00000009,202,1,1440430332955,1440430333597,324,380,0,0,0,2,3,1,23,0002-00-0007-50.png,0003-00-0000-59.png
00000009,203,0,1440430335967,1440430336517,940,329,0,0,0,3,4,1,34,0003-00-0005-38.png,0004-00-0000-31.png
00000009,204,0,1440430339501,1440430340316,941,296,0,0,0,1,2,1,12,0001-00-0008-90.png,0002-00-0006-78.png
00000009,205,1,1440430343430,1440430343985,955,279,0,0,0,4,3,1,43,0004-00-0002-42.png,0003-00-0007-43.png
00000009,206,1,1440430345254,1440430346136,409,239,0,0,0,4,5,1,45,0004-00-0009-43.png,0005-00-0008-01.png
00000009,207,1,1440430347522,1440430348378,1025,253,0,0,0,2,1,1,21,0002-00-0003-46.png,0001-00-0007-60.png
00000009,208,1,1440430349560,1440430349636,881,417,0,0,0,3,2,1,32,0003-00-0005-52.png,0002-00-0002-99.png
00000009,209,1,1440430350524,1440430351404,902,529,0,0,0,3,2,1,32,0003-00-0004-51.png,0002-00-0003-61.png
00000009,210,0,1440430352409,1440430352469,868,392,0,0,0,3,4,1,34,0003-00-0005-80.png,0004-00-0008-42.png
00000009,211,1,1440430355412,1440430356021,957,392,0,0,0,2,1,1,21,0002-00-0008-37.png,0001-00-0000-75.png
00000009,212,1,1440430357395,1440430357511,862,358,0,0,0,5,4,1,54,0005-00-0001-78.png,0004-00-0006-02.png
00000009,213,0,1440430358541,1440430358637,862,421,0,0,0,2,3,1,23,0002-00-0007-01.png,0003-00-0003-25.png
00000009,214,0,1440430361845,1440430362497,985,417,0,0,0,1,2,1,12,0001-00-0009-54.png,0002-00-0007-90.png
00000009,215,1,1440430365636,1440430366135,934,310,0,0,0,4,3,1,43,0004-00-0006-17.png,0003-00-0007-87.png
00000009,216,0,1440430367435,1440430367574,913,410,0,0,0,4,5,1,45,0004-00-0001-34.png,0005-00-0008-79.png
00000009,217,1,1440430370694,1440430371224,1088,317,0,0,0,3,2,1,32,0003-00-0006-07.png,0002-00-0004-42.png
00000009,218,1,1440430372733,1440430372842,922,384,0,0,0,2,1,1,21,0002-00-0002-64.png,0001-00-0006-69.png
00000009,219,1,1440430373801,1440430374982,1062,277,0,0,0,5,4,1,54,0005-00-0007-38.png,0004-00-0002-88.png
00000009,220,0,1440430376470,1440430376550,862,384,0,0,0,1,2,1,12,0001-00-0002-96.png,0002-00-0006-91.png
00000009,221,0,1440430379670,1440430379706,939,332,0,0,0,4,5,1,45,0004-00-0009-65.png,0005-00-0001-50.png
00000009,222,0,1440430382848,1440430383385,941,302,0,0,0,3,4,1,34,0003-00-0001-32.png,0004-00-0003-32.png
00000009,223,1,1440430386266,1440430386856,1065,280,0,0,0,4,3,1,43,0004-00-0000-61.png,0003-00-0009-27.png
00000009,224,0,1440430388064,1440430388187,862,422,0,0,0,2,3,1,23,0002-00-0005-89.png,0003-00-0006-98.png
00000009,225,1,1440430391386,1440430391877,976,322,0,0,0,3,2,1,32,0003-00-0009-13.png,0002-00-0008-40.png
00000009,226,1,1440430392724,1440430393955,464,256,0,0,0,1,2,1,12,0001-00-0001-94.png,0002-00-0005-69.png
00000009,227,0,1440430394810,1440430396035,970,333,0,0,0,3,4,1,34,0003-00-0007-73.png,0004-00-0005-44.png
00000009,228,1,1440430399167,1440430399824,425,297,0,0,0,2,3,1,23,0002-00-0001-62.png,0003-00-0008-45.png
00000009,229,1,1440430401407,1440430401988,968,331,0,0,0,4,3,1,43,0004-00-0006-71.png,0003-00-0004-71.png
00000009,230,1,1440430403524,1440430404331,327,380,0,0,0,4,5,1,45,0004-00-0006-32.png,0005-00-0004-16.png
00000009,231,1,1440430405972,1440430406032,891,378,0,0,0,2,1,1,21,0002-00-0007-98.png,0001-00-0000-63.png
00000009,232,1,1440430406940,1440430408178,924,352,0,0,0,5,4,1,54,0005-00-0007-14.png,0004-00-0005-94.png
00000009,233,0,1440430409569,1440430409665,882,419,0,0,0,2,3,1,23,0002-00-0008-19.png,0003-00-0007-77.png
00000009,234,1,1440430412750,1440430413259,964,372,0,0,0,4,3,1,43,0004-00-0007-53.png,0003-00-0009-10.png
00000009,235,0,1440430414568,1440430414640,862,358,0,0,0,3,4,1,34,0003-00-0008-00.png,0004-00-0001-65.png
00000009,236,1,1440430417879,1440430418410,982,323,0,0,0,3,2,1,32,0003-00-0008-30.png,0002-00-0000-12.png
00000009,237,1,1440430419854,1440430420487,425,273,0,0,0,1,2,1,12,0001-00-0008-74.png,0002-00-0000-70.png
00000009,238,1,1440430421326,1440430421424,862,447,0,0,0,5,4,1,54,0005-00-0004-70.png,0004-00-0007-86.png
00000009,239,0,1440430422248,1440430423379,939,423,0,0,0,4,5,1,45,0004-00-0006-79.png,0005-00-0002-32.png
00000009,240,1,1440430426635,1440430427117,940,322,0,0,0,2,1,1,21,0002-00-0008-45.png,0001-00-0002-58.png
00000009,241,1,1440430428779,1440430429321,931,325,0,0,0,3,2,1,32,0003-00-0000-31.png,0002-00-0008-81.png
00000009,242,0,1440430430697,1440430430796,888,371,0,0,0,1,2,1,12,0001-00-0000-07.png,0002-00-0001-36.png
00000009,243,0,1440430433623,1440430434469,1075,276,0,0,0,3,4,1,34,0003-00-0009-31.png,0004-00-0001-77.png
00000009,244,1,1440430437542,1440430437586,952,384,0,0,0,2,1,1,21,0002-00-0007-06.png,0001-00-0006-99.png
00000009,245,0,1440430438573,1440430439522,919,325,0,0,0,4,5,1,45,0004-00-0000-00.png,0005-00-0007-68.png
00000009,246,1,1440430443436,1440430443989,973,294,0,0,0,4,3,1,43,0004-00-0003-73.png,0003-00-0000-24.png
00000009,247,1,1440430446089,1440430446714,1099,270,0,0,0,5,4,1,54,0005-00-0000-18.png,0004-00-0002-81.png
00000009,248,0,1440430448693,1440430449280,1078,279,0,0,0,2,3,1,23,0002-00-0002-78.png,0003-00-0002-05.png
00000009,249,0,1440430452608,1440430453104,960,344,0,0,0,2,3,1,23,0002-00-0005-22.png,0003-00-0007-41.png
00000009,250,0,1440430456097,1440430456754,406,301,0,0,0,3,2,1,32,0003-00-0007-63.png,0002-00-0003-61.png
00000009,251,0,1440430459943,1440430459963,911,325,0,0,0,4,5,1,45,0004-00-0007-92.png,0005-00-0003-14.png
00000009,252,0,1440430462991,1440430463567,930,310,0,0,0,3,4,1,34,0003-00-0002-56.png,0004-00-0007-57.png
00000009,253,1,1440430466732,1440430467263,1101,285,0,0,0,2,1,1,21,0002-00-0000-77.png,0001-00-0008-45.png
00000009,254,0,1440430468578,1440430469504,957,320,0,0,0,1,2,1,12,0001-00-0009-60.png,0002-00-0002-37.png
00000009,255,1,1440430472643,1440430473150,1077,279,0,0,0,5,4,1,54,0005-00-0008-51.png,0004-00-0001-21.png
00000009,256,1,1440430474979,1440430475631,967,325,0,0,0,4,3,1,43,0004-00-0004-86.png,0003-00-0005-03.png
00000009,257,1,1440430477307,1440430477414,888,358,0,0,0,4,3,1,43,0004-00-0003-98.png,0003-00-0006-99.png
00000009,258,1,1440430478290,1440430479459,1006,410,0,0,0,2,1,1,21,0002-00-0009-56.png,0001-00-0002-14.png
00000009,259,0,1440430480304,1440430481408,953,332,0,0,0,2,3,1,23,0002-00-0009-70.png,0003-00-0000-61.png
00000009,260,1,1440430484508,1440430485006,945,349,0,0,0,5,4,1,54,0005-00-0005-84.png,0004-00-0007-97.png
00000009,261,1,1440430486536,1440430487071,939,330,0,0,0,3,2,1,32,0003-00-0008-67.png,0002-00-0002-60.png
00000009,262,0,1440430488634,1440430488694,862,370,0,0,0,4,5,1,45,0004-00-0000-74.png,0005-00-0006-68.png
00000009,263,0,1440430491853,1440430492359,939,372,0,0,0,1,2,1,12,0001-00-0003-12.png,0002-00-0004-44.png
00000009,264,1,1440430495489,1440430496059,425,278,0,0,0,3,4,1,34,0003-00-0007-09.png,0004-00-0001-96.png
00000009,265,1,1440430497746,1440430498341,1094,254,0,0,0,4,3,1,43,0004-00-0004-65.png,0003-00-0007-28.png
00000009,266,1,1440430499763,1440430499848,862,410,0,0,0,2,1,1,21,0002-00-0003-22.png,0001-00-0003-17.png
00000009,267,0,1440430500786,1440430501492,877,514,0,0,0,2,3,1,23,0002-00-0008-32.png,0003-00-0001-77.png
00000009,268,1,1440430504657,1440430505338,430,270,0,0,0,1,2,1,12,0001-00-0000-49.png,0002-00-0007-70.png
00000009,269,0,1440430506999,1440430507553,957,328,0,0,0,4,5,1,45,0004-00-0004-16.png,0005-00-0009-79.png
00000009,270,0,1440430510673,1440430511289,304,391,0,0,0,5,4,1,54,0005-00-0009-58.png,0004-00-0003-35.png
00000009,271,0,1440430514658,1440430515131,962,285,0,0,0,3,4,1,34,0003-00-0003-64.png,0004-00-0009-21.png
00000009,272,1,1440430518197,1440430518713,963,294,0,0,0,3,2,1,32,0003-00-0003-65.png,0002-00-0003-00.png
00000009,273,1,1440430520413,1440430521184,1129,261,0,0,0,5,4,1,54,0005-00-0007-14.png,0004-00-0009-50.png
00000009,274,1,1440430522848,1440430523462,935,304,0,0,0,2,1,1,21,0002-00-0004-98.png,0001-00-0005-70.png
00000009,275,0,1440430525203,1440430525300,894,352,0,0,0,2,3,1,23,0002-00-0001-41.png,0003-00-0003-67.png
00000009,276,1,1440430528452,1440430528942,970,302,0,0,0,3,2,1,32,0003-00-0009-86.png,0002-00-0007-45.png
00000009,277,0,1440430530141,1440430530378,954,463,0,0,0,4,5,1,45,0004-00-0009-44.png,0005-00-0008-24.png
00000009,278,1,1440430533898,1440430534479,417,283,0,0,0,1,2,1,12,0001-00-0003-58.png,0002-00-0007-56.png
00000009,279,0,1440430535996,1440430536323,990,393,0,0,0,3,4,1,34,0003-00-0009-80.png,0004-00-0009-18.png
00000009,280,1,1440430539531,1440430540037,960,313,0,0,0,4,3,1,43,0004-00-0008-66.png,0003-00-0000-87.png
00000009,281,0,1440430541422,1440430541523,928,400,0,0,0,1,2,1,12,0001-00-0005-86.png,0002-00-0004-94.png
00000009,282,1,1440430546490,1440430546530,927,306,0,0,0,2,1,1,21,0002-00-0009-56.png,0001-00-0008-97.png
00000009,283,1,1440430547480,1440430548261,930,332,0,0,0,3,2,1,32,0003-00-0008-85.png,0002-00-0005-65.png
00000009,284,1,1440430549679,1440430550127,877,488,0,0,0,4,3,1,43,0004-00-0000-67.png,0003-00-0003-54.png
00000009,285,0,1440430551178,1440430551238,913,371,0,0,0,2,3,1,23,0002-00-0002-23.png,0003-00-0005-14.png
00000009,286,0,1440430554568,1440430555053,993,302,0,0,0,4,5,1,45,0004-00-0003-63.png,0005-00-0003-82.png
00000009,287,0,1440430558037,1440430558542,965,306,0,0,0,3,4,1,34,0003-00-0001-01.png,0004-00-0005-74.png
00000009,288,0,1440430561544,1440430562189,307,376,0,0,0,5,4,1,54,0005-00-0009-05.png,0004-00-0006-41.png
00000009,289,1,1440430565122,1440430565166,913,422,0,0,0,2,1,1,21,0002-00-0000-26.png,0001-00-0000-17.png
00000009,290,0,1440430566056,1440430567191,1043,260,0,0,0,4,5,1,45,0004-00-0009-27.png,0005-00-0008-33.png
00000009,291,1,1440430570213,1440430570759,937,305,0,0,0,5,4,1,54,0005-00-0008-77.png,0004-00-0003-09.png
00000009,292,0,1440430572416,1440430573212,941,323,0,0,0,3,4,1,34,0003-00-0001-89.png,0004-00-0005-54.png
00000009,293,1,1440430576105,1440430576760,315,339,0,0,0,1,2,1,12,0001-00-0007-62.png,0002-00-0009-28.png
00000009,294,1,1440430578359,1440430578922,988,347,0,0,0,4,3,1,43,0004-00-0000-66.png,0003-00-0006-25.png
00000009,295,1,1440430580577,1440430580625,862,396,0,0,0,3,2,1,32,0003-00-0000-64.png,0002-00-0001-77.png
00000009,296,0,1440430581787,1440430582605,906,273,0,0,0,2,3,1,23,0002-00-0007-36.png,0003-00-0003-11.png
00000009,297,0,1440430585843,1440430585887,946,309,0,0,0,2,3,1,23,0002-00-0002-93.png,0003-00-0009-85.png
00000009,298,1,1440430590044,1440430590072,867,358,0,0,0,4,3,1,43,0004-00-0008-02.png,0003-00-0006-96.png
00000009,299,0,1440430591765,1440430592214,968,368,0,0,0,4,5,1,45,0004-00-0007-67.png,0005-00-0007-68.png
00000009,300,1,1440430595203,1440430595929,409,261,0,0,0,1,2,1,12,0001-00-0001-63.png,0002-00-0007-32.png
00000009,301,0,1440430597210,1440430597864,1024,281,0,0,0,3,4,1,34,0003-00-0003-39.png,0004-00-0006-63.png
00000009,302,1,1440430601303,1440430602037,1096,301,0,0,0,3,2,1,32,0003-00-0009-14.png,0002-00-0003-31.png
00000009,303,1,1440430603411,1440430603542,970,341,0,0,0,5,4,1,54,0005-00-0007-24.png,0004-00-0001-41.png
00000009,304,1,1440430604617,1440430604713,862,425,0,0,0,2,1,1,21,0002-00-0006-30.png,0001-00-0004-70.png
00000009,305,1,1440430605825,1440430606863,458,267,0,0,0,1,2,1,12,0001-00-0001-43.png,0002-00-0008-25.png
00000009,306,1,1440430608241,1440430608301,873,358,0,0,0,5,4,1,54,0005-00-0002-33.png,0004-00-0005-33.png
00000009,307,1,1440430609363,1440430610315,438,278,0,0,0,3,4,1,34,0003-00-0004-41.png,0004-00-0002-60.png
00000009,308,1,1440430611731,1440430611807,881,367,0,0,0,2,1,1,21,0002-00-0005-44.png,0001-00-0003-10.png
00000009,309,1,1440430613475,1440430614059,1051,258,0,0,0,4,3,1,43,0004-00-0003-01.png,0003-00-0001-44.png
00000009,310,1,1440430614976,1440430615069,871,436,0,0,0,3,2,1,32,0003-00-0003-06.png,0002-00-0002-30.png
00000009,311,0,1440430616521,1440430616601,865,448,0,0,0,2,3,1,23,0002-00-0005-68.png,0003-00-0008-03.png
00000009,312,0,1440430619579,1440430620123,949,306,0,0,0,4,5,1,45,0004-00-0009-81.png,0005-00-0006-49.png
00000009,313,1,1440430623148,1440430623648,1092,279,0,0,0,2,1,1,21,0002-00-0008-86.png,0001-00-0003-31.png
00000009,314,1,1440430625107,1440430625971,940,351,0,0,0,3,2,1,32,0003-00-0003-58.png,0002-00-0007-26.png
00000009,315,0,1440430627282,1440430627342,862,395,0,0,0,4,5,1,45,0004-00-0009-15.png,0005-00-0007-36.png
00000009,316,0,1440430630441,1440430630635,865,454,0,0,0,1,2,1,12,0001-00-0006-68.png,0002-00-0002-07.png
00000009,317,1,1440430633921,1440430634195,914,381,0,0,0,4,3,1,43,0004-00-0005-99.png,0003-00-0007-55.png
00000009,318,0,1440430635930,1440430636560,1067,279,0,0,0,2,3,1,23,0002-00-0006-24.png,0003-00-0000-74.png
00000009,319,0,1440430639476,1440430640060,918,297,0,0,0,3,4,1,34,0003-00-0006-95.png,0004-00-0000-83.png
00000009,320,1,1440430643155,1440430643697,935,305,0,0,0,5,4,1,54,0005-00-0005-56.png,0004-00-0007-56.png
00000009,321,0,1440430645164,1440430645259,904,332,0,0,0,4,5,1,45,0004-00-0008-30.png,0005-00-0009-17.png
00000009,322,1,1440430648320,1440430648937,439,236,0,0,0,1,2,1,12,0001-00-0003-01.png,0002-00-0006-14.png
00000009,323,0,1440430650248,1440430650330,939,425,0,0,0,2,3,1,23,0002-00-0006-43.png,0003-00-0002-98.png
00000009,324,1,1440430653975,1440430654470,985,275,0,0,0,2,1,1,21,0002-00-0008-61.png,0001-00-0001-00.png
00000009,325,0,1440430656220,1440430656904,1092,279,0,0,0,3,4,1,34,0003-00-0005-96.png,0004-00-0000-04.png
00000009,326,1,1440430659857,1440430660423,1079,318,0,0,0,4,3,1,43,0004-00-0006-23.png,0003-00-0008-93.png
00000009,327,1,1440430661944,1440430662652,1092,270,0,0,0,3,2,1,32,0003-00-0005-91.png,0002-00-0007-57.png
00000009,328,1,1440430664250,1440430664350,886,384,0,0,0,5,4,1,54,0005-00-0005-88.png,0004-00-0000-93.png
00000009,329,0,1440430665322,1440430665398,918,417,0,0,0,4,5,1,45,0004-00-0004-47.png,0005-00-0009-33.png
00000009,330,0,1440430668753,1440430669247,1078,280,0,0,0,2,3,1,23,0002-00-0008-74.png,0003-00-0000-79.png
00000009,331,1,1440430672376,1440430672460,857,327,0,0,0,3,2,1,32,0003-00-0006-67.png,0002-00-0009-02.png
00000009,332,1,1440430673392,1440430673490,884,452,0,0,0,5,4,1,54,0005-00-0008-07.png,0004-00-0006-84.png
00000009,333,0,1440430674861,1440430674941,904,429,0,0,0,1,2,1,12,0001-00-0006-09.png,0002-00-0002-67.png
00000009,334,0,1440430677923,1440430678697,315,379,0,0,0,2,1,1,21,0002-00-0000-40.png,0001-00-0003-52.png
00000009,335,1,1440430681801,1440430681837,900,353,0,0,0,4,3,1,43,0004-00-0006-03.png,0003-00-0001-03.png
00000009,336,0,1440430682797,1440430682941,862,473,0,0,0,3,4,1,34,0003-00-0001-69.png,0004-00-0001-57.png
00000009,337,0,1440430686054,1440430686601,1118,306,0,0,0,4,5,1,45,0004-00-0009-42.png,0005-00-0009-98.png
00000009,338,1,1440430689560,1440430690486,1114,313,0,0,0,4,3,1,43,0004-00-0000-61.png,0003-00-0007-44.png
00000009,339,1,1440430691340,1440430692259,327,405,0,0,0,1,2,1,12,0001-00-0008-65.png,0002-00-0003-86.png
00000009,340,0,1440430693567,1440430693749,964,358,0,0,0,3,4,1,34,0003-00-0000-33.png,0004-00-0007-65.png
00000009,341,0,1440430696906,1440430697663,400,259,0,0,0,5,4,1,54,0005-00-0003-03.png,0004-00-0002-84.png
00000009,342,0,1440430700683,1440430701181,985,295,0,0,0,2,3,1,23,0002-00-0008-00.png,0003-00-0001-68.png
00000009,343,1,1440430704427,1440430704467,895,330,0,0,0,2,1,1,21,0002-00-0004-52.png,0001-00-0004-28.png
00000009,344,1,1440430705405,1440430705635,881,403,0,0,0,3,2,1,32,0003-00-0009-38.png,0002-00-0000-16.png
00000009,345,1,1440430707110,1440430707166,888,371,0,0,0,5,4,1,54,0005-00-0003-77.png,0004-00-0008-72.png
00000009,346,1,1440430708265,1440430708325,888,366,0,0,0,2,1,1,21,0002-00-0009-76.png,0001-00-0008-85.png
00000009,347,0,1440430709378,1440430709426,871,401,0,0,0,4,5,1,45,0004-00-0003-41.png,0005-00-0008-77.png
00000009,348,1,1440430712366,1440430712954,936,324,0,0,0,3,2,1,32,0003-00-0004-07.png,0002-00-0009-94.png
00000009,349,1,1440430714554,1440430714602,963,306,0,0,0,4,3,1,43,0004-00-0001-10.png,0003-00-0003-66.png
00000009,350,0,1440430715539,1440430716795,1067,282,0,0,0,2,3,1,23,0002-00-0008-22.png,0003-00-0007-19.png
00000009,351,1,1440430720008,1440430720905,319,355,0,0,0,1,2,1,12,0001-00-0002-84.png,0002-00-0002-38.png
00000009,352,0,1440430721761,1440430722718,939,342,0,0,0,3,4,1,34,0003-00-0006-48.png,0004-00-0003-18.png
00000009,353,0,1440430725824,1440430726349,912,312,0,0,0,3,4,1,34,0003-00-0009-28.png,0004-00-0004-16.png
00000009,354,0,1440430729382,1440430730144,468,252,0,0,0,5,4,1,54,0005-00-0008-87.png,0004-00-0007-24.png
00000009,355,1,1440430733218,1440430733933,910,384,0,0,0,2,1,1,21,0002-00-0004-50.png,0001-00-0007-19.png
00000009,356,0,1440430735553,1440430736139,453,262,0,0,0,4,3,1,43,0004-00-0000-97.png,0003-00-0009-21.png
00000009,357,1,1440430739212,1440430739746,1092,288,0,0,0,3,2,1,32,0003-00-0007-46.png,0002-00-0006-62.png
00000009,358,0,1440430741287,1440430741473,913,348,0,0,0,2,3,1,23,0002-00-0001-96.png,0003-00-0001-53.png
00000009,359,0,1440430744347,1440430744992,1068,276,0,0,0,4,5,1,45,0004-00-0004-07.png,0005-00-0001-01.png
00000009,360,1,1440430748192,1440430748849,430,285,0,0,0,1,2,1,12,0001-00-0000-14.png,0002-00-0000-54.png
00000009,361,0,1440430750246,1440430750435,939,374,0,0,0,1,2,1,12,0001-00-0004-94.png,0002-00-0007-73.png
00000009,362,1,1440430753599,1440430753630,864,327,0,0,0,5,4,1,54,0005-00-0003-36.png,0004-00-0009-02.png
00000009,363,1,1440430754496,1440430755662,1025,279,0,0,0,2,1,1,21,0002-00-0007-71.png,0001-00-0004-98.png
00000009,364,1,1440430756499,1440430756622,952,436,0,0,0,4,3,1,43,0004-00-0009-43.png,0003-00-0004-39.png
00000009,365,0,1440430758182,1440430758282,882,413,0,0,0,4,5,1,45,0004-00-0003-06.png,0005-00-0004-08.png
00000009,366,1,1440430762018,1440430762555,964,373,0,0,0,3,2,1,32,0003-00-0000-11.png,0002-00-0005-86.png
00000009,367,1,1440430764163,1440430764993,458,259,0,0,0,2,3,1,23,0002-00-0006-45.png,0003-00-0006-53.png
00000009,368,0,1440430766418,1440430766506,906,391,0,0,0,3,4,1,34,0003-00-0006-95.png,0004-00-0002-67.png
00000009,369,1,1440430769707,1440430769731,893,337,0,0,0,2,1,1,21,0002-00-0002-60.png,0001-00-0005-53.png
00000009,370,1,1440430770663,1440430771520,453,290,0,0,0,4,5,1,45,0004-00-0004-37.png,0005-00-0004-72.png
00000009,371,1,1440430773009,1440430773104,919,393,0,0,0,4,3,1,43,0004-00-0004-69.png,0003-00-0005-13.png
00000009,372,0,1440430774060,1440430774555,929,488,0,0,0,3,4,1,34,0003-00-0001-14.png,0004-00-0005-46.png
00000009,373,1,1440430777600,1440430778133,939,396,0,0,0,3,2,1,32,0003-00-0000-70.png,0002-00-0004-40.png
00000009,374,1,1440430779598,1440430780226,353,385,0,0,0,2,3,1,23,0002-00-0006-02.png,0003-00-0002-52.png
00000009,375,1,1440430781723,1440430781814,879,417,0,0,0,5,4,1,54,0005-00-0001-33.png,0004-00-0006-31.png
00000009,376,0,1440430782746,1440430782802,893,420,0,0,0,1,2,1,12,0001-00-0009-08.png,0002-00-0007-61.png
00000009,377,1,1440430786175,1440430786680,964,343,0,0,0,5,4,1,54,0005-00-0003-43.png,0004-00-0006-20.png
00000009,378,0,1440430788211,1440430788865,1066,276,0,0,0,3,4,1,34,0003-00-0000-22.png,0004-00-0007-55.png
00000009,379,1,1440430791697,1440430791717,862,393,0,0,0,4,3,1,43,0004-00-0002-75.png,0003-00-0007-74.png
00000009,380,1,1440430792587,1440430793491,1061,278,0,0,0,2,1,1,21,0002-00-0002-32.png,0001-00-0009-77.png
00000009,381,1,1440430794901,1440430795750,386,372,0,0,0,1,2,1,12,0001-00-0001-28.png,0002-00-0003-35.png
00000009,382,1,1440430796678,1440430796746,913,488,0,0,0,3,2,1,32,0003-00-0005-28.png,0002-00-0005-64.png
00000009,383,1,1440430798209,1440430799088,337,398,0,0,0,4,5,1,45,0004-00-0003-50.png,0005-00-0002-20.png
00000009,384,0,1440430799978,1440430800020,888,462,0,0,0,2,3,1,23,0002-00-0000-28.png,0003-00-0002-90.png
00000009,385,1,1440430803219,1440430803696,960,313,0,0,0,3,2,1,32,0003-00-0007-59.png,0002-00-0009-23.png
00000009,386,1,1440430804848,1440430805052,960,541,0,0,0,2,1,1,21,0002-00-0009-23.png,0001-00-0002-95.png
00000009,387,0,1440430806129,1440430806217,927,436,0,0,0,2,3,1,23,0002-00-0002-53.png,0003-00-0002-41.png
00000009,388,0,1440430809318,1440430809865,939,325,0,0,0,3,4,1,34,0003-00-0008-48.png,0004-00-0000-53.png
00000009,389,1,1440430812986,1440430813613,455,257,0,0,0,1,2,1,12,0001-00-0007-58.png,0002-00-0004-43.png
00000009,390,1,1440430815598,1440430816397,420,261,0,0,0,4,5,1,45,0004-00-0000-98.png,0005-00-0004-45.png
00000009,391,1,1440430817299,1440430817339,864,390,0,0,0,5,4,1,54,0005-00-0000-61.png,0004-00-0005-75.png
00000009,392,1,1440430818542,1440430819123,927,528,0,0,0,4,3,1,43,0004-00-0000-89.png,0003-00-0009-35.png
00000009,393,1,1440430820101,1440430820160,863,444,0,0,0,2,1,1,21,0002-00-0007-10.png,0001-00-0007-42.png
00000009,394,1,1440430821088,1440430822402,342,343,0,0,0,2,3,1,23,0002-00-0001-96.png,0003-00-0005-39.png
00000009,395,0,1440430823305,1440430823399,896,410,0,0,0,1,2,1,12,0001-00-0008-51.png,0002-00-0004-03.png
00000009,396,0,1440430826816,1440430827304,942,319,0,0,0,3,4,1,34,0003-00-0008-85.png,0004-00-0009-50.png
00000009,397,0,1440430836354,1440430836855,927,326,0,0,0,4,5,1,45,0004-00-0006-93.png,0005-00-0004-86.png
00000009,398,1,1440430842865,1440430842877,888,366,0,0,0,4,3,1,43,0004-00-0002-36.png,0003-00-0008-58.png
00000009,399,1,1440430843938,1440430843986,862,397,0,0,0,5,4,1,54,0005-00-0006-17.png,0004-00-0007-14.png
00000009,400,1,1440430844891,1440430844942,888,414,0,0,0,3,2,1,32,0003-00-0002-77.png,0002-00-0009-98.png
00000009,401,1,1440430845835,1440430845887,891,432,0,0,0,2,1,1,21,0002-00-0002-34.png,0001-00-0009-63.png
00000009,402,1,1440430847345,1440430847429,882,394,0,0,0,4,3,1,43,0004-00-0004-15.png,0003-00-0004-86.png
00000009,403,0,1440430848688,1440430848791,888,445,0,0,0,3,4,1,34,0003-00-0003-50.png,0004-00-0001-57.png
00000009,404,0,1440430852802,1440430853374,1083,265,0,0,0,1,2,1,12,0001-00-0003-70.png,0002-00-0000-87.png
00000009,405,1,1440430856659,1440430857197,1118,290,0,0,0,3,2,1,32,0003-00-0002-32.png,0002-00-0009-16.png
00000009,406,0,1440430859072,1440430859628,948,330,0,0,0,2,3,1,23,0002-00-0003-55.png,0003-00-0008-19.png
00000009,407,0,1440430862611,1440430863203,404,282,0,0,0,5,4,1,54,0005-00-0004-25.png,0004-00-0009-18.png
00000009,408,1,1440430866338,1440430867030,438,271,0,0,0,4,5,1,45,0004-00-0002-68.png,0005-00-0003-90.png
00000009,409,0,1440430868404,1440430868580,955,358,0,0,0,3,4,1,34,0003-00-0007-49.png,0004-00-0000-04.png
00000009,410,0,1440430871425,1440430872069,339,336,0,0,0,2,1,1,21,0002-00-0004-67.png,0001-00-0002-29.png
00000009,411,0,1440430875283,1440430875778,960,302,0,0,0,4,5,1,45,0004-00-0005-91.png,0005-00-0003-29.png
00000009,412,1,1440430878711,1440430879243,955,320,0,0,0,3,2,1,32,0003-00-0006-78.png,0002-00-0007-19.png
00000009,413,0,1440430880858,1440430881641,960,320,0,0,0,1,2,1,12,0001-00-0006-47.png,0002-00-0005-40.png
00000009,414,0,1440430884803,1440430885824,452,316,0,0,0,5,4,1,54,0005-00-0009-71.png,0004-00-0005-39.png
00000009,415,1,1440430889085,1440430889117,975,358,0,0,0,4,3,1,43,0004-00-0007-87.png,0003-00-0006-65.png
00000009,416,0,1440430890085,1440430890247,874,462,0,0,0,2,3,1,23,0002-00-0000-35.png,0003-00-0002-72.png
00000009,417,1,1440430893418,1440430893450,964,358,0,0,0,4,3,1,43,0004-00-0008-78.png,0003-00-0005-18.png
00000009,418,0,1440430894432,1440430895392,423,268,0,0,0,2,1,1,21,0002-00-0002-27.png,0001-00-0005-11.png
00000009,419,1,1440430898612,1440430899324,480,332,0,0,0,3,4,1,34,0003-00-0001-05.png,0004-00-0001-02.png
00000009,420,1,1440430900215,1440430901464,903,338,0,0,0,3,2,1,32,0003-00-0002-10.png,0002-00-0008-33.png
00000009,421,0,1440430902304,1440430902348,913,419,0,0,0,1,2,1,12,0001-00-0000-94.png,0002-00-0001-39.png
00000009,422,0,1440430905274,1440430905354,939,452,0,0,0,2,3,1,23,0002-00-0004-58.png,0003-00-0003-68.png
00000009,423,0,1440430908376,1440430909336,461,249,0,0,0,5,4,1,54,0005-00-0001-33.png,0004-00-0003-65.png
00000009,424,0,1440430912370,1440430912418,938,358,0,0,0,4,5,1,45,0004-00-0001-64.png,0005-00-0002-08.png
00000009,425,1,1440430915590,1440430916282,1092,290,0,0,0,4,3,1,43,0004-00-0006-38.png,0003-00-0007-49.png
00000009,426,0,1440430918303,1440430919052,430,290,0,0,0,5,4,1,54,0005-00-0004-78.png,0004-00-0008-10.png
00000009,427,1,1440430922200,1440430922777,973,410,0,0,0,2,1,1,21,0002-00-0000-06.png,0001-00-0001-17.png
00000009,428,0,1440430924375,1440430925007,964,401,0,0,0,3,4,1,34,0003-00-0000-88.png,0004-00-0008-26.png
00000009,429,1,1440430928183,1440430928698,943,328,0,0,0,3,2,1,32,0003-00-0009-22.png,0002-00-0001-14.png
00000009,430,0,1440430930108,1440430930376,913,368,0,0,0,2,3,1,23,0002-00-0004-37.png,0003-00-0000-30.png
00000009,431,0,1440430933587,1440430934132,1117,276,0,0,0,1,2,1,12,0001-00-0005-91.png,0002-00-0004-92.png
00000009,432,0,1440430937294,1440430937794,949,302,0,0,0,4,5,1,45,0004-00-0007-61.png,0005-00-0005-37.png
00000009,433,0,1440430940654,1440430941487,921,325,0,0,0,2,3,1,23,0002-00-0002-56.png,0003-00-0009-64.png
00000009,434,0,1440430944462,1440430945115,423,291,0,0,0,4,3,1,43,0004-00-0004-15.png,0003-00-0009-32.png
00000009,435,0,1440430947957,1440430948941,429,271,0,0,0,5,4,1,54,0005-00-0007-04.png,0004-00-0009-13.png
00000009,436,1,1440430952821,1440430953375,1092,293,0,0,0,2,1,1,21,0002-00-0005-21.png,0001-00-0004-82.png
00000009,437,0,1440430954797,1440430954894,867,358,0,0,0,4,5,1,45,0004-00-0008-64.png,0005-00-0008-07.png
00000009,438,0,1440430958057,1440430958624,1118,271,0,0,0,1,2,1,12,0001-00-0007-59.png,0002-00-0004-14.png
00000009,439,1,1440430961565,1440430962099,944,273,0,0,0,3,2,1,32,0003-00-0004-03.png,0002-00-0007-53.png
00000009,440,0,1440430963599,1440430964272,1066,276,0,0,0,3,4,1,34,0003-00-0002-82.png,0004-00-0001-36.png
00000009,441,0,1440430967230,1440430967286,871,348,0,0,0,1,2,1,12,0001-00-0003-45.png,0002-00-0006-55.png
00000009,442,1,1440430970995,1440430971519,992,279,0,0,0,4,3,1,43,0004-00-0002-16.png,0003-00-0008-69.png
00000009,443,1,1440430972336,1440430972506,888,447,0,0,0,5,4,1,54,0005-00-0009-15.png,0004-00-0002-05.png
00000009,444,1,1440430973917,1440430974103,888,421,0,0,0,2,1,1,21,0002-00-0003-76.png,0001-00-0003-51.png
00000009,445,0,1440430975070,1440430975160,862,436,0,0,0,2,3,1,23,0002-00-0004-83.png,0003-00-0004-84.png
00000009,446,1,1440430978385,1440430978922,1080,303,0,0,0,3,2,1,32,0003-00-0006-05.png,0002-00-0005-21.png
00000009,447,0,1440430979779,1440430980004,862,502,0,0,0,3,4,1,34,0003-00-0000-86.png,0004-00-0009-88.png
00000009,448,0,1440430982989,1440430983595,1066,306,0,0,0,4,5,1,45,0004-00-0001-72.png,0005-00-0005-29.png
00000009,449,1,1440430986686,1440430987191,1067,306,0,0,0,4,3,1,43,0004-00-0007-34.png,0003-00-0009-81.png
00000009,450,1,1440430989259,1440430989816,1069,279,0,0,0,3,2,1,32,0003-00-0005-86.png,0002-00-0009-28.png
00000009,451,0,1440430991269,1440430991380,885,387,0,0,0,2,3,1,23,0002-00-0006-43.png,0003-00-0008-34.png
00000009,452,1,1440430994429,1440430995175,1106,306,0,0,0,5,4,1,54,0005-00-0008-96.png,0004-00-0006-63.png
00000009,453,0,1440430996723,1440430996942,930,408,0,0,0,1,2,1,12,0001-00-0008-17.png,0002-00-0009-14.png
00000009,454,1,1440430999942,1440431000459,925,330,0,0,0,2,1,1,21,0002-00-0003-62.png,0001-00-0003-39.png
00000009,455,0,1440431001931,1440431002039,887,408,0,0,0,3,4,1,34,0003-00-0000-99.png,0004-00-0009-17.png
00000009,456,0,1440431010152,1440431010176,877,280,0,0,0,4,5,1,45,0004-00-0005-16.png,0005-00-0007-29.png
00000009,457,1,1440431013163,1440431014073,406,273,0,0,0,2,3,1,23,0002-00-0006-69.png,0003-00-0000-14.png
00000009,458,0,1440431014939,1440431015354,997,538,0,0,0,3,4,1,34,0003-00-0005-02.png,0004-00-0006-57.png
00000009,459,1,1440431018211,1440431018283,901,436,0,0,0,2,1,1,21,0002-00-0008-28.png,0001-00-0003-32.png
00000009,460,0,1440431019124,1440431019330,930,514,0,0,0,4,5,1,45,0004-00-0002-30.png,0005-00-0003-85.png
00000009,461,0,1440431022524,1440431022564,939,332,0,0,0,1,2,1,12,0001-00-0008-29.png,0002-00-0007-58.png
00000009,462,1,1440431026161,1440431026666,936,347,0,0,0,5,4,1,54,0005-00-0005-71.png,0004-00-0004-43.png
00000009,463,1,1440431027542,1440431027638,861,480,0,0,0,3,2,1,32,0003-00-0009-08.png,0002-00-0007-39.png
00000009,464,1,1440431028903,1440431028943,862,420,0,0,0,4,3,1,43,0004-00-0003-22.png,0003-00-0008-40.png
00000009,465,0,1440431029919,1440431030607,928,529,0,0,0,4,5,1,45,0004-00-0004-36.png,0005-00-0000-21.png
00000009,466,1,1440431034079,1440431034625,933,349,0,0,0,2,1,1,21,0002-00-0001-18.png,0001-00-0005-24.png
00000009,467,0,1440431036207,1440431036329,917,358,0,0,0,3,4,1,34,0003-00-0007-81.png,0004-00-0005-44.png
00000009,468,1,1440431039278,1440431039350,940,423,0,0,0,5,4,1,54,0005-00-0004-36.png,0004-00-0005-25.png
00000009,469,0,1440431040237,1440431040627,862,488,0,0,0,1,2,1,12,0001-00-0007-60.png,0002-00-0006-73.png
00000009,470,1,1440431043780,1440431044312,939,306,0,0,0,3,2,1,32,0003-00-0001-25.png,0002-00-0003-18.png
00000009,471,1,1440431045877,1440431046499,481,253,0,0,0,2,3,1,23,0002-00-0009-27.png,0003-00-0009-97.png
00000009,472,1,1440431047417,1440431047481,888,462,0,0,0,4,3,1,43,0004-00-0009-04.png,0003-00-0007-74.png
00000009,473,1,1440431048847,1440431049177,897,462,0,0,0,3,2,1,32,0003-00-0008-95.png,0002-00-0005-06.png
00000009,474,1,1440431050278,1440431050350,888,473,0,0,0,4,3,1,43,0004-00-0008-38.png,0003-00-0005-59.png
00000009,475,1,1440431051190,1440431051313,887,481,0,0,0,2,1,1,21,0002-00-0004-72.png,0001-00-0003-46.png
00000009,476,1,1440431052174,1440431052239,866,460,0,0,0,5,4,1,54,0005-00-0001-58.png,0004-00-0002-87.png
00000009,477,0,1440431053067,1440431053137,888,476,0,0,0,2,3,1,23,0002-00-0009-08.png,0003-00-0003-68.png
00000009,478,0,1440431056220,1440431056770,914,324,0,0,0,1,2,1,12,0001-00-0008-82.png,0002-00-0002-32.png
00000009,479,0,1440431059920,1440431060423,934,322,0,0,0,3,4,1,34,0003-00-0001-33.png,0004-00-0000-13.png
00000009,480,0,1440431063517,1440431064077,916,333,0,0,0,4,5,1,45,0004-00-0006-92.png,0005-00-0004-35.png
00000009,481,1,1440431067181,1440431068417,446,258,0,0,0,2,3,1,23,0002-00-0004-64.png,0003-00-0008-62.png
00000009,482,0,1440431069320,1440431069537,885,485,0,0,0,3,4,1,34,0003-00-0008-25.png,0004-00-0005-42.png
00000009,483,0,1440431072589,1440431073131,1048,281,0,0,0,4,5,1,45,0004-00-0003-88.png,0005-00-0004-76.png
00000009,484,0,1440431076187,1440431076259,913,436,0,0,0,1,2,1,12,0001-00-0003-50.png,0002-00-0003-76.png
00000009,485,1,1440431079441,1440431079964,1109,284,0,0,0,3,2,1,32,0003-00-0000-31.png,0002-00-0003-76.png
00000009,486,1,1440431081784,1440431082369,1068,275,0,0,0,4,3,1,43,0004-00-0008-95.png,0003-00-0007-18.png
00000009,487,1,1440431084038,1440431084231,939,436,0,0,0,2,1,1,21,0002-00-0007-52.png,0001-00-0007-83.png
00000009,488,1,1440431085256,1440431086746,915,351,0,0,0,5,4,1,54,0005-00-0002-48.png,0004-00-0006-06.png
00000009,489,0,1440431087664,1440431087766,909,463,0,0,0,4,5,1,45,0004-00-0003-68.png,0005-00-0005-26.png
00000009,490,1,1440431090726,1440431091022,931,381,0,0,0,2,1,1,21,0002-00-0002-99.png,0001-00-0005-85.png
00000009,491,1,1440431091856,1440431092085,900,488,0,0,0,3,2,1,32,0003-00-0000-32.png,0002-00-0008-93.png
00000009,492,0,1440431093713,1440431093783,880,468,0,0,0,1,2,1,12,0001-00-0003-70.png,0002-00-0002-75.png
00000009,493,0,1440431097025,1440431097049,902,353,0,0,0,3,4,1,34,0003-00-0000-13.png,0004-00-0002-90.png
00000009,494,1,1440431100146,1440431100852,321,375,0,0,0,2,3,1,23,0002-00-0007-84.png,0003-00-0001-08.png
00000009,495,1,1440431101766,1440431101893,913,452,0,0,0,4,3,1,43,0004-00-0009-16.png,0003-00-0001-25.png
00000009,496,1,1440431102750,1440431102830,862,445,0,0,0,5,4,1,54,0005-00-0008-74.png,0004-00-0001-02.png
00000009,497,0,1440431103971,1440431104051,862,436,0,0,0,4,5,1,45,0004-00-0009-53.png,0005-00-0005-48.png
00000009,498,1,1440431107144,1440431107742,939,332,0,0,0,4,3,1,43,0004-00-0002-96.png,0003-00-0004-54.png
00000009,499,1,1440431109269,1440431110309,1024,258,0,0,0,5,4,1,54,0005-00-0003-27.png,0004-00-0006-52.png
00000009,500,0,1440431111782,1440431111910,882,491,0,0,0,1,2,1,12,0001-00-0000-52.png,0002-00-0005-55.png
00000009,501,0,1440431114753,1440431114777,871,437,0,0,0,3,4,1,34,0003-00-0000-27.png,0004-00-0002-35.png
00000009,502,1,1440431117627,1440431118180,916,284,0,0,0,2,1,1,21,0002-00-0008-02.png,0001-00-0008-54.png
00000009,503,1,1440431119803,1440431120223,975,410,0,0,0,3,2,1,32,0003-00-0006-51.png,0002-00-0001-94.png
00000009,504,0,1440431121115,1440431121250,935,458,0,0,0,2,3,1,23,0002-00-0007-77.png,0003-00-0006-52.png
00000009,505,1,1440431124473,1440431124506,962,304,0,0,0,2,1,1,21,0002-00-0003-96.png,0001-00-0006-58.png
00000009,506,1,1440431125517,1440431125589,874,462,0,0,0,5,4,1,54,0005-00-0006-74.png,0004-00-0003-43.png
00000009,507,1,1440431126430,1440431126482,862,447,0,0,0,3,2,1,32,0003-00-0003-67.png,0002-00-0001-29.png
00000009,508,0,1440431128070,1440431128264,907,454,0,0,0,1,2,1,12,0001-00-0009-45.png,0002-00-0009-63.png
00000009,509,0,1440431131110,1440431131656,896,320,0,0,0,4,5,1,45,0004-00-0003-37.png,0005-00-0003-23.png
00000009,510,0,1440431134798,1440431135335,1067,279,0,0,0,2,3,1,23,0002-00-0002-63.png,0003-00-0009-18.png
00000009,511,1,1440431138504,1440431139036,1086,269,0,0,0,4,3,1,43,0004-00-0006-37.png,0003-00-0008-52.png
00000009,512,1,1440431140552,1440431141174,428,279,0,0,0,3,4,1,34,0003-00-0007-92.png,0004-00-0003-89.png
00000009,513,0,1440431142044,1440431142477,923,462,0,0,0,1,2,1,12,0001-00-0004-16.png,0002-00-0006-20.png
00000009,514,0,1440431145640,1440431146188,990,425,0,0,0,2,3,1,23,0002-00-0008-84.png,0003-00-0008-64.png
00000009,515,1,1440431149258,1440431149502,936,357,0,0,0,3,2,1,32,0003-00-0005-81.png,0002-00-0008-36.png
00000009,516,1,1440431150405,1440431150603,888,420,0,0,0,5,4,1,54,0005-00-0000-03.png,0004-00-0001-19.png
00000009,517,1,1440431151693,1440431151765,888,449,0,0,0,4,3,1,43,0004-00-0005-43.png,0003-00-0008-79.png
00000009,518,0,1440431152837,1440431152942,913,436,0,0,0,4,5,1,45,0004-00-0005-92.png,0005-00-0000-21.png
00000009,519,0,1440431155886,1440431155914,862,373,0,0,0,3,4,1,34,0003-00-0006-71.png,0004-00-0005-23.png
00000009,520,1,1440431158860,1440431159374,1042,294,0,0,0,2,1,1,21,0002-00-0000-17.png,0001-00-0003-93.png
00000009,521,1,1440431160795,1440431160896,888,358,0,0,0,4,3,1,43,0004-00-0009-86.png,0003-00-0001-85.png
00000009,522,1,1440431162028,1440431162104,898,436,0,0,0,3,2,1,32,0003-00-0009-59.png,0002-00-0000-77.png
00000009,523,0,1440431163896,1440431163936,888,462,0,0,0,2,3,1,23,0002-00-0008-46.png,0003-00-0005-12.png
00000009,524,0,1440431167106,1440431167985,1158,244,0,0,0,3,4,1,34,0003-00-0004-03.png,0004-00-0002-03.png
00000009,525,0,1440431171201,1440431171241,885,296,0,0,0,4,5,1,45,0004-00-0006-02.png,0005-00-0009-75.png
00000009,526,1,1440431174086,1440431174645,929,338,0,0,0,2,1,1,21,0002-00-0003-57.png,0001-00-0000-81.png
00000009,527,1,1440431176179,1440431176267,912,363,0,0,0,5,4,1,54,0005-00-0000-65.png,0004-00-0004-43.png
00000009,528,0,1440431177428,1440431177492,899,436,0,0,0,1,2,1,12,0001-00-0009-01.png,0002-00-0001-76.png
00000009,529,0,1440431180743,1440431181246,913,323,0,0,0,2,3,1,23,0002-00-0003-35.png,0003-00-0000-57.png
00000009,530,1,1440431184067,1440431184664,1094,276,0,0,0,5,4,1,54,0005-00-0008-00.png,0004-00-0000-14.png
00000009,531,0,1440431185528,1440431186502,916,352,0,0,0,3,4,1,34,0003-00-0008-40.png,0004-00-0008-92.png
00000009,532,1,1440431189441,1440431190063,306,377,0,0,0,1,2,1,12,0001-00-0009-50.png,0002-00-0007-65.png
00000009,533,0,1440431190913,1440431191025,899,462,0,0,0,4,5,1,45,0004-00-0008-90.png,0005-00-0001-55.png
00000009,534,1,1440431194137,1440431194153,891,336,0,0,0,2,1,1,21,0002-00-0004-34.png,0001-00-0009-39.png
00000009,535,1,1440431195153,1440431196736,1010,248,0,0,0,3,2,1,32,0003-00-0003-07.png,0002-00-0001-77.png
00000009,536,1,1440431198052,1440431198164,917,421,0,0,0,4,3,1,43,0004-00-0009-66.png,0003-00-0006-50.png
00000009,537,0,1440431199053,1440431199097,883,440,0,0,0,3,4,1,34,0003-00-0001-01.png,0004-00-0004-34.png
00000009,538,0,1440431202304,1440431202316,937,350,0,0,0,4,5,1,45,0004-00-0005-35.png,0005-00-0005-54.png
00000009,539,1,1440431205475,1440431206041,1065,273,0,0,0,5,4,1,54,0005-00-0003-29.png,0004-00-0000-62.png
00000009,540,1,1440431207442,1440431207711,980,384,0,0,0,2,1,1,21,0002-00-0007-64.png,0001-00-0008-28.png
00000009,541,0,1440431208704,1440431208776,934,447,0,0,0,2,3,1,23,0002-00-0000-13.png,0003-00-0009-54.png
00000009,542,1,1440431211904,1440431212478,968,335,0,0,0,4,3,1,43,0004-00-0005-58.png,0003-00-0002-36.png
00000009,543,0,1440431214022,1440431214098,950,409,0,0,0,1,2,1,12,0001-00-0005-11.png,0002-00-0007-17.png
00000009,544,1,1440431217161,1440431217217,922,413,0,0,0,3,2,1,32,0003-00-0008-52.png,0002-00-0008-51.png
00000009,545,0,1440431218075,1440431218107,862,462,0,0,0,4,5,1,45,0004-00-0006-23.png,0005-00-0005-02.png
00000009,546,0,1440431221175,1440431221259,903,410,0,0,0,3,4,1,34,0003-00-0005-85.png,0004-00-0000-81.png
00000009,547,1,1440431224424,1440431224504,961,352,0,0,0,5,4,1,54,0005-00-0006-27.png,0004-00-0002-44.png
00000009,548,1,1440431225424,1440431225549,880,443,0,0,0,3,2,1,32,0003-00-0003-98.png,0002-00-0006-51.png
00000009,549,1,1440431226940,1440431227048,862,445,0,0,0,4,3,1,43,0004-00-0000-37.png,0003-00-0009-83.png
00000009,550,0,1440431227949,1440431228013,874,449,0,0,0,1,2,1,12,0001-00-0004-92.png,0002-00-0004-10.png
00000009,551,1,1440431230952,1440431231579,401,277,0,0,0,2,3,1,23,0002-00-0001-88.png,0003-00-0005-70.png
00000009,552,1,1440431232472,1440431232572,939,427,0,0,0,2,1,1,21,0002-00-0007-43.png,0001-00-0005-16.png
00000009,553,0,1440431233952,1440431235100,352,396,0,0,0,2,1,1,21,0002-00-0009-94.png,0001-00-0002-54.png
00000009,554,1,1440431237925,1440431238870,439,252,0,0,0,1,2,1,12,0001-00-0008-39.png,0002-00-0001-23.png
00000009,555,1,1440431240264,1440431240425,939,401,0,0,0,3,2,1,32,0003-00-0006-95.png,0002-00-0005-90.png
00000009,556,1,1440431241297,1440431241411,906,455,0,0,0,4,3,1,43,0004-00-0007-56.png,0003-00-0001-22.png
00000009,557,0,1440431242758,1440431242842,885,458,0,0,0,4,5,1,45,0004-00-0003-49.png,0005-00-0004-90.png
00000009,558,1,1440431245897,1440431246616,419,229,0,0,0,2,3,1,23,0002-00-0008-53.png,0003-00-0001-39.png
00000009,559,1,1440431248083,1440431248281,964,397,0,0,0,5,4,1,54,0005-00-0006-69.png,0004-00-0004-23.png
00000009,560,0,1440431249296,1440431249361,888,410,0,0,0,3,4,1,34,0003-00-0004-24.png,0004-00-0004-15.png
00000009,561,0,1440431252416,1440431252448,869,382,0,0,0,1,2,1,12,0001-00-0005-03.png,0002-00-0004-30.png
00000009,562,0,1440431255603,1440431256373,437,271,0,0,0,4,3,1,43,0004-00-0004-13.png,0003-00-0007-06.png
00000009,563,0,1440431259523,1440431259563,919,388,0,0,0,4,5,1,45,0004-00-0008-90.png,0005-00-0000-51.png
00000009,564,0,1440431262423,1440431263061,405,272,0,0,0,3,2,1,32,0003-00-0002-42.png,0002-00-0009-35.png
00000009,565,1,1440431266300,1440431266852,1069,252,0,0,0,5,4,1,54,0005-00-0005-68.png,0004-00-0008-92.png
00000009,566,1,1440431267680,1440431267800,939,421,0,0,0,2,1,1,21,0002-00-0004-82.png,0001-00-0000-50.png
00000009,567,0,1440431268785,1440431268861,900,445,0,0,0,2,3,1,23,0002-00-0009-11.png,0003-00-0007-74.png
00000009,568,1,1440431271726,1440431272301,429,303,0,0,0,3,4,1,34,0003-00-0000-81.png,0004-00-0003-79.png
00000009,569,1,1440431273157,1440431273261,899,436,0,0,0,3,2,1,32,0003-00-0003-90.png,0002-00-0005-22.png
00000009,570,0,1440431274737,1440431274845,905,462,0,0,0,2,3,1,23,0002-00-0009-04.png,0003-00-0009-01.png
00000009,571,1,1440431278018,1440431278569,1069,283,0,0,0,5,4,1,54,0005-00-0000-31.png,0004-00-0008-05.png
00000009,572,0,1440431280432,1440431281086,452,249,0,0,0,4,3,1,43,0004-00-0008-50.png,0003-00-0004-30.png
00000009,573,1,1440431284139,1440431284841,303,389,0,0,0,1,2,1,12,0001-00-0002-52.png,0002-00-0002-72.png
00000009,574,0,1440431286276,1440431286362,888,384,0,0,0,3,4,1,34,0003-00-0007-66.png,0004-00-0003-29.png
00000009,575,0,1440431289585,1440431290100,938,322,0,0,0,4,5,1,45,0004-00-0007-70.png,0005-00-0001-11.png
00000009,576,1,1440431293044,1440431293608,931,289,0,0,0,2,1,1,21,0002-00-0001-88.png,0001-00-0000-23.png
00000009,577,1,1440431295069,1440431295921,931,334,0,0,0,3,2,1,32,0003-00-0000-40.png,0002-00-0003-45.png
00000009,578,1,1440431297287,1440431297367,913,436,0,0,0,2,1,1,21,0002-00-0000-14.png,0001-00-0002-64.png
00000009,579,0,1440431298197,1440431298268,893,451,0,0,0,1,2,1,12,0001-00-0004-16.png,0002-00-0006-74.png
00000009,580,0,1440431301548,1440431301576,961,296,0,0,0,2,3,1,23,0002-00-0005-21.png,0003-00-0005-43.png
00000009,581,1,1440431304570,1440431304610,869,429,0,0,0,4,3,1,43,0004-00-0002-54.png,0003-00-0005-89.png
00000009,582,1,1440431305644,1440431305810,877,488,0,0,0,5,4,1,54,0005-00-0003-37.png,0004-00-0002-79.png
00000009,583,0,1440431307251,1440431307335,862,424,0,0,0,4,5,1,45,0004-00-0002-23.png,0005-00-0002-25.png
00000009,584,1,1440431310303,1440431311099,431,249,0,0,0,3,4,1,34,0003-00-0003-80.png,0004-00-0003-29.png
00000009,585,0,1440431311995,1440431312043,913,410,0,0,0,2,3,1,23,0002-00-0003-33.png,0003-00-0000-42.png
00000009,586,1,1440431315181,1440431315213,868,394,0,0,0,5,4,1,54,0005-00-0009-81.png,0004-00-0006-27.png
00000009,587,0,1440431316181,1440431316265,896,488,0,0,0,1,2,1,12,0001-00-0000-58.png,0002-00-0006-10.png
00000009,588,1,1440431319305,1440431319888,1041,279,0,0,0,4,3,1,43,0004-00-0009-09.png,0003-00-0007-14.png
00000009,589,1,1440431321341,1440431321491,945,356,0,0,0,3,2,1,32,0003-00-0004-15.png,0002-00-0003-41.png
00000009,590,0,1440431322665,1440431322766,913,421,0,0,0,3,4,1,34,0003-00-0008-93.png,0004-00-0009-70.png
00000009,591,1,1440431325915,1440431326438,964,384,0,0,0,2,1,1,21,0002-00-0004-87.png,0001-00-0009-62.png
00000009,592,0,1440431327842,1440431328052,929,384,0,0,0,4,5,1,45,0004-00-0007-81.png,0005-00-0005-14.png
00000009,593,1,1440431331219,1440431331747,930,338,0,0,0,4,3,1,43,0004-00-0006-54.png,0003-00-0002-92.png
00000009,594,1,1440431333108,1440431333255,955,359,0,0,0,5,4,1,54,0005-00-0002-68.png,0004-00-0009-24.png
00000009,595,0,1440431334249,1440431334341,882,420,0,0,0,1,2,1,12,0001-00-0002-49.png,0002-00-0006-34.png
00000009,596,1,1440431337265,1440431337849,938,413,0,0,0,3,2,1,32,0003-00-0008-89.png,0002-00-0001-54.png
00000009,597,0,1440431338684,1440431338724,888,441,0,0,0,4,5,1,45,0004-00-0007-06.png,0005-00-0001-48.png
00000009,598,0,1440431341595,1440431342412,436,263,0,0,0,2,1,1,21,0002-00-0009-18.png,0001-00-0006-86.png
00000009,599,0,1440431345568,1440431345620,911,387,0,0,0,3,4,1,34,0003-00-0001-97.png,0004-00-0008-69.png
00000009,600,1,1440431348742,1440431349355,413,266,0,0,0,2,3,1,23,0002-00-0004-87.png,0003-00-0001-85.png
00000009,601,1,1440431350251,1440431350341,964,398,0,0,0,3,2,1,32,0003-00-0000-09.png,0002-00-0007-53.png
00000009,602,0,1440431351303,1440431351380,894,428,0,0,0,4,5,1,45,0004-00-0007-55.png,0005-00-0006-77.png
00000009,603,0,1440431354770,1440431354802,911,334,0,0,0,2,3,1,23,0002-00-0003-73.png,0003-00-0004-12.png
00000009,604,1,1440431357932,1440431357996,888,358,0,0,0,2,1,1,21,0002-00-0004-93.png,0001-00-0005-24.png
00000009,605,0,1440431358832,1440431359008,910,460,0,0,0,3,4,1,34,0003-00-0001-00.png,0004-00-0009-41.png
00000009,606,1,1440431362102,1440431362138,884,380,0,0,0,4,3,1,43,0004-00-0001-62.png,0003-00-0007-54.png
00000009,607,1,1440431363056,1440431363839,865,486,0,0,0,5,4,1,54,0005-00-0002-95.png,0004-00-0004-18.png
00000009,608,0,1440431365290,1440431365378,894,425,0,0,0,1,2,1,12,0001-00-0001-53.png,0002-00-0008-33.png
00000009,609,0,1440431368531,1440431369058,959,323,0,0,0,4,5,1,45,0004-00-0000-70.png,0005-00-0009-91.png
00000009,610,1,1440431372236,1440431372848,939,373,0,0,0,2,1,1,21,0002-00-0002-26.png,0001-00-0003-85.png
00000009,611,1,1440431374372,1440431374416,921,319,0,0,0,4,3,1,43,0004-00-0008-94.png,0003-00-0000-40.png
00000009,612,1,1440431375307,1440431376749,1034,284,0,0,0,3,2,1,32,0003-00-0006-44.png,0002-00-0007-58.png
00000009,613,0,1440431378111,1440431378390,904,412,0,0,0,3,4,1,34,0003-00-0007-68.png,0004-00-0002-80.png
00000009,614,0,1440431381500,1440431381524,890,359,0,0,0,1,2,1,12,0001-00-0000-63.png,0002-00-0002-19.png
00000009,615,1,1440431384470,1440431385040,425,298,0,0,0,2,3,1,23,0002-00-0002-89.png,0003-00-0008-51.png
00000009,616,1,1440431385931,1440431386019,939,420,0,0,0,5,4,1,54,0005-00-0007-58.png,0004-00-0008-27.png
00000009,617,1,1440431387344,1440431388426,432,285,0,0,0,1,2,1,12,0001-00-0003-79.png,0002-00-0005-65.png
00000009,618,1,1440431389325,1440431389521,878,488,0,0,0,2,1,1,21,0002-00-0009-97.png,0001-00-0002-25.png
00000009,619,1,1440431390915,1440431390983,880,417,0,0,0,4,3,1,43,0004-00-0003-42.png,0003-00-0001-61.png
00000009,620,0,1440431392541,1440431392645,888,445,0,0,0,3,4,1,34,0003-00-0009-09.png,0004-00-0001-23.png
00000009,621,1,1440431395903,1440431396476,1042,258,0,0,0,5,4,1,54,0005-00-0005-88.png,0004-00-0006-14.png
00000009,622,0,1440431397609,1440431398485,894,328,0,0,0,2,3,1,23,0002-00-0005-20.png,0003-00-0006-64.png
00000009,623,1,1440431401358,1440431401422,896,410,0,0,0,3,2,1,32,0003-00-0001-25.png,0002-00-0000-35.png
00000009,624,0,1440431403238,1440431403278,916,322,0,0,0,4,5,1,45,0004-00-0003-11.png,0005-00-0002-86.png
00000009,625,1,1440431406448,1440431406504,913,358,0,0,0,4,3,1,43,0004-00-0001-05.png,0003-00-0002-46.png
00000009,626,1,1440431407412,1440431407820,945,458,0,0,0,2,1,1,21,0002-00-0004-54.png,0001-00-0003-65.png
00000009,627,1,1440431408697,1440431409901,437,253,0,0,0,2,3,1,23,0002-00-0003-72.png,0003-00-0009-10.png
00000009,628,1,1440431410822,1440431410922,942,471,0,0,0,5,4,1,54,0005-00-0002-75.png,0004-00-0004-52.png
00000009,629,0,1440431412080,1440431413243,892,349,0,0,0,1,2,1,12,0001-00-0005-57.png,0002-00-0007-83.png
00000009,630,1,1440431416317,1440431416882,904,347,0,0,0,3,2,1,32,0003-00-0001-16.png,0002-00-0005-34.png
00000009,631,0,1440431418444,1440431418712,865,433,0,0,0,3,4,1,34,0003-00-0003-34.png,0004-00-0000-78.png
00000009,632,0,1440431421928,1440431421960,902,361,0,0,0,4,5,1,45,0004-00-0000-08.png,0005-00-0004-07.png
00000009,633,1,1440431425100,1440431425717,348,349,0,0,0,3,4,1,34,0003-00-0008-41.png,0004-00-0000-04.png
00000009,634,1,1440431427276,1440431428136,955,368,0,0,0,3,2,1,32,0003-00-0004-39.png,0002-00-0004-42.png
00000009,635,0,1440431429533,1440431429620,869,403,0,0,0,4,5,1,45,0004-00-0004-74.png,0005-00-0002-92.png
00000009,636,1,1440431432800,1440431432852,928,334,0,0,0,2,1,1,21,0002-00-0004-90.png,0001-00-0008-99.png
00000009,637,1,1440431433800,1440431434829,406,270,0,0,0,1,2,1,12,0001-00-0001-76.png,0002-00-0009-04.png
00000009,638,1,1440431435724,1440431436944,1032,279,0,0,0,4,3,1,43,0004-00-0000-05.png,0003-00-0004-91.png
00000009,639,0,1440431438866,1440431439476,490,277,0,0,0,5,4,1,54,0005-00-0007-51.png,0004-00-0006-58.png
00000009,640,1,1440431442730,1440431443404,412,270,0,0,0,2,3,1,23,0002-00-0005-54.png,0003-00-0008-20.png
00000009,641,1,1440431444330,1440431444370,872,462,0,0,0,2,1,1,21,0002-00-0004-40.png,0001-00-0003-88.png
00000009,642,1,1440431446040,1440431446895,334,394,0,0,0,3,4,1,34,0003-00-0002-22.png,0004-00-0000-42.png
00000009,643,1,1440431447855,1440431449130,1045,271,0,0,0,4,3,1,43,0004-00-0004-99.png,0003-00-0002-68.png
00000009,644,0,1440431450797,1440431451004,935,388,0,0,0,4,5,1,45,0004-00-0006-13.png,0005-00-0008-54.png
00000009,645,0,1440431454108,1440431454750,452,296,0,0,0,3,2,1,32,0003-00-0005-07.png,0002-00-0009-49.png
00000009,646,1,1440431457933,1440431458469,1095,288,0,0,0,5,4,1,54,0005-00-0002-19.png,0004-00-0008-29.png
00000009,647,0,1440431459325,1440431459357,888,423,0,0,0,2,3,1,23,0002-00-0004-27.png,0003-00-0004-60.png
00000009,648,0,1440431462295,1440431462889,1063,249,0,0,0,1,2,1,12,0001-00-0009-33.png,0002-00-0005-96.png
00000009,649,0,1440431466119,1440431466167,860,357,0,0,0,3,4,1,34,0003-00-0002-91.png,0004-00-0001-95.png
00000009,650,1,1440431469350,1440431469913,913,333,0,0,0,5,4,1,54,0005-00-0004-16.png,0004-00-0006-15.png
00000009,651,0,1440431471547,1440431472109,446,275,0,0,0,2,1,1,21,0002-00-0008-41.png,0001-00-0007-37.png
00000009,652,0,1440431475294,1440431475779,1067,282,0,0,0,1,2,1,12,0001-00-0002-54.png,0002-00-0001-76.png
00000009,653,0,1440431478901,1440431478965,910,410,0,0,0,4,5,1,45,0004-00-0001-27.png,0005-00-0005-11.png
00000009,654,1,1440431481843,1440431482405,359,378,0,0,0,2,3,1,23,0002-00-0002-15.png,0003-00-0003-14.png
00000009,655,1,1440431483291,1440431483355,862,410,0,0,0,3,2,1,32,0003-00-0000-68.png,0002-00-0002-66.png
00000009,656,1,1440431484455,1440431485231,879,497,0,0,0,4,3,1,43,0004-00-0007-80.png,0003-00-0005-99.png
00000009,657,1,1440431486147,1440431486219,902,379,0,0,0,2,1,1,21,0002-00-0001-42.png,0001-00-0006-54.png
00000009,658,0,1440431487053,1440431488211,939,331,0,0,0,4,5,1,45,0004-00-0003-60.png,0005-00-0007-77.png
00000009,659,1,1440431491373,1440431491968,318,360,0,0,0,3,4,1,34,0003-00-0007-26.png,0004-00-0005-68.png
00000009,660,0,1440431492842,1440431492922,888,393,0,0,0,2,3,1,23,0002-00-0008-16.png,0003-00-0005-62.png
00000009,661,1,1440431496459,1440431496507,910,328,0,0,0,4,3,1,43,0004-00-0009-40.png,0003-00-0002-80.png
00000009,662,1,1440431497395,1440431498344,873,389,0,0,0,3,2,1,32,0003-00-0006-58.png,0002-00-0005-72.png
00000009,663,1,1440431499879,1440431500653,1016,250,0,0,0,5,4,1,54,0005-00-0001-58.png,0004-00-0005-79.png
00000009,664,0,1440431501806,1440431501866,892,428,0,0,0,1,2,1,12,0001-00-0004-27.png,0002-00-0005-41.png
00000009,665,1,1440431504958,1440431505006,913,332,0,0,0,5,4,1,54,0005-00-0006-94.png,0004-00-0005-76.png
00000009,666,0,1440431505923,1440431506069,879,469,0,0,0,3,4,1,34,0003-00-0000-75.png,0004-00-0002-15.png
00000009,667,0,1440431509262,1440431509282,913,384,0,0,0,4,5,1,45,0004-00-0003-15.png,0005-00-0008-12.png
00000009,668,0,1440431512233,1440431512312,867,438,0,0,0,2,3,1,23,0002-00-0009-39.png,0003-00-0001-33.png
00000009,669,1,1440431515521,1440431516113,453,279,0,0,0,1,2,1,12,0001-00-0008-53.png,0002-00-0007-37.png
00000009,670,1,1440431517024,1440431517104,905,436,0,0,0,3,2,1,32,0003-00-0006-73.png,0002-00-0009-23.png
00000009,671,0,1440431518772,1440431519550,473,242,0,0,0,4,3,1,43,0004-00-0004-13.png,0003-00-0008-07.png
00000009,672,1,1440431522706,1440431522782,978,329,0,0,0,2,1,1,21,0002-00-0008-68.png,0001-00-0004-64.png
00000009,673,1,1440431523711,1440431523827,901,436,0,0,0,3,2,1,32,0003-00-0006-94.png,0002-00-0009-65.png
00000009,674,0,1440431525327,1440431525411,913,410,0,0,0,1,2,1,12,0001-00-0001-59.png,0002-00-0005-46.png
00000009,675,0,1440431528554,1440431529052,954,322,0,0,0,2,3,1,23,0002-00-0000-58.png,0003-00-0002-81.png
00000009,676,1,1440431532454,1440431532478,913,421,0,0,0,2,1,1,21,0002-00-0009-65.png,0001-00-0002-87.png
00000009,677,1,1440431533459,1440431533551,895,390,0,0,0,5,4,1,54,0005-00-0006-00.png,0004-00-0007-58.png
00000009,678,1,1440431534481,1440431535941,899,326,0,0,0,4,3,1,43,0004-00-0009-81.png,0003-00-0000-72.png
00000009,679,0,1440431537733,1440431538316,1080,287,0,0,0,3,4,1,34,0003-00-0008-27.png,0004-00-0000-23.png
00000009,680,0,1440431541218,1440431541238,910,409,0,0,0,4,5,1,45,0004-00-0004-79.png,0005-00-0006-90.png
00000009,681,1,1440431544261,1440431544918,434,267,0,0,0,2,3,1,23,0002-00-0006-13.png,0003-00-0003-69.png
00000009,682,1,1440431545770,1440431545854,939,398,0,0,0,5,4,1,54,0005-00-0000-89.png,0004-00-0006-50.png
00000009,683,0,1440431547282,1440431547382,862,422,0,0,0,1,2,1,12,0001-00-0003-92.png,0002-00-0009-86.png
00000009,684,0,1440431550481,1440431551262,443,256,0,0,0,4,3,1,43,0004-00-0008-65.png,0003-00-0001-47.png
00000009,685,0,1440431554466,1440431554498,917,378,0,0,0,3,4,1,34,0003-00-0009-45.png,0004-00-0006-23.png
00000009,686,0,1440431557667,1440431557739,943,370,0,0,0,4,5,1,45,0004-00-0008-40.png,0005-00-0006-00.png
00000009,687,1,1440431560877,1440431560909,942,384,0,0,0,2,1,1,21,0002-00-0007-69.png,0001-00-0007-02.png
00000009,688,1,1440431561892,1440431562040,913,452,0,0,0,3,2,1,32,0003-00-0004-28.png,0002-00-0004-25.png
00000009,689,1,1440431563647,1440431564059,913,514,0,0,0,4,3,1,43,0004-00-0002-95.png,0003-00-0006-58.png
00000009,690,1,1440431565088,1440431565160,951,358,0,0,0,2,1,1,21,0002-00-0006-49.png,0001-00-0008-21.png
00000009,691,1,1440431565996,1440431566048,862,396,0,0,0,3,2,1,32,0003-00-0001-15.png,0002-00-0006-21.png
00000009,692,0,1440431566917,1440431566969,871,412,0,0,0,1,2,1,12,0001-00-0008-42.png,0002-00-0005-79.png
00000009,693,0,1440431570305,1440431570960,957,391,0,0,0,3,4,1,34,0003-00-0005-24.png,0004-00-0003-11.png
00000009,694,1,1440431574120,1440431574826,1069,278,0,0,0,5,4,1,54,0005-00-0001-61.png,0004-00-0008-70.png
00000009,695,1,1440431576319,1440431577052,462,230,0,0,0,2,3,1,23,0002-00-0006-21.png,0003-00-0007-36.png
00000009,696,0,1440431577938,1440431577990,913,400,0,0,0,4,5,1,45,0004-00-0000-28.png,0005-00-0009-71.png
00000009,697,0,1440431580869,1440431581747,422,271,0,0,0,4,3,1,43,0004-00-0009-67.png,0003-00-0006-42.png
00000009,698,1,1440431584896,1440431584948,1003,384,0,0,0,3,2,1,32,0003-00-0002-14.png,0002-00-0002-07.png
00000009,699,0,1440431585809,1440431585926,913,462,0,0,0,4,5,1,45,0004-00-0004-93.png,0005-00-0001-37.png
00000009,700,1,1440431588774,1440431589505,1076,249,0,0,0,5,4,1,54,0005-00-0008-07.png,0004-00-0000-87.png
00000009,701,0,1440431591206,1440431591924,935,330,0,0,0,3,4,1,34,0003-00-0007-81.png,0004-00-0004-65.png
00000009,702,1,1440431594833,1440431595549,438,261,0,0,0,1,2,1,12,0001-00-0007-19.png,0002-00-0008-59.png
00000009,703,0,1440431596444,1440431596508,938,406,0,0,0,2,3,1,23,0002-00-0000-66.png,0003-00-0001-22.png
00000009,704,1,1440431599674,1440431599726,939,344,0,0,0,2,1,1,21,0002-00-0003-04.png,0001-00-0004-78.png
00000009,705,0,1440431600656,1440431600756,868,470,0,0,0,1,2,1,12,0001-00-0002-48.png,0002-00-0004-32.png
00000009,706,1,1440431603658,1440431604193,966,338,0,0,0,4,3,1,43,0004-00-0005-87.png,0003-00-0004-49.png
00000009,707,1,1440431605795,1440431605863,876,372,0,0,0,2,1,1,21,0002-00-0001-02.png,0001-00-0002-62.png
00000009,708,0,1440431606935,1440431607039,893,452,0,0,0,3,4,1,34,0003-00-0008-12.png,0004-00-0007-22.png
00000009,709,0,1440431610175,1440431610900,463,239,0,0,0,5,4,1,54,0005-00-0006-61.png,0004-00-0000-68.png
00000009,710,1,1440431613793,1440431613821,924,494,0,0,0,3,2,1,32,0003-00-0009-37.png,0002-00-0005-98.png
00000009,711,0,1440431614719,1440431614799,930,436,0,0,0,4,5,1,45,0004-00-0001-97.png,0005-00-0007-13.png
00000009,712,0,1440431617876,1440431617948,903,388,0,0,0,2,3,1,23,0002-00-0009-78.png,0003-00-0008-96.png
00000009,713,0,1440431621127,1440431621766,921,326,0,0,0,4,5,1,45,0004-00-0005-92.png,0005-00-0002-37.png
00000009,714,0,1440431624984,1440431625644,437,259,0,0,0,4,3,1,43,0004-00-0002-71.png,0003-00-0001-71.png
00000009,715,1,1440431628729,1440431628753,877,385,0,0,0,5,4,1,54,0005-00-0005-11.png,0004-00-0002-83.png
00000009,716,1,1440431629701,1440431629773,894,389,0,0,0,3,2,1,32,0003-00-0003-53.png,0002-00-0004-96.png
00000009,717,0,1440431631431,1440431631483,862,410,0,0,0,1,2,1,12,0001-00-0000-34.png,0002-00-0002-44.png
00000009,718,1,1440431634682,1440431634750,988,312,0,0,0,2,1,1,21,0002-00-0002-39.png,0001-00-0002-49.png
00000009,719,0,1440431635655,1440431636620,889,345,0,0,0,3,4,1,34,0003-00-0005-60.png,0004-00-0003-80.png
00000009,720,0,1440431639818,1440431639870,953,335,0,0,0,2,3,1,23,0002-00-0008-65.png,0003-00-0000-99.png
00000009,721,0,1440431643030,1440431643070,919,336,0,0,0,3,4,1,34,0003-00-0005-63.png,0004-00-0009-57.png
00000009,722,1,1440431646198,1440431646745,965,331,0,0,0,4,3,1,43,0004-00-0000-33.png,0003-00-0001-84.png
00000009,723,1,1440431648477,1440431649043,959,317,0,0,0,2,1,1,21,0002-00-0000-53.png,0001-00-0006-97.png
00000009,724,0,1440431650663,1440431650735,868,403,0,0,0,4,5,1,45,0004-00-0008-72.png,0005-00-0003-28.png
00000009,725,0,1440431653941,1440431653961,939,332,0,0,0,2,3,1,23,0002-00-0009-96.png,0003-00-0003-67.png
00000009,726,1,1440431657221,1440431657853,435,246,0,0,0,1,2,1,12,0001-00-0001-05.png,0002-00-0000-94.png
00000009,727,1,1440431658750,1440431658830,862,436,0,0,0,3,2,1,32,0003-00-0006-48.png,0002-00-0000-66.png
00000009,728,1,1440431660171,1440431661216,885,329,0,0,0,5,4,1,54,0005-00-0006-83.png,0004-00-0002-11.png
00000009,729,1,1440431662696,1440431662811,888,410,0,0,0,5,4,1,54,0005-00-0003-75.png,0004-00-0008-27.png
00000009,730,1,1440431663907,1440431663973,859,454,0,0,0,4,3,1,43,0004-00-0004-04.png,0003-00-0004-98.png
00000009,731,1,1440431665237,1440431665305,874,443,0,0,0,2,1,1,21,0002-00-0006-26.png,0001-00-0007-57.png
00000009,732,1,1440431666330,1440431666382,892,443,0,0,0,3,2,1,32,0003-00-0000-90.png,0002-00-0008-31.png
00000009,733,0,1440431667582,1440431667630,859,450,0,0,0,4,5,1,45,0004-00-0006-65.png,0005-00-0003-61.png
00000009,734,1,1440431670771,1440431671364,338,390,0,0,0,1,2,1,12,0001-00-0006-41.png,0002-00-0007-45.png
00000009,735,0,1440431672242,1440431672318,939,449,0,0,0,3,4,1,34,0003-00-0007-52.png,0004-00-0003-96.png
00000009,736,0,1440431675483,1440431675508,915,351,0,0,0,2,3,1,23,0002-00-0000-67.png,0003-00-0005-60.png
00000009,737,1,1440431678696,1440431678782,1005,337,0,0,0,3,2,1,32,0003-00-0009-25.png,0002-00-0009-69.png
00000009,738,0,1440431679778,1440431679826,949,432,0,0,0,4,5,1,45,0004-00-0004-40.png,0005-00-0001-92.png
00000009,739,1,1440431682998,1440431683559,1073,271,0,0,0,5,4,1,54,0005-00-0009-75.png,0004-00-0008-23.png
00000009,740,1,1440431685081,1440431685731,1041,270,0,0,0,2,1,1,21,0002-00-0009-28.png,0001-00-0007-86.png
00000009,741,0,1440431687410,1440431687490,888,422,0,0,0,3,4,1,34,0003-00-0006-72.png,0004-00-0004-89.png
00000009,742,1,1440431690332,1440431691071,445,248,0,0,0,1,2,1,12,0001-00-0006-13.png,0002-00-0004-40.png
00000009,743,1,1440431691971,1440431692160,931,436,0,0,0,4,3,1,43,0004-00-0009-19.png,0003-00-0007-52.png
00000009,744,0,1440431693082,1440431693146,888,424,0,0,0,2,3,1,23,0002-00-0000-75.png,0003-00-0006-24.png
00000009,745,1,1440431696081,1440431696105,914,363,0,0,0,2,1,1,21,0002-00-0009-33.png,0001-00-0004-45.png
00000009,746,0,1440431697022,1440431697098,905,504,0,0,0,1,2,1,12,0001-00-0004-29.png,0002-00-0008-57.png
00000009,747,1,1440431700188,1440431700801,910,312,0,0,0,3,2,1,32,0003-00-0004-95.png,0002-00-0006-37.png
00000009,748,0,1440431702278,1440431702388,925,385,0,0,0,2,3,1,23,0002-00-0007-36.png,0003-00-0001-32.png
00000009,749,1,1440431705367,1440431706041,440,292,0,0,0,3,4,1,34,0003-00-0001-10.png,0004-00-0007-17.png
00000009,750,0,1440431706895,1440431707001,888,410,0,0,0,4,5,1,45,0004-00-0007-64.png,0005-00-0006-20.png
00000009,751,1,1440431710096,1440431710148,969,382,0,0,0,5,4,1,54,0005-00-0000-15.png,0004-00-0001-72.png
00000009,752,1,1440431711102,1440431711214,897,436,0,0,0,4,3,1,43,0004-00-0004-37.png,0003-00-0002-86.png
00000009,753,0,1440431712798,1440431712850,858,441,0,0,0,4,5,1,45,0004-00-0000-84.png,0005-00-0003-74.png
00000009,754,1,1440431716050,1440431716604,948,350,0,0,0,4,3,1,43,0004-00-0007-16.png,0003-00-0002-50.png
00000009,755,0,1440431718067,1440431718247,907,399,0,0,0,1,2,1,12,0001-00-0003-07.png,0002-00-0006-49.png
00000009,756,1,1440431721146,1440431721741,1064,287,0,0,0,3,2,1,32,0003-00-0004-55.png,0002-00-0000-27.png
00000009,757,1,1440431723277,1440431723381,913,419,0,0,0,2,1,1,21,0002-00-0003-89.png,0001-00-0007-35.png
00000009,758,1,1440431724356,1440431724420,888,474,0,0,0,5,4,1,54,0005-00-0004-85.png,0004-00-0007-82.png
00000009,759,0,1440431725287,1440431725363,886,466,0,0,0,2,3,1,23,0002-00-0009-09.png,0003-00-0005-00.png
00000009,760,0,1440431728303,1440431728383,901,345,0,0,0,3,4,1,34,0003-00-0000-55.png,0004-00-0001-28.png
00000009,761,1,1440431731453,1440431731508,899,358,0,0,0,2,1,1,21,0002-00-0006-89.png,0001-00-0008-98.png
00000009,762,1,1440431732414,1440431732537,913,423,0,0,0,3,2,1,32,0003-00-0002-40.png,0002-00-0007-98.png
00000009,763,0,1440431733418,1440431733490,875,436,0,0,0,1,2,1,12,0001-00-0000-64.png,0002-00-0004-89.png
00000009,764,1,1440431736338,1440431736362,868,389,0,0,0,5,4,1,54,0005-00-0007-63.png,0004-00-0001-59.png
00000009,765,0,1440431737381,1440431737445,920,490,0,0,0,4,5,1,45,0004-00-0002-71.png,0005-00-0008-50.png
00000009,766,1,1440431740644,1440431740705,913,384,0,0,0,4,3,1,43,0004-00-0005-54.png,0003-00-0009-50.png
00000009,767,0,1440431741544,1440431741618,878,436,0,0,0,3,4,1,34,0003-00-0001-47.png,0004-00-0001-88.png
00000009,768,0,1440431744578,1440431744646,862,435,0,0,0,2,3,1,23,0002-00-0003-27.png,0003-00-0004-14.png
00000009,769,0,1440431747748,1440431747828,914,351,0,0,0,3,4,1,34,0003-00-0008-89.png,0004-00-0009-64.png
00000009,770,1,1440431751000,1440431751550,1073,304,0,0,0,5,4,1,54,0005-00-0000-60.png,0004-00-0001-46.png
00000009,771,0,1440431753018,1440431753173,913,410,0,0,0,1,2,1,12,0001-00-0002-36.png,0002-00-0000-98.png
00000009,772,1,1440431756276,1440431756304,872,406,0,0,0,2,1,1,21,0002-00-0001-08.png,0001-00-0004-90.png
00000009,773,1,1440431757178,1440431757295,913,450,0,0,0,3,2,1,32,0003-00-0002-34.png,0002-00-0000-90.png
00000009,774,0,1440431758956,1440431759020,899,436,0,0,0,2,3,1,23,0002-00-0003-08.png,0003-00-0003-75.png
00000009,775,1,1440431762148,1440431762168,919,353,0,0,0,4,3,1,43,0004-00-0008-39.png,0003-00-0008-16.png
00000009,776,0,1440431763100,1440431763194,955,444,0,0,0,4,5,1,45,0004-00-0001-78.png,0005-00-0001-51.png
00000009,777,0,1440431766060,1440431766650,428,271,0,0,0,2,1,1,21,0002-00-0004-80.png,0001-00-0002-79.png
00000009,778,1,1440431769800,1440431770434,437,279,0,0,0,2,3,1,23,0002-00-0001-41.png,0003-00-0001-53.png
00000009,779,0,1440431771390,1440431771458,913,400,0,0,0,3,4,1,34,0003-00-0005-12.png,0004-00-0000-43.png
00000009,780,0,1440431774610,1440431774686,939,358,0,0,0,1,2,1,12,0001-00-0002-62.png,0002-00-0004-05.png
00000009,781,1,1440431777899,1440431778425,917,323,0,0,0,4,3,1,43,0004-00-0007-10.png,0003-00-0004-11.png
00000009,782,0,1440431780203,1440431780817,1069,284,0,0,0,4,5,1,45,0004-00-0006-69.png,0005-00-0008-70.png
00000009,783,1,1440431783821,1440431784404,971,336,0,0,0,3,2,1,32,0003-00-0009-99.png,0002-00-0000-84.png
00000009,784,1,1440431785857,1440431785929,862,358,0,0,0,5,4,1,54,0005-00-0006-77.png,0004-00-0008-91.png
00000009,785,0,1440431786900,1440431786959,879,446,0,0,0,2,3,1,23,0002-00-0009-63.png,0003-00-0008-77.png
00000009,786,1,1440431790122,1440431790771,459,243,0,0,0,1,2,1,12,0001-00-0003-56.png,0002-00-0000-99.png
00000009,787,0,1440431791742,1440431791826,972,430,0,0,0,4,5,1,45,0004-00-0003-92.png,0005-00-0008-22.png
00000009,788,0,1440431795022,1440431795062,933,332,0,0,0,3,4,1,34,0003-00-0009-14.png,0004-00-0007-08.png
00000009,789,1,1440431798242,1440431798954,1039,284,0,0,0,5,4,1,54,0005-00-0004-86.png,0004-00-0007-55.png
00000009,790,1,1440431800844,1440431801400,1091,279,0,0,0,4,3,1,43,0004-00-0004-39.png,0003-00-0007-09.png
00000009,791,1,1440431802980,1440431803092,888,451,0,0,0,2,1,1,21,0002-00-0009-65.png,0001-00-0007-89.png
00000009,792,1,1440431803983,1440431804035,862,436,0,0,0,3,2,1,32,0003-00-0003-83.png,0002-00-0009-96.png
00000009,793,0,1440431805314,1440431805378,894,420,0,0,0,3,4,1,34,0003-00-0009-69.png,0004-00-0008-33.png
00000009,794,1,1440431808326,1440431808425,927,410,0,0,0,3,2,1,32,0003-00-0008-40.png,0002-00-0006-30.png
00000009,795,1,1440431809401,1440431809417,913,453,0,0,0,4,3,1,43,0004-00-0002-94.png,0003-00-0003-26.png
00000009,796,0,1440431811705,1440431812453,459,221,0,0,0,2,1,1,21,0002-00-0005-50.png,0001-00-0006-06.png
00000009,797,1,1440431815699,1440431816347,340,387,0,0,0,1,2,1,12,0001-00-0004-63.png,0002-00-0007-51.png
00000009,798,0,1440431817297,1440431817353,913,488,0,0,0,2,3,1,23,0002-00-0009-32.png,0003-00-0009-58.png
00000009,799,1,1440431820251,1440431820926,376,263,0,0,0,4,5,1,45,0004-00-0009-02.png,0005-00-0000-67.png
00000009,800,1,1440431821843,1440431821899,981,405,0,0,0,5,4,1,54,0005-00-0005-85.png,0004-00-0004-34.png
00000009,801,1,1440431822725,1440431822985,870,462,0,0,0,4,3,1,43,0004-00-0009-15.png,0003-00-0009-67.png
00000009,802,1,1440431824145,1440431824217,872,427,0,0,0,3,2,1,32,0003-00-0009-52.png,0002-00-0008-60.png
00000009,803,0,1440431825229,1440431825313,877,460,0,0,0,4,5,1,45,0004-00-0005-27.png,0005-00-0003-09.png
00000009,804,0,1440431828544,1440431828568,962,320,0,0,0,2,3,1,23,0002-00-0002-34.png,0003-00-0004-57.png
00000009,805,1,1440431831809,1440431831861,899,358,0,0,0,5,4,1,54,0005-00-0006-45.png,0004-00-0002-84.png
00000009,806,0,1440431832873,1440431832940,862,471,0,0,0,1,2,1,12,0001-00-0008-57.png,0002-00-0000-97.png
00000009,807,1,1440431835923,1440431836447,1044,275,0,0,0,2,1,1,21,0002-00-0009-05.png,0001-00-0007-19.png
00000009,808,0,1440431837277,1440431837352,930,458,0,0,0,3,4,1,34,0003-00-0005-35.png,0004-00-0003-09.png
00000009,809,1,1440431840196,1440431841209,423,262,0,0,0,2,3,1,23,0002-00-0002-24.png,0003-00-0005-04.png
00000009,810,1,1440431842108,1440431842199,916,480,0,0,0,4,3,1,43,0004-00-0000-20.png,0003-00-0006-47.png
00000009,811,0,1440431843215,1440431843311,862,449,0,0,0,3,4,1,34,0003-00-0003-27.png,0004-00-0003-25.png
00000009,812,1,1440431846593,1440431847135,439,286,0,0,0,1,2,1,12,0001-00-0009-54.png,0002-00-0003-45.png
00000009,813,1,1440431848056,1440431848124,939,448,0,0,0,3,2,1,32,0003-00-0008-24.png,0002-00-0002-02.png
00000009,814,0,1440431849684,1440431850472,904,381,0,0,0,4,5,1,45,0004-00-0004-16.png,0005-00-0009-61.png
00000009,815,1,1440431853621,1440431853673,889,390,0,0,0,2,1,1,21,0002-00-0001-81.png,0001-00-0005-21.png
00000009,816,1,1440431854735,1440431854775,944,493,0,0,0,5,4,1,54,0005-00-0009-03.png,0004-00-0008-73.png
00000009,817,1,1440431856284,1440431856348,862,410,0,0,0,2,1,1,21,0002-00-0002-75.png,0001-00-0009-38.png
00000009,818,0,1440431857267,1440431857323,866,447,0,0,0,2,3,1,23,0002-00-0006-11.png,0003-00-0002-44.png
00000009,819,0,1440431860596,1440431860616,915,332,0,0,0,3,4,1,34,0003-00-0007-40.png,0004-00-0006-40.png
00000009,820,0,1440431863537,1440431863569,872,393,0,0,0,1,2,1,12,0001-00-0001-00.png,0002-00-0001-48.png
00000009,821,1,1440431866689,1440431867189,1068,281,0,0,0,4,3,1,43,0004-00-0003-84.png,0003-00-0000-61.png
00000009,822,1,1440431868030,1440431868134,871,462,0,0,0,5,4,1,54,0005-00-0008-43.png,0004-00-0004-52.png
00000009,823,1,1440431869766,1440431869838,869,455,0,0,0,3,2,1,32,0003-00-0001-34.png,0002-00-0005-61.png
00000009,824,0,1440431870800,1440431871037,862,462,0,0,0,4,5,1,45,0004-00-0001-12.png,0005-00-0003-91.png
00000009,825,1,1440431874176,1440431874806,955,338,0,0,0,3,2,1,32,0003-00-0006-26.png,0002-00-0005-70.png
00000009,826,0,1440431875666,1440431875749,879,436,0,0,0,3,4,1,34,0003-00-0007-06.png,0004-00-0008-62.png
00000009,827,0,1440431878928,1440431878952,889,353,0,0,0,1,2,1,12,0001-00-0003-06.png,0002-00-0004-79.png
00000009,828,1,1440431882110,1440431882134,897,358,0,0,0,2,1,1,21,0002-00-0002-88.png,0001-00-0000-14.png
00000009,829,0,1440431883141,1440431883197,964,410,0,0,0,2,3,1,23,0002-00-0006-32.png,0003-00-0006-81.png
00000009,830,0,1440431886033,1440431886819,434,277,0,0,0,5,4,1,54,0005-00-0005-97.png,0004-00-0003-84.png
00000009,831,1,1440431889659,1440431890242,1041,270,0,0,0,4,3,1,43,0004-00-0002-22.png,0003-00-0000-93.png
00000009,832,0,1440431891081,1440431891715,913,541,0,0,0,4,5,1,45,0004-00-0009-40.png,0005-00-0001-45.png
00000009,833,0,1440431894691,1440431895274,1024,274,0,0,0,4,5,1,45,0004-00-0000-53.png,0005-00-0006-28.png
00000009,834,1,1440431898199,1440431898811,391,265,0,0,0,2,3,1,23,0002-00-0008-10.png,0003-00-0003-40.png
00000009,835,1,1440431899775,1440431899847,913,448,0,0,0,4,3,1,43,0004-00-0000-40.png,0003-00-0002-26.png
00000009,836,1,1440431900811,1440431900875,864,454,0,0,0,3,2,1,32,0003-00-0007-12.png,0002-00-0003-93.png
00000009,837,1,1440431902092,1440431902156,862,436,0,0,0,2,1,1,21,0002-00-0001-99.png,0001-00-0009-77.png
00000009,838,0,1440431904611,1440431904670,889,306,0,0,0,1,2,1,12,0001-00-0009-45.png,0002-00-0001-80.png
00000009,839,1,1440431907818,1440431908443,1064,276,0,0,0,5,4,1,54,0005-00-0004-42.png,0004-00-0004-37.png
00000009,840,0,1440431909945,1440431910037,858,412,0,0,0,3,4,1,34,0003-00-0002-85.png,0004-00-0006-91.png
00000009,841,0,1440431913274,1440431913811,934,344,0,0,0,2,3,1,23,0002-00-0005-42.png,0003-00-0000-13.png
00000009,842,1,1440431916979,1440431916999,903,384,0,0,0,2,1,1,21,0002-00-0000-55.png,0001-00-0009-71.png
00000009,843,0,1440431918017,1440431918057,947,453,0,0,0,1,2,1,12,0001-00-0008-78.png,0002-00-0008-41.png
00000009,844,0,1440431921192,1440431921810,943,350,0,0,0,4,5,1,45,0004-00-0001-53.png,0005-00-0001-52.png
00000009,845,1,1440431924990,1440431925524,1052,279,0,0,0,5,4,1,54,0005-00-0002-07.png,0004-00-0001-16.png
00000009,846,1,1440431927216,1440431927931,970,345,0,0,0,4,3,1,43,0004-00-0008-82.png,0003-00-0007-94.png
00000009,847,0,1440431929432,1440431929577,888,410,0,0,0,3,4,1,34,0003-00-0004-57.png,0004-00-0002-31.png
00000009,848,1,1440431932791,1440431933377,937,307,0,0,0,3,2,1,32,0003-00-0009-25.png,0002-00-0002-94.png
00000009,849,0,1440431934623,1440431934687,879,436,0,0,0,4,5,1,45,0004-00-0008-07.png,0005-00-0001-59.png
00000009,850,1,1440431937871,1440431938421,972,307,0,0,0,3,2,1,32,0003-00-0005-72.png,0002-00-0001-71.png
00000009,851,0,1440431940162,1440431940222,922,328,0,0,0,1,2,1,12,0001-00-0009-37.png,0002-00-0008-83.png
00000009,852,1,1440431943345,1440431943369,888,384,0,0,0,2,1,1,21,0002-00-0004-85.png,0001-00-0004-23.png
00000009,853,1,1440431944393,1440431944457,932,470,0,0,0,4,3,1,43,0004-00-0000-80.png,0003-00-0006-27.png
00000009,854,0,1440431945287,1440431945367,899,410,0,0,0,3,4,1,34,0003-00-0007-72.png,0004-00-0008-84.png
00000009,855,1,1440431948501,1440431948561,923,384,0,0,0,5,4,1,54,0005-00-0001-86.png,0004-00-0000-30.png
00000009,856,0,1440431949583,1440431949667,952,436,0,0,0,2,3,1,23,0002-00-0003-90.png,0003-00-0005-71.png
00000009,857,0,1440431952732,1440431953327,937,297,0,0,0,3,4,1,34,0003-00-0007-80.png,0004-00-0002-15.png
00000009,858,0,1440431956509,1440431957065,448,304,0,0,0,4,3,1,43,0004-00-0000-11.png,0003-00-0007-69.png
00000009,859,1,1440431960219,1440431960251,869,407,0,0,0,2,1,1,21,0002-00-0009-12.png,0001-00-0004-28.png
00000009,860,0,1440431961279,1440431961331,919,452,0,0,0,2,3,1,23,0002-00-0006-13.png,0003-00-0006-79.png
00000009,861,1,1440431964388,1440431964967,923,359,0,0,0,3,2,1,32,0003-00-0009-35.png,0002-00-0002-95.png
00000009,862,0,1440431966685,1440431966810,924,410,0,0,0,1,2,1,12,0001-00-0003-95.png,0002-00-0004-06.png
00000009,863,1,1440431970047,1440431970553,949,335,0,0,0,5,4,1,54,0005-00-0002-83.png,0004-00-0007-39.png
00000009,864,0,1440431972021,1440431973019,1027,278,0,0,0,4,5,1,45,0004-00-0007-67.png,0005-00-0000-38.png
00000009,865,0,1440431975869,1440431975919,901,464,0,0,0,1,2,1,12,0001-00-0007-63.png,0002-00-0004-12.png
00000009,866,0,1440431979248,1440431979824,443,277,0,0,0,3,2,1,32,0003-00-0004-45.png,0002-00-0006-15.png
00000009,867,1,1440431982966,1440431983540,942,328,0,0,0,5,4,1,54,0005-00-0002-12.png,0004-00-0002-83.png
00000009,868,1,1440431984496,1440431984556,965,407,0,0,0,2,1,1,21,0002-00-0002-84.png,0001-00-0008-39.png
00000009,869,0,1440431985576,1440431985628,872,410,0,0,0,4,5,1,45,0004-00-0009-37.png,0005-00-0003-53.png
00000009,870,0,1440431988728,1440431988756,886,386,0,0,0,2,3,1,23,0002-00-0003-71.png,0003-00-0000-78.png
00000009,871,0,1440431991592,1440431992469,911,293,0,0,0,3,4,1,34,0003-00-0009-02.png,0004-00-0009-03.png
00000009,872,1,1440431995703,1440431995751,953,354,0,0,0,4,3,1,43,0004-00-0001-10.png,0003-00-0002-41.png
00000009,873,0,1440431996700,1440431996812,943,433,0,0,0,3,4,1,34,0003-00-0001-58.png,0004-00-0009-24.png
00000009,874,0,1440431999989,1440432000605,1085,278,0,0,0,1,2,1,12,0001-00-0009-18.png,0002-00-0008-30.png
00000009,875,1,1440432003733,1440432003768,857,354,0,0,0,4,3,1,43,0004-00-0000-67.png,0003-00-0009-36.png
00000009,876,1,1440432004680,1440432004826,922,434,0,0,0,3,2,1,32,0003-00-0002-06.png,0002-00-0006-58.png
00000009,877,0,1440432005719,1440432005795,872,462,0,0,0,4,5,1,45,0004-00-0008-09.png,0005-00-0007-03.png
00000009,878,1,1440432009022,1440432009574,1084,285,0,0,0,5,4,1,54,0005-00-0002-81.png,0004-00-0000-42.png
00000009,879,1,1440432011471,1440432012176,939,330,0,0,0,2,1,1,21,0002-00-0004-07.png,0001-00-0008-60.png
00000009,880,1,1440432013033,1440432014416,459,233,0,0,0,2,3,1,23,0002-00-0003-03.png,0003-00-0002-24.png
00000009,881,1,1440432015532,1440432016618,328,372,0,0,0,4,5,1,45,0004-00-0003-39.png,0005-00-0008-24.png
00000009,882,0,1440432017876,1440432019019,1024,281,0,0,0,2,3,1,23,0002-00-0007-16.png,0003-00-0000-85.png
00000009,883,0,1440432023231,1440432023727,286,332,0,0,0,5,4,1,54,0005-00-0002-34.png,0004-00-0005-55.png
00000009,884,1,1440432026827,1440432027311,1085,304,0,0,0,2,1,1,21,0002-00-0008-90.png,0001-00-0003-85.png
00000009,885,0,1440432029055,1440432029644,452,284,0,0,0,3,2,1,32,0003-00-0001-82.png,0002-00-0001-10.png
00000009,886,0,1440432032799,1440432032823,900,358,0,0,0,1,2,1,12,0001-00-0008-48.png,0002-00-0003-48.png
00000009,887,0,1440432036029,1440432036552,937,351,0,0,0,3,4,1,34,0003-00-0002-72.png,0004-00-0008-55.png
00000009,888,1,1440432039717,1440432039777,931,366,0,0,0,4,3,1,43,0004-00-0001-18.png,0003-00-0003-55.png
00000009,889,1,1440432040779,1440432040859,907,429,0,0,0,4,3,1,43,0004-00-0003-53.png,0003-00-0002-40.png
00000009,890,0,1440432042948,1440432043540,1068,271,0,0,0,4,5,1,45,0004-00-0005-00.png,0005-00-0003-37.png
00000009,891,1,1440432046755,1440432047388,933,327,0,0,0,5,4,1,54,0005-00-0006-25.png,0004-00-0001-25.png
00000009,892,1,1440432048263,1440432048532,931,444,0,0,0,3,2,1,32,0003-00-0002-10.png,0002-00-0007-50.png
00000009,893,1,1440432049427,1440432049534,888,471,0,0,0,2,1,1,21,0002-00-0009-04.png,0001-00-0004-40.png
00000009,894,0,1440432051064,1440432051131,879,436,0,0,0,3,4,1,34,0003-00-0004-13.png,0004-00-0006-92.png
00000009,895,0,1440432054342,1440432054370,913,358,0,0,0,2,3,1,23,0002-00-0003-15.png,0003-00-0002-14.png
00000009,896,1,1440432057568,1440432058183,361,381,0,0,0,1,2,1,12,0001-00-0004-02.png,0002-00-0007-22.png
00000009,897,0,1440432059045,1440432059120,900,422,0,0,0,3,4,1,34,0003-00-0009-54.png,0004-00-0002-82.png
00000009,898,1,1440432062662,1440432062674,902,368,0,0,0,2,1,1,21,0002-00-0005-85.png,0001-00-0000-35.png
00000009,899,1,1440432063647,1440432063719,898,488,0,0,0,3,2,1,32,0003-00-0009-34.png,0002-00-0008-98.png
00000009,900,1,1440432065237,1440432065316,872,410,0,0,0,5,4,1,54,0005-00-0000-06.png,0004-00-0002-14.png
00000009,901,0,1440432066447,1440432066491,888,393,0,0,0,2,3,1,23,0002-00-0001-98.png,0003-00-0005-41.png
00000009,902,0,1440432069648,1440432070182,973,325,0,0,0,4,5,1,45,0004-00-0007-19.png,0005-00-0009-48.png
00000009,903,1,1440432073374,1440432074031,942,322,0,0,0,4,3,1,43,0004-00-0005-40.png,0003-00-0002-75.png
00000009,904,0,1440432074863,1440432074974,888,400,0,0,0,1,2,1,12,0001-00-0002-54.png,0002-00-0004-00.png
00000009,905,0,1440432078047,1440432078132,913,410,0,0,0,3,4,1,34,0003-00-0008-15.png,0004-00-0006-04.png
00000009,906,0,1440432081751,1440432082332,1081,288,0,0,0,4,5,1,45,0004-00-0009-28.png,0005-00-0000-27.png
00000009,907,0,1440432085520,1440432086002,1091,281,0,0,0,2,3,1,23,0002-00-0003-88.png,0003-00-0005-15.png
00000009,908,0,1440432088987,1440432089027,899,439,0,0,0,1,2,1,12,0001-00-0003-90.png,0002-00-0008-88.png
00000009,909,1,1440432092018,1440432092329,955,359,0,0,0,4,3,1,43,0004-00-0003-61.png,0003-00-0003-17.png
00000009,910,1,1440432093977,1440432094665,1044,289,0,0,0,3,2,1,32,0003-00-0003-25.png,0002-00-0002-48.png
00000009,911,1,1440432095513,1440432095617,913,436,0,0,0,2,1,1,21,0002-00-0004-29.png,0001-00-0005-26.png
00000009,912,1,1440432097216,1440432097296,899,410,0,0,0,5,4,1,54,0005-00-0003-57.png,0004-00-0009-74.png
00000009,913,1,1440432098155,1440432099561,368,380,0,0,0,2,3,1,23,0002-00-0000-58.png,0003-00-0003-73.png
00000009,914,1,1440432100515,1440432100587,894,434,0,0,0,2,1,1,21,0002-00-0006-21.png,0001-00-0006-69.png
00000009,915,1,1440432101447,1440432101710,913,514,0,0,0,3,2,1,32,0003-00-0009-21.png,0002-00-0009-04.png
00000009,916,0,1440432102720,1440432103062,862,477,0,0,0,3,4,1,34,0003-00-0000-56.png,0004-00-0000-58.png
00000009,917,1,1440432106170,1440432106182,892,409,0,0,0,5,4,1,54,0005-00-0000-95.png,0004-00-0000-11.png
00000009,918,1,1440432107135,1440432107231,913,474,0,0,0,4,3,1,43,0004-00-0009-79.png,0003-00-0002-25.png
00000009,919,0,1440432108921,1440432108990,888,410,0,0,0,4,5,1,45,0004-00-0003-31.png,0005-00-0008-54.png
00000009,920,0,1440432112169,1440432112185,888,358,0,0,0,1,2,1,12,0001-00-0001-21.png,0002-00-0002-89.png
00000009,921,1,1440432115130,1440432115741,346,381,0,0,0,2,3,1,23,0002-00-0008-41.png,0003-00-0008-69.png
00000009,922,1,1440432116691,1440432116751,952,384,0,0,0,3,2,1,32,0003-00-0003-79.png,0002-00-0004-69.png
00000009,923,0,1440432117581,1440432117629,862,436,0,0,0,3,4,1,34,0003-00-0009-97.png,0004-00-0008-30.png
00000009,924,0,1440432120758,1440432121490,451,270,0,0,0,5,4,1,54,0005-00-0006-47.png,0004-00-0008-33.png
00000009,925,0,1440432124613,1440432125369,432,297,0,0,0,4,3,1,43,0004-00-0000-29.png,0003-00-0002-82.png
00000009,926,0,1440432128616,1440432128636,871,352,0,0,0,4,5,1,45,0004-00-0000-82.png,0005-00-0009-30.png
00000009,927,1,1440432131579,1440432132249,1026,253,0,0,0,2,1,1,21,0002-00-0005-43.png,0001-00-0005-16.png
00000009,928,0,1440432133102,1440432133211,913,472,0,0,0,1,2,1,12,0001-00-0005-72.png,0002-00-0003-72.png
00000009,929,0,1440432136359,1440432136399,892,411,0,0,0,3,4,1,34,0003-00-0006-86.png,0004-00-0005-18.png
00000009,930,1,1440432139628,1440432139664,899,348,0,0,0,3,2,1,32,0003-00-0004-63.png,0002-00-0003-57.png
00000009,931,1,1440432140600,1440432140683,939,427,0,0,0,4,3,1,43,0004-00-0007-38.png,0003-00-0007-38.png
00000009,932,0,1440432141544,1440432141612,888,436,0,0,0,4,5,1,45,0004-00-0005-96.png,0005-00-0005-29.png
00000009,933,0,1440432144873,1440432144901,897,319,0,0,0,2,3,1,23,0002-00-0004-86.png,0003-00-0006-82.png
00000009,934,0,1440432148085,1440432148710,930,333,0,0,0,1,2,1,12,0001-00-0002-55.png,0002-00-0007-13.png
00000009,935,1,1440432151752,1440432152377,910,315,0,0,0,5,4,1,54,0005-00-0004-30.png,0004-00-0002-25.png
00000009,936,1,1440432153209,1440432153293,901,436,0,0,0,2,1,1,21,0002-00-0004-02.png,0001-00-0007-76.png
00000009,937,0,1440432154184,1440432154279,875,436,0,0,0,4,5,1,45,0004-00-0006-23.png,0005-00-0000-65.png
00000009,938,0,1440432157236,1440432157893,1014,268,0,0,0,2,3,1,23,0002-00-0008-27.png,0003-00-0007-84.png
00000009,939,1,1440432161052,1440432161565,1086,290,0,0,0,3,2,1,32,0003-00-0006-02.png,0002-00-0008-12.png
00000009,940,0,1440432163408,1440432164063,401,410,0,0,0,5,4,1,54,0005-00-0009-49.png,0004-00-0007-61.png
00000009,941,1,1440432167424,1440432168036,1088,274,0,0,0,4,3,1,43,0004-00-0006-34.png,0003-00-0006-73.png
