subject_id,trial,correct_response,stim_time,response_time,x_coord,y_coord,trial_timeout,timeout_time,interTrial_timeout,left_rank,right_rank,distance,joint_rank,left_image,right_image
00000009,1,0,1440518481464,1440518481472,963,248,0,0,0,4,5,1,45,0004-00-0003-65.png,0005-00-0001-28.png
00000009,2,1,1440518484520,1440518485082,1013,510,0,0,0,2,1,1,21,0002-00-0003-23.png,0001-00-0007-31.png
00000009,3,1,1440518486344,1440518486990,966,375,0,0,0,5,4,1,54,0005-00-0006-58.png,0004-00-0009-77.png
00000009,4,1,1440518488093,1440518488337,911,280,0,0,0,3,2,1,32,0003-00-0005-35.png,0002-00-0003-51.png
00000009,5,0,1440518489515,1440518490048,935,398,0,0,0,3,4,1,34,0003-00-0001-89.png,0004-00-0000-73.png
00000009,6,1,1440518493168,1440518493648,996,374,0,0,0,4,3,1,43,0004-00-0009-12.png,0003-00-0005-35.png
00000009,7,0,1440518494862,1440518495129,860,385,0,0,0,2,3,1,23,0002-00-0007-08.png,0003-00-0005-66.png
00000009,8,0,1440518498039,1440518498182,977,315,0,0,0,1,2,1,12,0001-00-0002-28.png,0002-00-0004-03.png
00000009,9,0,1440518501308,1440518501385,1063,282,0,0,0,3,4,1,34,0003-00-0004-43.png,0004-00-0003-00.png
00000009,10,1,1440518504809,1440518505340,1049,261,0,0,0,4,3,1,43,0004-00-0003-85.png,0003-00-0000-59.png
00000009,11,0,1440518506479,1440518506960,879,410,0,0,0,1,2,1,12,0001-00-0001-68.png,0002-00-0009-10.png
00000009,12,0,1440518510123,1440518510709,1041,262,0,0,0,2,3,1,23,0002-00-0007-99.png,0003-00-0005-69.png
00000009,13,1,1440518514116,1440518514656,915,375,0,0,0,2,1,1,21,0002-00-0007-03.png,0001-00-0001-94.png
00000009,14,1,1440518515679,1440518516612,1039,305,0,0,0,3,2,1,32,0003-00-0007-69.png,0002-00-0005-47.png
00000009,15,0,1440518517593,1440518517759,913,488,0,0,0,4,5,1,45,0004-00-0004-88.png,0005-00-0006-79.png
00000009,16,1,1440518521324,1440518521806,950,380,0,0,0,5,4,1,54,0005-00-0002-86.png,0004-00-0001-19.png
00000009,17,1,1440518523171,1440518523856,915,356,0,0,0,3,2,1,32,0003-00-0005-93.png,0002-00-0001-40.png
00000009,18,0,1440518524971,1440518525678,386,462,0,0,0,2,1,1,21,0002-00-0008-78.png,0001-00-0005-91.png
00000009,19,1,1440518530077,1440518530565,1046,270,0,0,0,4,3,1,43,0004-00-0001-90.png,0003-00-0007-67.png
00000009,20,0,1440518531414,1440518532217,924,381,0,0,0,2,3,1,23,0002-00-0003-91.png,0003-00-0005-52.png
00000009,21,0,1440518535376,1440518536183,321,404,0,0,0,5,4,1,54,0005-00-0009-81.png,0004-00-0002-64.png
00000009,22,0,1440518542034,1440518542536,1058,296,0,0,0,3,4,1,34,0003-00-0000-45.png,0004-00-0004-98.png
00000009,23,0,1440518546563,1440518546883,990,314,0,0,0,1,2,1,12,0001-00-0001-60.png,0002-00-0005-84.png
00000009,24,0,1440518550120,1440518550647,1096,294,0,0,0,4,5,1,45,0004-00-0002-91.png,0005-00-0009-94.png
00000009,25,1,1440518553847,1440518553927,888,237,0,0,0,5,4,1,54,0005-00-0005-73.png,0004-00-0008-29.png
00000009,26,1,1440518554943,1440518555507,904,436,0,0,0,3,2,1,32,0003-00-0006-89.png,0002-00-0009-29.png
00000009,27,0,1440518556503,1440518556710,955,436,0,0,0,3,4,1,34,0003-00-0004-12.png,0004-00-0001-91.png
00000009,28,0,1440518559751,1440518560232,1040,280,0,0,0,2,3,1,23,0002-00-0008-49.png,0003-00-0001-99.png
00000009,29,1,1440518563376,1440518564016,434,293,0,0,0,1,2,1,12,0001-00-0005-61.png,0002-00-0006-64.png
00000009,30,1,1440518564917,1440518565791,959,418,0,0,0,2,1,1,21,0002-00-0000-45.png,0001-00-0007-69.png
00000009,31,1,1440518566679,1440518567043,939,505,0,0,0,4,3,1,43,0004-00-0000-87.png,0003-00-0004-63.png
00000009,32,0,1440518568002,1440518568194,862,452,0,0,0,4,5,1,45,0004-00-0001-14.png,0005-00-0001-11.png
00000009,33,0,1440518571570,1440518571681,883,357,0,0,0,1,2,1,12,0001-00-0003-07.png,0002-00-0009-26.png
00000009,34,1,1440518574839,1440518574859,878,320,0,0,0,5,4,1,54,0005-00-0006-00.png,0004-00-0003-38.png
00000009,35,1,1440518575849,1440518575942,888,426,0,0,0,4,3,1,43,0004-00-0002-13.png,0003-00-0004-49.png
00000009,36,1,1440518577139,1440518578143,1034,272,0,0,0,3,2,1,32,0003-00-0003-52.png,0002-00-0004-55.png
00000009,37,1,1440518579040,1440518579781,309,358,0,0,0,3,4,1,34,0003-00-0009-45.png,0004-00-0009-72.png
00000009,38,0,1440518580801,1440518580869,881,420,0,0,0,2,3,1,23,0002-00-0009-58.png,0003-00-0007-87.png
00000009,39,1,1440518584070,1440518584107,890,315,0,0,0,2,1,1,21,0002-00-0008-44.png,0001-00-0003-52.png
00000009,40,0,1440518585580,1440518586026,913,421,0,0,0,4,5,1,45,0004-00-0004-03.png,0005-00-0005-10.png
00000009,41,1,1440518588915,1440518589175,896,307,0,0,0,5,4,1,54,0005-00-0004-25.png,0004-00-0009-38.png
00000009,42,1,1440518590153,1440518591294,1073,287,0,0,0,2,1,1,21,0002-00-0009-26.png,0001-00-0004-93.png
00000009,43,1,1440518592156,1440518592942,373,283,0,0,0,2,3,1,23,0002-00-0000-53.png,0003-00-0006-21.png
00000009,44,1,1440518593872,1440518594283,876,488,0,0,0,4,3,1,43,0004-00-0007-76.png,0003-00-0004-76.png
00000009,45,1,1440518595619,1440518596414,964,370,0,0,0,3,2,1,32,0003-00-0007-94.png,0002-00-0000-86.png
00000009,46,1,1440518597488,1440518598485,409,289,0,0,0,4,5,1,45,0004-00-0008-86.png,0005-00-0001-38.png
00000009,47,0,1440518599459,1440518600547,947,367,0,0,0,3,4,1,34,0003-00-0005-02.png,0004-00-0000-74.png
00000009,48,0,1440518603599,1440518603683,1018,358,0,0,0,1,2,1,12,0001-00-0006-19.png,0002-00-0008-36.png
00000009,49,0,1440518606497,1440518606545,943,332,0,0,0,4,5,1,45,0004-00-0008-67.png,0005-00-0006-26.png
00000009,50,1,1440518609570,1440518610076,943,330,0,0,0,5,4,1,54,0005-00-0009-88.png,0004-00-0000-33.png
00000009,51,1,1440518611718,1440518612338,410,254,0,0,0,1,2,1,12,0001-00-0002-93.png,0002-00-0002-05.png
00000009,52,1,1440518613219,1440518614398,916,405,0,0,0,3,2,1,32,0003-00-0008-17.png,0002-00-0004-93.png
00000009,53,1,1440518615223,1440518615986,874,353,0,0,0,2,1,1,21,0002-00-0004-62.png,0001-00-0002-73.png
00000009,54,1,1440518617501,1440518617616,888,395,0,0,0,4,3,1,43,0004-00-0004-87.png,0003-00-0008-73.png
00000009,55,0,1440518618550,1440518618634,870,436,0,0,0,2,3,1,23,0002-00-0008-93.png,0003-00-0001-64.png
00000009,56,0,1440518621910,1440518622622,1016,264,0,0,0,3,4,1,34,0003-00-0002-46.png,0004-00-0005-37.png
00000009,57,0,1440518625458,1440518625994,885,336,0,0,0,4,5,1,45,0004-00-0002-97.png,0005-00-0004-21.png
00000009,58,1,1440518629010,1440518630051,1051,276,0,0,0,5,4,1,54,0005-00-0004-67.png,0004-00-0008-28.png
00000009,59,0,1440518630898,1440518631827,1058,275,0,0,0,2,3,1,23,0002-00-0007-59.png,0003-00-0007-00.png
00000009,60,1,1440518635339,1440518635913,938,341,0,0,0,3,2,1,32,0003-00-0000-98.png,0002-00-0001-93.png
00000009,61,1,1440518637518,1440518638161,420,313,0,0,0,1,2,1,12,0001-00-0006-96.png,0002-00-0006-43.png
00000009,62,1,1440518638992,1440518639967,939,352,0,0,0,4,3,1,43,0004-00-0000-53.png,0003-00-0006-80.png
00000009,63,0,1440518641311,1440518641740,877,410,0,0,0,3,4,1,34,0003-00-0005-31.png,0004-00-0004-07.png
00000009,64,1,1440518644870,1440518645390,935,319,0,0,0,2,1,1,21,0002-00-0008-71.png,0001-00-0007-17.png
00000009,65,1,1440518646699,1440518646841,888,388,0,0,0,2,1,1,21,0002-00-0002-98.png,0001-00-0007-91.png
00000009,66,1,1440518647770,1440518648810,425,249,0,0,0,1,2,1,12,0001-00-0004-86.png,0002-00-0008-97.png
00000009,67,0,1440518649688,1440518651196,957,343,0,0,0,2,3,1,23,0002-00-0009-68.png,0003-00-0006-82.png
00000009,68,1,1440518654582,1440518655093,1072,296,0,0,0,3,2,1,32,0003-00-0005-59.png,0002-00-0008-62.png
00000009,69,0,1440518656549,1440518657083,943,368,0,0,0,3,4,1,34,0003-00-0004-71.png,0004-00-0003-00.png
00000009,70,1,1440518659922,1440518660521,938,337,0,0,0,4,3,1,43,0004-00-0008-90.png,0003-00-0002-25.png
00000009,71,1,1440518662132,1440518662644,1039,308,0,0,0,5,4,1,54,0005-00-0001-08.png,0004-00-0007-57.png
00000009,72,0,1440518664139,1440518664744,1064,262,0,0,0,4,5,1,45,0004-00-0000-00.png,0005-00-0002-47.png
00000009,73,0,1440518667836,1440518667905,976,332,0,0,0,1,2,1,12,0001-00-0008-55.png,0002-00-0009-18.png
00000009,74,1,1440518670878,1440518671403,1049,239,0,0,0,3,2,1,32,0003-00-0002-01.png,0002-00-0005-08.png
00000009,75,1,1440518672813,1440518672958,862,358,0,0,0,2,1,1,21,0002-00-0007-92.png,0001-00-0007-04.png
00000009,76,1,1440518673803,1440518675259,932,311,0,0,0,5,4,1,54,0005-00-0000-45.png,0004-00-0006-37.png
00000009,77,1,1440518676181,1440518676263,872,436,0,0,0,4,3,1,43,0004-00-0004-28.png,0003-00-0007-91.png
00000009,78,1,1440518677611,1440518678424,443,266,0,0,0,4,5,1,45,0004-00-0006-70.png,0005-00-0006-79.png
00000009,79,0,1440518679364,1440518679558,902,470,0,0,0,3,4,1,34,0003-00-0008-25.png,0004-00-0006-40.png
00000009,80,0,1440518682504,1440518683003,1009,247,0,0,0,2,3,1,23,0002-00-0001-48.png,0003-00-0002-14.png
00000009,81,1,1440518686090,1440518686598,1041,266,0,0,0,2,1,1,21,0002-00-0003-76.png,0001-00-0002-40.png
00000009,82,0,1440518687453,1440518688644,312,386,0,0,0,5,4,1,54,0005-00-0005-88.png,0004-00-0008-45.png
00000009,83,1,1440518691546,1440518692072,914,289,0,0,0,3,2,1,32,0003-00-0009-99.png,0002-00-0005-08.png
00000009,84,0,1440518693485,1440518693866,934,366,0,0,0,3,4,1,34,0003-00-0007-52.png,0004-00-0006-39.png
00000009,85,0,1440518697014,1440518697050,960,341,0,0,0,1,2,1,12,0001-00-0007-38.png,0002-00-0004-40.png
00000009,86,0,1440518700353,1440518700972,395,269,0,0,0,4,3,1,43,0004-00-0000-62.png,0003-00-0000-72.png
00000009,87,0,1440518703844,1440518703868,939,372,0,0,0,4,5,1,45,0004-00-0004-51.png,0005-00-0007-17.png
00000009,88,1,1440518706792,1440518707529,407,263,0,0,0,2,3,1,23,0002-00-0007-24.png,0003-00-0001-62.png
00000009,89,1,1440518708409,1440518708528,894,351,0,0,0,2,1,1,21,0002-00-0003-58.png,0001-00-0001-68.png
00000009,90,0,1440518709703,1440518709802,879,436,0,0,0,4,5,1,45,0004-00-0002-03.png,0005-00-0008-81.png
00000009,91,1,1440518712997,1440518713062,895,341,0,0,0,5,4,1,54,0005-00-0003-04.png,0004-00-0006-73.png
00000009,92,1,1440518714033,1440518714133,888,436,0,0,0,3,2,1,32,0003-00-0004-57.png,0002-00-0004-46.png
00000009,93,1,1440518715426,1440518716387,372,405,0,0,0,2,3,1,23,0002-00-0001-79.png,0003-00-0000-57.png
00000009,94,1,1440518717230,1440518718154,302,360,0,0,0,1,2,1,12,0001-00-0000-34.png,0002-00-0007-89.png
00000009,95,0,1440518719121,1440518719597,913,514,0,0,0,3,4,1,34,0003-00-0003-21.png,0004-00-0001-75.png
00000009,96,1,1440518722709,1440518723210,939,305,0,0,0,4,3,1,43,0004-00-0007-78.png,0003-00-0002-29.png
00000009,97,1,1440518724500,1440518724601,873,384,0,0,0,4,3,1,43,0004-00-0006-91.png,0003-00-0006-74.png
00000009,98,1,1440518725571,1440518725681,860,443,0,0,0,3,2,1,32,0003-00-0005-04.png,0002-00-0008-86.png
00000009,99,1,1440518726923,1440518727743,335,371,0,0,0,2,3,1,23,0002-00-0009-43.png,0003-00-0009-91.png
00000009,100,0,1440518728611,1440518729503,321,378,0,0,0,2,1,1,21,0002-00-0005-73.png,0001-00-0005-17.png
00000009,101,1,1440518732897,1440518733435,950,331,0,0,0,5,4,1,54,0005-00-0007-53.png,0004-00-0006-86.png
00000009,102,0,1440518734757,1440518735546,1028,263,0,0,0,1,2,1,12,0001-00-0006-46.png,0002-00-0002-63.png
00000009,103,0,1440518738577,1440518738650,913,384,0,0,0,3,4,1,34,0003-00-0001-23.png,0004-00-0006-13.png
00000009,104,0,1440518742607,1440518743163,971,402,0,0,0,4,5,1,45,0004-00-0006-68.png,0005-00-0009-51.png
00000009,105,1,1440518746305,1440518746830,933,321,0,0,0,3,2,1,32,0003-00-0003-49.png,0002-00-0000-89.png
00000009,106,1,1440518747707,1440518747872,904,410,0,0,0,5,4,1,54,0005-00-0003-83.png,0004-00-0005-45.png
00000009,107,1,1440518749035,1440518749807,339,415,0,0,0,2,3,1,23,0002-00-0002-16.png,0003-00-0009-08.png
00000009,108,1,1440518750694,1440518751713,1016,269,0,0,0,2,1,1,21,0002-00-0003-80.png,0001-00-0001-56.png
00000009,109,1,1440518752550,1440518753373,330,392,0,0,0,4,5,1,45,0004-00-0006-90.png,0005-00-0007-37.png
00000009,110,0,1440518754313,1440518754385,862,410,0,0,0,1,2,1,12,0001-00-0009-17.png,0002-00-0002-44.png
00000009,111,1,1440518757608,1440518757642,925,329,0,0,0,4,3,1,43,0004-00-0003-30.png,0003-00-0000-36.png
00000009,112,1,1440518758545,1440518758553,521,532,0,0,0,3,4,1,34,0003-00-0001-53.png,0004-00-0007-40.png
00000009,113,0,1440518759799,1440518760617,886,316,0,0,0,2,3,1,23,0002-00-0006-52.png,0003-00-0004-18.png
00000009,114,1,1440518763781,1440518763811,899,332,0,0,0,2,1,1,21,0002-00-0007-40.png,0001-00-0000-78.png
00000009,115,1,1440518764642,1440518765421,402,251,0,0,0,1,2,1,12,0001-00-0003-53.png,0002-00-0004-39.png
00000009,116,1,1440518766323,1440518766407,862,479,0,0,0,3,2,1,32,0003-00-0005-81.png,0002-00-0005-34.png
00000009,117,0,1440518767773,1440518768452,362,374,0,0,0,4,3,1,43,0004-00-0000-30.png,0003-00-0007-31.png
00000009,118,0,1440518771828,1440518771871,878,332,0,0,0,4,5,1,45,0004-00-0000-31.png,0005-00-0004-79.png
00000009,119,0,1440518775110,1440518775130,915,326,0,0,0,3,4,1,34,0003-00-0007-22.png,0004-00-0006-37.png
00000009,120,1,1440518777955,1440518778549,948,354,0,0,0,5,4,1,54,0005-00-0007-09.png,0004-00-0005-47.png
00000009,121,0,1440518779392,1440518780589,307,374,0,0,0,5,4,1,54,0005-00-0003-33.png,0004-00-0003-21.png
00000009,122,1,1440518783489,1440518784136,331,392,0,0,0,2,3,1,23,0002-00-0005-03.png,0003-00-0001-02.png
00000009,123,1,1440518785064,1440518785963,333,397,0,0,0,3,4,1,34,0003-00-0007-09.png,0004-00-0004-08.png
00000009,124,0,1440518786836,1440518788049,409,276,0,0,0,3,2,1,32,0003-00-0000-12.png,0002-00-0006-96.png
00000009,125,1,1440518791391,1440518791989,913,264,0,0,0,2,1,1,21,0002-00-0009-92.png,0001-00-0001-09.png
00000009,126,0,1440518793480,1440518794143,905,376,0,0,0,4,5,1,45,0004-00-0009-32.png,0005-00-0005-38.png
00000009,127,0,1440518797752,1440518798367,310,345,0,0,0,4,3,1,43,0004-00-0006-69.png,0003-00-0002-45.png
00000009,128,1,1440518801359,1440518802105,292,378,0,0,0,1,2,1,12,0001-00-0009-74.png,0002-00-0005-01.png
00000009,129,1,1440518803009,1440518803853,343,378,0,0,0,4,5,1,45,0004-00-0001-03.png,0005-00-0006-81.png
00000009,130,1,1440518804705,1440518804761,862,472,0,0,0,5,4,1,54,0005-00-0008-65.png,0004-00-0005-85.png
00000009,131,0,1440518805968,1440518806989,933,348,0,0,0,3,4,1,34,0003-00-0008-16.png,0004-00-0009-06.png
00000009,132,1,1440518809874,1440518809934,888,358,0,0,0,3,2,1,32,0003-00-0003-84.png,0002-00-0000-33.png
00000009,133,1,1440518811515,1440518812108,365,298,0,0,0,1,2,1,12,0001-00-0001-13.png,0002-00-0000-48.png
00000009,134,1,1440518812977,1440518813833,365,381,0,0,0,2,3,1,23,0002-00-0003-72.png,0003-00-0001-55.png
00000009,135,0,1440518814721,1440518815856,420,224,0,0,0,4,3,1,43,0004-00-0009-66.png,0003-00-0001-45.png
00000009,136,1,1440518818988,1440518819024,900,337,0,0,0,2,1,1,21,0002-00-0009-14.png,0001-00-0001-63.png
00000009,137,1,1440518819891,1440518820716,889,392,0,0,0,2,1,1,21,0002-00-0006-69.png,0001-00-0006-33.png
00000009,138,1,1440518821546,1440518821697,878,436,0,0,0,5,4,1,54,0005-00-0009-73.png,0004-00-0000-37.png
00000009,139,0,1440518823206,1440518824143,918,345,0,0,0,4,5,1,45,0004-00-0002-53.png,0005-00-0001-24.png
00000009,140,0,1440518827297,1440518827317,888,332,0,0,0,2,3,1,23,0002-00-0009-86.png,0003-00-0005-99.png
00000009,141,1,1440518830418,1440518830442,861,356,0,0,0,4,3,1,43,0004-00-0009-53.png,0003-00-0007-98.png
00000009,142,0,1440518831351,1440518832195,906,307,0,0,0,3,4,1,34,0003-00-0006-33.png,0004-00-0003-67.png
00000009,143,1,1440518835572,1440518836033,965,350,0,0,0,3,2,1,32,0003-00-0004-86.png,0002-00-0004-40.png
00000009,144,0,1440518836904,1440518836932,879,410,0,0,0,1,2,1,12,0001-00-0002-03.png,0002-00-0002-11.png
00000009,145,0,1440518839855,1440518839895,964,436,0,0,0,1,2,1,12,0001-00-0009-28.png,0002-00-0002-11.png
00000009,146,1,1440518843164,1440518843690,1049,271,0,0,0,2,1,1,21,0002-00-0001-68.png,0001-00-0006-75.png
00000009,147,1,1440518845073,1440518846118,315,313,0,0,0,3,4,1,34,0003-00-0003-99.png,0004-00-0007-66.png
00000009,148,1,1440518847022,1440518847129,888,425,0,0,0,5,4,1,54,0005-00-0003-83.png,0004-00-0004-33.png
00000009,149,1,1440518847982,1440518849112,1023,273,0,0,0,4,3,1,43,0004-00-0005-37.png,0003-00-0009-60.png
00000009,150,0,1440518850072,1440518850274,888,474,0,0,0,4,5,1,45,0004-00-0002-88.png,0005-00-0000-83.png
00000009,151,1,1440518853241,1440518853756,925,351,0,0,0,3,2,1,32,0003-00-0009-18.png,0002-00-0001-82.png
00000009,152,0,1440518855139,1440518855289,913,410,0,0,0,2,3,1,23,0002-00-0000-91.png,0003-00-0007-64.png
00000009,153,1,1440518858409,1440518858433,875,358,0,0,0,5,4,1,54,0005-00-0001-15.png,0004-00-0003-26.png
00000009,154,1,1440518859273,1440518860113,375,409,0,0,0,2,3,1,23,0002-00-0004-97.png,0003-00-0003-35.png
00000009,155,1,1440518860994,1440518861950,355,371,0,0,0,1,2,1,12,0001-00-0004-98.png,0002-00-0006-04.png
00000009,156,0,1440518862855,1440518863744,321,377,0,0,0,2,1,1,21,0002-00-0009-81.png,0001-00-0005-63.png
00000009,157,1,1440518866576,1440518867083,906,320,0,0,0,3,2,1,32,0003-00-0006-07.png,0002-00-0001-21.png
00000009,158,0,1440518868645,1440518868681,920,298,0,0,0,3,4,1,34,0003-00-0006-98.png,0004-00-0001-12.png
00000009,159,1,1440518871686,1440518871738,913,419,0,0,0,4,3,1,43,0004-00-0006-40.png,0003-00-0007-03.png
00000009,160,0,1440518872623,1440518872774,872,462,0,0,0,4,5,1,45,0004-00-0003-98.png,0005-00-0002-18.png
00000009,161,0,1440518876198,1440518876236,901,351,0,0,0,1,2,1,12,0001-00-0003-64.png,0002-00-0004-84.png
00000009,162,0,1440518879376,1440518879943,1070,275,0,0,0,3,4,1,34,0003-00-0004-00.png,0004-00-0000-94.png
00000009,163,1,1440518883093,1440518883696,399,252,0,0,0,2,3,1,23,0002-00-0003-72.png,0003-00-0007-60.png
00000009,164,1,1440518884533,1440518884597,862,410,0,0,0,4,3,1,43,0004-00-0000-09.png,0003-00-0005-26.png
00000009,165,1,1440518885726,1440518886866,1075,244,0,0,0,3,2,1,32,0003-00-0002-30.png,0002-00-0004-73.png
00000009,166,0,1440518888451,1440518888987,483,242,0,0,0,5,4,1,54,0005-00-0000-09.png,0004-00-0003-57.png
00000009,167,1,1440518897639,1440518898175,934,400,0,0,0,2,1,1,21,0002-00-0002-92.png,0001-00-0005-14.png
00000009,168,0,1440518899002,1440518899129,964,410,0,0,0,4,5,1,45,0004-00-0005-63.png,0005-00-0003-84.png
00000009,169,1,1440518901983,1440518902630,432,264,0,0,0,1,2,1,12,0001-00-0003-28.png,0002-00-0006-34.png
00000009,170,1,1440518904268,1440518904316,913,332,0,0,0,3,2,1,32,0003-00-0007-37.png,0002-00-0003-65.png
00000009,171,1,1440518905281,1440518906184,464,255,0,0,0,4,5,1,45,0004-00-0005-43.png,0005-00-0002-31.png
00000009,172,1,1440518907093,1440518907921,936,327,0,0,0,4,3,1,43,0004-00-0008-95.png,0003-00-0006-01.png
00000009,173,1,1440518909247,1440518909335,862,436,0,0,0,2,1,1,21,0002-00-0009-64.png,0001-00-0003-74.png
00000009,174,0,1440518910534,1440518911530,456,245,0,0,0,5,4,1,54,0005-00-0004-35.png,0004-00-0001-31.png
00000009,175,0,1440518914925,1440518915013,977,265,0,0,0,2,3,1,23,0002-00-0006-53.png,0003-00-0007-53.png
00000009,176,0,1440518918121,1440518918157,907,313,0,0,0,3,4,1,34,0003-00-0000-38.png,0004-00-0005-31.png
00000009,177,0,1440518921303,1440518921809,965,303,0,0,0,3,4,1,34,0003-00-0007-52.png,0004-00-0002-61.png
00000009,178,1,1440518924959,1440518925435,963,312,0,0,0,4,3,1,43,0004-00-0003-58.png,0003-00-0000-59.png
00000009,179,0,1440518926950,1440518927552,1044,288,0,0,0,2,3,1,23,0002-00-0007-59.png,0003-00-0009-65.png
00000009,180,0,1440518930696,1440518930724,940,353,0,0,0,1,2,1,12,0001-00-0009-66.png,0002-00-0007-65.png
00000009,181,0,1440518933647,1440518933696,887,495,0,0,0,4,5,1,45,0004-00-0008-94.png,0005-00-0008-21.png
00000009,182,1,1440518936818,1440518937494,1075,298,0,0,0,2,1,1,21,0002-00-0007-77.png,0001-00-0002-52.png
00000009,183,1,1440518938892,1440518939594,1072,243,0,0,0,3,2,1,32,0003-00-0008-42.png,0002-00-0002-93.png
00000009,184,0,1440518941189,1440518941818,451,242,0,0,0,5,4,1,54,0005-00-0002-78.png,0004-00-0005-51.png
00000009,185,1,1440518945036,1440518945592,950,359,0,0,0,4,3,1,43,0004-00-0002-20.png,0003-00-0005-17.png
00000009,186,1,1440518947142,1440518947715,1068,270,0,0,0,2,1,1,21,0002-00-0008-79.png,0001-00-0003-80.png
00000009,187,0,1440518949210,1440518949387,925,384,0,0,0,1,2,1,12,0001-00-0001-31.png,0002-00-0005-06.png
00000009,188,0,1440518952619,1440518953129,948,366,0,0,0,2,3,1,23,0002-00-0002-91.png,0003-00-0008-94.png
00000009,189,0,1440518956274,1440518956858,334,365,0,0,0,5,4,1,54,0005-00-0009-22.png,0004-00-0002-13.png
00000009,190,0,1440518959708,1440518959744,886,394,0,0,0,4,5,1,45,0004-00-0008-68.png,0005-00-0003-09.png
00000009,191,1,1440518962904,1440518962952,984,305,0,0,0,3,2,1,32,0003-00-0009-98.png,0002-00-0004-37.png
00000009,192,1,1440518963874,1440518964900,343,350,0,0,0,3,4,1,34,0003-00-0009-72.png,0004-00-0004-03.png
00000009,193,1,1440518965783,1440518965890,907,420,0,0,0,5,4,1,54,0005-00-0002-50.png,0004-00-0005-88.png
00000009,194,0,1440518966826,1440518967688,355,400,0,0,0,2,1,1,21,0002-00-0008-93.png,0001-00-0006-11.png
00000009,195,0,1440518970982,1440518971529,1067,244,0,0,0,2,3,1,23,0002-00-0003-34.png,0003-00-0000-42.png
00000009,196,1,1440518974638,1440518975160,1066,270,0,0,0,4,3,1,43,0004-00-0003-35.png,0003-00-0004-40.png
00000009,197,0,1440518976049,1440518976137,913,398,0,0,0,3,4,1,34,0003-00-0005-38.png,0004-00-0004-49.png
00000009,198,1,1440518979510,1440518979530,908,279,0,0,0,3,2,1,32,0003-00-0007-48.png,0002-00-0009-70.png
00000009,199,0,1440518980532,1440518980631,898,436,0,0,0,1,2,1,12,0001-00-0006-33.png,0002-00-0002-30.png
00000009,200,0,1440518983792,1440518983804,902,355,0,0,0,4,5,1,45,0004-00-0002-99.png,0005-00-0002-74.png
00000009,201,0,1440518987023,1440518987569,949,329,0,0,0,4,5,1,45,0004-00-0004-30.png,0005-00-0007-41.png
00000009,202,1,1440518990775,1440518991318,1058,279,0,0,0,5,4,1,54,0005-00-0009-79.png,0004-00-0009-59.png
00000009,203,0,1440518992148,1440518992226,923,455,0,0,0,1,2,1,12,0001-00-0006-70.png,0002-00-0003-37.png
00000009,204,1,1440518995401,1440518996034,413,239,0,0,0,2,3,1,23,0002-00-0005-43.png,0003-00-0001-39.png
00000009,205,1,1440518996845,1440518997857,893,359,0,0,0,3,2,1,32,0003-00-0009-26.png,0002-00-0005-80.png
00000009,206,1,1440518998745,1440518998857,901,436,0,0,0,4,3,1,43,0004-00-0003-17.png,0003-00-0002-57.png
00000009,207,0,1440518999718,1440519000769,1067,226,0,0,0,3,4,1,34,0003-00-0002-50.png,0004-00-0007-53.png
00000009,208,0,1440519003715,1440519004417,358,396,0,0,0,2,1,1,21,0002-00-0007-49.png,0001-00-0000-02.png
00000009,209,0,1440519007432,1440519007909,969,301,0,0,0,3,4,1,34,0003-00-0005-37.png,0004-00-0007-97.png
00000009,210,0,1440519010994,1440519011593,332,320,0,0,0,4,3,1,43,0004-00-0005-40.png,0003-00-0003-67.png
00000009,211,0,1440519014627,1440519014647,888,384,0,0,0,1,2,1,12,0001-00-0003-60.png,0002-00-0001-23.png
00000009,212,1,1440519017798,1440519017921,931,286,0,0,0,5,4,1,54,0005-00-0002-34.png,0004-00-0006-95.png
00000009,213,1,1440519018869,1440519018968,888,447,0,0,0,3,2,1,32,0003-00-0000-67.png,0002-00-0000-10.png
00000009,214,0,1440519019821,1440519019905,880,446,0,0,0,4,5,1,45,0004-00-0009-33.png,0005-00-0001-70.png
00000009,215,1,1440519023083,1440519023713,459,261,0,0,0,2,3,1,23,0002-00-0006-63.png,0003-00-0005-68.png
00000009,216,1,1440519024618,1440519024710,862,451,0,0,0,2,1,1,21,0002-00-0006-54.png,0001-00-0003-61.png
00000009,217,1,1440519025848,1440519027018,420,257,0,0,0,4,5,1,45,0004-00-0001-61.png,0005-00-0009-52.png
00000009,218,1,1440519028008,1440519028818,870,488,0,0,0,2,1,1,21,0002-00-0008-49.png,0001-00-0008-89.png
00000009,219,1,1440519029751,1440519030792,922,352,0,0,0,3,2,1,32,0003-00-0005-70.png,0002-00-0005-87.png
00000009,220,0,1440519031780,1440519032885,1042,256,0,0,0,1,2,1,12,0001-00-0000-48.png,0002-00-0006-96.png
00000009,221,1,1440519035993,1440519036061,939,367,0,0,0,5,4,1,54,0005-00-0001-51.png,0004-00-0002-20.png
00000009,222,0,1440519036985,1440519037045,873,421,0,0,0,3,4,1,34,0003-00-0003-20.png,0004-00-0001-07.png
00000009,223,1,1440519040273,1440519040303,922,332,0,0,0,4,3,1,43,0004-00-0004-34.png,0003-00-0000-58.png
00000009,224,1,1440519041202,1440519042112,458,255,0,0,0,2,3,1,23,0002-00-0008-12.png,0003-00-0007-70.png
00000009,225,0,1440519043017,1440519043087,888,421,0,0,0,1,2,1,12,0001-00-0008-38.png,0002-00-0000-37.png
00000009,226,0,1440519046160,1440519046187,903,412,0,0,0,3,4,1,34,0003-00-0007-95.png,0004-00-0003-64.png
00000009,227,0,1440519049150,1440519049431,945,361,0,0,0,2,3,1,23,0002-00-0009-19.png,0003-00-0000-12.png
00000009,228,1,1440519052656,1440519052728,988,332,0,0,0,4,3,1,43,0004-00-0002-10.png,0003-00-0005-70.png
00000009,229,0,1440519053645,1440519053737,894,455,0,0,0,4,5,1,45,0004-00-0000-03.png,0005-00-0004-77.png
00000009,230,1,1440519056572,1440519057143,1074,292,0,0,0,3,2,1,32,0003-00-0003-05.png,0002-00-0001-59.png
00000009,231,1,1440519058698,1440519058754,994,308,0,0,0,5,4,1,54,0005-00-0002-81.png,0004-00-0008-83.png
00000009,232,1,1440519059711,1440519059787,862,436,0,0,0,2,1,1,21,0002-00-0000-25.png,0001-00-0003-47.png
00000009,233,1,1440519060774,1440519061696,1039,234,0,0,0,5,4,1,54,0005-00-0000-82.png,0004-00-0009-79.png
00000009,234,1,1440519063348,1440519063947,374,342,0,0,0,3,4,1,34,0003-00-0003-83.png,0004-00-0003-49.png
00000009,235,0,1440519064772,1440519064820,873,436,0,0,0,4,5,1,45,0004-00-0002-25.png,0005-00-0007-88.png
00000009,236,0,1440519068220,1440519068309,984,318,0,0,0,2,3,1,23,0002-00-0006-39.png,0003-00-0003-71.png
00000009,237,0,1440519071241,1440519071269,862,475,0,0,0,1,2,1,12,0001-00-0008-65.png,0002-00-0006-67.png
00000009,238,1,1440519074472,1440519074963,969,340,0,0,0,4,3,1,43,0004-00-0003-42.png,0003-00-0002-10.png
00000009,239,1,1440519076579,1440519077093,1069,257,0,0,0,2,1,1,21,0002-00-0006-40.png,0001-00-0007-75.png
00000009,240,1,1440519077944,1440519078000,920,379,0,0,0,3,2,1,32,0003-00-0002-76.png,0002-00-0003-90.png
00000009,241,0,1440519079536,1440519080795,445,244,0,0,0,5,4,1,54,0005-00-0001-09.png,0004-00-0007-20.png
00000009,242,0,1440519083909,1440519083921,869,358,0,0,0,3,4,1,34,0003-00-0003-76.png,0004-00-0008-58.png
00000009,243,1,1440519087063,1440519087178,1023,330,0,0,0,3,2,1,32,0003-00-0007-73.png,0002-00-0005-71.png
00000009,244,1,1440519088193,1440519088225,909,444,0,0,0,4,3,1,43,0004-00-0008-91.png,0003-00-0004-46.png
00000009,245,0,1440519089245,1440519090160,896,324,0,0,0,4,5,1,45,0004-00-0003-66.png,0005-00-0009-09.png
00000009,246,1,1440519093360,1440519093928,456,266,0,0,0,1,2,1,12,0001-00-0002-33.png,0002-00-0006-41.png
00000009,247,0,1440519094792,1440519094884,899,462,0,0,0,2,3,1,23,0002-00-0008-54.png,0003-00-0000-99.png
00000009,248,1,1440519097815,1440519097843,862,393,0,0,0,2,1,1,21,0002-00-0007-73.png,0001-00-0006-25.png
00000009,249,1,1440519098786,1440519098889,920,453,0,0,0,5,4,1,54,0005-00-0008-64.png,0004-00-0000-56.png
00000009,250,1,1440519099719,1440519100984,450,262,0,0,0,2,3,1,23,0002-00-0000-51.png,0003-00-0007-37.png
00000009,251,0,1440519101867,1440519101931,875,436,0,0,0,4,5,1,45,0004-00-0002-48.png,0005-00-0005-74.png
00000009,252,1,1440519105513,1440519105528,867,342,0,0,0,4,3,1,43,0004-00-0004-33.png,0003-00-0007-50.png
00000009,253,1,1440519106474,1440519107289,432,252,0,0,0,1,2,1,12,0001-00-0001-09.png,0002-00-0002-63.png
00000009,254,0,1440519108238,1440519109082,1041,253,0,0,0,3,4,1,34,0003-00-0000-05.png,0004-00-0007-43.png
00000009,255,1,1440519112254,1440519112314,939,345,0,0,0,2,1,1,21,0002-00-0007-64.png,0001-00-0000-11.png
00000009,256,1,1440519113165,1440519113261,897,436,0,0,0,3,2,1,32,0003-00-0004-59.png,0002-00-0000-80.png
00000009,257,1,1440519114099,1440519115654,476,237,0,0,0,2,3,1,23,0002-00-0004-67.png,0003-00-0000-25.png
00000009,258,1,1440519116510,1440519117374,1067,253,0,0,0,3,2,1,32,0003-00-0005-36.png,0002-00-0008-87.png
00000009,259,1,1440519118859,1440519119679,357,347,0,0,0,3,4,1,34,0003-00-0002-60.png,0004-00-0000-30.png
00000009,260,0,1440519120509,1440519120557,862,405,0,0,0,1,2,1,12,0001-00-0006-96.png,0002-00-0008-50.png
00000009,261,0,1440519123511,1440519123539,892,472,0,0,0,4,5,1,45,0004-00-0007-36.png,0005-00-0008-29.png
00000009,262,0,1440519126423,1440519127076,424,247,0,0,0,5,4,1,54,0005-00-0009-62.png,0004-00-0004-84.png
00000009,263,1,1440519130470,1440519130510,923,348,0,0,0,4,3,1,43,0004-00-0008-79.png,0003-00-0003-91.png
00000009,264,1,1440519131503,1440519132428,895,351,0,0,0,2,1,1,21,0002-00-0005-21.png,0001-00-0000-88.png
00000009,265,1,1440519133258,1440519133298,870,386,0,0,0,2,1,1,21,0002-00-0005-48.png,0001-00-0003-76.png
00000009,266,0,1440519135038,1440519135755,1034,254,0,0,0,3,4,1,34,0003-00-0005-69.png,0004-00-0004-22.png
00000009,267,0,1440519138853,1440519139507,430,275,0,0,0,5,4,1,54,0005-00-0000-84.png,0004-00-0004-40.png
00000009,268,0,1440519142464,1440519143141,427,230,0,0,0,3,2,1,32,0003-00-0004-94.png,0002-00-0001-18.png
00000009,269,0,1440519146249,1440519146269,913,348,0,0,0,2,3,1,23,0002-00-0005-28.png,0003-00-0005-57.png
00000009,270,0,1440519149331,1440519149993,396,239,0,0,0,4,3,1,43,0004-00-0006-84.png,0003-00-0003-19.png
00000009,271,0,1440519152967,1440519152991,941,424,0,0,0,4,5,1,45,0004-00-0000-63.png,0005-00-0001-68.png
00000009,272,0,1440519156208,1440519156223,944,307,0,0,0,1,2,1,12,0001-00-0006-82.png,0002-00-0009-39.png
00000009,273,0,1440519159458,1440519159506,965,336,0,0,0,1,2,1,12,0001-00-0000-62.png,0002-00-0003-23.png
00000009,274,1,1440519162419,1440519163184,380,251,0,0,0,2,3,1,23,0002-00-0000-67.png,0003-00-0004-69.png
00000009,275,1,1440519164095,1440519165236,914,352,0,0,0,5,4,1,54,0005-00-0007-37.png,0004-00-0003-88.png
00000009,276,1,1440519166093,1440519167016,921,303,0,0,0,3,2,1,32,0003-00-0003-91.png,0002-00-0008-56.png
00000009,277,0,1440519168768,1440519169290,940,329,0,0,0,3,4,1,34,0003-00-0008-40.png,0004-00-0006-62.png
00000009,278,0,1440519172513,1440519172545,866,315,0,0,0,4,5,1,45,0004-00-0007-22.png,0005-00-0004-70.png
00000009,279,0,1440519179548,1440519180224,301,406,0,0,0,2,1,1,21,0002-00-0003-38.png,0001-00-0002-00.png
00000009,280,1,1440519183602,1440519183674,888,306,0,0,0,4,3,1,43,0004-00-0007-79.png,0003-00-0003-69.png
00000009,281,1,1440519184686,1440519184762,875,374,0,0,0,5,4,1,54,0005-00-0002-43.png,0004-00-0008-81.png
00000009,282,0,1440519186115,1440519186178,858,363,0,0,0,1,2,1,12,0001-00-0006-10.png,0002-00-0004-07.png
00000009,283,0,1440519189159,1440519189661,957,353,0,0,0,4,5,1,45,0004-00-0004-29.png,0005-00-0009-55.png
00000009,284,1,1440519192566,1440519193065,360,392,0,0,0,2,3,1,23,0002-00-0003-10.png,0003-00-0001-53.png
00000009,285,1,1440519193980,1440519194127,920,429,0,0,0,3,2,1,32,0003-00-0002-90.png,0002-00-0009-85.png
00000009,286,0,1440519195150,1440519195218,871,440,0,0,0,3,4,1,34,0003-00-0000-91.png,0004-00-0000-82.png
00000009,287,1,1440519198460,1440519199048,1051,279,0,0,0,4,3,1,43,0004-00-0004-98.png,0003-00-0008-73.png
00000009,288,1,1440519200635,1440519201181,1069,261,0,0,0,2,1,1,21,0002-00-0000-43.png,0001-00-0000-12.png
00000009,289,1,1440519202713,1440519202793,888,346,0,0,0,2,1,1,21,0002-00-0006-35.png,0001-00-0002-77.png
00000009,290,1,1440519203892,1440519203956,870,408,0,0,0,5,4,1,54,0005-00-0007-57.png,0004-00-0004-71.png
00000009,291,0,1440519204980,1440519205971,338,384,0,0,0,4,3,1,43,0004-00-0008-88.png,0003-00-0005-22.png
00000009,292,0,1440519209199,1440519209764,1063,277,0,0,0,3,4,1,34,0003-00-0007-48.png,0004-00-0001-88.png
00000009,293,0,1440519212911,1440519213662,1090,275,0,0,0,1,2,1,12,0001-00-0006-72.png,0002-00-0007-22.png
00000009,294,0,1440519216856,1440519216916,959,329,0,0,0,2,3,1,23,0002-00-0005-70.png,0003-00-0003-33.png
00000009,295,0,1440519220209,1440519220751,959,350,0,0,0,4,5,1,45,0004-00-0001-71.png,0005-00-0007-96.png
00000009,296,1,1440519223992,1440519224592,1046,279,0,0,0,3,2,1,32,0003-00-0000-83.png,0002-00-0006-83.png
00000009,297,0,1440519226195,1440519226785,1063,260,0,0,0,2,3,1,23,0002-00-0007-38.png,0003-00-0003-57.png
00000009,298,0,1440519229883,1440519230626,954,359,0,0,0,1,2,1,12,0001-00-0002-06.png,0002-00-0004-01.png
00000009,299,1,1440519234159,1440519234198,888,276,0,0,0,3,2,1,32,0003-00-0003-85.png,0002-00-0003-61.png
00000009,300,1,1440519235299,1440519236077,921,319,0,0,0,2,1,1,21,0002-00-0009-11.png,0001-00-0007-63.png
00000009,301,0,1440519236968,1440519237076,888,428,0,0,0,4,5,1,45,0004-00-0009-37.png,0005-00-0000-79.png
00000009,302,0,1440519240241,1440519240849,943,364,0,0,0,3,4,1,34,0003-00-0004-67.png,0004-00-0004-09.png
00000009,303,1,1440519244053,1440519244323,913,358,0,0,0,4,3,1,43,0004-00-0006-94.png,0003-00-0001-49.png
00000009,304,1,1440519245175,1440519245302,863,407,0,0,0,5,4,1,54,0005-00-0008-18.png,0004-00-0007-01.png
00000009,305,1,1440519246846,1440519247768,999,268,0,0,0,3,2,1,32,0003-00-0001-19.png,0002-00-0000-53.png
00000009,306,0,1440519248613,1440519249529,882,336,0,0,0,4,5,1,45,0004-00-0002-90.png,0005-00-0001-70.png
00000009,307,1,1440519252563,1440519253157,417,290,0,0,0,3,4,1,34,0003-00-0006-40.png,0004-00-0005-46.png
00000009,308,1,1440519254067,1440519255175,922,341,0,0,0,5,4,1,54,0005-00-0002-10.png,0004-00-0002-87.png
00000009,309,1,1440519256018,1440519256078,876,436,0,0,0,4,3,1,43,0004-00-0001-77.png,0003-00-0009-85.png
00000009,310,0,1440519257629,1440519258476,344,360,0,0,0,2,1,1,21,0002-00-0000-82.png,0001-00-0006-42.png
00000009,311,0,1440519261806,1440519262469,1064,281,0,0,0,2,3,1,23,0002-00-0002-98.png,0003-00-0002-95.png
00000009,312,0,1440519265749,1440519265788,908,324,0,0,0,1,2,1,12,0001-00-0003-59.png,0002-00-0009-21.png
00000009,313,1,1440519269039,1440519269666,435,298,0,0,0,1,2,1,12,0001-00-0002-85.png,0002-00-0001-29.png
00000009,314,1,1440519270579,1440519271812,915,335,0,0,0,3,2,1,32,0003-00-0003-34.png,0002-00-0005-61.png
00000009,315,0,1440519273980,1440519274795,366,365,0,0,0,4,3,1,43,0004-00-0008-82.png,0003-00-0002-63.png
00000009,316,1,1440519277982,1440519278623,441,259,0,0,0,2,3,1,23,0002-00-0004-49.png,0003-00-0004-41.png
00000009,317,1,1440519279540,1440519280356,372,392,0,0,0,3,4,1,34,0003-00-0002-26.png,0004-00-0006-24.png
00000009,318,1,1440519281284,1440519281373,862,427,0,0,0,5,4,1,54,0005-00-0004-40.png,0004-00-0002-69.png
00000009,319,1,1440519282293,1440519282961,877,556,0,0,0,2,1,1,21,0002-00-0002-53.png,0001-00-0007-86.png
00000009,320,1,1440519283966,1440519284885,352,345,0,0,0,4,5,1,45,0004-00-0007-11.png,0005-00-0009-50.png
00000009,321,0,1440519285793,1440519285837,864,418,0,0,0,4,5,1,45,0004-00-0004-27.png,0005-00-0005-47.png
00000009,322,1,1440519288906,1440519288930,862,332,0,0,0,4,3,1,43,0004-00-0008-61.png,0003-00-0002-72.png
00000009,323,1,1440519289888,1440519289960,862,414,0,0,0,5,4,1,54,0005-00-0005-86.png,0004-00-0005-97.png
00000009,324,1,1440519291228,1440519291268,862,421,0,0,0,2,1,1,21,0002-00-0009-08.png,0001-00-0004-69.png
00000009,325,0,1440519292439,1440519293097,888,529,0,0,0,3,4,1,34,0003-00-0000-07.png,0004-00-0002-77.png
00000009,326,0,1440519296264,1440519296858,1089,247,0,0,0,1,2,1,12,0001-00-0003-62.png,0002-00-0005-78.png
00000009,327,1,1440519301969,1440519302563,423,270,0,0,0,2,3,1,23,0002-00-0005-91.png,0003-00-0004-89.png
00000009,328,1,1440519303409,1440519304290,889,345,0,0,0,3,2,1,32,0003-00-0008-43.png,0002-00-0005-15.png
00000009,329,1,1440519305954,1440519306529,961,360,0,0,0,3,2,1,32,0003-00-0008-46.png,0002-00-0008-31.png
00000009,330,0,1440519308745,1440519309314,487,269,0,0,0,4,3,1,43,0004-00-0009-52.png,0003-00-0008-46.png
00000009,331,1,1440519313041,1440519313147,491,356,0,0,0,2,3,1,23,0002-00-0009-46.png,0003-00-0007-53.png
00000009,332,1,1440519314713,1440519315483,340,461,0,0,0,1,2,1,12,0001-00-0008-50.png,0002-00-0002-15.png
00000009,333,0,1440519318901,1440519319048,888,373,0,0,0,4,5,1,45,0004-00-0002-91.png,0005-00-0002-56.png
00000009,334,0,1440519322276,1440519322950,248,344,0,0,0,2,1,1,21,0002-00-0000-28.png,0001-00-0000-70.png
00000009,335,1,1440519326225,1440519326934,345,394,0,0,0,3,4,1,34,0003-00-0005-85.png,0004-00-0001-91.png
00000009,336,1,1440519327840,1440519327983,913,375,0,0,0,5,4,1,54,0005-00-0009-69.png,0004-00-0007-34.png
00000009,337,1,1440519329014,1440519330271,990,410,0,0,0,5,4,1,54,0005-00-0006-92.png,0004-00-0004-16.png
00000009,338,1,1440519331964,1440519332002,925,298,0,0,0,3,2,1,32,0003-00-0000-72.png,0002-00-0007-18.png
00000009,339,0,1440519333021,1440519333160,862,426,0,0,0,3,4,1,34,0003-00-0005-51.png,0004-00-0000-81.png
00000009,340,0,1440519336138,1440519336824,436,241,0,0,0,2,1,1,21,0002-00-0001-66.png,0001-00-0005-20.png
00000009,341,1,1440519339992,1440519340079,952,306,0,0,0,4,3,1,43,0004-00-0008-90.png,0003-00-0000-57.png
00000009,342,1,1440519341584,1440519342298,338,407,0,0,0,4,5,1,45,0004-00-0001-42.png,0005-00-0008-36.png
00000009,343,0,1440519343163,1440519344257,873,336,0,0,0,1,2,1,12,0001-00-0003-78.png,0002-00-0009-90.png
00000009,344,1,1440519347137,1440519347875,407,242,0,0,0,2,3,1,23,0002-00-0007-71.png,0003-00-0001-71.png
00000009,345,0,1440519348760,1440519349803,335,397,0,0,0,5,4,1,54,0005-00-0002-73.png,0004-00-0000-26.png
00000009,346,1,1440519352978,1440519353014,909,304,0,0,0,3,2,1,32,0003-00-0002-93.png,0002-00-0005-07.png
00000009,347,1,1440519353872,1440519354030,860,430,0,0,0,4,3,1,43,0004-00-0002-73.png,0003-00-0001-15.png
00000009,348,0,1440519355504,1440519356354,915,308,0,0,0,2,3,1,23,0002-00-0000-36.png,0003-00-0003-03.png
00000009,349,0,1440519359869,1440519360752,942,356,0,0,0,3,4,1,34,0003-00-0005-22.png,0004-00-0003-04.png
00000009,350,0,1440519364288,1440519364330,902,308,0,0,0,4,5,1,45,0004-00-0000-58.png,0005-00-0006-07.png
00000009,351,0,1440519367508,1440519368030,956,335,0,0,0,1,2,1,12,0001-00-0000-64.png,0002-00-0007-41.png
00000009,352,0,1440519370929,1440519371582,437,282,0,0,0,2,1,1,21,0002-00-0008-17.png,0001-00-0008-47.png
00000009,353,1,1440519374595,1440519375312,445,269,0,0,0,4,5,1,45,0004-00-0008-27.png,0005-00-0001-50.png
00000009,354,0,1440519376174,1440519377473,333,370,0,0,0,5,4,1,54,0005-00-0003-87.png,0004-00-0002-97.png
00000009,355,1,1440519380669,1440519380729,946,325,0,0,0,4,3,1,43,0004-00-0006-03.png,0003-00-0005-22.png
00000009,356,1,1440519381597,1440519381757,907,391,0,0,0,3,2,1,32,0003-00-0005-91.png,0002-00-0007-26.png
00000009,357,0,1440519382683,1440519382751,888,400,0,0,0,3,4,1,34,0003-00-0003-36.png,0004-00-0006-00.png
00000009,358,0,1440519385667,1440519385727,913,373,0,0,0,1,2,1,12,0001-00-0004-50.png,0002-00-0008-25.png
00000009,359,1,1440519388646,1440519389472,1020,261,0,0,0,2,1,1,21,0002-00-0006-26.png,0001-00-0003-99.png
00000009,360,0,1440519391130,1440519391802,985,306,0,0,0,2,3,1,23,0002-00-0009-35.png,0003-00-0004-01.png
00000009,361,1,1440519394986,1440519395615,464,275,0,0,0,1,2,1,12,0001-00-0000-31.png,0002-00-0007-37.png
00000009,362,0,1440519397291,1440519397997,927,349,0,0,0,4,5,1,45,0004-00-0007-95.png,0005-00-0008-03.png
00000009,363,0,1440519401110,1440519401170,924,358,0,0,0,3,4,1,34,0003-00-0005-21.png,0004-00-0006-23.png
00000009,364,1,1440519404400,1440519404972,943,330,0,0,0,4,3,1,43,0004-00-0002-44.png,0003-00-0007-98.png
00000009,365,0,1440519406563,1440519407276,976,338,0,0,0,2,3,1,23,0002-00-0009-51.png,0003-00-0003-01.png
00000009,366,1,1440519410130,1440519410643,938,330,0,0,0,3,2,1,32,0003-00-0006-21.png,0002-00-0004-48.png
00000009,367,1,1440519412138,1440519412178,862,358,0,0,0,5,4,1,54,0005-00-0009-83.png,0004-00-0009-62.png
00000009,368,1,1440519413301,1440519413360,858,419,0,0,0,2,1,1,21,0002-00-0002-14.png,0001-00-0008-46.png
00000009,369,1,1440519414275,1440519415419,428,233,0,0,0,4,5,1,45,0004-00-0005-76.png,0005-00-0004-63.png
00000009,370,0,1440519416270,1440519416341,871,410,0,0,0,3,4,1,34,0003-00-0007-48.png,0004-00-0002-83.png
00000009,371,1,1440519419505,1440519419513,877,361,0,0,0,2,1,1,21,0002-00-0006-42.png,0001-00-0007-45.png
00000009,372,1,1440519420358,1440519420501,862,451,0,0,0,4,3,1,43,0004-00-0006-72.png,0003-00-0005-22.png
00000009,373,0,1440519421956,1440519423216,1092,267,0,0,0,2,3,1,23,0002-00-0004-17.png,0003-00-0005-19.png
00000009,374,0,1440519426303,1440519426339,882,373,0,0,0,1,2,1,12,0001-00-0002-43.png,0002-00-0003-65.png
00000009,375,1,1440519429382,1440519429883,1041,262,0,0,0,5,4,1,54,0005-00-0001-14.png,0004-00-0003-92.png
00000009,376,1,1440519431319,1440519431984,1019,278,0,0,0,3,2,1,32,0003-00-0008-01.png,0002-00-0003-84.png
00000009,377,0,1440519433615,1440519434230,1040,267,0,0,0,2,3,1,23,0002-00-0007-66.png,0003-00-0006-39.png
00000009,378,1,1440519437361,1440519437417,892,349,0,0,0,5,4,1,54,0005-00-0002-36.png,0004-00-0008-63.png
00000009,379,0,1440519438293,1440519438405,901,410,0,0,0,4,5,1,45,0004-00-0009-34.png,0005-00-0006-28.png
00000009,380,0,1440519441546,1440519441614,972,354,0,0,0,3,4,1,34,0003-00-0007-43.png,0004-00-0007-41.png
00000009,381,1,1440519444784,1440519444834,966,333,0,0,0,2,1,1,21,0002-00-0006-33.png,0001-00-0002-68.png
00000009,382,0,1440519445706,1440519445842,913,453,0,0,0,1,2,1,12,0001-00-0006-10.png,0002-00-0005-51.png
00000009,383,1,1440519448996,1440519449044,913,332,0,0,0,4,3,1,43,0004-00-0006-93.png,0003-00-0003-12.png
00000009,384,1,1440519449883,1440519450080,862,436,0,0,0,3,2,1,32,0003-00-0008-25.png,0002-00-0009-41.png
00000009,385,0,1440519451102,1440519451174,862,410,0,0,0,4,5,1,45,0004-00-0004-78.png,0005-00-0007-40.png
00000009,386,0,1440519454085,1440519454881,436,230,0,0,0,5,4,1,54,0005-00-0009-52.png,0004-00-0001-26.png
00000009,387,1,1440519457982,1440519458503,951,320,0,0,0,2,1,1,21,0002-00-0003-19.png,0001-00-0004-86.png
00000009,388,0,1440519459929,1440519460072,910,383,0,0,0,3,4,1,34,0003-00-0009-18.png,0004-00-0009-61.png
00000009,389,1,1440519463266,1440519463315,964,324,0,0,0,4,3,1,43,0004-00-0005-61.png,0003-00-0002-69.png
00000009,390,1,1440519464695,1440519464916,967,332,0,0,0,3,2,1,32,0003-00-0003-72.png,0002-00-0008-15.png
00000009,391,0,1440519465824,1440519466950,980,263,0,0,0,2,3,1,23,0002-00-0005-71.png,0003-00-0003-30.png
00000009,392,1,1440519469982,1440519470819,420,277,0,0,0,1,2,1,12,0001-00-0000-04.png,0002-00-0004-43.png
00000009,393,1,1440519472636,1440519473183,392,370,0,0,0,1,2,1,12,0001-00-0003-59.png,0002-00-0005-05.png
00000009,394,1,1440519474713,1440519474828,897,384,0,0,0,5,4,1,54,0005-00-0002-68.png,0004-00-0004-33.png
00000009,395,0,1440519475736,1440519475807,869,430,0,0,0,2,3,1,23,0002-00-0001-23.png,0003-00-0007-44.png
00000009,396,1,1440519479761,1440519480326,964,285,0,0,0,2,1,1,21,0002-00-0007-59.png,0001-00-0005-59.png
00000009,397,1,1440519481988,1440519482036,911,327,0,0,0,4,3,1,43,0004-00-0004-47.png,0003-00-0000-00.png
00000009,398,0,1440519482990,1440519483144,862,445,0,0,0,3,4,1,34,0003-00-0000-99.png,0004-00-0006-61.png
00000009,399,0,1440519486264,1440519486856,433,269,0,0,0,3,2,1,32,0003-00-0009-22.png,0002-00-0006-04.png
00000009,400,0,1440519490028,1440519490076,958,332,0,0,0,4,5,1,45,0004-00-0005-15.png,0005-00-0001-06.png
00000009,401,0,1440519493168,1440519493725,962,309,0,0,0,4,5,1,45,0004-00-0003-97.png,0005-00-0009-29.png
00000009,402,1,1440519496966,1440519497026,939,332,0,0,0,5,4,1,54,0005-00-0000-00.png,0004-00-0005-23.png
00000009,403,1,1440519497874,1440519497970,888,412,0,0,0,2,1,1,21,0002-00-0003-96.png,0001-00-0001-79.png
00000009,404,0,1440519498861,1440519499435,927,528,0,0,0,2,3,1,23,0002-00-0001-24.png,0003-00-0004-92.png
00000009,405,1,1440519502847,1440519502863,911,332,0,0,0,4,3,1,43,0004-00-0006-48.png,0003-00-0003-98.png
00000009,406,0,1440519504642,1440519504706,901,298,0,0,0,1,2,1,12,0001-00-0007-12.png,0002-00-0008-10.png
00000009,407,1,1440519507834,1440519508416,422,299,0,0,0,3,4,1,34,0003-00-0002-31.png,0004-00-0001-79.png
00000009,408,1,1440519509266,1440519509385,888,422,0,0,0,3,2,1,32,0003-00-0009-99.png,0002-00-0008-96.png
00000009,409,0,1440519510827,1440519511341,880,469,0,0,0,1,2,1,12,0001-00-0007-10.png,0002-00-0000-00.png
00000009,410,1,1440519514175,1440519514559,858,321,0,0,0,3,2,1,32,0003-00-0008-35.png,0002-00-0005-90.png
00000009,411,1,1440519515893,1440519516056,898,358,0,0,0,4,3,1,43,0004-00-0007-54.png,0003-00-0001-63.png
00000009,412,1,1440519516978,1440519517870,390,381,0,0,0,2,3,1,23,0002-00-0005-33.png,0003-00-0009-95.png
00000009,413,1,1440519518769,1440519519433,877,487,0,0,0,5,4,1,54,0005-00-0000-80.png,0004-00-0005-32.png
00000009,414,1,1440519520807,1440519521484,349,413,0,0,0,3,4,1,34,0003-00-0005-75.png,0004-00-0004-77.png
00000009,415,1,1440519522900,1440519522984,875,383,0,0,0,2,1,1,21,0002-00-0006-32.png,0001-00-0005-18.png
00000009,416,0,1440519524202,1440519524860,879,472,0,0,0,4,5,1,45,0004-00-0004-29.png,0005-00-0004-95.png
00000009,417,1,1440519528962,1440519529452,992,354,0,0,0,4,3,1,43,0004-00-0004-20.png,0003-00-0000-31.png
00000009,418,0,1440519530713,1440519530903,888,348,0,0,0,4,5,1,45,0004-00-0004-37.png,0005-00-0006-72.png
00000009,419,1,1440519534081,1440519534129,958,332,0,0,0,5,4,1,54,0005-00-0006-94.png,0004-00-0007-67.png
00000009,420,0,1440519535451,1440519535828,927,384,0,0,0,1,2,1,12,0001-00-0003-99.png,0002-00-0006-26.png
00000009,421,1,1440519538954,1440519539050,990,343,0,0,0,2,1,1,21,0002-00-0008-35.png,0001-00-0005-80.png
00000009,422,1,1440519540564,1440519541307,1018,250,0,0,0,3,2,1,32,0003-00-0009-28.png,0002-00-0000-16.png
00000009,423,0,1440519542959,1440519543055,869,398,0,0,0,2,3,1,23,0002-00-0004-92.png,0003-00-0008-51.png
00000009,424,0,1440519546038,1440519546531,1070,268,0,0,0,3,4,1,34,0003-00-0008-45.png,0004-00-0000-36.png
00000009,425,1,1440519549705,1440519549745,887,364,0,0,0,5,4,1,54,0005-00-0005-46.png,0004-00-0008-66.png
00000009,426,1,1440519551064,1440519551194,888,373,0,0,0,3,2,1,32,0003-00-0003-56.png,0002-00-0008-19.png
00000009,427,0,1440519552197,1440519552288,874,421,0,0,0,4,5,1,45,0004-00-0005-35.png,0005-00-0008-06.png
00000009,428,0,1440519555210,1440519555250,888,410,0,0,0,1,2,1,12,0001-00-0002-42.png,0002-00-0007-99.png
00000009,429,0,1440519558421,1440519558934,949,334,0,0,0,3,4,1,34,0003-00-0001-37.png,0004-00-0007-48.png
00000009,430,1,1440519561774,1440519562598,397,240,0,0,0,2,3,1,23,0002-00-0006-50.png,0003-00-0004-51.png
00000009,431,1,1440519563447,1440519563737,939,410,0,0,0,2,1,1,21,0002-00-0007-06.png,0001-00-0007-51.png
00000009,432,1,1440519564611,1440519564671,881,418,0,0,0,4,3,1,43,0004-00-0005-42.png,0003-00-0009-00.png
00000009,433,0,1440519566098,1440519566172,862,420,0,0,0,3,4,1,34,0003-00-0008-62.png,0004-00-0008-64.png
00000009,434,1,1440519569400,1440519570016,993,326,0,0,0,5,4,1,54,0005-00-0003-37.png,0004-00-0008-30.png
00000009,435,0,1440519571348,1440519571421,874,384,0,0,0,1,2,1,12,0001-00-0008-39.png,0002-00-0001-01.png
00000009,436,1,1440519574268,1440519574849,942,288,0,0,0,4,3,1,43,0004-00-0003-53.png,0003-00-0009-13.png
00000009,437,1,1440519576182,1440519576262,888,384,0,0,0,2,1,1,21,0002-00-0001-38.png,0001-00-0004-00.png
00000009,438,0,1440519577102,1440519577182,862,410,0,0,0,4,5,1,45,0004-00-0007-82.png,0005-00-0006-55.png
00000009,439,1,1440519580353,1440519581012,932,314,0,0,0,3,2,1,32,0003-00-0006-85.png,0002-00-0002-76.png
00000009,440,0,1440519582328,1440519582467,879,384,0,0,0,2,3,1,23,0002-00-0007-48.png,0003-00-0007-02.png
00000009,441,1,1440519585626,1440519585661,953,355,0,0,0,5,4,1,54,0005-00-0007-19.png,0004-00-0006-02.png
00000009,442,1,1440519586533,1440519586645,888,452,0,0,0,4,3,1,43,0004-00-0001-95.png,0003-00-0008-66.png
00000009,443,0,1440519588117,1440519588196,872,410,0,0,0,3,4,1,34,0003-00-0005-38.png,0004-00-0003-89.png
00000009,444,1,1440519591085,1440519591137,894,411,0,0,0,2,1,1,21,0002-00-0009-66.png,0001-00-0003-25.png
00000009,445,0,1440519592506,1440519592598,888,370,0,0,0,4,5,1,45,0004-00-0002-37.png,0005-00-0000-07.png
00000009,446,0,1440519595725,1440519596242,1044,269,0,0,0,1,2,1,12,0001-00-0007-82.png,0002-00-0008-84.png
00000009,447,0,1440519599365,1440519600018,460,228,0,0,0,3,2,1,32,0003-00-0009-16.png,0002-00-0008-34.png
00000009,448,1,1440519603077,1440519603837,370,365,0,0,0,2,3,1,23,0002-00-0002-45.png,0003-00-0003-84.png
00000009,449,0,1440519604660,1440519604732,859,410,0,0,0,1,2,1,12,0001-00-0009-83.png,0002-00-0003-61.png
00000009,450,1,1440519607901,1440519607949,896,350,0,0,0,2,1,1,21,0002-00-0000-73.png,0001-00-0004-22.png
00000009,451,0,1440519609280,1440519609450,913,347,0,0,0,4,5,1,45,0004-00-0002-71.png,0005-00-0003-90.png
00000009,452,1,1440519612493,1440519612553,900,358,0,0,0,4,3,1,43,0004-00-0006-67.png,0003-00-0007-06.png
00000009,453,1,1440519613408,1440519613582,862,419,0,0,0,5,4,1,54,0005-00-0007-20.png,0004-00-0001-52.png
00000009,454,1,1440519615137,1440519615225,888,384,0,0,0,3,2,1,32,0003-00-0005-67.png,0002-00-0000-56.png
00000009,455,0,1440519616707,1440519616779,879,391,0,0,0,3,4,1,34,0003-00-0001-51.png,0004-00-0002-37.png
00000009,456,0,1440519619946,1440519619972,946,318,0,0,0,2,3,1,23,0002-00-0000-50.png,0003-00-0005-11.png
00000009,457,0,1440519623137,1440519623173,933,364,0,0,0,1,2,1,12,0001-00-0005-92.png,0002-00-0000-80.png
00000009,458,1,1440519626345,1440519626880,1057,302,0,0,0,3,2,1,32,0003-00-0008-53.png,0002-00-0002-94.png
00000009,459,0,1440519628473,1440519629365,462,232,0,0,0,5,4,1,54,0005-00-0000-73.png,0004-00-0001-32.png
00000009,460,0,1440519632507,1440519632543,898,358,0,0,0,3,4,1,34,0003-00-0002-75.png,0004-00-0002-90.png
00000009,461,1,1440519635527,1440519635575,916,442,0,0,0,2,1,1,21,0002-00-0009-24.png,0001-00-0008-08.png
00000009,462,0,1440519637078,1440519637783,908,336,0,0,0,2,3,1,23,0002-00-0008-64.png,0003-00-0006-78.png
00000009,463,0,1440519640784,1440519641469,450,247,0,0,0,4,3,1,43,0004-00-0001-47.png,0003-00-0008-19.png
00000009,464,1,1440519644582,1440519645187,451,255,0,0,0,4,5,1,45,0004-00-0004-43.png,0005-00-0003-60.png
00000009,465,0,1440519646060,1440519646132,920,401,0,0,0,3,4,1,34,0003-00-0006-05.png,0004-00-0003-58.png
00000009,466,0,1440519649330,1440519649342,944,336,0,0,0,1,2,1,12,0001-00-0005-77.png,0002-00-0004-67.png
00000009,467,1,1440519652531,1440519653330,1117,277,0,0,0,5,4,1,54,0005-00-0008-70.png,0004-00-0005-74.png
00000009,468,1,1440519654648,1440519654789,898,384,0,0,0,3,2,1,32,0003-00-0002-04.png,0002-00-0009-27.png
00000009,469,0,1440519655989,1440519656081,878,384,0,0,0,2,3,1,23,0002-00-0000-83.png,0003-00-0008-97.png
00000009,470,1,1440519659234,1440519659783,1065,308,0,0,0,4,3,1,43,0004-00-0003-61.png,0003-00-0008-56.png
00000009,471,0,1440519661097,1440519662049,437,276,0,0,0,2,1,1,21,0002-00-0000-25.png,0001-00-0006-10.png
00000009,472,0,1440519664890,1440519664964,872,409,0,0,0,4,5,1,45,0004-00-0007-62.png,0005-00-0009-90.png
00000009,473,1,1440519668141,1440519668815,458,255,0,0,0,2,3,1,23,0002-00-0005-20.png,0003-00-0000-30.png
00000009,474,1,1440519669690,1440519669789,888,401,0,0,0,3,2,1,32,0003-00-0004-56.png,0002-00-0007-80.png
00000009,475,0,1440519671359,1440519672224,1020,276,0,0,0,4,5,1,45,0004-00-0004-99.png,0005-00-0000-65.png
00000009,476,1,1440519675138,1440519675780,960,297,0,0,0,4,3,1,43,0004-00-0000-28.png,0003-00-0006-57.png
00000009,477,1,1440519677454,1440519677506,923,303,0,0,0,5,4,1,54,0005-00-0003-78.png,0004-00-0006-70.png
00000009,478,1,1440519678390,1440519679377,1046,251,0,0,0,2,1,1,21,0002-00-0006-81.png,0001-00-0009-71.png
00000009,479,0,1440519680932,1440519681000,862,347,0,0,0,3,4,1,34,0003-00-0001-76.png,0004-00-0008-26.png
00000009,480,1,1440519684123,1440519684718,433,299,0,0,0,1,2,1,12,0001-00-0001-69.png,0002-00-0004-33.png
00000009,481,0,1440519685549,1440519685629,893,402,0,0,0,4,5,1,45,0004-00-0007-02.png,0005-00-0003-38.png
00000009,482,0,1440519688821,1440519688861,956,385,0,0,0,1,2,1,12,0001-00-0009-04.png,0002-00-0003-02.png
00000009,483,0,1440519692002,1440519692237,862,423,0,0,0,2,3,1,23,0002-00-0002-22.png,0003-00-0005-23.png
00000009,484,1,1440519695787,1440519695811,913,358,0,0,0,3,2,1,32,0003-00-0002-65.png,0002-00-0001-94.png
00000009,485,1,1440519696723,1440519696806,862,425,0,0,0,4,3,1,43,0004-00-0008-78.png,0003-00-0004-46.png
00000009,486,0,1440519697776,1440519698638,872,481,0,0,0,3,4,1,34,0003-00-0001-03.png,0004-00-0005-38.png
00000009,487,1,1440519701845,1440519701877,913,344,0,0,0,2,1,1,21,0002-00-0003-47.png,0001-00-0008-75.png
00000009,488,1,1440519702719,1440519702822,897,436,0,0,0,5,4,1,54,0005-00-0001-24.png,0004-00-0009-28.png
00000009,489,1,1440519704344,1440519704432,871,436,0,0,0,5,4,1,54,0005-00-0000-53.png,0004-00-0007-77.png
00000009,490,0,1440519705774,1440519705855,862,420,0,0,0,1,2,1,12,0001-00-0005-83.png,0002-00-0000-99.png
00000009,491,0,1440519708994,1440519709054,964,358,0,0,0,4,5,1,45,0004-00-0004-32.png,0005-00-0003-57.png
00000009,492,0,1440519712261,1440519712281,928,337,0,0,0,3,4,1,34,0003-00-0004-47.png,0004-00-0003-48.png
00000009,493,1,1440519715877,1440519715910,894,362,0,0,0,4,3,1,43,0004-00-0006-30.png,0003-00-0003-11.png
00000009,494,0,1440519716766,1440519716963,897,439,0,0,0,2,3,1,23,0002-00-0005-14.png,0003-00-0004-36.png
00000009,495,1,1440519720162,1440519720688,1053,275,0,0,0,2,1,1,21,0002-00-0009-26.png,0001-00-0004-66.png
00000009,496,1,1440519721544,1440519722366,1017,281,0,0,0,3,2,1,32,0003-00-0001-15.png,0002-00-0001-08.png
00000009,497,0,1440519723980,1440519724067,888,370,0,0,0,4,5,1,45,0004-00-0008-55.png,0005-00-0007-13.png
00000009,498,1,1440519727150,1440519727657,937,351,0,0,0,3,2,1,32,0003-00-0003-66.png,0002-00-0006-83.png
00000009,499,1,1440519729225,1440519730103,431,264,0,0,0,2,3,1,23,0002-00-0006-02.png,0003-00-0005-02.png
00000009,500,1,1440519731003,1440519732044,910,364,0,0,0,5,4,1,54,0005-00-0007-66.png,0004-00-0009-70.png
00000009,501,0,1440519732877,1440519732933,867,427,0,0,0,1,2,1,12,0001-00-0009-65.png,0002-00-0008-63.png
00000009,502,1,1440519736268,1440519736280,899,358,0,0,0,4,3,1,43,0004-00-0008-05.png,0003-00-0003-50.png
00000009,503,0,1440519737677,1440519737851,873,384,0,0,0,3,4,1,34,0003-00-0001-76.png,0004-00-0006-55.png
00000009,504,1,1440519741415,1440519741439,902,354,0,0,0,2,1,1,21,0002-00-0005-27.png,0001-00-0005-16.png
00000009,505,0,1440519742313,1440519742512,873,436,0,0,0,3,4,1,34,0003-00-0008-20.png,0004-00-0009-69.png
00000009,506,0,1440519745673,1440519745693,890,360,0,0,0,1,2,1,12,0001-00-0005-41.png,0002-00-0000-40.png
00000009,507,1,1440519748800,1440519749446,420,259,0,0,0,2,3,1,23,0002-00-0005-77.png,0003-00-0007-07.png
00000009,508,0,1440519750271,1440519751338,902,410,0,0,0,4,5,1,45,0004-00-0009-22.png,0005-00-0007-34.png
00000009,509,1,1440519754417,1440519755137,956,306,0,0,0,5,4,1,54,0005-00-0004-90.png,0004-00-0006-75.png
00000009,510,1,1440519756512,1440519756736,938,336,0,0,0,4,3,1,43,0004-00-0005-22.png,0003-00-0005-66.png
00000009,511,0,1440519757767,1440519758735,327,395,0,0,0,3,2,1,32,0003-00-0009-56.png,0002-00-0003-88.png
00000009,512,1,1440519761620,1440519762226,1019,265,0,0,0,2,1,1,21,0002-00-0000-42.png,0001-00-0008-21.png
00000009,513,0,1440519763646,1440519763725,900,358,0,0,0,2,3,1,23,0002-00-0000-91.png,0003-00-0003-00.png
00000009,514,0,1440519766710,1440519767207,930,328,0,0,0,1,2,1,12,0001-00-0003-05.png,0002-00-0000-98.png
00000009,515,1,1440519770352,1440519770547,1066,302,0,0,0,2,1,1,21,0002-00-0005-24.png,0001-00-0006-06.png
00000009,516,1,1440519771469,1440519771580,862,410,0,0,0,5,4,1,54,0005-00-0009-21.png,0004-00-0006-01.png
00000009,517,0,1440519772921,1440519773016,897,384,0,0,0,3,4,1,34,0003-00-0009-41.png,0004-00-0004-27.png
00000009,518,0,1440519776177,1440519776201,917,332,0,0,0,4,5,1,45,0004-00-0000-21.png,0005-00-0006-33.png
00000009,519,1,1440519779350,1440519779402,925,384,0,0,0,3,2,1,32,0003-00-0009-82.png,0002-00-0003-71.png
00000009,520,1,1440519780758,1440519781027,937,354,0,0,0,4,3,1,43,0004-00-0007-00.png,0003-00-0000-92.png
00000009,521,0,1440519781951,1440519782012,867,394,0,0,0,4,5,1,45,0004-00-0009-39.png,0005-00-0008-68.png
00000009,522,1,1440519785212,1440519785749,1081,279,0,0,0,4,3,1,43,0004-00-0001-94.png,0003-00-0000-50.png
00000009,523,1,1440519787021,1440519787129,897,358,0,0,0,5,4,1,54,0005-00-0001-63.png,0004-00-0002-02.png
00000009,524,0,1440519787954,1440519788006,877,419,0,0,0,2,3,1,23,0002-00-0006-44.png,0003-00-0007-37.png
00000009,525,1,1440519790841,1440519791601,437,242,0,0,0,1,2,1,12,0001-00-0003-93.png,0002-00-0001-07.png
00000009,526,1,1440519792990,1440519793160,934,348,0,0,0,2,1,1,21,0002-00-0005-27.png,0001-00-0001-27.png
00000009,527,1,1440519794067,1440519794103,867,392,0,0,0,3,2,1,32,0003-00-0007-62.png,0002-00-0004-11.png
00000009,528,0,1440519795317,1440519795877,878,468,0,0,0,3,4,1,34,0003-00-0005-43.png,0004-00-0003-09.png
00000009,529,1,1440519799053,1440519799615,938,374,0,0,0,3,2,1,32,0003-00-0002-16.png,0002-00-0004-60.png
00000009,530,0,1440519800880,1440519800984,870,400,0,0,0,2,3,1,23,0002-00-0001-85.png,0003-00-0002-41.png
00000009,531,1,1440519804151,1440519804929,458,260,0,0,0,3,4,1,34,0003-00-0000-37.png,0004-00-0000-71.png
00000009,532,0,1440519806319,1440519806418,950,358,0,0,0,4,5,1,45,0004-00-0009-62.png,0005-00-0009-98.png
00000009,533,1,1440519809560,1440519810145,1072,285,0,0,0,5,4,1,54,0005-00-0003-84.png,0004-00-0006-10.png
00000009,534,1,1440519811527,1440519811780,1010,388,0,0,0,4,3,1,43,0004-00-0007-80.png,0003-00-0002-77.png
00000009,535,0,1440519812759,1440519812819,910,400,0,0,0,1,2,1,12,0001-00-0008-94.png,0002-00-0004-90.png
00000009,536,1,1440519815677,1440519815689,881,380,0,0,0,2,1,1,21,0002-00-0004-69.png,0001-00-0003-20.png
00000009,537,0,1440519816800,1440519816844,924,410,0,0,0,1,2,1,12,0001-00-0006-24.png,0002-00-0004-76.png
00000009,538,1,1440519819963,1440519820015,913,359,0,0,0,4,3,1,43,0004-00-0002-49.png,0003-00-0000-65.png
00000009,539,0,1440519821322,1440519821531,913,387,0,0,0,4,5,1,45,0004-00-0004-93.png,0005-00-0003-61.png
00000009,540,1,1440519824554,1440519825127,337,348,0,0,0,2,3,1,23,0002-00-0004-14.png,0003-00-0007-71.png
00000009,541,0,1440519826621,1440519826818,955,332,0,0,0,3,4,1,34,0003-00-0004-55.png,0004-00-0001-57.png
00000009,542,1,1440519829820,1440519830015,917,379,0,0,0,3,2,1,32,0003-00-0004-29.png,0002-00-0000-58.png
00000009,543,1,1440519830903,1440519831096,913,465,0,0,0,2,1,1,21,0002-00-0004-38.png,0001-00-0007-14.png
00000009,544,1,1440519832336,1440519832436,913,422,0,0,0,5,4,1,54,0005-00-0001-71.png,0004-00-0005-91.png
00000009,545,1,1440519833930,1440519835035,922,382,0,0,0,5,4,1,54,0005-00-0009-23.png,0004-00-0000-08.png
00000009,546,1,1440519835930,1440519836018,874,434,0,0,0,4,3,1,43,0004-00-0003-02.png,0003-00-0002-03.png
00000009,547,1,1440519837245,1440519837317,888,410,0,0,0,3,2,1,32,0003-00-0006-62.png,0002-00-0001-17.png
00000009,548,1,1440519838246,1440519838290,862,394,0,0,0,2,1,1,21,0002-00-0004-03.png,0001-00-0001-50.png
00000009,549,0,1440519839131,1440519839165,876,438,0,0,0,2,3,1,23,0002-00-0002-77.png,0003-00-0006-74.png
00000009,550,0,1440519842331,1440519842343,949,332,0,0,0,1,2,1,12,0001-00-0006-71.png,0002-00-0002-56.png
00000009,551,0,1440519845502,1440519845582,981,356,0,0,0,3,4,1,34,0003-00-0003-51.png,0004-00-0003-57.png
00000009,552,0,1440519848741,1440519849285,1051,278,0,0,0,4,5,1,45,0004-00-0004-99.png,0005-00-0006-45.png
00000009,553,1,1440519852382,1440519853024,927,329,0,0,0,5,4,1,54,0005-00-0000-32.png,0004-00-0009-42.png
00000009,554,0,1440519854434,1440519854494,888,348,0,0,0,4,5,1,45,0004-00-0008-39.png,0005-00-0005-50.png
00000009,555,0,1440519858114,1440519858741,1058,270,0,0,0,1,2,1,12,0001-00-0003-13.png,0002-00-0004-39.png
00000009,556,0,1440519861691,1440519862304,938,327,0,0,0,2,3,1,23,0002-00-0009-23.png,0003-00-0006-90.png
00000009,557,1,1440519865464,1440519865520,908,342,0,0,0,2,1,1,21,0002-00-0008-62.png,0001-00-0000-30.png
00000009,558,0,1440519866877,1440519866937,890,359,0,0,0,3,4,1,34,0003-00-0003-34.png,0004-00-0007-06.png
00000009,559,1,1440519870117,1440519870185,931,352,0,0,0,3,2,1,32,0003-00-0008-85.png,0002-00-0003-32.png
00000009,560,1,1440519871009,1440519871159,894,451,0,0,0,4,3,1,43,0004-00-0004-04.png,0003-00-0007-07.png
00000009,561,0,1440519872602,1440519872630,870,401,0,0,0,4,5,1,45,0004-00-0005-76.png,0005-00-0004-39.png
00000009,562,1,1440519875819,1440519876425,346,381,0,0,0,3,4,1,34,0003-00-0007-02.png,0004-00-0008-28.png
00000009,563,0,1440519877270,1440519877432,936,436,0,0,0,2,3,1,23,0002-00-0001-51.png,0003-00-0003-96.png
00000009,564,1,1440519880611,1440519881121,935,315,0,0,0,2,1,1,21,0002-00-0000-39.png,0001-00-0008-71.png
00000009,565,1,1440519882459,1440519882511,877,354,0,0,0,4,3,1,43,0004-00-0005-35.png,0003-00-0001-12.png
00000009,566,1,1440519883542,1440519884300,880,470,0,0,0,3,2,1,32,0003-00-0005-47.png,0002-00-0001-89.png
00000009,567,0,1440519885131,1440519885211,882,421,0,0,0,1,2,1,12,0001-00-0005-17.png,0002-00-0007-14.png
00000009,568,1,1440519888203,1440519888808,1063,259,0,0,0,5,4,1,54,0005-00-0007-10.png,0004-00-0000-21.png
00000009,569,1,1440519890148,1440519890175,862,356,0,0,0,2,1,1,21,0002-00-0002-99.png,0001-00-0008-66.png
00000009,570,1,1440519891631,1440519892338,321,377,0,0,0,3,4,1,34,0003-00-0005-72.png,0004-00-0009-80.png
00000009,571,1,1440519893200,1440519893248,875,396,0,0,0,3,2,1,32,0003-00-0001-17.png,0002-00-0006-98.png
00000009,572,1,1440519894243,1440519895198,1016,268,0,0,0,5,4,1,54,0005-00-0000-39.png,0004-00-0008-90.png
00000009,573,1,1440519896366,1440519896430,916,415,0,0,0,4,3,1,43,0004-00-0004-59.png,0003-00-0003-19.png
00000009,574,1,1440519897840,1440519898686,461,243,0,0,0,4,5,1,45,0004-00-0000-67.png,0005-00-0005-47.png
00000009,575,0,1440519899579,1440519899631,897,433,0,0,0,2,3,1,23,0002-00-0008-84.png,0003-00-0009-79.png
00000009,576,0,1440519903117,1440519903137,921,325,0,0,0,1,2,1,12,0001-00-0001-27.png,0002-00-0001-65.png
00000009,577,0,1440519906240,1440519906794,1070,282,0,0,0,1,2,1,12,0001-00-0007-98.png,0002-00-0000-89.png
00000009,578,1,1440519909767,1440519909807,888,451,0,0,0,2,1,1,21,0002-00-0009-48.png,0001-00-0009-51.png
00000009,579,1,1440519910759,1440519910851,898,448,0,0,0,3,2,1,32,0003-00-0001-28.png,0002-00-0007-28.png
00000009,580,1,1440519912260,1440519913019,358,372,0,0,0,4,5,1,45,0004-00-0004-69.png,0005-00-0002-48.png
00000009,581,1,1440519913940,1440519914266,881,470,0,0,0,5,4,1,54,0005-00-0009-60.png,0004-00-0000-00.png
00000009,582,1,1440519915308,1440519916154,465,267,0,0,0,2,3,1,23,0002-00-0007-82.png,0003-00-0000-11.png
00000009,583,0,1440519917178,1440519917867,923,525,0,0,0,3,4,1,34,0003-00-0000-13.png,0004-00-0000-00.png
00000009,584,1,1440519920756,1440519920841,914,430,0,0,0,4,3,1,43,0004-00-0004-13.png,0003-00-0005-48.png
00000009,585,0,1440519921711,1440519921822,920,420,0,0,0,4,5,1,45,0004-00-0007-74.png,0005-00-0007-67.png
00000009,586,0,1440519924983,1440519925043,934,375,0,0,0,3,4,1,34,0003-00-0005-66.png,0004-00-0004-01.png
00000009,587,1,1440519927913,1440519928001,873,414,0,0,0,4,3,1,43,0004-00-0008-13.png,0003-00-0002-40.png
00000009,588,1,1440519928843,1440519928998,964,454,0,0,0,5,4,1,54,0005-00-0000-26.png,0004-00-0009-20.png
00000009,589,1,1440519930435,1440519930499,862,436,0,0,0,3,2,1,32,0003-00-0004-59.png,0002-00-0004-39.png
00000009,590,1,1440519931367,1440519932420,954,310,0,0,0,2,1,1,21,0002-00-0001-57.png,0001-00-0000-91.png
00000009,591,0,1440519933913,1440519933985,867,394,0,0,0,2,3,1,23,0002-00-0005-24.png,0003-00-0001-54.png
00000009,592,0,1440519937124,1440519937168,913,345,0,0,0,1,2,1,12,0001-00-0002-49.png,0002-00-0003-03.png
00000009,593,1,1440519940304,1440519940938,1061,287,0,0,0,4,3,1,43,0004-00-0001-98.png,0003-00-0003-52.png
00000009,594,1,1440519942282,1440519942474,964,342,0,0,0,2,1,1,21,0002-00-0007-41.png,0001-00-0001-59.png
00000009,595,0,1440519943433,1440519944101,880,469,0,0,0,2,3,1,23,0002-00-0007-14.png,0003-00-0003-75.png
00000009,596,1,1440519947277,1440519947902,1079,293,0,0,0,3,2,1,32,0003-00-0006-20.png,0002-00-0007-98.png
00000009,597,0,1440519949227,1440519949307,906,358,0,0,0,1,2,1,12,0001-00-0007-07.png,0002-00-0006-00.png
00000009,598,1,1440519952426,1440519952458,903,346,0,0,0,5,4,1,54,0005-00-0003-01.png,0004-00-0004-16.png
00000009,599,0,1440519953836,1440519953935,888,384,0,0,0,4,5,1,45,0004-00-0009-63.png,0005-00-0001-76.png
00000009,600,0,1440519957145,1440519957691,1067,304,0,0,0,3,4,1,34,0003-00-0008-24.png,0004-00-0008-48.png
00000009,601,0,1440519960574,1440519961256,385,290,0,0,0,2,1,1,21,0002-00-0003-20.png,0001-00-0009-28.png
00000009,602,0,1440519964362,1440519964398,886,384,0,0,0,2,3,1,23,0002-00-0001-75.png,0003-00-0001-75.png
00000009,603,1,1440519967571,1440519968235,433,274,0,0,0,1,2,1,12,0001-00-0008-51.png,0002-00-0008-51.png
00000009,604,1,1440519969078,1440519969208,913,426,0,0,0,4,3,1,43,0004-00-0009-63.png,0003-00-0005-84.png
00000009,605,0,1440519970867,1440519971704,903,381,0,0,0,4,5,1,45,0004-00-0004-87.png,0005-00-0005-18.png
00000009,606,1,1440519974836,1440519975444,1070,308,0,0,0,5,4,1,54,0005-00-0002-55.png,0004-00-0008-56.png
00000009,607,0,1440519976803,1440519977060,920,372,0,0,0,3,4,1,34,0003-00-0003-63.png,0004-00-0003-31.png
00000009,608,1,1440519980261,1440519980773,1066,303,0,0,0,3,2,1,32,0003-00-0001-02.png,0002-00-0004-07.png
00000009,609,0,1440519982149,1440519982351,939,367,0,0,0,4,5,1,45,0004-00-0000-62.png,0005-00-0001-01.png
00000009,610,0,1440519985469,1440519985525,869,376,0,0,0,2,3,1,23,0002-00-0000-69.png,0003-00-0002-46.png
00000009,611,1,1440519988649,1440519989242,1071,276,0,0,0,4,3,1,43,0004-00-0005-19.png,0003-00-0005-04.png
00000009,612,1,1440519990485,1440519990643,888,373,0,0,0,3,2,1,32,0003-00-0004-44.png,0002-00-0009-57.png
00000009,613,1,1440519991568,1440519991652,902,410,0,0,0,5,4,1,54,0005-00-0007-45.png,0004-00-0005-29.png
00000009,614,0,1440519993220,1440519993280,883,391,0,0,0,1,2,1,12,0001-00-0006-71.png,0002-00-0007-56.png
00000009,615,1,1440519996436,1440519996978,1071,273,0,0,0,2,1,1,21,0002-00-0004-60.png,0001-00-0006-61.png
00000009,616,0,1440519998285,1440519998397,888,370,0,0,0,3,4,1,34,0003-00-0009-50.png,0004-00-0002-60.png
00000009,617,0,1440520001323,1440520001829,1070,273,0,0,0,2,3,1,23,0002-00-0008-00.png,0003-00-0004-75.png
00000009,618,0,1440520005837,1440520006384,417,306,0,0,0,2,1,1,21,0002-00-0007-85.png,0001-00-0000-86.png
00000009,619,0,1440520009825,1440520010454,1097,278,0,0,0,3,4,1,34,0003-00-0005-48.png,0004-00-0004-64.png
00000009,620,0,1440520013600,1440520014109,429,331,0,0,0,3,2,1,32,0003-00-0002-56.png,0002-00-0008-53.png
00000009,621,0,1440520017275,1440520017295,892,325,0,0,0,1,2,1,12,0001-00-0002-09.png,0002-00-0000-15.png
00000009,622,1,1440520020308,1440520020819,917,336,0,0,0,4,3,1,43,0004-00-0000-64.png,0003-00-0000-35.png
00000009,623,1,1440520022463,1440520022507,964,252,0,0,0,5,4,1,54,0005-00-0008-00.png,0004-00-0008-56.png
00000009,624,0,1440520023505,1440520023577,862,370,0,0,0,4,5,1,45,0004-00-0000-91.png,0005-00-0003-28.png
00000009,625,1,1440520026695,1440520026718,903,358,0,0,0,5,4,1,54,0005-00-0007-15.png,0004-00-0008-51.png
00000009,626,0,1440520028094,1440520028476,956,384,0,0,0,2,3,1,23,0002-00-0004-33.png,0003-00-0006-18.png
00000009,627,1,1440520031645,1440520031689,909,345,0,0,0,4,3,1,43,0004-00-0000-40.png,0003-00-0008-60.png
00000009,628,1,1440520032978,1440520033192,964,332,0,0,0,3,2,1,32,0003-00-0002-71.png,0002-00-0003-09.png
00000009,629,0,1440520034063,1440520034086,862,358,0,0,0,3,4,1,34,0003-00-0000-18.png,0004-00-0000-67.png
00000009,630,0,1440520037210,1440520037817,939,343,0,0,0,4,5,1,45,0004-00-0001-18.png,0005-00-0007-05.png
00000009,631,1,1440520040949,1440520041436,365,378,0,0,0,1,2,1,12,0001-00-0001-79.png,0002-00-0006-56.png
00000009,632,1,1440520043182,1440520043757,939,365,0,0,0,2,1,1,21,0002-00-0005-32.png,0001-00-0007-65.png
00000009,633,1,1440520044614,1440520044646,897,427,0,0,0,5,4,1,54,0005-00-0005-08.png,0004-00-0009-41.png
00000009,634,1,1440520045684,1440520046452,424,294,0,0,0,3,4,1,34,0003-00-0001-80.png,0004-00-0007-66.png
00000009,635,1,1440520047974,1440520048064,879,381,0,0,0,4,3,1,43,0004-00-0001-79.png,0003-00-0002-59.png
00000009,636,1,1440520048944,1440520048976,873,410,0,0,0,3,2,1,32,0003-00-0000-15.png,0002-00-0005-12.png
00000009,637,1,1440520049949,1440520049989,871,437,0,0,0,2,1,1,21,0002-00-0002-28.png,0001-00-0003-49.png
00000009,638,0,1440520051468,1440520051557,872,436,0,0,0,4,5,1,45,0004-00-0001-43.png,0005-00-0002-94.png
00000009,639,0,1440520068072,1440520068175,925,279,0,0,0,2,3,1,23,0002-00-0003-67.png,0003-00-0004-52.png
00000009,640,1,1440520072310,1440520072972,481,285,0,0,0,1,2,1,12,0001-00-0000-09.png,0002-00-0008-95.png
00000009,641,1,1440520073842,1440520074546,362,419,0,0,0,2,3,1,23,0002-00-0000-86.png,0003-00-0004-96.png
00000009,642,0,1440520076055,1440520076181,900,410,0,0,0,1,2,1,12,0001-00-0003-60.png,0002-00-0005-43.png
00000009,643,1,1440520079297,1440520079832,960,350,0,0,0,5,4,1,54,0005-00-0009-91.png,0004-00-0004-74.png
00000009,644,1,1440520080663,1440520081351,435,297,0,0,0,3,4,1,34,0003-00-0007-26.png,0004-00-0006-11.png
00000009,645,1,1440520082192,1440520082839,938,324,0,0,0,4,3,1,43,0004-00-0002-59.png,0003-00-0008-76.png
00000009,646,0,1440520084024,1440520084116,898,394,0,0,0,4,5,1,45,0004-00-0004-26.png,0005-00-0007-32.png
00000009,647,1,1440520086945,1440520087492,912,334,0,0,0,2,1,1,21,0002-00-0000-62.png,0001-00-0001-18.png
00000009,648,1,1440520088714,1440520088884,971,336,0,0,0,3,2,1,32,0003-00-0006-59.png,0002-00-0000-57.png
00000009,649,1,1440520090437,1440520090705,981,384,0,0,0,2,1,1,21,0002-00-0005-17.png,0001-00-0004-03.png
00000009,650,0,1440520091604,1440520091676,873,395,0,0,0,1,2,1,12,0001-00-0002-71.png,0002-00-0002-54.png
00000009,651,1,1440520096469,1440520096509,964,332,0,0,0,4,3,1,43,0004-00-0009-15.png,0003-00-0000-72.png
00000009,652,1,1440520097519,1440520097626,879,390,0,0,0,5,4,1,54,0005-00-0008-85.png,0004-00-0002-64.png
00000009,653,0,1440520099019,1440520099039,871,382,0,0,0,3,4,1,34,0003-00-0008-71.png,0004-00-0005-67.png
00000009,654,1,1440520102112,1440520102140,888,358,0,0,0,3,2,1,32,0003-00-0001-08.png,0002-00-0008-37.png
00000009,655,0,1440520102975,1440520103801,1052,324,0,0,0,2,3,1,23,0002-00-0003-88.png,0003-00-0001-33.png
00000009,656,1,1440520106834,1440520107419,327,342,0,0,0,4,5,1,45,0004-00-0009-95.png,0005-00-0007-45.png
00000009,657,1,1440520108881,1440520109482,1072,277,0,0,0,5,4,1,54,0005-00-0004-17.png,0004-00-0006-58.png
00000009,658,1,1440520110666,1440520110884,904,410,0,0,0,3,2,1,32,0003-00-0003-94.png,0002-00-0008-54.png
00000009,659,0,1440520111959,1440520112062,900,462,0,0,0,4,5,1,45,0004-00-0000-42.png,0005-00-0004-97.png
00000009,660,1,1440520115872,1440520116415,1056,301,0,0,0,4,3,1,43,0004-00-0005-03.png,0003-00-0000-51.png
00000009,661,0,1440520117685,1440520117804,911,359,0,0,0,3,4,1,34,0003-00-0000-91.png,0004-00-0007-44.png
00000009,662,0,1440520120864,1440520121372,1053,277,0,0,0,1,2,1,12,0001-00-0004-24.png,0002-00-0001-73.png
00000009,663,0,1440520128883,1440520129453,344,393,0,0,0,2,1,1,21,0002-00-0000-60.png,0001-00-0000-99.png
00000009,664,0,1440520132582,1440520132623,917,361,0,0,0,2,3,1,23,0002-00-0007-99.png,0003-00-0003-66.png
00000009,665,0,1440520135760,1440520135784,917,363,0,0,0,3,4,1,34,0003-00-0000-88.png,0004-00-0005-57.png
00000009,666,1,1440520138952,1440520139447,1043,275,0,0,0,4,3,1,43,0004-00-0003-30.png,0003-00-0000-40.png
00000009,667,0,1440520140770,1440520141119,1057,407,0,0,0,2,3,1,23,0002-00-0008-05.png,0003-00-0003-94.png
00000009,668,1,1440520144230,1440520144723,943,352,0,0,0,5,4,1,54,0005-00-0006-54.png,0004-00-0005-62.png
00000009,669,1,1440520145967,1440520146236,912,343,0,0,0,3,2,1,32,0003-00-0002-78.png,0002-00-0001-47.png
00000009,670,1,1440520147073,1440520147146,873,384,0,0,0,2,1,1,21,0002-00-0007-12.png,0001-00-0001-45.png
00000009,671,0,1440520148544,1440520148603,873,426,0,0,0,1,2,1,12,0001-00-0002-46.png,0002-00-0008-97.png
00000009,672,0,1440520151663,1440520152157,1066,280,0,0,0,4,5,1,45,0004-00-0003-98.png,0005-00-0002-62.png
00000009,673,0,1440520155476,1440520156031,434,312,0,0,0,5,4,1,54,0005-00-0003-12.png,0004-00-0000-68.png
00000009,674,1,1440520159173,1440520159799,457,307,0,0,0,1,2,1,12,0001-00-0001-43.png,0002-00-0002-81.png
00000009,675,1,1440520161144,1440520161365,939,322,0,0,0,2,1,1,21,0002-00-0007-07.png,0001-00-0006-88.png
00000009,676,1,1440520162199,1440520163239,340,392,0,0,0,4,5,1,45,0004-00-0007-60.png,0005-00-0007-64.png
00000009,677,1,1440520164070,1440520165159,934,377,0,0,0,4,3,1,43,0004-00-0005-67.png,0003-00-0008-32.png
00000009,678,0,1440520166538,1440520166630,878,389,0,0,0,3,4,1,34,0003-00-0009-29.png,0004-00-0001-73.png
00000009,679,0,1440520173939,1440520174001,976,302,0,0,0,2,3,1,23,0002-00-0004-12.png,0003-00-0008-51.png
00000009,680,1,1440520177549,1440520178042,991,370,0,0,0,3,2,1,32,0003-00-0007-42.png,0002-00-0003-58.png
00000009,681,1,1440520179284,1440520179506,1016,342,0,0,0,3,2,1,32,0003-00-0005-71.png,0002-00-0009-88.png
00000009,682,0,1440520180750,1440520180900,896,384,0,0,0,4,5,1,45,0004-00-0003-43.png,0005-00-0001-99.png
00000009,683,1,1440520184294,1440520184306,859,342,0,0,0,4,3,1,43,0004-00-0006-54.png,0003-00-0006-23.png
00000009,684,1,1440520185184,1440520185412,888,462,0,0,0,2,1,1,21,0002-00-0005-37.png,0001-00-0005-09.png
00000009,685,0,1440520186701,1440520186828,875,384,0,0,0,2,3,1,23,0002-00-0000-98.png,0003-00-0000-34.png
00000009,686,0,1440520190038,1440520190565,1063,288,0,0,0,3,4,1,34,0003-00-0005-19.png,0004-00-0002-26.png
00000009,687,0,1440520193488,1440520193982,1044,307,0,0,0,1,2,1,12,0001-00-0000-87.png,0002-00-0001-23.png
00000009,688,0,1440520196817,1440520196837,478,426,0,0,0,5,4,1,54,0005-00-0006-47.png,0004-00-0004-76.png
00000009,689,1,1440520200000,1440520200060,950,352,0,0,0,2,1,1,21,0002-00-0003-46.png,0001-00-0003-42.png
00000009,690,0,1440520201376,1440520202147,1039,272,0,0,0,4,5,1,45,0004-00-0008-15.png,0005-00-0008-06.png
00000009,691,0,1440520204994,1440520205722,1054,295,0,0,0,3,4,1,34,0003-00-0009-38.png,0004-00-0005-00.png
00000009,692,0,1440520208803,1440520209303,1035,326,0,0,0,2,3,1,23,0002-00-0004-30.png,0003-00-0002-02.png
00000009,693,1,1440520212188,1440520212723,1037,303,0,0,0,3,2,1,32,0003-00-0007-14.png,0002-00-0006-14.png
00000009,694,1,1440520214019,1440520214255,913,368,0,0,0,5,4,1,54,0005-00-0005-17.png,0004-00-0009-66.png
00000009,695,1,1440520215140,1440520215208,878,365,0,0,0,4,3,1,43,0004-00-0000-98.png,0003-00-0008-63.png
00000009,696,0,1440520216693,1440520217309,881,470,0,0,0,1,2,1,12,0001-00-0001-81.png,0002-00-0000-05.png
00000009,697,0,1440520220150,1440520220194,976,462,0,0,0,4,5,1,45,0004-00-0009-19.png,0005-00-0007-39.png
00000009,698,1,1440520223032,1440520223064,946,408,0,0,0,3,2,1,32,0003-00-0003-23.png,0002-00-0000-18.png
00000009,699,1,1440520223976,1440520224217,913,487,0,0,0,4,3,1,43,0004-00-0005-90.png,0003-00-0001-79.png
00000009,700,1,1440520225074,1440520226020,901,356,0,0,0,2,1,1,21,0002-00-0000-48.png,0001-00-0003-80.png
00000009,701,0,1440520227435,1440520227479,873,352,0,0,0,3,4,1,34,0003-00-0009-08.png,0004-00-0002-92.png
00000009,702,1,1440520230515,1440520230564,909,413,0,0,0,5,4,1,54,0005-00-0008-17.png,0004-00-0009-60.png
00000009,703,0,1440520231450,1440520232503,900,370,0,0,0,2,3,1,23,0002-00-0002-55.png,0003-00-0004-89.png
00000009,704,1,1440520235429,1440520235985,351,364,0,0,0,1,2,1,12,0001-00-0002-83.png,0002-00-0001-26.png
00000009,705,1,1440520236838,1440520236918,906,443,0,0,0,5,4,1,54,0005-00-0006-72.png,0004-00-0005-18.png
00000009,706,0,1440520238276,1440520238370,876,436,0,0,0,4,5,1,45,0004-00-0003-64.png,0005-00-0009-28.png
00000009,707,0,1440520241468,1440520242081,407,277,0,0,0,2,1,1,21,0002-00-0007-77.png,0001-00-0001-04.png
00000009,708,0,1440520245286,1440520245298,896,350,0,0,0,2,3,1,23,0002-00-0008-88.png,0003-00-0005-19.png
00000009,709,1,1440520248425,1440520249089,427,267,0,0,0,1,2,1,12,0001-00-0001-90.png,0002-00-0008-32.png
00000009,710,0,1440520250502,1440520251217,417,254,0,0,0,3,2,1,32,0003-00-0006-48.png,0002-00-0006-03.png
00000009,711,0,1440520254438,1440520254478,959,344,0,0,0,3,4,1,34,0003-00-0005-39.png,0004-00-0003-30.png
00000009,712,1,1440520257668,1440520257688,915,358,0,0,0,4,3,1,43,0004-00-0004-18.png,0003-00-0006-25.png
00000009,713,0,1440520258633,1440520258772,884,409,0,0,0,4,5,1,45,0004-00-0000-18.png,0005-00-0007-43.png
00000009,714,1,1440520261930,1440520262527,445,286,0,0,0,2,3,1,23,0002-00-0004-52.png,0003-00-0007-61.png
00000009,715,1,1440520263837,1440520263936,913,358,0,0,0,3,2,1,32,0003-00-0001-73.png,0002-00-0009-03.png
00000009,716,1,1440520264871,1440520264939,888,410,0,0,0,4,3,1,43,0004-00-0003-13.png,0003-00-0009-49.png
00000009,717,0,1440520265962,1440520266018,893,426,0,0,0,1,2,1,12,0001-00-0003-89.png,0002-00-0007-26.png
00000009,718,1,1440520268904,1440520269740,1047,271,0,0,0,5,4,1,54,0005-00-0000-87.png,0004-00-0002-27.png
00000009,719,1,1440520271073,1440520271169,888,384,0,0,0,2,1,1,21,0002-00-0005-38.png,0001-00-0008-32.png
00000009,720,0,1440520272064,1440520272140,868,432,0,0,0,3,4,1,34,0003-00-0004-65.png,0004-00-0003-85.png
00000009,721,0,1440520275335,1440520275359,913,332,0,0,0,2,3,1,23,0002-00-0006-86.png,0003-00-0002-71.png
00000009,722,1,1440520278398,1440520278445,935,410,0,0,0,2,1,1,21,0002-00-0003-84.png,0001-00-0009-08.png
00000009,723,0,1440520279342,1440520279543,918,465,0,0,0,3,4,1,34,0003-00-0003-12.png,0004-00-0004-14.png
00000009,724,1,1440520282399,1440520282419,881,406,0,0,0,3,2,1,32,0003-00-0000-92.png,0002-00-0006-65.png
00000009,725,0,1440520283831,1440520284040,907,381,0,0,0,1,2,1,12,0001-00-0005-34.png,0002-00-0003-61.png
00000009,726,1,1440520287062,1440520287596,951,372,0,0,0,4,3,1,43,0004-00-0000-01.png,0003-00-0005-14.png
00000009,727,1,1440520288970,1440520289050,930,358,0,0,0,5,4,1,54,0005-00-0004-36.png,0004-00-0009-51.png
00000009,728,0,1440520289878,1440520289967,888,346,0,0,0,4,5,1,45,0004-00-0006-79.png,0005-00-0005-38.png
00000009,729,1,1440520293015,1440520293559,1037,279,0,0,0,5,4,1,54,0005-00-0004-73.png,0004-00-0003-24.png
00000009,730,1,1440520294859,1440520294935,913,358,0,0,0,4,3,1,43,0004-00-0006-71.png,0003-00-0000-18.png
00000009,731,1,1440520295783,1440520296716,864,310,0,0,0,2,1,1,21,0002-00-0006-14.png,0001-00-0005-40.png
00000009,732,1,1440520297965,1440520298049,862,399,0,0,0,3,2,1,32,0003-00-0002-93.png,0002-00-0006-92.png
00000009,733,1,1440520299365,1440520300174,451,245,0,0,0,2,3,1,23,0002-00-0003-23.png,0003-00-0002-72.png
00000009,734,0,1440520301481,1440520301549,888,436,0,0,0,4,5,1,45,0004-00-0007-69.png,0005-00-0006-64.png
00000009,735,0,1440520304652,1440520304720,978,373,0,0,0,1,2,1,12,0001-00-0009-29.png,0002-00-0001-64.png
00000009,736,0,1440520307809,1440520308319,925,375,0,0,0,3,4,1,34,0003-00-0009-32.png,0004-00-0004-10.png
00000009,737,1,1440520311178,1440520311247,888,399,0,0,0,3,2,1,32,0003-00-0004-18.png,0002-00-0002-08.png
00000009,738,1,1440520312070,1440520312254,888,421,0,0,0,5,4,1,54,0005-00-0001-30.png,0004-00-0000-98.png
00000009,739,1,1440520313655,1440520313740,888,419,0,0,0,2,1,1,21,0002-00-0002-56.png,0001-00-0005-12.png
00000009,740,0,1440520314676,1440520314748,869,455,0,0,0,2,3,1,23,0002-00-0002-46.png,0003-00-0003-83.png
00000009,741,1,1440520317900,1440520317963,939,345,0,0,0,4,3,1,43,0004-00-0005-19.png,0003-00-0003-49.png
00000009,742,0,1440520319315,1440520319465,912,336,0,0,0,4,5,1,45,0004-00-0008-15.png,0005-00-0008-99.png
00000009,743,0,1440520322577,1440520322609,940,400,0,0,0,3,4,1,34,0003-00-0009-07.png,0004-00-0003-84.png
00000009,744,0,1440520325756,1440520325788,888,384,0,0,0,1,2,1,12,0001-00-0006-43.png,0002-00-0005-43.png
00000009,745,1,1440520328831,1440520329411,1046,261,0,0,0,4,3,1,43,0004-00-0001-81.png,0003-00-0002-84.png
00000009,746,1,1440520330766,1440520330850,894,374,0,0,0,5,4,1,54,0005-00-0001-33.png,0004-00-0004-88.png
00000009,747,1,1440520331819,1440520331871,877,384,0,0,0,2,1,1,21,0002-00-0000-26.png,0001-00-0002-50.png
00000009,748,0,1440520332708,1440520332804,895,425,0,0,0,1,2,1,12,0001-00-0009-24.png,0002-00-0002-89.png
00000009,749,0,1440520336112,1440520336148,918,326,0,0,0,3,4,1,34,0003-00-0007-26.png,0004-00-0001-20.png
00000009,750,0,1440520339292,1440520339340,928,360,0,0,0,4,5,1,45,0004-00-0007-88.png,0005-00-0005-34.png
00000009,751,1,1440520342512,1440520342560,966,371,0,0,0,3,2,1,32,0003-00-0000-49.png,0002-00-0007-85.png
00000009,752,0,1440520343480,1440520343704,954,462,0,0,0,2,3,1,23,0002-00-0004-88.png,0003-00-0005-00.png
00000009,753,1,1440520346564,1440520346604,888,436,0,0,0,4,3,1,43,0004-00-0006-98.png,0003-00-0004-95.png
00000009,754,0,1440520347437,1440520347580,864,408,0,0,0,4,5,1,45,0004-00-0000-12.png,0005-00-0002-60.png
00000009,755,1,1440520350698,1440520350726,888,358,0,0,0,2,1,1,21,0002-00-0007-29.png,0001-00-0005-29.png
00000009,756,1,1440520351651,1440520351884,913,447,0,0,0,5,4,1,54,0005-00-0002-29.png,0004-00-0002-21.png
00000009,757,0,1440520352715,1440520352795,879,384,0,0,0,1,2,1,12,0001-00-0000-39.png,0002-00-0005-24.png
00000009,758,0,1440520355724,1440520356288,896,321,0,0,0,3,4,1,34,0003-00-0008-32.png,0004-00-0001-96.png
00000009,759,1,1440520359624,1440520360319,1040,275,0,0,0,3,2,1,32,0003-00-0003-75.png,0002-00-0004-18.png
00000009,760,0,1440520361659,1440520361849,904,384,0,0,0,2,3,1,23,0002-00-0002-99.png,0003-00-0003-15.png
00000009,761,1,1440520365018,1440520365030,873,370,0,0,0,3,2,1,32,0003-00-0007-32.png,0002-00-0002-08.png
00000009,762,0,1440520366300,1440520366447,925,367,0,0,0,2,3,1,23,0002-00-0000-94.png,0003-00-0006-53.png
00000009,763,0,1440520369571,1440520369631,955,398,0,0,0,3,4,1,34,0003-00-0000-72.png,0004-00-0002-82.png
00000009,764,1,1440520372772,1440520372784,891,386,0,0,0,5,4,1,54,0005-00-0005-76.png,0004-00-0007-93.png
00000009,765,1,1440520374134,1440520374382,936,354,0,0,0,2,1,1,21,0002-00-0001-69.png,0001-00-0006-38.png
00000009,766,1,1440520375275,1440520375307,893,386,0,0,0,4,3,1,43,0004-00-0008-21.png,0003-00-0000-61.png
00000009,767,1,1440520376161,1440520377127,362,395,0,0,0,4,5,1,45,0004-00-0008-51.png,0005-00-0004-34.png
00000009,768,0,1440520378048,1440520378088,880,418,0,0,0,1,2,1,12,0001-00-0002-96.png,0002-00-0001-16.png
00000009,769,0,1440520381240,1440520381252,903,395,0,0,0,1,2,1,12,0001-00-0009-35.png,0002-00-0005-99.png
00000009,770,0,1440520384271,1440520385107,913,344,0,0,0,3,4,1,34,0003-00-0006-51.png,0004-00-0006-15.png
00000009,771,1,1440520388105,1440520388641,939,319,0,0,0,4,3,1,43,0004-00-0001-91.png,0003-00-0003-91.png
00000009,772,0,1440520389493,1440520389565,917,394,0,0,0,4,5,1,45,0004-00-0002-42.png,0005-00-0001-39.png
00000009,773,1,1440520392756,1440520392780,875,358,0,0,0,5,4,1,54,0005-00-0005-61.png,0004-00-0007-49.png
00000009,774,0,1440520393605,1440520393708,876,436,0,0,0,2,3,1,23,0002-00-0008-52.png,0003-00-0005-78.png
00000009,775,1,1440520396920,1440520396952,897,358,0,0,0,3,2,1,32,0003-00-0009-10.png,0002-00-0007-12.png
00000009,776,0,1440520397779,1440520398651,426,293,0,0,0,2,1,1,21,0002-00-0002-34.png,0001-00-0008-96.png
00000009,777,0,1440520401965,1440520401993,867,337,0,0,0,3,4,1,34,0003-00-0005-89.png,0004-00-0001-25.png
00000009,778,0,1440520404958,1440520404994,860,546,0,0,0,2,3,1,23,0002-00-0000-74.png,0003-00-0001-21.png
00000009,779,1,1440520408239,1440520408327,883,269,0,0,0,3,2,1,32,0003-00-0002-42.png,0002-00-0004-83.png
00000009,780,1,1440520409210,1440520409366,948,436,0,0,0,5,4,1,54,0005-00-0007-39.png,0004-00-0005-73.png
00000009,781,1,1440520410245,1440520411272,341,404,0,0,0,4,5,1,45,0004-00-0000-19.png,0005-00-0005-51.png
00000009,782,1,1440520412114,1440520412174,888,410,0,0,0,4,3,1,43,0004-00-0005-60.png,0003-00-0005-92.png
00000009,783,1,1440520413645,1440520414131,862,488,0,0,0,2,1,1,21,0002-00-0006-23.png,0001-00-0005-56.png
00000009,784,0,1440520414989,1440520415081,926,410,0,0,0,1,2,1,12,0001-00-0002-03.png,0002-00-0005-56.png
00000009,785,1,1440520418095,1440520418679,972,330,0,0,0,5,4,1,54,0005-00-0006-41.png,0004-00-0003-91.png
00000009,786,0,1440520419612,1440520419691,913,448,0,0,0,2,3,1,23,0002-00-0006-49.png,0003-00-0003-75.png
00000009,787,0,1440520422827,1440520422835,891,387,0,0,0,3,4,1,34,0003-00-0003-42.png,0004-00-0009-18.png
00000009,788,0,1440520425816,1440520426383,427,318,0,0,0,2,1,1,21,0002-00-0001-79.png,0001-00-0005-44.png
00000009,789,0,1440520429226,1440520429250,913,499,0,0,0,1,2,1,12,0001-00-0000-58.png,0002-00-0009-78.png
00000009,790,1,1440520432434,1440520432470,922,325,0,0,0,4,3,1,43,0004-00-0009-95.png,0003-00-0006-31.png
00000009,791,1,1440520433326,1440520433418,888,400,0,0,0,3,2,1,32,0003-00-0004-60.png,0002-00-0000-10.png
00000009,792,0,1440520434257,1440520435430,903,345,0,0,0,4,5,1,45,0004-00-0003-06.png,0005-00-0006-32.png
00000009,793,0,1440520438619,1440520438667,964,366,0,0,0,4,5,1,45,0004-00-0001-78.png,0005-00-0005-41.png
00000009,794,1,1440520441830,1440520441862,890,353,0,0,0,2,1,1,21,0002-00-0009-47.png,0001-00-0007-87.png
00000009,795,1,1440520442730,1440520442782,888,421,0,0,0,3,2,1,32,0003-00-0006-92.png,0002-00-0001-06.png
00000009,796,0,1440520444273,1440520444758,869,504,0,0,0,2,3,1,23,0002-00-0000-18.png,0003-00-0002-77.png
00000009,797,1,1440520447990,1440520448235,1092,306,0,0,0,4,3,1,43,0004-00-0005-07.png,0003-00-0008-19.png
00000009,798,0,1440520449107,1440520449211,887,484,0,0,0,1,2,1,12,0001-00-0006-29.png,0002-00-0006-77.png
00000009,799,1,1440520452349,1440520452404,878,387,0,0,0,5,4,1,54,0005-00-0000-72.png,0004-00-0003-45.png
00000009,800,0,1440520453753,1440520453977,929,358,0,0,0,3,4,1,34,0003-00-0004-60.png,0004-00-0005-02.png
00000009,801,1,1440520457193,1440520457241,913,344,0,0,0,5,4,1,54,0005-00-0001-22.png,0004-00-0009-58.png
00000009,802,1,1440520458084,1440520458270,862,410,0,0,0,2,1,1,21,0002-00-0003-86.png,0001-00-0006-35.png
00000009,803,0,1440520459100,1440520460268,902,392,0,0,0,2,3,1,23,0002-00-0009-98.png,0003-00-0009-09.png
00000009,804,1,1440520463685,1440520464300,363,405,0,0,0,4,5,1,45,0004-00-0000-12.png,0005-00-0003-60.png
00000009,805,0,1440520465681,1440520465882,924,386,0,0,0,1,2,1,12,0001-00-0002-53.png,0002-00-0002-34.png
00000009,806,1,1440520468797,1440520468829,878,343,0,0,0,4,3,1,43,0004-00-0005-14.png,0003-00-0006-43.png
00000009,807,0,1440520469665,1440520470587,399,324,0,0,0,3,2,1,32,0003-00-0006-63.png,0002-00-0008-33.png
00000009,808,0,1440520473752,1440520474401,1070,274,0,0,0,3,4,1,34,0003-00-0008-12.png,0004-00-0008-30.png
00000009,809,1,1440520477547,1440520478127,457,289,0,0,0,1,2,1,12,0001-00-0009-35.png,0002-00-0001-49.png
00000009,810,1,1440520479001,1440520479114,919,417,0,0,0,5,4,1,54,0005-00-0005-83.png,0004-00-0001-34.png
00000009,811,1,1440520480547,1440520481335,327,391,0,0,0,4,5,1,45,0004-00-0001-81.png,0005-00-0002-67.png
00000009,812,1,1440520482171,1440520482235,862,436,0,0,0,4,3,1,43,0004-00-0000-58.png,0003-00-0004-21.png
00000009,813,0,1440520483657,1440520483741,862,400,0,0,0,2,3,1,23,0002-00-0000-26.png,0003-00-0000-61.png
00000009,814,0,1440520486957,1440520486969,888,358,0,0,0,3,4,1,34,0003-00-0008-68.png,0004-00-0003-58.png
00000009,815,1,1440520489958,1440520490192,862,408,0,0,0,2,1,1,21,0002-00-0005-24.png,0001-00-0006-26.png
00000009,816,0,1440520491330,1440520492063,345,393,0,0,0,3,2,1,32,0003-00-0005-99.png,0002-00-0009-40.png
00000009,817,1,1440520495264,1440520495854,1043,272,0,0,0,2,1,1,21,0002-00-0005-96.png,0001-00-0007-12.png
00000009,818,1,1440520497222,1440520497401,940,331,0,0,0,3,2,1,32,0003-00-0003-45.png,0002-00-0003-75.png
00000009,819,1,1440520498899,1440520498999,877,410,0,0,0,5,4,1,54,0005-00-0001-27.png,0004-00-0000-86.png
00000009,820,1,1440520499935,1440520501109,459,240,0,0,0,1,2,1,12,0001-00-0001-70.png,0002-00-0007-77.png
00000009,821,0,1440520502061,1440520502109,875,410,0,0,0,3,4,1,34,0003-00-0007-24.png,0004-00-0002-81.png
00000009,822,0,1440520505074,1440520505561,1051,274,0,0,0,2,3,1,23,0002-00-0001-90.png,0003-00-0006-92.png
00000009,823,0,1440520508681,1440520508721,858,385,0,0,0,4,5,1,45,0004-00-0007-03.png,0005-00-0007-94.png
00000009,824,1,1440520511622,1440520512230,991,276,0,0,0,4,3,1,43,0004-00-0001-19.png,0003-00-0008-85.png
00000009,825,1,1440520513129,1440520513491,939,472,0,0,0,5,4,1,54,0005-00-0009-03.png,0004-00-0009-22.png
00000009,826,1,1440520514440,1440520514493,888,419,0,0,0,2,1,1,21,0002-00-0001-35.png,0001-00-0008-93.png
00000009,827,1,1440520515874,1440520515954,881,404,0,0,0,3,2,1,32,0003-00-0007-80.png,0002-00-0002-31.png
00000009,828,0,1440520516790,1440520516842,910,480,0,0,0,2,3,1,23,0002-00-0006-86.png,0003-00-0008-13.png
00000009,829,0,1440520520008,1440520520048,964,332,0,0,0,3,4,1,34,0003-00-0007-14.png,0004-00-0003-90.png
00000009,830,0,1440520523197,1440520523221,910,336,0,0,0,4,5,1,45,0004-00-0007-68.png,0005-00-0002-40.png
00000009,831,0,1440520526357,1440520526420,988,377,0,0,0,1,2,1,12,0001-00-0000-52.png,0002-00-0009-03.png
00000009,832,1,1440520529507,1440520530032,1045,306,0,0,0,4,3,1,43,0004-00-0005-48.png,0003-00-0005-14.png
00000009,833,1,1440520531417,1440520531596,989,311,0,0,0,5,4,1,54,0005-00-0001-35.png,0004-00-0006-86.png
00000009,834,0,1440520532864,1440520532936,939,427,0,0,0,2,3,1,23,0002-00-0006-56.png,0003-00-0003-22.png
00000009,835,1,1440520536078,1440520536102,869,400,0,0,0,4,3,1,43,0004-00-0007-13.png,0003-00-0004-51.png
00000009,836,0,1440520536938,1440520537022,907,417,0,0,0,3,4,1,34,0003-00-0008-36.png,0004-00-0008-97.png
00000009,837,0,1440520540267,1440520540303,888,367,0,0,0,1,2,1,12,0001-00-0001-28.png,0002-00-0004-84.png
00000009,838,1,1440520543281,1440520543341,911,454,0,0,0,3,2,1,32,0003-00-0007-61.png,0002-00-0007-55.png
00000009,839,1,1440520544320,1440520544412,939,396,0,0,0,2,1,1,21,0002-00-0003-21.png,0001-00-0003-14.png
00000009,840,0,1440520545233,1440520545305,862,410,0,0,0,4,5,1,45,0004-00-0006-81.png,0005-00-0000-66.png
00000009,841,0,1440520548587,1440520549147,1041,269,0,0,0,3,4,1,34,0003-00-0007-61.png,0004-00-0001-10.png
00000009,842,1,1440520552205,1440520552253,875,384,0,0,0,5,4,1,54,0005-00-0006-46.png,0004-00-0000-24.png
00000009,843,0,1440520553734,1440520554525,352,343,0,0,0,4,3,1,43,0004-00-0007-97.png,0003-00-0000-90.png
00000009,844,1,1440520557651,1440520558330,419,287,0,0,0,1,2,1,12,0001-00-0000-39.png,0002-00-0003-87.png
00000009,845,0,1440520559169,1440520559217,939,420,0,0,0,4,5,1,45,0004-00-0008-46.png,0005-00-0008-87.png
00000009,846,1,1440520562376,1440520562934,925,364,0,0,0,2,1,1,21,0002-00-0004-58.png,0001-00-0002-09.png
00000009,847,1,1440520564160,1440520564616,964,445,0,0,0,3,2,1,32,0003-00-0002-76.png,0002-00-0006-91.png
00000009,848,0,1440520565458,1440520565559,904,462,0,0,0,2,3,1,23,0002-00-0000-98.png,0003-00-0006-19.png
00000009,849,1,1440520568601,1440520569113,1036,306,0,0,0,3,2,1,32,0003-00-0003-36.png,0002-00-0005-85.png
00000009,850,1,1440520570639,1440520570773,939,358,0,0,0,5,4,1,54,0005-00-0007-80.png,0004-00-0000-86.png
00000009,851,1,1440520571596,1440520572398,479,302,0,0,0,3,4,1,34,0003-00-0000-30.png,0004-00-0005-54.png
00000009,852,0,1440520573736,1440520573824,875,399,0,0,0,2,3,1,23,0002-00-0000-98.png,0003-00-0004-64.png
00000009,853,0,1440520577019,1440520577642,1038,309,0,0,0,4,5,1,45,0004-00-0008-85.png,0005-00-0003-10.png
00000009,854,0,1440520580571,1440520581378,427,303,0,0,0,4,3,1,43,0004-00-0006-63.png,0003-00-0003-72.png
00000009,855,1,1440520584533,1440520585062,1073,274,0,0,0,2,1,1,21,0002-00-0002-69.png,0001-00-0001-99.png
00000009,856,0,1440520586467,1440520586671,922,358,0,0,0,1,2,1,12,0001-00-0003-14.png,0002-00-0001-49.png
00000009,857,1,1440520589829,1440520589849,891,379,0,0,0,5,4,1,54,0005-00-0004-10.png,0004-00-0003-24.png
00000009,858,0,1440520590732,1440520590854,927,462,0,0,0,2,3,1,23,0002-00-0009-87.png,0003-00-0007-78.png
00000009,859,1,1440520594064,1440520594685,434,259,0,0,0,4,5,1,45,0004-00-0008-38.png,0005-00-0005-16.png
00000009,860,1,1440520595590,1440520595693,964,447,0,0,0,3,2,1,32,0003-00-0000-30.png,0002-00-0007-18.png
00000009,861,0,1440520596913,1440520596985,862,436,0,0,0,3,4,1,34,0003-00-0000-94.png,0004-00-0005-21.png
00000009,862,1,1440520599965,1440520600480,944,304,0,0,0,4,3,1,43,0004-00-0007-49.png,0003-00-0002-30.png
00000009,863,1,1440520601894,1440520602013,934,384,0,0,0,2,1,1,21,0002-00-0007-03.png,0001-00-0005-88.png
00000009,864,0,1440520603231,1440520603315,862,410,0,0,0,1,2,1,12,0001-00-0008-79.png,0002-00-0008-82.png
00000009,865,1,1440520606163,1440520606680,1055,299,0,0,0,3,2,1,32,0003-00-0006-19.png,0002-00-0006-35.png
00000009,866,1,1440520608064,1440520608108,914,387,0,0,0,4,3,1,43,0004-00-0007-01.png,0003-00-0007-51.png
00000009,867,0,1440520609534,1440520609646,922,410,0,0,0,2,3,1,23,0002-00-0009-16.png,0003-00-0004-37.png
00000009,868,0,1440520612477,1440520613098,1097,277,0,0,0,1,2,1,12,0001-00-0002-71.png,0002-00-0001-77.png
00000009,869,0,1440520616002,1440520616046,880,358,0,0,0,4,5,1,45,0004-00-0004-88.png,0005-00-0009-08.png
00000009,870,0,1440520619055,1440520619099,520,434,0,0,0,2,1,1,21,0002-00-0008-28.png,0001-00-0005-29.png
00000009,871,0,1440520622302,1440520622334,913,342,0,0,0,3,4,1,34,0003-00-0005-09.png,0004-00-0002-55.png
00000009,872,1,1440520625244,1440520626088,1076,288,0,0,0,5,4,1,54,0005-00-0008-77.png,0004-00-0005-83.png
00000009,873,1,1440520627782,1440520627794,873,375,0,0,0,3,2,1,32,0003-00-0009-21.png,0002-00-0008-89.png
00000009,874,1,1440520628710,1440520628836,888,479,0,0,0,2,1,1,21,0002-00-0005-64.png,0001-00-0003-49.png
00000009,875,0,1440520630196,1440520630260,881,391,0,0,0,2,3,1,23,0002-00-0004-63.png,0003-00-0008-65.png
00000009,876,1,1440520633554,1440520633566,929,332,0,0,0,5,4,1,54,0005-00-0001-27.png,0004-00-0009-63.png
00000009,877,0,1440520634449,1440520634529,864,458,0,0,0,4,5,1,45,0004-00-0008-93.png,0005-00-0006-02.png
00000009,878,0,1440520637669,1440520637722,927,395,0,0,0,1,2,1,12,0001-00-0007-84.png,0002-00-0003-14.png
00000009,879,0,1440520640584,1440520641115,1074,277,0,0,0,3,4,1,34,0003-00-0001-65.png,0004-00-0008-86.png
00000009,880,1,1440520644167,1440520644215,877,403,0,0,0,4,3,1,43,0004-00-0006-22.png,0003-00-0001-30.png
00000009,881,0,1440520645111,1440520645224,928,436,0,0,0,1,2,1,12,0001-00-0007-44.png,0002-00-0004-76.png
00000009,882,1,1440520648351,1440520648399,888,370,0,0,0,2,1,1,21,0002-00-0001-12.png,0001-00-0007-53.png
00000009,883,1,1440520649215,1440520649316,888,425,0,0,0,3,2,1,32,0003-00-0009-73.png,0002-00-0004-28.png
00000009,884,0,1440520650726,1440520651804,485,238,0,0,0,5,4,1,54,0005-00-0006-11.png,0004-00-0007-03.png
00000009,885,0,1440520655009,1440520655057,984,333,0,0,0,2,3,1,23,0002-00-0008-19.png,0003-00-0009-50.png
00000009,886,1,1440520658258,1440520658931,928,365,0,0,0,4,3,1,43,0004-00-0003-29.png,0003-00-0005-53.png
00000009,887,0,1440520660265,1440520660383,916,380,0,0,0,3,4,1,34,0003-00-0000-11.png,0004-00-0004-32.png
00000009,888,1,1440520663416,1440520664047,437,277,0,0,0,4,5,1,45,0004-00-0006-61.png,0005-00-0004-16.png
00000009,889,1,1440520664873,1440520664923,862,472,0,0,0,4,3,1,43,0004-00-0000-17.png,0003-00-0005-86.png
00000009,890,0,1440520666186,1440520666999,383,381,0,0,0,5,4,1,54,0005-00-0003-12.png,0004-00-0002-48.png
00000009,891,0,1440520670080,1440520670623,1061,280,0,0,0,2,3,1,23,0002-00-0009-18.png,0003-00-0008-66.png
00000009,892,0,1440520673831,1440520673863,954,384,0,0,0,4,5,1,45,0004-00-0006-76.png,0005-00-0002-34.png
00000009,893,0,1440520677012,1440520677561,963,328,0,0,0,3,4,1,34,0003-00-0009-97.png,0004-00-0006-28.png
00000009,894,0,1440520680670,1440520681240,1045,282,0,0,0,1,2,1,12,0001-00-0000-91.png,0002-00-0004-22.png
00000009,895,1,1440520684311,1440520684859,1051,293,0,0,0,3,2,1,32,0003-00-0005-45.png,0002-00-0007-24.png
00000009,896,1,1440520686461,1440520686493,906,338,0,0,0,2,1,1,21,0002-00-0004-90.png,0001-00-0001-57.png
00000009,897,0,1440520687552,1440520687722,888,476,0,0,0,1,2,1,12,0001-00-0006-11.png,0002-00-0002-37.png
00000009,898,0,1440520690792,1440520690852,868,424,0,0,0,3,4,1,34,0003-00-0003-28.png,0004-00-0009-08.png
00000009,899,1,1440520694021,1440520694065,922,387,0,0,0,5,4,1,54,0005-00-0000-54.png,0004-00-0001-04.png
00000009,900,1,1440520694928,1440520695693,938,343,0,0,0,3,2,1,32,0003-00-0005-89.png,0002-00-0000-49.png
00000009,901,1,1440520697035,1440520697066,883,360,0,0,0,4,3,1,43,0004-00-0003-09.png,0003-00-0007-11.png
00000009,902,0,1440520697897,1440520697977,870,427,0,0,0,4,5,1,45,0004-00-0006-30.png,0005-00-0006-20.png
00000009,903,1,1440520701304,1440520701900,371,393,0,0,0,2,3,1,23,0002-00-0001-58.png,0003-00-0008-46.png
00000009,904,1,1440520702734,1440520702839,869,401,0,0,0,2,1,1,21,0002-00-0002-68.png,0001-00-0004-53.png
00000009,905,1,1440520704220,1440520704284,888,422,0,0,0,3,2,1,32,0003-00-0004-26.png,0002-00-0009-34.png
00000009,906,0,1440520705281,1440520705343,878,376,0,0,0,1,2,1,12,0001-00-0004-88.png,0002-00-0006-40.png
00000009,907,1,1440520708390,1440520708446,894,425,0,0,0,2,1,1,21,0002-00-0005-62.png,0001-00-0001-35.png
00000009,908,1,1440520709383,1440520710136,931,353,0,0,0,4,3,1,43,0004-00-0001-28.png,0003-00-0007-96.png
00000009,909,0,1440520711374,1440520711482,928,384,0,0,0,3,4,1,34,0003-00-0001-11.png,0004-00-0000-27.png
00000009,910,1,1440520714693,1440520715260,413,279,0,0,0,4,5,1,45,0004-00-0001-42.png,0005-00-0009-35.png
00000009,911,0,1440520716110,1440520716225,939,446,0,0,0,2,3,1,23,0002-00-0005-86.png,0003-00-0008-05.png
00000009,912,1,1440520719422,1440520719445,888,376,0,0,0,5,4,1,54,0005-00-0006-96.png,0004-00-0004-48.png
00000009,913,0,1440520720313,1440520721446,1014,275,0,0,0,4,5,1,45,0004-00-0003-44.png,0005-00-0002-61.png
00000009,914,0,1440520724589,1440520725239,1063,279,0,0,0,1,2,1,12,0001-00-0005-63.png,0002-00-0002-21.png
00000009,915,0,1440520728177,1440520728711,910,306,0,0,0,2,3,1,23,0002-00-0002-24.png,0003-00-0008-64.png
00000009,916,1,1440520731865,1440520732480,916,355,0,0,0,5,4,1,54,0005-00-0007-97.png,0004-00-0002-57.png
00000009,917,1,1440520734231,1440520734262,903,332,0,0,0,3,2,1,32,0003-00-0007-51.png,0002-00-0008-04.png
00000009,918,0,1440520735222,1440520736326,422,257,0,0,0,2,1,1,21,0002-00-0004-72.png,0001-00-0007-84.png
00000009,919,0,1440520739489,1440520739505,911,356,0,0,0,3,4,1,34,0003-00-0008-78.png,0004-00-0005-53.png
00000009,920,1,1440520742727,1440520743308,943,360,0,0,0,4,3,1,43,0004-00-0001-76.png,0003-00-0003-06.png
00000009,921,1,1440520744715,1440520745780,1065,280,0,0,0,5,4,1,54,0005-00-0000-63.png,0004-00-0008-25.png
00000009,922,1,1440520747188,1440520747336,949,384,0,0,0,4,3,1,43,0004-00-0006-36.png,0003-00-0002-68.png
00000009,923,0,1440520748231,1440520748267,899,383,0,0,0,4,5,1,45,0004-00-0006-22.png,0005-00-0009-06.png
00000009,924,1,1440520751651,1440520752269,914,322,0,0,0,2,1,1,21,0002-00-0008-49.png,0001-00-0003-95.png
00000009,925,0,1440520753145,1440520753223,901,452,0,0,0,3,4,1,34,0003-00-0006-38.png,0004-00-0004-23.png
00000009,926,0,1440520756394,1440520756963,935,352,0,0,0,1,2,1,12,0001-00-0000-56.png,0002-00-0001-17.png
00000009,927,0,1440520759991,1440520760031,954,465,0,0,0,2,3,1,23,0002-00-0006-37.png,0003-00-0003-29.png
00000009,928,1,1440520763228,1440520763260,932,334,0,0,0,3,2,1,32,0003-00-0009-06.png,0002-00-0001-14.png
00000009,929,0,1440520764241,1440520764325,862,396,0,0,0,4,5,1,45,0004-00-0006-45.png,0005-00-0003-05.png
00000009,930,1,1440520767473,1440520767557,987,353,0,0,0,4,3,1,43,0004-00-0004-65.png,0003-00-0008-92.png
00000009,931,1,1440520768394,1440520768470,863,438,0,0,0,2,1,1,21,0002-00-0003-29.png,0001-00-0006-23.png
00000009,932,0,1440520769894,1440520770013,878,443,0,0,0,3,4,1,34,0003-00-0002-45.png,0004-00-0002-97.png
00000009,933,1,1440520773030,1440520773331,925,350,0,0,0,3,2,1,32,0003-00-0001-51.png,0002-00-0005-54.png
00000009,934,0,1440520774149,1440520774245,864,435,0,0,0,2,3,1,23,0002-00-0009-57.png,0003-00-0006-43.png
00000009,935,1,1440520777417,1440520777441,862,384,0,0,0,5,4,1,54,0005-00-0007-59.png,0004-00-0002-59.png
00000009,936,0,1440520778266,1440520778325,924,403,0,0,0,1,2,1,12,0001-00-0003-56.png,0002-00-0006-77.png
00000009,937,1,1440520781532,1440520782028,1084,306,0,0,0,3,2,1,32,0003-00-0008-95.png,0002-00-0001-01.png
00000009,938,1,1440520783347,1440520783461,932,426,0,0,0,5,4,1,54,0005-00-0009-34.png,0004-00-0001-55.png
00000009,939,0,1440520784298,1440520784370,894,427,0,0,0,1,2,1,12,0001-00-0008-57.png,0002-00-0002-45.png
00000009,940,0,1440520787298,1440520787344,462,497,0,0,0,2,1,1,21,0002-00-0006-62.png,0001-00-0009-13.png
00000009,941,1,1440520790249,1440520791075,359,320,0,0,0,4,5,1,45,0004-00-0002-40.png,0005-00-0003-18.png
