subject_id,trial,correct_response,stim_time,response_time,x_coord,y_coord,trial_timeout,timeout_time,interTrial_timeout,left_rank,right_rank,distance,joint_rank,left_image,right_image
00000014,1,1,1439827075579,1439827076511,348,526,0,0,0,4,5,1,45,0004-00-0007-47.png,0005-00-0009-67.png
00000014,2,1,1439827078076,1439827078647,942,484,0,0,0,4,3,1,43,0004-00-0005-75.png,0003-00-0009-92.png
00000014,3,1,1439827094888,1439827095456,411,501,0,0,0,2,3,1,23,0002-00-0000-46.png,0003-00-0004-63.png
00000014,4,0,1439827096686,1439827097259,343,400,0,0,0,2,1,1,21,0002-00-0004-47.png,0001-00-0005-53.png
00000014,5,0,1439827099122,1439827099542,350,464,0,0,0,5,4,1,54,0005-00-0001-06.png,0004-00-0006-58.png
00000014,6,1,1439827102552,1439827103431,963,528,0,0,0,3,2,1,32,0003-00-0000-44.png,0002-00-0007-68.png
00000014,7,0,1439827104419,1439827108168,923,515,0,0,0,3,4,1,34,0003-00-0007-10.png,0004-00-0001-99.png
00000014,8,1,1439827110164,1439827110710,348,391,0,0,0,1,2,1,12,0001-00-0009-93.png,0002-00-0002-75.png
00000014,9,1,1439827112023,1439827112555,939,384,0,0,0,4,3,1,43,0004-00-0009-75.png,0003-00-0006-28.png
00000014,10,1,1439827113691,1439827114257,401,477,0,0,0,3,4,1,34,0003-00-0007-04.png,0004-00-0004-54.png
00000014,11,0,1439827115433,1439827115922,350,386,0,0,0,5,4,1,54,0005-00-0002-59.png,0004-00-0008-73.png
00000014,12,1,1439827118063,1439827118558,368,401,0,0,0,1,2,1,12,0001-00-0008-57.png,0002-00-0009-62.png
00000014,13,1,1439827119870,1439827120666,977,385,0,0,0,2,1,1,21,0002-00-0000-21.png,0001-00-0009-79.png
00000014,14,1,1439827121653,1439827122162,926,450,0,0,0,3,2,1,32,0003-00-0002-54.png,0002-00-0000-03.png
00000014,15,0,1439827123172,1439827123764,933,420,0,0,0,4,5,1,45,0004-00-0004-95.png,0005-00-0009-41.png
00000014,16,1,1439827126054,1439827126726,384,390,0,0,0,2,3,1,23,0002-00-0001-13.png,0003-00-0006-84.png
00000014,17,1,1439827128011,1439827128573,331,389,0,0,0,1,2,1,12,0001-00-0001-63.png,0002-00-0008-75.png
00000014,18,0,1439827129639,1439827130118,361,386,0,0,0,2,1,1,21,0002-00-0005-36.png,0001-00-0008-84.png
00000014,19,0,1439827133847,1439827134457,862,360,0,0,0,4,5,1,45,0004-00-0000-46.png,0005-00-0005-79.png
00000014,20,0,1439827136381,1439827136918,929,413,0,0,0,2,3,1,23,0002-00-0000-16.png,0003-00-0005-48.png
00000014,21,0,1439827139412,1439827140158,974,385,0,0,0,3,4,1,34,0003-00-0005-67.png,0004-00-0001-51.png
00000014,22,0,1439827143548,1439827144184,350,464,0,0,0,4,3,1,43,0004-00-0000-28.png,0003-00-0008-35.png
00000014,23,1,1439827146410,1439827146960,902,475,0,0,0,3,2,1,32,0003-00-0001-63.png,0002-00-0002-13.png
00000014,24,1,1439827148077,1439827148607,878,466,0,0,0,5,4,1,54,0005-00-0008-69.png,0004-00-0003-05.png
00000014,25,0,1439827149661,1439827150207,904,454,0,0,0,3,4,1,34,0003-00-0005-42.png,0004-00-0002-88.png
00000014,26,0,1439827152370,1439827152950,897,471,0,0,0,2,3,1,23,0002-00-0009-80.png,0003-00-0007-00.png
00000014,27,1,1439827161126,1439827161732,329,352,0,0,0,4,5,1,45,0004-00-0001-64.png,0005-00-0000-62.png
00000014,28,1,1439827162770,1439827163302,911,459,0,0,0,4,3,1,43,0004-00-0001-50.png,0003-00-0008-46.png
00000014,29,0,1439827164650,1439827165211,354,392,0,0,0,5,4,1,54,0005-00-0009-89.png,0004-00-0009-55.png
00000014,30,0,1439827167352,1439827167895,334,356,0,0,0,2,1,1,21,0002-00-0009-31.png,0001-00-0000-81.png
00000014,31,1,1439827171993,1439827172510,917,365,0,0,0,3,2,1,32,0003-00-0000-25.png,0002-00-0001-06.png
00000014,32,1,1439827173491,1439827174073,312,371,0,0,0,1,2,1,12,0001-00-0006-78.png,0002-00-0001-75.png
00000014,33,0,1439827175135,1439827175658,328,377,0,0,0,5,4,1,54,0005-00-0002-09.png,0004-00-0008-91.png
00000014,34,0,1439827178712,1439827179277,958,331,0,0,0,4,5,1,45,0004-00-0004-66.png,0005-00-0003-22.png
00000014,35,0,1439827194910,1439827195362,343,401,0,0,0,2,1,1,21,0002-00-0001-17.png,0001-00-0006-60.png
00000014,36,1,1439827197466,1439827197990,362,410,0,0,0,1,2,1,12,0001-00-0009-59.png,0002-00-0008-59.png
00000014,37,0,1439827199126,1439827199679,950,379,0,0,0,3,4,1,34,0003-00-0004-72.png,0004-00-0003-71.png
00000014,38,1,1439827202545,1439827203125,347,373,0,0,0,2,3,1,23,0002-00-0003-93.png,0003-00-0000-76.png
00000014,39,1,1439827204080,1439827204626,898,484,0,0,0,3,2,1,32,0003-00-0002-89.png,0002-00-0005-71.png
00000014,40,1,1439827205981,1439827206753,954,441,0,0,0,4,3,1,43,0004-00-0008-70.png,0003-00-0009-17.png
00000014,41,1,1439827207730,1439827208300,996,356,0,0,0,2,1,1,21,0002-00-0009-76.png,0001-00-0004-41.png
00000014,42,1,1439827209228,1439827209241,504,479,0,0,0,2,3,1,23,0002-00-0002-84.png,0003-00-0004-16.png
00000014,43,1,1439827210285,1439827210927,411,519,0,0,0,4,5,1,45,0004-00-0007-85.png,0005-00-0007-52.png
00000014,44,1,1439827211905,1439827212398,350,358,0,0,0,3,4,1,34,0003-00-0007-26.png,0004-00-0005-40.png
00000014,45,1,1439827213323,1439827213858,920,368,0,0,0,3,2,1,32,0003-00-0009-33.png,0002-00-0005-96.png
00000014,46,1,1439827214806,1439827215348,916,374,0,0,0,4,3,1,43,0004-00-0009-29.png,0003-00-0007-15.png
00000014,47,1,1439827216275,1439827216857,878,392,0,0,0,5,4,1,54,0005-00-0006-27.png,0004-00-0009-73.png
00000014,48,0,1439827217797,1439827218320,902,469,0,0,0,1,2,1,12,0001-00-0007-03.png,0002-00-0004-37.png
00000014,49,1,1439827220719,1439827221386,382,360,0,0,0,3,4,1,34,0003-00-0002-65.png,0004-00-0002-96.png
00000014,50,1,1439827222341,1439827222870,965,397,0,0,0,2,1,1,21,0002-00-0002-49.png,0001-00-0007-61.png
00000014,51,0,1439827224057,1439827224678,897,485,0,0,0,2,3,1,23,0002-00-0009-31.png,0003-00-0005-80.png
00000014,52,0,1439827236734,1439827237278,914,464,0,0,0,4,5,1,45,0004-00-0006-25.png,0005-00-0006-84.png
00000014,53,1,1439827239137,1439827239638,341,375,0,0,0,1,2,1,12,0001-00-0006-17.png,0002-00-0005-45.png
00000014,54,0,1439827240626,1439827241152,350,396,0,0,0,4,3,1,43,0004-00-0007-57.png,0003-00-0007-38.png
00000014,55,1,1439827243200,1439827243937,926,423,0,0,0,5,4,1,54,0005-00-0001-41.png,0004-00-0006-44.png
00000014,56,1,1439827244908,1439827245445,931,375,0,0,0,3,2,1,32,0003-00-0007-37.png,0002-00-0005-16.png
00000014,57,0,1439827246438,1439827246930,381,360,0,0,0,5,4,1,54,0005-00-0006-31.png,0004-00-0009-60.png
00000014,58,0,1439827248993,1439827249628,938,389,0,0,0,1,2,1,12,0001-00-0008-14.png,0002-00-0008-65.png
00000014,59,1,1439827255155,1439827255791,322,344,0,0,0,4,5,1,45,0004-00-0007-85.png,0005-00-0007-62.png
00000014,60,1,1439827256993,1439827257556,387,482,0,0,0,2,3,1,23,0002-00-0006-70.png,0003-00-0007-60.png
00000014,61,0,1439827258534,1439827259099,376,371,0,0,0,2,1,1,21,0002-00-0001-69.png,0001-00-0006-45.png
00000014,62,1,1439827262314,1439827262834,951,345,0,0,0,4,3,1,43,0004-00-0001-68.png,0003-00-0001-21.png
00000014,63,1,1439827263860,1439827264396,938,449,0,0,0,3,2,1,32,0003-00-0006-17.png,0002-00-0005-24.png
00000014,64,0,1439827265388,1439827265938,928,388,0,0,0,3,4,1,34,0003-00-0005-70.png,0004-00-0001-12.png
00000014,65,1,1439827267925,1439827268462,924,430,0,0,0,5,4,1,54,0005-00-0002-54.png,0004-00-0001-03.png
00000014,66,0,1439827269415,1439827269956,952,455,0,0,0,1,2,1,12,0001-00-0007-79.png,0002-00-0002-95.png
00000014,67,0,1439827277488,1439827277977,376,372,0,0,0,2,1,1,21,0002-00-0001-35.png,0001-00-0007-01.png
00000014,68,0,1439827281642,1439827282246,362,422,0,0,0,4,3,1,43,0004-00-0008-16.png,0003-00-0004-99.png
00000014,69,0,1439827284084,1439827284136,504,488,0,0,0,3,2,1,32,0003-00-0002-09.png,0002-00-0007-89.png
00000014,70,1,1439827286803,1439827287361,321,349,0,0,0,4,5,1,45,0004-00-0006-48.png,0005-00-0000-30.png
00000014,71,1,1439827288312,1439827288936,406,365,0,0,0,3,4,1,34,0003-00-0004-51.png,0004-00-0006-32.png
00000014,72,1,1439827290011,1439827290542,347,393,0,0,0,2,3,1,23,0002-00-0009-98.png,0003-00-0001-73.png
00000014,73,1,1439827291521,1439827292043,899,455,0,0,0,4,3,1,43,0004-00-0005-58.png,0003-00-0007-17.png
00000014,74,1,1439827293069,1439827293624,902,373,0,0,0,2,1,1,21,0002-00-0005-33.png,0001-00-0006-10.png
00000014,75,1,1439827294544,1439827295127,350,345,0,0,0,3,4,1,34,0003-00-0000-39.png,0004-00-0005-92.png
00000014,76,0,1439827296100,1439827296667,922,446,0,0,0,2,3,1,23,0002-00-0008-67.png,0003-00-0002-71.png
00000014,77,0,1439827299180,1439827299673,350,358,0,0,0,3,2,1,32,0003-00-0004-42.png,0002-00-0007-96.png
00000014,78,1,1439827303337,1439827303831,949,371,0,0,0,5,4,1,54,0005-00-0003-39.png,0004-00-0009-65.png
00000014,79,0,1439827304810,1439827305391,947,384,0,0,0,1,2,1,12,0001-00-0009-76.png,0002-00-0001-44.png
00000014,80,0,1439827307801,1439827308532,945,343,0,0,0,4,5,1,45,0004-00-0002-98.png,0005-00-0004-70.png
00000014,81,0,1439827311676,1439827311696,505,443,0,0,0,4,3,1,43,0004-00-0001-65.png,0003-00-0009-11.png
00000014,82,0,1439827314113,1439827314652,340,364,0,0,0,3,2,1,32,0003-00-0003-47.png,0002-00-0003-78.png
00000014,83,1,1439827317362,1439827318036,344,452,0,0,0,4,5,1,45,0004-00-0007-46.png,0005-00-0007-43.png
00000014,84,0,1439827319050,1439827319731,910,412,0,0,0,3,4,1,34,0003-00-0005-31.png,0004-00-0003-25.png
00000014,85,1,1439827321796,1439827321824,478,478,0,0,0,1,2,1,12,0001-00-0003-68.png,0002-00-0007-00.png
00000014,86,0,1439827322902,1439827323751,310,349,0,0,0,2,1,1,21,0002-00-0005-74.png,0001-00-0002-72.png
00000014,87,1,1439827325577,1439827326164,928,386,0,0,0,5,4,1,54,0005-00-0001-74.png,0004-00-0008-21.png
00000014,88,0,1439827327122,1439827327710,921,393,0,0,0,2,3,1,23,0002-00-0006-35.png,0003-00-0004-23.png
00000014,89,1,1439827329577,1439827330157,901,476,0,0,0,2,1,1,21,0002-00-0005-70.png,0001-00-0008-32.png
00000014,90,1,1439827331099,1439827331769,869,342,0,0,0,3,2,1,32,0003-00-0006-53.png,0002-00-0003-19.png
00000014,91,1,1439827332777,1439827333379,875,495,0,0,0,5,4,1,54,0005-00-0002-00.png,0004-00-0009-76.png
00000014,92,1,1439827334556,1439827335109,413,476,0,0,0,2,3,1,23,0002-00-0006-76.png,0003-00-0003-10.png
00000014,93,1,1439827336099,1439827336710,918,483,0,0,0,4,3,1,43,0004-00-0001-80.png,0003-00-0005-73.png
00000014,94,1,1439827337718,1439827338253,419,475,0,0,0,1,2,1,12,0001-00-0005-18.png,0002-00-0009-84.png
00000014,95,0,1439827339386,1439827340034,906,348,0,0,0,3,4,1,34,0003-00-0001-30.png,0004-00-0009-62.png
00000014,96,1,1439827342180,1439827342791,321,389,0,0,0,4,5,1,45,0004-00-0001-29.png,0005-00-0000-33.png
00000014,97,1,1439827344165,1439827344742,293,393,0,0,0,1,2,1,12,0001-00-0002-88.png,0002-00-0005-19.png
00000014,98,1,1439827345728,1439827346385,934,389,0,0,0,3,2,1,32,0003-00-0005-17.png,0002-00-0000-01.png
00000014,99,0,1439827347389,1439827348064,446,513,0,0,0,2,1,1,21,0002-00-0003-53.png,0001-00-0000-72.png
00000014,100,0,1439827350290,1439827350306,509,460,0,0,0,4,3,1,43,0004-00-0005-78.png,0003-00-0003-28.png
00000014,101,1,1439827352437,1439827353000,338,358,0,0,0,4,5,1,45,0004-00-0004-31.png,0005-00-0002-56.png
00000014,102,0,1439827353938,1439827354505,878,411,0,0,0,3,4,1,34,0003-00-0008-87.png,0004-00-0005-12.png
00000014,103,1,1439827356573,1439827357076,335,403,0,0,0,2,3,1,23,0002-00-0002-84.png,0003-00-0000-23.png
00000014,104,0,1439827358476,1439827358971,392,496,0,0,0,5,4,1,54,0005-00-0005-14.png,0004-00-0005-38.png
00000014,105,0,1439827362418,1439827363521,347,365,0,0,0,4,3,1,43,0004-00-0004-72.png,0003-00-0008-91.png
00000014,106,0,1439827365596,1439827365633,477,483,0,0,0,5,4,1,54,0005-00-0000-83.png,0004-00-0001-91.png
00000014,107,0,1439827367715,1439827368322,924,408,0,0,0,4,5,1,45,0004-00-0000-88.png,0005-00-0006-20.png
00000014,108,1,1439827370206,1439827370628,330,371,0,0,0,1,2,1,12,0001-00-0005-72.png,0002-00-0000-08.png
00000014,109,1,1439827371579,1439827371635,476,501,0,0,0,3,4,1,34,0003-00-0002-73.png,0004-00-0001-57.png
00000014,110,1,1439827372871,1439827373493,333,373,0,0,0,2,3,1,23,0002-00-0009-07.png,0003-00-0007-08.png
00000014,111,1,1439827374442,1439827375035,919,382,0,0,0,2,1,1,21,0002-00-0004-58.png,0001-00-0005-76.png
00000014,112,1,1439827376081,1439827376864,875,482,0,0,0,3,2,1,32,0003-00-0004-37.png,0002-00-0008-35.png
00000014,113,1,1439827377868,1439827378383,922,367,0,0,0,4,3,1,43,0004-00-0005-89.png,0003-00-0007-55.png
00000014,114,1,1439827379419,1439827380098,926,383,0,0,0,3,2,1,32,0003-00-0005-46.png,0002-00-0003-81.png
00000014,115,0,1439827381118,1439827381713,873,423,0,0,0,3,4,1,34,0003-00-0002-77.png,0004-00-0009-57.png
00000014,116,0,1439827383840,1439827383868,510,442,0,0,0,5,4,1,54,0005-00-0000-80.png,0004-00-0008-95.png
00000014,117,1,1439827386009,1439827386812,951,373,0,0,0,2,1,1,21,0002-00-0008-43.png,0001-00-0005-47.png
00000014,118,0,1439827387767,1439827388294,930,400,0,0,0,1,2,1,12,0001-00-0006-48.png,0002-00-0005-96.png
00000014,119,1,1439827390344,1439827390376,503,473,0,0,0,4,5,1,45,0004-00-0006-87.png,0005-00-0002-91.png
00000014,120,1,1439827391424,1439827391928,364,387,0,0,0,2,3,1,23,0002-00-0002-58.png,0003-00-0005-22.png
00000014,121,1,1439827392874,1439827393441,340,367,0,0,0,3,4,1,34,0003-00-0007-67.png,0004-00-0006-52.png
00000014,122,1,1439827394456,1439827395031,939,385,0,0,0,5,4,1,54,0005-00-0009-46.png,0004-00-0008-80.png
00000014,123,0,1439827396046,1439827396630,361,390,0,0,0,3,2,1,32,0003-00-0001-86.png,0002-00-0008-49.png
00000014,124,1,1439827398939,1439827399581,893,456,0,0,0,4,3,1,43,0004-00-0000-86.png,0003-00-0007-12.png
00000014,125,1,1439827400537,1439827401094,413,528,0,0,0,4,5,1,45,0004-00-0002-15.png,0005-00-0008-83.png
00000014,126,0,1439827402038,1439827402694,350,357,0,0,0,2,1,1,21,0002-00-0008-37.png,0001-00-0004-50.png
00000014,127,1,1439827404834,1439827405397,444,440,0,0,0,2,3,1,23,0002-00-0008-55.png,0003-00-0008-40.png
00000014,128,0,1439827406292,1439827406875,913,347,0,0,0,1,2,1,12,0001-00-0000-31.png,0002-00-0005-57.png
00000014,129,1,1439827408726,1439827409576,354,343,0,0,0,1,2,1,12,0001-00-0007-75.png,0002-00-0009-99.png
00000014,130,0,1439827410468,1439827410986,362,393,0,0,0,2,1,1,21,0002-00-0003-01.png,0001-00-0007-18.png
00000014,131,0,1439827413071,1439827413616,344,384,0,0,0,5,4,1,54,0005-00-0005-87.png,0004-00-0006-49.png
00000014,132,1,1439827416302,1439827416830,334,365,0,0,0,4,5,1,45,0004-00-0004-52.png,0005-00-0005-30.png
00000014,133,1,1439827417802,1439827418324,375,406,0,0,0,2,3,1,23,0002-00-0004-97.png,0003-00-0007-97.png
00000014,134,0,1439827419310,1439827420063,391,401,0,0,0,3,2,1,32,0003-00-0003-09.png,0002-00-0009-77.png
00000014,135,1,1439827422167,1439827422791,892,458,0,0,0,4,3,1,43,0004-00-0006-68.png,0003-00-0008-31.png
00000014,136,1,1439827423765,1439827424329,390,429,0,0,0,3,4,1,34,0003-00-0002-48.png,0004-00-0006-50.png
00000014,137,1,1439827425296,1439827425905,873,483,0,0,0,4,3,1,43,0004-00-0001-72.png,0003-00-0008-26.png
00000014,138,0,1439827426855,1439827426912,475,492,0,0,0,2,1,1,21,0002-00-0003-39.png,0001-00-0009-43.png
00000014,139,0,1439827428802,1439827429316,376,371,0,0,0,3,2,1,32,0003-00-0009-96.png,0002-00-0009-40.png
00000014,140,0,1439827433498,1439827434082,922,419,0,0,0,2,3,1,23,0002-00-0007-38.png,0003-00-0006-77.png
00000014,141,1,1439827436375,1439827436928,925,385,0,0,0,5,4,1,54,0005-00-0002-55.png,0004-00-0009-84.png
00000014,142,1,1439827437946,1439827438752,376,332,0,0,0,4,5,1,45,0004-00-0003-21.png,0005-00-0004-52.png
00000014,143,0,1439827439753,1439827440384,918,382,0,0,0,1,2,1,12,0001-00-0007-18.png,0002-00-0000-30.png
00000014,144,0,1439827442448,1439827443089,931,389,0,0,0,3,4,1,34,0003-00-0006-43.png,0004-00-0001-50.png
00000014,145,0,1439827450733,1439827451326,313,393,0,0,0,5,4,1,54,0005-00-0002-34.png,0004-00-0001-26.png
00000014,146,0,1439827453554,1439827454043,331,360,0,0,0,3,2,1,32,0003-00-0000-76.png,0002-00-0005-57.png
00000014,147,1,1439827456685,1439827457277,898,481,0,0,0,2,1,1,21,0002-00-0008-50.png,0001-00-0007-34.png
00000014,148,1,1439827458296,1439827458923,883,486,0,0,0,4,3,1,43,0004-00-0002-61.png,0003-00-0001-69.png
00000014,149,1,1439827459906,1439827460406,370,389,0,0,0,2,3,1,23,0002-00-0005-65.png,0003-00-0003-09.png
00000014,150,0,1439827461363,1439827461920,914,508,0,0,0,4,5,1,45,0004-00-0003-10.png,0005-00-0004-59.png
00000014,151,0,1439827464047,1439827464566,978,381,0,0,0,3,4,1,34,0003-00-0006-58.png,0004-00-0003-71.png
00000014,152,1,1439827466722,1439827467235,364,378,0,0,0,1,2,1,12,0001-00-0001-49.png,0002-00-0000-74.png
00000014,153,1,1439827468133,1439827468709,980,363,0,0,0,5,4,1,54,0005-00-0000-27.png,0004-00-0009-08.png
00000014,154,0,1439827469673,1439827470227,931,400,0,0,0,3,4,1,34,0003-00-0003-65.png,0004-00-0003-03.png
00000014,155,1,1439827472149,1439827472673,343,395,0,0,0,4,5,1,45,0004-00-0002-88.png,0005-00-0003-42.png
00000014,156,1,1439827473558,1439827474178,907,411,0,0,0,3,2,1,32,0003-00-0006-04.png,0002-00-0004-69.png
00000014,157,1,1439827475137,1439827475711,401,358,0,0,0,1,2,1,12,0001-00-0006-88.png,0002-00-0005-49.png
00000014,158,0,1439827476709,1439827477243,344,370,0,0,0,2,1,1,21,0002-00-0009-82.png,0001-00-0008-66.png
00000014,159,0,1439827479163,1439827479179,479,437,0,0,0,4,3,1,43,0004-00-0000-79.png,0003-00-0001-26.png
00000014,160,1,1439827481407,1439827481903,222,448,0,0,0,2,3,1,23,0002-00-0002-57.png,0003-00-0002-53.png
00000014,161,1,1439827482797,1439827482809,504,477,0,0,0,1,2,1,12,0001-00-0002-96.png,0002-00-0006-61.png
00000014,162,0,1439827483905,1439827484447,881,426,0,0,0,4,5,1,45,0004-00-0004-79.png,0005-00-0002-70.png
00000014,163,0,1439827486469,1439827486485,420,478,0,0,0,3,2,1,32,0003-00-0002-15.png,0002-00-0003-50.png
00000014,164,1,1439827488424,1439827489048,915,369,0,0,0,4,3,1,43,0004-00-0006-28.png,0003-00-0004-19.png
00000014,165,1,1439827490026,1439827490800,940,371,0,0,0,5,4,1,54,0005-00-0003-08.png,0004-00-0003-80.png
00000014,166,0,1439827491742,1439827492307,348,371,0,0,0,2,1,1,21,0002-00-0002-38.png,0001-00-0000-32.png
00000014,167,0,1439827494574,1439827495209,939,397,0,0,0,3,4,1,34,0003-00-0005-54.png,0004-00-0007-06.png
00000014,168,1,1439827499081,1439827499579,355,360,0,0,0,2,3,1,23,0002-00-0000-52.png,0003-00-0003-93.png
00000014,169,0,1439827501424,1439827502050,958,357,0,0,0,4,5,1,45,0004-00-0004-62.png,0005-00-0005-77.png
00000014,170,0,1439827504038,1439827504054,478,400,0,0,0,3,2,1,32,0003-00-0007-70.png,0002-00-0000-06.png
00000014,171,1,1439827506233,1439827506764,950,372,0,0,0,2,1,1,21,0002-00-0003-47.png,0001-00-0001-49.png
00000014,172,1,1439827507943,1439827508434,401,410,0,0,0,1,2,1,12,0001-00-0000-66.png,0002-00-0002-68.png
00000014,173,1,1439827510378,1439827510889,346,381,0,0,0,2,3,1,23,0002-00-0007-48.png,0003-00-0007-83.png
00000014,174,0,1439827512336,1439827512990,289,386,0,0,0,4,3,1,43,0004-00-0004-76.png,0003-00-0007-84.png
00000014,175,1,1439827515153,1439827515659,343,383,0,0,0,3,4,1,34,0003-00-0007-16.png,0004-00-0002-95.png
00000014,176,1,1439827516721,1439827517385,963,387,0,0,0,5,4,1,54,0005-00-0003-79.png,0004-00-0006-57.png
00000014,177,0,1439827518718,1439827519339,368,398,0,0,0,2,1,1,21,0002-00-0005-48.png,0001-00-0007-99.png
00000014,178,0,1439827521402,1439827521971,900,475,0,0,0,2,3,1,23,0002-00-0007-03.png,0003-00-0004-39.png
00000014,179,0,1439827524104,1439827524664,952,395,0,0,0,3,4,1,34,0003-00-0005-93.png,0004-00-0006-19.png
00000014,180,0,1439827527038,1439827527559,323,372,0,0,0,3,2,1,32,0003-00-0003-38.png,0002-00-0001-72.png
00000014,181,1,1439827531304,1439827531825,364,463,0,0,0,1,2,1,12,0001-00-0002-49.png,0002-00-0000-69.png
00000014,182,1,1439827533057,1439827533692,919,433,0,0,0,4,3,1,43,0004-00-0002-85.png,0003-00-0003-46.png
00000014,183,1,1439827534758,1439827535344,371,380,0,0,0,4,5,1,45,0004-00-0001-31.png,0005-00-0002-21.png
00000014,184,0,1439827536389,1439827536904,401,358,0,0,0,5,4,1,54,0005-00-0009-55.png,0004-00-0002-71.png
00000014,185,0,1439827538816,1439827538824,406,475,0,0,0,4,3,1,43,0004-00-0009-66.png,0003-00-0000-48.png
00000014,186,0,1439827544527,1439827545240,346,367,0,0,0,2,1,1,21,0002-00-0002-41.png,0001-00-0000-13.png
00000014,187,1,1439827547631,1439827547639,462,410,0,0,0,2,3,1,23,0002-00-0004-89.png,0003-00-0003-98.png
00000014,188,0,1439827549150,1439827549807,376,372,0,0,0,5,4,1,54,0005-00-0005-09.png,0004-00-0005-78.png
00000014,189,1,1439827551974,1439827552526,370,479,0,0,0,3,4,1,34,0003-00-0003-90.png,0004-00-0007-18.png
00000014,190,1,1439827553504,1439827554111,401,410,0,0,0,4,5,1,45,0004-00-0007-05.png,0005-00-0009-30.png
00000014,191,1,1439827555123,1439827555694,371,395,0,0,0,1,2,1,12,0001-00-0008-50.png,0002-00-0006-68.png
00000014,192,0,1439827556648,1439827556672,477,472,0,0,0,3,2,1,32,0003-00-0008-70.png,0002-00-0008-98.png
00000014,193,1,1439827558832,1439827559650,951,396,0,0,0,2,1,1,21,0002-00-0000-83.png,0001-00-0007-72.png
00000014,194,1,1439827560609,1439827561503,979,381,0,0,0,3,2,1,32,0003-00-0008-01.png,0002-00-0006-44.png
00000014,195,0,1439827562348,1439827562937,928,406,0,0,0,1,2,1,12,0001-00-0004-03.png,0002-00-0003-90.png
00000014,196,0,1439827565441,1439827566082,975,369,0,0,0,4,5,1,45,0004-00-0002-51.png,0005-00-0002-30.png
00000014,197,1,1439827568341,1439827568836,312,419,0,0,0,2,3,1,23,0002-00-0005-95.png,0003-00-0001-18.png
00000014,198,0,1439827569692,1439827569712,478,448,0,0,0,5,4,1,54,0005-00-0005-89.png,0004-00-0006-16.png
00000014,199,0,1439827571571,1439827572150,925,366,0,0,0,3,4,1,34,0003-00-0007-05.png,0004-00-0009-26.png
00000014,200,0,1439827574104,1439827574739,376,332,0,0,0,4,3,1,43,0004-00-0002-95.png,0003-00-0000-60.png
00000014,201,1,1439827576970,1439827577613,388,449,0,0,0,3,4,1,34,0003-00-0002-08.png,0004-00-0006-76.png
00000014,202,0,1439827578539,1439827579192,898,458,0,0,0,1,2,1,12,0001-00-0006-98.png,0002-00-0000-21.png
00000014,203,0,1439827581201,1439827581229,508,430,0,0,0,5,4,1,54,0005-00-0005-67.png,0004-00-0000-69.png
00000014,204,0,1439827584005,1439827584553,376,384,0,0,0,4,3,1,43,0004-00-0007-18.png,0003-00-0007-86.png
00000014,205,1,1439827587117,1439827587741,923,383,0,0,0,3,2,1,32,0003-00-0003-17.png,0002-00-0005-56.png
00000014,206,1,1439827588794,1439827589387,356,405,0,0,0,4,5,1,45,0004-00-0000-22.png,0005-00-0002-64.png
00000014,207,0,1439827590333,1439827590907,925,397,0,0,0,2,3,1,23,0002-00-0006-70.png,0003-00-0009-99.png
00000014,208,0,1439827593186,1439827593793,367,381,0,0,0,2,1,1,21,0002-00-0006-13.png,0001-00-0007-28.png
00000014,209,1,1439827595794,1439827596404,956,349,0,0,0,3,2,1,32,0003-00-0002-69.png,0002-00-0008-40.png
00000014,210,0,1439827597324,1439827597920,374,397,0,0,0,5,4,1,54,0005-00-0005-62.png,0004-00-0006-57.png
00000014,211,0,1439827599986,1439827600042,453,514,0,0,0,2,1,1,21,0002-00-0009-03.png,0001-00-0003-93.png
00000014,212,1,1439827602462,1439827603022,401,384,0,0,0,2,3,1,23,0002-00-0001-13.png,0003-00-0002-00.png
00000014,213,1,1439827603942,1439827604564,870,498,0,0,0,4,3,1,43,0004-00-0008-87.png,0003-00-0005-75.png
00000014,214,0,1439827605521,1439827606079,895,420,0,0,0,4,5,1,45,0004-00-0002-91.png,0005-00-0001-90.png
00000014,215,1,1439827607915,1439827608609,335,399,0,0,0,1,2,1,12,0001-00-0005-76.png,0002-00-0008-75.png
00000014,216,0,1439827609605,1439827610318,950,362,0,0,0,3,4,1,34,0003-00-0000-53.png,0004-00-0009-00.png
00000014,217,1,1439827612478,1439827613068,930,375,0,0,0,5,4,1,54,0005-00-0003-85.png,0004-00-0001-43.png
00000014,218,1,1439827613955,1439827614500,950,383,0,0,0,4,3,1,43,0004-00-0001-34.png,0003-00-0003-38.png
00000014,219,1,1439827615497,1439827616001,945,391,0,0,0,2,1,1,21,0002-00-0006-69.png,0001-00-0002-49.png
00000014,220,1,1439827617507,1439827618178,411,495,0,0,0,4,5,1,45,0004-00-0004-23.png,0005-00-0007-47.png
00000014,221,1,1439827619920,1439827620573,951,361,0,0,0,3,2,1,32,0003-00-0006-09.png,0002-00-0009-10.png
00000014,222,1,1439827621588,1439827622102,397,488,0,0,0,2,3,1,23,0002-00-0006-71.png,0003-00-0004-77.png
00000014,223,1,1439827623021,1439827623625,363,450,0,0,0,1,2,1,12,0001-00-0003-87.png,0002-00-0009-14.png
00000014,224,1,1439827624580,1439827625145,375,384,0,0,0,3,4,1,34,0003-00-0002-12.png,0004-00-0000-35.png
00000014,225,1,1439827626121,1439827626649,902,398,0,0,0,3,2,1,32,0003-00-0003-77.png,0002-00-0005-33.png
00000014,226,1,1439827627710,1439827628244,332,401,0,0,0,4,5,1,45,0004-00-0003-92.png,0005-00-0004-86.png
00000014,227,0,1439827629191,1439827629855,903,416,0,0,0,3,4,1,34,0003-00-0004-60.png,0004-00-0003-31.png
00000014,228,0,1439827631935,1439827631963,508,459,0,0,0,2,1,1,21,0002-00-0009-86.png,0001-00-0008-66.png
00000014,229,1,1439827633974,1439827634521,314,443,0,0,0,2,3,1,23,0002-00-0007-86.png,0003-00-0001-93.png
00000014,230,1,1439827635402,1439827635949,389,516,0,0,0,1,2,1,12,0001-00-0008-45.png,0002-00-0008-19.png
00000014,231,0,1439827636886,1439827637562,328,363,0,0,0,5,4,1,54,0005-00-0004-28.png,0004-00-0006-14.png
00000014,232,1,1439827639965,1439827640534,927,398,0,0,0,4,3,1,43,0004-00-0005-06.png,0003-00-0002-34.png
00000014,233,0,1439827641487,1439827642190,887,425,0,0,0,1,2,1,12,0001-00-0005-96.png,0002-00-0003-51.png
00000014,234,1,1439827644089,1439827644629,388,479,0,0,0,4,5,1,45,0004-00-0002-08.png,0005-00-0001-29.png
00000014,235,1,1439827645529,1439827646062,380,393,0,0,0,2,3,1,23,0002-00-0003-96.png,0003-00-0002-03.png
00000014,236,1,1439827647020,1439827647843,965,370,0,0,0,5,4,1,54,0005-00-0005-30.png,0004-00-0003-11.png
00000014,237,0,1439827648769,1439827649322,880,402,0,0,0,3,4,1,34,0003-00-0008-81.png,0004-00-0000-16.png
00000014,238,1,1439827651319,1439827652013,931,375,0,0,0,4,3,1,43,0004-00-0003-53.png,0003-00-0000-84.png
00000014,239,1,1439827652923,1439827653498,914,422,0,0,0,2,1,1,21,0002-00-0002-92.png,0001-00-0006-40.png
00000014,240,1,1439827654424,1439827655032,905,427,0,0,0,3,2,1,32,0003-00-0007-68.png,0002-00-0003-58.png
00000014,241,1,1439827655974,1439827656566,341,429,0,0,0,2,3,1,23,0002-00-0000-77.png,0003-00-0008-44.png
00000014,242,1,1439827657534,1439827658176,903,390,0,0,0,3,2,1,32,0003-00-0002-64.png,0002-00-0007-80.png
00000014,243,1,1439827659103,1439827659883,350,364,0,0,0,4,5,1,45,0004-00-0004-77.png,0005-00-0001-46.png
00000014,244,1,1439827660795,1439827661373,926,384,0,0,0,2,1,1,21,0002-00-0002-13.png,0001-00-0007-46.png
00000014,245,0,1439827662353,1439827662937,899,422,0,0,0,1,2,1,12,0001-00-0002-72.png,0002-00-0004-00.png
00000014,246,1,1439827665188,1439827665707,913,410,0,0,0,5,4,1,54,0005-00-0004-36.png,0004-00-0006-38.png
00000014,247,0,1439827666668,1439827667259,881,401,0,0,0,3,4,1,34,0003-00-0005-79.png,0004-00-0005-78.png
00000014,248,1,1439827670890,1439827671456,876,414,0,0,0,4,3,1,43,0004-00-0008-30.png,0003-00-0008-91.png
00000014,249,0,1439827672381,1439827672997,907,429,0,0,0,3,4,1,34,0003-00-0007-22.png,0004-00-0005-72.png
00000014,250,1,1439827677794,1439827678361,946,394,0,0,0,4,3,1,43,0004-00-0007-38.png,0003-00-0004-41.png
00000014,251,0,1439827679388,1439827680032,359,371,0,0,0,3,2,1,32,0003-00-0005-40.png,0002-00-0005-35.png
00000014,252,1,1439827682609,1439827683152,392,509,0,0,0,2,3,1,23,0002-00-0003-82.png,0003-00-0003-40.png
00000014,253,1,1439827684108,1439827684690,950,403,0,0,0,5,4,1,54,0005-00-0006-46.png,0004-00-0003-78.png
00000014,254,0,1439827685680,1439827686401,929,350,0,0,0,1,2,1,12,0001-00-0007-27.png,0002-00-0005-07.png
00000014,255,0,1439827688952,1439827688976,482,480,0,0,0,2,1,1,21,0002-00-0003-79.png,0001-00-0007-45.png
00000014,256,1,1439827691054,1439827691138,461,510,0,0,0,4,5,1,45,0004-00-0007-92.png,0005-00-0001-25.png
00000014,257,1,1439827692129,1439827692691,929,389,0,0,0,5,4,1,54,0005-00-0002-42.png,0004-00-0005-65.png
00000014,258,1,1439827693697,1439827694383,401,372,0,0,0,2,3,1,23,0002-00-0002-56.png,0003-00-0000-81.png
00000014,259,0,1439827695337,1439827695901,899,412,0,0,0,1,2,1,12,0001-00-0001-40.png,0002-00-0007-61.png
00000014,260,1,1439827698209,1439827698853,902,469,0,0,0,4,3,1,43,0004-00-0007-73.png,0003-00-0002-89.png
00000014,261,0,1439827730221,1439827731138,279,463,0,0,0,2,1,1,21,0002-00-0007-17.png,0001-00-0001-99.png
00000014,262,1,1439827733392,1439827734063,904,440,0,0,0,3,2,1,32,0003-00-0006-40.png,0002-00-0009-53.png
00000014,263,0,1439827735809,1439827736314,951,462,0,0,0,3,4,1,34,0003-00-0009-20.png,0004-00-0008-09.png
00000014,264,0,1439827738311,1439827738893,966,401,0,0,0,4,5,1,45,0004-00-0002-90.png,0005-00-0002-30.png
00000014,265,0,1439827741154,1439827741744,389,471,0,0,0,5,4,1,54,0005-00-0007-49.png,0004-00-0005-41.png
00000014,266,1,1439827744055,1439827744695,942,411,0,0,0,4,3,1,43,0004-00-0003-40.png,0003-00-0001-32.png
00000014,267,1,1439827745904,1439827746532,364,389,0,0,0,3,4,1,34,0003-00-0002-79.png,0004-00-0004-08.png
00000014,268,1,1439827747535,1439827748098,417,414,0,0,0,2,3,1,23,0002-00-0007-95.png,0003-00-0002-38.png
00000014,269,1,1439827749184,1439827749719,375,422,0,0,0,1,2,1,12,0001-00-0000-16.png,0002-00-0001-37.png
00000014,270,0,1439827750715,1439827751260,381,403,0,0,0,2,1,1,21,0002-00-0002-33.png,0001-00-0006-98.png
00000014,271,0,1439827753439,1439827754023,888,371,0,0,0,4,5,1,45,0004-00-0004-70.png,0005-00-0003-86.png
00000014,272,0,1439827757136,1439827757668,359,375,0,0,0,3,2,1,32,0003-00-0001-09.png,0002-00-0006-12.png
00000014,273,1,1439827759621,1439827759637,461,407,0,0,0,3,4,1,34,0003-00-0004-04.png,0004-00-0007-00.png
00000014,274,1,1439827760584,1439827761310,978,339,0,0,0,2,1,1,21,0002-00-0005-17.png,0001-00-0007-91.png
00000014,275,1,1439827762283,1439827762805,930,375,0,0,0,5,4,1,54,0005-00-0001-66.png,0004-00-0009-77.png
00000014,276,0,1439827763783,1439827764432,926,423,0,0,0,4,5,1,45,0004-00-0007-33.png,0005-00-0008-12.png
00000014,277,1,1439827766517,1439827767177,931,392,0,0,0,4,3,1,43,0004-00-0006-60.png,0003-00-0001-76.png
00000014,278,0,1439827768115,1439827768780,927,467,0,0,0,1,2,1,12,0001-00-0005-07.png,0002-00-0006-39.png
00000014,279,0,1439827770829,1439827770865,431,452,0,0,0,3,2,1,32,0003-00-0001-22.png,0002-00-0008-27.png
00000014,280,1,1439827773057,1439827773833,332,419,0,0,0,2,3,1,23,0002-00-0006-43.png,0003-00-0005-00.png
00000014,281,0,1439827774724,1439827775416,931,368,0,0,0,1,2,1,12,0001-00-0001-49.png,0002-00-0005-80.png
00000014,282,1,1439827777588,1439827778200,391,521,0,0,0,2,3,1,23,0002-00-0004-60.png,0003-00-0006-19.png
00000014,283,0,1439827779124,1439827779709,324,387,0,0,0,5,4,1,54,0005-00-0001-37.png,0004-00-0001-68.png
00000014,284,0,1439827781611,1439827781639,478,450,0,0,0,2,1,1,21,0002-00-0001-39.png,0001-00-0006-20.png
00000014,285,1,1439827784058,1439827784687,872,509,0,0,0,4,3,1,43,0004-00-0005-06.png,0003-00-0004-63.png
00000014,286,0,1439827785636,1439827786210,889,515,0,0,0,3,4,1,34,0003-00-0007-61.png,0004-00-0008-62.png
00000014,287,0,1439827788408,1439827789306,977,371,0,0,0,4,5,1,45,0004-00-0001-71.png,0005-00-0004-76.png
00000014,288,0,1439827792184,1439827792758,376,474,0,0,0,3,2,1,32,0003-00-0007-00.png,0002-00-0001-65.png
00000014,289,0,1439827794742,1439827794766,421,445,0,0,0,4,3,1,43,0004-00-0008-87.png,0003-00-0002-25.png
00000014,290,0,1439827796759,1439827796787,455,459,0,0,0,5,4,1,54,0005-00-0000-20.png,0004-00-0009-74.png
00000014,291,0,1439827798956,1439827798976,495,410,0,0,0,2,1,1,21,0002-00-0009-84.png,0001-00-0006-75.png
00000014,292,0,1439827802106,1439827802716,317,390,0,0,0,3,2,1,32,0003-00-0003-06.png,0002-00-0008-92.png
00000014,293,0,1439827804889,1439827805506,880,374,0,0,0,3,4,1,34,0003-00-0009-82.png,0004-00-0006-39.png
00000014,294,1,1439827807393,1439827807397,470,378,0,0,0,2,3,1,23,0002-00-0009-27.png,0003-00-0001-65.png
00000014,295,1,1439827808407,1439827808940,357,397,0,0,0,1,2,1,12,0001-00-0003-50.png,0002-00-0007-56.png
00000014,296,1,1439827809859,1439827810500,390,462,0,0,0,4,5,1,45,0004-00-0000-38.png,0005-00-0003-39.png
00000014,297,0,1439827811409,1439827811425,478,452,0,0,0,2,1,1,21,0002-00-0004-52.png,0001-00-0009-34.png
00000014,298,1,1439827813596,1439827814247,363,362,0,0,0,1,2,1,12,0001-00-0008-49.png,0002-00-0008-19.png
00000014,299,1,1439827815176,1439827815196,504,450,0,0,0,4,5,1,45,0004-00-0004-08.png,0005-00-0001-45.png
00000014,300,0,1439827816246,1439827816817,348,405,0,0,0,3,2,1,32,0003-00-0009-05.png,0002-00-0003-15.png
00000014,301,0,1439827818892,1439827818920,504,445,0,0,0,5,4,1,54,0005-00-0001-45.png,0004-00-0002-49.png
00000014,302,0,1439827821058,1439827822027,299,397,0,0,0,4,3,1,43,0004-00-0006-34.png,0003-00-0002-07.png
00000014,303,1,1439827824051,1439827824067,453,390,0,0,0,2,3,1,23,0002-00-0007-93.png,0003-00-0008-16.png
00000014,304,1,1439827825035,1439827825615,385,476,0,0,0,3,4,1,34,0003-00-0008-69.png,0004-00-0002-28.png
00000014,305,0,1439827826503,1439827827246,939,347,0,0,0,3,4,1,34,0003-00-0001-05.png,0004-00-0009-95.png
00000014,306,0,1439827829137,1439827829197,439,536,0,0,0,3,2,1,32,0003-00-0000-54.png,0002-00-0004-57.png
00000014,307,1,1439827831574,1439827832139,307,419,0,0,0,4,5,1,45,0004-00-0002-02.png,0005-00-0000-38.png
00000014,308,1,1439827833073,1439827833612,344,421,0,0,0,1,2,1,12,0001-00-0008-94.png,0002-00-0006-58.png
00000014,309,1,1439827834526,1439827835079,320,401,0,0,0,2,3,1,23,0002-00-0005-38.png,0003-00-0007-03.png
00000014,310,1,1439827835986,1439827836614,901,398,0,0,0,2,1,1,21,0002-00-0007-73.png,0001-00-0002-90.png
00000014,311,0,1439827837537,1439827838378,406,440,0,0,0,5,4,1,54,0005-00-0004-72.png,0004-00-0007-17.png
00000014,312,1,1439827840408,1439827841112,874,332,0,0,0,4,3,1,43,0004-00-0004-68.png,0003-00-0003-49.png
00000014,313,0,1439827841965,1439827842644,340,365,0,0,0,5,4,1,54,0005-00-0005-63.png,0004-00-0005-45.png
00000014,314,0,1439827844792,1439827845375,376,373,0,0,0,4,3,1,43,0004-00-0003-45.png,0003-00-0002-31.png
00000014,315,1,1439827847374,1439827847977,952,396,0,0,0,2,1,1,21,0002-00-0001-91.png,0001-00-0004-02.png
00000014,316,1,1439827848926,1439827849607,370,369,0,0,0,4,5,1,45,0004-00-0007-43.png,0005-00-0002-66.png
00000014,317,1,1439827850535,1439827851284,402,507,0,0,0,2,3,1,23,0002-00-0003-74.png,0003-00-0003-52.png
00000014,318,0,1439827852204,1439827852760,905,421,0,0,0,3,4,1,34,0003-00-0005-67.png,0004-00-0002-30.png
00000014,319,1,1439827854712,1439827855433,879,279,0,0,0,3,2,1,32,0003-00-0003-85.png,0002-00-0008-42.png
00000014,320,0,1439827856329,1439827857046,951,403,0,0,0,1,2,1,12,0001-00-0006-14.png,0002-00-0002-20.png
00000014,321,0,1439827859243,1439827860183,926,395,0,0,0,1,2,1,12,0001-00-0003-57.png,0002-00-0001-30.png
00000014,322,1,1439827862392,1439827862969,928,407,0,0,0,4,3,1,43,0004-00-0000-89.png,0003-00-0003-81.png
00000014,323,1,1439827863931,1439827864641,401,358,0,0,0,4,5,1,45,0004-00-0001-00.png,0005-00-0002-24.png
00000014,324,1,1439827865540,1439827866193,327,363,0,0,0,2,3,1,23,0002-00-0006-05.png,0003-00-0008-69.png
00000014,325,0,1439827867173,1439827868038,345,408,0,0,0,3,2,1,32,0003-00-0006-21.png,0002-00-0007-57.png
00000014,326,1,1439827870264,1439827870879,923,378,0,0,0,5,4,1,54,0005-00-0003-41.png,0004-00-0008-82.png
00000014,327,1,1439827871831,1439827872370,335,408,0,0,0,3,4,1,34,0003-00-0000-69.png,0004-00-0004-59.png
00000014,328,1,1439827873313,1439827873842,900,397,0,0,0,2,1,1,21,0002-00-0007-86.png,0001-00-0003-19.png
00000014,329,0,1439827874804,1439827875465,904,418,0,0,0,4,5,1,45,0004-00-0006-24.png,0005-00-0002-20.png
00000014,330,1,1439827877639,1439827878138,363,397,0,0,0,2,3,1,23,0002-00-0005-73.png,0003-00-0004-40.png
00000014,331,0,1439827879060,1439827879830,957,374,0,0,0,1,2,1,12,0001-00-0002-44.png,0002-00-0009-24.png
00000014,332,0,1439827881731,1439827882479,897,435,0,0,0,3,4,1,34,0003-00-0009-34.png,0004-00-0005-65.png
00000014,333,1,1439827884913,1439827885484,877,466,0,0,0,2,1,1,21,0002-00-0006-70.png,0001-00-0004-67.png
00000014,334,0,1439827886433,1439827887048,376,358,0,0,0,5,4,1,54,0005-00-0005-87.png,0004-00-0005-46.png
00000014,335,0,1439827888968,1439827888976,481,390,0,0,0,3,2,1,32,0003-00-0006-44.png,0002-00-0003-61.png
00000014,336,1,1439827892565,1439827893177,999,365,0,0,0,4,3,1,43,0004-00-0008-33.png,0003-00-0009-49.png
00000014,337,1,1439827894133,1439827894671,928,422,0,0,0,5,4,1,54,0005-00-0008-97.png,0004-00-0000-37.png
00000014,338,1,1439827895724,1439827896372,928,423,0,0,0,2,1,1,21,0002-00-0001-10.png,0001-00-0000-98.png
00000014,339,0,1439827897342,1439827897819,401,397,0,0,0,3,2,1,32,0003-00-0003-90.png,0002-00-0005-17.png
00000014,340,0,1439827899779,1439827900340,380,508,0,0,0,4,3,1,43,0004-00-0004-60.png,0003-00-0008-35.png
00000014,341,1,1439827902234,1439827902242,494,427,0,0,0,4,5,1,45,0004-00-0007-55.png,0005-00-0004-20.png
00000014,342,0,1439827903277,1439827903981,949,381,0,0,0,2,3,1,23,0002-00-0006-03.png,0003-00-0003-30.png
00000014,343,0,1439827906179,1439827906716,929,414,0,0,0,3,4,1,34,0003-00-0007-39.png,0004-00-0000-19.png
00000014,344,1,1439827908667,1439827909228,339,389,0,0,0,1,2,1,12,0001-00-0002-88.png,0002-00-0007-75.png
00000014,345,1,1439827910216,1439827910915,904,387,0,0,0,5,4,1,54,0005-00-0005-27.png,0004-00-0004-81.png
00000014,346,1,1439827911894,1439827912638,325,396,0,0,0,1,2,1,12,0001-00-0001-24.png,0002-00-0000-20.png
00000014,347,0,1439827913553,1439827914089,901,371,0,0,0,3,4,1,34,0003-00-0002-91.png,0004-00-0000-24.png
00000014,348,1,1439827916734,1439827917505,873,370,0,0,0,2,1,1,21,0002-00-0001-31.png,0001-00-0002-92.png
00000014,349,1,1439827918443,1439827919031,905,402,0,0,0,3,2,1,32,0003-00-0006-82.png,0002-00-0006-34.png
00000014,350,1,1439827919991,1439827920612,344,393,0,0,0,4,5,1,45,0004-00-0000-41.png,0005-00-0006-49.png
00000014,351,1,1439827921594,1439827922194,906,392,0,0,0,4,3,1,43,0004-00-0000-74.png,0003-00-0008-88.png
00000014,352,0,1439827923163,1439827923789,868,486,0,0,0,2,3,1,23,0002-00-0008-07.png,0003-00-0007-97.png
00000014,353,1,1439827925967,1439827926578,957,364,0,0,0,5,4,1,54,0005-00-0005-89.png,0004-00-0004-19.png
00000014,354,0,1439827927537,1439827928270,931,376,0,0,0,1,2,1,12,0001-00-0002-14.png,0002-00-0005-09.png
00000014,355,1,1439827930170,1439827930757,877,470,0,0,0,4,3,1,43,0004-00-0004-62.png,0003-00-0009-25.png
00000014,356,0,1439827932135,1439827932729,894,394,0,0,0,3,4,1,34,0003-00-0006-15.png,0004-00-0009-35.png
00000014,357,0,1439827935180,1439827935854,346,372,0,0,0,2,1,1,21,0002-00-0003-75.png,0001-00-0002-24.png
00000014,358,1,1439827939250,1439827939903,319,380,0,0,0,4,5,1,45,0004-00-0006-58.png,0005-00-0003-04.png
00000014,359,0,1439827940913,1439827941488,933,384,0,0,0,2,3,1,23,0002-00-0007-66.png,0003-00-0008-88.png
00000014,360,1,1439827943568,1439827944154,883,473,0,0,0,3,2,1,32,0003-00-0007-67.png,0002-00-0006-68.png
00000014,361,0,1439827945096,1439827945711,873,483,0,0,0,3,4,1,34,0003-00-0000-15.png,0004-00-0009-42.png
00000014,362,0,1439827947860,1439827947888,503,408,0,0,0,2,1,1,21,0002-00-0000-44.png,0001-00-0000-83.png
00000014,363,1,1439827950433,1439827950955,368,375,0,0,0,1,2,1,12,0001-00-0001-13.png,0002-00-0005-24.png
00000014,364,1,1439827951875,1439827952577,890,398,0,0,0,4,3,1,43,0004-00-0005-18.png,0003-00-0000-06.png
00000014,365,1,1439827953524,1439827954175,920,369,0,0,0,3,2,1,32,0003-00-0006-29.png,0002-00-0002-60.png
00000014,366,0,1439827955105,1439827955938,913,332,0,0,0,4,5,1,45,0004-00-0001-38.png,0005-00-0006-82.png
00000014,367,1,1439827957805,1439827958313,376,384,0,0,0,2,3,1,23,0002-00-0008-58.png,0003-00-0003-55.png
00000014,368,1,1439827959325,1439827959827,903,390,0,0,0,5,4,1,54,0005-00-0007-23.png,0004-00-0005-12.png
00000014,369,0,1439827960935,1439827961580,340,370,0,0,0,5,4,1,54,0005-00-0007-14.png,0004-00-0006-04.png
00000014,370,1,1439827963899,1439827964464,358,395,0,0,0,2,3,1,23,0002-00-0007-81.png,0003-00-0005-36.png
00000014,371,1,1439827965370,1439827965951,386,488,0,0,0,1,2,1,12,0001-00-0002-40.png,0002-00-0000-33.png
00000014,372,1,1439827966928,1439827967582,905,375,0,0,0,3,2,1,32,0003-00-0001-86.png,0002-00-0005-01.png
00000014,373,1,1439827968529,1439827969069,372,379,0,0,0,4,5,1,45,0004-00-0005-66.png,0005-00-0005-48.png
00000014,374,1,1439827969950,1439827970575,921,365,0,0,0,4,3,1,43,0004-00-0003-89.png,0003-00-0009-04.png
00000014,375,1,1439827971689,1439827972202,324,384,0,0,0,3,4,1,34,0003-00-0004-80.png,0004-00-0000-69.png
00000014,376,0,1439827973181,1439827974033,384,464,0,0,0,2,1,1,21,0002-00-0001-92.png,0001-00-0007-13.png
00000014,377,1,1439827976091,1439827976769,901,384,0,0,0,2,1,1,21,0002-00-0003-42.png,0001-00-0001-32.png
00000014,378,0,1439827977673,1439827978276,900,423,0,0,0,1,2,1,12,0001-00-0005-36.png,0002-00-0000-11.png
00000014,379,0,1439827980558,1439827981194,877,469,0,0,0,4,5,1,45,0004-00-0005-57.png,0005-00-0000-56.png
00000014,380,1,1439827983499,1439827983511,504,488,0,0,0,3,4,1,34,0003-00-0008-12.png,0004-00-0009-73.png
00000014,381,1,1439827984508,1439827985121,911,413,0,0,0,5,4,1,54,0005-00-0001-26.png,0004-00-0005-86.png
00000014,382,0,1439827986104,1439827986602,390,499,0,0,0,4,3,1,43,0004-00-0004-68.png,0003-00-0007-61.png
00000014,383,0,1439827988895,1439827989640,917,482,0,0,0,2,3,1,23,0002-00-0003-38.png,0003-00-0006-80.png
00000014,384,1,1439827991733,1439827992372,938,371,0,0,0,3,2,1,32,0003-00-0006-19.png,0002-00-0006-17.png
00000014,385,1,1439827993313,1439827993918,344,372,0,0,0,1,2,1,12,0001-00-0004-97.png,0002-00-0005-50.png
00000014,386,1,1439827994886,1439827995436,898,485,0,0,0,2,1,1,21,0002-00-0008-95.png,0001-00-0003-60.png
00000014,387,0,1439827996384,1439827997031,396,479,0,0,0,5,4,1,54,0005-00-0000-78.png,0004-00-0005-32.png
00000014,388,0,1439827998961,1439827999569,865,483,0,0,0,3,4,1,34,0003-00-0003-09.png,0004-00-0004-40.png
00000014,389,1,1439828002934,1439828003460,341,384,0,0,0,2,3,1,23,0002-00-0005-87.png,0003-00-0007-62.png
00000014,390,1,1439828004432,1439828005017,900,422,0,0,0,3,2,1,32,0003-00-0003-22.png,0002-00-0003-22.png
00000014,391,1,1439828005987,1439828006577,929,375,0,0,0,4,3,1,43,0004-00-0003-16.png,0003-00-0009-01.png
00000014,392,1,1439828007487,1439828008111,392,476,0,0,0,4,5,1,45,0004-00-0009-99.png,0005-00-0007-46.png
00000014,393,0,1439828009027,1439828009690,342,391,0,0,0,4,3,1,43,0004-00-0006-92.png,0003-00-0001-10.png
00000014,394,0,1439828011810,1439828011826,509,441,0,0,0,5,4,1,54,0005-00-0007-35.png,0004-00-0006-26.png
00000014,395,1,1439828014328,1439828015405,350,375,0,0,0,1,2,1,12,0001-00-0003-99.png,0002-00-0002-63.png
00000014,396,1,1439828016313,1439828016965,902,415,0,0,0,3,2,1,32,0003-00-0000-99.png,0002-00-0000-83.png
00000014,397,0,1439828017908,1439828018577,894,456,0,0,0,2,3,1,23,0002-00-0005-14.png,0003-00-0002-25.png
00000014,398,1,1439828020616,1439828021195,878,468,0,0,0,2,1,1,21,0002-00-0000-34.png,0001-00-0002-21.png
00000014,399,1,1439828022157,1439828022820,348,364,0,0,0,4,5,1,45,0004-00-0004-14.png,0005-00-0009-70.png
00000014,400,0,1439828023749,1439828024478,878,345,0,0,0,3,4,1,34,0003-00-0004-32.png,0004-00-0005-18.png
00000014,401,1,1439828026678,1439828027287,323,400,0,0,0,2,3,1,23,0002-00-0009-98.png,0003-00-0008-53.png
00000014,402,1,1439828028191,1439828028755,886,399,0,0,0,4,3,1,43,0004-00-0000-69.png,0003-00-0006-32.png
00000014,403,0,1439828029699,1439828030347,404,503,0,0,0,5,4,1,54,0005-00-0008-23.png,0004-00-0009-37.png
00000014,404,1,1439828032511,1439828032535,504,450,0,0,0,4,5,1,45,0004-00-0008-89.png,0005-00-0008-28.png
00000014,405,1,1439828033563,1439828034098,904,401,0,0,0,2,1,1,21,0002-00-0003-92.png,0001-00-0003-40.png
00000014,406,0,1439828035022,1439828035674,885,399,0,0,0,3,4,1,34,0003-00-0006-59.png,0004-00-0005-11.png
00000014,407,1,1439828037535,1439828037567,495,436,0,0,0,1,2,1,12,0001-00-0009-73.png,0002-00-0000-95.png
00000014,408,0,1439828038543,1439828039125,346,384,0,0,0,3,2,1,32,0003-00-0008-54.png,0002-00-0002-17.png
00000014,409,1,1439828041028,1439828041052,484,446,0,0,0,1,2,1,12,0001-00-0009-36.png,0002-00-0006-93.png
00000014,410,0,1439828042210,1439828042837,888,398,0,0,0,2,3,1,23,0002-00-0001-04.png,0003-00-0007-57.png
00000014,411,0,1439828044772,1439828044792,470,444,0,0,0,3,2,1,32,0003-00-0007-14.png,0002-00-0004-55.png
00000014,412,1,1439828047027,1439828047584,925,487,0,0,0,5,4,1,54,0005-00-0000-85.png,0004-00-0004-69.png
00000014,413,0,1439828048511,1439828049143,401,358,0,0,0,4,3,1,43,0004-00-0001-15.png,0003-00-0008-26.png
00000014,414,1,1439828051066,1439828051074,492,419,0,0,0,4,5,1,45,0004-00-0002-41.png,0005-00-0006-12.png
00000014,415,0,1439828052048,1439828052662,362,393,0,0,0,2,1,1,21,0002-00-0002-65.png,0001-00-0003-61.png
00000014,416,0,1439828055229,1439828055918,892,457,0,0,0,3,4,1,34,0003-00-0009-68.png,0004-00-0007-19.png
00000014,417,1,1439828058490,1439828059173,940,423,0,0,0,2,1,1,21,0002-00-0005-73.png,0001-00-0001-16.png
00000014,418,0,1439828060049,1439828060624,950,387,0,0,0,2,3,1,23,0002-00-0003-98.png,0003-00-0001-26.png
00000014,419,1,1439828062492,1439828063269,953,357,0,0,0,5,4,1,54,0005-00-0005-78.png,0004-00-0005-75.png
00000014,420,1,1439828064215,1439828064235,504,410,0,0,0,4,5,1,45,0004-00-0007-65.png,0005-00-0009-99.png
00000014,421,1,1439828065444,1439828066060,875,397,0,0,0,4,3,1,43,0004-00-0003-23.png,0003-00-0008-86.png
00000014,422,0,1439828067047,1439828067658,888,425,0,0,0,3,4,1,34,0003-00-0003-81.png,0004-00-0000-32.png
00000014,423,1,1439828069619,1439828070179,324,397,0,0,0,1,2,1,12,0001-00-0001-27.png,0002-00-0002-60.png
00000014,424,1,1439828071111,1439828071633,926,398,0,0,0,3,2,1,32,0003-00-0009-52.png,0002-00-0005-48.png
00000014,425,1,1439828072607,1439828073272,379,386,0,0,0,1,2,1,12,0001-00-0001-70.png,0002-00-0001-60.png
00000014,426,1,1439828074300,1439828074854,359,375,0,0,0,2,3,1,23,0002-00-0004-66.png,0003-00-0008-32.png
00000014,427,0,1439828075864,1439828077091,422,492,0,0,0,4,3,1,43,0004-00-0009-31.png,0003-00-0009-33.png
00000014,428,0,1439828079048,1439828079060,453,398,0,0,0,2,1,1,21,0002-00-0003-49.png,0001-00-0004-31.png
00000014,429,1,1439828081436,1439828082016,863,501,0,0,0,3,2,1,32,0003-00-0004-24.png,0002-00-0005-39.png
00000014,430,1,1439828082953,1439828083644,398,401,0,0,0,4,5,1,45,0004-00-0002-43.png,0005-00-0001-11.png
00000014,431,1,1439828084546,1439828085129,902,407,0,0,0,5,4,1,54,0005-00-0001-41.png,0004-00-0007-93.png
00000014,432,1,1439828086074,1439828086711,401,488,0,0,0,3,4,1,34,0003-00-0001-42.png,0004-00-0007-82.png
00000014,433,1,1439828087785,1439828088330,875,398,0,0,0,2,1,1,21,0002-00-0002-71.png,0001-00-0003-15.png
00000014,434,0,1439828089316,1439828089888,897,405,0,0,0,4,5,1,45,0004-00-0001-05.png,0005-00-0006-30.png
00000014,435,0,1439828092347,1439828093033,926,425,0,0,0,1,2,1,12,0001-00-0005-25.png,0002-00-0002-90.png
00000014,436,0,1439828113032,1439828113616,901,450,0,0,0,2,3,1,23,0002-00-0008-34.png,0003-00-0005-19.png
00000014,437,1,1439828115465,1439828115961,363,384,0,0,0,3,4,1,34,0003-00-0006-28.png,0004-00-0003-55.png
00000014,438,0,1439828116978,1439828116994,504,462,0,0,0,4,3,1,43,0004-00-0008-75.png,0003-00-0009-93.png
00000014,439,0,1439828118956,1439828118965,489,375,0,0,0,3,2,1,32,0003-00-0009-62.png,0002-00-0008-87.png
00000014,440,0,1439828121590,1439828122321,443,349,0,0,0,5,4,1,54,0005-00-0002-43.png,0004-00-0007-21.png
00000014,441,0,1439828124820,1439828125583,957,375,0,0,0,3,4,1,34,0003-00-0005-57.png,0004-00-0003-24.png
00000014,442,0,1439828127465,1439828127469,495,424,0,0,0,5,4,1,54,0005-00-0007-72.png,0004-00-0009-97.png
00000014,443,0,1439828129701,1439828130259,878,443,0,0,0,4,5,1,45,0004-00-0004-59.png,0005-00-0004-09.png
00000014,444,0,1439828132564,1439828133128,382,498,0,0,0,2,1,1,21,0002-00-0006-47.png,0001-00-0007-27.png
00000014,445,1,1439828135312,1439828135328,463,366,0,0,0,1,2,1,12,0001-00-0002-28.png,0002-00-0008-41.png
00000014,446,1,1439828136310,1439828137044,925,483,0,0,0,3,2,1,32,0003-00-0008-40.png,0002-00-0007-26.png
00000014,447,1,1439828137958,1439828138708,336,359,0,0,0,2,3,1,23,0002-00-0008-23.png,0003-00-0005-33.png
00000014,448,1,1439828139698,1439828140243,916,465,0,0,0,4,3,1,43,0004-00-0004-74.png,0003-00-0004-19.png
00000014,449,1,1439828141144,1439828141723,952,384,0,0,0,5,4,1,54,0005-00-0000-66.png,0004-00-0000-87.png
00000014,450,0,1439828142669,1439828143242,915,413,0,0,0,4,5,1,45,0004-00-0005-29.png,0005-00-0006-17.png
00000014,451,1,1439828145225,1439828145248,491,410,0,0,0,1,2,1,12,0001-00-0004-22.png,0002-00-0005-98.png
00000014,452,0,1439828146203,1439828146822,412,475,0,0,0,2,1,1,21,0002-00-0001-48.png,0001-00-0001-75.png
00000014,453,1,1439828148690,1439828148710,454,381,0,0,0,2,3,1,23,0002-00-0008-02.png,0003-00-0005-27.png
00000014,454,0,1439828149664,1439828150191,930,401,0,0,0,3,4,1,34,0003-00-0004-74.png,0004-00-0005-52.png
00000014,455,0,1439828152059,1439828152161,427,530,0,0,0,4,3,1,43,0004-00-0009-88.png,0003-00-0001-06.png
00000014,456,1,1439828153989,1439828154833,926,494,0,0,0,3,2,1,32,0003-00-0008-86.png,0002-00-0002-91.png
00000014,457,0,1439828155736,1439828156287,928,413,0,0,0,1,2,1,12,0001-00-0009-55.png,0002-00-0009-20.png
00000014,458,1,1439828158480,1439828159113,355,383,0,0,0,4,5,1,45,0004-00-0001-48.png,0005-00-0004-52.png
00000014,459,1,1439828160060,1439828160767,924,360,0,0,0,3,2,1,32,0003-00-0009-47.png,0002-00-0006-86.png
00000014,460,0,1439828161718,1439828162234,950,384,0,0,0,2,3,1,23,0002-00-0008-02.png,0003-00-0004-80.png
00000014,461,1,1439828164682,1439828165243,876,502,0,0,0,2,1,1,21,0002-00-0007-43.png,0001-00-0009-98.png
00000014,462,0,1439828166260,1439828167010,940,371,0,0,0,3,4,1,34,0003-00-0000-53.png,0004-00-0003-03.png
00000014,463,1,1439828185627,1439828186180,947,365,0,0,0,4,3,1,43,0004-00-0002-65.png,0003-00-0004-65.png
00000014,464,0,1439828187452,1439828188018,337,390,0,0,0,5,4,1,54,0005-00-0006-42.png,0004-00-0002-47.png
00000014,465,0,1439828190195,1439828190231,504,435,0,0,0,4,3,1,43,0004-00-0002-91.png,0003-00-0000-88.png
00000014,466,1,1439828192192,1439828192228,473,479,0,0,0,4,5,1,45,0004-00-0008-49.png,0005-00-0000-04.png
00000014,467,1,1439828193166,1439828193742,914,438,0,0,0,2,1,1,21,0002-00-0005-25.png,0001-00-0003-44.png
00000014,468,0,1439828194659,1439828194683,473,429,0,0,0,5,4,1,54,0005-00-0003-11.png,0004-00-0008-34.png
00000014,469,0,1439828197143,1439828197760,903,391,0,0,0,1,2,1,12,0001-00-0006-99.png,0002-00-0005-23.png
00000014,470,1,1439828199725,1439828199741,488,341,0,0,0,3,4,1,34,0003-00-0003-07.png,0004-00-0000-07.png
00000014,471,0,1439828200730,1439828200742,504,454,0,0,0,3,2,1,32,0003-00-0008-63.png,0002-00-0004-70.png
00000014,472,1,1439828202735,1439828202755,511,410,0,0,0,2,3,1,23,0002-00-0005-87.png,0003-00-0006-87.png
00000014,473,0,1439828203727,1439828204405,362,399,0,0,0,5,4,1,54,0005-00-0003-24.png,0004-00-0000-57.png
00000014,474,1,1439828211741,1439828212469,350,453,0,0,0,4,5,1,45,0004-00-0007-04.png,0005-00-0004-78.png
00000014,475,0,1439828213408,1439828214093,400,548,0,0,0,4,3,1,43,0004-00-0004-57.png,0003-00-0008-96.png
00000014,476,1,1439828217494,1439828218069,317,401,0,0,0,1,2,1,12,0001-00-0000-14.png,0002-00-0008-84.png
00000014,477,1,1439828219017,1439828219029,504,449,0,0,0,2,3,1,23,0002-00-0005-24.png,0003-00-0001-61.png
00000014,478,0,1439828220072,1439828220613,950,406,0,0,0,3,4,1,34,0003-00-0004-03.png,0004-00-0001-56.png
00000014,479,0,1439828222642,1439828222654,515,396,0,0,0,2,1,1,21,0002-00-0005-04.png,0001-00-0001-81.png
00000014,480,0,1439828237304,1439828237876,358,342,0,0,0,3,2,1,32,0003-00-0009-96.png,0002-00-0003-31.png
00000014,481,1,1439828240492,1439828240556,519,485,0,0,0,3,4,1,34,0003-00-0008-40.png,0004-00-0001-75.png
00000014,482,0,1439828241641,1439828242245,340,400,0,0,0,3,2,1,32,0003-00-0001-55.png,0002-00-0003-97.png
00000014,483,0,1439828245299,1439828245335,518,439,0,0,0,2,1,1,21,0002-00-0009-84.png,0001-00-0001-21.png
00000014,484,1,1439828247546,1439828248316,370,487,0,0,0,2,3,1,23,0002-00-0006-16.png,0003-00-0009-38.png
00000014,485,1,1439828249257,1439828249840,386,475,0,0,0,4,5,1,45,0004-00-0001-52.png,0005-00-0001-12.png
00000014,486,1,1439828250836,1439828251449,344,373,0,0,0,1,2,1,12,0001-00-0003-11.png,0002-00-0002-68.png
00000014,487,0,1439828252400,1439828252404,478,448,0,0,0,5,4,1,54,0005-00-0005-36.png,0004-00-0000-00.png
00000014,488,0,1439828254262,1439828254278,475,464,0,0,0,4,3,1,43,0004-00-0006-02.png,0003-00-0000-03.png
00000014,489,1,1439828256366,1439828257013,862,384,0,0,0,3,2,1,32,0003-00-0008-88.png,0002-00-0000-62.png
00000014,490,1,1439828257862,1439828258531,356,397,0,0,0,2,3,1,23,0002-00-0002-75.png,0003-00-0002-24.png
00000014,491,0,1439828259435,1439828259459,476,467,0,0,0,2,1,1,21,0002-00-0000-62.png,0001-00-0006-91.png
00000014,492,1,1439828261480,1439828261504,511,420,0,0,0,1,2,1,12,0001-00-0002-14.png,0002-00-0009-98.png
00000014,493,1,1439828262384,1439828262949,909,420,0,0,0,5,4,1,54,0005-00-0006-59.png,0004-00-0008-07.png
00000014,494,0,1439828263915,1439828264547,875,493,0,0,0,3,4,1,34,0003-00-0000-35.png,0004-00-0005-18.png
00000014,495,0,1439828267742,1439828268887,877,543,0,0,0,4,5,1,45,0004-00-0008-69.png,0005-00-0008-97.png
00000014,496,1,1439828271097,1439828271679,924,456,0,0,0,4,3,1,43,0004-00-0003-39.png,0003-00-0003-38.png
00000014,497,1,1439828272569,1439828273133,375,404,0,0,0,4,5,1,45,0004-00-0009-40.png,0005-00-0004-33.png
00000014,498,0,1439828274019,1439828274567,921,395,0,0,0,3,4,1,34,0003-00-0001-09.png,0004-00-0001-87.png
00000014,499,1,1439828276605,1439828276613,453,428,0,0,0,1,2,1,12,0001-00-0000-30.png,0002-00-0000-53.png
00000014,500,1,1439828277514,1439828278068,924,430,0,0,0,3,2,1,32,0003-00-0004-52.png,0002-00-0002-90.png
00000014,501,1,1439828278990,1439828279662,919,377,0,0,0,4,3,1,43,0004-00-0008-22.png,0003-00-0003-66.png
00000014,502,1,1439828280511,1439828281130,877,416,0,0,0,5,4,1,54,0005-00-0003-14.png,0004-00-0003-42.png
00000014,503,1,1439828282017,1439828283016,379,484,0,0,0,2,3,1,23,0002-00-0009-12.png,0003-00-0002-84.png
00000014,504,0,1439828283960,1439828284612,339,378,0,0,0,2,1,1,21,0002-00-0000-42.png,0001-00-0008-34.png
00000014,505,0,1439828287344,1439828287869,899,464,0,0,0,4,5,1,45,0004-00-0001-69.png,0005-00-0007-16.png
00000014,506,1,1439828290061,1439828290707,370,369,0,0,0,3,4,1,34,0003-00-0008-73.png,0004-00-0008-64.png
00000014,507,1,1439828291621,1439828292273,895,402,0,0,0,4,3,1,43,0004-00-0003-05.png,0003-00-0009-26.png
00000014,508,1,1439828293221,1439828293870,874,385,0,0,0,5,4,1,54,0005-00-0006-63.png,0004-00-0006-59.png
00000014,509,0,1439828294779,1439828295482,857,488,0,0,0,1,2,1,12,0001-00-0004-18.png,0002-00-0003-06.png
00000014,510,0,1439828297321,1439828297365,502,433,0,0,0,2,1,1,21,0002-00-0002-49.png,0001-00-0003-86.png
00000014,511,0,1439828299303,1439828299326,488,458,0,0,0,3,2,1,32,0003-00-0003-84.png,0002-00-0006-39.png
00000014,512,0,1439828301586,1439828302271,867,486,0,0,0,2,3,1,23,0002-00-0008-36.png,0003-00-0001-71.png
00000014,513,1,1439828305567,1439828306213,893,362,0,0,0,4,3,1,43,0004-00-0009-79.png,0003-00-0006-73.png
00000014,514,0,1439828307193,1439828307830,399,359,0,0,0,5,4,1,54,0005-00-0001-04.png,0004-00-0005-69.png
00000014,515,1,1439828309887,1439828309911,504,457,0,0,0,4,5,1,45,0004-00-0008-14.png,0005-00-0005-96.png
00000014,516,1,1439828310817,1439828311482,875,416,0,0,0,3,2,1,32,0003-00-0003-50.png,0002-00-0009-43.png
00000014,517,1,1439828312360,1439828312934,912,424,0,0,0,2,1,1,21,0002-00-0005-12.png,0001-00-0004-43.png
00000014,518,0,1439828313888,1439828314432,874,387,0,0,0,1,2,1,12,0001-00-0009-05.png,0002-00-0006-57.png
00000014,519,1,1439828316820,1439828317331,398,409,0,0,0,2,3,1,23,0002-00-0004-94.png,0003-00-0002-23.png
00000014,520,1,1439828318234,1439828318250,453,473,0,0,0,3,4,1,34,0003-00-0004-63.png,0004-00-0004-25.png
00000014,521,1,1439828319324,1439828319794,895,394,0,0,0,4,3,1,43,0004-00-0000-57.png,0003-00-0009-73.png
00000014,522,0,1439828320708,1439828321273,877,416,0,0,0,3,4,1,34,0003-00-0005-29.png,0004-00-0009-33.png
00000014,523,1,1439828323418,1439828324655,897,510,0,0,0,3,2,1,32,0003-00-0004-76.png,0002-00-0001-97.png
00000014,524,1,1439828325518,1439828325538,453,424,0,0,0,2,3,1,23,0002-00-0004-05.png,0003-00-0001-03.png
00000014,525,1,1439828326600,1439828327114,894,399,0,0,0,2,1,1,21,0002-00-0006-76.png,0001-00-0004-15.png
00000014,526,1,1439828328051,1439828328633,357,370,0,0,0,1,2,1,12,0001-00-0004-01.png,0002-00-0000-05.png
00000014,527,1,1439828329673,1439828330675,414,463,0,0,0,4,5,1,45,0004-00-0003-13.png,0005-00-0009-12.png
00000014,528,1,1439828331722,1439828332256,926,411,0,0,0,5,4,1,54,0005-00-0001-59.png,0004-00-0008-97.png
00000014,529,1,1439828333231,1439828333794,926,384,0,0,0,4,3,1,43,0004-00-0002-33.png,0003-00-0005-05.png
00000014,530,1,1439828334710,1439828334753,504,488,0,0,0,1,2,1,12,0001-00-0002-93.png,0002-00-0005-85.png
00000014,531,1,1439828335791,1439828336335,889,423,0,0,0,3,2,1,32,0003-00-0007-17.png,0002-00-0001-70.png
00000014,532,1,1439828337403,1439828338013,361,375,0,0,0,4,5,1,45,0004-00-0009-47.png,0005-00-0001-94.png
00000014,533,1,1439828338959,1439828339573,388,513,0,0,0,3,4,1,34,0003-00-0001-87.png,0004-00-0009-55.png
00000014,534,0,1439828340520,1439828341092,881,419,0,0,0,2,3,1,23,0002-00-0002-54.png,0003-00-0007-54.png
00000014,535,1,1439828344347,1439828344924,868,472,0,0,0,5,4,1,54,0005-00-0005-90.png,0004-00-0007-31.png
00000014,536,1,1439828345892,1439828346436,859,451,0,0,0,2,1,1,21,0002-00-0003-46.png,0001-00-0007-16.png
00000014,537,1,1439828347409,1439828347952,879,454,0,0,0,3,2,1,32,0003-00-0000-95.png,0002-00-0002-30.png
00000014,538,0,1439828348890,1439828348958,449,502,0,0,0,4,3,1,43,0004-00-0000-55.png,0003-00-0005-03.png
00000014,539,1,1439828353244,1439828353757,376,384,0,0,0,2,3,1,23,0002-00-0009-20.png,0003-00-0003-37.png
00000014,540,0,1439828354705,1439828355248,344,420,0,0,0,2,1,1,21,0002-00-0006-91.png,0001-00-0003-71.png
00000014,541,0,1439828357428,1439828358141,317,390,0,0,0,5,4,1,54,0005-00-0003-15.png,0004-00-0002-11.png
00000014,542,1,1439828360398,1439828360418,489,436,0,0,0,4,5,1,45,0004-00-0001-78.png,0005-00-0009-33.png
00000014,543,1,1439828361373,1439828361393,516,436,0,0,0,1,2,1,12,0001-00-0004-79.png,0002-00-0003-69.png
00000014,544,0,1439828362347,1439828362825,869,342,0,0,0,3,4,1,34,0003-00-0009-20.png,0004-00-0001-31.png
00000014,545,1,1439828364859,1439828365465,913,371,0,0,0,4,3,1,43,0004-00-0001-89.png,0003-00-0001-71.png
00000014,546,1,1439828366373,1439828366917,390,407,0,0,0,2,3,1,23,0002-00-0000-05.png,0003-00-0000-84.png
00000014,547,0,1439828367898,1439828368433,927,384,0,0,0,1,2,1,12,0001-00-0000-84.png,0002-00-0004-72.png
00000014,548,1,1439828370476,1439828371263,954,337,0,0,0,2,1,1,21,0002-00-0001-74.png,0001-00-0004-49.png
00000014,549,1,1439828372176,1439828372722,875,410,0,0,0,5,4,1,54,0005-00-0001-45.png,0004-00-0000-89.png
00000014,550,0,1439828373635,1439828374189,910,399,0,0,0,3,4,1,34,0003-00-0002-73.png,0004-00-0006-48.png
00000014,551,0,1439828376254,1439828376962,927,381,0,0,0,4,5,1,45,0004-00-0000-56.png,0005-00-0005-00.png
00000014,552,0,1439828379039,1439828379059,511,419,0,0,0,3,2,1,32,0003-00-0007-56.png,0002-00-0003-51.png
00000014,553,1,1439828381127,1439828381793,901,449,0,0,0,2,1,1,21,0002-00-0006-55.png,0001-00-0003-67.png
00000014,554,0,1439828382700,1439828382717,507,481,0,0,0,3,2,1,32,0003-00-0006-41.png,0002-00-0003-30.png
00000014,555,1,1439828384690,1439828384722,474,480,0,0,0,3,4,1,34,0003-00-0005-49.png,0004-00-0002-70.png
00000014,556,0,1439828385671,1439828386159,904,401,0,0,0,2,3,1,23,0002-00-0002-17.png,0003-00-0004-87.png
00000014,557,0,1439828388112,1439828388132,504,384,0,0,0,5,4,1,54,0005-00-0006-45.png,0004-00-0001-01.png
00000014,558,0,1439828390520,1439828391038,927,398,0,0,0,1,2,1,12,0001-00-0005-44.png,0002-00-0008-64.png
00000014,559,0,1439828392993,1439828393001,463,417,0,0,0,4,3,1,43,0004-00-0005-43.png,0003-00-0000-72.png
00000014,560,0,1439828395563,1439828396141,925,386,0,0,0,4,5,1,45,0004-00-0000-30.png,0005-00-0005-30.png
00000014,561,0,1439828398720,1439828399353,887,450,0,0,0,1,2,1,12,0001-00-0009-37.png,0002-00-0007-03.png
00000014,562,0,1439828401425,1439828401433,463,400,0,0,0,3,2,1,32,0003-00-0002-12.png,0002-00-0006-77.png
00000014,563,1,1439828403508,1439828404218,953,362,0,0,0,4,3,1,43,0004-00-0002-04.png,0003-00-0004-12.png
00000014,564,1,1439828405120,1439828406016,401,332,0,0,0,4,5,1,45,0004-00-0008-60.png,0005-00-0008-10.png
00000014,565,1,1439828406958,1439828407591,401,386,0,0,0,2,3,1,23,0002-00-0005-78.png,0003-00-0002-27.png
00000014,566,0,1439828408416,1439828408436,503,464,0,0,0,2,1,1,21,0002-00-0005-69.png,0001-00-0009-04.png
00000014,567,0,1439828410594,1439828410622,494,488,0,0,0,5,4,1,54,0005-00-0004-87.png,0004-00-0004-21.png
00000014,568,1,1439828412608,1439828413169,320,351,0,0,0,3,4,1,34,0003-00-0007-26.png,0004-00-0004-76.png
00000014,569,1,1439828414133,1439828414647,897,404,0,0,0,3,2,1,32,0003-00-0008-97.png,0002-00-0001-64.png
00000014,570,1,1439828415624,1439828416162,876,408,0,0,0,5,4,1,54,0005-00-0002-23.png,0004-00-0007-33.png
00000014,571,1,1439828417104,1439828417658,904,401,0,0,0,4,3,1,43,0004-00-0009-01.png,0003-00-0005-60.png
00000014,572,1,1439828418606,1439828419237,343,400,0,0,0,1,2,1,12,0001-00-0004-81.png,0002-00-0000-39.png
00000014,573,0,1439828420234,1439828420802,874,386,0,0,0,3,4,1,34,0003-00-0000-94.png,0004-00-0007-90.png
00000014,574,1,1439828422648,1439828423531,350,345,0,0,0,2,3,1,23,0002-00-0004-93.png,0003-00-0005-16.png
00000014,575,1,1439828424457,1439828425032,912,398,0,0,0,2,1,1,21,0002-00-0006-32.png,0001-00-0005-82.png
00000014,576,0,1439828425959,1439828426561,899,403,0,0,0,4,5,1,45,0004-00-0009-76.png,0005-00-0009-82.png
00000014,577,1,1439828428674,1439828429258,414,411,0,0,0,2,3,1,23,0002-00-0004-88.png,0003-00-0002-67.png
00000014,578,0,1439828430190,1439828430711,872,410,0,0,0,3,4,1,34,0003-00-0000-54.png,0004-00-0002-08.png
00000014,579,0,1439828435211,1439828435827,901,398,0,0,0,4,5,1,45,0004-00-0004-24.png,0005-00-0005-72.png
00000014,580,0,1439828437804,1439828437808,478,350,0,0,0,2,1,1,21,0002-00-0008-45.png,0001-00-0009-71.png
00000014,581,1,1439828440273,1439828440744,358,402,0,0,0,1,2,1,12,0001-00-0009-93.png,0002-00-0006-97.png
00000014,582,1,1439828441657,1439828442196,876,520,0,0,0,5,4,1,54,0005-00-0000-04.png,0004-00-0008-65.png
00000014,583,1,1439828443139,1439828443691,898,459,0,0,0,3,2,1,32,0003-00-0006-48.png,0002-00-0002-12.png
00000014,584,1,1439828444617,1439828445165,916,373,0,0,0,4,3,1,43,0004-00-0004-88.png,0003-00-0006-83.png
00000014,585,1,1439828446160,1439828446705,900,397,0,0,0,3,2,1,32,0003-00-0008-06.png,0002-00-0009-91.png
00000014,586,1,1439828447652,1439828448189,860,483,0,0,0,2,1,1,21,0002-00-0002-45.png,0001-00-0001-59.png
00000014,587,1,1439828449179,1439828449757,337,374,0,0,0,4,5,1,45,0004-00-0007-43.png,0005-00-0004-88.png
00000014,588,1,1439828450743,1439828451243,376,358,0,0,0,1,2,1,12,0001-00-0009-87.png,0002-00-0006-45.png
00000014,589,0,1439828452262,1439828452915,879,375,0,0,0,2,3,1,23,0002-00-0000-69.png,0003-00-0003-36.png
00000014,590,1,1439828455272,1439828455825,398,391,0,0,0,3,4,1,34,0003-00-0002-63.png,0004-00-0004-04.png
00000014,591,1,1439828456755,1439828457336,926,398,0,0,0,5,4,1,54,0005-00-0006-60.png,0004-00-0007-87.png
00000014,592,1,1439828458271,1439828458850,913,398,0,0,0,4,3,1,43,0004-00-0002-71.png,0003-00-0006-39.png
00000014,593,1,1439828459851,1439828460565,382,466,0,0,0,3,4,1,34,0003-00-0004-39.png,0004-00-0001-35.png
00000014,594,1,1439828461531,1439828461627,501,535,0,0,0,4,5,1,45,0004-00-0004-18.png,0005-00-0004-43.png
00000014,595,0,1439828462706,1439828463255,914,411,0,0,0,2,3,1,23,0002-00-0007-60.png,0003-00-0003-89.png
00000014,596,0,1439828465380,1439828465424,481,453,0,0,0,2,1,1,21,0002-00-0003-40.png,0001-00-0006-66.png
00000014,597,1,1439828467581,1439828468226,326,367,0,0,0,1,2,1,12,0001-00-0007-85.png,0002-00-0006-99.png
00000014,598,1,1439828469195,1439828469738,875,411,0,0,0,3,2,1,32,0003-00-0002-16.png,0002-00-0003-45.png
00000014,599,1,1439828470747,1439828471257,888,396,0,0,0,4,3,1,43,0004-00-0002-94.png,0003-00-0009-71.png
00000014,600,1,1439828472194,1439828472761,874,411,0,0,0,5,4,1,54,0005-00-0005-32.png,0004-00-0000-74.png
00000014,601,0,1439828473727,1439828474308,861,399,0,0,0,2,3,1,23,0002-00-0008-37.png,0003-00-0006-38.png
00000014,602,1,1439828476510,1439828477144,325,358,0,0,0,3,4,1,34,0003-00-0000-14.png,0004-00-0008-87.png
00000014,603,1,1439828478129,1439828478651,332,379,0,0,0,1,2,1,12,0001-00-0001-92.png,0002-00-0008-01.png
00000014,604,1,1439828479640,1439828480241,879,401,0,0,0,5,4,1,54,0005-00-0006-04.png,0004-00-0005-98.png
00000014,605,0,1439828481176,1439828481757,345,401,0,0,0,3,2,1,32,0003-00-0008-28.png,0002-00-0003-37.png
00000014,606,1,1439828483694,1439828484228,912,372,0,0,0,2,1,1,21,0002-00-0009-70.png,0001-00-0001-27.png
00000014,607,0,1439828485101,1439828485662,880,402,0,0,0,4,5,1,45,0004-00-0005-88.png,0005-00-0007-64.png
00000014,608,0,1439828487561,1439828487577,461,430,0,0,0,4,3,1,43,0004-00-0003-18.png,0003-00-0003-21.png
00000014,609,1,1439828489598,1439828490133,923,406,0,0,0,5,4,1,54,0005-00-0004-88.png,0004-00-0000-69.png
00000014,610,1,1439828491015,1439828491513,908,422,0,0,0,2,1,1,21,0002-00-0002-39.png,0001-00-0007-24.png
00000014,611,1,1439828492448,1439828492468,488,436,0,0,0,1,2,1,12,0001-00-0002-84.png,0002-00-0006-96.png
00000014,612,0,1439828493558,1439828494043,860,535,0,0,0,2,3,1,23,0002-00-0005-68.png,0003-00-0002-48.png
00000014,613,1,1439828495965,1439828496462,324,377,0,0,0,4,5,1,45,0004-00-0006-93.png,0005-00-0008-63.png
00000014,614,1,1439828497398,1439828498031,876,469,0,0,0,4,3,1,43,0004-00-0007-54.png,0003-00-0008-65.png
00000014,615,1,1439828498906,1439828499905,926,409,0,0,0,3,2,1,32,0003-00-0002-29.png,0002-00-0004-32.png
00000014,616,0,1439828500837,1439828501346,913,410,0,0,0,3,4,1,34,0003-00-0003-87.png,0004-00-0001-87.png
00000014,617,0,1439828503321,1439828503349,514,458,0,0,0,2,1,1,21,0002-00-0009-80.png,0001-00-0008-61.png
00000014,618,1,1439828505493,1439828506040,889,475,0,0,0,4,3,1,43,0004-00-0009-81.png,0003-00-0008-07.png
00000014,619,0,1439828506936,1439828507469,876,398,0,0,0,1,2,1,12,0001-00-0007-02.png,0002-00-0006-58.png
00000014,620,1,1439828509352,1439828509392,459,446,0,0,0,3,4,1,34,0003-00-0007-77.png,0004-00-0000-02.png
00000014,621,0,1439828510358,1439828511168,936,374,0,0,0,2,3,1,23,0002-00-0003-74.png,0003-00-0008-39.png
00000014,622,0,1439828513217,1439828513225,472,413,0,0,0,5,4,1,54,0005-00-0005-63.png,0004-00-0007-78.png
00000014,623,0,1439828515700,1439828515716,478,436,0,0,0,3,2,1,32,0003-00-0009-61.png,0002-00-0001-76.png
00000014,624,1,1439828518224,1439828518847,310,367,0,0,0,4,5,1,45,0004-00-0003-30.png,0005-00-0008-30.png
00000014,625,1,1439828519728,1439828520270,388,485,0,0,0,3,4,1,34,0003-00-0004-47.png,0004-00-0001-02.png
00000014,626,0,1439828521271,1439828521823,874,462,0,0,0,2,3,1,23,0002-00-0004-52.png,0003-00-0009-67.png
00000014,627,0,1439828524038,1439828524763,953,339,0,0,0,4,5,1,45,0004-00-0009-15.png,0005-00-0005-62.png
00000014,628,0,1439828527789,1439828528314,388,500,0,0,0,4,3,1,43,0004-00-0007-13.png,0003-00-0006-00.png
00000014,629,0,1439828530415,1439828531091,874,475,0,0,0,1,2,1,12,0001-00-0007-51.png,0002-00-0007-29.png
00000014,630,0,1439828532975,1439828532997,519,394,0,0,0,5,4,1,54,0005-00-0007-88.png,0004-00-0005-27.png
00000014,631,0,1439828535142,1439828535696,222,436,0,0,0,2,1,1,21,0002-00-0003-79.png,0001-00-0004-93.png
00000014,632,0,1439828537596,1439828537616,504,396,0,0,0,3,2,1,32,0003-00-0003-49.png,0002-00-0000-63.png
00000014,633,1,1439828539456,1439828540089,953,390,0,0,0,2,1,1,21,0002-00-0009-87.png,0001-00-0002-74.png
00000014,634,1,1439828541028,1439828541628,873,465,0,0,0,4,3,1,43,0004-00-0009-67.png,0003-00-0007-77.png
00000014,635,0,1439828542586,1439828543207,925,366,0,0,0,2,3,1,23,0002-00-0002-51.png,0003-00-0007-81.png
00000014,636,0,1439828546471,1439828547063,892,456,0,0,0,3,4,1,34,0003-00-0002-74.png,0004-00-0008-64.png
00000014,637,0,1439828549216,1439828549927,367,390,0,0,0,3,2,1,32,0003-00-0007-34.png,0002-00-0001-94.png
00000014,638,1,1439828551766,1439828552844,490,410,0,0,0,1,2,1,12,0001-00-0005-83.png,0002-00-0004-25.png
00000014,639,1,1439828553738,1439828554538,356,355,0,0,0,4,5,1,45,0004-00-0006-91.png,0005-00-0002-95.png
00000014,640,1,1439828555496,1439828556022,895,394,0,0,0,5,4,1,54,0005-00-0003-35.png,0004-00-0002-45.png
00000014,641,0,1439828556893,1439828557500,380,400,0,0,0,5,4,1,54,0005-00-0000-78.png,0004-00-0001-23.png
00000014,642,1,1439828559480,1439828560526,926,385,0,0,0,2,1,1,21,0002-00-0001-37.png,0001-00-0006-63.png
00000014,643,1,1439828561366,1439828561935,880,401,0,0,0,3,2,1,32,0003-00-0001-27.png,0002-00-0006-26.png
00000014,644,0,1439828562890,1439828563418,898,412,0,0,0,2,3,1,23,0002-00-0006-92.png,0003-00-0000-06.png
00000014,645,1,1439828565345,1439828565361,469,406,0,0,0,3,4,1,34,0003-00-0005-60.png,0004-00-0001-92.png
00000014,646,1,1439828566259,1439828566795,901,410,0,0,0,4,3,1,43,0004-00-0006-05.png,0003-00-0000-18.png
00000014,647,0,1439828567732,1439828568289,902,389,0,0,0,4,5,1,45,0004-00-0000-90.png,0005-00-0006-88.png
00000014,648,1,1439828570414,1439828570434,514,457,0,0,0,1,2,1,12,0001-00-0001-30.png,0002-00-0006-04.png
00000014,649,1,1439828571426,1439828571931,312,390,0,0,0,1,2,1,12,0001-00-0006-80.png,0002-00-0008-37.png
00000014,650,0,1439828572877,1439828573410,898,407,0,0,0,4,5,1,45,0004-00-0006-26.png,0005-00-0004-55.png
00000014,651,0,1439828575418,1439828575446,463,443,0,0,0,2,1,1,21,0002-00-0000-41.png,0001-00-0006-56.png
00000014,652,1,1439828577399,1439828577969,881,350,0,0,0,4,3,1,43,0004-00-0004-92.png,0003-00-0004-16.png
00000014,653,0,1439828578870,1439828579399,875,409,0,0,0,2,3,1,23,0002-00-0001-06.png,0003-00-0001-76.png
00000014,654,1,1439828581391,1439828581411,498,445,0,0,0,3,4,1,34,0003-00-0008-41.png,0004-00-0002-63.png
00000014,655,1,1439828582408,1439828584023,924,384,0,0,0,5,4,1,54,0005-00-0000-78.png,0004-00-0001-57.png
00000014,656,0,1439828585357,1439828585385,478,500,0,0,0,3,2,1,32,0003-00-0002-54.png,0002-00-0002-00.png
00000014,657,0,1439828587446,1439828587462,505,426,0,0,0,2,1,1,21,0002-00-0005-24.png,0001-00-0001-74.png
00000014,658,0,1439828589641,1439828590256,324,371,0,0,0,3,2,1,32,0003-00-0003-05.png,0002-00-0007-53.png
00000014,659,1,1439828592630,1439828593161,350,373,0,0,0,1,2,1,12,0001-00-0009-82.png,0002-00-0005-72.png
00000014,660,1,1439828594115,1439828594748,927,389,0,0,0,4,3,1,43,0004-00-0006-77.png,0003-00-0007-45.png
00000014,661,0,1439828595652,1439828595712,504,475,0,0,0,5,4,1,54,0005-00-0002-76.png,0004-00-0009-08.png
00000014,662,1,1439828597568,1439828598240,332,350,0,0,0,3,4,1,34,0003-00-0006-74.png,0004-00-0004-17.png
00000014,663,1,1439828599228,1439828599244,504,489,0,0,0,2,3,1,23,0002-00-0005-78.png,0003-00-0001-90.png
00000014,664,1,1439828600302,1439828600897,345,400,0,0,0,4,5,1,45,0004-00-0001-37.png,0005-00-0004-69.png
00000014,665,0,1439828601907,1439828601935,473,494,0,0,0,3,2,1,32,0003-00-0004-41.png,0002-00-0000-82.png
00000014,666,1,1439828603804,1439828604416,377,373,0,0,0,4,5,1,45,0004-00-0003-23.png,0005-00-0008-63.png
00000014,667,1,1439828605389,1439828605927,928,371,0,0,0,4,3,1,43,0004-00-0008-42.png,0003-00-0007-92.png
00000014,668,1,1439828607193,1439828607803,350,397,0,0,0,2,3,1,23,0002-00-0006-52.png,0003-00-0005-27.png
00000014,669,0,1439828609657,1439828610242,887,398,0,0,0,1,2,1,12,0001-00-0007-23.png,0002-00-0002-17.png
00000014,670,0,1439828612221,1439828612237,487,428,0,0,0,2,1,1,21,0002-00-0000-09.png,0001-00-0006-31.png
00000014,671,0,1439828614217,1439828614869,395,487,0,0,0,5,4,1,54,0005-00-0008-41.png,0004-00-0009-75.png
00000014,672,1,1439828617030,1439828617545,365,397,0,0,0,3,4,1,34,0003-00-0002-02.png,0004-00-0003-75.png
00000014,673,1,1439828618541,1439828619330,901,469,0,0,0,3,2,1,32,0003-00-0005-43.png,0002-00-0001-40.png
00000014,674,1,1439828620280,1439828620810,899,397,0,0,0,4,3,1,43,0004-00-0005-46.png,0003-00-0002-80.png
00000014,675,1,1439828621742,1439828622292,903,410,0,0,0,5,4,1,54,0005-00-0007-68.png,0004-00-0005-92.png
00000014,676,1,1439828623262,1439828623795,376,384,0,0,0,2,3,1,23,0002-00-0002-52.png,0003-00-0007-36.png
00000014,677,1,1439828624773,1439828625323,320,395,0,0,0,1,2,1,12,0001-00-0004-00.png,0002-00-0007-64.png
00000014,678,0,1439828626608,1439828627254,921,393,0,0,0,3,4,1,34,0003-00-0001-58.png,0004-00-0001-00.png
00000014,679,1,1439828629312,1439828629822,325,397,0,0,0,4,5,1,45,0004-00-0006-65.png,0005-00-0006-56.png
00000014,680,1,1439828630990,1439828631512,880,427,0,0,0,2,1,1,21,0002-00-0005-80.png,0001-00-0009-03.png
00000014,681,1,1439828632503,1439828633033,365,395,0,0,0,1,2,1,12,0001-00-0008-59.png,0002-00-0001-04.png
00000014,682,0,1439828634215,1439828634759,422,420,0,0,0,3,2,1,32,0003-00-0002-53.png,0002-00-0001-22.png
00000014,683,1,1439828636666,1439828636691,471,427,0,0,0,2,3,1,23,0002-00-0002-21.png,0003-00-0009-65.png
00000014,684,1,1439828638137,1439828638690,391,492,0,0,0,4,5,1,45,0004-00-0009-78.png,0005-00-0003-50.png
00000014,685,1,1439828639948,1439828640495,871,420,0,0,0,2,1,1,21,0002-00-0005-32.png,0001-00-0002-13.png
00000014,686,1,1439828641540,1439828642034,350,397,0,0,0,3,4,1,34,0003-00-0004-21.png,0004-00-0006-37.png
00000014,687,0,1439828643098,1439828643128,481,495,0,0,0,4,3,1,43,0004-00-0007-90.png,0003-00-0004-39.png
00000014,688,0,1439828645008,1439828645028,498,453,0,0,0,5,4,1,54,0005-00-0001-53.png,0004-00-0008-32.png
00000014,689,1,1439828647064,1439828647114,504,472,0,0,0,1,2,1,12,0001-00-0004-31.png,0002-00-0007-78.png
00000014,690,0,1439828648600,1439828649206,307,392,0,0,0,5,4,1,54,0005-00-0005-26.png,0004-00-0003-11.png
00000014,691,1,1439828651133,1439828651209,496,481,0,0,0,4,5,1,45,0004-00-0004-49.png,0005-00-0001-52.png
00000014,692,1,1439828652232,1439828652752,904,416,0,0,0,4,3,1,43,0004-00-0005-32.png,0003-00-0008-19.png
00000014,693,1,1439828653695,1439828654228,888,398,0,0,0,3,2,1,32,0003-00-0009-62.png,0002-00-0004-99.png
00000014,694,1,1439828655326,1439828655934,238,485,0,0,0,3,4,1,34,0003-00-0008-93.png,0004-00-0000-10.png
00000014,695,0,1439828656926,1439828657430,891,409,0,0,0,2,3,1,23,0002-00-0005-01.png,0003-00-0001-87.png
00000014,696,0,1439828659570,1439828659598,501,465,0,0,0,2,1,1,21,0002-00-0004-07.png,0001-00-0005-66.png
00000014,697,0,1439828662184,1439828662774,401,384,0,0,0,2,1,1,21,0002-00-0003-06.png,0001-00-0006-83.png
00000014,698,1,1439828664619,1439828665149,350,410,0,0,0,2,3,1,23,0002-00-0004-80.png,0003-00-0006-97.png
00000014,699,1,1439828666081,1439828666583,903,416,0,0,0,4,3,1,43,0004-00-0002-96.png,0003-00-0000-12.png
00000014,700,1,1439828667746,1439828667786,504,462,0,0,0,4,5,1,45,0004-00-0008-56.png,0005-00-0000-87.png
00000014,701,0,1439828670101,1439828670585,307,418,0,0,0,3,2,1,32,0003-00-0005-46.png,0002-00-0007-16.png
00000014,702,0,1439828672959,1439828673479,890,395,0,0,0,3,4,1,34,0003-00-0008-47.png,0004-00-0004-18.png
00000014,703,1,1439828675332,1439828675932,928,350,0,0,0,5,4,1,54,0005-00-0005-84.png,0004-00-0006-23.png
00000014,704,1,1439828676913,1439828677463,337,388,0,0,0,1,2,1,12,0001-00-0003-73.png,0002-00-0003-70.png
00000014,705,0,1439828679117,1439828679609,876,520,0,0,0,3,4,1,34,0003-00-0008-41.png,0004-00-0004-35.png
00000014,706,0,1439828681852,1439828682496,927,384,0,0,0,2,3,1,23,0002-00-0008-64.png,0003-00-0003-27.png
00000014,707,0,1439828684674,1439828684690,504,452,0,0,0,2,1,1,21,0002-00-0007-55.png,0001-00-0008-36.png
00000014,708,1,1439828686809,1439828687297,239,462,0,0,0,4,5,1,45,0004-00-0005-11.png,0005-00-0000-44.png
00000014,709,1,1439828688314,1439828688855,873,396,0,0,0,3,2,1,32,0003-00-0004-64.png,0002-00-0003-65.png
00000014,710,1,1439828689838,1439828690336,886,410,0,0,0,5,4,1,54,0005-00-0005-35.png,0004-00-0001-99.png
00000014,711,1,1439828691294,1439828691835,874,489,0,0,0,4,3,1,43,0004-00-0009-67.png,0003-00-0009-60.png
00000014,712,1,1439828692732,1439828693384,352,378,0,0,0,1,2,1,12,0001-00-0003-66.png,0002-00-0002-81.png
00000014,713,0,1439828694364,1439828694934,880,418,0,0,0,3,4,1,34,0003-00-0002-96.png,0004-00-0007-03.png
00000014,714,0,1439828696944,1439828697512,925,397,0,0,0,4,5,1,45,0004-00-0002-60.png,0005-00-0003-36.png
00000014,715,0,1439828699651,1439828700242,337,397,0,0,0,4,3,1,43,0004-00-0005-73.png,0003-00-0005-09.png
00000014,716,1,1439828702093,1439828702109,478,415,0,0,0,1,2,1,12,0001-00-0009-96.png,0002-00-0004-41.png
00000014,717,0,1439828703018,1439828703611,360,389,0,0,0,5,4,1,54,0005-00-0003-62.png,0004-00-0006-57.png
00000014,718,1,1439828705804,1439828705820,453,457,0,0,0,2,3,1,23,0002-00-0003-24.png,0003-00-0006-80.png
00000014,719,1,1439828706747,1439828707335,870,394,0,0,0,3,2,1,32,0003-00-0001-40.png,0002-00-0004-83.png
00000014,720,0,1439828708245,1439828708918,248,473,0,0,0,2,1,1,21,0002-00-0009-05.png,0001-00-0005-43.png
00000014,721,0,1439828710920,1439828710956,488,458,0,0,0,3,2,1,32,0003-00-0006-46.png,0002-00-0005-33.png
00000014,722,0,1439828712859,1439828713421,876,486,0,0,0,1,2,1,12,0001-00-0006-36.png,0002-00-0002-51.png
00000014,723,1,1439828715278,1439828715290,513,429,0,0,0,4,5,1,45,0004-00-0008-01.png,0005-00-0005-57.png
00000014,724,1,1439828716305,1439828717208,440,425,0,0,0,3,4,1,34,0003-00-0004-95.png,0004-00-0000-01.png
00000014,725,0,1439828718183,1439828718718,879,378,0,0,0,2,3,1,23,0002-00-0009-78.png,0003-00-0004-45.png
00000014,726,0,1439828720757,1439828720781,481,454,0,0,0,4,3,1,43,0004-00-0000-85.png,0003-00-0001-29.png
00000014,727,0,1439828722685,1439828722709,496,401,0,0,0,2,1,1,21,0002-00-0002-54.png,0001-00-0001-86.png
00000014,728,1,1439828725021,1439828725692,928,363,0,0,0,5,4,1,54,0005-00-0005-16.png,0004-00-0002-55.png
00000014,729,0,1439828726580,1439828727112,863,507,0,0,0,1,2,1,12,0001-00-0009-24.png,0002-00-0006-34.png
00000014,730,1,1439828728987,1439828728995,499,414,0,0,0,2,3,1,23,0002-00-0009-73.png,0003-00-0005-89.png
00000014,731,1,1439828729950,1439828730436,900,410,0,0,0,5,4,1,54,0005-00-0007-16.png,0004-00-0006-98.png
00000014,732,0,1439828731319,1439828731828,325,403,0,0,0,3,2,1,32,0003-00-0009-18.png,0002-00-0002-92.png
00000014,733,1,1439828734046,1439828734613,947,393,0,0,0,2,1,1,21,0002-00-0001-36.png,0001-00-0004-28.png
00000014,734,1,1439828736301,1439828736828,401,373,0,0,0,4,5,1,45,0004-00-0009-68.png,0005-00-0002-07.png
00000014,735,1,1439828737712,1439828738333,401,416,0,0,0,3,4,1,34,0003-00-0004-21.png,0004-00-0004-53.png
00000014,736,1,1439828739356,1439828739852,876,384,0,0,0,4,3,1,43,0004-00-0001-99.png,0003-00-0001-75.png
00000014,737,0,1439828740751,1439828741697,516,425,0,0,0,5,4,1,54,0005-00-0008-89.png,0004-00-0007-42.png
00000014,738,0,1439828743612,1439828743680,478,500,0,0,0,4,3,1,43,0004-00-0009-51.png,0003-00-0001-83.png
00000014,739,1,1439828745658,1439828745678,493,397,0,0,0,1,2,1,12,0001-00-0003-46.png,0002-00-0009-66.png
00000014,740,1,1439828746544,1439828747095,867,534,0,0,0,3,2,1,32,0003-00-0007-71.png,0002-00-0008-14.png
00000014,741,1,1439828747996,1439828748549,900,383,0,0,0,2,1,1,21,0002-00-0003-35.png,0001-00-0009-79.png
00000014,742,1,1439828749387,1439828749447,504,436,0,0,0,3,4,1,34,0003-00-0005-59.png,0004-00-0002-30.png
00000014,743,1,1439828750421,1439828750917,371,495,0,0,0,4,5,1,45,0004-00-0009-54.png,0005-00-0006-06.png
00000014,744,1,1439828751828,1439828751844,453,477,0,0,0,2,3,1,23,0002-00-0005-55.png,0003-00-0006-10.png
00000014,745,1,1439828752906,1439828753451,350,358,0,0,0,3,4,1,34,0003-00-0000-76.png,0004-00-0000-12.png
00000014,746,0,1439828754445,1439828754998,877,419,0,0,0,1,2,1,12,0001-00-0009-19.png,0002-00-0004-84.png
00000014,747,1,1439828756942,1439828757534,892,485,0,0,0,3,2,1,32,0003-00-0001-88.png,0002-00-0001-48.png
00000014,748,1,1439828758391,1439828759030,401,358,0,0,0,4,5,1,45,0004-00-0004-11.png,0005-00-0002-86.png
00000014,749,0,1439828759952,1439828760601,349,438,0,0,0,5,4,1,54,0005-00-0003-59.png,0004-00-0008-26.png
00000014,750,0,1439828762484,1439828763002,414,412,0,0,0,4,3,1,43,0004-00-0004-28.png,0003-00-0000-87.png
00000014,751,0,1439828765047,1439828765616,345,410,0,0,0,2,1,1,21,0002-00-0000-98.png,0001-00-0006-06.png
00000014,752,1,1439828767616,1439828767648,445,453,0,0,0,2,3,1,23,0002-00-0005-50.png,0003-00-0001-56.png
00000014,753,1,1439828768545,1439828769063,888,399,0,0,0,2,1,1,21,0002-00-0009-24.png,0001-00-0006-73.png
00000014,754,0,1439828769955,1439828770564,883,411,0,0,0,3,4,1,34,0003-00-0004-50.png,0004-00-0003-56.png
00000014,755,1,1439828772489,1439828773030,874,423,0,0,0,5,4,1,54,0005-00-0003-69.png,0004-00-0006-39.png
00000014,756,0,1439828773882,1439828774497,879,427,0,0,0,1,2,1,12,0001-00-0007-67.png,0002-00-0001-07.png
00000014,757,0,1439828776465,1439828777047,931,403,0,0,0,4,5,1,45,0004-00-0002-30.png,0005-00-0008-85.png
00000014,758,1,1439828779176,1439828779760,871,484,0,0,0,4,3,1,43,0004-00-0003-57.png,0003-00-0003-73.png
00000014,759,0,1439828780630,1439828781175,877,416,0,0,0,2,3,1,23,0002-00-0009-14.png,0003-00-0009-50.png
00000014,760,1,1439828783265,1439828784011,875,476,0,0,0,3,2,1,32,0003-00-0009-64.png,0002-00-0007-49.png
00000014,761,1,1439828784855,1439828784911,504,484,0,0,0,3,4,1,34,0003-00-0007-32.png,0004-00-0009-22.png
00000014,762,0,1439828785995,1439828786594,363,391,0,0,0,5,4,1,54,0005-00-0003-23.png,0004-00-0007-04.png
00000014,763,0,1439828788877,1439828789421,364,409,0,0,0,2,1,1,21,0002-00-0000-01.png,0001-00-0005-69.png
00000014,764,0,1439828791664,1439828792334,378,467,0,0,0,3,2,1,32,0003-00-0004-76.png,0002-00-0009-79.png
00000014,765,1,1439828794255,1439828794294,459,441,0,0,0,1,2,1,12,0001-00-0000-82.png,0002-00-0009-63.png
00000014,766,0,1439828795260,1439828795817,880,400,0,0,0,2,3,1,23,0002-00-0009-09.png,0003-00-0001-05.png
00000014,767,1,1439828797963,1439828798687,936,471,0,0,0,4,3,1,43,0004-00-0003-14.png,0003-00-0001-81.png
00000014,768,1,1439828799593,1439828799633,501,481,0,0,0,4,5,1,45,0004-00-0007-60.png,0005-00-0009-96.png
00000014,769,0,1439828800616,1439828801160,862,436,0,0,0,4,5,1,45,0004-00-0004-70.png,0005-00-0000-40.png
00000014,770,1,1439828803081,1439828803946,977,371,0,0,0,3,2,1,32,0003-00-0009-88.png,0002-00-0000-52.png
00000014,771,1,1439828805266,1439828805817,897,405,0,0,0,5,4,1,54,0005-00-0008-48.png,0004-00-0004-75.png
00000014,772,1,1439828806730,1439828807306,895,397,0,0,0,4,3,1,43,0004-00-0000-60.png,0003-00-0002-68.png
00000014,773,1,1439828808201,1439828808245,504,506,0,0,0,2,3,1,23,0002-00-0003-23.png,0003-00-0006-72.png
00000014,774,1,1439828809283,1439828810045,915,386,0,0,0,2,1,1,21,0002-00-0007-79.png,0001-00-0004-24.png
00000014,775,0,1439828810943,1439828811498,887,398,0,0,0,3,4,1,34,0003-00-0007-99.png,0004-00-0000-46.png
00000014,776,1,1439828813732,1439828814406,364,372,0,0,0,1,2,1,12,0001-00-0003-18.png,0002-00-0005-62.png
00000014,777,0,1439828815523,1439828816076,875,410,0,0,0,4,5,1,45,0004-00-0004-27.png,0005-00-0003-10.png
00000014,778,1,1439828818656,1439828819209,883,547,0,0,0,5,4,1,54,0005-00-0000-24.png,0004-00-0003-83.png
00000014,779,1,1439828820621,1439828820657,504,488,0,0,0,3,4,1,34,0003-00-0006-12.png,0004-00-0009-89.png
00000014,780,1,1439828822092,1439828822678,323,449,0,0,0,1,2,1,12,0001-00-0001-22.png,0002-00-0003-57.png
00000014,781,0,1439828824469,1439828825399,394,453,0,0,0,2,1,1,21,0002-00-0003-12.png,0001-00-0001-60.png
00000014,782,0,1439828827300,1439828827837,883,488,0,0,0,2,3,1,23,0002-00-0003-44.png,0003-00-0003-90.png
00000014,783,0,1439828829943,1439828829959,473,440,0,0,0,3,2,1,32,0003-00-0009-07.png,0002-00-0005-91.png
00000014,784,0,1439828832332,1439828832348,461,413,0,0,0,4,3,1,43,0004-00-0000-56.png,0003-00-0002-17.png
00000014,785,1,1439828834780,1439828835318,904,401,0,0,0,2,1,1,21,0002-00-0009-97.png,0001-00-0007-18.png
00000014,786,0,1439828836489,1439828837012,888,423,0,0,0,3,4,1,34,0003-00-0004-06.png,0004-00-0007-73.png
00000014,787,1,1439828839117,1439828839145,504,447,0,0,0,4,5,1,45,0004-00-0002-26.png,0005-00-0004-69.png
00000014,788,1,1439828840131,1439828840819,926,358,0,0,0,3,2,1,32,0003-00-0001-77.png,0002-00-0002-14.png
00000014,789,0,1439828842055,1439828842115,504,503,0,0,0,4,3,1,43,0004-00-0007-19.png,0003-00-0002-19.png
00000014,790,1,1439828844017,1439828844029,481,439,0,0,0,2,3,1,23,0002-00-0001-28.png,0003-00-0000-79.png
00000014,791,1,1439828844978,1439828845656,398,406,0,0,0,1,2,1,12,0001-00-0009-32.png,0002-00-0008-51.png
00000014,792,0,1439828846602,1439828846610,489,462,0,0,0,5,4,1,54,0005-00-0002-62.png,0004-00-0003-29.png
00000014,793,1,1439828848618,1439828848638,459,439,0,0,0,4,5,1,45,0004-00-0006-09.png,0005-00-0008-60.png
00000014,794,0,1439828849574,1439828850109,900,409,0,0,0,1,2,1,12,0001-00-0007-75.png,0002-00-0001-59.png
00000014,795,1,1439828852155,1439828852758,925,358,0,0,0,3,2,1,32,0003-00-0001-88.png,0002-00-0007-10.png
00000014,796,0,1439828853656,1439828853676,504,427,0,0,0,5,4,1,54,0005-00-0005-25.png,0004-00-0007-93.png
00000014,797,1,1439828855765,1439828855781,477,430,0,0,0,2,3,1,23,0002-00-0000-52.png,0003-00-0009-62.png
00000014,798,0,1439828856698,1439828857315,376,358,0,0,0,4,3,1,43,0004-00-0005-96.png,0003-00-0004-29.png
00000014,799,1,1439828860176,1439828860881,957,418,0,0,0,2,1,1,21,0002-00-0009-25.png,0001-00-0006-63.png
00000014,800,0,1439828861790,1439828862269,879,402,0,0,0,3,4,1,34,0003-00-0007-70.png,0004-00-0001-97.png
00000014,801,0,1439828864287,1439828864387,438,488,0,0,0,2,1,1,21,0002-00-0005-89.png,0001-00-0007-39.png
00000014,802,0,1439828866624,1439828867237,913,397,0,0,0,2,3,1,23,0002-00-0005-67.png,0003-00-0001-93.png
00000014,803,1,1439828869337,1439828869349,504,488,0,0,0,3,4,1,34,0003-00-0001-16.png,0004-00-0000-75.png
00000014,804,1,1439828870269,1439828870825,312,397,0,0,0,4,5,1,45,0004-00-0003-26.png,0005-00-0004-31.png
00000014,805,1,1439828871732,1439828872277,920,393,0,0,0,4,3,1,43,0004-00-0003-84.png,0003-00-0007-00.png
00000014,806,1,1439828873166,1439828873707,901,424,0,0,0,3,2,1,32,0003-00-0006-40.png,0002-00-0004-64.png
00000014,807,1,1439828874628,1439828875156,401,358,0,0,0,1,2,1,12,0001-00-0005-53.png,0002-00-0008-98.png
00000014,808,0,1439828876126,1439828876709,337,394,0,0,0,5,4,1,54,0005-00-0001-06.png,0004-00-0004-06.png
00000014,809,1,1439828879043,1439828879540,861,489,0,0,0,4,3,1,43,0004-00-0009-33.png,0003-00-0001-65.png
00000014,810,1,1439828880416,1439828881078,389,397,0,0,0,4,5,1,45,0004-00-0004-51.png,0005-00-0001-91.png
00000014,811,1,1439828881936,1439828882549,881,416,0,0,0,5,4,1,54,0005-00-0000-26.png,0004-00-0002-14.png
00000014,812,0,1439828883428,1439828883456,478,453,0,0,0,2,1,1,21,0002-00-0008-20.png,0001-00-0008-07.png
00000014,813,0,1439828885486,1439828886208,937,372,0,0,0,3,4,1,34,0003-00-0001-76.png,0004-00-0001-07.png
00000014,814,1,1439828888289,1439828888901,880,391,0,0,0,3,2,1,32,0003-00-0008-14.png,0002-00-0002-87.png
00000014,815,0,1439828889789,1439828890354,872,484,0,0,0,2,3,1,23,0002-00-0003-24.png,0003-00-0007-94.png
00000014,816,1,1439828892433,1439828893215,358,392,0,0,0,1,2,1,12,0001-00-0002-12.png,0002-00-0003-19.png
00000014,817,1,1439828894097,1439828894831,889,488,0,0,0,2,1,1,21,0002-00-0006-77.png,0001-00-0007-22.png
00000014,818,0,1439828895684,1439828896256,896,394,0,0,0,2,3,1,23,0002-00-0009-24.png,0003-00-0002-13.png
00000014,819,1,1439828898116,1439828898662,875,398,0,0,0,3,2,1,32,0003-00-0002-00.png,0002-00-0002-02.png
00000014,820,1,1439828899577,1439828899600,504,462,0,0,0,4,5,1,45,0004-00-0007-50.png,0005-00-0007-81.png
00000014,821,0,1439828900585,1439828901544,902,407,0,0,0,3,4,1,34,0003-00-0003-65.png,0004-00-0007-11.png
00000014,822,1,1439828906084,1439828906660,350,332,0,0,0,1,2,1,12,0001-00-0005-86.png,0002-00-0004-06.png
00000014,823,0,1439828907579,1439828908161,358,384,0,0,0,5,4,1,54,0005-00-0009-28.png,0004-00-0001-05.png
00000014,824,1,1439828911533,1439828912160,913,475,0,0,0,4,3,1,43,0004-00-0008-81.png,0003-00-0007-35.png
00000014,825,0,1439828913174,1439828913707,901,425,0,0,0,3,4,1,34,0003-00-0001-58.png,0004-00-0009-94.png
00000014,826,0,1439828915685,1439828916216,333,401,0,0,0,2,1,1,21,0002-00-0007-61.png,0001-00-0009-24.png
00000014,827,1,1439828918181,1439828918742,365,504,0,0,0,4,5,1,45,0004-00-0009-91.png,0005-00-0003-86.png
00000014,828,1,1439828919622,1439828919671,474,482,0,0,0,1,2,1,12,0001-00-0007-82.png,0002-00-0005-84.png
00000014,829,1,1439828920659,1439828921288,913,398,0,0,0,3,2,1,32,0003-00-0001-28.png,0002-00-0002-10.png
00000014,830,1,1439828922257,1439828922784,901,408,0,0,0,4,3,1,43,0004-00-0003-71.png,0003-00-0007-00.png
00000014,831,1,1439828923668,1439828923704,478,474,0,0,0,2,3,1,23,0002-00-0008-83.png,0003-00-0007-37.png
00000014,832,1,1439828924741,1439828925301,873,439,0,0,0,5,4,1,54,0005-00-0002-89.png,0004-00-0004-17.png
00000014,833,0,1439828926310,1439828926330,478,475,0,0,0,3,2,1,32,0003-00-0000-42.png,0002-00-0002-14.png
00000014,834,0,1439828928485,1439828928509,503,451,0,0,0,5,4,1,54,0005-00-0008-17.png,0004-00-0006-17.png
00000014,835,0,1439828930723,1439828931342,862,397,0,0,0,4,5,1,45,0004-00-0003-67.png,0005-00-0001-50.png
00000014,836,0,1439828933257,1439828933285,518,410,0,0,0,2,1,1,21,0002-00-0007-94.png,0001-00-0005-38.png
00000014,837,1,1439828935285,1439828936009,316,410,0,0,0,2,3,1,23,0002-00-0007-46.png,0003-00-0002-34.png
00000014,838,0,1439828936922,1439828936950,478,462,0,0,0,4,3,1,43,0004-00-0008-91.png,0003-00-0007-80.png
00000014,839,0,1439828938984,1439828939547,903,392,0,0,0,3,4,1,34,0003-00-0000-49.png,0004-00-0001-88.png
00000014,840,1,1439828941761,1439828942449,345,368,0,0,0,1,2,1,12,0001-00-0003-65.png,0002-00-0003-84.png
00000014,841,1,1439828943455,1439828943978,896,394,0,0,0,5,4,1,54,0005-00-0002-65.png,0004-00-0002-82.png
00000014,842,1,1439828944893,1439828944953,504,509,0,0,0,1,2,1,12,0001-00-0002-70.png,0002-00-0000-10.png
00000014,843,1,1439828945988,1439828946502,878,401,0,0,0,2,1,1,21,0002-00-0001-39.png,0001-00-0002-17.png
00000014,844,1,1439828947497,1439828948111,398,493,0,0,0,4,5,1,45,0004-00-0005-59.png,0005-00-0001-66.png
00000014,845,1,1439828949080,1439828949132,504,504,0,0,0,2,3,1,23,0002-00-0005-81.png,0003-00-0009-61.png
00000014,846,1,1439828950191,1439828950875,341,379,0,0,0,3,4,1,34,0003-00-0009-28.png,0004-00-0007-16.png
00000014,847,1,1439828951900,1439828953091,953,415,0,0,0,3,2,1,32,0003-00-0009-80.png,0002-00-0009-56.png
00000014,848,0,1439828954017,1439828954073,479,535,0,0,0,4,3,1,43,0004-00-0003-65.png,0003-00-0003-51.png
00000014,849,0,1439828956322,1439828957015,902,469,0,0,0,3,4,1,34,0003-00-0006-55.png,0004-00-0001-57.png
00000014,850,1,1439828959907,1439828960550,882,444,0,0,0,2,1,1,21,0002-00-0002-57.png,0001-00-0003-48.png
00000014,851,0,1439828961483,1439828961499,478,466,0,0,0,5,4,1,54,0005-00-0006-59.png,0004-00-0004-51.png
00000014,852,1,1439828963689,1439828964259,320,405,0,0,0,1,2,1,12,0001-00-0007-65.png,0002-00-0007-43.png
00000014,853,0,1439828965207,1439828966196,427,384,0,0,0,3,2,1,32,0003-00-0002-10.png,0002-00-0007-54.png
00000014,854,0,1439828968597,1439828969190,875,461,0,0,0,2,3,1,23,0002-00-0004-29.png,0003-00-0007-62.png
00000014,855,0,1439828971213,1439828971735,337,419,0,0,0,4,3,1,43,0004-00-0002-88.png,0003-00-0004-93.png
00000014,856,0,1439828975982,1439828976549,900,475,0,0,0,4,5,1,45,0004-00-0007-29.png,0005-00-0007-35.png
00000014,857,1,1439828978831,1439828979427,928,416,0,0,0,2,1,1,21,0002-00-0000-66.png,0001-00-0008-61.png
00000014,858,0,1439828980364,1439828981133,880,401,0,0,0,1,2,1,12,0001-00-0000-46.png,0002-00-0000-77.png
00000014,859,0,1439828983504,1439828984066,888,436,0,0,0,3,4,1,34,0003-00-0001-85.png,0004-00-0002-05.png
00000014,860,0,1439828986337,1439828986393,478,534,0,0,0,5,4,1,54,0005-00-0001-07.png,0004-00-0003-07.png
00000014,861,0,1439828988393,1439828988413,495,384,0,0,0,4,3,1,43,0004-00-0005-90.png,0003-00-0005-13.png
00000014,862,0,1439828990345,1439828990971,925,387,0,0,0,2,3,1,23,0002-00-0003-45.png,0003-00-0002-68.png
00000014,863,0,1439828993326,1439828993848,357,391,0,0,0,3,2,1,32,0003-00-0002-46.png,0002-00-0009-38.png
00000014,864,1,1439828995793,1439828995817,463,384,0,0,0,4,5,1,45,0004-00-0002-77.png,0005-00-0008-39.png
00000014,865,1,1439828996791,1439828997337,917,400,0,0,0,5,4,1,54,0005-00-0009-41.png,0004-00-0005-43.png
00000014,866,0,1439828998271,1439828998839,875,406,0,0,0,4,5,1,45,0004-00-0007-65.png,0005-00-0001-20.png
00000014,867,0,1439829000726,1439829001357,973,420,0,0,0,3,4,1,34,0003-00-0003-70.png,0004-00-0004-33.png
00000014,868,1,1439829003205,1439829003703,401,372,0,0,0,1,2,1,12,0001-00-0007-59.png,0002-00-0009-43.png
00000014,869,0,1439829004644,1439829004664,511,458,0,0,0,2,1,1,21,0002-00-0004-05.png,0001-00-0005-43.png
00000014,870,0,1439829006639,1439829006667,489,423,0,0,0,3,2,1,32,0003-00-0007-21.png,0002-00-0007-54.png
00000014,871,1,1439829008604,1439829009152,925,384,0,0,0,4,3,1,43,0004-00-0005-33.png,0003-00-0002-21.png
00000014,872,1,1439829010008,1439829010024,478,438,0,0,0,2,3,1,23,0002-00-0004-19.png,0003-00-0006-02.png
00000014,873,0,1439829011021,1439829011675,317,392,0,0,0,2,1,1,21,0002-00-0009-25.png,0001-00-0004-10.png
00000014,874,1,1439829013850,1439829014429,889,411,0,0,0,4,3,1,43,0004-00-0001-81.png,0003-00-0002-04.png
00000014,875,0,1439829015320,1439829015350,478,448,0,0,0,5,4,1,54,0005-00-0007-51.png,0004-00-0006-00.png
00000014,876,1,1439829017452,1439829018032,398,519,0,0,0,3,4,1,34,0003-00-0008-33.png,0004-00-0005-76.png
00000014,877,0,1439829018974,1439829019022,506,511,0,0,0,3,2,1,32,0003-00-0003-39.png,0002-00-0009-78.png
00000014,878,1,1439829020929,1439829021437,338,398,0,0,0,4,5,1,45,0004-00-0000-76.png,0005-00-0005-61.png
00000014,879,1,1439829022290,1439829022851,206,480,0,0,0,1,2,1,12,0001-00-0007-76.png,0002-00-0005-72.png
00000014,880,1,1439829023791,1439829023851,493,488,0,0,0,2,3,1,23,0002-00-0003-96.png,0003-00-0004-22.png
00000014,881,1,1439829024837,1439829025367,926,372,0,0,0,4,3,1,43,0004-00-0007-74.png,0003-00-0008-67.png
00000014,882,0,1439829026297,1439829026843,880,389,0,0,0,2,3,1,23,0002-00-0008-25.png,0003-00-0005-46.png
00000014,883,1,1439829028830,1439829028842,515,478,0,0,0,3,4,1,34,0003-00-0006-54.png,0004-00-0009-16.png
00000014,884,1,1439829029773,1439829030338,374,400,0,0,0,1,2,1,12,0001-00-0000-87.png,0002-00-0007-11.png
00000014,885,1,1439829031690,1439829031714,486,524,0,0,0,4,5,1,45,0004-00-0006-75.png,0005-00-0002-46.png
00000014,886,1,1439829032707,1439829033227,888,421,0,0,0,3,2,1,32,0003-00-0001-68.png,0002-00-0000-99.png
00000014,887,0,1439829034125,1439829034173,478,500,0,0,0,5,4,1,54,0005-00-0002-92.png,0004-00-0004-93.png
00000014,888,0,1439829036081,1439829036088,501,420,0,0,0,2,1,1,21,0002-00-0000-90.png,0001-00-0001-29.png
00000014,889,1,1439829038050,1439829038089,512,444,0,0,0,2,3,1,23,0002-00-0005-62.png,0003-00-0000-87.png
00000014,890,0,1439829039040,1439829039076,504,479,0,0,0,3,2,1,32,0003-00-0000-54.png,0002-00-0002-02.png
00000014,891,1,1439829041034,1439829041046,503,437,0,0,0,3,4,1,34,0003-00-0002-57.png,0004-00-0003-19.png
00000014,892,1,1439829042017,1439829042614,376,371,0,0,0,4,5,1,45,0004-00-0004-65.png,0005-00-0005-55.png
00000014,893,0,1439829043586,1439829044114,900,435,0,0,0,1,2,1,12,0001-00-0004-56.png,0002-00-0001-97.png
00000014,894,0,1439829046111,1439829046800,337,368,0,0,0,5,4,1,54,0005-00-0009-76.png,0004-00-0007-03.png
00000014,895,1,1439829048766,1439829049443,910,464,0,0,0,2,1,1,21,0002-00-0004-39.png,0001-00-0009-47.png
00000014,896,0,1439829050339,1439829050929,390,422,0,0,0,4,3,1,43,0004-00-0002-16.png,0003-00-0000-55.png
00000014,897,0,1439829053062,1439829053773,361,396,0,0,0,4,3,1,43,0004-00-0008-06.png,0003-00-0007-89.png
00000014,898,1,1439829055699,1439829056236,335,393,0,0,0,3,4,1,34,0003-00-0006-61.png,0004-00-0006-67.png
00000014,899,1,1439829057342,1439829057980,357,387,0,0,0,1,2,1,12,0001-00-0006-47.png,0002-00-0009-18.png
00000014,900,0,1439829059064,1439829059613,901,398,0,0,0,2,3,1,23,0002-00-0004-38.png,0003-00-0005-54.png
00000014,901,0,1439829061707,1439829062244,875,423,0,0,0,4,5,1,45,0004-00-0005-86.png,0005-00-0008-53.png
00000014,902,1,1439829064177,1439829064837,898,457,0,0,0,5,4,1,54,0005-00-0006-75.png,0004-00-0003-84.png
00000014,903,1,1439829065781,1439829066314,886,399,0,0,0,2,1,1,21,0002-00-0009-25.png,0001-00-0004-80.png
00000014,904,0,1439829067242,1439829067872,344,393,0,0,0,3,2,1,32,0003-00-0007-83.png,0002-00-0002-44.png
00000014,905,1,1439829070025,1439829070053,478,462,0,0,0,1,2,1,12,0001-00-0009-67.png,0002-00-0006-15.png
00000014,906,1,1439829071002,1439829071026,518,436,0,0,0,4,5,1,45,0004-00-0001-09.png,0005-00-0002-11.png
00000014,907,0,1439829072042,1439829072548,361,397,0,0,0,4,3,1,43,0004-00-0000-06.png,0003-00-0004-64.png
00000014,908,1,1439829074587,1439829074607,487,453,0,0,0,2,3,1,23,0002-00-0001-99.png,0003-00-0007-65.png
00000014,909,0,1439829075548,1439829075569,504,504,0,0,0,5,4,1,54,0005-00-0006-56.png,0004-00-0006-01.png
00000014,910,0,1439829077509,1439829077533,504,466,0,0,0,2,1,1,21,0002-00-0000-12.png,0001-00-0000-22.png
00000014,911,1,1439829079583,1439829079603,483,462,0,0,0,3,4,1,34,0003-00-0001-80.png,0004-00-0002-55.png
00000014,912,1,1439829080636,1439829081142,896,393,0,0,0,3,2,1,32,0003-00-0000-32.png,0002-00-0002-90.png
00000014,913,0,1439829082059,1439829082612,389,513,0,0,0,4,3,1,43,0004-00-0000-06.png,0003-00-0006-51.png
00000014,914,1,1439829084673,1439829084689,485,447,0,0,0,2,3,1,23,0002-00-0006-87.png,0003-00-0007-79.png
00000014,915,0,1439829085659,1439829086159,904,392,0,0,0,1,2,1,12,0001-00-0008-66.png,0002-00-0000-14.png
00000014,916,0,1439829088349,1439829088919,351,439,0,0,0,5,4,1,54,0005-00-0005-20.png,0004-00-0002-28.png
00000014,917,0,1439829090826,1439829091469,951,357,0,0,0,3,4,1,34,0003-00-0002-45.png,0004-00-0006-37.png
00000014,918,0,1439829094262,1439829094290,513,469,0,0,0,3,2,1,32,0003-00-0003-60.png,0002-00-0004-32.png
00000014,919,1,1439829096409,1439829096465,471,479,0,0,0,4,5,1,45,0004-00-0001-45.png,0005-00-0004-72.png
00000014,920,0,1439829097370,1439829098046,341,410,0,0,0,2,1,1,21,0002-00-0002-89.png,0001-00-0008-07.png
00000014,921,1,1439829099885,1439829100529,919,391,0,0,0,4,3,1,43,0004-00-0001-39.png,0003-00-0007-97.png
00000014,922,1,1439829101419,1439829102000,222,477,0,0,0,4,5,1,45,0004-00-0008-52.png,0005-00-0008-49.png
00000014,923,1,1439829102941,1439829102997,513,537,0,0,0,2,3,1,23,0002-00-0002-24.png,0003-00-0004-20.png
00000014,924,0,1439829104073,1439829104694,392,494,0,0,0,3,2,1,32,0003-00-0002-03.png,0002-00-0009-33.png
00000014,925,1,1439829106773,1439829106793,462,431,0,0,0,1,2,1,12,0001-00-0007-06.png,0002-00-0003-11.png
00000014,926,0,1439829107708,1439829108367,900,397,0,0,0,3,4,1,34,0003-00-0002-16.png,0004-00-0003-22.png
00000014,927,1,1439829110610,1439829111173,924,412,0,0,0,5,4,1,54,0005-00-0008-53.png,0004-00-0005-15.png
00000014,928,0,1439829112131,1439829112139,497,477,0,0,0,2,1,1,21,0002-00-0004-59.png,0001-00-0009-82.png
00000014,929,0,1439829114079,1439829114087,504,462,0,0,0,2,1,1,21,0002-00-0007-18.png,0001-00-0006-50.png
00000014,930,0,1439829116575,1439829117223,896,498,0,0,0,1,2,1,12,0001-00-0000-02.png,0002-00-0006-36.png
00000014,931,1,1439829119311,1439829119343,514,513,0,0,0,2,3,1,23,0002-00-0005-62.png,0003-00-0000-74.png
00000014,932,1,1439829120283,1439829120819,901,434,0,0,0,4,3,1,43,0004-00-0000-07.png,0003-00-0008-16.png
00000014,933,0,1439829121723,1439829122319,401,384,0,0,0,5,4,1,54,0005-00-0008-20.png,0004-00-0002-42.png
00000014,934,1,1439829124447,1439829124475,511,493,0,0,0,4,5,1,45,0004-00-0002-78.png,0005-00-0001-69.png
00000014,935,0,1439829125826,1439829125842,504,497,0,0,0,3,2,1,32,0003-00-0009-85.png,0002-00-0007-79.png
00000014,936,0,1439829127835,1439829128525,925,386,0,0,0,3,4,1,34,0003-00-0009-72.png,0004-00-0009-49.png
00000014,937,1,1439829130479,1439829131029,309,406,0,0,0,3,4,1,34,0003-00-0007-91.png,0004-00-0009-82.png
00000014,938,0,1439829131969,1439829131993,504,462,0,0,0,5,4,1,54,0005-00-0000-25.png,0004-00-0007-83.png
00000014,939,1,1439829134036,1439829134056,516,450,0,0,0,1,2,1,12,0001-00-0002-19.png,0002-00-0008-47.png
00000014,940,1,1439829134971,1439829135003,497,477,0,0,0,2,3,1,23,0002-00-0003-02.png,0003-00-0004-18.png
00000014,941,1,1439829136028,1439829136578,375,404,0,0,0,4,5,1,45,0004-00-0003-72.png,0005-00-0006-25.png
00000014,942,0,1439829137486,1439829138143,401,371,0,0,0,2,1,1,21,0002-00-0001-55.png,0001-00-0005-57.png
