subject_id,trial,correct_response,stim_time,response_time,x_coord,y_coord,trial_timeout,timeout_time,interTrial_timeout,left_rank,right_rank,distance,joint_rank,left_image,right_image
9,1,1,1443548340031,1443548340241,1118,281,0,0,0,1,2,1,12,0004-00-0007-85.png,0002-00-0003-19.png
9,2,1,1443548340265,1443548341109,888,263,0,0,0,2,3,1,23,0002-00-0008-96.png,0003-00-0001-35.png
9,3,0,1443548341140,1443548341207,864,226,0,0,0,2,1,1,21,0002-00-0001-65.png,0004-00-0001-53.png
9,4,1,1443548341240,1443548341654,386,364,0,0,0,5,4,1,54,0001-00-0006-37.png,0005-00-0005-22.png
9,5,1,1443548341672,1443548342533,359,399,0,0,0,5,4,1,54,0001-00-0006-05.png,0005-00-0007-29.png
9,6,0,1443548342580,1443548342649,1037,373,0,0,0,3,4,1,34,0003-00-0004-65.png,0005-00-0009-85.png
9,7,0,1443548342668,1443548344170,866,466,0,0,0,3,2,1,32,0003-00-0006-20.png,0002-00-0004-90.png
9,8,0,1443548344188,1443548344587,1063,288,0,0,0,4,3,1,43,0005-00-0002-84.png,0003-00-0001-28.png
9,9,1,1443548344627,1443548344690,972,347,0,0,0,4,3,1,43,0005-00-0002-93.png,0003-00-0000-24.png
9,10,0,1443548344712,1443548353090,361,405,0,0,0,5,4,1,54,0001-00-0000-65.png,0005-00-0006-08.png
9,11,0,1443548353107,1443548353257,969,392,0,0,0,5,4,1,54,0001-00-0007-05.png,0005-00-0006-00.png
9,12,1,1443548353280,1443548353479,355,395,0,0,0,3,4,1,34,0003-00-0009-13.png,0005-00-0009-39.png
9,13,1,1443548353513,1443548353753,923,551,0,0,0,3,2,1,32,0003-00-0008-45.png,0002-00-0001-58.png
9,14,1,1443548353775,1443548354008,962,378,0,0,0,1,2,1,12,0004-00-0002-93.png,0002-00-0001-77.png
9,15,1,1443548354026,1443548355370,864,458,0,0,0,2,3,1,23,0002-00-0005-80.png,0003-00-0007-74.png
9,16,1,1443548355405,1443548355574,375,316,0,0,0,2,1,1,21,0002-00-0001-91.png,0004-00-0006-66.png
9,17,0,1443548355604,1443548355665,385,292,0,0,0,5,4,1,54,0001-00-0002-76.png,0005-00-0005-77.png
9,18,0,1443548355694,1443548356240,389,306,0,0,0,2,3,1,23,0002-00-0007-68.png,0003-00-0001-13.png
9,19,1,1443548356277,1443548356373,860,438,0,0,0,5,4,1,54,0001-00-0004-13.png,0005-00-0005-75.png
9,20,0,1443548356405,1443548356496,938,355,0,0,0,2,1,1,21,0002-00-0004-22.png,0004-00-0007-13.png
9,21,0,1443548356529,1443548356984,972,279,0,0,0,1,2,1,12,0004-00-0001-26.png,0002-00-0009-17.png
9,22,0,1443548357009,1443548357051,867,387,0,0,0,3,2,1,32,0003-00-0008-57.png,0002-00-0000-86.png
9,23,0,1443548357084,1443548357481,928,396,0,0,0,3,4,1,34,0003-00-0004-66.png,0005-00-0001-75.png
9,24,1,1443548357520,1443548358159,864,408,0,0,0,4,3,1,43,0005-00-0004-36.png,0003-00-0006-64.png
9,25,1,1443548358205,1443548358250,913,514,0,0,0,1,2,1,12,0004-00-0006-95.png,0002-00-0003-03.png
9,26,1,1443548358277,1443548358818,357,394,0,0,0,4,3,1,43,0005-00-0002-45.png,0003-00-0009-86.png
9,27,0,1443548358845,1443548359142,915,382,0,0,0,5,4,1,54,0001-00-0006-29.png,0005-00-0002-13.png
9,28,0,1443548359173,1443548360663,913,514,0,0,0,5,4,1,54,0001-00-0008-69.png,0005-00-0002-06.png
9,29,0,1443548360695,1443548361287,898,551,0,0,0,2,3,1,23,0002-00-0000-39.png,0003-00-0004-01.png
9,30,0,1443548361317,1443548361437,964,332,0,0,0,2,1,1,21,0002-00-0005-71.png,0004-00-0007-54.png
9,31,1,1443548361464,1443548363721,936,267,0,0,0,3,2,1,32,0003-00-0005-47.png,0002-00-0001-60.png
9,32,1,1443548363744,1443548364537,1047,289,0,0,0,3,4,1,34,0003-00-0002-16.png,0005-00-0000-40.png
9,33,1,1443548364572,1443548367400,942,408,0,0,0,2,3,1,23,0002-00-0008-34.png,0003-00-0008-79.png
9,34,0,1443548367422,1443548368739,866,492,0,0,0,5,4,1,54,0001-00-0009-88.png,0005-00-0009-53.png
9,35,1,1443548368767,1443548369075,878,291,0,0,0,4,3,1,43,0005-00-0000-48.png,0003-00-0006-45.png
9,36,0,1443548369106,1443548369516,1040,295,0,0,0,1,2,1,12,0004-00-0008-74.png,0002-00-0007-72.png
9,37,1,1443548369539,1443548370607,939,541,0,0,0,2,1,1,21,0002-00-0000-78.png,0004-00-0007-57.png
9,38,1,1443548370638,1443548370689,912,542,0,0,0,5,4,1,54,0001-00-0008-94.png,0005-00-0009-47.png
9,39,1,1443548370721,1443548370744,891,366,0,0,0,3,2,1,32,0003-00-0007-46.png,0002-00-0000-34.png
9,40,1,1443548370767,1443548371042,380,427,0,0,0,3,4,1,34,0003-00-0004-30.png,0005-00-0002-91.png
9,41,1,1443548371071,1443548372153,913,514,0,0,0,2,3,1,23,0002-00-0008-21.png,0003-00-0004-71.png
9,42,1,1443548372174,1443548372224,356,427,0,0,0,3,4,1,34,0003-00-0000-66.png,0005-00-0003-63.png
9,43,1,1443548372249,1443548378746,893,376,0,0,0,3,2,1,32,0003-00-0009-68.png,0002-00-0002-59.png
9,44,1,1443548378775,1443548378806,915,466,0,0,0,2,1,1,21,0002-00-0007-12.png,0004-00-0005-92.png
9,45,1,1443548378832,1443548379068,385,308,0,0,0,5,4,1,54,0001-00-0009-18.png,0005-00-0007-10.png
9,46,1,1443548379093,1443548379941,864,403,0,0,0,4,3,1,43,0005-00-0003-75.png,0003-00-0002-54.png
9,47,0,1443548379964,1443548381610,925,526,0,0,0,5,4,1,54,0001-00-0005-71.png,0005-00-0009-48.png
9,48,1,1443548381640,1443548381886,450,306,0,0,0,1,2,1,12,0004-00-0009-90.png,0002-00-0003-72.png
9,49,0,1443548381910,1443548382271,364,393,0,0,0,5,4,1,54,0001-00-0009-15.png,0005-00-0008-89.png
9,50,0,1443548382292,1443548384151,890,388,0,0,0,4,3,1,43,0005-00-0009-46.png,0003-00-0007-14.png
9,51,0,1443548384176,1443548386155,944,325,0,0,0,2,3,1,23,0002-00-0006-37.png,0003-00-0000-16.png
9,52,0,1443548386179,1443548386263,900,462,0,0,0,3,4,1,34,0003-00-0005-55.png,0005-00-0002-33.png
9,53,1,1443548386286,1443548387425,873,275,0,0,0,3,2,1,32,0003-00-0009-20.png,0002-00-0000-90.png
9,54,1,1443548387448,1443548387568,939,253,0,0,0,5,4,1,54,0001-00-0006-17.png,0005-00-0009-56.png
9,55,1,1443548387611,1443548387644,890,463,0,0,0,1,2,1,12,0004-00-0003-31.png,0002-00-0003-04.png
9,56,0,1443548387677,1443548388442,412,265,0,0,0,2,1,1,21,0002-00-0003-32.png,0004-00-0003-53.png
9,57,0,1443548388473,1443548392846,945,350,0,0,0,2,3,1,23,0002-00-0002-60.png,0003-00-0004-39.png
9,58,1,1443548392883,1443548393646,860,463,0,0,0,5,4,1,54,0001-00-0004-06.png,0005-00-0000-92.png
9,59,0,1443548393673,1443548393786,413,303,0,0,0,4,3,1,43,0005-00-0004-50.png,0003-00-0007-49.png
9,60,0,1443548393805,1443548393989,1019,332,0,0,0,3,2,1,32,0003-00-0000-59.png,0002-00-0008-78.png
9,61,1,1443548394012,1443548394471,319,394,0,0,0,5,4,1,54,0001-00-0001-63.png,0005-00-0006-22.png
9,62,1,1443548394497,1443548397507,883,476,0,0,0,3,4,1,34,0003-00-0001-74.png,0005-00-0001-85.png
9,63,1,1443548397535,1443548397784,311,409,0,0,0,1,2,1,12,0004-00-0006-55.png,0002-00-0009-91.png
9,64,0,1443548397809,1443548398868,355,270,0,0,0,2,1,1,21,0002-00-0003-61.png,0004-00-0001-78.png
9,65,1,1443548398897,1443548399161,1014,304,0,0,0,2,1,1,21,0002-00-0006-81.png,0004-00-0000-74.png
9,66,1,1443548399189,1443548399424,926,528,0,0,0,5,4,1,54,0001-00-0007-94.png,0005-00-0007-15.png
9,67,1,1443548399454,1443548402235,893,333,0,0,0,2,3,1,23,0002-00-0004-49.png,0003-00-0001-51.png
9,68,1,1443548402271,1443548402820,1088,280,0,0,0,1,2,1,12,0004-00-0004-91.png,0002-00-0006-17.png
9,69,1,1443548402858,1443548402951,870,531,0,0,0,3,4,1,34,0003-00-0008-18.png,0005-00-0005-82.png
9,70,1,1443548402981,1443548403073,893,365,0,0,0,4,3,1,43,0005-00-0008-24.png,0003-00-0006-70.png
9,71,1,1443548403099,1443548403227,360,403,0,0,0,5,4,1,54,0001-00-0004-49.png,0005-00-0002-66.png
9,72,0,1443548403245,1443548403320,913,541,0,0,0,3,2,1,32,0003-00-0007-61.png,0002-00-0009-65.png
9,73,1,1443548403345,1443548403684,390,407,0,0,0,3,4,1,34,0003-00-0002-94.png,0005-00-0007-99.png
9,74,1,1443548403704,1443548403883,1063,298,0,0,0,5,4,1,54,0001-00-0000-75.png,0005-00-0007-02.png
9,75,1,1443548403904,1443548405734,888,514,0,0,0,3,2,1,32,0003-00-0006-85.png,0002-00-0002-94.png
9,76,0,1443548405762,1443548405902,366,400,0,0,0,2,1,1,21,0002-00-0003-90.png,0004-00-0005-55.png
9,77,1,1443548405933,1443548406432,944,367,0,0,0,2,3,1,23,0002-00-0008-23.png,0003-00-0001-28.png
9,78,1,1443548406465,1443548406760,894,428,0,0,0,1,2,1,12,0004-00-0000-38.png,0002-00-0006-18.png
9,79,1,1443548406782,1443548407085,1071,306,0,0,0,4,3,1,43,0005-00-0004-33.png,0003-00-0007-38.png
9,80,0,1443548407113,1443548408243,964,371,0,0,0,5,4,1,54,0001-00-0006-84.png,0005-00-0004-45.png
9,81,1,1443548408275,1443548409031,858,278,0,0,0,3,4,1,34,0003-00-0003-41.png,0005-00-0003-31.png
9,82,1,1443548409055,1443548410656,865,324,0,0,0,5,4,1,54,0001-00-0007-03.png,0005-00-0006-79.png
9,83,1,1443548410687,1443548411579,859,443,0,0,0,1,2,1,12,0004-00-0004-36.png,0002-00-0005-57.png
9,84,1,1443548411605,1443548411783,370,315,0,0,0,5,4,1,54,0001-00-0005-62.png,0005-00-0006-38.png
9,85,1,1443548411811,1443548412239,353,392,0,0,0,4,3,1,43,0005-00-0003-52.png,0003-00-0007-73.png
9,86,1,1443548412263,1443548413226,1047,272,0,0,0,2,3,1,23,0002-00-0000-55.png,0003-00-0004-84.png
9,87,0,1443548413257,1443548415596,884,472,0,0,0,2,1,1,21,0002-00-0007-41.png,0004-00-0005-23.png
9,88,0,1443548415632,1443548416541,888,541,0,0,0,3,2,1,32,0003-00-0008-17.png,0002-00-0005-45.png
9,89,1,1443548416563,1443548418807,368,399,0,0,0,4,3,1,43,0005-00-0009-40.png,0003-00-0009-84.png
9,90,1,1443548418834,1443548419295,980,410,0,0,0,1,2,1,12,0004-00-0007-86.png,0002-00-0005-89.png
9,91,1,1443548419326,1443548419358,389,412,0,0,0,3,4,1,34,0003-00-0001-10.png,0005-00-0005-82.png
9,92,0,1443548419387,1443548419542,1068,336,0,0,0,5,4,1,54,0001-00-0005-52.png,0005-00-0008-80.png
9,93,1,1443548419578,1443548419718,867,460,0,0,0,3,2,1,32,0003-00-0006-82.png,0002-00-0004-08.png
9,94,0,1443548419738,1443548419789,925,541,0,0,0,2,1,1,21,0002-00-0007-01.png,0004-00-0000-76.png
9,95,1,1443548419806,1443548419855,913,488,0,0,0,5,4,1,54,0001-00-0000-88.png,0005-00-0008-47.png
9,96,1,1443548419885,1443548420025,913,551,0,0,0,2,3,1,23,0002-00-0005-06.png,0003-00-0006-45.png
9,97,1,1443548420047,1443548424910,413,306,0,0,0,5,4,1,54,0001-00-0007-22.png,0005-00-0003-01.png
9,98,1,1443548424947,1443548425235,875,528,0,0,0,3,2,1,32,0003-00-0008-04.png,0002-00-0003-56.png
9,99,0,1443548425260,1443548425543,904,550,0,0,0,1,2,1,12,0004-00-0002-62.png,0002-00-0000-78.png
9,100,1,1443548425581,1443548431308,943,346,0,0,0,2,1,1,21,0002-00-0005-66.png,0004-00-0008-98.png
9,101,0,1443548431336,1443548431996,885,475,0,0,0,2,3,1,23,0002-00-0009-16.png,0003-00-0001-91.png
9,102,1,1443548432036,1443548432168,879,451,0,0,0,3,4,1,34,0003-00-0004-96.png,0005-00-0007-35.png
9,103,0,1443548432205,1443548439614,869,507,0,0,0,4,3,1,43,0005-00-0009-54.png,0003-00-0007-36.png
9,104,0,1443548439640,1443548439810,1144,303,0,0,0,5,4,1,54,0001-00-0005-08.png,0005-00-0003-90.png
9,105,1,1443548439852,1443548443756,351,386,0,0,0,3,4,1,34,0003-00-0003-34.png,0005-00-0005-53.png
9,106,1,1443548443784,1443548443837,884,446,0,0,0,2,3,1,23,0002-00-0003-87.png,0003-00-0000-75.png
9,107,1,1443548443886,1443548443942,324,412,0,0,0,5,4,1,54,0001-00-0002-78.png,0005-00-0003-12.png
9,108,1,1443548443966,1443548445044,875,462,0,0,0,3,2,1,32,0003-00-0004-16.png,0002-00-0006-14.png
9,109,1,1443548445068,1443548445859,891,476,0,0,0,4,3,1,43,0005-00-0009-34.png,0003-00-0002-54.png
9,110,1,1443548445882,1443548446398,862,474,0,0,0,1,2,1,12,0004-00-0004-21.png,0002-00-0008-94.png
9,111,0,1443548446426,1443548447509,924,525,0,0,0,5,4,1,54,0001-00-0004-03.png,0005-00-0000-60.png
9,112,0,1443548447538,1443548447802,862,471,0,0,0,2,1,1,21,0002-00-0009-24.png,0004-00-0002-37.png
9,113,0,1443548447828,1443548448154,955,410,0,0,0,1,2,1,12,0004-00-0009-77.png,0002-00-0006-58.png
9,114,1,1443548448173,1443548448493,874,488,0,0,0,3,4,1,34,0003-00-0000-10.png,0005-00-0009-46.png
9,115,0,1443548448532,1443548448683,950,410,0,0,0,5,4,1,54,0001-00-0007-98.png,0005-00-0003-80.png
9,116,1,1443548448706,1443548450592,432,261,0,0,0,3,2,1,32,0003-00-0006-63.png,0002-00-0005-74.png
9,117,1,1443548450621,1443548450704,951,553,0,0,0,4,3,1,43,0005-00-0003-66.png,0003-00-0003-67.png
9,118,0,1443548450728,1443548450755,964,384,0,0,0,5,4,1,54,0001-00-0001-11.png,0005-00-0009-41.png
9,119,0,1443548450780,1443548451232,897,487,0,0,0,2,3,1,23,0002-00-0003-93.png,0003-00-0007-16.png
9,120,0,1443548451256,1443548451419,883,364,0,0,0,2,1,1,21,0002-00-0001-37.png,0004-00-0006-49.png
9,121,1,1443548451451,1443548452343,882,470,0,0,0,2,3,1,23,0002-00-0006-35.png,0003-00-0009-79.png
9,122,0,1443548452372,1443548454372,360,404,0,0,0,5,4,1,54,0001-00-0001-32.png,0005-00-0000-36.png
9,123,0,1443548454394,1443548454539,949,551,0,0,0,1,2,1,12,0004-00-0003-73.png,0002-00-0002-40.png
9,124,1,1443548454565,1443548456484,872,465,0,0,0,2,1,1,21,0002-00-0006-72.png,0004-00-0007-90.png
9,125,0,1443548456516,1443548456563,869,480,0,0,0,4,3,1,43,0005-00-0009-22.png,0003-00-0006-25.png
9,126,1,1443548456585,1443548457583,959,352,0,0,0,3,4,1,34,0003-00-0005-98.png,0005-00-0000-82.png
9,127,0,1443548457607,1443548457798,923,535,0,0,0,3,2,1,32,0003-00-0004-06.png,0002-00-0005-02.png
9,128,1,1443548457829,1443548457930,889,445,0,0,0,5,4,1,54,0001-00-0004-42.png,0005-00-0008-41.png
9,129,1,1443548457955,1443548458079,386,414,0,0,0,5,4,1,54,0001-00-0001-13.png,0005-00-0003-29.png
9,130,0,1443548458117,1443548458564,888,514,0,0,0,4,3,1,43,0005-00-0006-03.png,0003-00-0001-95.png
9,131,0,1443548458589,1443548466237,340,397,0,0,0,3,4,1,34,0003-00-0003-91.png,0005-00-0004-29.png
9,132,0,1443548466258,1443548466472,938,327,0,0,0,2,3,1,23,0002-00-0000-88.png,0003-00-0003-39.png
9,133,1,1443548466521,1443548467206,920,472,0,0,0,2,1,1,21,0002-00-0000-34.png,0004-00-0006-74.png
9,134,0,1443548467241,1443548467297,893,475,0,0,0,3,2,1,32,0003-00-0005-05.png,0002-00-0004-72.png
9,135,0,1443548467321,1443548467401,873,474,0,0,0,1,2,1,12,0004-00-0003-68.png,0002-00-0001-23.png
9,136,0,1443548467427,1443548467538,340,389,0,0,0,5,4,1,54,0001-00-0006-56.png,0005-00-0000-97.png
9,137,1,1443548467566,1443548469647,876,488,0,0,0,2,1,1,21,0002-00-0008-54.png,0004-00-0001-70.png
9,138,1,1443548469667,1443548472884,988,353,0,0,0,5,4,1,54,0001-00-0009-50.png,0005-00-0001-67.png
9,139,1,1443548472910,1443548472969,879,444,0,0,0,1,2,1,12,0004-00-0006-45.png,0002-00-0005-06.png
9,140,0,1443548473000,1443548473286,339,426,0,0,0,3,2,1,32,0003-00-0000-83.png,0002-00-0006-38.png
9,141,0,1443548473317,1443548473873,906,504,0,0,0,4,3,1,43,0005-00-0005-20.png,0003-00-0008-59.png
9,142,0,1443548473903,1443548474257,873,413,0,0,0,3,4,1,34,0003-00-0004-55.png,0005-00-0008-14.png
9,143,1,1443548474298,1443548474612,437,307,0,0,0,2,3,1,23,0002-00-0002-43.png,0003-00-0002-79.png
9,144,1,1443548474634,1443548476339,1091,299,0,0,0,5,4,1,54,0001-00-0008-56.png,0005-00-0004-27.png
9,145,1,1443548476360,1443548478092,964,410,0,0,0,2,1,1,21,0002-00-0009-33.png,0004-00-0009-05.png
9,146,1,1443548478115,1443548478275,885,415,0,0,0,2,3,1,23,0002-00-0000-78.png,0003-00-0006-45.png
9,147,0,1443548478302,1443548478562,347,401,0,0,0,1,2,1,12,0004-00-0000-31.png,0002-00-0002-16.png
9,148,0,1443548478603,1443548479204,867,412,0,0,0,3,2,1,32,0003-00-0001-24.png,0002-00-0000-08.png
9,149,1,1443548479240,1443548483160,924,552,0,0,0,3,4,1,34,0003-00-0008-42.png,0005-00-0007-43.png
9,150,1,1443548483194,1443548483316,884,463,0,0,0,5,4,1,54,0001-00-0000-52.png,0005-00-0002-44.png
9,151,1,1443548483345,1443548483416,992,385,0,0,0,4,3,1,43,0005-00-0005-99.png,0003-00-0006-05.png
9,152,0,1443548483461,1443548483565,514,473,0,0,0,5,4,1,54,0001-00-0006-26.png,0005-00-0001-08.png
9,153,0,1443548483586,1443548483709,974,430,0,0,0,3,4,1,34,0003-00-0008-40.png,0005-00-0005-78.png
9,154,1,1443548483733,1443548484251,337,387,0,0,0,3,2,1,32,0003-00-0005-21.png,0002-00-0000-47.png
9,155,1,1443548484276,1443548484306,876,306,0,0,0,2,1,1,21,0002-00-0003-52.png,0004-00-0003-47.png
9,156,0,1443548484329,1443548484510,894,357,0,0,0,1,2,1,12,0004-00-0000-38.png,0002-00-0008-03.png
9,157,0,1443548484533,1443548484652,871,436,0,0,0,2,3,1,23,0002-00-0002-39.png,0003-00-0001-03.png
9,158,0,1443548484670,1443548488294,368,365,0,0,0,5,4,1,54,0001-00-0004-11.png,0005-00-0005-15.png
9,159,1,1443548488328,1443548488541,913,488,0,0,0,5,4,1,54,0001-00-0001-94.png,0005-00-0007-87.png
9,160,1,1443548488560,1443548489500,859,473,0,0,0,4,3,1,43,0005-00-0006-13.png,0003-00-0002-95.png
9,161,0,1443548489552,1443548489700,901,502,0,0,0,3,2,1,32,0003-00-0003-44.png,0002-00-0005-01.png
9,162,0,1443548489727,1443548489955,942,327,0,0,0,2,1,1,21,0002-00-0007-42.png,0004-00-0004-31.png
9,163,0,1443548489979,1443548490308,913,502,0,0,0,5,4,1,54,0001-00-0007-08.png,0005-00-0005-90.png
9,164,0,1443548490333,1443548490539,1004,356,0,0,0,1,2,1,12,0004-00-0005-03.png,0002-00-0004-10.png
9,165,1,1443548490562,1443548491038,334,385,0,0,0,2,3,1,23,0002-00-0009-46.png,0003-00-0003-34.png
9,166,1,1443548491068,1443548493124,862,498,0,0,0,4,3,1,43,0005-00-0005-93.png,0003-00-0007-30.png
9,167,0,1443548493152,1443548494095,860,474,0,0,0,3,4,1,34,0003-00-0002-39.png,0005-00-0008-00.png
9,168,1,1443548494126,1443548494310,970,343,0,0,0,5,4,1,54,0001-00-0006-92.png,0005-00-0008-90.png
9,169,1,1443548494341,1443548498159,936,542,0,0,0,5,4,1,54,0001-00-0000-61.png,0005-00-0008-75.png
9,170,1,1443548498192,1443548498319,861,511,0,0,0,3,2,1,32,0003-00-0007-11.png,0002-00-0000-50.png
9,171,0,1443548498355,1443548498458,900,553,0,0,0,4,3,1,43,0005-00-0001-89.png,0003-00-0008-11.png
9,172,1,1443548498485,1443548498603,363,402,0,0,0,2,1,1,21,0002-00-0004-61.png,0004-00-0009-94.png
9,173,1,1443548498634,1443548498763,938,352,0,0,0,1,2,1,12,0004-00-0001-32.png,0002-00-0006-11.png
9,174,0,1443548498790,1443548498904,939,541,0,0,0,3,4,1,34,0003-00-0007-90.png,0005-00-0007-04.png
9,175,0,1443548498939,1443548499493,415,294,0,0,0,2,3,1,23,0002-00-0009-62.png,0003-00-0002-87.png
9,176,0,1443548499515,1443548500427,905,550,0,0,0,5,4,1,54,0001-00-0007-18.png,0005-00-0000-53.png
9,177,1,1443548500445,1443548500589,1016,253,0,0,0,5,4,1,54,0001-00-0005-99.png,0005-00-0009-35.png
9,178,0,1443548500627,1443548501053,448,312,0,0,0,3,2,1,32,0003-00-0000-11.png,0002-00-0004-47.png
9,179,1,1443548501080,1443548501488,379,398,0,0,0,1,2,1,12,0004-00-0005-41.png,0002-00-0009-51.png
9,180,1,1443548501524,1443548501597,1041,279,0,0,0,4,3,1,43,0005-00-0007-31.png,0003-00-0004-33.png
9,181,1,1443548501631,1443548501921,896,443,0,0,0,3,4,1,34,0003-00-0003-72.png,0005-00-0006-60.png
9,182,1,1443548501956,1443548508318,927,514,0,0,0,2,3,1,23,0002-00-0007-22.png,0003-00-0006-85.png
9,183,1,1443548508347,1443548508433,869,504,0,0,0,2,1,1,21,0002-00-0005-80.png,0004-00-0001-41.png
9,184,1,1443548508474,1443548508552,901,529,0,0,0,5,4,1,54,0001-00-0003-79.png,0005-00-0002-82.png
9,185,1,1443548508599,1443548508924,1095,304,0,0,0,4,3,1,43,0005-00-0007-69.png,0003-00-0002-40.png
9,186,1,1443548508946,1443548509765,886,466,0,0,0,5,4,1,54,0001-00-0001-70.png,0005-00-0002-53.png
9,187,0,1443548509796,1443548510097,902,514,0,0,0,2,1,1,21,0002-00-0006-61.png,0004-00-0002-56.png
9,188,0,1443548510126,1443548510307,361,381,0,0,0,3,2,1,32,0003-00-0002-93.png,0002-00-0004-80.png
9,189,1,1443548510350,1443548510590,1113,319,0,0,0,3,4,1,34,0003-00-0002-23.png,0005-00-0007-92.png
9,190,0,1443548510619,1443548510884,923,541,0,0,0,2,3,1,23,0002-00-0009-30.png,0003-00-0006-55.png
9,191,1,1443548510909,1443548510956,424,485,0,0,0,5,4,1,54,0001-00-0002-41.png,0005-00-0006-22.png
9,192,0,1443548510988,1443548511071,964,410,0,0,0,1,2,1,12,0004-00-0000-88.png,0002-00-0008-20.png
9,193,1,1443548511093,1443548511173,360,403,0,0,0,5,4,1,54,0001-00-0008-95.png,0005-00-0009-32.png
9,194,0,1443548511205,1443548511377,430,329,0,0,0,4,3,1,43,0005-00-0001-55.png,0003-00-0009-44.png
9,195,0,1443548511406,1443548512182,422,307,0,0,0,3,2,1,32,0003-00-0008-52.png,0002-00-0004-42.png
9,196,1,1443548512213,1443548512986,900,541,0,0,0,5,4,1,54,0001-00-0005-92.png,0005-00-0007-32.png
9,197,0,1443548513010,1443548513094,873,514,0,0,0,2,1,1,21,0002-00-0004-56.png,0004-00-0004-18.png
9,198,0,1443548513118,1443548513149,874,541,0,0,0,2,3,1,23,0002-00-0009-05.png,0003-00-0000-00.png
9,199,1,1443548513189,1443548513322,862,279,0,0,0,1,2,1,12,0004-00-0003-99.png,0002-00-0000-28.png
9,200,1,1443548513347,1443548513730,872,405,0,0,0,3,4,1,34,0003-00-0009-57.png,0005-00-0009-72.png
9,201,0,1443548513752,1443548514023,868,527,0,0,0,4,3,1,43,0005-00-0008-37.png,0003-00-0000-98.png
9,202,0,1443548514057,1443548514203,394,332,0,0,0,1,2,1,12,0004-00-0003-82.png,0002-00-0003-98.png
9,203,1,1443548514244,1443548514363,1074,303,0,0,0,3,4,1,34,0003-00-0009-34.png,0005-00-0006-46.png
9,204,0,1443548514400,1443548514808,369,400,0,0,0,2,3,1,23,0002-00-0004-70.png,0003-00-0009-00.png
9,205,1,1443548514839,1443548516264,862,329,0,0,0,3,2,1,32,0003-00-0002-90.png,0002-00-0001-67.png
9,206,1,1443548516290,1443548516558,951,553,0,0,0,5,4,1,54,0001-00-0000-68.png,0005-00-0000-24.png
9,207,1,1443548516595,1443548516776,860,435,0,0,0,5,4,1,54,0001-00-0007-48.png,0005-00-0001-52.png
9,208,1,1443548516801,1443548516911,925,552,0,0,0,2,1,1,21,0002-00-0004-83.png,0004-00-0003-48.png
9,209,0,1443548516930,1443548520142,900,488,0,0,0,5,4,1,54,0001-00-0007-46.png,0005-00-0004-15.png
9,210,1,1443548520181,1443548520762,964,353,0,0,0,5,4,1,54,0001-00-0002-47.png,0005-00-0002-91.png
9,211,1,1443548520785,1443548521416,939,425,0,0,0,2,1,1,21,0002-00-0009-85.png,0004-00-0000-26.png
9,212,1,1443548521438,1443548521469,388,384,0,0,0,2,3,1,23,0002-00-0007-82.png,0003-00-0004-28.png
9,213,0,1443548521497,1443548521768,964,400,0,0,0,1,2,1,12,0004-00-0006-74.png,0002-00-0005-09.png
9,214,0,1443548521807,1443548521870,427,279,0,0,0,3,2,1,32,0003-00-0001-90.png,0002-00-0008-22.png
9,215,1,1443548521888,1443548521985,326,403,0,0,0,4,3,1,43,0005-00-0001-28.png,0003-00-0003-27.png
9,216,1,1443548522010,1443548522708,424,307,0,0,0,3,4,1,34,0003-00-0001-53.png,0005-00-0008-33.png
9,217,0,1443548522735,1443548523393,949,551,0,0,0,5,4,1,54,0001-00-0004-82.png,0005-00-0007-48.png
9,218,1,1443548523421,1443548524104,964,395,0,0,0,4,3,1,43,0005-00-0003-54.png,0003-00-0000-71.png
9,219,0,1443548524134,1443548526451,928,410,0,0,0,2,3,1,23,0002-00-0006-18.png,0003-00-0007-07.png
9,220,1,1443548526486,1443548526815,1104,308,0,0,0,3,2,1,32,0003-00-0002-22.png,0002-00-0006-12.png
9,221,1,1443548526842,1443548527195,890,437,0,0,0,5,4,1,54,0001-00-0002-26.png,0005-00-0008-07.png
9,222,0,1443548527222,1443548529025,950,553,0,0,0,2,1,1,21,0002-00-0003-05.png,0004-00-0004-38.png
9,223,1,1443548529058,1443548529465,339,387,0,0,0,3,4,1,34,0003-00-0000-55.png,0005-00-0009-12.png
9,224,1,1443548529498,1443548529601,1039,307,0,0,0,1,2,1,12,0004-00-0006-05.png,0002-00-0006-32.png
9,225,1,1443548529616,1443548529672,873,462,0,0,0,2,1,1,21,0002-00-0008-44.png,0004-00-0005-19.png
9,226,1,1443548529700,1443548531028,990,342,0,0,0,3,4,1,34,0003-00-0009-78.png,0005-00-0001-40.png
9,227,1,1443548531070,1443548531138,890,439,0,0,0,5,4,1,54,0001-00-0008-54.png,0005-00-0005-88.png
9,228,0,1443548531162,1443548531399,937,247,0,0,0,2,3,1,23,0002-00-0008-87.png,0003-00-0008-93.png
9,229,1,1443548531433,1443548531527,420,293,0,0,0,3,2,1,32,0003-00-0008-21.png,0002-00-0004-90.png
9,230,1,1443548531556,1443548532062,1013,307,0,0,0,1,2,1,12,0004-00-0009-74.png,0002-00-0004-73.png
9,231,0,1443548532104,1443548535355,1076,306,0,0,0,5,4,1,54,0001-00-0009-03.png,0005-00-0009-29.png
9,232,0,1443548535378,1443548535601,425,302,0,0,0,4,3,1,43,0005-00-0000-89.png,0003-00-0006-40.png
9,233,1,1443548535628,1443548539399,361,474,0,0,0,3,4,1,34,0003-00-0004-82.png,0005-00-0004-59.png
9,234,1,1443548539429,1443548539592,387,393,0,0,0,2,1,1,21,0002-00-0003-06.png,0004-00-0003-43.png
9,235,0,1443548539629,1443548540543,875,514,0,0,0,4,3,1,43,0005-00-0003-64.png,0003-00-0001-59.png
9,236,1,1443548540569,1443548540757,990,355,0,0,0,5,4,1,54,0001-00-0005-07.png,0005-00-0003-07.png
9,237,1,1443548540784,1443548541037,962,349,0,0,0,3,2,1,32,0003-00-0005-11.png,0002-00-0001-03.png
9,238,1,1443548541059,1443548541209,909,441,0,0,0,5,4,1,54,0001-00-0002-89.png,0005-00-0003-37.png
9,239,1,1443548541233,1443548541455,874,330,0,0,0,1,2,1,12,0004-00-0003-07.png,0002-00-0006-39.png
9,240,0,1443548541486,1443548542111,954,483,0,0,0,2,3,1,23,0002-00-0005-09.png,0003-00-0007-09.png
9,241,1,1443548542126,1443548544104,348,401,0,0,0,5,4,1,54,0001-00-0004-76.png,0005-00-0004-33.png
9,242,1,1443548544137,1443548544481,1065,301,0,0,0,3,4,1,34,0003-00-0009-17.png,0005-00-0002-40.png
9,243,0,1443548544512,1443548544656,921,404,0,0,0,5,4,1,54,0001-00-0008-30.png,0005-00-0005-96.png
9,244,1,1443548544678,1443548544785,354,401,0,0,0,1,2,1,12,0004-00-0006-69.png,0002-00-0005-91.png
9,245,1,1443548544805,1443548545055,1016,462,0,0,0,4,3,1,43,0005-00-0001-58.png,0003-00-0007-10.png
9,246,1,1443548545077,1443548545413,964,398,0,0,0,2,1,1,21,0002-00-0009-61.png,0004-00-0008-89.png
9,247,1,1443548545436,1443548545530,863,386,0,0,0,3,2,1,32,0003-00-0004-25.png,0002-00-0005-94.png
9,248,0,1443548545555,1443548545688,862,424,0,0,0,2,3,1,23,0002-00-0007-71.png,0003-00-0001-95.png
9,249,1,1443548545710,1443548550221,859,444,0,0,0,3,2,1,32,0003-00-0000-80.png,0002-00-0001-08.png
9,250,1,1443548550245,1443548550697,964,395,0,0,0,1,2,1,12,0004-00-0000-93.png,0002-00-0008-65.png
9,251,0,1443548550727,1443548551173,863,500,0,0,0,2,3,1,23,0002-00-0001-97.png,0003-00-0004-45.png
9,252,1,1443548551198,1443548552532,964,393,0,0,0,2,1,1,21,0002-00-0002-95.png,0004-00-0009-41.png
9,253,1,1443548552575,1443548553831,911,488,0,0,0,4,3,1,43,0005-00-0000-43.png,0003-00-0006-16.png
9,254,1,1443548553857,1443548553955,964,421,0,0,0,5,4,1,54,0001-00-0007-21.png,0005-00-0001-90.png
9,255,1,1443548553990,1443548557058,870,484,0,0,0,5,4,1,54,0001-00-0004-14.png,0005-00-0008-90.png
9,256,0,1443548557095,1443548557665,449,296,0,0,0,3,4,1,34,0003-00-0009-18.png,0005-00-0003-41.png
9,257,1,1443548557683,1443548558149,435,271,0,0,0,5,4,1,54,0001-00-0005-66.png,0005-00-0001-51.png
9,258,0,1443548558176,1443548558257,871,514,0,0,0,3,2,1,32,0003-00-0008-02.png,0002-00-0008-29.png
9,259,0,1443548558288,1443548558791,1041,291,0,0,0,5,4,1,54,0001-00-0006-56.png,0005-00-0004-63.png
9,260,0,1443548558828,1443548559178,862,476,0,0,0,3,4,1,34,0003-00-0004-35.png,0005-00-0009-19.png
9,261,1,1443548559203,1443548560133,888,446,0,0,0,1,2,1,12,0004-00-0003-48.png,0002-00-0003-36.png
9,262,1,1443548560160,1443548560358,983,416,0,0,0,4,3,1,43,0005-00-0004-61.png,0003-00-0002-70.png
9,263,0,1443548560383,1443548560468,422,298,0,0,0,2,1,1,21,0002-00-0003-02.png,0004-00-0002-16.png
9,264,1,1443548560498,1443548560586,1020,321,0,0,0,2,3,1,23,0002-00-0009-41.png,0003-00-0009-08.png
9,265,0,1443548560614,1443548560816,948,332,0,0,0,1,2,1,12,0004-00-0003-30.png,0002-00-0009-07.png
9,266,0,1443548560843,1443548561422,1073,330,0,0,0,2,3,1,23,0002-00-0005-46.png,0003-00-0003-18.png
9,267,0,1443548561452,1443548561529,964,238,0,0,0,4,3,1,43,0005-00-0009-98.png,0003-00-0003-86.png
9,268,1,1443548561557,1443548561783,914,485,0,0,0,5,4,1,54,0001-00-0005-72.png,0005-00-0009-88.png
9,269,0,1443548561811,1443548562086,1116,352,0,0,0,2,1,1,21,0002-00-0005-14.png,0004-00-0008-88.png
9,270,1,1443548562120,1443548563465,1067,320,0,0,0,5,4,1,54,0001-00-0006-84.png,0005-00-0009-59.png
9,271,1,1443548563489,1443548563671,888,462,0,0,0,3,2,1,32,0003-00-0009-33.png,0002-00-0001-78.png
9,272,0,1443548563705,1443548564305,862,471,0,0,0,3,4,1,34,0003-00-0007-45.png,0005-00-0005-44.png
9,273,0,1443548564334,1443548564922,339,380,0,0,0,5,4,1,54,0001-00-0005-55.png,0005-00-0003-24.png
9,274,0,1443548564956,1443548565038,1037,315,0,0,0,2,1,1,21,0002-00-0003-86.png,0004-00-0008-41.png
9,275,1,1443548565066,1443548565958,385,302,0,0,0,4,3,1,43,0005-00-0005-87.png,0003-00-0007-39.png
9,276,1,1443548565988,1443548566387,1041,279,0,0,0,2,3,1,23,0002-00-0007-45.png,0003-00-0000-79.png
9,277,1,1443548566415,1443548567781,907,495,0,0,0,1,2,1,12,0004-00-0003-95.png,0002-00-0008-40.png
9,278,1,1443548567818,1443548567960,939,552,0,0,0,3,2,1,32,0003-00-0006-45.png,0002-00-0009-26.png
9,279,0,1443548567983,1443548569996,888,319,0,0,0,3,4,1,34,0003-00-0005-78.png,0005-00-0001-63.png
9,280,1,1443548570018,1443548570150,404,376,0,0,0,5,4,1,54,0001-00-0004-50.png,0005-00-0003-78.png
9,281,1,1443548570177,1443548570349,423,299,0,0,0,2,3,1,23,0002-00-0001-48.png,0003-00-0000-32.png
9,282,0,1443548570374,1443548570781,434,332,0,0,0,3,4,1,34,0003-00-0001-46.png,0005-00-0003-37.png
9,283,1,1443548570814,1443548570965,371,364,0,0,0,4,3,1,43,0005-00-0001-26.png,0003-00-0004-31.png
9,284,0,1443548570995,1443548573183,1068,305,0,0,0,5,4,1,54,0001-00-0003-74.png,0005-00-0009-58.png
9,285,0,1443548573215,1443548574041,888,304,0,0,0,5,4,1,54,0001-00-0008-49.png,0005-00-0002-49.png
9,286,0,1443548574076,1443548574711,1143,322,0,0,0,1,2,1,12,0004-00-0001-20.png,0002-00-0002-42.png
9,287,0,1443548574746,1443548575115,964,423,0,0,0,2,1,1,21,0002-00-0005-81.png,0004-00-0002-89.png
9,288,1,1443548575154,1443548576051,1044,306,0,0,0,3,2,1,32,0003-00-0003-79.png,0002-00-0002-01.png
9,289,1,1443548576081,1443548576207,940,462,0,0,0,5,4,1,54,0001-00-0005-90.png,0005-00-0001-97.png
9,290,1,1443548576249,1443548577415,862,424,0,0,0,3,4,1,34,0003-00-0003-37.png,0005-00-0001-31.png
9,291,1,1443548577457,1443548577859,1011,354,0,0,0,4,3,1,43,0005-00-0005-65.png,0003-00-0004-69.png
9,292,0,1443548577889,1443548578092,913,488,0,0,0,1,2,1,12,0004-00-0009-78.png,0002-00-0007-83.png
9,293,0,1443548578129,1443548578338,940,256,0,0,0,2,3,1,23,0002-00-0004-11.png,0003-00-0001-64.png
9,294,0,1443548578360,1443548579397,964,332,0,0,0,5,4,1,54,0001-00-0008-25.png,0005-00-0004-37.png
9,295,0,1443548579423,1443548580914,868,473,0,0,0,2,1,1,21,0002-00-0001-46.png,0004-00-0008-45.png
9,296,1,1443548580934,1443548581005,994,334,0,0,0,3,2,1,32,0003-00-0002-90.png,0002-00-0003-12.png
9,297,1,1443548581041,1443548581603,888,483,0,0,0,5,4,1,54,0001-00-0008-63.png,0005-00-0000-12.png
9,298,1,1443548581626,1443548581928,970,389,0,0,0,2,3,1,23,0002-00-0000-36.png,0003-00-0004-84.png
9,299,1,1443548581960,1443548582001,885,459,0,0,0,2,1,1,21,0002-00-0003-24.png,0004-00-0003-43.png
9,300,0,1443548582030,1443548583687,893,501,0,0,0,3,2,1,32,0003-00-0002-77.png,0002-00-0001-76.png
9,301,1,1443548583706,1443548584491,913,541,0,0,0,4,3,1,43,0005-00-0001-48.png,0003-00-0009-63.png
9,302,1,1443548584528,1443548585553,903,253,0,0,0,5,4,1,54,0001-00-0000-30.png,0005-00-0002-43.png
9,303,1,1443548585579,1443548603878,964,419,0,0,0,3,4,1,34,0003-00-0004-78.png,0005-00-0004-66.png
9,304,1,1443548603913,1443548605259,860,492,0,0,0,1,2,1,12,0004-00-0008-68.png,0002-00-0007-02.png
9,305,0,1443548605284,1443548607459,964,342,0,0,0,3,2,1,32,0003-00-0005-05.png,0002-00-0008-16.png
9,306,1,1443548607497,1443548607681,865,353,0,0,0,5,4,1,54,0001-00-0009-35.png,0005-00-0000-22.png
9,307,0,1443548607710,1443548607828,949,358,0,0,0,3,4,1,34,0003-00-0008-19.png,0005-00-0001-38.png
9,308,0,1443548607866,1443548612169,442,288,0,0,0,1,2,1,12,0004-00-0001-07.png,0002-00-0000-63.png
9,309,0,1443548612194,1443548612527,858,424,0,0,0,5,4,1,54,0001-00-0001-65.png,0005-00-0003-36.png
9,310,1,1443548612556,1443548613003,901,306,0,0,0,2,1,1,21,0002-00-0008-04.png,0004-00-0007-68.png
9,311,0,1443548613034,1443548613575,857,462,0,0,0,2,3,1,23,0002-00-0001-32.png,0003-00-0001-00.png
9,312,0,1443548613601,1443548613634,459,316,0,0,0,4,3,1,43,0005-00-0002-02.png,0003-00-0008-39.png
9,313,1,1443548613664,1443548614265,1041,348,0,0,0,5,4,1,54,0001-00-0001-19.png,0005-00-0009-22.png
9,314,1,1443548614292,1443548614421,862,506,0,0,0,1,2,1,12,0004-00-0008-57.png,0002-00-0000-09.png
9,315,0,1443548614472,1443548617600,872,506,0,0,0,3,4,1,34,0003-00-0009-33.png,0005-00-0000-79.png
9,316,0,1443548617626,1443548617709,1123,314,0,0,0,5,4,1,54,0001-00-0002-90.png,0005-00-0002-99.png
9,317,1,1443548617740,1443548619145,865,434,0,0,0,4,3,1,43,0005-00-0000-76.png,0003-00-0007-44.png
9,318,0,1443548619194,1443548619350,964,348,0,0,0,2,3,1,23,0002-00-0002-67.png,0003-00-0004-17.png
9,319,1,1443548619390,1443548619613,383,411,0,0,0,3,2,1,32,0003-00-0002-81.png,0002-00-0000-62.png
9,320,0,1443548619641,1443548621115,925,358,0,0,0,2,1,1,21,0002-00-0006-38.png,0004-00-0008-36.png
9,321,1,1443548621146,1443548622585,964,384,0,0,0,2,3,1,23,0002-00-0003-90.png,0003-00-0004-56.png
9,322,0,1443548622607,1443548623043,942,422,0,0,0,4,3,1,43,0005-00-0004-87.png,0003-00-0000-78.png
9,323,0,1443548623082,1443548623504,990,396,0,0,0,2,1,1,21,0002-00-0009-01.png,0004-00-0001-56.png
9,324,1,1443548623547,1443548624902,368,387,0,0,0,1,2,1,12,0004-00-0006-69.png,0002-00-0002-51.png
9,325,0,1443548624933,1443548625537,942,432,0,0,0,3,4,1,34,0003-00-0005-61.png,0005-00-0008-58.png
9,326,0,1443548625562,1443548625619,928,470,0,0,0,5,4,1,54,0001-00-0007-58.png,0005-00-0007-32.png
9,327,0,1443548625646,1443548626355,952,410,0,0,0,3,2,1,32,0003-00-0005-77.png,0002-00-0003-02.png
9,328,0,1443548626381,1443548626388,857,494,0,0,0,5,4,1,54,0001-00-0008-71.png,0005-00-0009-86.png
9,329,1,1443548626410,1443548626436,939,393,0,0,0,2,1,1,21,0002-00-0006-69.png,0004-00-0007-84.png
9,330,0,1443548626473,1443548626640,458,254,0,0,0,5,4,1,54,0001-00-0009-46.png,0005-00-0000-73.png
9,331,1,1443548626679,1443548627149,862,555,0,0,0,3,4,1,34,0003-00-0007-76.png,0005-00-0008-80.png
9,332,0,1443548627189,1443548627520,427,289,0,0,0,2,3,1,23,0002-00-0008-07.png,0003-00-0007-18.png
9,333,1,1443548627543,1443548630633,864,501,0,0,0,1,2,1,12,0004-00-0004-87.png,0002-00-0003-54.png
9,334,1,1443548630658,1443548631999,899,552,0,0,0,3,2,1,32,0003-00-0008-46.png,0002-00-0006-37.png
9,335,0,1443548632024,1443548632272,862,446,0,0,0,4,3,1,43,0005-00-0005-28.png,0003-00-0006-58.png
9,336,0,1443548632301,1443548632488,931,551,0,0,0,5,4,1,54,0001-00-0005-30.png,0005-00-0001-63.png
9,337,1,1443548632518,1443548632623,1013,381,0,0,0,1,2,1,12,0004-00-0000-91.png,0002-00-0000-69.png
9,338,1,1443548632648,1443548632722,369,449,0,0,0,3,2,1,32,0003-00-0000-13.png,0002-00-0007-15.png
9,339,1,1443548632748,1443548634913,888,514,0,0,0,2,3,1,23,0002-00-0004-25.png,0003-00-0000-21.png
9,340,1,1443548634929,1443548634939,899,541,0,0,0,4,3,1,43,0005-00-0008-46.png,0003-00-0007-48.png
9,341,1,1443548634978,1443548635257,892,343,0,0,0,2,1,1,21,0002-00-0008-86.png,0004-00-0002-36.png
9,342,1,1443548635280,1443548635337,888,488,0,0,0,5,4,1,54,0001-00-0002-06.png,0005-00-0009-76.png
9,343,1,1443548635382,1443548636031,862,437,0,0,0,5,4,1,54,0001-00-0000-99.png,0005-00-0007-92.png
9,344,0,1443548636063,1443548636268,373,369,0,0,0,3,4,1,34,0003-00-0002-63.png,0005-00-0007-29.png
9,345,1,1443548636299,1443548636890,991,309,0,0,0,3,4,1,34,0003-00-0005-83.png,0005-00-0008-47.png
9,346,0,1443548636938,1443548637094,888,373,0,0,0,1,2,1,12,0004-00-0000-18.png,0002-00-0005-59.png
9,347,1,1443548637122,1443548637769,407,300,0,0,0,5,4,1,54,0001-00-0003-82.png,0005-00-0001-08.png
9,348,1,1443548637792,1443548638150,406,272,0,0,0,3,2,1,32,0003-00-0000-06.png,0002-00-0004-66.png
9,349,0,1443548638172,1443548638467,1066,308,0,0,0,2,3,1,23,0002-00-0002-11.png,0003-00-0008-57.png
9,350,0,1443548638501,1443548638845,960,434,0,0,0,2,1,1,21,0002-00-0008-66.png,0004-00-0006-36.png
9,351,1,1443548638887,1443548639168,889,488,0,0,0,5,4,1,54,0001-00-0005-84.png,0005-00-0004-46.png
9,352,0,1443548639198,1443548647396,459,271,0,0,0,4,3,1,43,0005-00-0008-03.png,0003-00-0008-74.png
9,353,1,1443548647419,1443548647889,1049,337,0,0,0,5,4,1,54,0001-00-0001-87.png,0005-00-0007-24.png
9,354,1,1443548647920,1443548649041,1016,332,0,0,0,1,2,1,12,0004-00-0009-77.png,0002-00-0003-71.png
9,355,1,1443548649066,1443548649293,1082,325,0,0,0,3,2,1,32,0003-00-0003-38.png,0002-00-0004-72.png
9,356,1,1443548649315,1443548649835,888,460,0,0,0,2,3,1,23,0002-00-0006-20.png,0003-00-0001-47.png
9,357,1,1443548649861,1443548654313,900,453,0,0,0,5,4,1,54,0001-00-0001-87.png,0005-00-0001-79.png
9,358,0,1443548654339,1443548654668,333,377,0,0,0,3,4,1,34,0003-00-0006-68.png,0005-00-0000-11.png
9,359,0,1443548654693,1443548654719,954,444,0,0,0,2,1,1,21,0002-00-0001-44.png,0004-00-0009-47.png
9,360,1,1443548654744,1443548656646,892,462,0,0,0,4,3,1,43,0005-00-0008-90.png,0003-00-0005-28.png
9,361,1,1443548656681,1443548656734,446,287,0,0,0,3,2,1,32,0003-00-0002-38.png,0002-00-0003-20.png
9,362,1,1443548656769,1443548656867,954,410,0,0,0,2,3,1,23,0002-00-0000-82.png,0003-00-0000-67.png
9,363,1,1443548656903,1443548657086,888,502,0,0,0,5,4,1,54,0001-00-0004-29.png,0005-00-0002-44.png
9,364,1,1443548657110,1443548657853,361,407,0,0,0,1,2,1,12,0004-00-0004-86.png,0002-00-0000-32.png
9,365,1,1443548657882,1443548657968,913,349,0,0,0,5,4,1,54,0001-00-0004-00.png,0005-00-0006-49.png
9,366,1,1443548658000,1443548658087,383,351,0,0,0,2,1,1,21,0002-00-0006-67.png,0004-00-0001-45.png
9,367,1,1443548658123,1443548658729,1076,304,0,0,0,4,3,1,43,0005-00-0002-56.png,0003-00-0004-97.png
9,368,1,1443548658759,1443548660309,864,419,0,0,0,3,4,1,34,0003-00-0006-95.png,0005-00-0003-65.png
9,369,1,1443548660342,1443548662236,355,373,0,0,0,3,4,1,34,0003-00-0006-13.png,0005-00-0009-46.png
9,370,1,1443548662259,1443548662303,429,298,0,0,0,2,3,1,23,0002-00-0004-13.png,0003-00-0007-11.png
9,371,0,1443548662339,1443548662478,451,283,0,0,0,2,1,1,21,0002-00-0001-59.png,0004-00-0006-45.png
9,372,0,1443548662503,1443548662561,995,410,0,0,0,3,2,1,32,0003-00-0008-74.png,0002-00-0004-76.png
9,373,1,1443548662590,1443548662846,365,396,0,0,0,5,4,1,54,0001-00-0003-01.png,0005-00-0009-09.png
9,374,0,1443548662873,1443548663091,939,348,0,0,0,5,4,1,54,0001-00-0004-08.png,0005-00-0003-28.png
9,375,0,1443548663137,1443548663159,975,381,0,0,0,1,2,1,12,0004-00-0009-63.png,0002-00-0001-74.png
9,376,1,1443548663192,1443548663237,888,349,0,0,0,4,3,1,43,0005-00-0006-74.png,0003-00-0002-17.png
9,377,0,1443548663296,1443548664126,430,283,0,0,0,2,3,1,23,0002-00-0009-32.png,0003-00-0005-66.png
9,378,0,1443548664155,1443548664331,911,356,0,0,0,3,4,1,34,0003-00-0009-01.png,0005-00-0005-55.png
9,379,1,1443548664362,1443548672784,1067,332,0,0,0,3,2,1,32,0003-00-0008-27.png,0002-00-0009-15.png
9,380,0,1443548672804,1443548672990,435,279,0,0,0,5,4,1,54,0001-00-0005-40.png,0005-00-0005-60.png
9,381,1,1443548673014,1443548673967,918,353,0,0,0,5,4,1,54,0001-00-0002-11.png,0005-00-0008-27.png
9,382,0,1443548673992,1443548674668,443,280,0,0,0,1,2,1,12,0004-00-0007-83.png,0002-00-0000-61.png
9,383,1,1443548674690,1443548674853,1058,256,0,0,0,2,1,1,21,0002-00-0001-28.png,0004-00-0001-20.png
9,384,0,1443548674872,1443548675245,861,438,0,0,0,4,3,1,43,0005-00-0005-05.png,0003-00-0008-71.png
9,385,1,1443548675281,1443548675351,862,453,0,0,0,2,1,1,21,0002-00-0009-30.png,0004-00-0004-50.png
9,386,1,1443548675380,1443548675774,447,271,0,0,0,3,4,1,34,0003-00-0008-85.png,0005-00-0003-48.png
9,387,0,1443548675798,1443548676488,355,392,0,0,0,1,2,1,12,0004-00-0003-49.png,0002-00-0005-93.png
9,388,0,1443548676518,1443548677226,444,309,0,0,0,5,4,1,54,0001-00-0005-48.png,0005-00-0007-62.png
9,389,0,1443548677252,1443548678259,1054,311,0,0,0,2,3,1,23,0002-00-0005-59.png,0003-00-0004-90.png
9,390,0,1443548678284,1443548678679,964,488,0,0,0,4,3,1,43,0005-00-0004-52.png,0003-00-0007-88.png
9,391,1,1443548678700,1443548679165,876,351,0,0,0,3,2,1,32,0003-00-0001-73.png,0002-00-0001-26.png
9,392,0,1443548679181,1443548679331,964,358,0,0,0,5,4,1,54,0001-00-0009-05.png,0005-00-0003-56.png
9,393,0,1443548679367,1443548680663,862,410,0,0,0,4,3,1,43,0005-00-0008-89.png,0003-00-0005-92.png
9,394,0,1443548680682,1443548680707,400,394,0,0,0,5,4,1,54,0001-00-0005-80.png,0005-00-0009-74.png
9,395,1,1443548680747,1443548680911,491,277,0,0,0,2,3,1,23,0002-00-0006-10.png,0003-00-0001-44.png
9,396,0,1443548680952,1443548681394,939,358,0,0,0,3,4,1,34,0003-00-0001-01.png,0005-00-0009-16.png
9,397,1,1443548681420,1443548681868,860,334,0,0,0,5,4,1,54,0001-00-0002-58.png,0005-00-0008-27.png
9,398,1,1443548681885,1443548682589,888,471,0,0,0,3,2,1,32,0003-00-0003-36.png,0002-00-0003-46.png
9,399,1,1443548682611,1443548682720,1070,277,0,0,0,1,2,1,12,0004-00-0008-92.png,0002-00-0009-48.png
9,400,1,1443548682737,1443548682908,864,489,0,0,0,2,1,1,21,0002-00-0000-54.png,0004-00-0002-11.png
9,401,0,1443548682937,1443548692561,455,261,0,0,0,3,2,1,32,0003-00-0001-33.png,0002-00-0009-13.png
9,402,0,1443548692593,1443548693365,1041,289,0,0,0,2,1,1,21,0002-00-0007-02.png,0004-00-0007-21.png
9,403,1,1443548693395,1443548694100,866,440,0,0,0,3,4,1,34,0003-00-0006-29.png,0005-00-0001-01.png
9,404,1,1443548694140,1443548694160,473,263,0,0,0,4,3,1,43,0005-00-0007-48.png,0003-00-0009-91.png
9,405,0,1443548694193,1443548696240,386,510,0,0,0,5,4,1,54,0001-00-0007-19.png,0005-00-0003-49.png
9,406,1,1443548696267,1443548696297,876,436,0,0,0,2,3,1,23,0002-00-0007-84.png,0003-00-0004-18.png
9,407,1,1443548696330,1443548696443,871,448,0,0,0,5,4,1,54,0001-00-0006-05.png,0005-00-0002-64.png
9,408,1,1443548696467,1443548696728,498,289,0,0,0,1,2,1,12,0004-00-0004-81.png,0002-00-0007-14.png
9,409,1,1443548696758,1443548696768,942,352,0,0,0,3,2,1,32,0003-00-0006-29.png,0002-00-0001-17.png
9,410,0,1443548696794,1443548697653,912,333,0,0,0,2,1,1,21,0002-00-0001-51.png,0004-00-0005-72.png
9,411,1,1443548697684,1443548697796,911,493,0,0,0,5,4,1,54,0001-00-0006-36.png,0005-00-0009-19.png
9,412,0,1443548697822,1443548698106,862,475,0,0,0,5,4,1,54,0001-00-0007-35.png,0005-00-0005-13.png
9,413,0,1443548698134,1443548698176,378,388,0,0,0,1,2,1,12,0004-00-0007-34.png,0002-00-0007-77.png
9,414,1,1443548698195,1443548704566,860,438,0,0,0,4,3,1,43,0005-00-0003-50.png,0003-00-0001-12.png
9,415,1,1443548704603,1443548704691,357,403,0,0,0,2,3,1,23,0002-00-0006-87.png,0003-00-0000-75.png
9,416,0,1443548704729,1443548705279,913,355,0,0,0,3,4,1,34,0003-00-0002-85.png,0005-00-0001-09.png
9,417,0,1443548705300,1443548705479,432,308,0,0,0,3,4,1,34,0003-00-0005-46.png,0005-00-0005-16.png
9,418,0,1443548705507,1443548706956,345,388,0,0,0,5,4,1,54,0001-00-0003-80.png,0005-00-0006-45.png
9,419,1,1443548706991,1443548707695,451,299,0,0,0,2,3,1,23,0002-00-0002-33.png,0003-00-0002-23.png
9,420,0,1443548707733,1443548707816,432,268,0,0,0,1,2,1,12,0004-00-0002-40.png,0002-00-0004-05.png
9,421,1,1443548707847,1443548710253,865,494,0,0,0,2,1,1,21,0002-00-0003-57.png,0004-00-0002-07.png
9,422,0,1443548710285,1443548713715,389,389,0,0,0,3,2,1,32,0003-00-0007-94.png,0002-00-0005-61.png
9,423,1,1443548713749,1443548714285,975,429,0,0,0,4,3,1,43,0005-00-0007-43.png,0003-00-0004-33.png
9,424,0,1443548714312,1443548714586,1108,279,0,0,0,5,4,1,54,0001-00-0004-16.png,0005-00-0002-14.png
9,425,1,1443548714617,1443548714848,865,460,0,0,0,5,4,1,54,0001-00-0002-86.png,0005-00-0007-73.png
9,426,0,1443548714872,1443548716574,890,348,0,0,0,1,2,1,12,0004-00-0004-93.png,0002-00-0002-35.png
9,427,1,1443548716603,1443548719601,915,494,0,0,0,5,4,1,54,0001-00-0001-20.png,0005-00-0005-01.png
9,428,0,1443548719629,1443548719697,965,327,0,0,0,2,3,1,23,0002-00-0007-90.png,0003-00-0003-63.png
9,429,0,1443548719720,1443548720084,896,465,0,0,0,4,3,1,43,0005-00-0009-90.png,0003-00-0003-28.png
9,430,0,1443548720115,1443548720592,1026,306,0,0,0,3,4,1,34,0003-00-0002-39.png,0005-00-0003-01.png
9,431,0,1443548720616,1443548720940,930,410,0,0,0,3,2,1,32,0003-00-0003-50.png,0002-00-0007-49.png
9,432,0,1443548720968,1443548722115,317,404,0,0,0,2,1,1,21,0002-00-0004-56.png,0004-00-0006-55.png
9,433,1,1443548722146,1443548723560,860,445,0,0,0,3,4,1,34,0003-00-0000-77.png,0005-00-0003-75.png
9,434,1,1443548723601,1443548723739,1041,288,0,0,0,2,3,1,23,0002-00-0005-00.png,0003-00-0004-40.png
9,435,1,1443548723769,1443548723782,890,449,0,0,0,5,4,1,54,0001-00-0009-58.png,0005-00-0003-99.png
9,436,1,1443548723808,1443548724191,859,328,0,0,0,1,2,1,12,0004-00-0002-71.png,0002-00-0000-22.png
9,437,1,1443548724212,1443548724972,965,407,0,0,0,4,3,1,43,0005-00-0000-02.png,0003-00-0008-09.png
9,438,0,1443548724990,1443548725196,429,279,0,0,0,2,1,1,21,0002-00-0002-81.png,0004-00-0005-23.png
9,439,0,1443548725220,1443548725463,427,293,0,0,0,5,4,1,54,0001-00-0009-95.png,0005-00-0007-94.png
9,440,0,1443548725503,1443548725925,939,445,0,0,0,3,2,1,32,0003-00-0000-89.png,0002-00-0005-25.png
9,441,1,1443548725972,1443548726317,878,488,0,0,0,1,2,1,12,0004-00-0000-75.png,0002-00-0005-96.png
9,442,1,1443548726337,1443548728921,351,417,0,0,0,2,1,1,21,0002-00-0000-11.png,0004-00-0002-80.png
9,443,1,1443548728944,1443548729539,941,370,0,0,0,5,4,1,54,0001-00-0006-18.png,0005-00-0001-90.png
9,444,1,1443548729580,1443548729687,928,433,0,0,0,3,4,1,34,0003-00-0004-77.png,0005-00-0007-92.png
9,445,1,1443548729707,1443548729782,1078,327,0,0,0,2,3,1,23,0002-00-0003-75.png,0003-00-0004-04.png
9,446,1,1443548729817,1443548730240,427,291,0,0,0,4,3,1,43,0005-00-0003-30.png,0003-00-0008-11.png
9,447,1,1443548730265,1443548732369,958,469,0,0,0,3,2,1,32,0003-00-0001-87.png,0002-00-0003-91.png
9,448,0,1443548732396,1443548732618,358,400,0,0,0,5,4,1,54,0001-00-0006-00.png,0005-00-0003-35.png
9,449,1,1443548732642,1443548740842,452,270,0,0,0,5,4,1,54,0001-00-0001-34.png,0005-00-0004-45.png
9,450,1,1443548740881,1443548742164,866,326,0,0,0,3,4,1,34,0003-00-0002-58.png,0005-00-0009-34.png
9,451,0,1443548742186,1443548745064,932,417,0,0,0,3,2,1,32,0003-00-0006-86.png,0002-00-0001-16.png
9,452,1,1443548745088,1443548745303,913,462,0,0,0,1,2,1,12,0004-00-0006-58.png,0002-00-0000-36.png
9,453,1,1443548745330,1443548745378,862,488,0,0,0,4,3,1,43,0005-00-0000-88.png,0003-00-0005-87.png
9,454,0,1443548745407,1443548745454,888,478,0,0,0,5,4,1,54,0001-00-0000-85.png,0005-00-0008-51.png
9,455,0,1443548745497,1443548746372,928,279,0,0,0,2,1,1,21,0002-00-0006-31.png,0004-00-0004-85.png
9,456,1,1443548746403,1443548746660,378,404,0,0,0,2,3,1,23,0002-00-0001-21.png,0003-00-0006-25.png
9,457,1,1443548746681,1443548747247,913,453,0,0,0,3,2,1,32,0003-00-0009-96.png,0002-00-0005-93.png
9,458,0,1443548747290,1443548748017,987,275,0,0,0,3,4,1,34,0003-00-0009-64.png,0005-00-0009-91.png
9,459,0,1443548748047,1443548748107,964,424,0,0,0,2,3,1,23,0002-00-0004-86.png,0003-00-0003-66.png
9,460,0,1443548748143,1443548748213,888,462,0,0,0,2,1,1,21,0002-00-0003-98.png,0004-00-0006-87.png
9,461,1,1443548748235,1443548748303,389,403,0,0,0,5,4,1,54,0001-00-0002-76.png,0005-00-0007-95.png
9,462,1,1443548748327,1443548748669,958,418,0,0,0,5,4,1,54,0001-00-0001-30.png,0005-00-0001-20.png
9,463,0,1443548748693,1443548748951,1062,325,0,0,0,4,3,1,43,0005-00-0001-09.png,0003-00-0005-70.png
9,464,1,1443548748972,1443548750357,1067,306,0,0,0,1,2,1,12,0004-00-0008-49.png,0002-00-0004-51.png
9,465,1,1443548750397,1443548750505,1042,297,0,0,0,2,1,1,21,0002-00-0005-76.png,0004-00-0005-93.png
9,466,0,1443548750533,1443548750544,892,437,0,0,0,3,2,1,32,0003-00-0006-06.png,0002-00-0008-73.png
9,467,1,1443548750586,1443548750651,913,488,0,0,0,4,3,1,43,0005-00-0007-35.png,0003-00-0005-76.png
9,468,1,1443548750675,1443548750923,363,379,0,0,0,5,4,1,54,0001-00-0001-56.png,0005-00-0009-23.png
9,469,1,1443548750950,1443548751479,427,306,0,0,0,1,2,1,12,0004-00-0007-72.png,0002-00-0006-79.png
9,470,1,1443548751532,1443548751661,1081,332,0,0,0,2,3,1,23,0002-00-0000-10.png,0003-00-0002-85.png
9,471,1,1443548751710,1443548752101,913,374,0,0,0,3,4,1,34,0003-00-0006-35.png,0005-00-0005-32.png
9,472,0,1443548752132,1443548755056,881,433,0,0,0,5,4,1,54,0001-00-0006-12.png,0005-00-0008-19.png
9,473,0,1443548755077,1443548755106,916,385,0,0,0,3,2,1,32,0003-00-0006-46.png,0002-00-0003-43.png
9,474,1,1443548755122,1443548755514,324,404,0,0,0,5,4,1,54,0001-00-0007-31.png,0005-00-0006-40.png
9,475,0,1443548755538,1443548755610,372,390,0,0,0,4,3,1,43,0005-00-0002-96.png,0003-00-0009-41.png
9,476,1,1443548755638,1443548762491,965,352,0,0,0,5,4,1,54,0001-00-0008-94.png,0005-00-0006-46.png
9,477,1,1443548762514,1443548763208,395,399,0,0,0,1,2,1,12,0004-00-0004-21.png,0002-00-0009-87.png
9,478,0,1443548763240,1443548763578,424,272,0,0,0,3,4,1,34,0003-00-0007-25.png,0005-00-0001-37.png
9,479,0,1443548763623,1443548764023,429,288,0,0,0,2,3,1,23,0002-00-0005-92.png,0003-00-0006-77.png
9,480,0,1443548764052,1443548764316,417,257,0,0,0,2,1,1,21,0002-00-0000-51.png,0004-00-0005-20.png
9,481,0,1443548764367,1443548764474,418,410,0,0,0,4,3,1,43,0005-00-0005-49.png,0003-00-0002-77.png
9,482,1,1443548764499,1443548766176,401,423,0,0,0,3,4,1,34,0003-00-0005-18.png,0005-00-0000-18.png
9,483,0,1443548766203,1443548769356,377,398,0,0,0,2,3,1,23,0002-00-0006-24.png,0003-00-0004-98.png
9,484,1,1443548769390,1443548769475,880,470,0,0,0,5,4,1,54,0001-00-0003-91.png,0005-00-0001-11.png
9,485,1,1443548769503,1443548770002,435,267,0,0,0,5,4,1,54,0001-00-0007-88.png,0005-00-0007-50.png
9,486,1,1443548770023,1443548770072,960,384,0,0,0,1,2,1,12,0004-00-0001-16.png,0002-00-0007-44.png
9,487,1,1443548770096,1443548771038,888,462,0,0,0,2,1,1,21,0002-00-0009-41.png,0004-00-0001-25.png
9,488,1,1443548771074,1443548771904,360,399,0,0,0,3,2,1,32,0003-00-0006-99.png,0002-00-0002-73.png
9,489,1,1443548771933,1443548772205,1067,302,0,0,0,5,4,1,54,0001-00-0003-92.png,0005-00-0005-75.png
9,490,0,1443548772230,1443548772470,990,323,0,0,0,3,2,1,32,0003-00-0006-99.png,0002-00-0005-45.png
9,491,1,1443548772495,1443548772545,1050,279,0,0,0,3,4,1,34,0003-00-0000-65.png,0005-00-0006-22.png
9,492,0,1443548772568,1443548772595,895,395,0,0,0,5,4,1,54,0001-00-0003-94.png,0005-00-0003-11.png
9,493,0,1443548772611,1443548773475,453,304,0,0,0,2,1,1,21,0002-00-0007-66.png,0004-00-0000-79.png
9,494,0,1443548773500,1443548775226,913,436,0,0,0,4,3,1,43,0005-00-0004-07.png,0003-00-0007-71.png
9,495,1,1443548775255,1443548776120,939,553,0,0,0,1,2,1,12,0004-00-0001-09.png,0002-00-0009-88.png
9,496,0,1443548776148,1443548785072,885,500,0,0,0,2,3,1,23,0002-00-0000-64.png,0003-00-0006-05.png
9,497,0,1443548785091,1443548785262,907,332,0,0,0,5,4,1,54,0001-00-0007-18.png,0005-00-0007-26.png
9,498,0,1443548785292,1443548785711,917,455,0,0,0,4,3,1,43,0005-00-0009-72.png,0003-00-0009-72.png
9,499,1,1443548785735,1443548786011,939,552,0,0,0,5,4,1,54,0001-00-0002-67.png,0005-00-0005-86.png
9,500,0,1443548786035,1443548786373,362,390,0,0,0,2,1,1,21,0002-00-0000-60.png,0004-00-0001-16.png
9,501,0,1443548786396,1443548786593,881,365,0,0,0,2,3,1,23,0002-00-0005-72.png,0003-00-0003-86.png
9,502,0,1443548786629,1443548786768,925,527,0,0,0,3,2,1,32,0003-00-0003-19.png,0002-00-0001-05.png
9,503,0,1443548786796,1443548787060,884,415,0,0,0,1,2,1,12,0004-00-0003-75.png,0002-00-0003-18.png
9,504,0,1443548787073,1443548787480,374,369,0,0,0,3,4,1,34,0003-00-0005-62.png,0005-00-0002-33.png
9,505,0,1443548787509,1443548787878,1056,314,0,0,0,5,4,1,54,0001-00-0002-28.png,0005-00-0005-80.png
9,506,0,1443548787917,1443548788278,869,370,0,0,0,2,3,1,23,0002-00-0000-35.png,0003-00-0007-87.png
9,507,1,1443548788312,1443548788651,382,403,0,0,0,3,2,1,32,0003-00-0002-38.png,0002-00-0005-78.png
9,508,0,1443548788680,1443548788726,868,454,0,0,0,2,1,1,21,0002-00-0005-42.png,0004-00-0009-42.png
9,509,1,1443548788753,1443548791497,888,436,0,0,0,4,3,1,43,0005-00-0003-71.png,0003-00-0005-70.png
9,510,0,1443548791527,1443548791603,462,296,0,0,0,3,4,1,34,0003-00-0000-27.png,0005-00-0001-40.png
9,511,1,1443548791640,1443548793397,925,553,0,0,0,5,4,1,54,0001-00-0001-39.png,0005-00-0005-56.png
9,512,0,1443548793421,1443548793489,878,468,0,0,0,1,2,1,12,0004-00-0007-99.png,0002-00-0004-12.png
9,513,1,1443548793512,1443548794146,888,475,0,0,0,1,2,1,12,0004-00-0000-97.png,0002-00-0008-18.png
9,514,1,1443548794170,1443548794372,1066,289,0,0,0,4,3,1,43,0005-00-0003-58.png,0003-00-0005-15.png
9,515,0,1443548794398,1443548794623,867,428,0,0,0,3,2,1,32,0003-00-0007-67.png,0002-00-0006-73.png
9,516,0,1443548794646,1443548794879,440,301,0,0,0,5,4,1,54,0001-00-0006-97.png,0005-00-0007-06.png
9,517,1,1443548794909,1443548795037,380,422,0,0,0,2,3,1,23,0002-00-0007-92.png,0003-00-0009-66.png
9,518,1,1443548795073,1443548795960,868,456,0,0,0,5,4,1,54,0001-00-0007-59.png,0005-00-0009-51.png
9,519,1,1443548795991,1443548796226,939,541,0,0,0,2,1,1,21,0002-00-0006-40.png,0004-00-0005-86.png
9,520,0,1443548796249,1443548796353,954,337,0,0,0,3,4,1,34,0003-00-0004-97.png,0005-00-0002-88.png
9,521,1,1443548796374,1443548796731,862,462,0,0,0,4,3,1,43,0005-00-0001-30.png,0003-00-0004-64.png
9,522,0,1443548796761,1443548797380,1092,296,0,0,0,3,4,1,34,0003-00-0008-81.png,0005-00-0007-85.png
9,523,1,1443548797404,1443548799204,890,352,0,0,0,5,4,1,54,0001-00-0007-20.png,0005-00-0004-83.png
9,524,0,1443548799240,1443548799960,428,306,0,0,0,1,2,1,12,0004-00-0007-36.png,0002-00-0006-12.png
9,525,1,1443548799986,1443548802910,465,279,0,0,0,2,3,1,23,0002-00-0004-72.png,0003-00-0002-35.png
9,526,0,1443548802951,1443548803777,476,260,0,0,0,2,1,1,21,0002-00-0005-20.png,0004-00-0009-40.png
9,527,0,1443548803806,1443548804283,966,355,0,0,0,3,2,1,32,0003-00-0008-29.png,0002-00-0000-32.png
9,528,1,1443548804318,1443548804498,889,395,0,0,0,5,4,1,54,0001-00-0008-28.png,0005-00-0009-98.png
9,529,1,1443548804526,1443548804843,381,401,0,0,0,4,3,1,43,0005-00-0001-59.png,0003-00-0002-36.png
9,530,0,1443548804873,1443548805828,889,361,0,0,0,3,4,1,34,0003-00-0008-35.png,0005-00-0000-74.png
9,531,1,1443548805855,1443548810924,906,490,0,0,0,2,3,1,23,0002-00-0008-33.png,0003-00-0004-16.png
9,532,0,1443548810950,1443548812745,351,412,0,0,0,3,2,1,32,0003-00-0003-16.png,0002-00-0000-42.png
9,533,0,1443548812779,1443548813031,404,418,0,0,0,1,2,1,12,0004-00-0002-86.png,0002-00-0002-02.png
9,534,1,1443548813072,1443548813882,1008,340,0,0,0,2,1,1,21,0002-00-0007-99.png,0004-00-0004-90.png
9,535,1,1443548813916,1443548814020,939,420,0,0,0,5,4,1,54,0001-00-0006-90.png,0005-00-0004-55.png
9,536,1,1443548814040,1443548815639,968,350,0,0,0,5,4,1,54,0001-00-0009-59.png,0005-00-0007-02.png
9,537,0,1443548815667,1443548815820,955,385,0,0,0,2,3,1,23,0002-00-0006-82.png,0003-00-0003-91.png
9,538,0,1443548815856,1443548816055,873,436,0,0,0,1,2,1,12,0004-00-0009-00.png,0002-00-0003-00.png
9,539,1,1443548816080,1443548817710,877,281,0,0,0,5,4,1,54,0001-00-0004-35.png,0005-00-0005-67.png
9,540,1,1443548817737,1443548819276,869,480,0,0,0,4,3,1,43,0005-00-0002-22.png,0003-00-0002-42.png
9,541,1,1443548819305,1443548819479,904,457,0,0,0,2,1,1,21,0002-00-0005-27.png,0004-00-0001-91.png
9,542,1,1443548819515,1443548825818,401,384,0,0,0,5,4,1,54,0001-00-0002-50.png,0005-00-0000-60.png
9,543,0,1443548825833,1443548825930,375,385,0,0,0,3,4,1,34,0003-00-0003-15.png,0005-00-0003-35.png
9,544,0,1443548825956,1443548826240,939,346,0,0,0,3,2,1,32,0003-00-0001-88.png,0002-00-0005-76.png
9,545,1,1443548826278,1443548826375,918,465,0,0,0,1,2,1,12,0004-00-0004-09.png,0002-00-0003-28.png
9,546,0,1443548826407,1443548828048,862,448,0,0,0,3,2,1,32,0003-00-0000-45.png,0002-00-0006-15.png
9,547,1,1443548828079,1443548830170,990,348,0,0,0,3,4,1,34,0003-00-0007-37.png,0005-00-0002-58.png
9,548,1,1443548830196,1443548830337,862,474,0,0,0,2,3,1,23,0002-00-0001-79.png,0003-00-0000-17.png
9,549,0,1443548830357,1443548832134,352,398,0,0,0,5,4,1,54,0001-00-0007-61.png,0005-00-0006-47.png
9,550,0,1443548832161,1443548832203,862,483,0,0,0,2,1,1,21,0002-00-0008-10.png,0004-00-0006-13.png
9,551,1,1443548832226,1443548834359,964,345,0,0,0,5,4,1,54,0001-00-0004-22.png,0005-00-0000-04.png
9,552,1,1443548834396,1443548834786,863,459,0,0,0,4,3,1,43,0005-00-0005-02.png,0003-00-0003-67.png
9,553,0,1443548834816,1443548834949,928,529,0,0,0,2,3,1,23,0002-00-0009-43.png,0003-00-0006-22.png
9,554,0,1443548834982,1443548835715,1067,306,0,0,0,4,3,1,43,0005-00-0003-32.png,0003-00-0002-79.png
9,555,1,1443548835748,1443548835996,869,455,0,0,0,5,4,1,54,0001-00-0003-65.png,0005-00-0002-85.png
9,556,0,1443548836019,1443548836589,862,501,0,0,0,5,4,1,54,0001-00-0003-63.png,0005-00-0004-03.png
9,557,1,1443548836621,1443548837385,429,291,0,0,0,2,1,1,21,0002-00-0005-94.png,0004-00-0002-40.png
9,558,1,1443548837424,1443548838070,895,299,0,0,0,1,2,1,12,0004-00-0005-23.png,0002-00-0008-91.png
9,559,0,1443548838096,1443548838648,953,555,0,0,0,3,2,1,32,0003-00-0006-08.png,0002-00-0008-99.png
9,560,1,1443548838676,1443548838959,904,512,0,0,0,3,4,1,34,0003-00-0008-94.png,0005-00-0001-04.png
9,561,0,1443548838987,1443548840014,939,396,0,0,0,3,4,1,34,0003-00-0006-65.png,0005-00-0000-73.png
9,562,1,1443548840053,1443548840386,348,422,0,0,0,2,3,1,23,0002-00-0005-50.png,0003-00-0008-89.png
9,563,0,1443548840420,1443548841128,938,385,0,0,0,5,4,1,54,0001-00-0005-68.png,0005-00-0005-24.png
9,564,0,1443548841142,1443548841682,862,436,0,0,0,5,4,1,54,0001-00-0009-99.png,0005-00-0007-63.png
9,565,0,1443548841716,1443548841786,905,349,0,0,0,4,3,1,43,0005-00-0003-54.png,0003-00-0007-37.png
9,566,0,1443548841817,1443548842792,862,434,0,0,0,1,2,1,12,0004-00-0000-46.png,0002-00-0007-12.png
9,567,1,1443548842836,1443548843052,939,452,0,0,0,3,2,1,32,0003-00-0009-31.png,0002-00-0009-27.png
9,568,1,1443548843077,1443548843248,339,409,0,0,0,2,1,1,21,0002-00-0002-85.png,0004-00-0001-97.png
9,569,0,1443548843283,1443548844214,1038,303,0,0,0,3,4,1,34,0003-00-0003-85.png,0005-00-0005-98.png
9,570,1,1443548844253,1443548845568,859,433,0,0,0,4,3,1,43,0005-00-0002-79.png,0003-00-0003-28.png
9,571,1,1443548845608,1443548847151,944,354,0,0,0,5,4,1,54,0001-00-0002-49.png,0005-00-0002-00.png
9,572,0,1443548847177,1443548848320,445,293,0,0,0,1,2,1,12,0004-00-0006-74.png,0002-00-0000-61.png
9,573,0,1443548848345,1443548848786,1015,308,0,0,0,2,3,1,23,0002-00-0009-06.png,0003-00-0006-50.png
9,574,1,1443548848806,1443548848923,967,333,0,0,0,3,2,1,32,0003-00-0003-33.png,0002-00-0005-58.png
9,575,1,1443548848947,1443548849186,888,488,0,0,0,5,4,1,54,0001-00-0002-11.png,0005-00-0000-40.png
9,576,0,1443548849209,1443548849368,998,350,0,0,0,2,1,1,21,0002-00-0006-92.png,0004-00-0002-39.png
9,577,1,1443548849400,1443548849701,951,384,0,0,0,3,4,1,34,0003-00-0009-82.png,0005-00-0001-62.png
9,578,0,1443548849728,1443548849977,913,488,0,0,0,5,4,1,54,0001-00-0008-33.png,0005-00-0006-91.png
9,579,1,1443548849999,1443548851159,910,303,0,0,0,2,3,1,23,0002-00-0000-65.png,0003-00-0005-43.png
9,580,0,1443548851189,1443548851274,459,276,0,0,0,2,1,1,21,0002-00-0000-39.png,0004-00-0009-41.png
9,581,1,1443548851305,1443548851383,1016,358,0,0,0,1,2,1,12,0004-00-0008-88.png,0002-00-0009-23.png
9,582,0,1443548851412,1443548851617,457,282,0,0,0,3,2,1,32,0003-00-0005-67.png,0002-00-0008-94.png
9,583,1,1443548851656,1443548851710,389,442,0,0,0,5,4,1,54,0001-00-0001-30.png,0005-00-0000-17.png
9,584,0,1443548851738,1443548852819,1041,279,0,0,0,4,3,1,43,0005-00-0004-89.png,0003-00-0006-79.png
9,585,1,1443548852844,1443548854735,936,493,0,0,0,5,4,1,54,0001-00-0005-91.png,0005-00-0009-68.png
9,586,0,1443548854767,1443548856202,964,400,0,0,0,5,4,1,54,0001-00-0008-18.png,0005-00-0004-81.png
9,587,0,1443548856227,1443548856301,898,479,0,0,0,3,4,1,34,0003-00-0006-06.png,0005-00-0002-35.png
9,588,1,1443548856330,1443548856371,888,462,0,0,0,2,1,1,21,0002-00-0001-54.png,0004-00-0008-05.png
9,589,1,1443548856409,1443548856557,888,332,0,0,0,2,3,1,23,0002-00-0005-27.png,0003-00-0004-35.png
9,590,1,1443548856592,1443548856685,896,531,0,0,0,3,2,1,32,0003-00-0002-91.png,0002-00-0002-39.png
9,591,0,1443548856720,1443548858780,1080,334,0,0,0,1,2,1,12,0004-00-0007-52.png,0002-00-0001-02.png
9,592,1,1443548858818,1443548859152,906,490,0,0,0,4,3,1,43,0005-00-0008-54.png,0003-00-0009-23.png
9,593,0,1443548859178,1443548859548,348,375,0,0,0,2,3,1,23,0002-00-0007-35.png,0003-00-0004-15.png
9,594,1,1443548859587,1443548860841,993,353,0,0,0,5,4,1,54,0001-00-0004-80.png,0005-00-0002-33.png
9,595,0,1443548860866,1443548878738,928,436,0,0,0,5,4,1,54,0001-00-0006-75.png,0005-00-0005-59.png
9,596,0,1443548878765,1443548879914,470,276,0,0,0,3,2,1,32,0003-00-0006-01.png,0002-00-0005-93.png
9,597,1,1443548879932,1443548880110,406,400,0,0,0,2,1,1,21,0002-00-0003-14.png,0004-00-0009-13.png
9,598,1,1443548880149,1443548880676,941,362,0,0,0,3,4,1,34,0003-00-0004-50.png,0005-00-0002-13.png
9,599,0,1443548880702,1443548880764,367,352,0,0,0,4,3,1,43,0005-00-0003-13.png,0003-00-0009-67.png
9,600,1,1443548880789,1443548881095,925,552,0,0,0,1,2,1,12,0004-00-0005-63.png,0002-00-0008-98.png
9,601,0,1443548881115,1443548881241,863,481,0,0,0,4,3,1,43,0005-00-0004-10.png,0003-00-0001-00.png
9,602,1,1443548881260,1443548881293,473,299,0,0,0,2,3,1,23,0002-00-0004-96.png,0003-00-0007-50.png
9,603,0,1443548881320,1443548882662,1028,291,0,0,0,3,2,1,32,0003-00-0006-79.png,0002-00-0005-43.png
9,604,1,1443548882683,1443548882820,919,443,0,0,0,3,4,1,34,0003-00-0005-60.png,0005-00-0000-23.png
9,605,1,1443548882851,1443548884220,865,445,0,0,0,1,2,1,12,0004-00-0002-08.png,0002-00-0007-91.png
9,606,0,1443548884256,1443548884873,401,372,0,0,0,5,4,1,54,0001-00-0008-15.png,0005-00-0008-36.png
9,607,1,1443548884910,1443548885075,466,310,0,0,0,5,4,1,54,0001-00-0005-31.png,0005-00-0003-62.png
9,608,0,1443548885100,1443548885230,940,358,0,0,0,2,1,1,21,0002-00-0000-88.png,0004-00-0008-89.png
9,609,1,1443548885252,1443548885520,943,416,0,0,0,1,2,1,12,0004-00-0008-77.png,0002-00-0000-68.png
9,610,1,1443548885542,1443548885600,1116,302,0,0,0,5,4,1,54,0001-00-0008-69.png,0005-00-0007-43.png
9,611,1,1443548885626,1443548885708,864,413,0,0,0,5,4,1,54,0001-00-0008-61.png,0005-00-0002-91.png
9,612,1,1443548885738,1443548887598,864,497,0,0,0,3,2,1,32,0003-00-0007-65.png,0002-00-0009-13.png
9,613,1,1443548887624,1443548887669,396,390,0,0,0,4,3,1,43,0005-00-0000-48.png,0003-00-0001-10.png
9,614,0,1443548887691,1443548889640,1042,269,0,0,0,3,4,1,34,0003-00-0006-64.png,0005-00-0002-64.png
9,615,0,1443548889663,1443548890244,919,454,0,0,0,2,1,1,21,0002-00-0009-45.png,0004-00-0003-35.png
9,616,0,1443548890278,1443548891192,369,401,0,0,0,2,3,1,23,0002-00-0006-32.png,0003-00-0002-05.png
9,617,0,1443548891215,1443548891477,859,488,0,0,0,4,3,1,43,0005-00-0002-46.png,0003-00-0009-20.png
9,618,1,1443548891505,1443548891663,1038,342,0,0,0,3,4,1,34,0003-00-0005-93.png,0005-00-0001-79.png
9,619,1,1443548891686,1443548891996,891,466,0,0,0,2,1,1,21,0002-00-0004-95.png,0004-00-0005-90.png
9,620,1,1443548892029,1443548893073,395,396,0,0,0,5,4,1,54,0001-00-0001-76.png,0005-00-0009-66.png
9,621,0,1443548893107,1443548897071,401,402,0,0,0,2,3,1,23,0002-00-0001-91.png,0003-00-0006-16.png
9,622,0,1443548897095,1443548897224,385,407,0,0,0,1,2,1,12,0004-00-0004-92.png,0002-00-0002-10.png
9,623,1,1443548897267,1443548905466,356,365,0,0,0,5,4,1,54,0001-00-0009-76.png,0005-00-0007-77.png
9,624,1,1443548905487,1443548905505,888,504,0,0,0,3,2,1,32,0003-00-0003-35.png,0002-00-0002-03.png
9,625,0,1443548905528,1443548906216,872,461,0,0,0,5,4,1,54,0001-00-0003-85.png,0005-00-0003-10.png
9,626,1,1443548906240,1443548906270,974,410,0,0,0,3,4,1,34,0003-00-0007-98.png,0005-00-0007-84.png
9,627,0,1443548906302,1443548923609,884,464,0,0,0,2,3,1,23,0002-00-0002-53.png,0003-00-0001-63.png
9,628,1,1443548923632,1443548925667,1090,303,0,0,0,2,1,1,21,0002-00-0004-47.png,0004-00-0007-88.png
9,629,1,1443548925699,1443548934237,939,349,0,0,0,5,4,1,54,0001-00-0006-40.png,0005-00-0007-47.png
9,630,1,1443548934273,1443548934402,953,437,0,0,0,3,2,1,32,0003-00-0000-32.png,0002-00-0000-15.png
9,631,0,1443548934422,1443548934691,394,387,0,0,0,4,3,1,43,0005-00-0006-47.png,0003-00-0009-98.png
9,632,0,1443548934717,1443548934892,1041,317,0,0,0,1,2,1,12,0004-00-0000-98.png,0002-00-0003-91.png
9,633,0,1443548934943,1443548935092,945,547,0,0,0,2,1,1,21,0002-00-0007-16.png,0004-00-0002-88.png
9,634,0,1443548935120,1443548935211,887,468,0,0,0,3,2,1,32,0003-00-0006-57.png,0002-00-0006-40.png
9,635,1,1443548935247,1443548935875,1072,296,0,0,0,5,4,1,54,0001-00-0002-40.png,0005-00-0000-20.png
9,636,1,1443548935895,1443548935963,884,503,0,0,0,4,3,1,43,0005-00-0006-40.png,0003-00-0004-91.png
9,637,0,1443548935990,1443548936119,878,319,0,0,0,5,4,1,54,0001-00-0005-04.png,0005-00-0006-67.png
9,638,1,1443548936139,1443548937687,859,465,0,0,0,1,2,1,12,0004-00-0009-46.png,0002-00-0003-90.png
9,639,1,1443548937709,1443548939960,928,352,0,0,0,2,3,1,23,0002-00-0000-91.png,0003-00-0008-53.png
9,640,1,1443548939999,1443548943433,378,392,0,0,0,3,4,1,34,0003-00-0003-84.png,0005-00-0005-72.png
9,641,1,1443548943463,1443548943514,964,427,0,0,0,4,3,1,43,0005-00-0008-28.png,0003-00-0004-53.png
9,642,1,1443548943548,1443548943860,913,423,0,0,0,3,2,1,32,0003-00-0008-39.png,0002-00-0005-28.png
9,643,1,1443548943875,1443548947787,454,332,0,0,0,2,3,1,23,0002-00-0003-95.png,0003-00-0002-20.png
9,644,1,1443548947810,1443548948088,901,498,0,0,0,5,4,1,54,0001-00-0006-10.png,0005-00-0009-52.png
9,645,1,1443548948131,1443548948175,974,436,0,0,0,3,4,1,34,0003-00-0004-77.png,0005-00-0001-19.png
9,646,1,1443548948204,1443548948213,863,438,0,0,0,5,4,1,54,0001-00-0001-80.png,0005-00-0002-10.png
9,647,0,1443548948246,1443548949063,990,420,0,0,0,2,1,1,21,0002-00-0006-02.png,0004-00-0002-83.png
9,648,1,1443548949102,1443548953945,943,327,0,0,0,1,2,1,12,0004-00-0004-57.png,0002-00-0009-89.png
9,649,1,1443548953966,1443548954388,893,500,0,0,0,2,3,1,23,0002-00-0006-19.png,0003-00-0008-12.png
9,650,1,1443548954414,1443548954539,920,454,0,0,0,5,4,1,54,0001-00-0009-88.png,0005-00-0006-99.png
9,651,1,1443548954569,1443548963241,1067,306,0,0,0,4,3,1,43,0005-00-0009-35.png,0003-00-0007-64.png
9,652,0,1443548963270,1443548963792,382,384,0,0,0,3,2,1,32,0003-00-0007-59.png,0002-00-0008-44.png
9,653,1,1443548963820,1443548963915,873,347,0,0,0,2,1,1,21,0002-00-0008-86.png,0004-00-0007-00.png
9,654,1,1443548963955,1443548964009,939,384,0,0,0,1,2,1,12,0004-00-0002-78.png,0002-00-0003-32.png
9,655,1,1443548964034,1443548964423,908,497,0,0,0,3,4,1,34,0003-00-0002-84.png,0005-00-0004-26.png
9,656,1,1443548964471,1443548964656,862,445,0,0,0,5,4,1,54,0001-00-0005-11.png,0005-00-0009-83.png
9,657,1,1443548964677,1443548965129,949,395,0,0,0,5,4,1,54,0001-00-0002-23.png,0005-00-0002-18.png
9,658,0,1443548965157,1443548965302,917,448,0,0,0,1,2,1,12,0004-00-0009-56.png,0002-00-0003-79.png
9,659,1,1443548965340,1443548966342,875,384,0,0,0,2,3,1,23,0002-00-0005-40.png,0003-00-0004-61.png
9,660,1,1443548966376,1443548966934,1065,278,0,0,0,5,4,1,54,0001-00-0006-72.png,0005-00-0006-83.png
9,661,1,1443548966975,1443548969033,900,434,0,0,0,2,1,1,21,0002-00-0004-52.png,0004-00-0004-69.png
9,662,1,1443548969064,1443548969187,494,294,0,0,0,4,3,1,43,0005-00-0008-62.png,0003-00-0002-45.png
9,663,0,1443548969216,1443548969522,364,398,0,0,0,3,4,1,34,0003-00-0004-34.png,0005-00-0009-58.png
9,664,0,1443548969551,1443548969781,468,279,0,0,0,3,2,1,32,0003-00-0001-94.png,0002-00-0000-59.png
9,665,1,1443548969805,1443548970942,861,444,0,0,0,3,4,1,34,0003-00-0005-65.png,0005-00-0005-55.png
9,666,1,1443548970972,1443548971501,901,528,0,0,0,2,1,1,21,0002-00-0002-94.png,0004-00-0005-47.png
9,667,1,1443548971526,1443548971564,1118,306,0,0,0,3,2,1,32,0003-00-0008-04.png,0002-00-0008-80.png
9,668,0,1443548971594,1443548972222,905,469,0,0,0,5,4,1,54,0001-00-0000-73.png,0005-00-0003-01.png
9,669,0,1443548972255,1443548972645,459,305,0,0,0,5,4,1,54,0001-00-0000-14.png,0005-00-0004-18.png
9,670,1,1443548972678,1443548973342,888,475,0,0,0,1,2,1,12,0004-00-0009-09.png,0002-00-0003-91.png
9,671,1,1443548973389,1443548973560,872,467,0,0,0,4,3,1,43,0005-00-0001-75.png,0003-00-0000-66.png
9,672,0,1443548973591,1443548973911,888,450,0,0,0,2,3,1,23,0002-00-0007-43.png,0003-00-0005-30.png
9,673,0,1443548973965,1443548974285,407,403,0,0,0,1,2,1,12,0004-00-0002-60.png,0002-00-0007-95.png
9,674,0,1443548974322,1443548978966,914,486,0,0,0,5,4,1,54,0001-00-0004-20.png,0005-00-0008-02.png
9,675,1,1443548978990,1443548979073,1094,303,0,0,0,2,3,1,23,0002-00-0000-67.png,0003-00-0002-66.png
9,676,0,1443548979100,1443548979141,909,506,0,0,0,3,2,1,32,0003-00-0006-08.png,0002-00-0004-57.png
9,677,0,1443548979176,1443548979267,881,471,0,0,0,3,4,1,34,0003-00-0007-61.png,0005-00-0003-30.png
9,678,1,1443548979290,1443548979549,897,462,0,0,0,2,1,1,21,0002-00-0008-90.png,0004-00-0009-11.png
9,679,1,1443548979591,1443548979661,411,379,0,0,0,4,3,1,43,0005-00-0008-45.png,0003-00-0009-03.png
9,680,0,1443548979694,1443548980145,912,334,0,0,0,5,4,1,54,0001-00-0005-17.png,0005-00-0001-02.png
9,681,1,1443548980176,1443548980775,1041,374,0,0,0,5,4,1,54,0001-00-0007-02.png,0005-00-0003-74.png
9,682,1,1443548980799,1443548981610,944,309,0,0,0,2,1,1,21,0002-00-0006-87.png,0004-00-0000-68.png
9,683,0,1443548981632,1443548982067,990,394,0,0,0,1,2,1,12,0004-00-0000-74.png,0002-00-0002-18.png
9,684,0,1443548982093,1443548982841,916,481,0,0,0,5,4,1,54,0001-00-0006-56.png,0005-00-0005-76.png
9,685,0,1443548982871,1443548983757,998,350,0,0,0,2,3,1,23,0002-00-0002-72.png,0003-00-0004-53.png
9,686,1,1443548983788,1443548983866,377,385,0,0,0,3,4,1,34,0003-00-0005-27.png,0005-00-0005-05.png
9,687,0,1443548983892,1443548983937,860,469,0,0,0,4,3,1,43,0005-00-0002-87.png,0003-00-0002-80.png
9,688,0,1443548983962,1443548984046,993,328,0,0,0,3,2,1,32,0003-00-0006-68.png,0002-00-0007-72.png
9,689,0,1443548984083,1443548984482,895,418,0,0,0,5,4,1,54,0001-00-0003-72.png,0005-00-0007-88.png
9,690,0,1443548984504,1443548984976,867,360,0,0,0,3,2,1,32,0003-00-0003-62.png,0002-00-0001-56.png
9,691,1,1443548985000,1443548987270,887,466,0,0,0,4,3,1,43,0005-00-0002-98.png,0003-00-0001-45.png
9,692,0,1443548987300,1443548988350,964,374,0,0,0,2,1,1,21,0002-00-0003-22.png,0004-00-0001-69.png
9,693,0,1443548988381,1443548988394,386,377,0,0,0,2,3,1,23,0002-00-0007-37.png,0003-00-0008-95.png
9,694,1,1443548988414,1443548992464,872,451,0,0,0,1,2,1,12,0004-00-0005-78.png,0002-00-0004-71.png
9,695,0,1443548992496,1443548993507,877,513,0,0,0,3,4,1,34,0003-00-0004-22.png,0005-00-0001-19.png
9,696,0,1443548993534,1443548993793,967,329,0,0,0,5,4,1,54,0001-00-0002-13.png,0005-00-0005-63.png
9,697,1,1443548993821,1443548993973,1094,286,0,0,0,3,4,1,34,0003-00-0003-48.png,0005-00-0009-24.png
9,698,1,1443548993996,1443548994197,1091,281,0,0,0,2,3,1,23,0002-00-0007-49.png,0003-00-0000-90.png
9,699,1,1443548994238,1443548994855,1011,478,0,0,0,2,1,1,21,0002-00-0007-70.png,0004-00-0004-09.png
9,700,1,1443548994883,1443548995857,913,447,0,0,0,5,4,1,54,0001-00-0009-06.png,0005-00-0009-53.png
9,701,1,1443548995887,1443548995949,478,290,0,0,0,4,3,1,43,0005-00-0001-01.png,0003-00-0007-31.png
9,702,1,1443548995977,1443548996359,424,277,0,0,0,1,2,1,12,0004-00-0002-42.png,0002-00-0000-81.png
9,703,1,1443548996383,1443548996634,453,295,0,0,0,5,4,1,54,0001-00-0004-14.png,0005-00-0002-86.png
9,704,0,1443548996655,1443548997043,1016,279,0,0,0,3,2,1,32,0003-00-0001-84.png,0002-00-0007-53.png
9,705,1,1443548997072,1443549000083,956,443,0,0,0,5,4,1,54,0001-00-0007-23.png,0005-00-0004-37.png
9,706,1,1443549000108,1443549000134,896,494,0,0,0,3,2,1,32,0003-00-0008-05.png,0002-00-0005-57.png
9,707,1,1443549000166,1443549000787,964,426,0,0,0,4,3,1,43,0005-00-0000-28.png,0003-00-0007-20.png
9,708,0,1443549000827,1443549001027,1040,284,0,0,0,2,3,1,23,0002-00-0003-48.png,0003-00-0002-97.png
9,709,0,1443549001052,1443549001225,869,464,0,0,0,2,1,1,21,0002-00-0003-40.png,0004-00-0000-07.png
9,710,1,1443549001256,1443549006462,1112,322,0,0,0,5,4,1,54,0001-00-0008-29.png,0005-00-0005-33.png
9,711,1,1443549006501,1443549008149,410,403,0,0,0,3,4,1,34,0003-00-0005-12.png,0005-00-0008-11.png
9,712,1,1443549008176,1443549008308,858,471,0,0,0,1,2,1,12,0004-00-0009-22.png,0002-00-0006-10.png
9,713,1,1443549008337,1443549008682,461,271,0,0,0,2,3,1,23,0002-00-0003-05.png,0003-00-0007-64.png
9,714,1,1443549008714,1443549010164,915,555,0,0,0,3,2,1,32,0003-00-0005-93.png,0002-00-0006-24.png
9,715,0,1443549010186,1443549010292,416,257,0,0,0,3,4,1,34,0003-00-0001-16.png,0005-00-0007-65.png
9,716,0,1443549010313,1443549010578,913,274,0,0,0,5,4,1,54,0001-00-0005-47.png,0005-00-0002-42.png
9,717,1,1443549010609,1443549010809,361,391,0,0,0,1,2,1,12,0004-00-0004-82.png,0002-00-0000-04.png
9,718,1,1443549010833,1443549011071,964,393,0,0,0,2,1,1,21,0002-00-0005-69.png,0004-00-0007-85.png
9,719,0,1443549011095,1443549011613,933,495,0,0,0,5,4,1,54,0001-00-0005-87.png,0005-00-0005-52.png
9,720,1,1443549011654,1443549011942,880,443,0,0,0,4,3,1,43,0005-00-0002-58.png,0003-00-0004-32.png
9,721,0,1443549011973,1443549014159,990,342,0,0,0,3,4,1,34,0003-00-0007-65.png,0005-00-0004-67.png
9,722,0,1443549014191,1443549015715,885,440,0,0,0,2,1,1,21,0002-00-0005-05.png,0004-00-0007-78.png
9,723,0,1443549015743,1443549015773,394,379,0,0,0,2,3,1,23,0002-00-0004-82.png,0003-00-0007-91.png
9,724,0,1443549015802,1443549017331,881,470,0,0,0,5,4,1,54,0001-00-0003-36.png,0005-00-0003-16.png
9,725,0,1443549017355,1443549017521,1034,275,0,0,0,3,2,1,32,0003-00-0003-15.png,0002-00-0001-51.png
9,726,1,1443549017547,1443549017631,917,498,0,0,0,1,2,1,12,0004-00-0008-97.png,0002-00-0009-24.png
9,727,1,1443549017652,1443549017940,387,382,0,0,0,4,3,1,43,0005-00-0001-88.png,0003-00-0004-16.png
9,728,1,1443549017958,1443549021967,459,295,0,0,0,5,4,1,54,0001-00-0003-72.png,0005-00-0006-39.png
9,729,0,1443549021989,1443549022968,877,349,0,0,0,5,4,1,54,0001-00-0001-92.png,0005-00-0001-17.png
9,730,0,1443549022996,1443549023628,858,306,0,0,0,1,2,1,12,0004-00-0003-20.png,0002-00-0005-82.png
9,731,1,1443549023653,1443549023942,1000,436,0,0,0,5,4,1,54,0001-00-0009-37.png,0005-00-0006-14.png
9,732,0,1443549023965,1443549024636,909,497,0,0,0,2,1,1,21,0002-00-0004-66.png,0004-00-0006-61.png
9,733,0,1443549024663,1443549024999,990,343,0,0,0,2,3,1,23,0002-00-0009-24.png,0003-00-0006-39.png
9,734,0,1443549025033,1443549026728,940,523,0,0,0,3,4,1,34,0003-00-0003-73.png,0005-00-0002-07.png
9,735,1,1443549026765,1443549027020,890,436,0,0,0,4,3,1,43,0005-00-0005-59.png,0003-00-0000-27.png
9,736,1,1443549027054,1443549027539,919,453,0,0,0,3,2,1,32,0003-00-0009-60.png,0002-00-0000-74.png
9,737,1,1443549027591,1443549027817,978,313,0,0,0,4,3,1,43,0005-00-0002-57.png,0003-00-0007-62.png
9,738,0,1443549027852,1443549027994,388,384,0,0,0,2,3,1,23,0002-00-0000-36.png,0003-00-0008-15.png
9,739,0,1443549028026,1443549029158,902,462,0,0,0,2,1,1,21,0002-00-0000-01.png,0004-00-0008-95.png
9,740,1,1443549029187,1443549029750,864,438,0,0,0,3,2,1,32,0003-00-0000-24.png,0002-00-0005-03.png
9,741,0,1443549029784,1443549029951,879,497,0,0,0,5,4,1,54,0001-00-0007-48.png,0005-00-0002-74.png
9,742,0,1443549029973,1443549030304,889,448,0,0,0,3,4,1,34,0003-00-0005-63.png,0005-00-0003-95.png
9,743,1,1443549030327,1443549030647,881,312,0,0,0,1,2,1,12,0004-00-0003-77.png,0002-00-0000-55.png
9,744,0,1443549030671,1443549030959,1115,302,0,0,0,5,4,1,54,0001-00-0006-40.png,0005-00-0009-55.png
9,745,0,1443549030982,1443549031831,909,458,0,0,0,2,3,1,23,0002-00-0007-22.png,0003-00-0006-81.png
9,746,0,1443549031850,1443549045740,870,504,0,0,0,4,3,1,43,0005-00-0008-22.png,0003-00-0001-08.png
9,747,0,1443549045768,1443549045835,870,436,0,0,0,3,2,1,32,0003-00-0000-94.png,0002-00-0005-97.png
9,748,1,1443549045873,1443549046657,946,274,0,0,0,5,4,1,54,0001-00-0006-51.png,0005-00-0009-39.png
9,749,1,1443549046690,1443549047995,1067,279,0,0,0,5,4,1,54,0001-00-0006-54.png,0005-00-0005-23.png
9,750,0,1443549048029,1443549048103,1067,282,0,0,0,2,1,1,21,0002-00-0008-72.png,0004-00-0008-37.png
9,751,1,1443549048124,1443549048177,445,303,0,0,0,1,2,1,12,0004-00-0003-75.png,0002-00-0005-08.png
9,752,1,1443549048201,1443549049470,899,273,0,0,0,3,4,1,34,0003-00-0008-30.png,0005-00-0008-34.png
9,753,0,1443549049518,1443549049598,454,266,0,0,0,5,4,1,54,0001-00-0001-73.png,0005-00-0005-10.png
9,754,1,1443549049629,1443549050033,1058,306,0,0,0,4,3,1,43,0005-00-0009-49.png,0003-00-0006-59.png
9,755,0,1443549050065,1443549050783,1041,302,0,0,0,5,4,1,54,0001-00-0008-32.png,0005-00-0005-22.png
9,756,0,1443549050808,1443549052277,892,430,0,0,0,2,1,1,21,0002-00-0000-90.png,0004-00-0001-49.png
9,757,0,1443549052294,1443549052370,888,345,0,0,0,3,2,1,32,0003-00-0004-49.png,0002-00-0000-47.png
9,758,1,1443549052411,1443549052599,366,376,0,0,0,2,3,1,23,0002-00-0006-05.png,0003-00-0008-56.png
9,759,0,1443549052629,1443549055367,1066,303,0,0,0,1,2,1,12,0004-00-0003-31.png,0002-00-0000-23.png
9,760,1,1443549055392,1443549055764,456,277,0,0,0,3,4,1,34,0003-00-0004-70.png,0005-00-0008-88.png
9,761,1,1443549055796,1443549055882,1020,272,0,0,0,4,3,1,43,0005-00-0004-87.png,0003-00-0009-60.png
9,762,1,1443549055916,1443549056379,891,459,0,0,0,3,2,1,32,0003-00-0003-28.png,0002-00-0002-48.png
9,763,1,1443549056416,1443549056619,862,446,0,0,0,2,1,1,21,0002-00-0002-06.png,0004-00-0000-07.png
9,764,1,1443549056641,1443549056652,862,306,0,0,0,1,2,1,12,0004-00-0009-26.png,0002-00-0007-60.png
9,765,1,1443549056683,1443549056706,964,410,0,0,0,5,4,1,54,0001-00-0005-95.png,0005-00-0009-60.png
9,766,1,1443549056737,1443549056803,890,465,0,0,0,5,4,1,54,0001-00-0008-67.png,0005-00-0007-96.png
9,767,1,1443549056821,1443549056828,926,554,0,0,0,3,4,1,34,0003-00-0006-11.png,0005-00-0009-69.png
9,768,1,1443549056886,1443549063201,413,357,0,0,0,2,3,1,23,0002-00-0009-00.png,0003-00-0006-31.png
9,769,0,1443549063228,1443549063312,1033,283,0,0,0,3,4,1,34,0003-00-0007-64.png,0005-00-0005-40.png
9,770,0,1443549063338,1443549063680,913,447,0,0,0,5,4,1,54,0001-00-0001-08.png,0005-00-0002-50.png
9,771,0,1443549063704,1443549064920,373,366,0,0,0,2,3,1,23,0002-00-0002-63.png,0003-00-0008-75.png
9,772,0,1443549064958,1443549065219,939,348,0,0,0,4,3,1,43,0005-00-0005-09.png,0003-00-0007-43.png
9,773,1,1443549065249,1443549065281,967,337,0,0,0,2,1,1,21,0002-00-0004-86.png,0004-00-0009-15.png
9,774,0,1443549065322,1443549065652,905,488,0,0,0,3,2,1,32,0003-00-0008-71.png,0002-00-0002-15.png
9,775,0,1443549065672,1443549066320,888,454,0,0,0,5,4,1,54,0001-00-0001-12.png,0005-00-0005-35.png
9,776,1,1443549066357,1443549066710,894,478,0,0,0,1,2,1,12,0004-00-0006-29.png,0002-00-0000-38.png
9,777,0,1443549066743,1443549066857,1092,347,0,0,0,4,3,1,43,0005-00-0009-63.png,0003-00-0008-99.png
9,778,1,1443549066887,1443549066939,942,331,0,0,0,5,4,1,54,0001-00-0001-55.png,0005-00-0007-05.png
9,779,1,1443549066952,1443549070052,907,471,0,0,0,1,2,1,12,0004-00-0001-42.png,0002-00-0001-99.png
9,780,0,1443549070084,1443549071250,863,460,0,0,0,3,2,1,32,0003-00-0006-38.png,0002-00-0001-37.png
9,781,1,1443549071268,1443549073142,440,326,0,0,0,2,1,1,21,0002-00-0001-64.png,0004-00-0007-11.png
9,782,1,1443549073177,1443549073258,862,465,0,0,0,3,4,1,34,0003-00-0001-27.png,0005-00-0004-80.png
9,783,0,1443549073283,1443549074155,862,454,0,0,0,5,4,1,54,0001-00-0002-03.png,0005-00-0004-41.png
9,784,1,1443549074183,1443549074601,476,274,0,0,0,2,3,1,23,0002-00-0000-74.png,0003-00-0003-31.png
9,785,0,1443549074639,1443549074731,902,522,0,0,0,3,4,1,34,0003-00-0002-85.png,0005-00-0002-70.png
9,786,0,1443549074760,1443549075640,907,487,0,0,0,3,2,1,32,0003-00-0005-06.png,0002-00-0004-43.png
9,787,1,1443549075672,1443549076251,401,374,0,0,0,2,1,1,21,0002-00-0008-47.png,0004-00-0008-36.png
9,788,1,1443549076274,1443549076324,862,397,0,0,0,4,3,1,43,0005-00-0008-67.png,0003-00-0005-56.png
9,789,1,1443549076364,1443549076583,887,450,0,0,0,1,2,1,12,0004-00-0005-85.png,0002-00-0005-24.png
9,790,1,1443549076610,1443549079057,917,436,0,0,0,2,3,1,23,0002-00-0000-79.png,0003-00-0003-27.png
9,791,1,1443549079097,1443549079309,1101,299,0,0,0,5,4,1,54,0001-00-0009-94.png,0005-00-0009-85.png
9,792,1,1443549079340,1443549079753,892,466,0,0,0,5,4,1,54,0001-00-0003-92.png,0005-00-0006-12.png
9,793,1,1443549079784,1443549080331,1085,298,0,0,0,2,3,1,23,0002-00-0003-67.png,0003-00-0002-62.png
9,794,1,1443549080361,1443549080744,915,393,0,0,0,4,3,1,43,0005-00-0000-87.png,0003-00-0001-64.png
9,795,1,1443549080766,1443549080855,449,268,0,0,0,2,1,1,21,0002-00-0006-32.png,0004-00-0006-19.png
9,796,0,1443549080882,1443549082159,478,269,0,0,0,3,4,1,34,0003-00-0005-25.png,0005-00-0009-91.png
9,797,0,1443549082186,1443549082512,874,527,0,0,0,3,2,1,32,0003-00-0007-54.png,0002-00-0002-43.png
9,798,0,1443549082532,1443549082721,1070,303,0,0,0,1,2,1,12,0004-00-0008-38.png,0002-00-0006-89.png
9,799,0,1443549082749,1443549084438,1100,273,0,0,0,5,4,1,54,0001-00-0006-02.png,0005-00-0003-62.png
9,800,1,1443549084470,1443549084989,926,488,0,0,0,5,4,1,54,0001-00-0003-59.png,0005-00-0004-01.png
9,801,1,1443549085018,1443549085179,444,275,0,0,0,5,4,1,54,0001-00-0000-29.png,0005-00-0003-48.png
9,802,1,1443549085199,1443549085237,394,378,0,0,0,3,4,1,34,0003-00-0000-88.png,0005-00-0004-01.png
9,803,0,1443549085268,1443549085333,946,556,0,0,0,2,1,1,21,0002-00-0001-65.png,0004-00-0008-27.png
9,804,1,1443549085355,1443549085564,869,479,0,0,0,3,2,1,32,0003-00-0005-19.png,0002-00-0005-84.png
9,805,0,1443549085591,1443549085627,882,448,0,0,0,5,4,1,54,0001-00-0000-90.png,0005-00-0003-19.png
9,806,1,1443549085667,1443549086028,939,344,0,0,0,1,2,1,12,0004-00-0005-84.png,0002-00-0003-33.png
9,807,1,1443549086052,1443549097980,913,384,0,0,0,2,3,1,23,0002-00-0007-87.png,0003-00-0001-18.png
9,808,0,1443549098025,1443549098452,481,310,0,0,0,4,3,1,43,0005-00-0005-00.png,0003-00-0007-81.png
9,809,0,1443549098479,1443549099738,442,297,0,0,0,4,3,1,43,0005-00-0001-78.png,0003-00-0007-05.png
9,810,1,1443549099773,1443549099818,864,420,0,0,0,1,2,1,12,0004-00-0008-04.png,0002-00-0009-27.png
9,811,1,1443549099843,1443549100185,878,544,0,0,0,2,1,1,21,0002-00-0002-64.png,0004-00-0001-47.png
9,812,0,1443549100206,1443549101328,945,338,0,0,0,2,3,1,23,0002-00-0008-16.png,0003-00-0009-29.png
9,813,1,1443549101357,1443549101587,939,478,0,0,0,3,2,1,32,0003-00-0007-95.png,0002-00-0003-21.png
9,814,0,1443549101632,1443549101950,1067,305,0,0,0,5,4,1,54,0001-00-0003-49.png,0005-00-0005-16.png
9,815,0,1443549101979,1443549102019,860,480,0,0,0,3,4,1,34,0003-00-0000-95.png,0005-00-0001-65.png
9,816,1,1443549102061,1443549102570,936,348,0,0,0,5,4,1,54,0001-00-0001-15.png,0005-00-0006-52.png
9,817,1,1443549102605,1443549102714,913,474,0,0,0,4,3,1,43,0005-00-0003-97.png,0003-00-0008-81.png
9,818,1,1443549102733,1443549103121,964,424,0,0,0,1,2,1,12,0004-00-0008-04.png,0002-00-0001-08.png
9,819,1,1443549103140,1443549103456,910,424,0,0,0,3,4,1,34,0003-00-0009-59.png,0005-00-0000-44.png
9,820,0,1443549103496,1443549104204,1041,283,0,0,0,2,1,1,21,0002-00-0001-37.png,0004-00-0002-15.png
9,821,0,1443549104250,1443549104266,924,400,0,0,0,5,4,1,54,0001-00-0002-68.png,0005-00-0007-17.png
9,822,0,1443549104303,1443549104592,1091,306,0,0,0,2,3,1,23,0002-00-0000-51.png,0003-00-0008-63.png
9,823,0,1443549104627,1443549104695,884,435,0,0,0,5,4,1,54,0001-00-0003-98.png,0005-00-0009-64.png
9,824,1,1443549104724,1443549105254,896,354,0,0,0,3,2,1,32,0003-00-0003-01.png,0002-00-0001-29.png
9,825,1,1443549105282,1443549105347,964,323,0,0,0,2,3,1,23,0002-00-0000-89.png,0003-00-0003-92.png
9,826,0,1443549105371,1443549106009,964,488,0,0,0,2,1,1,21,0002-00-0009-77.png,0004-00-0005-19.png
9,827,1,1443549106030,1443549106316,939,529,0,0,0,3,4,1,34,0003-00-0002-56.png,0005-00-0003-60.png
9,828,1,1443549106336,1443549108484,913,444,0,0,0,5,4,1,54,0001-00-0009-87.png,0005-00-0006-26.png
9,829,0,1443549108506,1443549108678,878,410,0,0,0,3,2,1,32,0003-00-0007-86.png,0002-00-0005-50.png
9,830,1,1443549108704,1443549113525,478,269,0,0,0,4,3,1,43,0005-00-0000-28.png,0003-00-0006-57.png
9,831,0,1443549113546,1443549114373,370,381,0,0,0,5,4,1,54,0001-00-0002-81.png,0005-00-0003-89.png
9,832,0,1443549114401,1443549115245,459,280,0,0,0,1,2,1,12,0004-00-0003-31.png,0002-00-0009-26.png
9,833,1,1443549115268,1443549116782,944,347,0,0,0,3,2,1,32,0003-00-0007-90.png,0002-00-0001-64.png
9,834,0,1443549116813,1443549117964,927,462,0,0,0,5,4,1,54,0001-00-0007-18.png,0005-00-0007-99.png
9,835,1,1443549118002,1443549118011,902,332,0,0,0,2,3,1,23,0002-00-0008-41.png,0003-00-0009-10.png
9,836,0,1443549118046,1443549118123,913,358,0,0,0,2,1,1,21,0002-00-0000-79.png,0004-00-0003-61.png
9,837,1,1443549118148,1443549118173,962,353,0,0,0,4,3,1,43,0005-00-0007-54.png,0003-00-0001-89.png
9,838,1,1443549118199,1443549118638,907,469,0,0,0,5,4,1,54,0001-00-0002-23.png,0005-00-0001-99.png
9,839,0,1443549118667,1443549120014,913,332,0,0,0,3,4,1,34,0003-00-0001-35.png,0005-00-0003-97.png
9,840,0,1443549120050,1443549124085,876,488,0,0,0,1,2,1,12,0004-00-0001-54.png,0002-00-0009-11.png
9,841,0,1443549124104,1443549126299,913,370,0,0,0,2,1,1,21,0002-00-0008-87.png,0004-00-0004-81.png
9,842,0,1443549126346,1443549126419,936,396,0,0,0,5,4,1,54,0001-00-0001-61.png,0005-00-0002-74.png
9,843,0,1443549126452,1443549127128,405,378,0,0,0,2,3,1,23,0002-00-0008-97.png,0003-00-0003-08.png
9,844,0,1443549127159,1443549127564,888,410,0,0,0,5,4,1,54,0001-00-0006-05.png,0005-00-0001-83.png
9,845,0,1443549127603,1443549128801,863,446,0,0,0,3,2,1,32,0003-00-0004-20.png,0002-00-0005-63.png
9,846,0,1443549128841,1443549128920,881,455,0,0,0,4,3,1,43,0005-00-0008-56.png,0003-00-0004-96.png
9,847,1,1443549128946,1443549129821,917,353,0,0,0,3,4,1,34,0003-00-0005-38.png,0005-00-0008-23.png
9,848,0,1443549129851,1443549131805,878,462,0,0,0,1,2,1,12,0004-00-0006-12.png,0002-00-0001-13.png
9,849,1,1443549131840,1443549132122,408,401,0,0,0,2,1,1,21,0002-00-0004-49.png,0004-00-0003-55.png
9,850,0,1443549132142,1443549132238,951,553,0,0,0,3,2,1,32,0003-00-0003-51.png,0002-00-0001-47.png
9,851,1,1443549132263,1443549132571,1067,279,0,0,0,2,3,1,23,0002-00-0003-66.png,0003-00-0000-58.png
9,852,0,1443549132593,1443549133098,877,514,0,0,0,1,2,1,12,0004-00-0003-43.png,0002-00-0009-89.png
9,853,0,1443549133124,1443549135211,888,332,0,0,0,5,4,1,54,0001-00-0002-64.png,0005-00-0006-82.png
9,854,0,1443549135238,1443549137193,962,436,0,0,0,3,4,1,34,0003-00-0006-97.png,0005-00-0001-82.png
9,855,1,1443549137227,1443549137359,915,359,0,0,0,4,3,1,43,0005-00-0007-31.png,0003-00-0007-70.png
9,856,0,1443549137408,1443549137696,954,440,0,0,0,5,4,1,54,0001-00-0006-63.png,0005-00-0003-78.png
9,857,0,1443549137719,1443549138038,474,306,0,0,0,4,3,1,43,0005-00-0006-07.png,0003-00-0002-54.png
9,858,0,1443549138072,1443549146111,869,388,0,0,0,1,2,1,12,0004-00-0009-90.png,0002-00-0000-40.png
9,859,1,1443549146134,1443549146382,862,462,0,0,0,5,4,1,54,0001-00-0005-80.png,0005-00-0007-17.png
9,860,1,1443549146405,1443549146682,862,447,0,0,0,2,1,1,21,0002-00-0000-15.png,0004-00-0000-74.png
9,861,1,1443549146709,1443549146863,869,501,0,0,0,5,4,1,54,0001-00-0003-85.png,0005-00-0005-37.png
9,862,0,1443549146890,1443549147002,466,317,0,0,0,2,3,1,23,0002-00-0005-43.png,0003-00-0004-69.png
9,863,0,1443549147029,1443549147095,1064,282,0,0,0,3,4,1,34,0003-00-0009-76.png,0005-00-0004-72.png
9,864,0,1443549147118,1443549147168,894,434,0,0,0,3,2,1,32,0003-00-0003-00.png,0002-00-0006-41.png
9,865,1,1443549147192,1443549147287,888,424,0,0,0,5,4,1,54,0001-00-0008-21.png,0005-00-0002-13.png
9,866,1,1443549147310,1443549147813,863,460,0,0,0,3,2,1,32,0003-00-0005-08.png,0002-00-0001-78.png
9,867,1,1443549147840,1443549147888,366,373,0,0,0,2,1,1,21,0002-00-0006-05.png,0004-00-0009-25.png
9,868,1,1443549147919,1443549148788,463,298,0,0,0,2,3,1,23,0002-00-0006-98.png,0003-00-0000-63.png
9,869,1,1443549148813,1443549149793,901,555,0,0,0,3,4,1,34,0003-00-0009-07.png,0005-00-0007-72.png
9,870,1,1443549149814,1443549150095,901,469,0,0,0,1,2,1,12,0004-00-0009-36.png,0002-00-0005-18.png
9,871,1,1443549150116,1443549150761,992,303,0,0,0,5,4,1,54,0001-00-0007-90.png,0005-00-0006-18.png
9,872,0,1443549150789,1443549151078,884,492,0,0,0,4,3,1,43,0005-00-0009-39.png,0003-00-0007-98.png
9,873,1,1443549151109,1443549151641,877,462,0,0,0,2,1,1,21,0002-00-0005-09.png,0004-00-0006-80.png
9,874,0,1443549151664,1443549151685,465,267,0,0,0,3,4,1,34,0003-00-0007-93.png,0005-00-0008-33.png
9,875,0,1443549151709,1443549152957,916,361,0,0,0,4,3,1,43,0005-00-0000-58.png,0003-00-0005-07.png
9,876,0,1443549152984,1443549153682,883,474,0,0,0,5,4,1,54,0001-00-0005-04.png,0005-00-0001-50.png
9,877,1,1443549153720,1443549155926,372,397,0,0,0,2,3,1,23,0002-00-0001-07.png,0003-00-0004-18.png
9,878,0,1443549155955,1443549156378,451,265,0,0,0,5,4,1,54,0001-00-0002-17.png,0005-00-0007-04.png
9,879,1,1443549156424,1443549156716,486,278,0,0,0,1,2,1,12,0004-00-0004-90.png,0002-00-0002-66.png
9,880,1,1443549156740,1443549157813,387,352,0,0,0,3,2,1,32,0003-00-0000-96.png,0002-00-0002-07.png
9,881,0,1443549157852,1443549158346,868,336,0,0,0,1,2,1,12,0004-00-0006-81.png,0002-00-0001-27.png
9,882,0,1443549158379,1443549158794,468,268,0,0,0,5,4,1,54,0001-00-0008-92.png,0005-00-0003-24.png
9,883,0,1443549158822,1443549159041,962,355,0,0,0,3,4,1,34,0003-00-0008-70.png,0005-00-0006-71.png
9,884,1,1443549159062,1443549159249,874,475,0,0,0,5,4,1,54,0001-00-0006-45.png,0005-00-0005-82.png
9,885,1,1443549159285,1443549159506,872,466,0,0,0,2,1,1,21,0002-00-0002-14.png,0004-00-0003-34.png
9,886,0,1443549159541,1443549159821,927,555,0,0,0,3,2,1,32,0003-00-0002-88.png,0002-00-0002-78.png
9,887,1,1443549159845,1443549160601,946,418,0,0,0,2,3,1,23,0002-00-0008-63.png,0003-00-0008-76.png
9,888,1,1443549160627,1443549160750,870,473,0,0,0,4,3,1,43,0005-00-0005-11.png,0003-00-0003-35.png
9,889,1,1443549160782,1443549162020,939,348,0,0,0,3,4,1,34,0003-00-0006-61.png,0005-00-0004-82.png
9,890,0,1443549162054,1443549162987,937,423,0,0,0,2,1,1,21,0002-00-0008-36.png,0004-00-0004-19.png
9,891,1,1443549163012,1443549163391,1092,289,0,0,0,4,3,1,43,0005-00-0000-73.png,0003-00-0007-93.png
9,892,1,1443549163414,1443549163662,347,356,0,0,0,3,2,1,32,0003-00-0003-22.png,0002-00-0009-17.png
9,893,1,1443549163718,1443549163912,871,481,0,0,0,1,2,1,12,0004-00-0008-47.png,0002-00-0005-21.png
9,894,1,1443549163936,1443549164052,478,289,0,0,0,5,4,1,54,0001-00-0001-78.png,0005-00-0007-38.png
9,895,0,1443549164073,1443549164500,909,353,0,0,0,5,4,1,54,0001-00-0002-99.png,0005-00-0008-09.png
9,896,0,1443549164532,1443549167279,925,436,0,0,0,2,3,1,23,0002-00-0007-99.png,0003-00-0009-87.png
9,897,0,1443549167309,1443549168575,871,450,0,0,0,5,4,1,54,0001-00-0006-22.png,0005-00-0000-44.png
9,898,1,1443549168601,1443549168626,864,448,0,0,0,5,4,1,54,0001-00-0003-89.png,0005-00-0005-82.png
9,899,0,1443549168661,1443549168770,937,355,0,0,0,2,3,1,23,0002-00-0002-08.png,0003-00-0006-17.png
9,900,1,1443549168806,1443549170950,948,360,0,0,0,3,2,1,32,0003-00-0005-67.png,0002-00-0009-83.png
9,901,1,1443549170970,1443549171065,964,419,0,0,0,1,2,1,12,0004-00-0005-53.png,0002-00-0006-53.png
9,902,0,1443549171087,1443549171145,936,451,0,0,0,4,3,1,43,0005-00-0001-87.png,0003-00-0005-36.png
9,903,0,1443549171171,1443549171334,436,285,0,0,0,2,1,1,21,0002-00-0006-81.png,0004-00-0007-06.png
9,904,0,1443549171370,1443549171470,883,464,0,0,0,3,4,1,34,0003-00-0001-95.png,0005-00-0004-09.png
9,905,1,1443549171497,1443549171888,862,452,0,0,0,3,2,1,32,0003-00-0000-39.png,0002-00-0009-51.png
9,906,0,1443549171918,1443549172141,1072,278,0,0,0,5,4,1,54,0001-00-0009-65.png,0005-00-0007-45.png
9,907,1,1443549172171,1443549172615,1001,552,0,0,0,5,4,1,54,0001-00-0002-73.png,0005-00-0000-08.png
9,908,1,1443549172638,1443549173891,880,458,0,0,0,4,3,1,43,0005-00-0004-07.png,0003-00-0009-70.png
9,909,1,1443549173918,1443549174382,904,498,0,0,0,2,3,1,23,0002-00-0001-29.png,0003-00-0001-47.png
9,910,1,1443549174409,1443549174833,400,402,0,0,0,1,2,1,12,0004-00-0000-70.png,0002-00-0009-49.png
9,911,1,1443549174857,1443549175281,860,433,0,0,0,2,1,1,21,0002-00-0002-84.png,0004-00-0006-46.png
9,912,1,1443549175308,1443549175508,901,555,0,0,0,3,4,1,34,0003-00-0005-83.png,0005-00-0007-81.png
9,913,1,1443549175535,1443549176674,944,353,0,0,0,3,2,1,32,0003-00-0005-71.png,0002-00-0005-75.png
9,914,1,1443549176700,1443549177017,990,462,0,0,0,3,4,1,34,0003-00-0002-77.png,0005-00-0008-69.png
9,915,0,1443549177069,1443549177398,380,399,0,0,0,4,3,1,43,0005-00-0000-90.png,0003-00-0007-76.png
9,916,0,1443549177428,1443549177440,1041,290,0,0,0,2,3,1,23,0002-00-0006-55.png,0003-00-0008-37.png
9,917,1,1443549177476,1443549177737,858,438,0,0,0,5,4,1,54,0001-00-0000-09.png,0005-00-0003-52.png
9,918,0,1443549177771,1443549182274,911,366,0,0,0,1,2,1,12,0004-00-0009-22.png,0002-00-0007-19.png
9,919,0,1443549182296,1443549182659,915,399,0,0,0,5,4,1,54,0001-00-0004-56.png,0005-00-0001-39.png
9,920,1,1443549182693,1443549182925,862,449,0,0,0,2,1,1,21,0002-00-0008-51.png,0004-00-0000-98.png
9,921,0,1443549182961,1443549183303,939,343,0,0,0,3,4,1,34,0003-00-0009-37.png,0005-00-0003-47.png
9,922,1,1443549183336,1443549183451,1006,497,0,0,0,2,3,1,23,0002-00-0004-59.png,0003-00-0009-64.png
9,923,0,1443549183479,1443549184245,894,480,0,0,0,4,3,1,43,0005-00-0004-86.png,0003-00-0009-29.png
9,924,0,1443549184273,1443549184521,876,450,0,0,0,3,2,1,32,0003-00-0008-87.png,0002-00-0003-58.png
9,925,0,1443549184547,1443549188388,418,379,0,0,0,5,4,1,54,0001-00-0006-22.png,0005-00-0000-67.png
9,926,0,1443549188434,1443549189223,942,355,0,0,0,5,4,1,54,0001-00-0008-59.png,0005-00-0000-71.png
9,927,1,1443549189257,1443549189332,886,448,0,0,0,1,2,1,12,0004-00-0001-51.png,0002-00-0003-77.png
9,928,0,1443549189351,1443549189683,402,376,0,0,0,2,1,1,21,0002-00-0006-78.png,0004-00-0009-25.png
9,929,0,1443549189715,1443549190624,452,308,0,0,0,2,1,1,21,0002-00-0008-36.png,0004-00-0005-72.png
9,930,0,1443549190666,1443549191108,935,319,0,0,0,5,4,1,54,0001-00-0009-82.png,0005-00-0008-53.png
9,931,0,1443549191136,1443549191139,989,502,0,0,0,4,3,1,43,0005-00-0006-00.png,0003-00-0009-65.png
9,932,1,1443549191169,1443549191612,880,475,0,0,0,3,2,1,32,0003-00-0001-55.png,0002-00-0006-69.png
9,933,1,1443549191649,1443549191767,1065,306,0,0,0,3,4,1,34,0003-00-0008-72.png,0005-00-0009-42.png
9,934,0,1443549191790,1443549192056,950,552,0,0,0,1,2,1,12,0004-00-0005-60.png,0002-00-0007-25.png
9,935,0,1443549192081,1443549192902,878,481,0,0,0,5,4,1,54,0001-00-0002-51.png,0005-00-0004-88.png
9,936,1,1443549192921,1443549193093,376,368,0,0,0,2,3,1,23,0002-00-0002-45.png,0003-00-0001-09.png
9,937,0,1443549193122,1443549193409,865,447,0,0,0,3,4,1,34,0003-00-0002-38.png,0005-00-0000-39.png
9,938,0,1443549193426,1443549193486,939,343,0,0,0,5,4,1,54,0001-00-0002-39.png,0005-00-0004-77.png
9,939,1,1443549193537,1443549193609,985,389,0,0,0,2,1,1,21,0002-00-0009-82.png,0004-00-0000-79.png
9,940,0,1443549193632,1443549194717,388,410,0,0,0,2,3,1,23,0002-00-0003-33.png,0003-00-0006-40.png
9,941,0,1443549194744,1443549194782,1016,462,0,0,0,1,2,1,12,0004-00-0006-34.png,0002-00-0001-12.png
9,942,0,1443549194817,1443549195913,378,422,0,0,0,3,2,1,32,0003-00-0004-60.png,0002-00-0005-67.png
9,943,1,1443549195950,1443549196242,1118,279,0,0,0,5,4,1,54,0001-00-0009-72.png,0005-00-0007-53.png
9,944,1,1443549196270,1443549196288,914,452,0,0,0,4,3,1,43,0005-00-0008-12.png,0003-00-0005-23.png
9,945,1,1443549196322,1443549196852,864,444,0,0,0,1,2,1,12,0004-00-0001-72.png,0002-00-0004-03.png
9,946,0,1443549196886,1443549196942,911,508,0,0,0,4,3,1,43,0005-00-0007-27.png,0003-00-0001-12.png
9,947,0,1443549196983,1443549197014,886,429,0,0,0,2,3,1,23,0002-00-0004-70.png,0003-00-0005-79.png
9,948,1,1443549197037,1443549197497,890,444,0,0,0,3,2,1,32,0003-00-0008-22.png,0002-00-0005-71.png
9,949,0,1443549197527,1443549197740,452,257,0,0,0,5,4,1,54,0001-00-0001-38.png,0005-00-0004-54.png
9,950,0,1443549197762,1443549201770,863,389,0,0,0,5,4,1,54,0001-00-0009-90.png,0005-00-0001-33.png
9,951,0,1443549201803,1443549202136,902,497,0,0,0,2,1,1,21,0002-00-0002-17.png,0004-00-0004-59.png
9,952,1,1443549202177,1443549205628,392,395,0,0,0,3,4,1,34,0003-00-0005-55.png,0005-00-0002-18.png
9,953,0,1443549205664,1443549207192,1027,306,0,0,0,2,3,1,23,0002-00-0005-40.png,0003-00-0006-67.png
9,954,1,1443549207216,1443549207236,940,413,0,0,0,2,1,1,21,0002-00-0005-41.png,0004-00-0007-08.png
9,955,1,1443549207267,1443549207587,393,379,0,0,0,4,3,1,43,0005-00-0008-76.png,0003-00-0004-33.png
9,956,1,1443549207614,1443549207700,1043,295,0,0,0,5,4,1,54,0001-00-0000-92.png,0005-00-0009-80.png
9,957,1,1443549207731,1443549210092,947,415,0,0,0,3,4,1,34,0003-00-0003-57.png,0005-00-0004-45.png
9,958,1,1443549210122,1443549210564,914,438,0,0,0,3,2,1,32,0003-00-0007-77.png,0002-00-0007-89.png
9,959,0,1443549210597,1443549211198,881,469,0,0,0,1,2,1,12,0004-00-0002-46.png,0002-00-0005-62.png
9,960,0,1443549211227,1443549211672,478,279,0,0,0,5,4,1,54,0001-00-0000-12.png,0005-00-0000-76.png
9,961,1,1443549211703,1443549213084,884,470,0,0,0,2,3,1,23,0002-00-0000-92.png,0003-00-0004-40.png
9,962,1,1443549213117,1443549213141,440,436,0,0,0,3,2,1,32,0003-00-0005-60.png,0002-00-0001-16.png
9,963,1,1443549213162,1443549213218,891,333,0,0,0,5,4,1,54,0001-00-0004-62.png,0005-00-0002-98.png
9,964,1,1443549213258,1443549216134,888,384,0,0,0,4,3,1,43,0005-00-0005-17.png,0003-00-0009-36.png
9,965,1,1443549216172,1443549216356,860,474,0,0,0,3,4,1,34,0003-00-0009-55.png,0005-00-0005-33.png
9,966,1,1443549216378,1443549216479,365,332,0,0,0,5,4,1,54,0001-00-0009-72.png,0005-00-0006-94.png
9,967,0,1443549216508,1443549216668,1093,285,0,0,0,2,1,1,21,0002-00-0008-93.png,0004-00-0007-47.png
9,968,1,1443549216697,1443549217472,946,471,0,0,0,1,2,1,12,0004-00-0004-26.png,0002-00-0003-07.png
9,969,1,1443549217504,1443549217715,1113,277,0,0,0,4,3,1,43,0005-00-0006-84.png,0003-00-0008-50.png
9,970,1,1443549217744,1443549217979,910,419,0,0,0,1,2,1,12,0004-00-0004-05.png,0002-00-0000-47.png
9,971,0,1443549218013,1443549218217,870,507,0,0,0,2,1,1,21,0002-00-0003-85.png,0004-00-0001-56.png
9,972,0,1443549218248,1443549218613,976,475,0,0,0,3,2,1,32,0003-00-0007-66.png,0002-00-0009-50.png
9,973,1,1443549218644,1443549218978,886,423,0,0,0,3,4,1,34,0003-00-0005-32.png,0005-00-0002-87.png
9,974,1,1443549219008,1443549219510,479,282,0,0,0,5,4,1,54,0001-00-0008-62.png,0005-00-0002-97.png
9,975,1,1443549219533,1443549219544,453,267,0,0,0,2,3,1,23,0002-00-0003-66.png,0003-00-0003-43.png
9,976,0,1443549219582,1443549219790,874,501,0,0,0,5,4,1,54,0001-00-0005-41.png,0005-00-0001-06.png
9,977,1,1443549219815,1443549229548,890,329,0,0,0,2,3,1,23,0002-00-0004-13.png,0003-00-0001-94.png
9,978,0,1443549229568,1443549230286,947,354,0,0,0,4,3,1,43,0005-00-0006-85.png,0003-00-0003-36.png
9,979,0,1443549230314,1443549232580,379,376,0,0,0,5,4,1,54,0001-00-0002-03.png,0005-00-0008-14.png
9,980,1,1443549232603,1443549232717,963,449,0,0,0,3,4,1,34,0003-00-0003-33.png,0005-00-0000-10.png
9,981,0,1443549232736,1443549232926,961,509,0,0,0,3,2,1,32,0003-00-0002-17.png,0002-00-0003-13.png
9,982,1,1443549232961,1443549233001,394,444,0,0,0,1,2,1,12,0004-00-0000-58.png,0002-00-0001-66.png
9,983,0,1443549233055,1443549233152,869,321,0,0,0,2,1,1,21,0002-00-0000-02.png,0004-00-0003-06.png
9,984,1,1443549233175,1443549233526,993,303,0,0,0,5,4,1,54,0001-00-0003-54.png,0005-00-0009-10.png
9,985,1,1443549233562,1443549233711,1051,292,0,0,0,2,3,1,23,0002-00-0008-35.png,0003-00-0003-67.png
9,986,1,1443549233740,1443549233994,964,369,0,0,0,5,4,1,54,0001-00-0003-00.png,0005-00-0008-65.png
9,987,0,1443549234027,1443549235611,878,328,0,0,0,1,2,1,12,0004-00-0006-45.png,0002-00-0004-09.png
9,988,1,1443549235633,1443549236583,401,399,0,0,0,3,2,1,32,0003-00-0006-43.png,0002-00-0001-90.png
9,989,1,1443549236610,1443549237344,1039,273,0,0,0,5,4,1,54,0001-00-0005-84.png,0005-00-0007-17.png
9,990,1,1443549237366,1443549241530,1062,292,0,0,0,4,3,1,43,0005-00-0005-13.png,0003-00-0002-05.png
9,991,1,1443549241562,1443549241616,865,418,0,0,0,2,1,1,21,0002-00-0002-31.png,0004-00-0008-07.png
9,992,1,1443549241643,1443549241718,1040,277,0,0,0,3,4,1,34,0003-00-0006-78.png,0005-00-0002-35.png
9,993,1,1443549241746,1443549241891,1039,279,0,0,0,2,1,1,21,0002-00-0002-11.png,0004-00-0009-48.png
9,994,1,1443549241916,1443549245206,894,426,0,0,0,3,2,1,32,0003-00-0007-99.png,0002-00-0003-49.png
9,995,1,1443549245245,1443549245304,880,339,0,0,0,3,4,1,34,0003-00-0002-43.png,0005-00-0005-96.png
9,996,0,1443549245354,1443549245475,862,450,0,0,0,4,3,1,43,0005-00-0002-25.png,0003-00-0008-29.png
9,997,1,1443549245500,1443549246368,478,293,0,0,0,5,4,1,54,0001-00-0002-74.png,0005-00-0002-74.png
