subject_id,trial,correct_response,stim_time,response_time,x_coord,y_coord,trial_timeout,timeout_time,interTrial_timeout,left_rank,right_rank,distance,joint_rank,left_image,right_image
9,1,1,1444421580018,1444421580112,1057,305,0,0,0,4,3,1,43,0005-00-0005-64.png,0003-00-0004-37.png
9,2,0,1444421580136,1444421581632,358,393,0,0,0,2,3,1,23,0002-00-0000-70.png,0003-00-0001-28.png
9,3,0,1444421581664,1444421581681,420,246,0,0,0,5,4,1,54,0001-00-0003-65.png,0005-00-0006-43.png
9,4,0,1444421581709,1444421582078,483,352,0,0,0,3,4,1,34,0003-00-0002-13.png,0005-00-0000-14.png
9,5,1,1444421582121,1444421582181,927,402,0,0,0,2,1,1,21,0002-00-0000-11.png,0004-00-0004-27.png
9,6,0,1444421582203,1444421582214,463,284,0,0,0,3,2,1,32,0003-00-0007-02.png,0002-00-0002-87.png
9,7,1,1444421582240,1444421583133,372,318,0,0,0,5,4,1,54,0001-00-0006-51.png,0005-00-0000-85.png
9,8,0,1444421583153,1444421584964,444,286,0,0,0,1,2,1,12,0004-00-0007-12.png,0002-00-0000-22.png
9,9,1,1444421584999,1444421585537,435,244,0,0,0,1,2,1,12,0004-00-0006-36.png,0002-00-0000-51.png
9,10,1,1444421585561,1444421585617,937,367,0,0,0,3,2,1,32,0003-00-0003-08.png,0002-00-0002-84.png
9,11,1,1444421585637,1444421585782,1066,310,0,0,0,5,4,1,54,0001-00-0007-04.png,0005-00-0002-90.png
9,12,1,1444421585819,1444421586033,963,459,0,0,0,3,4,1,34,0003-00-0001-40.png,0005-00-0001-96.png
9,13,0,1444421586056,1444421586210,953,377,0,0,0,2,3,1,23,0002-00-0005-28.png,0003-00-0006-60.png
9,14,1,1444421586243,1444421587631,913,393,0,0,0,2,1,1,21,0002-00-0006-51.png,0004-00-0004-25.png
9,15,0,1444421587660,1444421587779,925,358,0,0,0,4,3,1,43,0005-00-0002-84.png,0003-00-0004-10.png
9,16,0,1444421587806,1444421587967,927,472,0,0,0,5,4,1,54,0001-00-0006-31.png,0005-00-0005-45.png
9,17,0,1444421587993,1444421588822,881,387,0,0,0,4,3,1,43,0005-00-0004-23.png,0003-00-0009-53.png
9,18,1,1444421588873,1444421589102,515,297,0,0,0,5,4,1,54,0001-00-0009-80.png,0005-00-0005-83.png
9,19,0,1444421589131,1444421589627,394,369,0,0,0,1,2,1,12,0004-00-0006-31.png,0002-00-0009-94.png
9,20,1,1444421589659,1444421589973,419,287,0,0,0,2,3,1,23,0002-00-0003-41.png,0003-00-0005-09.png
9,21,1,1444421589996,1444421592589,1006,379,0,0,0,5,4,1,54,0001-00-0004-05.png,0005-00-0009-51.png
9,22,0,1444421592623,1444421593571,1059,293,0,0,0,3,4,1,34,0003-00-0002-58.png,0005-00-0005-18.png
9,23,1,1444421593600,1444421593805,327,399,0,0,0,2,1,1,21,0002-00-0001-18.png,0004-00-0005-27.png
9,24,1,1444421593822,1444421595040,924,454,0,0,0,3,2,1,32,0003-00-0000-07.png,0002-00-0008-40.png
9,25,1,1444421595067,1444421595135,930,399,0,0,0,5,4,1,54,0001-00-0009-80.png,0005-00-0006-68.png
9,26,1,1444421595154,1444421595226,337,404,0,0,0,4,3,1,43,0005-00-0002-75.png,0003-00-0001-35.png
9,27,0,1444421595247,1444421595908,1070,308,0,0,0,5,4,1,54,0001-00-0006-10.png,0005-00-0006-11.png
9,28,1,1444421595940,1444421596208,908,317,0,0,0,3,4,1,34,0003-00-0000-88.png,0005-00-0006-92.png
9,29,0,1444421596238,1444421596444,986,294,0,0,0,3,2,1,32,0003-00-0007-61.png,0002-00-0008-51.png
9,30,0,1444421596476,1444421597484,884,419,0,0,0,1,2,1,12,0004-00-0000-89.png,0002-00-0007-05.png
9,31,1,1444421597523,1444421597838,913,387,0,0,0,2,3,1,23,0002-00-0003-13.png,0003-00-0008-16.png
9,32,0,1444421597857,1444421598037,403,349,0,0,0,2,1,1,21,0002-00-0002-14.png,0004-00-0002-69.png
9,33,0,1444421598065,1444421601711,485,251,0,0,0,5,4,1,54,0001-00-0001-89.png,0005-00-0003-93.png
9,34,1,1444421601744,1444421601940,917,351,0,0,0,2,3,1,23,0002-00-0000-05.png,0003-00-0008-81.png
9,35,1,1444421601960,1444421602442,357,403,0,0,0,4,3,1,43,0005-00-0002-31.png,0003-00-0008-64.png
9,36,1,1444421602473,1444421605255,990,395,0,0,0,3,2,1,32,0003-00-0002-11.png,0002-00-0008-17.png
9,37,1,1444421605278,1444421605662,913,384,0,0,0,5,4,1,54,0001-00-0002-52.png,0005-00-0001-41.png
9,38,0,1444421605691,1444421605736,862,424,0,0,0,2,1,1,21,0002-00-0006-42.png,0004-00-0000-18.png
9,39,1,1444421605765,1444421605920,957,324,0,0,0,1,2,1,12,0004-00-0001-54.png,0002-00-0002-11.png
9,40,1,1444421605954,1444421606227,913,350,0,0,0,3,4,1,34,0003-00-0005-24.png,0005-00-0008-68.png
9,41,0,1444421606249,1444421606346,431,335,0,0,0,3,4,1,34,0003-00-0008-56.png,0005-00-0008-51.png
9,42,1,1444421606364,1444421607214,991,406,0,0,0,1,2,1,12,0004-00-0004-41.png,0002-00-0006-95.png
9,43,1,1444421607237,1444421607592,904,392,0,0,0,4,3,1,43,0005-00-0005-17.png,0003-00-0008-07.png
9,44,0,1444421607611,1444421607695,348,389,0,0,0,2,1,1,21,0002-00-0005-46.png,0004-00-0009-58.png
9,45,0,1444421607745,1444421607993,483,261,0,0,0,5,4,1,54,0001-00-0005-97.png,0005-00-0005-72.png
9,46,1,1444421608020,1444421608084,954,353,0,0,0,2,3,1,23,0002-00-0007-62.png,0003-00-0003-24.png
9,47,1,1444421608107,1444421608379,1016,317,0,0,0,5,4,1,54,0001-00-0006-12.png,0005-00-0006-51.png
9,48,1,1444421608406,1444421611162,868,424,0,0,0,3,2,1,32,0003-00-0007-81.png,0002-00-0001-83.png
9,49,0,1444421611209,1444421611359,888,321,0,0,0,3,2,1,32,0003-00-0002-60.png,0002-00-0007-77.png
9,50,1,1444421611382,1444421612794,913,419,0,0,0,4,3,1,43,0005-00-0007-45.png,0003-00-0001-62.png
9,51,0,1444421612814,1444421613270,419,442,0,0,0,5,4,1,54,0001-00-0006-30.png,0005-00-0003-43.png
9,52,1,1444421613300,1444421613350,897,411,0,0,0,5,4,1,54,0001-00-0006-32.png,0005-00-0006-73.png
9,53,0,1444421613372,1444421613517,900,382,0,0,0,2,3,1,23,0002-00-0006-67.png,0003-00-0006-86.png
9,54,1,1444421613549,1444421613805,958,393,0,0,0,2,1,1,21,0002-00-0006-34.png,0004-00-0003-29.png
9,55,1,1444421613834,1444421613988,879,451,0,0,0,1,2,1,12,0004-00-0009-97.png,0002-00-0008-81.png
9,56,1,1444421614022,1444421614281,938,323,0,0,0,3,4,1,34,0003-00-0006-68.png,0005-00-0004-00.png
9,57,0,1444421614315,1444421614772,486,276,0,0,0,2,1,1,21,0002-00-0002-75.png,0004-00-0005-23.png
9,58,1,1444421614814,1444421616067,885,362,0,0,0,4,3,1,43,0005-00-0001-11.png,0003-00-0008-76.png
9,59,0,1444421616100,1444421616137,954,380,0,0,0,1,2,1,12,0004-00-0007-42.png,0002-00-0002-02.png
9,60,0,1444421616171,1444421616306,947,326,0,0,0,2,3,1,23,0002-00-0004-46.png,0003-00-0002-55.png
9,61,1,1444421616343,1444421618481,377,410,0,0,0,5,4,1,54,0001-00-0003-11.png,0005-00-0009-03.png
9,62,0,1444421618524,1444421619911,1000,279,0,0,0,5,4,1,54,0001-00-0007-91.png,0005-00-0004-14.png
9,63,1,1444421619930,1444421620143,1042,298,0,0,0,3,4,1,34,0003-00-0000-13.png,0005-00-0006-24.png
9,64,1,1444421620169,1444421620630,923,410,0,0,0,3,2,1,32,0003-00-0001-92.png,0002-00-0001-57.png
9,65,1,1444421620661,1444421621595,870,384,0,0,0,2,3,1,23,0002-00-0007-96.png,0003-00-0001-19.png
9,66,1,1444421621624,1444421621700,869,291,0,0,0,3,4,1,34,0003-00-0009-98.png,0005-00-0001-00.png
9,67,0,1444421621727,1444421622336,1067,290,0,0,0,1,2,1,12,0004-00-0008-21.png,0002-00-0008-78.png
9,68,1,1444421622363,1444421622517,368,404,0,0,0,5,4,1,54,0001-00-0001-10.png,0005-00-0003-29.png
9,69,1,1444421622547,1444421622788,919,347,0,0,0,2,1,1,21,0002-00-0006-58.png,0004-00-0009-79.png
9,70,0,1444421622818,1444421625844,902,426,0,0,0,3,2,1,32,0003-00-0007-38.png,0002-00-0002-08.png
9,71,1,1444421625868,1444421626657,894,427,0,0,0,4,3,1,43,0005-00-0003-50.png,0003-00-0009-27.png
9,72,1,1444421626682,1444421626686,870,453,0,0,0,5,4,1,54,0001-00-0006-38.png,0005-00-0001-56.png
9,73,0,1444421626710,1444421627266,355,393,0,0,0,3,2,1,32,0003-00-0007-96.png,0002-00-0009-24.png
9,74,0,1444421627294,1444421628213,938,329,0,0,0,2,1,1,21,0002-00-0001-98.png,0004-00-0008-06.png
9,75,1,1444421628249,1444421628784,862,460,0,0,0,5,4,1,54,0001-00-0008-32.png,0005-00-0003-99.png
9,76,0,1444421628805,1444421628821,879,410,0,0,0,1,2,1,12,0004-00-0009-98.png,0002-00-0000-88.png
9,77,1,1444421628852,1444421628885,968,323,0,0,0,3,4,1,34,0003-00-0003-44.png,0005-00-0002-66.png
9,78,0,1444421628907,1444421632286,411,410,0,0,0,2,3,1,23,0002-00-0008-14.png,0003-00-0007-99.png
9,79,1,1444421632316,1444421633457,1000,541,0,0,0,5,4,1,54,0001-00-0003-07.png,0005-00-0002-61.png
9,80,0,1444421633481,1444421634299,957,325,0,0,0,4,3,1,43,0005-00-0002-29.png,0003-00-0000-17.png
9,81,1,1444421634325,1444421635136,891,488,0,0,0,3,2,1,32,0003-00-0008-46.png,0002-00-0004-92.png
9,82,1,1444421635163,1444421642866,472,488,0,0,0,5,4,1,54,0001-00-0007-42.png,0005-00-0000-40.png
9,83,1,1444421642897,1444421644193,880,459,0,0,0,1,2,1,12,0004-00-0000-12.png,0002-00-0002-86.png
9,84,0,1444421644228,1444421644963,916,431,0,0,0,5,4,1,54,0001-00-0004-76.png,0005-00-0000-03.png
9,85,0,1444421644990,1444421645084,444,343,0,0,0,4,3,1,43,0005-00-0007-74.png,0003-00-0007-36.png
9,86,1,1444421645109,1444421645324,915,388,0,0,0,2,3,1,23,0002-00-0000-50.png,0003-00-0004-12.png
9,87,1,1444421645347,1444421645442,874,414,0,0,0,2,1,1,21,0002-00-0008-89.png,0004-00-0004-27.png
9,88,1,1444421645457,1444421645775,939,541,0,0,0,3,4,1,34,0003-00-0002-03.png,0005-00-0008-68.png
9,89,1,1444421645795,1444421646807,1041,279,0,0,0,1,2,1,12,0004-00-0005-25.png,0002-00-0003-06.png
9,90,1,1444421646835,1444421647410,936,463,0,0,0,3,4,1,34,0003-00-0002-82.png,0005-00-0001-95.png
9,91,1,1444421647444,1444421648267,402,382,0,0,0,3,2,1,32,0003-00-0002-24.png,0002-00-0007-31.png
9,92,1,1444421648286,1444421648343,454,320,0,0,0,4,3,1,43,0005-00-0004-68.png,0003-00-0008-01.png
9,93,1,1444421648369,1444421648390,1059,297,0,0,0,2,1,1,21,0002-00-0009-06.png,0004-00-0004-96.png
9,94,1,1444421648422,1444421648529,921,381,0,0,0,5,4,1,54,0001-00-0005-94.png,0005-00-0005-42.png
9,95,1,1444421648554,1444421648790,939,412,0,0,0,2,3,1,23,0002-00-0009-27.png,0003-00-0003-07.png
9,96,1,1444421648819,1444421651128,462,292,0,0,0,5,4,1,54,0001-00-0003-32.png,0005-00-0008-31.png
9,97,1,1444421651160,1444421651246,378,406,0,0,0,5,4,1,54,0001-00-0001-95.png,0005-00-0009-40.png
9,98,0,1444421651268,1444421651516,894,478,0,0,0,1,2,1,12,0004-00-0009-78.png,0002-00-0002-63.png
9,99,1,1444421651540,1444421651609,866,466,0,0,0,2,3,1,23,0002-00-0008-82.png,0003-00-0004-32.png
9,100,1,1444421651647,1444421654053,369,384,0,0,0,4,3,1,43,0005-00-0006-55.png,0003-00-0001-77.png
9,101,1,1444421654074,1444421655289,863,456,0,0,0,3,2,1,32,0003-00-0002-90.png,0002-00-0006-19.png
9,102,1,1444421655322,1444421656757,874,449,0,0,0,2,1,1,21,0002-00-0006-16.png,0004-00-0006-41.png
9,103,0,1444421656778,1444421660235,913,398,0,0,0,3,4,1,34,0003-00-0009-41.png,0005-00-0005-65.png
9,104,1,1444421660261,1444421660616,459,293,0,0,0,5,4,1,54,0001-00-0005-23.png,0005-00-0009-45.png
9,105,0,1444421660655,1444421660969,1067,292,0,0,0,4,3,1,43,0005-00-0003-24.png,0003-00-0008-91.png
9,106,0,1444421661004,1444421661056,957,447,0,0,0,3,2,1,32,0003-00-0001-37.png,0002-00-0007-88.png
9,107,0,1444421661081,1444421661233,898,428,0,0,0,2,3,1,23,0002-00-0009-35.png,0003-00-0007-98.png
9,108,1,1444421661260,1444421661415,917,422,0,0,0,1,2,1,12,0004-00-0006-98.png,0002-00-0006-80.png
9,109,1,1444421661438,1444421662586,489,297,0,0,0,5,4,1,54,0001-00-0002-47.png,0005-00-0007-74.png
9,110,1,1444421662605,1444421662736,1071,298,0,0,0,5,4,1,54,0001-00-0009-82.png,0005-00-0009-38.png
9,111,1,1444421662755,1444421663171,969,332,0,0,0,2,1,1,21,0002-00-0006-98.png,0004-00-0003-90.png
9,112,0,1444421663207,1444421663369,482,264,0,0,0,3,4,1,34,0003-00-0000-64.png,0005-00-0000-97.png
9,113,0,1444421663403,1444421663484,931,446,0,0,0,3,4,1,34,0003-00-0001-32.png,0005-00-0009-68.png
9,114,1,1444421663511,1444421665030,921,453,0,0,0,5,4,1,54,0001-00-0001-88.png,0005-00-0003-65.png
9,115,0,1444421665063,1444421665391,932,445,0,0,0,5,4,1,54,0001-00-0003-23.png,0005-00-0000-80.png
9,116,0,1444421665437,1444421666296,483,283,0,0,0,3,2,1,32,0003-00-0007-48.png,0002-00-0005-54.png
9,117,1,1444421666336,1444421666890,1042,314,0,0,0,2,1,1,21,0002-00-0004-34.png,0004-00-0008-24.png
9,118,0,1444421666935,1444421669274,494,280,0,0,0,1,2,1,12,0004-00-0005-55.png,0002-00-0000-01.png
9,119,0,1444421669306,1444421669437,435,324,0,0,0,2,3,1,23,0002-00-0006-35.png,0003-00-0008-32.png
9,120,1,1444421669467,1444421669624,884,313,0,0,0,4,3,1,43,0005-00-0008-82.png,0003-00-0003-64.png
9,121,0,1444421669653,1444421670254,913,399,0,0,0,2,3,1,23,0002-00-0008-99.png,0003-00-0005-37.png
9,122,1,1444421670287,1444421670584,927,342,0,0,0,4,3,1,43,0005-00-0001-76.png,0003-00-0003-69.png
9,123,0,1444421670612,1444421671355,927,432,0,0,0,2,1,1,21,0002-00-0003-71.png,0004-00-0009-13.png
9,124,1,1444421671381,1444421671437,381,434,0,0,0,5,4,1,54,0001-00-0005-57.png,0005-00-0005-03.png
9,125,0,1444421671464,1444421671639,1051,278,0,0,0,1,2,1,12,0004-00-0003-81.png,0002-00-0008-28.png
9,126,1,1444421671679,1444421672791,888,384,0,0,0,3,2,1,32,0003-00-0008-00.png,0002-00-0006-97.png
9,127,1,1444421672819,1444421672965,491,277,0,0,0,5,4,1,54,0001-00-0001-81.png,0005-00-0001-91.png
9,128,0,1444421672992,1444421673206,927,403,0,0,0,3,4,1,34,0003-00-0006-59.png,0005-00-0006-32.png
9,129,1,1444421673224,1444421674202,939,462,0,0,0,3,4,1,34,0003-00-0006-63.png,0005-00-0003-43.png
9,130,0,1444421674233,1444421674639,427,317,0,0,0,4,3,1,43,0005-00-0009-13.png,0003-00-0003-23.png
9,131,1,1444421674670,1444421675004,889,413,0,0,0,1,2,1,12,0004-00-0006-39.png,0002-00-0007-65.png
9,132,0,1444421675024,1444421675431,913,436,0,0,0,2,3,1,23,0002-00-0000-49.png,0003-00-0005-15.png
9,133,1,1444421675453,1444421675475,923,442,0,0,0,3,2,1,32,0003-00-0009-04.png,0002-00-0005-45.png
9,134,0,1444421675496,1444421678877,888,472,0,0,0,5,4,1,54,0001-00-0002-72.png,0005-00-0005-01.png
9,135,0,1444421678906,1444421679265,922,456,0,0,0,2,1,1,21,0002-00-0002-88.png,0004-00-0009-44.png
9,136,0,1444421679285,1444421679586,323,400,0,0,0,5,4,1,54,0001-00-0003-30.png,0005-00-0004-33.png
9,137,0,1444421679612,1444421679621,375,386,0,0,0,5,4,1,54,0001-00-0000-75.png,0005-00-0002-90.png
9,138,0,1444421679652,1444421679791,885,466,0,0,0,2,1,1,21,0002-00-0002-60.png,0004-00-0006-20.png
9,139,1,1444421679825,1444421680308,888,436,0,0,0,5,4,1,54,0001-00-0006-23.png,0005-00-0005-78.png
9,140,1,1444421680334,1444421681156,964,398,0,0,0,2,3,1,23,0002-00-0008-80.png,0003-00-0004-74.png
9,141,0,1444421681183,1444421681634,930,318,0,0,0,3,2,1,32,0003-00-0001-86.png,0002-00-0005-38.png
9,142,0,1444421681661,1444421681715,463,325,0,0,0,3,4,1,34,0003-00-0001-01.png,0005-00-0004-77.png
9,143,0,1444421681742,1444421682016,472,299,0,0,0,1,2,1,12,0004-00-0009-08.png,0002-00-0005-48.png
9,144,0,1444421682046,1444421682124,1073,297,0,0,0,4,3,1,43,0005-00-0006-46.png,0003-00-0005-05.png
9,145,1,1444421682142,1444421682239,1041,306,0,0,0,3,2,1,32,0003-00-0001-35.png,0002-00-0003-68.png
9,146,1,1444421682278,1444421682349,943,324,0,0,0,5,4,1,54,0001-00-0000-11.png,0005-00-0003-23.png
9,147,1,1444421682381,1444421682413,420,313,0,0,0,3,4,1,34,0003-00-0007-28.png,0005-00-0003-21.png
9,148,1,1444421682442,1444421683427,928,523,0,0,0,1,2,1,12,0004-00-0009-24.png,0002-00-0000-07.png
9,149,0,1444421683464,1444421683953,422,319,0,0,0,4,3,1,43,0005-00-0001-97.png,0003-00-0008-47.png
9,150,0,1444421683990,1444421684095,930,411,0,0,0,2,3,1,23,0002-00-0002-73.png,0003-00-0003-51.png
9,151,0,1444421684117,1444421686257,1092,292,0,0,0,2,1,1,21,0002-00-0003-13.png,0004-00-0007-49.png
9,152,0,1444421686286,1444421687957,932,443,0,0,0,5,4,1,54,0001-00-0006-77.png,0005-00-0006-34.png
9,153,1,1444421687981,1444421688302,453,294,0,0,0,5,4,1,54,0001-00-0008-56.png,0005-00-0005-78.png
9,154,1,1444421688332,1444421688711,939,346,0,0,0,4,3,1,43,0005-00-0004-91.png,0003-00-0000-25.png
9,155,1,1444421688740,1444421688933,913,445,0,0,0,1,2,1,12,0004-00-0006-38.png,0002-00-0006-89.png
9,156,1,1444421688960,1444421689091,478,318,0,0,0,3,2,1,32,0003-00-0007-27.png,0002-00-0004-86.png
9,157,1,1444421689117,1444421689799,1071,310,0,0,0,2,1,1,21,0002-00-0009-79.png,0004-00-0001-04.png
9,158,0,1444421689813,1444421689867,907,390,0,0,0,3,4,1,34,0003-00-0003-67.png,0005-00-0003-79.png
9,159,0,1444421689899,1444421690077,351,404,0,0,0,2,3,1,23,0002-00-0003-38.png,0003-00-0008-16.png
9,160,1,1444421690112,1444421690188,1078,306,0,0,0,5,4,1,54,0001-00-0004-71.png,0005-00-0001-03.png
9,161,0,1444421690207,1444421690834,390,384,0,0,0,2,1,1,21,0002-00-0001-74.png,0004-00-0006-68.png
9,162,1,1444421690866,1444421690907,873,462,0,0,0,3,2,1,32,0003-00-0007-90.png,0002-00-0003-04.png
9,163,1,1444421690935,1444421694140,924,304,0,0,0,5,4,1,54,0001-00-0007-08.png,0005-00-0005-27.png
9,164,0,1444421694167,1444421694476,890,437,0,0,0,5,4,1,54,0001-00-0001-64.png,0005-00-0001-00.png
9,165,1,1444421694506,1444421694858,963,339,0,0,0,2,3,1,23,0002-00-0006-65.png,0003-00-0005-93.png
9,166,1,1444421694880,1444421695398,438,270,0,0,0,1,2,1,12,0004-00-0000-97.png,0002-00-0006-42.png
9,167,1,1444421695420,1444421695473,372,402,0,0,0,4,3,1,43,0005-00-0009-30.png,0003-00-0008-32.png
9,168,1,1444421695492,1444421695745,365,386,0,0,0,3,4,1,34,0003-00-0006-62.png,0005-00-0004-50.png
9,169,1,1444421695770,1444421695883,445,304,0,0,0,5,4,1,54,0001-00-0002-71.png,0005-00-0005-83.png
9,170,0,1444421695914,1444421695996,1041,279,0,0,0,4,3,1,43,0005-00-0002-03.png,0003-00-0009-39.png
9,171,1,1444421696021,1444421697002,923,454,0,0,0,2,1,1,21,0002-00-0003-00.png,0004-00-0003-04.png
9,172,0,1444421697030,1444421697286,906,456,0,0,0,5,4,1,54,0001-00-0007-58.png,0005-00-0000-82.png
9,173,1,1444421697325,1444421697867,945,477,0,0,0,1,2,1,12,0004-00-0003-33.png,0002-00-0003-84.png
9,174,1,1444421697886,1444421698133,958,481,0,0,0,3,2,1,32,0003-00-0009-38.png,0002-00-0003-12.png
9,175,0,1444421698160,1444421698240,1047,332,0,0,0,3,4,1,34,0003-00-0004-54.png,0005-00-0006-95.png
9,176,0,1444421698267,1444421699220,366,399,0,0,0,2,3,1,23,0002-00-0003-53.png,0003-00-0008-86.png
9,177,0,1444421699249,1444421699290,917,331,0,0,0,4,3,1,43,0005-00-0004-15.png,0003-00-0005-92.png
9,178,1,1444421699319,1444421699627,905,442,0,0,0,3,4,1,34,0003-00-0007-48.png,0005-00-0009-14.png
9,179,1,1444421699667,1444421699782,907,439,0,0,0,5,4,1,54,0001-00-0001-10.png,0005-00-0003-67.png
9,180,1,1444421699823,1444421700606,939,438,0,0,0,1,2,1,12,0004-00-0006-80.png,0002-00-0008-86.png
9,181,0,1444421700626,1444421700780,369,415,0,0,0,2,1,1,21,0002-00-0000-83.png,0004-00-0008-10.png
9,182,0,1444421700801,1444421700913,461,264,0,0,0,2,3,1,23,0002-00-0002-07.png,0003-00-0003-12.png
9,183,1,1444421700932,1444421701292,888,442,0,0,0,3,2,1,32,0003-00-0000-14.png,0002-00-0004-21.png
9,184,1,1444421701315,1444421701358,881,443,0,0,0,5,4,1,54,0001-00-0005-12.png,0005-00-0001-81.png
9,185,0,1444421701394,1444421701643,399,378,0,0,0,2,3,1,23,0002-00-0003-83.png,0003-00-0001-10.png
9,186,1,1444421701676,1444421703146,441,276,0,0,0,3,2,1,32,0003-00-0006-27.png,0002-00-0006-52.png
9,187,1,1444421703170,1444421703365,858,472,0,0,0,2,1,1,21,0002-00-0005-32.png,0004-00-0008-29.png
9,188,1,1444421703389,1444421703560,869,447,0,0,0,3,4,1,34,0003-00-0005-94.png,0005-00-0006-23.png
9,189,0,1444421703591,1444421705664,1064,319,0,0,0,5,4,1,54,0001-00-0005-88.png,0005-00-0007-96.png
9,190,0,1444421705683,1444421705860,877,450,0,0,0,1,2,1,12,0004-00-0000-60.png,0002-00-0005-50.png
9,191,1,1444421705896,1444421707185,897,436,0,0,0,5,4,1,54,0001-00-0007-51.png,0005-00-0008-86.png
9,192,1,1444421707214,1444421707490,964,373,0,0,0,4,3,1,43,0005-00-0004-22.png,0003-00-0003-80.png
9,193,0,1444421707521,1444421707768,971,341,0,0,0,2,3,1,23,0002-00-0009-21.png,0003-00-0002-62.png
9,194,0,1444421707800,1444421708402,965,475,0,0,0,3,2,1,32,0003-00-0002-95.png,0002-00-0000-87.png
9,195,1,1444421708423,1444421708750,939,314,0,0,0,4,3,1,43,0005-00-0007-12.png,0003-00-0008-02.png
9,196,0,1444421708783,1444421708875,350,371,0,0,0,3,4,1,34,0003-00-0007-63.png,0005-00-0007-72.png
9,197,0,1444421708911,1444421709134,876,390,0,0,0,5,4,1,54,0001-00-0009-63.png,0005-00-0002-48.png
9,198,1,1444421709160,1444421709575,862,345,0,0,0,5,4,1,54,0001-00-0005-30.png,0005-00-0002-91.png
9,199,0,1444421709617,1444421709635,937,302,0,0,0,1,2,1,12,0004-00-0000-48.png,0002-00-0005-35.png
9,200,1,1444421709658,1444421710093,444,325,0,0,0,2,1,1,21,0002-00-0004-67.png,0004-00-0004-89.png
9,201,1,1444421710133,1444421711173,917,387,0,0,0,1,2,1,12,0004-00-0001-18.png,0002-00-0004-39.png
9,202,1,1444421711196,1444421711572,1030,390,0,0,0,5,4,1,54,0001-00-0001-20.png,0005-00-0000-00.png
9,203,1,1444421711599,1444421711664,410,382,0,0,0,2,1,1,21,0002-00-0002-14.png,0004-00-0009-40.png
9,204,0,1444421711702,1444421712217,458,307,0,0,0,3,4,1,34,0003-00-0001-93.png,0005-00-0002-56.png
9,205,0,1444421712254,1444421712339,1067,291,0,0,0,5,4,1,54,0001-00-0005-26.png,0005-00-0004-01.png
9,206,1,1444421712365,1444421712533,921,452,0,0,0,4,3,1,43,0005-00-0005-61.png,0003-00-0002-45.png
9,207,1,1444421712571,1444421712775,895,428,0,0,0,2,3,1,23,0002-00-0002-50.png,0003-00-0001-75.png
9,208,0,1444421712803,1444421713352,1016,462,0,0,0,3,2,1,32,0003-00-0001-51.png,0002-00-0002-76.png
9,209,0,1444421713395,1444421713495,939,422,0,0,0,4,3,1,43,0005-00-0008-24.png,0003-00-0002-68.png
9,210,1,1444421713518,1444421713562,899,410,0,0,0,1,2,1,12,0004-00-0000-38.png,0002-00-0005-19.png
9,211,1,1444421713587,1444421713640,888,410,0,0,0,5,4,1,54,0001-00-0005-56.png,0005-00-0004-65.png
9,212,1,1444421713666,1444421713755,888,436,0,0,0,3,2,1,32,0003-00-0002-71.png,0002-00-0004-80.png
9,213,0,1444421713783,1444421714935,390,408,0,0,0,5,4,1,54,0001-00-0004-35.png,0005-00-0008-65.png
9,214,1,1444421714961,1444421714990,464,284,0,0,0,3,4,1,34,0003-00-0005-33.png,0005-00-0004-03.png
9,215,1,1444421715019,1444421715864,879,445,0,0,0,2,1,1,21,0002-00-0009-62.png,0004-00-0001-37.png
9,216,1,1444421715899,1444421716000,881,429,0,0,0,2,3,1,23,0002-00-0002-18.png,0003-00-0007-50.png
9,217,1,1444421716038,1444421716270,422,419,0,0,0,2,3,1,23,0002-00-0006-08.png,0003-00-0002-01.png
9,218,1,1444421716296,1444421717053,376,395,0,0,0,3,2,1,32,0003-00-0003-80.png,0002-00-0007-66.png
9,219,1,1444421717084,1444421717208,1036,292,0,0,0,5,4,1,54,0001-00-0004-59.png,0005-00-0008-45.png
9,220,0,1444421717230,1444421717683,939,279,0,0,0,5,4,1,54,0001-00-0007-64.png,0005-00-0005-04.png
9,221,0,1444421717716,1444421718408,886,424,0,0,0,2,1,1,21,0002-00-0008-94.png,0004-00-0001-62.png
9,222,1,1444421718436,1444421718793,889,421,0,0,0,4,3,1,43,0005-00-0007-47.png,0003-00-0007-04.png
9,223,0,1444421718816,1444421719673,863,438,0,0,0,3,4,1,34,0003-00-0004-01.png,0005-00-0009-06.png
9,224,1,1444421719708,1444421720033,1118,291,0,0,0,1,2,1,12,0004-00-0004-17.png,0002-00-0009-89.png
9,225,1,1444421720051,1444421720769,920,452,0,0,0,5,4,1,54,0001-00-0002-84.png,0005-00-0000-18.png
9,226,1,1444421720800,1444421722189,953,417,0,0,0,2,1,1,21,0002-00-0008-12.png,0004-00-0005-42.png
9,227,1,1444421722206,1444421722404,926,432,0,0,0,4,3,1,43,0005-00-0002-42.png,0003-00-0005-93.png
9,228,1,1444421722430,1444421722606,975,410,0,0,0,2,3,1,23,0002-00-0003-44.png,0003-00-0006-68.png
9,229,0,1444421722652,1444421722768,913,400,0,0,0,3,4,1,34,0003-00-0004-74.png,0005-00-0002-93.png
9,230,0,1444421722797,1444421723157,476,295,0,0,0,1,2,1,12,0004-00-0006-71.png,0002-00-0002-49.png
9,231,0,1444421723188,1444421723268,862,410,0,0,0,5,4,1,54,0001-00-0003-63.png,0005-00-0002-78.png
9,232,1,1444421723308,1444421723697,891,412,0,0,0,3,2,1,32,0003-00-0000-46.png,0002-00-0005-15.png
9,233,1,1444421723722,1444421724723,904,445,0,0,0,5,4,1,54,0001-00-0004-14.png,0005-00-0008-46.png
9,234,1,1444421724760,1444421725121,982,300,0,0,0,1,2,1,12,0004-00-0002-91.png,0002-00-0007-89.png
9,235,1,1444421725159,1444421726333,887,475,0,0,0,5,4,1,54,0001-00-0005-57.png,0005-00-0004-43.png
9,236,0,1444421726362,1444421729209,395,414,0,0,0,2,1,1,21,0002-00-0007-18.png,0004-00-0000-66.png
9,237,1,1444421729233,1444421729674,1018,324,0,0,0,3,2,1,32,0003-00-0009-10.png,0002-00-0009-29.png
9,238,1,1444421729698,1444421729796,939,410,0,0,0,3,4,1,34,0003-00-0006-94.png,0005-00-0000-28.png
9,239,1,1444421729830,1444421730076,456,255,0,0,0,4,3,1,43,0005-00-0003-64.png,0003-00-0004-84.png
9,240,0,1444421730109,1444421730310,861,435,0,0,0,2,3,1,23,0002-00-0007-37.png,0003-00-0007-78.png
9,241,1,1444421730331,1444421731535,894,428,0,0,0,5,4,1,54,0001-00-0005-42.png,0005-00-0001-89.png
9,242,1,1444421731559,1444421731994,1024,335,0,0,0,4,3,1,43,0005-00-0006-23.png,0003-00-0002-63.png
9,243,1,1444421732024,1444421732192,939,331,0,0,0,3,4,1,34,0003-00-0005-08.png,0005-00-0009-03.png
9,244,0,1444421732219,1444421732685,917,413,0,0,0,2,3,1,23,0002-00-0008-50.png,0003-00-0003-28.png
9,245,0,1444421732716,1444421734952,478,271,0,0,0,5,4,1,54,0001-00-0001-77.png,0005-00-0007-80.png
9,246,0,1444421734978,1444421735248,492,272,0,0,0,1,2,1,12,0004-00-0002-95.png,0002-00-0009-98.png
9,247,1,1444421735275,1444421735299,1092,279,0,0,0,2,1,1,21,0002-00-0006-78.png,0004-00-0000-41.png
9,248,1,1444421735327,1444421735584,903,398,0,0,0,3,2,1,32,0003-00-0004-28.png,0002-00-0004-20.png
9,249,0,1444421735606,1444421736955,476,281,0,0,0,2,3,1,23,0002-00-0002-38.png,0003-00-0005-07.png
9,250,0,1444421736977,1444421759167,922,462,0,0,0,3,4,1,34,0003-00-0007-91.png,0005-00-0002-24.png
9,251,0,1444421759203,1444421759647,478,293,0,0,0,5,4,1,54,0001-00-0002-62.png,0005-00-0002-13.png
9,252,1,1444421759674,1444421760340,884,503,0,0,0,4,3,1,43,0005-00-0003-48.png,0003-00-0006-71.png
9,253,1,1444421760362,1444421760948,990,373,0,0,0,3,2,1,32,0003-00-0008-81.png,0002-00-0006-92.png
9,254,0,1444421760969,1444421761172,965,441,0,0,0,5,4,1,54,0001-00-0001-23.png,0005-00-0003-22.png
9,255,0,1444421761197,1444421761269,888,425,0,0,0,2,1,1,21,0002-00-0006-64.png,0004-00-0000-48.png
9,256,1,1444421761291,1444421762066,901,471,0,0,0,1,2,1,12,0004-00-0002-31.png,0002-00-0006-59.png
9,257,1,1444421762098,1444421762509,916,457,0,0,0,3,2,1,32,0003-00-0007-24.png,0002-00-0003-78.png
9,258,0,1444421762532,1444421764964,964,426,0,0,0,2,3,1,23,0002-00-0008-16.png,0003-00-0003-91.png
9,259,0,1444421764991,1444421765037,935,393,0,0,0,5,4,1,54,0001-00-0009-28.png,0005-00-0009-73.png
9,260,1,1444421765074,1444421765188,888,413,0,0,0,3,4,1,34,0003-00-0002-77.png,0005-00-0002-62.png
9,261,0,1444421765214,1444421765588,863,437,0,0,0,2,1,1,21,0002-00-0008-30.png,0004-00-0005-54.png
9,262,1,1444421765615,1444421766155,401,396,0,0,0,1,2,1,12,0004-00-0005-99.png,0002-00-0007-21.png
9,263,1,1444421766187,1444421766302,860,461,0,0,0,5,4,1,54,0001-00-0007-78.png,0005-00-0001-48.png
9,264,0,1444421766327,1444421767333,865,448,0,0,0,4,3,1,43,0005-00-0003-89.png,0003-00-0000-22.png
9,265,0,1444421767361,1444421767574,1094,288,0,0,0,5,4,1,54,0001-00-0008-64.png,0005-00-0007-11.png
9,266,1,1444421767610,1444421767630,1062,291,0,0,0,3,4,1,34,0003-00-0008-58.png,0005-00-0002-84.png
9,267,1,1444421767657,1444421767753,969,333,0,0,0,5,4,1,54,0001-00-0006-40.png,0005-00-0008-28.png
9,268,0,1444421767794,1444421767854,1065,277,0,0,0,2,1,1,21,0002-00-0002-50.png,0004-00-0003-58.png
9,269,1,1444421767876,1444421767981,878,443,0,0,0,1,2,1,12,0004-00-0001-37.png,0002-00-0003-13.png
9,270,0,1444421768003,1444421768401,888,421,0,0,0,3,2,1,32,0003-00-0001-05.png,0002-00-0007-18.png
9,271,1,1444421768430,1444421769171,994,332,0,0,0,4,3,1,43,0005-00-0007-44.png,0003-00-0000-80.png
9,272,1,1444421769194,1444421769221,435,429,0,0,0,2,3,1,23,0002-00-0008-68.png,0003-00-0009-42.png
9,273,1,1444421769257,1444421769934,913,452,0,0,0,3,2,1,32,0003-00-0005-06.png,0002-00-0005-69.png
9,274,1,1444421769966,1444421770550,402,373,0,0,0,2,3,1,23,0002-00-0004-11.png,0003-00-0007-32.png
9,275,0,1444421770578,1444421770607,957,341,0,0,0,2,1,1,21,0002-00-0003-57.png,0004-00-0009-98.png
9,276,1,1444421770635,1444421776678,894,425,0,0,0,4,3,1,43,0005-00-0006-73.png,0003-00-0004-21.png
9,277,1,1444421776723,1444421777942,879,417,0,0,0,1,2,1,12,0004-00-0000-50.png,0002-00-0008-77.png
9,278,0,1444421777974,1444421778221,1092,306,0,0,0,5,4,1,54,0001-00-0009-72.png,0005-00-0002-52.png
9,279,1,1444421778240,1444421778372,942,331,0,0,0,3,4,1,34,0003-00-0007-05.png,0005-00-0003-41.png
9,280,1,1444421778400,1444421780165,941,421,0,0,0,5,4,1,54,0001-00-0001-67.png,0005-00-0003-64.png
9,281,1,1444421780207,1444421780281,1103,289,0,0,0,3,4,1,34,0003-00-0008-47.png,0005-00-0007-60.png
9,282,1,1444421780313,1444421780616,922,436,0,0,0,1,2,1,12,0004-00-0008-42.png,0002-00-0008-68.png
9,283,0,1444421780638,1444421780853,888,413,0,0,0,2,1,1,21,0002-00-0008-69.png,0004-00-0009-30.png
9,284,1,1444421780875,1444421781448,480,326,0,0,0,5,4,1,54,0001-00-0009-44.png,0005-00-0005-21.png
9,285,0,1444421781477,1444421781674,383,360,0,0,0,3,2,1,32,0003-00-0001-94.png,0002-00-0001-33.png
9,286,0,1444421781694,1444421782075,863,464,0,0,0,2,3,1,23,0002-00-0008-28.png,0003-00-0007-03.png
9,287,0,1444421782124,1444421782297,913,474,0,0,0,4,3,1,43,0005-00-0000-24.png,0003-00-0004-43.png
9,288,1,1444421782318,1444421782410,1092,279,0,0,0,5,4,1,54,0001-00-0005-10.png,0005-00-0003-83.png
9,289,0,1444421782438,1444421782638,471,271,0,0,0,5,4,1,54,0001-00-0009-62.png,0005-00-0000-96.png
9,290,1,1444421782667,1444421782916,886,391,0,0,0,2,1,1,21,0002-00-0002-06.png,0004-00-0003-18.png
9,291,1,1444421782936,1444421783318,918,439,0,0,0,1,2,1,12,0004-00-0001-60.png,0002-00-0003-00.png
9,292,0,1444421783357,1444421785029,939,474,0,0,0,2,3,1,23,0002-00-0001-09.png,0003-00-0006-32.png
9,293,1,1444421785068,1444421786376,410,405,0,0,0,5,4,1,54,0001-00-0008-28.png,0005-00-0001-97.png
9,294,1,1444421786415,1444421786606,419,433,0,0,0,4,3,1,43,0005-00-0000-92.png,0003-00-0001-90.png
9,295,0,1444421786649,1444421786844,882,467,0,0,0,3,4,1,34,0003-00-0003-43.png,0005-00-0003-18.png
9,296,1,1444421786861,1444421787699,917,462,0,0,0,3,2,1,32,0003-00-0005-35.png,0002-00-0005-82.png
9,297,0,1444421787729,1444421788399,920,468,0,0,0,5,4,1,54,0001-00-0003-92.png,0005-00-0005-66.png
9,298,1,1444421788427,1444421788811,932,472,0,0,0,5,4,1,54,0001-00-0007-72.png,0005-00-0004-21.png
9,299,1,1444421788836,1444421788897,925,460,0,0,0,2,3,1,23,0002-00-0000-49.png,0003-00-0002-81.png
9,300,1,1444421788926,1444421789005,922,439,0,0,0,3,2,1,32,0003-00-0002-25.png,0002-00-0006-04.png
9,301,0,1444421789033,1444421789289,892,419,0,0,0,1,2,1,12,0004-00-0005-00.png,0002-00-0009-40.png
9,302,1,1444421789314,1444421792330,408,392,0,0,0,3,4,1,34,0003-00-0007-56.png,0005-00-0004-85.png
9,303,0,1444421792357,1444421793534,499,268,0,0,0,4,3,1,43,0005-00-0002-79.png,0003-00-0007-10.png
9,304,0,1444421793563,1444421793574,939,514,0,0,0,2,1,1,21,0002-00-0004-01.png,0004-00-0008-05.png
9,305,1,1444421793595,1444421794874,939,323,0,0,0,2,3,1,23,0002-00-0009-63.png,0003-00-0007-98.png
9,306,0,1444421794918,1444421796141,1092,279,0,0,0,5,4,1,54,0001-00-0007-67.png,0005-00-0004-17.png
9,307,1,1444421796164,1444421796575,994,418,0,0,0,4,3,1,43,0005-00-0005-25.png,0003-00-0009-68.png
9,308,1,1444421796603,1444421797143,922,436,0,0,0,1,2,1,12,0004-00-0001-72.png,0002-00-0008-84.png
9,309,0,1444421797169,1444421797599,477,298,0,0,0,2,1,1,21,0002-00-0008-70.png,0004-00-0006-93.png
9,310,1,1444421797624,1444421799095,940,366,0,0,0,5,4,1,54,0001-00-0003-23.png,0005-00-0009-43.png
9,311,1,1444421799125,1444421799353,971,391,0,0,0,3,4,1,34,0003-00-0003-76.png,0005-00-0008-50.png
9,312,1,1444421799388,1444421799813,461,263,0,0,0,3,2,1,32,0003-00-0009-08.png,0002-00-0000-09.png
9,313,0,1444421799839,1444421804360,939,436,0,0,0,2,3,1,23,0002-00-0008-86.png,0003-00-0009-86.png
9,314,0,1444421804384,1444421805929,933,470,0,0,0,4,3,1,43,0005-00-0001-76.png,0003-00-0000-90.png
9,315,1,1444421805957,1444421806816,485,271,0,0,0,5,4,1,54,0001-00-0004-13.png,0005-00-0005-02.png
9,316,1,1444421806842,1444421807229,939,396,0,0,0,1,2,1,12,0004-00-0003-27.png,0002-00-0000-25.png
9,317,1,1444421807256,1444421808030,965,471,0,0,0,2,1,1,21,0002-00-0000-13.png,0004-00-0001-77.png
9,318,1,1444421808055,1444421808156,908,412,0,0,0,3,4,1,34,0003-00-0004-23.png,0005-00-0008-01.png
9,319,1,1444421808186,1444421808255,942,470,0,0,0,5,4,1,54,0001-00-0001-24.png,0005-00-0004-54.png
9,320,0,1444421808274,1444421808488,1017,328,0,0,0,3,2,1,32,0003-00-0005-60.png,0002-00-0006-62.png
9,321,0,1444421808508,1444421808613,485,436,0,0,0,5,4,1,54,0001-00-0003-57.png,0005-00-0000-51.png
9,322,1,1444421808643,1444421809940,964,398,0,0,0,4,3,1,43,0005-00-0008-58.png,0003-00-0005-15.png
9,323,1,1444421809967,1444421810160,920,443,0,0,0,5,4,1,54,0001-00-0005-91.png,0005-00-0000-40.png
9,324,0,1444421810186,1444421810894,940,440,0,0,0,2,3,1,23,0002-00-0002-36.png,0003-00-0002-81.png
9,325,0,1444421810913,1444421811914,483,288,0,0,0,1,2,1,12,0004-00-0007-32.png,0002-00-0004-75.png
9,326,0,1444421811959,1444421812100,482,286,0,0,0,3,2,1,32,0003-00-0009-41.png,0002-00-0003-36.png
9,327,0,1444421812145,1444421812767,895,410,0,0,0,2,1,1,21,0002-00-0005-98.png,0004-00-0003-80.png
9,328,0,1444421812787,1444421812860,963,305,0,0,0,3,4,1,34,0003-00-0001-80.png,0005-00-0009-75.png
9,329,1,1444421812885,1444421813257,497,271,0,0,0,5,4,1,54,0001-00-0001-99.png,0005-00-0008-22.png
9,330,1,1444421813294,1444421814183,899,453,0,0,0,1,2,1,12,0004-00-0007-20.png,0002-00-0002-27.png
9,331,1,1444421814210,1444421814388,940,409,0,0,0,2,3,1,23,0002-00-0002-64.png,0003-00-0004-21.png
9,332,1,1444421814410,1444421814887,1067,306,0,0,0,5,4,1,54,0001-00-0009-44.png,0005-00-0001-83.png
9,333,0,1444421814909,1444421815272,416,410,0,0,0,3,2,1,32,0003-00-0001-23.png,0002-00-0006-77.png
9,334,1,1444421815292,1444421815988,882,496,0,0,0,3,4,1,34,0003-00-0008-97.png,0005-00-0003-98.png
9,335,1,1444421816010,1444421816122,932,444,0,0,0,4,3,1,43,0005-00-0008-01.png,0003-00-0006-94.png
9,336,1,1444421816151,1444421816749,917,446,0,0,0,2,1,1,21,0002-00-0007-79.png,0004-00-0007-50.png
9,337,0,1444421816772,1444421818505,964,321,0,0,0,3,2,1,32,0003-00-0009-14.png,0002-00-0001-49.png
9,338,1,1444421818553,1444421818647,389,397,0,0,0,5,4,1,54,0001-00-0004-20.png,0005-00-0005-91.png
9,339,1,1444421818682,1444421818736,1041,306,0,0,0,3,4,1,34,0003-00-0000-90.png,0005-00-0004-81.png
9,340,1,1444421818768,1444421820246,913,446,0,0,0,5,4,1,54,0001-00-0006-62.png,0005-00-0004-07.png
9,341,1,1444421820280,1444421820847,933,471,0,0,0,4,3,1,43,0005-00-0004-68.png,0003-00-0006-00.png
9,342,1,1444421820880,1444421820934,937,483,0,0,0,2,1,1,21,0002-00-0006-93.png,0004-00-0002-06.png
9,343,1,1444421820961,1444421821288,488,325,0,0,0,1,2,1,12,0004-00-0003-61.png,0002-00-0002-77.png
9,344,0,1444421821324,1444421821408,870,439,0,0,0,2,3,1,23,0002-00-0006-95.png,0003-00-0008-84.png
9,345,1,1444421821450,1444421821686,907,397,0,0,0,2,1,1,21,0002-00-0006-87.png,0004-00-0000-13.png
9,346,0,1444421821709,1444421822083,883,436,0,0,0,1,2,1,12,0004-00-0001-97.png,0002-00-0004-42.png
9,347,1,1444421822105,1444421822284,886,469,0,0,0,3,2,1,32,0003-00-0009-45.png,0002-00-0002-54.png
9,348,1,1444421822311,1444421822542,919,441,0,0,0,4,3,1,43,0005-00-0000-53.png,0003-00-0009-17.png
9,349,1,1444421822571,1444421822771,990,317,0,0,0,5,4,1,54,0001-00-0006-17.png,0005-00-0001-64.png
9,350,1,1444421822799,1444421823331,860,397,0,0,0,3,4,1,34,0003-00-0008-88.png,0005-00-0001-16.png
9,351,0,1444421823359,1444421823726,486,301,0,0,0,2,3,1,23,0002-00-0006-11.png,0003-00-0002-16.png
9,352,1,1444421823753,1444421823980,1067,269,0,0,0,5,4,1,54,0001-00-0001-29.png,0005-00-0005-41.png
9,353,1,1444421824028,1444421825959,466,265,0,0,0,2,3,1,23,0002-00-0000-14.png,0003-00-0009-51.png
9,354,1,1444421825985,1444421827323,939,427,0,0,0,5,4,1,54,0001-00-0008-73.png,0005-00-0009-71.png
9,355,1,1444421827349,1444421827515,1078,279,0,0,0,3,2,1,32,0003-00-0007-95.png,0002-00-0008-81.png
9,356,1,1444421827552,1444421827754,401,398,0,0,0,1,2,1,12,0004-00-0009-58.png,0002-00-0001-71.png
9,357,0,1444421827787,1444421828029,1026,253,0,0,0,3,4,1,34,0003-00-0008-12.png,0005-00-0002-24.png
9,358,1,1444421828059,1444421828106,920,430,0,0,0,4,3,1,43,0005-00-0009-54.png,0003-00-0001-50.png
9,359,1,1444421828142,1444421828294,1092,269,0,0,0,5,4,1,54,0001-00-0003-35.png,0005-00-0002-83.png
9,360,0,1444421828323,1444421828367,954,454,0,0,0,2,1,1,21,0002-00-0003-33.png,0004-00-0009-20.png
9,361,1,1444421828400,1444421828556,899,448,0,0,0,1,2,1,12,0004-00-0001-15.png,0002-00-0008-94.png
9,362,1,1444421828607,1444421829268,927,462,0,0,0,3,2,1,32,0003-00-0006-08.png,0002-00-0004-28.png
9,363,1,1444421829290,1444421829767,964,398,0,0,0,2,3,1,23,0002-00-0001-86.png,0003-00-0006-74.png
9,364,1,1444421829792,1444421830091,493,242,0,0,0,5,4,1,54,0001-00-0004-81.png,0005-00-0000-80.png
9,365,1,1444421830116,1444421830830,861,500,0,0,0,3,4,1,34,0003-00-0003-75.png,0005-00-0004-99.png
9,366,1,1444421830857,1444421831022,512,284,0,0,0,4,3,1,43,0005-00-0002-07.png,0003-00-0006-86.png
9,367,1,1444421831053,1444421831636,483,299,0,0,0,5,4,1,54,0001-00-0002-98.png,0005-00-0006-24.png
9,368,1,1444421831657,1444421833030,1091,274,0,0,0,2,1,1,21,0002-00-0000-64.png,0004-00-0003-01.png
9,369,0,1444421833045,1444421833613,965,451,0,0,0,5,4,1,54,0001-00-0003-58.png,0005-00-0003-64.png
9,370,1,1444421833635,1444421833721,929,450,0,0,0,3,4,1,34,0003-00-0006-75.png,0005-00-0008-87.png
9,371,0,1444421833749,1444421833911,919,350,0,0,0,1,2,1,12,0004-00-0004-20.png,0002-00-0004-58.png
9,372,1,1444421833951,1444421849165,876,451,0,0,0,5,4,1,54,0001-00-0005-48.png,0005-00-0004-00.png
9,373,1,1444421849194,1444421851215,447,301,0,0,0,2,3,1,23,0002-00-0000-52.png,0003-00-0004-52.png
9,374,1,1444421851259,1444421851429,481,256,0,0,0,3,2,1,32,0003-00-0000-05.png,0002-00-0008-63.png
9,375,1,1444421851463,1444421853607,878,443,0,0,0,2,1,1,21,0002-00-0002-59.png,0004-00-0005-27.png
9,376,0,1444421853650,1444421854430,894,465,0,0,0,4,3,1,43,0005-00-0001-00.png,0003-00-0004-27.png
9,377,0,1444421854459,1444421854616,947,445,0,0,0,5,4,1,54,0001-00-0002-90.png,0005-00-0001-68.png
9,378,1,1444421854663,1444421854964,478,291,0,0,0,4,3,1,43,0005-00-0008-02.png,0003-00-0005-73.png
9,379,1,1444421854997,1444421857266,1051,279,0,0,0,1,2,1,12,0004-00-0002-93.png,0002-00-0005-47.png
9,380,0,1444421857295,1444421859240,931,329,0,0,0,3,4,1,34,0003-00-0002-62.png,0005-00-0000-84.png
9,381,1,1444421859263,1444421859538,928,442,0,0,0,2,1,1,21,0002-00-0004-27.png,0004-00-0003-68.png
9,382,0,1444421859568,1444421859963,456,257,0,0,0,3,2,1,32,0003-00-0007-90.png,0002-00-0008-03.png
9,383,1,1444421859997,1444421860620,982,410,0,0,0,2,3,1,23,0002-00-0006-70.png,0003-00-0007-63.png
9,384,0,1444421860644,1444421861071,920,474,0,0,0,5,4,1,54,0001-00-0007-05.png,0005-00-0003-96.png
9,385,0,1444421861090,1444421861260,897,426,0,0,0,2,1,1,21,0002-00-0002-06.png,0004-00-0008-51.png
9,386,0,1444421861291,1444421861441,939,462,0,0,0,3,4,1,34,0003-00-0006-81.png,0005-00-0003-79.png
9,387,0,1444421861462,1444421861628,964,401,0,0,0,5,4,1,54,0001-00-0000-12.png,0005-00-0005-44.png
9,388,1,1444421861667,1444421864942,485,280,0,0,0,5,4,1,54,0001-00-0005-12.png,0005-00-0005-03.png
9,389,0,1444421864974,1444421865172,1049,282,0,0,0,3,2,1,32,0003-00-0003-97.png,0002-00-0003-00.png
9,390,1,1444421865209,1444421867964,1002,306,0,0,0,1,2,1,12,0004-00-0009-59.png,0002-00-0007-68.png
9,391,1,1444421867994,1444421868056,915,431,0,0,0,4,3,1,43,0005-00-0005-62.png,0003-00-0004-53.png
9,392,1,1444421868091,1444421868548,955,384,0,0,0,2,3,1,23,0002-00-0006-74.png,0003-00-0004-81.png
9,393,1,1444421868562,1444421868826,964,349,0,0,0,2,3,1,23,0002-00-0003-17.png,0003-00-0000-51.png
9,394,1,1444421868848,1444421868894,1011,480,0,0,0,2,1,1,21,0002-00-0000-54.png,0004-00-0006-48.png
9,395,1,1444421868917,1444421869000,935,449,0,0,0,5,4,1,54,0001-00-0006-42.png,0005-00-0008-93.png
9,396,0,1444421869026,1444421869686,937,442,0,0,0,5,4,1,54,0001-00-0009-03.png,0005-00-0008-35.png
9,397,1,1444421869712,1444421871421,496,286,0,0,0,1,2,1,12,0004-00-0007-58.png,0002-00-0002-13.png
9,398,1,1444421871474,1444421871739,376,374,0,0,0,4,3,1,43,0005-00-0008-57.png,0003-00-0009-79.png
9,399,0,1444421871766,1444421872207,905,471,0,0,0,3,2,1,32,0003-00-0005-21.png,0002-00-0000-84.png
9,400,0,1444421872224,1444421872547,924,488,0,0,0,3,4,1,34,0003-00-0000-61.png,0005-00-0007-44.png
9,401,1,1444421872585,1444421872885,470,287,0,0,0,1,2,1,12,0004-00-0007-61.png,0002-00-0007-49.png
9,402,1,1444421872910,1444421873628,962,433,0,0,0,5,4,1,54,0001-00-0001-35.png,0005-00-0003-83.png
9,403,1,1444421873659,1444421873868,403,401,0,0,0,3,4,1,34,0003-00-0001-52.png,0005-00-0009-64.png
9,404,0,1444421873889,1444421874184,1081,298,0,0,0,5,4,1,54,0001-00-0009-99.png,0005-00-0000-74.png
9,405,1,1444421874229,1444421874442,950,410,0,0,0,3,2,1,32,0003-00-0001-72.png,0002-00-0005-79.png
9,406,1,1444421874476,1444421878846,948,375,0,0,0,4,3,1,43,0005-00-0002-07.png,0003-00-0004-59.png
9,407,0,1444421878871,1444421878889,1067,288,0,0,0,2,3,1,23,0002-00-0002-88.png,0003-00-0004-95.png
9,408,1,1444421878917,1444421880680,911,338,0,0,0,2,1,1,21,0002-00-0003-31.png,0004-00-0002-85.png
9,409,0,1444421880708,1444421880736,974,414,0,0,0,2,3,1,23,0002-00-0007-14.png,0003-00-0001-27.png
9,410,1,1444421880771,1444421881411,895,423,0,0,0,3,4,1,34,0003-00-0002-69.png,0005-00-0002-26.png
9,411,0,1444421881437,1444421882613,894,421,0,0,0,5,4,1,54,0001-00-0005-10.png,0005-00-0008-68.png
9,412,1,1444421882644,1444421882699,1012,281,0,0,0,3,2,1,32,0003-00-0004-38.png,0002-00-0006-13.png
9,413,0,1444421882727,1444421882946,478,262,0,0,0,5,4,1,54,0001-00-0000-89.png,0005-00-0005-32.png
9,414,0,1444421882974,1444421883063,943,348,0,0,0,2,1,1,21,0002-00-0002-25.png,0004-00-0006-93.png
9,415,1,1444421883089,1444421883132,964,333,0,0,0,4,3,1,43,0005-00-0006-09.png,0003-00-0004-09.png
9,416,1,1444421883155,1444421883849,469,270,0,0,0,1,2,1,12,0004-00-0001-19.png,0002-00-0001-60.png
9,417,0,1444421883872,1444421886779,888,462,0,0,0,3,2,1,32,0003-00-0008-24.png,0002-00-0007-83.png
9,418,1,1444421886818,1444421887447,913,472,0,0,0,1,2,1,12,0004-00-0002-62.png,0002-00-0003-49.png
9,419,1,1444421887474,1444421888200,921,447,0,0,0,5,4,1,54,0001-00-0003-50.png,0005-00-0000-94.png
9,420,0,1444421888227,1444421888421,1007,284,0,0,0,2,1,1,21,0002-00-0007-59.png,0004-00-0005-26.png
9,421,1,1444421888453,1444421889879,942,419,0,0,0,5,4,1,54,0001-00-0004-18.png,0005-00-0004-37.png
9,422,0,1444421889918,1444421894674,913,253,0,0,0,4,3,1,43,0005-00-0006-32.png,0003-00-0002-45.png
9,423,1,1444421894706,1444421894765,1075,306,0,0,0,3,4,1,34,0003-00-0002-89.png,0005-00-0009-23.png
9,424,0,1444421894803,1444421895444,866,436,0,0,0,2,3,1,23,0002-00-0009-87.png,0003-00-0005-76.png
9,425,1,1444421895467,1444421897212,1092,306,0,0,0,5,4,1,54,0001-00-0002-45.png,0005-00-0003-27.png
9,426,0,1444421897241,1444421897373,990,462,0,0,0,5,4,1,54,0001-00-0007-68.png,0005-00-0003-21.png
9,427,1,1444421897402,1444421906826,898,433,0,0,0,2,1,1,21,0002-00-0008-57.png,0004-00-0005-72.png
9,428,0,1444421906847,1444421907219,900,410,0,0,0,2,3,1,23,0002-00-0007-60.png,0003-00-0009-57.png
9,429,1,1444421907246,1444421909650,471,261,0,0,0,3,4,1,34,0003-00-0000-67.png,0005-00-0008-46.png
9,430,0,1444421909670,1444421909740,478,287,0,0,0,4,3,1,43,0005-00-0007-55.png,0003-00-0006-56.png
9,431,1,1444421909780,1444421909782,911,331,0,0,0,3,2,1,32,0003-00-0002-02.png,0002-00-0006-16.png
9,432,0,1444421909815,1444421909844,504,277,0,0,0,1,2,1,12,0004-00-0000-01.png,0002-00-0005-11.png
9,433,1,1444421909874,1444421912907,1051,306,0,0,0,5,4,1,54,0001-00-0002-21.png,0005-00-0009-29.png
9,434,1,1444421912930,1444421913904,918,385,0,0,0,5,4,1,54,0001-00-0002-29.png,0005-00-0001-10.png
9,435,0,1444421913927,1444421914065,862,374,0,0,0,2,1,1,21,0002-00-0005-30.png,0004-00-0009-50.png
9,436,0,1444421914092,1444421915129,1000,279,0,0,0,4,3,1,43,0005-00-0000-72.png,0003-00-0002-79.png
9,437,1,1444421915150,1444421915255,896,440,0,0,0,1,2,1,12,0004-00-0005-37.png,0002-00-0002-99.png
9,438,1,1444421915292,1444421915455,910,419,0,0,0,3,4,1,34,0003-00-0007-61.png,0005-00-0001-38.png
9,439,0,1444421915500,1444421916366,905,443,0,0,0,3,2,1,32,0003-00-0006-18.png,0002-00-0003-35.png
9,440,1,1444421916394,1444421917208,473,299,0,0,0,2,3,1,23,0002-00-0000-61.png,0003-00-0007-30.png
9,441,1,1444421917240,1444421917347,393,361,0,0,0,5,4,1,54,0001-00-0007-33.png,0005-00-0000-89.png
9,442,1,1444421917380,1444421917511,966,339,0,0,0,3,2,1,32,0003-00-0006-27.png,0002-00-0009-19.png
9,443,0,1444421917542,1444421919019,862,486,0,0,0,2,3,1,23,0002-00-0007-08.png,0003-00-0005-62.png
9,444,0,1444421919050,1444421919265,872,306,0,0,0,4,3,1,43,0005-00-0005-85.png,0003-00-0001-52.png
9,445,0,1444421919294,1444421919995,881,465,0,0,0,1,2,1,12,0004-00-0000-15.png,0002-00-0007-00.png
9,446,0,1444421920025,1444421920086,942,407,0,0,0,5,4,1,54,0001-00-0006-27.png,0005-00-0009-71.png
9,447,0,1444421920117,1444421924667,478,323,0,0,0,2,1,1,21,0002-00-0007-99.png,0004-00-0009-86.png
9,448,0,1444421924688,1444421924845,466,253,0,0,0,3,4,1,34,0003-00-0005-01.png,0005-00-0008-31.png
9,449,0,1444421924878,1444421925023,373,356,0,0,0,3,4,1,34,0003-00-0001-25.png,0005-00-0002-19.png
9,450,1,1444421925074,1444421925170,478,243,0,0,0,4,3,1,43,0005-00-0002-56.png,0003-00-0006-10.png
9,451,1,1444421925221,1444421925786,898,356,0,0,0,5,4,1,54,0001-00-0000-33.png,0005-00-0009-30.png
9,452,0,1444421925823,1444421926552,916,387,0,0,0,1,2,1,12,0004-00-0005-23.png,0002-00-0005-21.png
9,453,0,1444421926580,1444421927660,925,474,0,0,0,3,2,1,32,0003-00-0003-23.png,0002-00-0003-45.png
9,454,1,1444421927695,1444421927855,913,462,0,0,0,5,4,1,54,0001-00-0009-46.png,0005-00-0008-45.png
9,455,0,1444421927880,1444421929010,448,282,0,0,0,2,1,1,21,0002-00-0009-90.png,0004-00-0002-08.png
9,456,1,1444421929035,1444421929230,879,444,0,0,0,2,3,1,23,0002-00-0006-84.png,0003-00-0001-13.png
9,457,1,1444421929262,1444421929290,964,399,0,0,0,5,4,1,54,0001-00-0008-65.png,0005-00-0007-65.png
9,458,0,1444421929322,1444421929991,944,331,0,0,0,3,4,1,34,0003-00-0001-17.png,0005-00-0004-23.png
9,459,1,1444421930023,1444421930204,907,469,0,0,0,4,3,1,43,0005-00-0001-89.png,0003-00-0005-31.png
9,460,1,1444421930239,1444421930848,923,447,0,0,0,1,2,1,12,0004-00-0007-56.png,0002-00-0000-21.png
9,461,1,1444421930866,1444421931170,985,295,0,0,0,2,1,1,21,0002-00-0005-32.png,0004-00-0001-00.png
9,462,0,1444421931195,1444421932274,381,357,0,0,0,3,2,1,32,0003-00-0006-26.png,0002-00-0006-32.png
9,463,0,1444421932301,1444421932755,860,462,0,0,0,5,4,1,54,0001-00-0002-23.png,0005-00-0007-88.png
9,464,1,1444421932774,1444421934226,957,391,0,0,0,2,3,1,23,0002-00-0004-05.png,0003-00-0005-35.png
9,465,0,1444421934266,1444421935006,504,262,0,0,0,1,2,1,12,0004-00-0008-28.png,0002-00-0008-61.png
9,466,1,1444421935032,1444421935220,964,384,0,0,0,5,4,1,54,0001-00-0005-39.png,0005-00-0007-08.png
9,467,1,1444421935249,1444421935290,953,394,0,0,0,3,2,1,32,0003-00-0004-86.png,0002-00-0007-02.png
9,468,1,1444421935318,1444421935630,964,460,0,0,0,5,4,1,54,0001-00-0005-94.png,0005-00-0008-14.png
9,469,1,1444421935658,1444421935784,964,372,0,0,0,2,3,1,23,0002-00-0002-62.png,0003-00-0000-94.png
9,470,1,1444421935806,1444421935990,1078,279,0,0,0,3,4,1,34,0003-00-0005-89.png,0005-00-0003-62.png
9,471,0,1444421936012,1444421939267,957,330,0,0,0,4,3,1,43,0005-00-0006-97.png,0003-00-0009-89.png
9,472,0,1444421939295,1444421939951,492,241,0,0,0,2,1,1,21,0002-00-0005-90.png,0004-00-0004-27.png
9,473,1,1444421939985,1444421941107,1082,279,0,0,0,2,3,1,23,0002-00-0003-64.png,0003-00-0004-67.png
9,474,1,1444421941134,1444421941714,966,394,0,0,0,5,4,1,54,0001-00-0006-42.png,0005-00-0004-50.png
9,475,0,1444421941748,1444421942277,964,368,0,0,0,3,2,1,32,0003-00-0003-04.png,0002-00-0004-70.png
9,476,1,1444421942320,1444421946736,1067,295,0,0,0,3,4,1,34,0003-00-0001-78.png,0005-00-0008-48.png
9,477,1,1444421946757,1444421946814,420,262,0,0,0,5,4,1,54,0001-00-0006-22.png,0005-00-0001-84.png
9,478,0,1444421946847,1444421947154,867,479,0,0,0,2,1,1,21,0002-00-0004-08.png,0004-00-0005-84.png
9,479,0,1444421947188,1444421947564,922,471,0,0,0,1,2,1,12,0004-00-0005-89.png,0002-00-0002-71.png
9,480,0,1444421947588,1444421947681,1092,294,0,0,0,4,3,1,43,0005-00-0000-74.png,0003-00-0002-13.png
9,481,0,1444421947702,1444421950136,976,417,0,0,0,5,4,1,54,0001-00-0009-23.png,0005-00-0000-98.png
9,482,1,1444421950159,1444421968421,495,291,0,0,0,1,2,1,12,0004-00-0001-52.png,0002-00-0000-60.png
9,483,0,1444421968446,1444421968654,990,297,0,0,0,2,1,1,21,0002-00-0000-01.png,0004-00-0004-70.png
9,484,1,1444421968681,1444421968989,427,384,0,0,0,5,4,1,54,0001-00-0003-56.png,0005-00-0006-24.png
9,485,0,1444421969020,1444421976345,457,267,0,0,0,3,4,1,34,0003-00-0008-06.png,0005-00-0000-84.png
9,486,1,1444421976369,1444421980468,913,462,0,0,0,2,3,1,23,0002-00-0002-95.png,0003-00-0004-51.png
9,487,1,1444421980492,1444421981123,923,440,0,0,0,3,2,1,32,0003-00-0003-94.png,0002-00-0001-71.png
9,488,0,1444421981148,1444421981320,917,470,0,0,0,4,3,1,43,0005-00-0006-98.png,0003-00-0003-30.png
9,489,0,1444421981348,1444421982001,497,278,0,0,0,3,4,1,34,0003-00-0003-47.png,0005-00-0001-36.png
9,490,1,1444421982029,1444421988277,960,413,0,0,0,2,1,1,21,0002-00-0005-35.png,0004-00-0009-34.png
9,491,1,1444421988314,1444421988546,939,414,0,0,0,1,2,1,12,0004-00-0001-91.png,0002-00-0007-91.png
9,492,0,1444421988591,1444421988767,939,418,0,0,0,4,3,1,43,0005-00-0009-88.png,0003-00-0004-89.png
9,493,1,1444421988794,1444421989285,907,446,0,0,0,2,3,1,23,0002-00-0009-95.png,0003-00-0004-12.png
9,494,0,1444421989306,1444421990805,932,333,0,0,0,5,4,1,54,0001-00-0004-93.png,0005-00-0002-56.png
9,495,0,1444421990830,1444421991282,994,276,0,0,0,5,4,1,54,0001-00-0008-72.png,0005-00-0007-66.png
9,496,1,1444421991315,1444421991387,482,275,0,0,0,3,2,1,32,0003-00-0000-70.png,0002-00-0001-41.png
9,497,1,1444421991409,1444421992164,904,421,0,0,0,5,4,1,54,0001-00-0006-33.png,0005-00-0007-82.png
9,498,0,1444421992193,1444421992444,1143,279,0,0,0,1,2,1,12,0004-00-0008-93.png,0002-00-0005-51.png
9,499,0,1444421992466,1444421992862,957,384,0,0,0,2,1,1,21,0002-00-0006-01.png,0004-00-0003-89.png
9,500,0,1444421992880,1444421994560,478,245,0,0,0,3,4,1,34,0003-00-0009-90.png,0005-00-0007-96.png
9,501,0,1444421994588,1444421994692,923,490,0,0,0,2,3,1,23,0002-00-0004-76.png,0003-00-0003-92.png
9,502,0,1444421994724,1444421995728,504,317,0,0,0,5,4,1,54,0001-00-0002-76.png,0005-00-0001-18.png
9,503,0,1444421995750,1444421996176,912,437,0,0,0,3,2,1,32,0003-00-0008-51.png,0002-00-0008-58.png
9,504,0,1444421996205,1444421997475,958,490,0,0,0,4,3,1,43,0005-00-0009-11.png,0003-00-0008-12.png
9,505,1,1444421997505,1444421997603,925,473,0,0,0,2,1,1,21,0002-00-0008-89.png,0004-00-0006-75.png
9,506,1,1444421997625,1444421999193,509,268,0,0,0,3,2,1,32,0003-00-0007-49.png,0002-00-0007-94.png
9,507,1,1444421999223,1444421999342,485,247,0,0,0,4,3,1,43,0005-00-0001-40.png,0003-00-0008-91.png
9,508,1,1444421999371,1444421999602,864,408,0,0,0,1,2,1,12,0004-00-0003-63.png,0002-00-0003-14.png
9,509,1,1444421999625,1444421999717,1064,309,0,0,0,2,3,1,23,0002-00-0007-96.png,0003-00-0005-54.png
9,510,1,1444421999752,1444422000012,953,424,0,0,0,3,4,1,34,0003-00-0004-53.png,0005-00-0003-13.png
9,511,1,1444422000047,1444422000931,964,399,0,0,0,5,4,1,54,0001-00-0004-10.png,0005-00-0002-50.png
9,512,1,1444422000963,1444422002771,923,417,0,0,0,5,4,1,54,0001-00-0001-15.png,0005-00-0002-78.png
9,513,0,1444422002792,1444422003883,964,477,0,0,0,1,2,1,12,0004-00-0006-79.png,0002-00-0001-68.png
9,514,1,1444422003922,1444422003997,961,390,0,0,0,5,4,1,54,0001-00-0009-78.png,0005-00-0002-63.png
9,515,0,1444422004041,1444422004554,1087,285,0,0,0,2,1,1,21,0002-00-0003-67.png,0004-00-0006-90.png
9,516,0,1444422004588,1444422005209,1118,306,0,0,0,5,4,1,54,0001-00-0006-55.png,0005-00-0008-48.png
9,517,1,1444422005239,1444422006449,916,437,0,0,0,4,3,1,43,0005-00-0003-87.png,0003-00-0002-16.png
9,518,1,1444422006468,1444422006573,990,541,0,0,0,3,2,1,32,0003-00-0009-78.png,0002-00-0001-91.png
9,519,0,1444422006601,1444422006920,990,317,0,0,0,3,4,1,34,0003-00-0007-87.png,0005-00-0009-43.png
9,520,0,1444422006945,1444422007216,478,227,0,0,0,2,3,1,23,0002-00-0004-64.png,0003-00-0005-03.png
9,521,1,1444422007253,1444422015543,1067,306,0,0,0,3,4,1,34,0003-00-0003-17.png,0005-00-0007-45.png
9,522,1,1444422015576,1444422015919,996,393,0,0,0,5,4,1,54,0001-00-0003-35.png,0005-00-0004-76.png
9,523,1,1444422015941,1444422018504,964,305,0,0,0,1,2,1,12,0004-00-0005-75.png,0002-00-0003-80.png
9,524,0,1444422018530,1444422018702,1082,315,0,0,0,2,1,1,21,0002-00-0008-16.png,0004-00-0000-51.png
9,525,1,1444422018735,1444422019012,489,274,0,0,0,4,3,1,43,0005-00-0004-50.png,0003-00-0008-44.png
9,526,0,1444422019039,1444422019086,1067,295,0,0,0,3,2,1,32,0003-00-0009-20.png,0002-00-0002-65.png
9,527,0,1444422019126,1444422019405,920,425,0,0,0,5,4,1,54,0001-00-0009-40.png,0005-00-0005-80.png
9,528,1,1444422019430,1444422019466,934,439,0,0,0,2,3,1,23,0002-00-0005-65.png,0003-00-0000-42.png
9,529,1,1444422019499,1444422024135,989,328,0,0,0,5,4,1,54,0001-00-0000-55.png,0005-00-0006-45.png
9,530,1,1444422024161,1444422025319,875,491,0,0,0,2,3,1,23,0002-00-0006-45.png,0003-00-0008-36.png
9,531,1,1444422025340,1444422025477,441,416,0,0,0,4,3,1,43,0005-00-0009-45.png,0003-00-0008-38.png
9,532,0,1444422025506,1444422026620,936,343,0,0,0,2,1,1,21,0002-00-0006-32.png,0004-00-0000-54.png
9,533,1,1444422026644,1444422027479,477,280,0,0,0,3,4,1,34,0003-00-0001-93.png,0005-00-0009-89.png
9,534,0,1444422027518,1444422028660,376,360,0,0,0,3,2,1,32,0003-00-0004-72.png,0002-00-0001-30.png
9,535,1,1444422028679,1444422029302,494,262,0,0,0,5,4,1,54,0001-00-0008-30.png,0005-00-0008-35.png
9,536,0,1444422029326,1444422031878,369,412,0,0,0,1,2,1,12,0004-00-0000-50.png,0002-00-0002-82.png
9,537,1,1444422031910,1444422032377,899,448,0,0,0,4,3,1,43,0005-00-0009-16.png,0003-00-0008-16.png
9,538,1,1444422032413,1444422033458,865,419,0,0,0,1,2,1,12,0004-00-0009-18.png,0002-00-0003-08.png
9,539,0,1444422033488,1444422040261,889,473,0,0,0,3,4,1,34,0003-00-0009-73.png,0005-00-0005-40.png
9,540,0,1444422040295,1444422040473,888,425,0,0,0,5,4,1,54,0001-00-0003-86.png,0005-00-0004-03.png
9,541,0,1444422040516,1444422040564,491,281,0,0,0,2,1,1,21,0002-00-0007-71.png,0004-00-0006-74.png
9,542,0,1444422040593,1444422041360,939,373,0,0,0,3,2,1,32,0003-00-0004-20.png,0002-00-0000-62.png
9,543,1,1444422041396,1444422041491,407,387,0,0,0,5,4,1,54,0001-00-0000-99.png,0005-00-0002-07.png
9,544,0,1444422041518,1444422042658,922,436,0,0,0,2,3,1,23,0002-00-0002-51.png,0003-00-0004-94.png
9,545,1,1444422042687,1444422042810,886,424,0,0,0,3,2,1,32,0003-00-0004-92.png,0002-00-0008-17.png
9,546,1,1444422042839,1444422042859,922,428,0,0,0,2,3,1,23,0002-00-0002-81.png,0003-00-0009-26.png
9,547,0,1444422042887,1444422043252,913,514,0,0,0,5,4,1,54,0001-00-0000-59.png,0005-00-0006-25.png
9,548,1,1444422043291,1444422043584,1066,358,0,0,0,1,2,1,12,0004-00-0008-80.png,0002-00-0003-87.png
9,549,1,1444422043614,1444422043896,508,274,0,0,0,5,4,1,54,0001-00-0007-26.png,0005-00-0001-41.png
9,550,1,1444422043934,1444422044566,916,334,0,0,0,3,4,1,34,0003-00-0001-06.png,0005-00-0004-55.png
9,551,1,1444422044588,1444422045247,1107,310,0,0,0,4,3,1,43,0005-00-0005-28.png,0003-00-0004-47.png
9,552,0,1444422045264,1444422046280,911,469,0,0,0,2,1,1,21,0002-00-0000-90.png,0004-00-0006-25.png
9,553,1,1444422046306,1444422049543,977,554,0,0,0,4,3,1,43,0005-00-0002-61.png,0003-00-0009-98.png
9,554,0,1444422049573,1444422059165,962,507,0,0,0,5,4,1,54,0001-00-0003-10.png,0005-00-0001-95.png
9,555,1,1444422059194,1444422059477,931,470,0,0,0,1,2,1,12,0004-00-0000-13.png,0002-00-0009-88.png
9,556,1,1444422059510,1444422060478,947,436,0,0,0,5,4,1,54,0001-00-0003-39.png,0005-00-0003-75.png
9,557,1,1444422060510,1444422060652,412,384,0,0,0,2,1,1,21,0002-00-0004-56.png,0004-00-0001-77.png
9,558,1,1444422060688,1444422061291,874,410,0,0,0,2,3,1,23,0002-00-0000-15.png,0003-00-0008-23.png
9,559,1,1444422061324,1444422061786,923,291,0,0,0,3,4,1,34,0003-00-0003-63.png,0005-00-0004-81.png
9,560,0,1444422061817,1444422062529,911,464,0,0,0,3,2,1,32,0003-00-0003-39.png,0002-00-0008-81.png
9,561,1,1444422062561,1444422063177,379,432,0,0,0,2,3,1,23,0002-00-0003-62.png,0003-00-0004-90.png
9,562,0,1444422063203,1444422063421,1060,281,0,0,0,2,1,1,21,0002-00-0003-91.png,0004-00-0009-73.png
9,563,1,1444422063450,1444422063749,968,461,0,0,0,1,2,1,12,0004-00-0008-94.png,0002-00-0009-04.png
9,564,1,1444422063784,1444422064717,944,445,0,0,0,5,4,1,54,0001-00-0003-93.png,0005-00-0005-86.png
9,565,1,1444422064750,1444422065390,956,418,0,0,0,5,4,1,54,0001-00-0003-58.png,0005-00-0004-47.png
9,566,0,1444422065451,1444422069265,931,321,0,0,0,3,4,1,34,0003-00-0003-47.png,0005-00-0003-05.png
9,567,0,1444422069308,1444422069499,401,370,0,0,0,3,2,1,32,0003-00-0008-50.png,0002-00-0000-41.png
9,568,0,1444422069521,1444422070250,939,328,0,0,0,4,3,1,43,0005-00-0009-80.png,0003-00-0007-70.png
9,569,1,1444422070276,1444422070900,913,410,0,0,0,3,2,1,32,0003-00-0007-56.png,0002-00-0007-57.png
9,570,1,1444422070932,1444422071205,918,455,0,0,0,3,4,1,34,0003-00-0001-04.png,0005-00-0005-79.png
9,571,0,1444422071226,1444422071512,914,463,0,0,0,5,4,1,54,0001-00-0000-87.png,0005-00-0006-93.png
9,572,0,1444422071540,1444422071667,966,331,0,0,0,5,4,1,54,0001-00-0006-93.png,0005-00-0000-59.png
9,573,0,1444422071690,1444422075794,494,266,0,0,0,1,2,1,12,0004-00-0006-61.png,0002-00-0004-71.png
9,574,0,1444422075828,1444422077452,944,338,0,0,0,2,3,1,23,0002-00-0005-87.png,0003-00-0009-56.png
9,575,1,1444422077478,1444422078297,978,436,0,0,0,2,1,1,21,0002-00-0000-06.png,0004-00-0000-63.png
9,576,0,1444422078323,1444422078639,866,328,0,0,0,4,3,1,43,0005-00-0009-83.png,0003-00-0000-68.png
9,577,1,1444422078661,1444422078759,1082,296,0,0,0,3,4,1,34,0003-00-0007-38.png,0005-00-0006-14.png
9,578,1,1444422078795,1444422078907,497,239,0,0,0,1,2,1,12,0004-00-0003-12.png,0002-00-0002-02.png
9,579,1,1444422078935,1444422079162,897,408,0,0,0,2,1,1,21,0002-00-0009-95.png,0004-00-0006-96.png
9,580,1,1444422079193,1444422079983,1090,297,0,0,0,5,4,1,54,0001-00-0005-80.png,0005-00-0002-52.png
9,581,1,1444422080013,1444422081143,504,288,0,0,0,2,3,1,23,0002-00-0001-20.png,0003-00-0008-48.png
9,582,1,1444422081161,1444422081878,880,469,0,0,0,5,4,1,54,0001-00-0009-72.png,0005-00-0002-86.png
9,583,1,1444422081909,1444422082058,889,426,0,0,0,4,3,1,43,0005-00-0004-74.png,0003-00-0002-28.png
9,584,1,1444422082095,1444422082679,1083,253,0,0,0,3,2,1,32,0003-00-0009-05.png,0002-00-0006-44.png
9,585,1,1444422082706,1444422084307,964,397,0,0,0,2,3,1,23,0002-00-0001-06.png,0003-00-0008-90.png
9,586,0,1444422084333,1444422084807,957,330,0,0,0,5,4,1,54,0001-00-0002-84.png,0005-00-0003-32.png
9,587,0,1444422084837,1444422084987,931,420,0,0,0,3,4,1,34,0003-00-0007-66.png,0005-00-0000-53.png
9,588,0,1444422085019,1444422085539,948,441,0,0,0,5,4,1,54,0001-00-0004-64.png,0005-00-0003-52.png
9,589,1,1444422085563,1444422086165,912,455,0,0,0,4,3,1,43,0005-00-0003-66.png,0003-00-0003-32.png
9,590,0,1444422086191,1444422093112,488,251,0,0,0,1,2,1,12,0004-00-0004-12.png,0002-00-0004-17.png
9,591,0,1444422093145,1444422093726,891,452,0,0,0,3,2,1,32,0003-00-0007-64.png,0002-00-0001-75.png
9,592,1,1444422093741,1444422094006,479,271,0,0,0,2,1,1,21,0002-00-0004-34.png,0004-00-0008-84.png
9,593,0,1444422094038,1444422095698,494,260,0,0,0,3,4,1,34,0003-00-0002-73.png,0005-00-0002-93.png
9,594,1,1444422095724,1444422095821,913,394,0,0,0,5,4,1,54,0001-00-0009-10.png,0005-00-0006-08.png
9,595,1,1444422095845,1444422097466,920,434,0,0,0,2,3,1,23,0002-00-0001-75.png,0003-00-0003-99.png
9,596,1,1444422097492,1444422097597,1041,292,0,0,0,1,2,1,12,0004-00-0003-45.png,0002-00-0002-84.png
9,597,1,1444422097626,1444422097862,946,329,0,0,0,3,2,1,32,0003-00-0008-60.png,0002-00-0007-04.png
9,598,0,1444422097892,1444422097994,956,461,0,0,0,2,1,1,21,0002-00-0004-65.png,0004-00-0008-74.png
9,599,0,1444422098029,1444422099115,376,381,0,0,0,4,3,1,43,0005-00-0006-07.png,0003-00-0000-14.png
9,600,0,1444422099135,1444422099742,913,421,0,0,0,5,4,1,54,0001-00-0006-17.png,0005-00-0007-18.png
9,601,1,1444422099780,1444422102290,494,260,0,0,0,2,3,1,23,0002-00-0003-13.png,0003-00-0007-03.png
9,602,0,1444422102327,1444422102460,501,249,0,0,0,5,4,1,54,0001-00-0006-39.png,0005-00-0002-01.png
9,603,0,1444422102488,1444422102832,893,414,0,0,0,3,2,1,32,0003-00-0006-29.png,0002-00-0009-63.png
9,604,1,1444422102861,1444422103082,950,410,0,0,0,5,4,1,54,0001-00-0002-41.png,0005-00-0009-52.png
9,605,1,1444422103119,1444422104783,1067,294,0,0,0,4,3,1,43,0005-00-0000-57.png,0003-00-0009-55.png
9,606,1,1444422104801,1444422104992,1067,541,0,0,0,2,1,1,21,0002-00-0008-78.png,0004-00-0006-51.png
9,607,0,1444422105007,1444422106161,494,294,0,0,0,3,4,1,34,0003-00-0001-85.png,0005-00-0002-47.png
9,608,1,1444422106199,1444422107292,939,393,0,0,0,1,2,1,12,0004-00-0007-77.png,0002-00-0005-52.png
9,609,1,1444422107326,1444422107441,974,462,0,0,0,3,2,1,32,0003-00-0006-35.png,0002-00-0002-87.png
9,610,0,1444422107474,1444422107700,1067,261,0,0,0,5,4,1,54,0001-00-0000-12.png,0005-00-0000-16.png
9,611,0,1444422107726,1444422107986,923,410,0,0,0,2,1,1,21,0002-00-0001-12.png,0004-00-0000-27.png
9,612,0,1444422108012,1444422108399,935,419,0,0,0,4,3,1,43,0005-00-0008-52.png,0003-00-0002-24.png
9,613,1,1444422108447,1444422108710,465,277,0,0,0,5,4,1,54,0001-00-0004-31.png,0005-00-0005-13.png
9,614,1,1444422108736,1444422108815,499,237,0,0,0,1,2,1,12,0004-00-0002-05.png,0002-00-0006-74.png
9,615,1,1444422108855,1444422109623,921,438,0,0,0,3,4,1,34,0003-00-0007-29.png,0005-00-0005-72.png
9,616,0,1444422109644,1444422111048,964,399,0,0,0,2,3,1,23,0002-00-0004-94.png,0003-00-0009-55.png
9,617,0,1444422111087,1444422111249,478,424,0,0,0,2,1,1,21,0002-00-0003-85.png,0004-00-0000-33.png
9,618,0,1444422111273,1444422111289,939,464,0,0,0,1,2,1,12,0004-00-0002-79.png,0002-00-0006-00.png
9,619,0,1444422111330,1444422111502,939,472,0,0,0,2,3,1,23,0002-00-0006-14.png,0003-00-0007-33.png
9,620,0,1444422111536,1444422112094,1091,289,0,0,0,3,4,1,34,0003-00-0008-36.png,0005-00-0005-53.png
9,621,0,1444422112116,1444422112556,993,521,0,0,0,5,4,1,54,0001-00-0002-47.png,0005-00-0000-37.png
9,622,1,1444422112604,1444422112654,486,260,0,0,0,4,3,1,43,0005-00-0004-60.png,0003-00-0005-65.png
9,623,0,1444422112687,1444422112908,939,396,0,0,0,5,4,1,54,0001-00-0009-59.png,0005-00-0002-24.png
9,624,1,1444422112942,1444422112970,976,449,0,0,0,3,2,1,32,0003-00-0009-69.png,0002-00-0000-05.png
9,625,1,1444422113005,1444422113034,1041,554,0,0,0,3,4,1,34,0003-00-0005-62.png,0005-00-0001-28.png
9,626,1,1444422113066,1444422113285,964,410,0,0,0,1,2,1,12,0004-00-0000-95.png,0002-00-0002-17.png
9,627,0,1444422113311,1444422113974,1067,279,0,0,0,2,1,1,21,0002-00-0006-47.png,0004-00-0004-11.png
9,628,0,1444422114001,1444422116070,988,415,0,0,0,3,2,1,32,0003-00-0007-60.png,0002-00-0005-95.png
9,629,1,1444422116104,1444422116214,964,426,0,0,0,4,3,1,43,0005-00-0004-44.png,0003-00-0002-41.png
9,630,1,1444422116241,1444422116718,934,400,0,0,0,5,4,1,54,0001-00-0007-96.png,0005-00-0003-62.png
9,631,0,1444422116742,1444422117249,478,450,0,0,0,2,3,1,23,0002-00-0006-19.png,0003-00-0001-91.png
9,632,1,1444422117278,1444422117804,1059,278,0,0,0,5,4,1,54,0001-00-0005-09.png,0005-00-0002-43.png
9,633,0,1444422117834,1444422118022,1032,514,0,0,0,3,4,1,34,0003-00-0009-56.png,0005-00-0009-42.png
9,634,0,1444422118045,1444422118323,933,419,0,0,0,5,4,1,54,0001-00-0006-11.png,0005-00-0008-07.png
9,635,0,1444422118348,1444422118359,1078,279,0,0,0,4,3,1,43,0005-00-0000-36.png,0003-00-0000-96.png
9,636,1,1444422118385,1444422118878,949,353,0,0,0,5,4,1,54,0001-00-0007-82.png,0005-00-0008-32.png
9,637,1,1444422118908,1444422119436,387,380,0,0,0,1,2,1,12,0004-00-0009-98.png,0002-00-0004-89.png
9,638,1,1444422119492,1444422120471,400,384,0,0,0,3,2,1,32,0003-00-0005-08.png,0002-00-0001-78.png
9,639,1,1444422120504,1444422121367,909,450,0,0,0,2,1,1,21,0002-00-0001-43.png,0004-00-0001-33.png
9,640,1,1444422121405,1444422122570,931,462,0,0,0,2,3,1,23,0002-00-0008-40.png,0003-00-0003-61.png
9,641,1,1444422122594,1444422122882,956,437,0,0,0,3,4,1,34,0003-00-0000-80.png,0005-00-0006-15.png
9,642,1,1444422122903,1444422123299,922,349,0,0,0,4,3,1,43,0005-00-0007-74.png,0003-00-0008-56.png
9,643,1,1444422123325,1444422123400,995,479,0,0,0,2,1,1,21,0002-00-0008-49.png,0004-00-0004-60.png
9,644,0,1444422123425,1444422123486,394,368,0,0,0,5,4,1,54,0001-00-0005-59.png,0005-00-0003-64.png
9,645,1,1444422123507,1444422123846,1041,306,0,0,0,2,3,1,23,0002-00-0007-00.png,0003-00-0000-10.png
9,646,1,1444422123873,1444422124985,935,444,0,0,0,5,4,1,54,0001-00-0001-64.png,0005-00-0001-64.png
9,647,1,1444422125015,1444422127294,878,368,0,0,0,1,2,1,12,0004-00-0001-02.png,0002-00-0000-78.png
9,648,0,1444422127321,1444422129701,939,411,0,0,0,3,2,1,32,0003-00-0007-44.png,0002-00-0002-99.png
9,649,0,1444422129725,1444422130085,444,267,0,0,0,2,1,1,21,0002-00-0008-07.png,0004-00-0004-45.png
9,650,0,1444422130109,1444422130500,898,442,0,0,0,4,3,1,43,0005-00-0001-33.png,0003-00-0005-88.png
9,651,0,1444422130540,1444422131208,939,462,0,0,0,1,2,1,12,0004-00-0004-18.png,0002-00-0006-30.png
9,652,1,1444422131230,1444422134090,1008,464,0,0,0,3,4,1,34,0003-00-0004-58.png,0005-00-0006-18.png
9,653,1,1444422134109,1444422134558,949,462,0,0,0,3,2,1,32,0003-00-0001-11.png,0002-00-0008-90.png
9,654,1,1444422134585,1444422134780,954,309,0,0,0,5,4,1,54,0001-00-0005-34.png,0005-00-0006-51.png
9,655,1,1444422134810,1444422135472,491,266,0,0,0,5,4,1,54,0001-00-0000-40.png,0005-00-0005-56.png
9,656,1,1444422135495,1444422135678,913,473,0,0,0,2,3,1,23,0002-00-0002-15.png,0003-00-0003-32.png
9,657,1,1444422135709,1444422135893,494,286,0,0,0,2,3,1,23,0002-00-0006-58.png,0003-00-0005-32.png
9,658,1,1444422135911,1444422136181,945,342,0,0,0,3,2,1,32,0003-00-0004-26.png,0002-00-0005-37.png
9,659,0,1444422136215,1444422136367,919,517,0,0,0,2,1,1,21,0002-00-0004-50.png,0004-00-0000-65.png
9,660,1,1444422136392,1444422136498,932,393,0,0,0,5,4,1,54,0001-00-0006-05.png,0005-00-0008-41.png
9,661,1,1444422136530,1444422136756,1092,306,0,0,0,4,3,1,43,0005-00-0006-52.png,0003-00-0009-88.png
9,662,0,1444422136782,1444422136885,942,384,0,0,0,5,4,1,54,0001-00-0007-79.png,0005-00-0001-70.png
9,663,0,1444422136944,1444422137363,912,423,0,0,0,1,2,1,12,0004-00-0006-89.png,0002-00-0000-03.png
9,664,1,1444422137400,1444422138429,954,487,0,0,0,3,4,1,34,0003-00-0004-22.png,0005-00-0007-75.png
9,665,1,1444422138476,1444422139921,504,268,0,0,0,2,1,1,21,0002-00-0009-83.png,0004-00-0004-73.png
9,666,0,1444422139950,1444422140045,950,423,0,0,0,5,4,1,54,0001-00-0004-44.png,0005-00-0003-30.png
9,667,1,1444422140078,1444422140371,955,453,0,0,0,5,4,1,54,0001-00-0003-58.png,0005-00-0009-60.png
9,668,1,1444422140390,1444422140723,451,471,0,0,0,1,2,1,12,0004-00-0003-00.png,0002-00-0008-58.png
9,669,0,1444422140750,1444422142612,945,401,0,0,0,3,4,1,34,0003-00-0006-45.png,0005-00-0004-39.png
9,670,1,1444422142640,1444422142697,504,292,0,0,0,4,3,1,43,0005-00-0004-89.png,0003-00-0008-94.png
9,671,1,1444422142730,1444422143193,888,358,0,0,0,2,3,1,23,0002-00-0001-96.png,0003-00-0008-26.png
9,672,1,1444422143224,1444422144623,884,396,0,0,0,3,2,1,32,0003-00-0004-31.png,0002-00-0003-10.png
9,673,0,1444422144648,1444422145257,957,436,0,0,0,3,4,1,34,0003-00-0003-38.png,0005-00-0005-45.png
9,674,0,1444422145283,1444422147099,1017,298,0,0,0,5,4,1,54,0001-00-0006-91.png,0005-00-0009-37.png
9,675,1,1444422147122,1444422147836,477,239,0,0,0,3,2,1,32,0003-00-0004-34.png,0002-00-0009-83.png
9,676,0,1444422147872,1444422148323,931,320,0,0,0,2,1,1,21,0002-00-0003-29.png,0004-00-0008-29.png
9,677,0,1444422148362,1444422148422,938,394,0,0,0,5,4,1,54,0001-00-0001-83.png,0005-00-0002-79.png
9,678,1,1444422148454,1444422148628,508,303,0,0,0,2,3,1,23,0002-00-0003-61.png,0003-00-0004-13.png
9,679,1,1444422148656,1444422153268,904,424,0,0,0,4,3,1,43,0005-00-0003-54.png,0003-00-0004-50.png
9,680,0,1444422153291,1444422153567,940,466,0,0,0,1,2,1,12,0004-00-0004-08.png,0002-00-0009-33.png
9,681,1,1444422153607,1444422154002,1067,276,0,0,0,2,1,1,21,0002-00-0008-81.png,0004-00-0002-98.png
9,682,1,1444422154022,1444422155126,464,279,0,0,0,2,3,1,23,0002-00-0002-99.png,0003-00-0001-58.png
9,683,0,1444422155152,1444422156680,509,265,0,0,0,1,2,1,12,0004-00-0000-39.png,0002-00-0005-71.png
9,684,1,1444422156696,1444422156767,1113,297,0,0,0,3,2,1,32,0003-00-0002-55.png,0002-00-0001-01.png
9,685,0,1444422156800,1444422156823,478,253,0,0,0,5,4,1,54,0001-00-0009-93.png,0005-00-0008-47.png
9,686,1,1444422156852,1444422157578,867,505,0,0,0,4,3,1,43,0005-00-0008-13.png,0003-00-0006-42.png
9,687,1,1444422157602,1444422162193,1076,279,0,0,0,3,4,1,34,0003-00-0007-82.png,0005-00-0002-36.png
9,688,0,1444422162217,1444422162359,940,465,0,0,0,5,4,1,54,0001-00-0002-93.png,0005-00-0006-53.png
9,689,1,1444422162384,1444422162556,957,443,0,0,0,5,4,1,54,0001-00-0000-67.png,0005-00-0006-10.png
9,690,0,1444422162596,1444422162830,964,399,0,0,0,2,3,1,23,0002-00-0001-24.png,0003-00-0008-79.png
9,691,1,1444422162853,1444422163415,513,287,0,0,0,3,2,1,32,0003-00-0000-32.png,0002-00-0008-55.png
9,692,1,1444422163454,1444422164238,988,306,0,0,0,3,4,1,34,0003-00-0003-98.png,0005-00-0000-25.png
9,693,0,1444422164275,1444422164875,506,277,0,0,0,4,3,1,43,0005-00-0005-49.png,0003-00-0003-15.png
9,694,0,1444422164893,1444422166988,916,391,0,0,0,5,4,1,54,0001-00-0004-71.png,0005-00-0009-41.png
9,695,0,1444422167024,1444422167759,933,410,0,0,0,1,2,1,12,0004-00-0006-54.png,0002-00-0000-40.png
9,696,0,1444422167799,1444422168087,944,443,0,0,0,2,1,1,21,0002-00-0002-75.png,0004-00-0002-82.png
9,697,1,1444422168102,1444422168205,406,428,0,0,0,5,4,1,54,0001-00-0008-90.png,0005-00-0004-84.png
9,698,1,1444422168236,1444422168986,488,262,0,0,0,5,4,1,54,0001-00-0000-22.png,0005-00-0006-17.png
9,699,1,1444422169008,1444422170013,1081,306,0,0,0,2,1,1,21,0002-00-0001-18.png,0004-00-0003-88.png
9,700,0,1444422170037,1444422170280,989,388,0,0,0,1,2,1,12,0004-00-0006-35.png,0002-00-0004-96.png
9,701,0,1444422170304,1444422170351,1041,279,0,0,0,3,4,1,34,0003-00-0009-06.png,0005-00-0009-66.png
9,702,1,1444422170375,1444422171952,941,348,0,0,0,3,2,1,32,0003-00-0003-42.png,0002-00-0005-45.png
9,703,1,1444422171987,1444422178293,1049,268,0,0,0,4,3,1,43,0005-00-0009-73.png,0003-00-0004-11.png
9,704,0,1444422178327,1444422178523,979,449,0,0,0,2,3,1,23,0002-00-0005-25.png,0003-00-0000-05.png
9,705,1,1444422178552,1444422178630,417,436,0,0,0,5,4,1,54,0001-00-0006-30.png,0005-00-0007-00.png
9,706,1,1444422178662,1444422178821,942,337,0,0,0,3,2,1,32,0003-00-0001-96.png,0002-00-0003-92.png
9,707,1,1444422178847,1444422183973,969,313,0,0,0,2,1,1,21,0002-00-0004-12.png,0004-00-0003-71.png
9,708,1,1444422184000,1444422184657,939,319,0,0,0,5,4,1,54,0001-00-0001-84.png,0005-00-0003-32.png
9,709,0,1444422184687,1444422185025,983,393,0,0,0,2,3,1,23,0002-00-0003-54.png,0003-00-0006-19.png
9,710,1,1444422185053,1444422185202,940,387,0,0,0,1,2,1,12,0004-00-0002-55.png,0002-00-0004-08.png
9,711,0,1444422185225,1444422187022,955,438,0,0,0,3,4,1,34,0003-00-0009-02.png,0005-00-0004-34.png
9,712,1,1444422187040,1444422187109,893,477,0,0,0,4,3,1,43,0005-00-0000-86.png,0003-00-0003-19.png
9,713,0,1444422187140,1444422192146,960,332,0,0,0,3,2,1,32,0003-00-0006-09.png,0002-00-0006-29.png
9,714,1,1444422192170,1444422192609,965,499,0,0,0,4,3,1,43,0005-00-0000-32.png,0003-00-0005-65.png
9,715,1,1444422192645,1444422193182,1006,453,0,0,0,5,4,1,54,0001-00-0006-48.png,0005-00-0001-46.png
9,716,0,1444422193213,1444422193527,1140,335,0,0,0,2,1,1,21,0002-00-0008-98.png,0004-00-0005-60.png
9,717,1,1444422193554,1444422193739,961,423,0,0,0,5,4,1,54,0001-00-0004-33.png,0005-00-0000-22.png
9,718,0,1444422193767,1444422194998,500,404,0,0,0,2,3,1,23,0002-00-0002-31.png,0003-00-0007-02.png
9,719,0,1444422195039,1444422201255,923,450,0,0,0,1,2,1,12,0004-00-0004-74.png,0002-00-0008-15.png
9,720,1,1444422201284,1444422202406,920,422,0,0,0,3,4,1,34,0003-00-0007-61.png,0005-00-0001-23.png
9,721,0,1444422202426,1444422203796,1078,279,0,0,0,5,4,1,54,0001-00-0005-18.png,0005-00-0007-32.png
9,722,1,1444422203820,1444422203961,1067,296,0,0,0,4,3,1,43,0005-00-0004-54.png,0003-00-0004-94.png
9,723,0,1444422203999,1444422204679,961,413,0,0,0,2,3,1,23,0002-00-0004-27.png,0003-00-0000-47.png
9,724,1,1444422204699,1444422206778,931,356,0,0,0,1,2,1,12,0004-00-0003-29.png,0002-00-0007-15.png
9,725,0,1444422206802,1444422208270,453,244,0,0,0,3,4,1,34,0003-00-0005-33.png,0005-00-0004-21.png
9,726,1,1444422208305,1444422208347,939,462,0,0,0,3,2,1,32,0003-00-0008-42.png,0002-00-0004-40.png
9,727,1,1444422208380,1444422208545,915,440,0,0,0,2,1,1,21,0002-00-0004-40.png,0004-00-0003-50.png
9,728,1,1444422208571,1444422208654,1080,279,0,0,0,5,4,1,54,0001-00-0005-48.png,0005-00-0009-42.png
9,729,1,1444422208680,1444422208810,498,311,0,0,0,4,3,1,43,0005-00-0005-41.png,0003-00-0006-13.png
9,730,1,1444422208847,1444422208899,1032,304,0,0,0,5,4,1,54,0001-00-0000-55.png,0005-00-0007-89.png
9,731,1,1444422208932,1444422209276,909,452,0,0,0,3,2,1,32,0003-00-0001-22.png,0002-00-0006-66.png
9,732,0,1444422209298,1444422210372,412,383,0,0,0,3,4,1,34,0003-00-0002-50.png,0005-00-0003-10.png
9,733,0,1444422210393,1444422210477,492,279,0,0,0,2,1,1,21,0002-00-0008-14.png,0004-00-0007-97.png
9,734,1,1444422210518,1444422210938,943,343,0,0,0,5,4,1,54,0001-00-0008-52.png,0005-00-0001-46.png
9,735,0,1444422210963,1444422212390,913,420,0,0,0,1,2,1,12,0004-00-0003-11.png,0002-00-0008-87.png
9,736,0,1444422212421,1444422214528,988,261,0,0,0,2,3,1,23,0002-00-0003-24.png,0003-00-0008-51.png
9,737,1,1444422214560,1444422214824,907,439,0,0,0,3,4,1,34,0003-00-0003-21.png,0005-00-0003-75.png
9,738,1,1444422214852,1444422215717,916,349,0,0,0,1,2,1,12,0004-00-0005-80.png,0002-00-0008-68.png
9,739,1,1444422215747,1444422216233,917,398,0,0,0,2,3,1,23,0002-00-0007-34.png,0003-00-0000-35.png
9,740,1,1444422216252,1444422217105,962,536,0,0,0,5,4,1,54,0001-00-0004-43.png,0005-00-0000-15.png
9,741,0,1444422217135,1444422217498,473,262,0,0,0,5,4,1,54,0001-00-0000-75.png,0005-00-0000-70.png
9,742,0,1444422217521,1444422219686,486,290,0,0,0,3,2,1,32,0003-00-0003-03.png,0002-00-0003-00.png
9,743,0,1444422219725,1444422219860,913,436,0,0,0,4,3,1,43,0005-00-0000-12.png,0003-00-0007-24.png
9,744,0,1444422219884,1444422220319,482,267,0,0,0,2,1,1,21,0002-00-0009-91.png,0004-00-0002-08.png
9,745,0,1444422220342,1444422220744,935,497,0,0,0,4,3,1,43,0005-00-0001-83.png,0003-00-0000-74.png
9,746,1,1444422220767,1444422221854,964,395,0,0,0,3,4,1,34,0003-00-0006-29.png,0005-00-0000-78.png
9,747,1,1444422221880,1444422222160,989,336,0,0,0,2,3,1,23,0002-00-0003-03.png,0003-00-0006-13.png
9,748,0,1444422222194,1444422222872,493,279,0,0,0,3,2,1,32,0003-00-0006-29.png,0002-00-0001-72.png
9,749,1,1444422222920,1444422223001,962,475,0,0,0,5,4,1,54,0001-00-0009-46.png,0005-00-0008-76.png
9,750,1,1444422223032,1444422223054,939,401,0,0,0,5,4,1,54,0001-00-0007-53.png,0005-00-0001-65.png
9,751,0,1444422223080,1444422223186,937,427,0,0,0,2,1,1,21,0002-00-0003-84.png,0004-00-0008-18.png
9,752,1,1444422223218,1444422223255,930,488,0,0,0,1,2,1,12,0004-00-0002-38.png,0002-00-0003-52.png
9,753,1,1444422223288,1444422223578,924,400,0,0,0,4,3,1,43,0005-00-0003-91.png,0003-00-0007-91.png
9,754,1,1444422223612,1444422225268,469,261,0,0,0,3,4,1,34,0003-00-0001-43.png,0005-00-0001-35.png
9,755,0,1444422225297,1444422227504,477,266,0,0,0,3,2,1,32,0003-00-0003-83.png,0002-00-0007-40.png
9,756,1,1444422227541,1444422227835,389,415,0,0,0,2,3,1,23,0002-00-0000-89.png,0003-00-0009-03.png
9,757,0,1444422227859,1444422228843,990,394,0,0,0,5,4,1,54,0001-00-0002-68.png,0005-00-0001-11.png
9,758,0,1444422228866,1444422228932,498,261,0,0,0,1,2,1,12,0004-00-0006-90.png,0002-00-0006-41.png
9,759,0,1444422228951,1444422229243,880,515,0,0,0,5,4,1,54,0001-00-0003-09.png,0005-00-0004-19.png
9,760,1,1444422229279,1444422229652,939,462,0,0,0,2,1,1,21,0002-00-0005-71.png,0004-00-0000-26.png
9,761,1,1444422229677,1444422230292,383,374,0,0,0,3,4,1,34,0003-00-0000-17.png,0005-00-0007-52.png
9,762,1,1444422230328,1444422230595,944,498,0,0,0,4,3,1,43,0005-00-0008-75.png,0003-00-0006-79.png
9,763,1,1444422230624,1444422231112,492,322,0,0,0,2,1,1,21,0002-00-0002-54.png,0004-00-0009-86.png
9,764,1,1444422231143,1444422231809,913,435,0,0,0,5,4,1,54,0001-00-0005-30.png,0005-00-0002-96.png
9,765,1,1444422231844,1444422232929,940,389,0,0,0,3,2,1,32,0003-00-0004-90.png,0002-00-0005-87.png
9,766,1,1444422232965,1444422233398,926,480,0,0,0,1,2,1,12,0004-00-0003-82.png,0002-00-0004-29.png
9,767,0,1444422233447,1444422235995,890,466,0,0,0,5,4,1,54,0001-00-0006-39.png,0005-00-0004-36.png
9,768,1,1444422236023,1444422236110,962,322,0,0,0,2,3,1,23,0002-00-0005-20.png,0003-00-0005-50.png
9,769,1,1444422236143,1444422236396,1032,306,0,0,0,5,4,1,54,0001-00-0009-10.png,0005-00-0002-95.png
9,770,0,1444422236432,1444422236482,948,436,0,0,0,3,2,1,32,0003-00-0008-03.png,0002-00-0008-93.png
9,771,1,1444422236503,1444422236713,503,277,0,0,0,2,1,1,21,0002-00-0004-27.png,0004-00-0006-51.png
9,772,1,1444422236735,1444422236809,939,436,0,0,0,5,4,1,54,0001-00-0005-97.png,0005-00-0008-60.png
9,773,0,1444422236831,1444422236914,954,397,0,0,0,4,3,1,43,0005-00-0003-67.png,0003-00-0004-53.png
9,774,0,1444422236942,1444422237612,945,451,0,0,0,1,2,1,12,0004-00-0003-81.png,0002-00-0005-27.png
9,775,0,1444422237633,1444422237996,939,462,0,0,0,2,3,1,23,0002-00-0007-00.png,0003-00-0008-40.png
9,776,1,1444422238029,1444422238117,497,309,0,0,0,3,4,1,34,0003-00-0009-94.png,0005-00-0008-96.png
9,777,1,1444422238147,1444422238286,1067,279,0,0,0,1,2,1,12,0004-00-0006-84.png,0002-00-0002-49.png
9,778,0,1444422238310,1444422238459,919,449,0,0,0,2,1,1,21,0002-00-0006-49.png,0004-00-0005-67.png
9,779,1,1444422238485,1444422238828,504,296,0,0,0,3,4,1,34,0003-00-0008-93.png,0005-00-0004-40.png
9,780,0,1444422238852,1444422239049,939,413,0,0,0,2,3,1,23,0002-00-0003-74.png,0003-00-0002-29.png
9,781,0,1444422239088,1444422239182,1067,268,0,0,0,5,4,1,54,0001-00-0001-70.png,0005-00-0002-41.png
9,782,1,1444422239212,1444422239569,931,322,0,0,0,5,4,1,54,0001-00-0008-90.png,0005-00-0002-56.png
9,783,0,1444422239604,1444422241115,350,343,0,0,0,4,3,1,43,0005-00-0007-21.png,0003-00-0003-31.png
9,784,0,1444422241144,1444422247155,479,262,0,0,0,3,2,1,32,0003-00-0003-87.png,0002-00-0006-97.png
9,785,0,1444422247178,1444422247817,946,401,0,0,0,1,2,1,12,0004-00-0009-34.png,0002-00-0003-77.png
9,786,1,1444422247848,1444422248351,1004,447,0,0,0,2,3,1,23,0002-00-0003-12.png,0003-00-0004-07.png
9,787,1,1444422248378,1444422248695,917,448,0,0,0,2,1,1,21,0002-00-0005-19.png,0004-00-0000-29.png
9,788,0,1444422248731,1444422248796,476,280,0,0,0,4,3,1,43,0005-00-0006-38.png,0003-00-0003-01.png
9,789,1,1444422248826,1444422250228,859,512,0,0,0,5,4,1,54,0001-00-0007-85.png,0005-00-0000-91.png
9,790,0,1444422250270,1444422250618,951,388,0,0,0,5,4,1,54,0001-00-0007-41.png,0005-00-0004-92.png
9,791,1,1444422250651,1444422250775,375,367,0,0,0,3,4,1,34,0003-00-0003-39.png,0005-00-0001-15.png
9,792,1,1444422250807,1444422251199,460,246,0,0,0,3,2,1,32,0003-00-0001-30.png,0002-00-0000-56.png
9,793,0,1444422251226,1444422251876,921,426,0,0,0,3,4,1,34,0003-00-0009-96.png,0005-00-0004-66.png
9,794,0,1444422251901,1444422252322,1041,305,0,0,0,5,4,1,54,0001-00-0001-92.png,0005-00-0008-64.png
9,795,0,1444422252349,1444422252686,486,281,0,0,0,5,4,1,54,0001-00-0008-55.png,0005-00-0009-25.png
9,796,0,1444422252711,1444422253519,964,462,0,0,0,2,1,1,21,0002-00-0006-20.png,0004-00-0003-98.png
9,797,1,1444422253544,1444422253922,915,437,0,0,0,2,3,1,23,0002-00-0002-80.png,0003-00-0008-12.png
9,798,1,1444422253954,1444422254022,481,236,0,0,0,1,2,1,12,0004-00-0005-78.png,0002-00-0002-13.png
9,799,0,1444422254056,1444422254216,1048,288,0,0,0,4,3,1,43,0005-00-0003-90.png,0003-00-0009-84.png
9,800,1,1444422254253,1444422254622,505,262,0,0,0,3,2,1,32,0003-00-0006-29.png,0002-00-0008-58.png
9,801,1,1444422254651,1444422255717,901,514,0,0,0,3,4,1,34,0003-00-0005-30.png,0005-00-0007-63.png
9,802,0,1444422255739,1444422255846,941,392,0,0,0,3,2,1,32,0003-00-0006-61.png,0002-00-0002-57.png
9,803,1,1444422255879,1444422256363,917,446,0,0,0,2,1,1,21,0002-00-0004-87.png,0004-00-0002-93.png
9,804,1,1444422256386,1444422256681,959,485,0,0,0,2,3,1,23,0002-00-0006-31.png,0003-00-0007-74.png
9,805,1,1444422256707,1444422257264,495,319,0,0,0,4,3,1,43,0005-00-0002-00.png,0003-00-0003-51.png
9,806,1,1444422257323,1444422257370,917,321,0,0,0,1,2,1,12,0004-00-0002-40.png,0002-00-0002-21.png
9,807,0,1444422257399,1444422258549,496,246,0,0,0,5,4,1,54,0001-00-0008-99.png,0005-00-0003-33.png
9,808,1,1444422258576,1444422260545,1075,279,0,0,0,5,4,1,54,0001-00-0007-46.png,0005-00-0002-99.png
9,809,0,1444422260580,1444422260727,868,434,0,0,0,2,1,1,21,0002-00-0008-09.png,0004-00-0001-97.png
9,810,1,1444422260755,1444422260834,923,454,0,0,0,3,2,1,32,0003-00-0000-74.png,0002-00-0006-91.png
9,811,0,1444422260862,1444422261486,937,486,0,0,0,4,3,1,43,0005-00-0003-85.png,0003-00-0008-69.png
9,812,1,1444422261512,1444422261804,1007,334,0,0,0,2,3,1,23,0002-00-0009-56.png,0003-00-0003-48.png
9,813,1,1444422261838,1444422262514,920,498,0,0,0,5,4,1,54,0001-00-0006-43.png,0005-00-0000-04.png
9,814,1,1444422262551,1444422262574,520,258,0,0,0,5,4,1,54,0001-00-0009-21.png,0005-00-0006-71.png
9,815,0,1444422262605,1444422262807,873,479,0,0,0,1,2,1,12,0004-00-0003-17.png,0002-00-0001-19.png
9,816,0,1444422262856,1444422262978,475,280,0,0,0,3,4,1,34,0003-00-0000-83.png,0005-00-0009-19.png
9,817,0,1444422263004,1444422263206,941,331,0,0,0,5,4,1,54,0001-00-0009-86.png,0005-00-0004-96.png
9,818,1,1444422263232,1444422263380,939,449,0,0,0,5,4,1,54,0001-00-0009-10.png,0005-00-0005-79.png
9,819,1,1444422263409,1444422264144,504,290,0,0,0,3,4,1,34,0003-00-0000-15.png,0005-00-0009-28.png
9,820,1,1444422264174,1444422264631,1092,309,0,0,0,1,2,1,12,0004-00-0005-60.png,0002-00-0003-50.png
9,821,1,1444422264655,1444422265987,920,475,0,0,0,3,2,1,32,0003-00-0004-23.png,0002-00-0005-79.png
9,822,1,1444422266032,1444422266152,499,293,0,0,0,4,3,1,43,0005-00-0009-11.png,0003-00-0000-95.png
9,823,1,1444422266189,1444422266293,914,440,0,0,0,2,3,1,23,0002-00-0002-30.png,0003-00-0006-35.png
9,824,0,1444422266320,1444422266718,961,300,0,0,0,2,1,1,21,0002-00-0002-95.png,0004-00-0003-18.png
9,825,0,1444422266741,1444422266899,446,410,0,0,0,5,4,1,54,0001-00-0000-91.png,0005-00-0007-32.png
9,826,1,1444422266920,1444422267034,913,410,0,0,0,2,1,1,21,0002-00-0006-10.png,0004-00-0003-15.png
9,827,0,1444422267060,1444422267252,966,289,0,0,0,3,4,1,34,0003-00-0003-14.png,0005-00-0009-93.png
9,828,0,1444422267288,1444422267948,917,429,0,0,0,3,2,1,32,0003-00-0003-87.png,0002-00-0000-52.png
9,829,1,1444422267969,1444422268182,965,449,0,0,0,4,3,1,43,0005-00-0007-22.png,0003-00-0002-33.png
9,830,0,1444422268224,1444422268693,927,477,0,0,0,1,2,1,12,0004-00-0003-48.png,0002-00-0006-12.png
9,831,0,1444422268721,1444422269008,482,290,0,0,0,2,3,1,23,0002-00-0002-80.png,0003-00-0005-56.png
9,832,0,1444422269035,1444422269518,949,333,0,0,0,5,4,1,54,0001-00-0001-40.png,0005-00-0003-11.png
9,833,0,1444422269547,1444422270839,933,429,0,0,0,1,2,1,12,0004-00-0009-42.png,0002-00-0009-76.png
9,834,0,1444422270872,1444422271123,465,253,0,0,0,4,3,1,43,0005-00-0009-72.png,0003-00-0001-38.png
9,835,0,1444422271161,1444422276668,401,366,0,0,0,2,3,1,23,0002-00-0002-36.png,0003-00-0005-54.png
9,836,1,1444422276699,1444422277199,884,479,0,0,0,3,2,1,32,0003-00-0009-41.png,0002-00-0005-72.png
9,837,0,1444422277226,1444422277304,1016,321,0,0,0,2,1,1,21,0002-00-0004-10.png,0004-00-0002-57.png
9,838,0,1444422277351,1444422277956,980,421,0,0,0,3,4,1,34,0003-00-0002-65.png,0005-00-0008-11.png
9,839,1,1444422277986,1444422278234,444,304,0,0,0,5,4,1,54,0001-00-0008-56.png,0005-00-0001-38.png
9,840,1,1444422278266,1444422278287,866,464,0,0,0,5,4,1,54,0001-00-0008-65.png,0005-00-0000-52.png
9,841,1,1444422278316,1444422278882,922,438,0,0,0,3,4,1,34,0003-00-0001-31.png,0005-00-0003-78.png
9,842,1,1444422278914,1444422279445,500,297,0,0,0,1,2,1,12,0004-00-0008-19.png,0002-00-0008-74.png
9,843,0,1444422279465,1444422281757,478,252,0,0,0,5,4,1,54,0001-00-0008-54.png,0005-00-0005-07.png
9,844,0,1444422281798,1444422281979,921,321,0,0,0,2,1,1,21,0002-00-0002-45.png,0004-00-0009-46.png
9,845,1,1444422282008,1444422282058,941,447,0,0,0,5,4,1,54,0001-00-0004-53.png,0005-00-0006-60.png
9,846,0,1444422282079,1444422282152,930,461,0,0,0,3,2,1,32,0003-00-0000-91.png,0002-00-0005-40.png
9,847,0,1444422282182,1444422282344,913,317,0,0,0,4,3,1,43,0005-00-0004-12.png,0003-00-0009-91.png
9,848,0,1444422282373,1444422282409,902,434,0,0,0,2,3,1,23,0002-00-0007-54.png,0003-00-0001-71.png
9,849,0,1444422282439,1444422282627,966,320,0,0,0,1,2,1,12,0004-00-0002-33.png,0002-00-0005-05.png
9,850,1,1444422282647,1444422282712,943,468,0,0,0,2,1,1,21,0002-00-0004-62.png,0004-00-0002-46.png
9,851,0,1444422282734,1444422283097,1067,290,0,0,0,3,4,1,34,0003-00-0006-89.png,0005-00-0008-04.png
9,852,1,1444422283123,1444422284422,927,424,0,0,0,4,3,1,43,0005-00-0009-04.png,0003-00-0002-91.png
9,853,1,1444422284458,1444422284500,513,309,0,0,0,2,3,1,23,0002-00-0005-72.png,0003-00-0009-29.png
9,854,1,1444422284530,1444422284719,502,264,0,0,0,3,2,1,32,0003-00-0004-63.png,0002-00-0008-85.png
9,855,1,1444422284759,1444422286166,939,448,0,0,0,5,4,1,54,0001-00-0005-24.png,0005-00-0004-28.png
9,856,0,1444422286193,1444422286426,962,467,0,0,0,5,4,1,54,0001-00-0000-86.png,0005-00-0004-65.png
9,857,1,1444422286453,1444422286513,863,442,0,0,0,5,4,1,54,0001-00-0005-20.png,0005-00-0000-00.png
9,858,0,1444422286542,1444422286607,990,321,0,0,0,3,2,1,32,0003-00-0004-36.png,0002-00-0003-24.png
9,859,0,1444422286629,1444422288876,508,240,0,0,0,2,1,1,21,0002-00-0008-24.png,0004-00-0002-90.png
9,860,1,1444422288907,1444422288936,965,341,0,0,0,1,2,1,12,0004-00-0002-19.png,0002-00-0002-68.png
9,861,1,1444422288960,1444422288998,467,314,0,0,0,5,4,1,54,0001-00-0004-85.png,0005-00-0003-81.png
9,862,0,1444422289025,1444422291105,925,323,0,0,0,4,3,1,43,0005-00-0004-09.png,0003-00-0007-48.png
9,863,1,1444422291144,1444422293736,923,481,0,0,0,3,4,1,34,0003-00-0009-17.png,0005-00-0007-88.png
9,864,0,1444422293768,1444422293953,1092,279,0,0,0,2,3,1,23,0002-00-0009-27.png,0003-00-0008-27.png
9,865,1,1444422293986,1444422294036,912,448,0,0,0,5,4,1,54,0001-00-0006-51.png,0005-00-0006-81.png
9,866,1,1444422294059,1444422294106,924,394,0,0,0,3,2,1,32,0003-00-0008-70.png,0002-00-0007-80.png
9,867,1,1444422294133,1444422294152,937,335,0,0,0,3,4,1,34,0003-00-0001-20.png,0005-00-0008-72.png
9,868,1,1444422294190,1444422294544,939,412,0,0,0,4,3,1,43,0005-00-0003-01.png,0003-00-0005-94.png
9,869,0,1444422294578,1444422295020,375,358,0,0,0,5,4,1,54,0001-00-0003-50.png,0005-00-0002-70.png
9,870,0,1444422295056,1444422295162,935,470,0,0,0,1,2,1,12,0004-00-0009-88.png,0002-00-0006-93.png
9,871,1,1444422295198,1444422295532,931,494,0,0,0,2,1,1,21,0002-00-0001-85.png,0004-00-0005-26.png
9,872,1,1444422295562,1444422296024,490,264,0,0,0,2,3,1,23,0002-00-0009-42.png,0003-00-0000-97.png
9,873,1,1444422296046,1444422296629,873,498,0,0,0,2,3,1,23,0002-00-0007-69.png,0003-00-0002-29.png
9,874,1,1444422296655,1444422297402,402,364,0,0,0,3,4,1,34,0003-00-0004-00.png,0005-00-0001-62.png
9,875,1,1444422297437,1444422297681,905,341,0,0,0,2,1,1,21,0002-00-0001-04.png,0004-00-0001-47.png
9,876,1,1444422297704,1444422299300,945,326,0,0,0,4,3,1,43,0005-00-0004-37.png,0003-00-0006-39.png
9,877,1,1444422299347,1444422301006,920,444,0,0,0,5,4,1,54,0001-00-0001-08.png,0005-00-0007-11.png
9,878,0,1444422301039,1444422302146,872,474,0,0,0,5,4,1,54,0001-00-0002-60.png,0005-00-0004-63.png
9,879,1,1444422302175,1444422302312,939,449,0,0,0,1,2,1,12,0004-00-0008-91.png,0002-00-0006-69.png
9,880,1,1444422302344,1444422302545,416,349,0,0,0,3,2,1,32,0003-00-0005-98.png,0002-00-0002-78.png
9,881,0,1444422302566,1444422302834,1032,306,0,0,0,5,4,1,54,0001-00-0000-13.png,0005-00-0003-83.png
9,882,0,1444422302854,1444422303390,958,314,0,0,0,3,2,1,32,0003-00-0005-88.png,0002-00-0002-95.png
9,883,0,1444422303427,1444422303662,939,413,0,0,0,3,4,1,34,0003-00-0002-53.png,0005-00-0005-33.png
9,884,0,1444422303720,1444422305660,909,353,0,0,0,2,1,1,21,0002-00-0000-25.png,0004-00-0007-15.png
9,885,1,1444422305696,1444422306073,929,474,0,0,0,1,2,1,12,0004-00-0008-21.png,0002-00-0000-94.png
9,886,1,1444422306102,1444422306142,967,322,0,0,0,4,3,1,43,0005-00-0002-31.png,0003-00-0006-46.png
9,887,1,1444422306174,1444422306414,913,497,0,0,0,2,3,1,23,0002-00-0000-99.png,0003-00-0000-40.png
9,888,0,1444422306438,1444422310621,1062,278,0,0,0,5,4,1,54,0001-00-0004-14.png,0005-00-0004-86.png
9,889,0,1444422310645,1444422311397,933,473,0,0,0,5,4,1,54,0001-00-0001-09.png,0005-00-0000-11.png
9,890,1,1444422311421,1444422311445,1063,305,0,0,0,1,2,1,12,0004-00-0003-10.png,0002-00-0002-77.png
9,891,0,1444422311500,1444422312059,1067,292,0,0,0,3,2,1,32,0003-00-0006-60.png,0002-00-0009-96.png
9,892,1,1444422312094,1444422312635,949,410,0,0,0,2,1,1,21,0002-00-0009-69.png,0004-00-0000-93.png
9,893,1,1444422312668,1444422314251,968,316,0,0,0,2,3,1,23,0002-00-0000-11.png,0003-00-0001-51.png
9,894,1,1444422314278,1444422315281,492,254,0,0,0,5,4,1,54,0001-00-0007-44.png,0005-00-0000-66.png
9,895,1,1444422315312,1444422315632,496,283,0,0,0,4,3,1,43,0005-00-0004-44.png,0003-00-0009-66.png
9,896,1,1444422315670,1444422316379,1092,279,0,0,0,3,4,1,34,0003-00-0009-88.png,0005-00-0005-30.png
9,897,1,1444422316413,1444422317193,934,474,0,0,0,3,2,1,32,0003-00-0008-65.png,0002-00-0003-25.png
9,898,0,1444422317235,1444422317477,963,448,0,0,0,1,2,1,12,0004-00-0006-24.png,0002-00-0007-79.png
9,899,1,1444422317503,1444422318721,455,292,0,0,0,5,4,1,54,0001-00-0009-03.png,0005-00-0009-04.png
9,900,0,1444422318749,1444422320107,1059,315,0,0,0,5,4,1,54,0001-00-0006-49.png,0005-00-0008-34.png
9,901,1,1444422320132,1444422320225,963,426,0,0,0,2,3,1,23,0002-00-0007-56.png,0003-00-0008-93.png
9,902,1,1444422320247,1444422326271,392,374,0,0,0,4,3,1,43,0005-00-0001-78.png,0003-00-0006-90.png
9,903,0,1444422326301,1444422326657,956,342,0,0,0,3,4,1,34,0003-00-0002-27.png,0005-00-0004-53.png
9,904,0,1444422326695,1444422326838,983,488,0,0,0,2,1,1,21,0002-00-0001-38.png,0004-00-0005-37.png
9,905,1,1444422326858,1444422327211,931,459,0,0,0,5,4,1,54,0001-00-0007-97.png,0005-00-0005-04.png
9,906,0,1444422327247,1444422327303,920,439,0,0,0,5,4,1,54,0001-00-0004-69.png,0005-00-0001-62.png
9,907,1,1444422327333,1444422328055,920,448,0,0,0,4,3,1,43,0005-00-0008-08.png,0003-00-0006-86.png
9,908,1,1444422328077,1444422328299,1046,307,0,0,0,3,2,1,32,0003-00-0006-43.png,0002-00-0005-71.png
9,909,0,1444422328349,1444422329366,964,344,0,0,0,2,1,1,21,0002-00-0007-49.png,0004-00-0008-50.png
9,910,0,1444422329396,1444422329646,486,305,0,0,0,2,3,1,23,0002-00-0001-61.png,0003-00-0005-62.png
9,911,1,1444422329664,1444422331677,1016,292,0,0,0,3,4,1,34,0003-00-0002-11.png,0005-00-0009-23.png
9,912,1,1444422331709,1444422331975,937,382,0,0,0,1,2,1,12,0004-00-0009-00.png,0002-00-0007-43.png
9,913,1,1444422332005,1444422332234,1040,345,0,0,0,4,3,1,43,0005-00-0008-87.png,0003-00-0009-85.png
9,914,1,1444422332262,1444422332394,436,284,0,0,0,1,2,1,12,0004-00-0006-79.png,0002-00-0008-12.png
9,915,0,1444422332412,1444422332740,465,297,0,0,0,5,4,1,54,0001-00-0001-94.png,0005-00-0001-60.png
9,916,0,1444422332777,1444422332824,944,364,0,0,0,2,1,1,21,0002-00-0009-94.png,0004-00-0005-79.png
9,917,1,1444422332852,1444422333356,929,536,0,0,0,3,4,1,34,0003-00-0004-53.png,0005-00-0002-60.png
9,918,1,1444422333386,1444422333571,888,369,0,0,0,2,3,1,23,0002-00-0001-44.png,0003-00-0002-68.png
9,919,1,1444422333604,1444422334468,449,269,0,0,0,3,2,1,32,0003-00-0006-95.png,0002-00-0004-73.png
9,920,0,1444422334489,1444422334980,490,251,0,0,0,5,4,1,54,0001-00-0002-20.png,0005-00-0003-86.png
9,921,1,1444422335006,1444422335262,896,337,0,0,0,4,3,1,43,0005-00-0004-42.png,0003-00-0009-96.png
9,922,1,1444422335297,1444422335396,369,401,0,0,0,5,4,1,54,0001-00-0006-87.png,0005-00-0009-56.png
9,923,1,1444422335429,1444422336514,394,387,0,0,0,1,2,1,12,0004-00-0005-88.png,0002-00-0002-48.png
9,924,0,1444422336537,1444422338337,1039,288,0,0,0,3,4,1,34,0003-00-0003-24.png,0005-00-0000-00.png
9,925,1,1444422338363,1444422339016,861,445,0,0,0,2,3,1,23,0002-00-0004-23.png,0003-00-0006-78.png
9,926,1,1444422339043,1444422339399,440,449,0,0,0,3,2,1,32,0003-00-0006-92.png,0002-00-0009-65.png
9,927,1,1444422339422,1444422339823,959,306,0,0,0,2,1,1,21,0002-00-0009-07.png,0004-00-0009-06.png
9,928,0,1444422339852,1444422340359,872,488,0,0,0,5,4,1,54,0001-00-0009-53.png,0005-00-0005-92.png
9,929,0,1444422340379,1444422340928,922,456,0,0,0,5,4,1,54,0001-00-0006-66.png,0005-00-0009-28.png
9,930,1,1444422340956,1444422341175,862,462,0,0,0,4,3,1,43,0005-00-0008-14.png,0003-00-0006-69.png
9,931,1,1444422341199,1444422342346,444,443,0,0,0,5,4,1,54,0001-00-0008-78.png,0005-00-0006-84.png
9,932,1,1444422342380,1444422342855,292,368,0,0,0,2,1,1,21,0002-00-0008-05.png,0004-00-0006-48.png
9,933,1,1444422342883,1444422343836,501,244,0,0,0,3,4,1,34,0003-00-0008-40.png,0005-00-0007-84.png
9,934,1,1444422343882,1444422344293,993,320,0,0,0,3,2,1,32,0003-00-0000-86.png,0002-00-0002-19.png
9,935,1,1444422344336,1444422345214,469,234,0,0,0,2,3,1,23,0002-00-0006-96.png,0003-00-0004-15.png
9,936,0,1444422345247,1444422346145,1000,317,0,0,0,1,2,1,12,0004-00-0000-42.png,0002-00-0004-18.png
9,937,1,1444422346173,1444422347066,492,300,0,0,0,4,3,1,43,0005-00-0004-88.png,0003-00-0004-78.png
9,938,0,1444422347111,1444422347384,888,358,0,0,0,2,1,1,21,0002-00-0009-04.png,0004-00-0006-88.png
9,939,1,1444422347403,1444422347626,896,410,0,0,0,3,2,1,32,0003-00-0000-25.png,0002-00-0006-21.png
9,940,1,1444422347669,1444422349294,485,294,0,0,0,3,4,1,34,0003-00-0008-85.png,0005-00-0004-49.png
9,941,1,1444422349335,1444422349956,899,339,0,0,0,5,4,1,54,0001-00-0008-75.png,0005-00-0001-44.png
9,942,0,1444422349988,1444422353773,1016,253,0,0,0,1,2,1,12,0004-00-0001-45.png,0002-00-0007-93.png
9,943,1,1444422353798,1444422353883,918,307,0,0,0,5,4,1,54,0001-00-0006-16.png,0005-00-0006-32.png
9,944,1,1444422353900,1444422353993,482,250,0,0,0,2,3,1,23,0002-00-0008-28.png,0003-00-0009-11.png
9,945,0,1444422354022,1444422354076,913,320,0,0,0,3,2,1,32,0003-00-0001-89.png,0002-00-0002-07.png
9,946,1,1444422354103,1444422354637,990,452,0,0,0,2,3,1,23,0002-00-0006-97.png,0003-00-0006-38.png
9,947,0,1444422354664,1444422354865,916,477,0,0,0,5,4,1,54,0001-00-0008-09.png,0005-00-0006-58.png
9,948,1,1444422354886,1444422354924,923,439,0,0,0,4,3,1,43,0005-00-0009-83.png,0003-00-0000-31.png
9,949,0,1444422354943,1444422354984,877,436,0,0,0,2,1,1,21,0002-00-0006-76.png,0004-00-0005-40.png
9,950,0,1444422355006,1444422355435,939,400,0,0,0,1,2,1,12,0004-00-0007-26.png,0002-00-0004-70.png
9,951,1,1444422355470,1444422356247,894,430,0,0,0,5,4,1,54,0001-00-0008-47.png,0005-00-0007-15.png
9,952,1,1444422356276,1444422356495,405,367,0,0,0,3,4,1,34,0003-00-0009-96.png,0005-00-0000-65.png
9,953,0,1444422356527,1444422358017,1067,306,0,0,0,3,4,1,34,0003-00-0000-20.png,0005-00-0009-43.png
9,954,0,1444422358044,1444422358287,1029,555,0,0,0,1,2,1,12,0004-00-0005-38.png,0002-00-0003-10.png
9,955,0,1444422358315,1444422358800,979,556,0,0,0,5,4,1,54,0001-00-0003-27.png,0005-00-0009-72.png
9,956,0,1444422358824,1444422359013,397,360,0,0,0,5,4,1,54,0001-00-0002-59.png,0005-00-0007-14.png
9,957,1,1444422359031,1444422359774,1067,296,0,0,0,3,2,1,32,0003-00-0001-36.png,0002-00-0003-74.png
9,958,0,1444422359800,1444422359992,510,286,0,0,0,2,1,1,21,0002-00-0008-09.png,0004-00-0002-50.png
9,959,0,1444422360024,1444422360265,453,418,0,0,0,4,3,1,43,0005-00-0007-87.png,0003-00-0002-05.png
9,960,1,1444422360291,1444422360623,408,374,0,0,0,2,3,1,23,0002-00-0002-69.png,0003-00-0008-14.png
9,961,1,1444422360657,1444422360924,888,450,0,0,0,3,4,1,34,0003-00-0009-16.png,0005-00-0003-70.png
9,962,1,1444422360956,1444422361226,909,500,0,0,0,2,3,1,23,0002-00-0006-13.png,0003-00-0008-66.png
9,963,0,1444422361260,1444422361319,982,313,0,0,0,5,4,1,54,0001-00-0005-17.png,0005-00-0001-32.png
9,964,0,1444422361348,1444422361436,1041,279,0,0,0,4,3,1,43,0005-00-0003-99.png,0003-00-0001-42.png
9,965,0,1444422361457,1444422361775,1041,291,0,0,0,3,2,1,32,0003-00-0005-66.png,0002-00-0004-33.png
9,966,0,1444422361795,1444422362406,1016,552,0,0,0,2,1,1,21,0002-00-0006-40.png,0004-00-0008-86.png
9,967,1,1444422362428,1444422367819,964,332,0,0,0,1,2,1,12,0004-00-0008-02.png,0002-00-0005-01.png
9,968,1,1444422367854,1444422368276,871,359,0,0,0,5,4,1,54,0001-00-0008-71.png,0005-00-0002-01.png
9,969,1,1444422368310,1444422368642,962,329,0,0,0,2,3,1,23,0002-00-0004-85.png,0003-00-0007-55.png
9,970,1,1444422368669,1444422368885,924,488,0,0,0,2,1,1,21,0002-00-0009-59.png,0004-00-0001-27.png
9,971,1,1444422368922,1444422369345,944,466,0,0,0,5,4,1,54,0001-00-0005-30.png,0005-00-0004-64.png
9,972,1,1444422369361,1444422371129,962,334,0,0,0,1,2,1,12,0004-00-0008-23.png,0002-00-0009-53.png
9,973,0,1444422371148,1444422371427,913,439,0,0,0,3,4,1,34,0003-00-0002-18.png,0005-00-0006-61.png
9,974,0,1444422371444,1444422371492,498,289,0,0,0,3,2,1,32,0003-00-0000-37.png,0002-00-0009-30.png
9,975,1,1444422371505,1444422371831,480,276,0,0,0,4,3,1,43,0005-00-0007-76.png,0003-00-0002-26.png
9,976,1,1444422371855,1444422372032,913,453,0,0,0,5,4,1,54,0001-00-0002-23.png,0005-00-0005-15.png
9,977,1,1444422372057,1444422372077,949,478,0,0,0,3,2,1,32,0003-00-0006-24.png,0002-00-0006-50.png
9,978,1,1444422372097,1444422372375,936,480,0,0,0,3,4,1,34,0003-00-0003-73.png,0005-00-0003-12.png
9,979,0,1444422372403,1444422373023,972,325,0,0,0,2,3,1,23,0002-00-0006-70.png,0003-00-0000-59.png
9,980,1,1444422373068,1444422373267,434,297,0,0,0,4,3,1,43,0005-00-0003-99.png,0003-00-0008-74.png
9,981,1,1444422373288,1444422373756,504,292,0,0,0,5,4,1,54,0001-00-0001-25.png,0005-00-0003-63.png
9,982,0,1444422373788,1444422373855,889,493,0,0,0,2,1,1,21,0002-00-0004-40.png,0004-00-0008-64.png
9,983,1,1444422373879,1444422374059,1029,265,0,0,0,1,2,1,12,0004-00-0000-97.png,0002-00-0008-79.png
9,984,1,1444422374085,1444422374191,923,498,0,0,0,5,4,1,54,0001-00-0005-85.png,0005-00-0004-84.png
9,985,0,1444422374224,1444422374350,951,330,0,0,0,2,3,1,23,0002-00-0004-02.png,0003-00-0006-15.png
9,986,0,1444422374385,1444422374442,478,290,0,0,0,5,4,1,54,0001-00-0002-60.png,0005-00-0008-47.png
9,987,1,1444422374459,1444422375144,1076,301,0,0,0,4,3,1,43,0005-00-0002-58.png,0003-00-0006-99.png
9,988,0,1444422375170,1444422380476,522,275,0,0,0,3,4,1,34,0003-00-0008-82.png,0005-00-0003-09.png
9,989,0,1444422380501,1444422380777,1064,298,0,0,0,5,4,1,54,0001-00-0005-42.png,0005-00-0007-65.png
9,990,0,1444422380812,1444422380946,937,332,0,0,0,1,2,1,12,0004-00-0003-60.png,0002-00-0001-35.png
9,991,0,1444422380970,1444422381044,993,435,0,0,0,3,2,1,32,0003-00-0006-78.png,0002-00-0004-45.png
9,992,1,1444422381068,1444422386431,508,278,0,0,0,2,1,1,21,0002-00-0005-62.png,0004-00-0001-49.png
9,993,1,1444422386468,1444422387504,885,471,0,0,0,3,4,1,34,0003-00-0002-27.png,0005-00-0001-12.png
9,994,1,1444422387544,1444422387590,939,315,0,0,0,4,3,1,43,0005-00-0009-92.png,0003-00-0006-82.png
9,995,0,1444422387609,1444422388251,480,292,0,0,0,2,3,1,23,0002-00-0007-74.png,0003-00-0005-22.png
9,996,0,1444422388270,1444422388794,951,427,0,0,0,5,4,1,54,0001-00-0007-45.png,0005-00-0002-57.png
9,997,1,1444422388819,1444422389804,403,378,0,0,0,2,1,1,21,0002-00-0007-95.png,0004-00-0004-08.png
