subject_id,trial,correct_response,stim_time,response_time,x_coord,y_coord,trial_timeout,timeout_time,interTrial_timeout,left_rank,right_rank,distance,joint_rank,left_image,right_image
14,1,0,1444060620030,1444060620576,362,349,0,0,0,3,4,1,34,0003-00-0000-72.png,0005-00-0006-30.png
14,2,0,1444060620618,1444060621419,1013,306,0,0,0,4,3,1,43,0005-00-0007-19.png,0003-00-0007-73.png
14,3,1,1444060621449,1444060622698,994,378,0,0,0,5,4,1,54,0001-00-0008-15.png,0005-00-0003-64.png
14,4,0,1444060622726,1444060623215,979,399,0,0,0,3,2,1,32,0003-00-0006-48.png,0002-00-0001-57.png
14,5,0,1444060623232,1444060623661,272,369,0,0,0,2,1,1,21,0002-00-0004-86.png,0004-00-0006-90.png
14,6,0,1444060623692,1444060624021,929,427,0,0,0,5,4,1,54,0001-00-0002-65.png,0005-00-0004-18.png
14,7,1,1444060624055,1444060624437,206,466,0,0,0,1,2,1,12,0004-00-0007-22.png,0002-00-0005-19.png
14,8,1,1444060624476,1444060624661,901,384,0,0,0,2,3,1,23,0002-00-0005-63.png,0003-00-0007-10.png
14,9,0,1444060624688,1444060624840,384,492,0,0,0,1,2,1,12,0004-00-0004-34.png,0002-00-0002-89.png
14,10,1,1444060624870,1444060625554,888,410,0,0,0,2,3,1,23,0002-00-0000-21.png,0003-00-0006-82.png
14,11,0,1444060625581,1444060626159,401,332,0,0,0,5,4,1,54,0001-00-0006-32.png,0005-00-0003-70.png
14,12,1,1444060626198,1444060626694,900,528,0,0,0,3,4,1,34,0003-00-0002-24.png,0005-00-0000-14.png
14,13,0,1444060626718,1444060627142,478,410,0,0,0,2,1,1,21,0002-00-0002-36.png,0004-00-0002-63.png
14,14,0,1444060627181,1444060628190,901,319,0,0,0,5,4,1,54,0001-00-0002-47.png,0005-00-0000-06.png
14,15,1,1444060628235,1444060629229,946,342,0,0,0,3,2,1,32,0003-00-0000-69.png,0002-00-0002-97.png
14,16,1,1444060629266,1444060629688,902,467,0,0,0,4,3,1,43,0005-00-0008-34.png,0003-00-0009-54.png
14,17,1,1444060629723,1444060630228,885,437,0,0,0,1,2,1,12,0004-00-0007-01.png,0002-00-0007-12.png
14,18,1,1444060630259,1444060631019,401,371,0,0,0,2,3,1,23,0002-00-0006-34.png,0003-00-0002-57.png
14,19,1,1444060631040,1444060631255,926,424,0,0,0,3,4,1,34,0003-00-0005-88.png,0005-00-0008-30.png
14,20,0,1444060631284,1444060631770,921,397,0,0,0,4,3,1,43,0005-00-0002-87.png,0003-00-0002-41.png
14,21,0,1444060631784,1444060632391,952,373,0,0,0,3,2,1,32,0003-00-0002-88.png,0002-00-0006-50.png
14,22,1,1444060632418,1444060632848,364,502,0,0,0,5,4,1,54,0001-00-0004-66.png,0005-00-0002-43.png
14,23,1,1444060632871,1444060633222,875,319,0,0,0,2,1,1,21,0002-00-0001-17.png,0004-00-0001-08.png
14,24,0,1444060633256,1444060633825,905,349,0,0,0,5,4,1,54,0001-00-0001-12.png,0005-00-0006-71.png
14,25,0,1444060633850,1444060634300,870,420,0,0,0,2,1,1,21,0002-00-0008-30.png,0004-00-0004-20.png
14,26,1,1444060634326,1444060634643,938,398,0,0,0,2,3,1,23,0002-00-0004-72.png,0003-00-0008-59.png
14,27,0,1444060634679,1444060635281,376,489,0,0,0,3,4,1,34,0003-00-0008-89.png,0005-00-0005-17.png
14,28,1,1444060635306,1444060635442,210,462,0,0,0,4,3,1,43,0005-00-0002-83.png,0003-00-0009-33.png
14,29,1,1444060635491,1444060636237,339,476,0,0,0,1,2,1,12,0004-00-0005-41.png,0002-00-0005-06.png
14,30,0,1444060636271,1444060637500,914,423,0,0,0,3,2,1,32,0003-00-0008-50.png,0002-00-0002-07.png
14,31,1,1444060637530,1444060638292,926,410,0,0,0,5,4,1,54,0001-00-0009-39.png,0005-00-0008-57.png
14,32,1,1444060638321,1444060639162,875,293,0,0,0,5,4,1,54,0001-00-0009-61.png,0005-00-0005-04.png
14,33,0,1444060639204,1444060639438,294,368,0,0,0,3,4,1,34,0003-00-0004-95.png,0005-00-0006-07.png
14,34,1,1444060639466,1444060640791,940,408,0,0,0,5,4,1,54,0001-00-0006-69.png,0005-00-0007-08.png
14,35,0,1444060640813,1444060641146,969,440,0,0,0,2,1,1,21,0002-00-0003-94.png,0004-00-0005-99.png
14,36,1,1444060641169,1444060641606,340,357,0,0,0,1,2,1,12,0004-00-0005-20.png,0002-00-0007-05.png
14,37,0,1444060641637,1444060642254,897,275,0,0,0,5,4,1,54,0001-00-0000-61.png,0005-00-0006-16.png
14,38,0,1444060642278,1444060643037,874,358,0,0,0,2,3,1,23,0002-00-0007-24.png,0003-00-0002-92.png
14,39,1,1444060643063,1444060643704,366,469,0,0,0,4,3,1,43,0005-00-0002-09.png,0003-00-0007-71.png
14,40,1,1444060643733,1444060644246,900,345,0,0,0,3,2,1,32,0003-00-0006-21.png,0002-00-0004-02.png
14,41,1,1444060644272,1444060644521,376,358,0,0,0,2,3,1,23,0002-00-0009-71.png,0003-00-0009-36.png
14,42,1,1444060644548,1444060645181,861,430,0,0,0,4,3,1,43,0005-00-0007-03.png,0003-00-0002-35.png
14,43,0,1444060645216,1444060646220,903,415,0,0,0,5,4,1,54,0001-00-0001-95.png,0005-00-0006-51.png
14,44,1,1444060646236,1444060647140,957,392,0,0,0,5,4,1,54,0001-00-0008-24.png,0005-00-0006-72.png
14,45,0,1444060647160,1444060647565,952,408,0,0,0,1,2,1,12,0004-00-0008-97.png,0002-00-0002-13.png
14,46,0,1444060647581,1444060647958,942,431,0,0,0,3,4,1,34,0003-00-0003-67.png,0005-00-0006-08.png
14,47,0,1444060647987,1444060648562,348,379,0,0,0,3,2,1,32,0003-00-0009-92.png,0002-00-0001-64.png
14,48,0,1444060648599,1444060649282,925,430,0,0,0,2,1,1,21,0002-00-0001-26.png,0004-00-0003-43.png
14,49,1,1444060649313,1444060649884,342,374,0,0,0,2,1,1,21,0002-00-0008-95.png,0004-00-0005-89.png
14,50,0,1444060649904,1444060650458,913,410,0,0,0,5,4,1,54,0001-00-0000-46.png,0005-00-0004-32.png
14,51,1,1444060650490,1444060650897,324,397,0,0,0,4,3,1,43,0005-00-0005-92.png,0003-00-0004-61.png
14,52,0,1444060650926,1444060651608,921,420,0,0,0,1,2,1,12,0004-00-0001-55.png,0002-00-0000-66.png
14,53,0,1444060651647,1444060651821,364,488,0,0,0,3,4,1,34,0003-00-0000-17.png,0005-00-0000-39.png
14,54,0,1444060651861,1444060652757,389,475,0,0,0,5,4,1,54,0001-00-0005-60.png,0005-00-0006-00.png
14,55,1,1444060652782,1444060653672,904,351,0,0,0,2,3,1,23,0002-00-0008-92.png,0003-00-0002-79.png
14,56,1,1444060653701,1444060653901,396,490,0,0,0,3,2,1,32,0003-00-0003-55.png,0002-00-0009-37.png
14,57,1,1444060653923,1444060654599,926,410,0,0,0,3,4,1,34,0003-00-0000-65.png,0005-00-0006-83.png
14,58,1,1444060654633,1444060654969,899,385,0,0,0,1,2,1,12,0004-00-0004-11.png,0002-00-0007-87.png
14,59,1,1444060654996,1444060655513,902,415,0,0,0,3,2,1,32,0003-00-0005-20.png,0002-00-0001-43.png
14,60,1,1444060655555,1444060655816,297,371,0,0,0,5,4,1,54,0001-00-0008-14.png,0005-00-0004-03.png
14,61,1,1444060655836,1444060656422,939,398,0,0,0,2,1,1,21,0002-00-0004-57.png,0004-00-0004-01.png
14,62,0,1444060656441,1444060657247,375,374,0,0,0,4,3,1,43,0005-00-0003-22.png,0003-00-0001-59.png
14,63,0,1444060657280,1444060657580,415,476,0,0,0,5,4,1,54,0001-00-0004-49.png,0005-00-0006-24.png
14,64,0,1444060657597,1444060657905,894,460,0,0,0,2,3,1,23,0002-00-0004-41.png,0003-00-0002-58.png
14,65,1,1444060657932,1444060658047,926,345,0,0,0,5,4,1,54,0001-00-0008-02.png,0005-00-0005-23.png
14,66,0,1444060658069,1444060659023,273,423,0,0,0,5,4,1,54,0001-00-0007-44.png,0005-00-0008-30.png
14,67,1,1444060659053,1444060659703,478,358,0,0,0,2,3,1,23,0002-00-0002-15.png,0003-00-0004-68.png
14,68,1,1444060659739,1444060660085,947,419,0,0,0,2,1,1,21,0002-00-0004-53.png,0004-00-0007-34.png
14,69,0,1444060660114,1444060660568,875,424,0,0,0,4,3,1,43,0005-00-0005-67.png,0003-00-0003-68.png
14,70,0,1444060660593,1444060661449,886,437,0,0,0,3,4,1,34,0003-00-0008-29.png,0005-00-0005-21.png
14,71,0,1444060661479,1444060662149,331,386,0,0,0,1,2,1,12,0004-00-0000-00.png,0002-00-0002-34.png
14,72,1,1444060662183,1444060662405,359,469,0,0,0,3,2,1,32,0003-00-0004-68.png,0002-00-0002-07.png
14,73,0,1444060662439,1444060662726,304,366,0,0,0,5,4,1,54,0001-00-0001-79.png,0005-00-0004-94.png
14,74,0,1444060662770,1444060663469,345,408,0,0,0,2,1,1,21,0002-00-0009-03.png,0004-00-0004-99.png
14,75,1,1444060663493,1444060664019,919,430,0,0,0,2,3,1,23,0002-00-0003-43.png,0003-00-0005-08.png
14,76,1,1444060664068,1444060664664,294,377,0,0,0,5,4,1,54,0001-00-0004-11.png,0005-00-0003-61.png
14,77,0,1444060664693,1444060665343,293,368,0,0,0,3,2,1,32,0003-00-0002-56.png,0002-00-0003-12.png
14,78,0,1444060665369,1444060665796,870,470,0,0,0,1,2,1,12,0004-00-0005-09.png,0002-00-0006-61.png
14,79,0,1444060665820,1444060665993,955,403,0,0,0,3,4,1,34,0003-00-0003-85.png,0005-00-0003-54.png
14,80,1,1444060666015,1444060666426,880,324,0,0,0,4,3,1,43,0005-00-0001-45.png,0003-00-0002-95.png
14,81,1,1444060666468,1444060667681,900,372,0,0,0,3,2,1,32,0003-00-0006-36.png,0002-00-0007-68.png
14,82,1,1444060667718,1444060668118,970,425,0,0,0,2,1,1,21,0002-00-0008-83.png,0004-00-0001-65.png
14,83,1,1444060668156,1444060668354,900,384,0,0,0,1,2,1,12,0004-00-0006-31.png,0002-00-0001-43.png
14,84,0,1444060668386,1444060668747,921,399,0,0,0,5,4,1,54,0001-00-0002-92.png,0005-00-0006-42.png
14,85,1,1444060668781,1444060669826,908,422,0,0,0,2,3,1,23,0002-00-0007-41.png,0003-00-0002-96.png
14,86,1,1444060669847,1444060670193,932,410,0,0,0,4,3,1,43,0005-00-0005-87.png,0003-00-0005-01.png
14,87,1,1444060670233,1444060670978,364,440,0,0,0,3,4,1,34,0003-00-0006-18.png,0005-00-0000-50.png
14,88,1,1444060670997,1444060671739,329,346,0,0,0,5,4,1,54,0001-00-0000-31.png,0005-00-0005-02.png
14,89,1,1444060671761,1444060672064,872,459,0,0,0,3,2,1,32,0003-00-0004-19.png,0002-00-0005-73.png
14,90,1,1444060672088,1444060672401,916,451,0,0,0,5,4,1,54,0001-00-0004-31.png,0005-00-0008-41.png
14,91,0,1444060672429,1444060672824,504,410,0,0,0,2,1,1,21,0002-00-0000-77.png,0004-00-0003-21.png
14,92,0,1444060672854,1444060673221,508,392,0,0,0,5,4,1,54,0001-00-0000-82.png,0005-00-0000-17.png
14,93,1,1444060673240,1444060673626,324,360,0,0,0,3,4,1,34,0003-00-0004-88.png,0005-00-0002-72.png
14,94,0,1444060673658,1444060674147,896,367,0,0,0,1,2,1,12,0004-00-0005-93.png,0002-00-0004-85.png
14,95,1,1444060674172,1444060674611,298,370,0,0,0,2,3,1,23,0002-00-0008-88.png,0003-00-0006-98.png
14,96,1,1444060674635,1444060675227,925,430,0,0,0,4,3,1,43,0005-00-0003-46.png,0003-00-0007-29.png
14,97,1,1444060675252,1444060675898,955,399,0,0,0,3,2,1,32,0003-00-0004-55.png,0002-00-0008-02.png
14,98,0,1444060675930,1444060676459,946,314,0,0,0,4,3,1,43,0005-00-0008-91.png,0003-00-0005-77.png
14,99,1,1444060676480,1444060677029,922,420,0,0,0,5,4,1,54,0001-00-0005-31.png,0005-00-0009-70.png
14,100,1,1444060677049,1444060677431,338,371,0,0,0,3,4,1,34,0003-00-0007-76.png,0005-00-0002-82.png
14,101,1,1444060677467,1444060677878,257,404,0,0,0,2,3,1,23,0002-00-0008-17.png,0003-00-0001-10.png
14,102,0,1444060677900,1444060678739,291,375,0,0,0,5,4,1,54,0001-00-0001-10.png,0005-00-0008-37.png
14,103,1,1444060678764,1444060679200,902,423,0,0,0,2,1,1,21,0002-00-0005-75.png,0004-00-0000-85.png
14,104,0,1444060679245,1444060679515,946,415,0,0,0,1,2,1,12,0004-00-0001-57.png,0002-00-0000-35.png
14,105,1,1444060679554,1444060680013,940,319,0,0,0,2,1,1,21,0002-00-0005-90.png,0004-00-0008-93.png
14,106,1,1444060680040,1444060680430,952,429,0,0,0,4,3,1,43,0005-00-0001-79.png,0003-00-0004-62.png
14,107,0,1444060680467,1444060680973,930,401,0,0,0,3,4,1,34,0003-00-0008-98.png,0005-00-0001-96.png
14,108,0,1444060681001,1444060682059,314,364,0,0,0,1,2,1,12,0004-00-0009-29.png,0002-00-0008-85.png
14,109,0,1444060682094,1444060683263,327,379,0,0,0,5,4,1,54,0001-00-0001-54.png,0005-00-0004-71.png
14,110,0,1444060683300,1444060683522,957,422,0,0,0,3,2,1,32,0003-00-0001-69.png,0002-00-0001-84.png
14,111,0,1444060683540,1444060683894,273,371,0,0,0,2,3,1,23,0002-00-0008-26.png,0003-00-0003-59.png
14,112,0,1444060683919,1444060684406,222,410,0,0,0,5,4,1,54,0001-00-0002-62.png,0005-00-0008-74.png
14,113,1,1444060684431,1444060684960,899,457,0,0,0,3,4,1,34,0003-00-0002-80.png,0005-00-0008-49.png
14,114,1,1444060684983,1444060685327,899,431,0,0,0,1,2,1,12,0004-00-0002-11.png,0002-00-0000-43.png
14,115,0,1444060685358,1444060685748,936,347,0,0,0,5,4,1,54,0001-00-0009-92.png,0005-00-0003-37.png
14,116,1,1444060685772,1444060686343,358,367,0,0,0,2,3,1,23,0002-00-0005-86.png,0003-00-0009-04.png
14,117,1,1444060686378,1444060687063,319,384,0,0,0,5,4,1,54,0001-00-0005-50.png,0005-00-0004-32.png
14,118,0,1444060687089,1444060687536,327,349,0,0,0,2,1,1,21,0002-00-0003-79.png,0004-00-0002-62.png
14,119,1,1444060687567,1444060687962,377,514,0,0,0,3,2,1,32,0003-00-0007-58.png,0002-00-0002-73.png
14,120,1,1444060688002,1444060688450,914,423,0,0,0,4,3,1,43,0005-00-0001-25.png,0003-00-0006-70.png
14,121,1,1444060688479,1444060689224,903,336,0,0,0,5,4,1,54,0001-00-0004-95.png,0005-00-0009-14.png
14,122,1,1444060689256,1444060689745,350,358,0,0,0,2,3,1,23,0002-00-0006-16.png,0003-00-0003-68.png
14,123,0,1444060689772,1444060690390,899,385,0,0,0,3,2,1,32,0003-00-0002-25.png,0002-00-0002-65.png
14,124,0,1444060690411,1444060691997,325,358,0,0,0,5,4,1,54,0001-00-0001-05.png,0005-00-0008-23.png
14,125,1,1444060692026,1444060692540,298,397,0,0,0,3,4,1,34,0003-00-0000-12.png,0005-00-0002-51.png
14,126,0,1444060692568,1444060693253,915,425,0,0,0,1,2,1,12,0004-00-0008-00.png,0002-00-0007-75.png
14,127,0,1444060693287,1444060694677,878,468,0,0,0,4,3,1,43,0005-00-0008-79.png,0003-00-0001-85.png
14,128,1,1444060694710,1444060695122,317,361,0,0,0,2,1,1,21,0002-00-0004-17.png,0004-00-0003-47.png
14,129,1,1444060695153,1444060695446,919,399,0,0,0,2,3,1,23,0002-00-0000-47.png,0003-00-0003-77.png
14,130,0,1444060695478,1444060695947,222,425,0,0,0,3,4,1,34,0003-00-0009-07.png,0005-00-0001-59.png
14,131,0,1444060695978,1444060696187,494,438,0,0,0,5,4,1,54,0001-00-0008-34.png,0005-00-0009-91.png
14,132,1,1444060696218,1444060696595,925,423,0,0,0,2,1,1,21,0002-00-0006-49.png,0004-00-0001-30.png
14,133,1,1444060696624,1444060697026,914,428,0,0,0,1,2,1,12,0004-00-0005-75.png,0002-00-0009-09.png
14,134,1,1444060697044,1444060697223,504,384,0,0,0,3,2,1,32,0003-00-0001-74.png,0002-00-0007-16.png
14,135,0,1444060697246,1444060698007,350,306,0,0,0,5,4,1,54,0001-00-0000-46.png,0005-00-0004-08.png
14,136,1,1444060698037,1444060698776,900,449,0,0,0,4,3,1,43,0005-00-0008-79.png,0003-00-0008-23.png
14,137,1,1444060698805,1444060699314,266,375,0,0,0,5,4,1,54,0001-00-0007-30.png,0005-00-0008-00.png
14,138,1,1444060699358,1444060699722,335,364,0,0,0,3,2,1,32,0003-00-0003-77.png,0002-00-0002-49.png
14,139,1,1444060699755,1444060700346,929,427,0,0,0,3,4,1,34,0003-00-0002-46.png,0005-00-0003-90.png
14,140,1,1444060700370,1444060700869,926,319,0,0,0,5,4,1,54,0001-00-0002-32.png,0005-00-0005-88.png
14,141,0,1444060700911,1444060701546,314,338,0,0,0,2,1,1,21,0002-00-0003-29.png,0004-00-0003-31.png
14,142,1,1444060701573,1444060702467,925,343,0,0,0,2,3,1,23,0002-00-0001-33.png,0003-00-0000-28.png
14,143,0,1444060702492,1444060702819,395,479,0,0,0,1,2,1,12,0004-00-0002-20.png,0002-00-0003-87.png
14,144,1,1444060702858,1444060703357,922,445,0,0,0,4,3,1,43,0005-00-0008-85.png,0003-00-0009-13.png
14,145,0,1444060703391,1444060704224,341,395,0,0,0,2,1,1,21,0002-00-0004-46.png,0004-00-0009-32.png
14,146,0,1444060704250,1444060704707,347,387,0,0,0,5,4,1,54,0001-00-0003-46.png,0005-00-0003-75.png
14,147,1,1444060704725,1444060705542,387,481,0,0,0,4,3,1,43,0005-00-0009-77.png,0003-00-0003-11.png
14,148,1,1444060705575,1444060705956,878,351,0,0,0,3,2,1,32,0003-00-0000-55.png,0002-00-0003-52.png
14,149,1,1444060705979,1444060706595,390,502,0,0,0,2,3,1,23,0002-00-0008-77.png,0003-00-0000-86.png
14,150,0,1444060706632,1444060707019,242,340,0,0,0,3,4,1,34,0003-00-0008-89.png,0005-00-0007-52.png
14,151,0,1444060707049,1444060708854,374,488,0,0,0,5,4,1,54,0001-00-0001-99.png,0005-00-0002-64.png
14,152,1,1444060708902,1444060709130,516,370,0,0,0,1,2,1,12,0004-00-0001-36.png,0002-00-0004-80.png
14,153,1,1444060709155,1444060709540,901,398,0,0,0,2,3,1,23,0002-00-0002-16.png,0003-00-0008-38.png
14,154,1,1444060709575,1444060710063,926,346,0,0,0,1,2,1,12,0004-00-0004-26.png,0002-00-0007-47.png
14,155,1,1444060710096,1444060711033,387,482,0,0,0,3,4,1,34,0003-00-0007-97.png,0005-00-0008-92.png
14,156,1,1444060711052,1444060711892,934,434,0,0,0,5,4,1,54,0001-00-0001-19.png,0005-00-0001-58.png
14,157,0,1444060711922,1444060712303,925,385,0,0,0,3,2,1,32,0003-00-0008-88.png,0002-00-0007-75.png
14,158,1,1444060712335,1444060712466,928,443,0,0,0,5,4,1,54,0001-00-0006-68.png,0005-00-0003-44.png
14,159,0,1444060712495,1444060712927,874,344,0,0,0,2,1,1,21,0002-00-0009-65.png,0004-00-0009-79.png
14,160,0,1444060712950,1444060713555,309,387,0,0,0,4,3,1,43,0005-00-0001-69.png,0003-00-0007-66.png
14,161,0,1444060713578,1444060713841,363,476,0,0,0,2,3,1,23,0002-00-0002-42.png,0003-00-0004-98.png
14,162,1,1444060713869,1444060714090,882,359,0,0,0,5,4,1,54,0001-00-0002-95.png,0005-00-0006-79.png
14,163,0,1444060714132,1444060714608,938,319,0,0,0,4,3,1,43,0005-00-0009-99.png,0003-00-0005-24.png
14,164,0,1444060714643,1444060715010,349,460,0,0,0,1,2,1,12,0004-00-0005-91.png,0002-00-0008-25.png
14,165,0,1444060715057,1444060715431,268,374,0,0,0,5,4,1,54,0001-00-0007-56.png,0005-00-0000-76.png
14,166,1,1444060715455,1444060715998,902,469,0,0,0,3,4,1,34,0003-00-0005-02.png,0005-00-0009-18.png
14,167,0,1444060716023,1444060716480,876,268,0,0,0,2,1,1,21,0002-00-0008-15.png,0004-00-0004-73.png
14,168,0,1444060716509,1444060716998,342,465,0,0,0,3,2,1,32,0003-00-0009-67.png,0002-00-0008-82.png
14,169,1,1444060717033,1444060717318,326,365,0,0,0,3,2,1,32,0003-00-0008-57.png,0002-00-0009-13.png
14,170,0,1444060717353,1444060717586,292,390,0,0,0,5,4,1,54,0001-00-0004-04.png,0005-00-0003-81.png
14,171,1,1444060717608,1444060718491,938,450,0,0,0,2,3,1,23,0002-00-0006-50.png,0003-00-0005-65.png
14,172,0,1444060718526,1444060718836,940,449,0,0,0,3,4,1,34,0003-00-0006-97.png,0005-00-0001-69.png
14,173,0,1444060718856,1444060719365,325,344,0,0,0,1,2,1,12,0004-00-0006-58.png,0002-00-0008-16.png
14,174,0,1444060719386,1444060719773,939,448,0,0,0,4,3,1,43,0005-00-0005-74.png,0003-00-0004-69.png
14,175,1,1444060719811,1444060720099,925,359,0,0,0,2,1,1,21,0002-00-0000-11.png,0004-00-0004-30.png
14,176,1,1444060720132,1444060720412,324,372,0,0,0,5,4,1,54,0001-00-0001-37.png,0005-00-0001-39.png
14,177,1,1444060720438,1444060720850,324,397,0,0,0,5,4,1,54,0001-00-0007-61.png,0005-00-0005-59.png
14,178,0,1444060720876,1444060721265,958,421,0,0,0,3,2,1,32,0003-00-0005-53.png,0002-00-0001-31.png
14,179,0,1444060721295,1444060721906,932,369,0,0,0,4,3,1,43,0005-00-0006-29.png,0003-00-0006-79.png
14,180,0,1444060721934,1444060722274,892,457,0,0,0,2,3,1,23,0002-00-0009-80.png,0003-00-0009-35.png
14,181,1,1444060722309,1444060722867,299,319,0,0,0,5,4,1,54,0001-00-0004-82.png,0005-00-0008-33.png
14,182,0,1444060722898,1444060723654,913,364,0,0,0,2,1,1,21,0002-00-0005-77.png,0004-00-0006-84.png
14,183,1,1444060723691,1444060724965,299,384,0,0,0,3,4,1,34,0003-00-0004-17.png,0005-00-0002-61.png
14,184,1,1444060724982,1444060725794,925,346,0,0,0,1,2,1,12,0004-00-0003-38.png,0002-00-0003-42.png
14,185,0,1444060725826,1444060726127,382,478,0,0,0,5,4,1,54,0001-00-0003-97.png,0005-00-0009-95.png
14,186,1,1444060726152,1444060726678,908,448,0,0,0,4,3,1,43,0005-00-0000-89.png,0003-00-0001-96.png
14,187,0,1444060726701,1444060728320,857,473,0,0,0,5,4,1,54,0001-00-0006-00.png,0005-00-0009-91.png
14,188,1,1444060728353,1444060728960,278,373,0,0,0,2,3,1,23,0002-00-0005-90.png,0003-00-0004-07.png
14,189,0,1444060728996,1444060729421,927,462,0,0,0,2,1,1,21,0002-00-0006-37.png,0004-00-0000-37.png
14,190,0,1444060729446,1444060729815,318,352,0,0,0,3,2,1,32,0003-00-0005-87.png,0002-00-0002-90.png
14,191,1,1444060729840,1444060731067,900,437,0,0,0,3,4,1,34,0003-00-0001-19.png,0005-00-0000-27.png
14,192,0,1444060731097,1444060731516,932,448,0,0,0,1,2,1,12,0004-00-0000-77.png,0002-00-0005-40.png
14,193,0,1444060731541,1444060731886,933,474,0,0,0,3,2,1,32,0003-00-0007-58.png,0002-00-0003-14.png
14,194,0,1444060731909,1444060732559,367,443,0,0,0,2,3,1,23,0002-00-0002-03.png,0003-00-0009-36.png
14,195,1,1444060732609,1444060732876,376,384,0,0,0,4,3,1,43,0005-00-0003-80.png,0003-00-0007-51.png
14,196,1,1444060732913,1444060733106,389,502,0,0,0,3,4,1,34,0003-00-0006-90.png,0005-00-0004-88.png
14,197,1,1444060733154,1444060733382,911,346,0,0,0,1,2,1,12,0004-00-0000-51.png,0002-00-0005-98.png
14,198,0,1444060733415,1444060733936,401,423,0,0,0,2,1,1,21,0002-00-0001-96.png,0004-00-0007-08.png
14,199,1,1444060733971,1444060734390,492,410,0,0,0,5,4,1,54,0001-00-0007-43.png,0005-00-0004-61.png
14,200,1,1444060734404,1444060734837,961,421,0,0,0,5,4,1,54,0001-00-0007-13.png,0005-00-0006-31.png
14,201,0,1444060734864,1444060735976,952,372,0,0,0,2,3,1,23,0002-00-0000-48.png,0003-00-0002-79.png
14,202,1,1444060735999,1444060736495,293,373,0,0,0,1,2,1,12,0004-00-0006-03.png,0002-00-0008-47.png
14,203,1,1444060736521,1444060737035,317,358,0,0,0,3,2,1,32,0003-00-0009-09.png,0002-00-0004-50.png
14,204,0,1444060737075,1444060737427,929,455,0,0,0,5,4,1,54,0001-00-0004-83.png,0005-00-0007-84.png
14,205,0,1444060737450,1444060737959,924,462,0,0,0,3,4,1,34,0003-00-0009-68.png,0005-00-0001-43.png
14,206,0,1444060737989,1444060738915,951,333,0,0,0,2,1,1,21,0002-00-0002-05.png,0004-00-0002-71.png
14,207,0,1444060738937,1444060739995,951,463,0,0,0,5,4,1,54,0001-00-0008-24.png,0005-00-0008-55.png
14,208,0,1444060740015,1444060740231,911,450,0,0,0,4,3,1,43,0005-00-0007-31.png,0003-00-0002-08.png
14,209,1,1444060740261,1444060740537,340,370,0,0,0,3,4,1,34,0003-00-0006-17.png,0005-00-0000-34.png
14,210,0,1444060740573,1444060740815,353,381,0,0,0,2,1,1,21,0002-00-0001-80.png,0004-00-0008-30.png
14,211,1,1444060740851,1444060741324,951,410,0,0,0,5,4,1,54,0001-00-0003-25.png,0005-00-0007-69.png
14,212,1,1444060741343,1444060741630,323,394,0,0,0,3,2,1,32,0003-00-0000-09.png,0002-00-0000-05.png
14,213,1,1444060741651,1444060742386,926,385,0,0,0,4,3,1,43,0005-00-0003-91.png,0003-00-0004-60.png
14,214,0,1444060742418,1444060743416,313,364,0,0,0,2,3,1,23,0002-00-0000-69.png,0003-00-0000-00.png
14,215,0,1444060743439,1444060743716,924,455,0,0,0,5,4,1,54,0001-00-0005-98.png,0005-00-0008-67.png
14,216,1,1444060743758,1444060743918,298,391,0,0,0,1,2,1,12,0004-00-0006-63.png,0002-00-0009-99.png
14,217,1,1444060743957,1444060745152,390,476,0,0,0,2,1,1,21,0002-00-0009-77.png,0004-00-0005-82.png
14,218,1,1444060745170,1444060745647,362,411,0,0,0,1,2,1,12,0004-00-0002-40.png,0002-00-0007-44.png
14,219,1,1444060745691,1444060746228,921,419,0,0,0,4,3,1,43,0005-00-0004-38.png,0003-00-0008-37.png
14,220,0,1444060746269,1444060747452,952,450,0,0,0,5,4,1,54,0001-00-0008-98.png,0005-00-0006-71.png
14,221,0,1444060747493,1444060748820,350,358,0,0,0,3,2,1,32,0003-00-0001-45.png,0002-00-0007-99.png
14,222,1,1444060748847,1444060749788,325,384,0,0,0,5,4,1,54,0001-00-0005-20.png,0005-00-0008-23.png
14,223,0,1444060749820,1444060750639,294,389,0,0,0,3,4,1,34,0003-00-0003-49.png,0005-00-0009-55.png
14,224,1,1444060750665,1444060751087,921,472,0,0,0,2,3,1,23,0002-00-0009-21.png,0003-00-0005-32.png
14,225,0,1444060751107,1444060751488,924,456,0,0,0,1,2,1,12,0004-00-0007-38.png,0002-00-0001-87.png
14,226,0,1444060751517,1444060751926,336,394,0,0,0,3,2,1,32,0003-00-0007-32.png,0002-00-0008-22.png
14,227,1,1444060751955,1444060753187,900,488,0,0,0,5,4,1,54,0001-00-0004-52.png,0005-00-0008-35.png
14,228,1,1444060753228,1444060754381,293,353,0,0,0,4,3,1,43,0005-00-0009-69.png,0003-00-0004-29.png
14,229,0,1444060754409,1444060754973,901,460,0,0,0,2,1,1,21,0002-00-0009-97.png,0004-00-0002-36.png
14,230,0,1444060754996,1444060755570,329,375,0,0,0,3,4,1,34,0003-00-0001-41.png,0005-00-0006-55.png
14,231,1,1444060755605,1444060756240,325,358,0,0,0,2,3,1,23,0002-00-0002-14.png,0003-00-0009-10.png
14,232,1,1444060756267,1444060757180,879,427,0,0,0,5,4,1,54,0001-00-0006-13.png,0005-00-0000-99.png
14,233,1,1444060757206,1444060757668,925,464,0,0,0,5,4,1,54,0001-00-0003-32.png,0005-00-0009-20.png
14,234,0,1444060757702,1444060758077,296,357,0,0,0,2,1,1,21,0002-00-0006-14.png,0004-00-0004-35.png
14,235,1,1444060758106,1444060758664,366,468,0,0,0,1,2,1,12,0004-00-0005-68.png,0002-00-0009-04.png
14,236,0,1444060758693,1444060759456,900,475,0,0,0,3,4,1,34,0003-00-0008-46.png,0005-00-0002-38.png
14,237,1,1444060759494,1444060759791,919,456,0,0,0,5,4,1,54,0001-00-0005-27.png,0005-00-0002-61.png
14,238,1,1444060759823,1444060760277,355,484,0,0,0,3,2,1,32,0003-00-0006-27.png,0002-00-0009-48.png
14,239,1,1444060760307,1444060760836,899,370,0,0,0,4,3,1,43,0005-00-0003-17.png,0003-00-0003-90.png
14,240,1,1444060760874,1444060761273,925,345,0,0,0,2,3,1,23,0002-00-0008-49.png,0003-00-0002-68.png
14,241,1,1444060761300,1444060761675,384,493,0,0,0,5,4,1,54,0001-00-0001-39.png,0005-00-0001-34.png
14,242,0,1444060761695,1444060762258,376,396,0,0,0,1,2,1,12,0004-00-0002-61.png,0002-00-0001-63.png
14,243,1,1444060762282,1444060763660,299,410,0,0,0,5,4,1,54,0001-00-0006-28.png,0005-00-0007-03.png
14,244,0,1444060763706,1444060764123,927,468,0,0,0,4,3,1,43,0005-00-0004-07.png,0003-00-0003-35.png
14,245,1,1444060764145,1444060765804,356,364,0,0,0,3,4,1,34,0003-00-0000-66.png,0005-00-0001-43.png
14,246,1,1444060765834,1444060766233,926,385,0,0,0,2,1,1,21,0002-00-0000-27.png,0004-00-0001-27.png
14,247,1,1444060766255,1444060766706,311,385,0,0,0,3,2,1,32,0003-00-0009-52.png,0002-00-0004-86.png
14,248,0,1444060766741,1444060767070,892,458,0,0,0,2,3,1,23,0002-00-0008-89.png,0003-00-0006-64.png
14,249,1,1444060767099,1444060767387,885,510,0,0,0,3,2,1,32,0003-00-0001-94.png,0002-00-0003-75.png
14,250,1,1444060767417,1444060767888,350,358,0,0,0,3,4,1,34,0003-00-0000-07.png,0005-00-0000-72.png
14,251,1,1444060767925,1444060768121,911,372,0,0,0,1,2,1,12,0004-00-0006-85.png,0002-00-0005-37.png
14,252,1,1444060768166,1444060768707,315,416,0,0,0,2,1,1,21,0002-00-0004-11.png,0004-00-0000-08.png
14,253,1,1444060768729,1444060769384,376,487,0,0,0,5,4,1,54,0001-00-0003-76.png,0005-00-0009-02.png
14,254,1,1444060769410,1444060769759,895,397,0,0,0,5,4,1,54,0001-00-0006-06.png,0005-00-0005-14.png
14,255,1,1444060769778,1444060770221,895,393,0,0,0,2,3,1,23,0002-00-0001-96.png,0003-00-0003-82.png
14,256,1,1444060770246,1444060770732,902,467,0,0,0,4,3,1,43,0005-00-0006-20.png,0003-00-0005-33.png
14,257,0,1444060770781,1444060771052,899,397,0,0,0,5,4,1,54,0001-00-0009-40.png,0005-00-0005-88.png
14,258,0,1444060771078,1444060771558,340,419,0,0,0,2,1,1,21,0002-00-0007-64.png,0004-00-0001-35.png
14,259,1,1444060771584,1444060772194,339,476,0,0,0,1,2,1,12,0004-00-0006-72.png,0002-00-0009-03.png
14,260,0,1444060772218,1444060772384,334,383,0,0,0,3,4,1,34,0003-00-0000-70.png,0005-00-0007-22.png
14,261,1,1444060772421,1444060773040,893,482,0,0,0,2,3,1,23,0002-00-0005-75.png,0003-00-0003-55.png
14,262,1,1444060773074,1444060773656,902,362,0,0,0,5,4,1,54,0001-00-0002-59.png,0005-00-0004-17.png
14,263,0,1444060773684,1444060774406,361,416,0,0,0,4,3,1,43,0005-00-0008-38.png,0003-00-0000-51.png
14,264,0,1444060774448,1444060775597,873,327,0,0,0,3,2,1,32,0003-00-0000-83.png,0002-00-0006-33.png
14,265,0,1444060775630,1444060776290,343,386,0,0,0,3,4,1,34,0003-00-0008-26.png,0005-00-0000-37.png
14,266,0,1444060776336,1444060778327,322,379,0,0,0,1,2,1,12,0004-00-0002-49.png,0002-00-0002-15.png
14,267,0,1444060778364,1444060778560,921,392,0,0,0,5,4,1,54,0001-00-0008-34.png,0005-00-0003-27.png
14,268,0,1444060778586,1444060778984,925,462,0,0,0,3,2,1,32,0003-00-0007-46.png,0002-00-0002-13.png
14,269,1,1444060779007,1444060779222,927,339,0,0,0,4,3,1,43,0005-00-0007-66.png,0003-00-0004-32.png
14,270,1,1444060779249,1444060779583,887,482,0,0,0,2,3,1,23,0002-00-0004-67.png,0003-00-0006-49.png
14,271,1,1444060779617,1444060779911,321,365,0,0,0,2,1,1,21,0002-00-0005-39.png,0004-00-0008-17.png
14,272,0,1444060779943,1444060780224,193,450,0,0,0,5,4,1,54,0001-00-0006-65.png,0005-00-0009-18.png
14,273,0,1444060780261,1444060780969,901,383,0,0,0,2,3,1,23,0002-00-0005-65.png,0003-00-0009-55.png
14,274,0,1444060780997,1444060782223,273,371,0,0,0,5,4,1,54,0001-00-0006-24.png,0005-00-0009-57.png
14,275,1,1444060782256,1444060782599,913,476,0,0,0,2,1,1,21,0002-00-0003-63.png,0004-00-0005-73.png
14,276,1,1444060782633,1444060782899,208,447,0,0,0,5,4,1,54,0001-00-0004-45.png,0005-00-0002-90.png
14,277,0,1444060782951,1444060783193,317,361,0,0,0,1,2,1,12,0004-00-0008-99.png,0002-00-0000-79.png
14,278,0,1444060783229,1444060784124,951,372,0,0,0,4,3,1,43,0005-00-0002-86.png,0003-00-0001-18.png
14,279,1,1444060784151,1444060784256,356,399,0,0,0,3,2,1,32,0003-00-0000-13.png,0002-00-0007-00.png
14,280,1,1444060784278,1444060784491,922,393,0,0,0,3,4,1,34,0003-00-0000-10.png,0005-00-0007-05.png
14,281,0,1444060784527,1444060784850,930,375,0,0,0,3,2,1,32,0003-00-0005-87.png,0002-00-0000-98.png
14,282,0,1444060784874,1444060785697,412,507,0,0,0,3,4,1,34,0003-00-0002-06.png,0005-00-0001-90.png
14,283,0,1444060785739,1444060786195,918,418,0,0,0,1,2,1,12,0004-00-0002-78.png,0002-00-0001-05.png
14,284,1,1444060786219,1444060786755,926,436,0,0,0,5,4,1,54,0001-00-0001-28.png,0005-00-0003-79.png
14,285,0,1444060786786,1444060787325,913,469,0,0,0,5,4,1,54,0001-00-0009-89.png,0005-00-0000-13.png
14,286,0,1444060787348,1444060788546,936,446,0,0,0,2,3,1,23,0002-00-0007-66.png,0003-00-0009-18.png
14,287,0,1444060788579,1444060789076,299,411,0,0,0,4,3,1,43,0005-00-0005-50.png,0003-00-0005-60.png
14,288,0,1444060789105,1444060789871,886,472,0,0,0,2,1,1,21,0002-00-0002-16.png,0004-00-0008-52.png
14,289,0,1444060789895,1444060790498,943,379,0,0,0,3,2,1,32,0003-00-0004-72.png,0002-00-0001-22.png
14,290,0,1444060790519,1444060791086,324,404,0,0,0,2,3,1,23,0002-00-0002-64.png,0003-00-0002-90.png
14,291,0,1444060791119,1444060791491,299,397,0,0,0,5,4,1,54,0001-00-0009-17.png,0005-00-0001-75.png
14,292,1,1444060791512,1444060791680,376,365,0,0,0,3,4,1,34,0003-00-0004-70.png,0005-00-0001-99.png
14,293,1,1444060791714,1444060792003,912,372,0,0,0,4,3,1,43,0005-00-0005-15.png,0003-00-0001-15.png
14,294,0,1444060792058,1444060792411,344,423,0,0,0,5,4,1,54,0001-00-0008-54.png,0005-00-0003-30.png
14,295,0,1444060792441,1444060792672,935,448,0,0,0,2,1,1,21,0002-00-0001-83.png,0004-00-0001-13.png
14,296,1,1444060792699,1444060793537,324,397,0,0,0,1,2,1,12,0004-00-0002-25.png,0002-00-0008-12.png
14,297,1,1444060793576,1444060794555,273,397,0,0,0,5,4,1,54,0001-00-0005-57.png,0005-00-0007-88.png
14,298,1,1444060794587,1444060794891,874,345,0,0,0,1,2,1,12,0004-00-0007-75.png,0002-00-0009-03.png
14,299,0,1444060794912,1444060795957,900,411,0,0,0,4,3,1,43,0005-00-0002-53.png,0003-00-0008-58.png
14,300,1,1444060795981,1444060796343,353,398,0,0,0,3,2,1,32,0003-00-0001-34.png,0002-00-0000-20.png
14,301,0,1444060796385,1444060796670,299,371,0,0,0,2,3,1,23,0002-00-0005-14.png,0003-00-0008-22.png
14,302,1,1444060796703,1444060797646,322,397,0,0,0,5,4,1,54,0001-00-0001-43.png,0005-00-0008-84.png
14,303,1,1444060797679,1444060798739,920,458,0,0,0,3,4,1,34,0003-00-0001-27.png,0005-00-0003-97.png
14,304,1,1444060798760,1444060799425,303,410,0,0,0,2,1,1,21,0002-00-0006-02.png,0004-00-0007-42.png
14,305,0,1444060799474,1444060799745,956,448,0,0,0,5,4,1,54,0001-00-0009-01.png,0005-00-0003-46.png
14,306,0,1444060799770,1444060801169,350,345,0,0,0,5,4,1,54,0001-00-0005-94.png,0005-00-0007-19.png
14,307,1,1444060801198,1444060801583,922,375,0,0,0,1,2,1,12,0004-00-0007-15.png,0002-00-0007-88.png
14,308,1,1444060801612,1444060802152,898,483,0,0,0,4,3,1,43,0005-00-0001-82.png,0003-00-0003-24.png
14,309,1,1444060802171,1444060802408,898,486,0,0,0,3,4,1,34,0003-00-0002-55.png,0005-00-0003-78.png
14,310,0,1444060802436,1444060803110,298,352,0,0,0,3,2,1,32,0003-00-0006-39.png,0002-00-0006-78.png
14,311,1,1444060803129,1444060804101,312,393,0,0,0,2,3,1,23,0002-00-0005-71.png,0003-00-0006-68.png
14,312,0,1444060804136,1444060804466,874,371,0,0,0,2,1,1,21,0002-00-0004-09.png,0004-00-0005-78.png
14,313,0,1444060804499,1444060805007,900,462,0,0,0,2,3,1,23,0002-00-0002-41.png,0003-00-0000-76.png
14,314,1,1444060805028,1444060805486,900,463,0,0,0,4,3,1,43,0005-00-0005-71.png,0003-00-0007-34.png
14,315,1,1444060805523,1444060806101,393,388,0,0,0,5,4,1,54,0001-00-0005-12.png,0005-00-0008-01.png
14,316,0,1444060806126,1444060806363,902,494,0,0,0,3,4,1,34,0003-00-0008-73.png,0005-00-0000-44.png
14,317,1,1444060806383,1444060806839,521,399,0,0,0,5,4,1,54,0001-00-0009-95.png,0005-00-0008-82.png
14,318,0,1444060806872,1444060807088,926,462,0,0,0,1,2,1,12,0004-00-0000-22.png,0002-00-0005-66.png
14,319,0,1444060807116,1444060807384,862,454,0,0,0,2,1,1,21,0002-00-0009-66.png,0004-00-0001-15.png
14,320,1,1444060807411,1444060807746,519,358,0,0,0,3,2,1,32,0003-00-0004-80.png,0002-00-0000-71.png
14,321,0,1444060807778,1444060808119,341,468,0,0,0,5,4,1,54,0001-00-0006-59.png,0005-00-0005-36.png
14,322,1,1444060808141,1444060808575,427,358,0,0,0,4,3,1,43,0005-00-0009-19.png,0003-00-0007-32.png
14,323,0,1444060808604,1444060809307,293,416,0,0,0,5,4,1,54,0001-00-0008-23.png,0005-00-0000-32.png
14,324,1,1444060809335,1444060809671,901,423,0,0,0,2,1,1,21,0002-00-0008-33.png,0004-00-0001-27.png
14,325,0,1444060809711,1444060810345,937,372,0,0,0,3,4,1,34,0003-00-0004-02.png,0005-00-0004-03.png
14,326,0,1444060810372,1444060811258,901,397,0,0,0,1,2,1,12,0004-00-0005-43.png,0002-00-0005-60.png
14,327,1,1444060811290,1444060811575,912,372,0,0,0,3,2,1,32,0003-00-0001-27.png,0002-00-0005-35.png
14,328,1,1444060811606,1444060811762,897,368,0,0,0,2,3,1,23,0002-00-0002-01.png,0003-00-0008-85.png
14,329,0,1444060811793,1444060812646,900,449,0,0,0,3,2,1,32,0003-00-0003-10.png,0002-00-0006-25.png
14,330,1,1444060812677,1444060813029,906,343,0,0,0,4,3,1,43,0005-00-0000-35.png,0003-00-0009-28.png
14,331,0,1444060813060,1444060814396,374,488,0,0,0,5,4,1,54,0001-00-0006-81.png,0005-00-0008-96.png
14,332,0,1444060814419,1444060815009,329,402,0,0,0,3,4,1,34,0003-00-0003-11.png,0005-00-0007-35.png
14,333,1,1444060815035,1444060815593,901,423,0,0,0,2,1,1,21,0002-00-0008-93.png,0004-00-0009-90.png
14,334,1,1444060815637,1444060815869,926,502,0,0,0,5,4,1,54,0001-00-0003-21.png,0005-00-0003-10.png
14,335,0,1444060815895,1444060816334,929,402,0,0,0,1,2,1,12,0004-00-0006-74.png,0002-00-0006-96.png
14,336,0,1444060816365,1444060817492,362,488,0,0,0,2,3,1,23,0002-00-0008-38.png,0003-00-0001-69.png
14,337,1,1444060817505,1444060818410,478,436,0,0,0,5,4,1,54,0001-00-0004-65.png,0005-00-0005-76.png
14,338,0,1444060818439,1444060819126,926,371,0,0,0,1,2,1,12,0004-00-0007-35.png,0002-00-0004-96.png
14,339,1,1444060819149,1444060819361,944,450,0,0,0,4,3,1,43,0005-00-0008-14.png,0003-00-0009-82.png
14,340,1,1444060819389,1444060820884,311,391,0,0,0,2,1,1,21,0002-00-0001-44.png,0004-00-0004-06.png
14,341,1,1444060820917,1444060821616,307,395,0,0,0,2,3,1,23,0002-00-0008-43.png,0003-00-0006-62.png
14,342,1,1444060821658,1444060821872,907,463,0,0,0,3,2,1,32,0003-00-0000-57.png,0002-00-0006-03.png
14,343,0,1444060821924,1444060822383,369,478,0,0,0,3,4,1,34,0003-00-0003-90.png,0005-00-0001-86.png
14,344,1,1444060822409,1444060822736,923,472,0,0,0,5,4,1,54,0001-00-0006-22.png,0005-00-0000-46.png
14,345,1,1444060822771,1444060823499,323,398,0,0,0,1,2,1,12,0004-00-0005-84.png,0002-00-0000-90.png
14,346,1,1444060823517,1444060824040,907,345,0,0,0,2,3,1,23,0002-00-0005-65.png,0003-00-0008-68.png
14,347,1,1444060824061,1444060824371,294,395,0,0,0,4,3,1,43,0005-00-0005-08.png,0003-00-0005-98.png
14,348,1,1444060824394,1444060824571,398,467,0,0,0,2,1,1,21,0002-00-0007-01.png,0004-00-0007-23.png
14,349,1,1444060824604,1444060824920,899,457,0,0,0,3,4,1,34,0003-00-0007-97.png,0005-00-0000-12.png
14,350,0,1444060824950,1444060825218,901,391,0,0,0,3,2,1,32,0003-00-0006-75.png,0002-00-0002-70.png
14,351,1,1444060825245,1444060825811,913,372,0,0,0,5,4,1,54,0001-00-0003-48.png,0005-00-0006-88.png
14,352,1,1444060825831,1444060827204,446,453,0,0,0,5,4,1,54,0001-00-0007-36.png,0005-00-0004-60.png
14,353,1,1444060827232,1444060828012,178,480,0,0,0,2,3,1,23,0002-00-0008-37.png,0003-00-0006-86.png
14,354,0,1444060828033,1444060828653,299,397,0,0,0,2,1,1,21,0002-00-0002-43.png,0004-00-0002-13.png
14,355,1,1444060828701,1444060829124,878,376,0,0,0,3,4,1,34,0003-00-0001-16.png,0005-00-0001-91.png
14,356,1,1444060829145,1444060829442,325,383,0,0,0,4,3,1,43,0005-00-0007-76.png,0003-00-0009-52.png
14,357,1,1444060829473,1444060829662,904,402,0,0,0,1,2,1,12,0004-00-0006-34.png,0002-00-0006-28.png
14,358,1,1444060829688,1444060830076,911,399,0,0,0,5,4,1,54,0001-00-0000-04.png,0005-00-0006-32.png
14,359,1,1444060830114,1444060830552,392,494,0,0,0,3,2,1,32,0003-00-0002-65.png,0002-00-0008-06.png
14,360,0,1444060830595,1444060831288,925,475,0,0,0,5,4,1,54,0001-00-0005-37.png,0005-00-0001-36.png
14,361,0,1444060831324,1444060831478,369,419,0,0,0,5,4,1,54,0001-00-0005-04.png,0005-00-0009-90.png
14,362,0,1444060831505,1444060831962,927,410,0,0,0,3,2,1,32,0003-00-0006-22.png,0002-00-0008-61.png
14,363,1,1444060831990,1444060832514,924,457,0,0,0,2,1,1,21,0002-00-0006-48.png,0004-00-0002-21.png
14,364,0,1444060832532,1444060832839,907,474,0,0,0,3,4,1,34,0003-00-0000-02.png,0005-00-0002-81.png
14,365,0,1444060832865,1444060833144,320,400,0,0,0,5,4,1,54,0001-00-0003-70.png,0005-00-0004-52.png
14,366,1,1444060833165,1444060833436,876,462,0,0,0,2,3,1,23,0002-00-0008-14.png,0003-00-0004-90.png
14,367,0,1444060833461,1444060833697,210,464,0,0,0,1,2,1,12,0004-00-0009-33.png,0002-00-0008-42.png
14,368,0,1444060833719,1444060834011,416,528,0,0,0,4,3,1,43,0005-00-0004-82.png,0003-00-0008-01.png
14,369,0,1444060834042,1444060834496,393,482,0,0,0,2,3,1,23,0002-00-0008-04.png,0003-00-0003-17.png
14,370,1,1444060834538,1444060834946,350,397,0,0,0,2,1,1,21,0002-00-0006-24.png,0004-00-0002-82.png
14,371,0,1444060834967,1444060835761,334,398,0,0,0,5,4,1,54,0001-00-0000-86.png,0005-00-0007-16.png
14,372,0,1444060835812,1444060836159,376,332,0,0,0,4,3,1,43,0005-00-0007-52.png,0003-00-0000-79.png
14,373,0,1444060836194,1444060836564,907,395,0,0,0,1,2,1,12,0004-00-0006-82.png,0002-00-0009-15.png
14,374,1,1444060836602,1444060837086,356,425,0,0,0,3,4,1,34,0003-00-0000-71.png,0005-00-0005-50.png
14,375,0,1444060837111,1444060837302,435,424,0,0,0,5,4,1,54,0001-00-0003-33.png,0005-00-0004-18.png
14,376,1,1444060837330,1444060837948,320,432,0,0,0,3,2,1,32,0003-00-0007-67.png,0002-00-0007-32.png
14,377,1,1444060837967,1444060838419,332,359,0,0,0,1,2,1,12,0004-00-0007-20.png,0002-00-0009-60.png
14,378,1,1444060838441,1444060839143,887,469,0,0,0,5,4,1,54,0001-00-0000-46.png,0005-00-0007-42.png
14,379,0,1444060839178,1444060840493,872,456,0,0,0,4,3,1,43,0005-00-0004-52.png,0003-00-0006-30.png
14,380,0,1444060840521,1444060841149,317,354,0,0,0,5,4,1,54,0001-00-0002-38.png,0005-00-0008-50.png
14,381,0,1444060841171,1444060841551,376,424,0,0,0,2,3,1,23,0002-00-0000-76.png,0003-00-0006-31.png
14,382,0,1444060841587,1444060842639,293,404,0,0,0,2,1,1,21,0002-00-0000-87.png,0004-00-0006-91.png
14,383,0,1444060842675,1444060843174,901,501,0,0,0,3,2,1,32,0003-00-0009-36.png,0002-00-0002-84.png
14,384,1,1444060843197,1444060843504,325,344,0,0,0,3,4,1,34,0003-00-0003-62.png,0005-00-0005-51.png
14,385,0,1444060843533,1444060844588,473,396,0,0,0,5,4,1,54,0001-00-0007-71.png,0005-00-0005-34.png
14,386,1,1444060844608,1444060845070,912,346,0,0,0,5,4,1,54,0001-00-0004-70.png,0005-00-0002-12.png
14,387,0,1444060845093,1444060845879,389,502,0,0,0,2,1,1,21,0002-00-0006-32.png,0004-00-0005-84.png
14,388,0,1444060845905,1444060846469,879,479,0,0,0,3,2,1,32,0003-00-0008-92.png,0002-00-0008-69.png
14,389,1,1444060846497,1444060846836,952,382,0,0,0,4,3,1,43,0005-00-0002-35.png,0003-00-0004-62.png
14,390,1,1444060846869,1444060847613,932,447,0,0,0,1,2,1,12,0004-00-0003-71.png,0002-00-0001-88.png
14,391,0,1444060847631,1444060848323,304,349,0,0,0,2,3,1,23,0002-00-0004-81.png,0003-00-0008-70.png
14,392,1,1444060848348,1444060848868,924,483,0,0,0,3,4,1,34,0003-00-0009-43.png,0005-00-0004-83.png
14,393,0,1444060848894,1444060849395,912,398,0,0,0,3,2,1,32,0003-00-0003-54.png,0002-00-0007-73.png
14,394,0,1444060849426,1444060850792,926,371,0,0,0,5,4,1,54,0001-00-0006-28.png,0005-00-0000-22.png
14,395,1,1444060850824,1444060851383,350,384,0,0,0,4,3,1,43,0005-00-0000-58.png,0003-00-0007-98.png
14,396,1,1444060851408,1444060851608,342,413,0,0,0,2,1,1,21,0002-00-0005-03.png,0004-00-0009-96.png
14,397,1,1444060851631,1444060852324,932,474,0,0,0,1,2,1,12,0004-00-0006-54.png,0002-00-0005-52.png
14,398,1,1444060852349,1444060852560,414,476,0,0,0,5,4,1,54,0001-00-0004-24.png,0005-00-0001-53.png
14,399,0,1444060852584,1444060853406,287,380,0,0,0,3,4,1,34,0003-00-0005-86.png,0005-00-0005-90.png
14,400,1,1444060853438,1444060853629,345,347,0,0,0,2,3,1,23,0002-00-0000-13.png,0003-00-0009-27.png
14,401,0,1444060853669,1444060853866,900,410,0,0,0,3,4,1,34,0003-00-0007-55.png,0005-00-0001-64.png
14,402,0,1444060853903,1444060854163,924,456,0,0,0,4,3,1,43,0005-00-0003-23.png,0003-00-0006-20.png
14,403,0,1444060854200,1444060854650,376,384,0,0,0,3,2,1,32,0003-00-0008-00.png,0002-00-0008-98.png
14,404,0,1444060854681,1444060855339,510,394,0,0,0,2,3,1,23,0002-00-0008-07.png,0003-00-0006-32.png
14,405,1,1444060855361,1444060855868,376,332,0,0,0,5,4,1,54,0001-00-0004-63.png,0005-00-0008-42.png
14,406,0,1444060855902,1444060856292,291,366,0,0,0,1,2,1,12,0004-00-0004-75.png,0002-00-0009-52.png
14,407,1,1444060856335,1444060857075,342,365,0,0,0,2,1,1,21,0002-00-0003-49.png,0004-00-0002-51.png
14,408,1,1444060857101,1444060857926,300,398,0,0,0,5,4,1,54,0001-00-0004-76.png,0005-00-0008-96.png
14,409,1,1444060857945,1444060858835,929,375,0,0,0,5,4,1,54,0001-00-0008-47.png,0005-00-0000-82.png
14,410,1,1444060858864,1444060859327,376,384,0,0,0,2,1,1,21,0002-00-0003-94.png,0004-00-0007-26.png
14,411,1,1444060859359,1444060859979,925,386,0,0,0,3,2,1,32,0003-00-0007-21.png,0002-00-0006-96.png
14,412,1,1444060860020,1444060860438,902,388,0,0,0,1,2,1,12,0004-00-0006-32.png,0002-00-0004-13.png
14,413,0,1444060860471,1444060860891,323,397,0,0,0,3,4,1,34,0003-00-0005-22.png,0005-00-0001-72.png
14,414,0,1444060860932,1444060861486,350,358,0,0,0,2,3,1,23,0002-00-0008-93.png,0003-00-0002-71.png
14,415,1,1444060861515,1444060861683,365,393,0,0,0,4,3,1,43,0005-00-0008-03.png,0003-00-0009-71.png
14,416,0,1444060861719,1444060862173,901,410,0,0,0,5,4,1,54,0001-00-0002-11.png,0005-00-0007-97.png
14,417,0,1444060862208,1444060862485,335,413,0,0,0,5,4,1,54,0001-00-0000-65.png,0005-00-0005-42.png
14,418,0,1444060862519,1444060862970,951,385,0,0,0,2,1,1,21,0002-00-0009-00.png,0004-00-0006-20.png
14,419,1,1444060863003,1444060863357,901,501,0,0,0,5,4,1,54,0001-00-0005-84.png,0005-00-0003-45.png
14,420,1,1444060863409,1444060863711,341,394,0,0,0,3,4,1,34,0003-00-0008-71.png,0005-00-0000-76.png
14,421,0,1444060863736,1444060864067,875,398,0,0,0,3,2,1,32,0003-00-0007-28.png,0002-00-0002-77.png
14,422,0,1444060864104,1444060865209,314,388,0,0,0,1,2,1,12,0004-00-0001-83.png,0002-00-0000-19.png
14,423,1,1444060865235,1444060865529,908,448,0,0,0,2,3,1,23,0002-00-0008-56.png,0003-00-0005-42.png
14,424,1,1444060865567,1444060865819,324,396,0,0,0,4,3,1,43,0005-00-0002-16.png,0003-00-0007-00.png
14,425,1,1444060865840,1444060866055,875,411,0,0,0,4,3,1,43,0005-00-0003-66.png,0003-00-0006-61.png
14,426,0,1444060866079,1444060866281,212,455,0,0,0,2,3,1,23,0002-00-0006-82.png,0003-00-0007-68.png
14,427,1,1444060866303,1444060867041,934,395,0,0,0,5,4,1,54,0001-00-0006-06.png,0005-00-0007-84.png
14,428,1,1444060867068,1444060867339,900,385,0,0,0,3,4,1,34,0003-00-0002-93.png,0005-00-0009-98.png
14,429,0,1444060867373,1444060867769,376,384,0,0,0,5,4,1,54,0001-00-0008-96.png,0005-00-0007-64.png
14,430,1,1444060867796,1444060868051,901,382,0,0,0,2,1,1,21,0002-00-0007-86.png,0004-00-0003-24.png
14,431,0,1444060868077,1444060868901,344,426,0,0,0,3,2,1,32,0003-00-0002-09.png,0002-00-0000-86.png
14,432,1,1444060868938,1444060869200,464,364,0,0,0,1,2,1,12,0004-00-0000-29.png,0002-00-0007-58.png
14,433,1,1444060869224,1444060869720,926,423,0,0,0,5,4,1,54,0001-00-0006-78.png,0005-00-0001-93.png
14,434,1,1444060869755,1444060871116,334,426,0,0,0,3,4,1,34,0003-00-0006-13.png,0005-00-0006-15.png
14,435,1,1444060871145,1444060871580,401,501,0,0,0,2,3,1,23,0002-00-0003-07.png,0003-00-0009-47.png
14,436,1,1444060871604,1444060872062,522,398,0,0,0,2,1,1,21,0002-00-0004-13.png,0004-00-0007-99.png
14,437,0,1444060872084,1444060872395,901,449,0,0,0,4,3,1,43,0005-00-0002-41.png,0003-00-0008-26.png
14,438,1,1444060872431,1444060872741,335,413,0,0,0,5,4,1,54,0001-00-0007-97.png,0005-00-0008-48.png
14,439,0,1444060872776,1444060873711,297,380,0,0,0,3,2,1,32,0003-00-0001-27.png,0002-00-0004-17.png
14,440,1,1444060873735,1444060874176,895,498,0,0,0,1,2,1,12,0004-00-0003-45.png,0002-00-0007-81.png
14,441,1,1444060874204,1444060875086,926,397,0,0,0,5,4,1,54,0001-00-0009-34.png,0005-00-0009-81.png
14,442,0,1444060875114,1444060875871,319,400,0,0,0,5,4,1,54,0001-00-0009-01.png,0005-00-0004-82.png
14,443,1,1444060875891,1444060876678,900,501,0,0,0,2,1,1,21,0002-00-0005-12.png,0004-00-0004-21.png
14,444,1,1444060876706,1444060877227,375,506,0,0,0,3,2,1,32,0003-00-0009-26.png,0002-00-0005-30.png
14,445,0,1444060877257,1444060877658,366,482,0,0,0,3,4,1,34,0003-00-0009-14.png,0005-00-0008-89.png
14,446,1,1444060877695,1444060878071,896,471,0,0,0,4,3,1,43,0005-00-0004-97.png,0003-00-0000-69.png
14,447,1,1444060878108,1444060878541,902,418,0,0,0,1,2,1,12,0004-00-0006-63.png,0002-00-0009-94.png
14,448,0,1444060878567,1444060879935,902,467,0,0,0,2,3,1,23,0002-00-0008-72.png,0003-00-0001-59.png
14,449,0,1444060879960,1444060880373,879,402,0,0,0,2,1,1,21,0002-00-0009-84.png,0004-00-0001-22.png
14,450,0,1444060880396,1444060880647,913,502,0,0,0,4,3,1,43,0005-00-0003-77.png,0003-00-0002-55.png
14,451,1,1444060880671,1444060881051,900,424,0,0,0,3,4,1,34,0003-00-0002-88.png,0005-00-0001-57.png
14,452,0,1444060881077,1444060881405,925,410,0,0,0,5,4,1,54,0001-00-0002-41.png,0005-00-0002-69.png
14,453,1,1444060881448,1444060881834,292,364,0,0,0,3,2,1,32,0003-00-0007-90.png,0002-00-0004-10.png
14,454,1,1444060881868,1444060882370,348,398,0,0,0,1,2,1,12,0004-00-0007-58.png,0002-00-0002-85.png
14,455,1,1444060882399,1444060882908,294,386,0,0,0,5,4,1,54,0001-00-0003-98.png,0005-00-0002-27.png
14,456,0,1444060882945,1444060883534,912,386,0,0,0,2,3,1,23,0002-00-0006-40.png,0003-00-0001-99.png
14,457,1,1444060883553,1444060883991,899,398,0,0,0,5,4,1,54,0001-00-0005-17.png,0005-00-0005-79.png
14,458,1,1444060884014,1444060884401,901,391,0,0,0,4,3,1,43,0005-00-0000-77.png,0003-00-0000-88.png
14,459,0,1444060884422,1444060884840,394,445,0,0,0,2,3,1,23,0002-00-0004-54.png,0003-00-0004-86.png
14,460,0,1444060884877,1444060885179,952,409,0,0,0,3,2,1,32,0003-00-0007-55.png,0002-00-0007-99.png
14,461,1,1444060885199,1444060885538,478,400,0,0,0,5,4,1,54,0001-00-0009-22.png,0005-00-0003-82.png
14,462,1,1444060885569,1444060886705,915,371,0,0,0,2,1,1,21,0002-00-0004-31.png,0004-00-0004-62.png
14,463,0,1444060886734,1444060888141,350,476,0,0,0,3,4,1,34,0003-00-0002-62.png,0005-00-0007-82.png
14,464,0,1444060888192,1444060888567,293,400,0,0,0,1,2,1,12,0004-00-0004-53.png,0002-00-0008-68.png
14,465,0,1444060888587,1444060889447,366,508,0,0,0,1,2,1,12,0004-00-0002-93.png,0002-00-0007-99.png
14,466,0,1444060889485,1444060891003,904,403,0,0,0,3,2,1,32,0003-00-0001-68.png,0002-00-0000-21.png
14,467,1,1444060891034,1444060891290,299,371,0,0,0,3,4,1,34,0003-00-0009-79.png,0005-00-0000-67.png
14,468,0,1444060891314,1444060891577,866,480,0,0,0,2,1,1,21,0002-00-0008-31.png,0004-00-0004-29.png
14,469,0,1444060891612,1444060892072,874,463,0,0,0,4,3,1,43,0005-00-0000-68.png,0003-00-0008-99.png
14,470,0,1444060892097,1444060893006,891,457,0,0,0,5,4,1,54,0001-00-0006-42.png,0005-00-0002-37.png
14,471,1,1444060893037,1444060893419,365,476,0,0,0,5,4,1,54,0001-00-0005-44.png,0005-00-0008-88.png
14,472,0,1444060893441,1444060894585,329,401,0,0,0,2,3,1,23,0002-00-0008-84.png,0003-00-0009-42.png
14,473,1,1444060894615,1444060895231,376,384,0,0,0,5,4,1,54,0001-00-0000-24.png,0005-00-0004-26.png
14,474,1,1444060895267,1444060895863,325,394,0,0,0,5,4,1,54,0001-00-0002-97.png,0005-00-0009-57.png
14,475,1,1444060895899,1444060896176,900,397,0,0,0,1,2,1,12,0004-00-0007-12.png,0002-00-0007-12.png
14,476,0,1444060896208,1444060896680,338,390,0,0,0,2,1,1,21,0002-00-0009-09.png,0004-00-0006-61.png
14,477,0,1444060896705,1444060897180,381,436,0,0,0,3,4,1,34,0003-00-0000-59.png,0005-00-0003-09.png
14,478,0,1444060897205,1444060897645,918,457,0,0,0,2,3,1,23,0002-00-0007-94.png,0003-00-0003-46.png
14,479,0,1444060897669,1444060897930,341,409,0,0,0,4,3,1,43,0005-00-0005-34.png,0003-00-0009-74.png
14,480,0,1444060897975,1444060898809,364,393,0,0,0,3,2,1,32,0003-00-0009-57.png,0002-00-0002-59.png
14,481,1,1444060898841,1444060899145,200,463,0,0,0,2,1,1,21,0002-00-0001-27.png,0004-00-0009-43.png
14,482,1,1444060899167,1444060900095,390,476,0,0,0,3,2,1,32,0003-00-0008-35.png,0002-00-0002-59.png
14,483,1,1444060900122,1444060900408,977,385,0,0,0,4,3,1,43,0005-00-0002-43.png,0003-00-0007-78.png
14,484,0,1444060900428,1444060901903,515,410,0,0,0,3,4,1,34,0003-00-0000-19.png,0005-00-0009-30.png
14,485,0,1444060901931,1444060902328,905,479,0,0,0,2,3,1,23,0002-00-0001-15.png,0003-00-0000-64.png
14,486,1,1444060902359,1444060902813,350,358,0,0,0,5,4,1,54,0001-00-0008-97.png,0005-00-0000-44.png
14,487,1,1444060902837,1444060903334,303,385,0,0,0,1,2,1,12,0004-00-0009-62.png,0002-00-0006-21.png
14,488,0,1444060903355,1444060903792,376,384,0,0,0,5,4,1,54,0001-00-0009-31.png,0005-00-0006-66.png
14,489,0,1444060903826,1444060904353,386,443,0,0,0,2,1,1,21,0002-00-0005-32.png,0004-00-0000-44.png
14,490,1,1444060904382,1444060904589,325,391,0,0,0,3,2,1,32,0003-00-0003-70.png,0002-00-0007-16.png
14,491,0,1444060904613,1444060904877,969,358,0,0,0,2,3,1,23,0002-00-0007-71.png,0003-00-0002-12.png
14,492,1,1444060904911,1444060905249,293,394,0,0,0,3,4,1,34,0003-00-0004-09.png,0005-00-0004-54.png
14,493,0,1444060905292,1444060905558,321,378,0,0,0,5,4,1,54,0001-00-0007-86.png,0005-00-0004-17.png
14,494,0,1444060905578,1444060905923,902,389,0,0,0,5,4,1,54,0001-00-0000-83.png,0005-00-0009-03.png
14,495,0,1444060905962,1444060906108,350,358,0,0,0,1,2,1,12,0004-00-0008-65.png,0002-00-0006-98.png
14,496,0,1444060906133,1444060906525,900,384,0,0,0,4,3,1,43,0005-00-0002-94.png,0003-00-0004-98.png
14,497,0,1444060906559,1444060906929,907,383,0,0,0,4,3,1,43,0005-00-0008-55.png,0003-00-0007-24.png
14,498,1,1444060906966,1444060907716,342,366,0,0,0,3,2,1,32,0003-00-0005-66.png,0002-00-0005-97.png
14,499,0,1444060907744,1444060908053,929,401,0,0,0,2,1,1,21,0002-00-0004-48.png,0004-00-0003-13.png
14,500,0,1444060908081,1444060908412,376,410,0,0,0,2,3,1,23,0002-00-0003-93.png,0003-00-0006-78.png
14,501,1,1444060908433,1444060909481,929,402,0,0,0,5,4,1,54,0001-00-0003-94.png,0005-00-0001-05.png
14,502,0,1444060909532,1444060909825,392,521,0,0,0,1,2,1,12,0004-00-0006-55.png,0002-00-0004-17.png
14,503,1,1444060909853,1444060910841,891,483,0,0,0,3,4,1,34,0003-00-0005-31.png,0005-00-0006-44.png
14,504,1,1444060910874,1444060911193,367,469,0,0,0,5,4,1,54,0001-00-0002-17.png,0005-00-0006-33.png
14,505,1,1444060911227,1444060911588,870,393,0,0,0,3,2,1,32,0003-00-0001-49.png,0002-00-0007-12.png
14,506,1,1444060911618,1444060911941,882,501,0,0,0,1,2,1,12,0004-00-0007-19.png,0002-00-0008-77.png
14,507,1,1444060911983,1444060912331,929,428,0,0,0,5,4,1,54,0001-00-0006-21.png,0005-00-0006-60.png
14,508,1,1444060912361,1444060912562,901,410,0,0,0,3,4,1,34,0003-00-0006-25.png,0005-00-0003-67.png
14,509,0,1444060912591,1444060913035,873,534,0,0,0,4,3,1,43,0005-00-0006-76.png,0003-00-0000-94.png
14,510,1,1444060913058,1444060913306,912,472,0,0,0,2,3,1,23,0002-00-0005-66.png,0003-00-0004-34.png
14,511,1,1444060913336,1444060914255,313,362,0,0,0,2,1,1,21,0002-00-0007-67.png,0004-00-0004-02.png
14,512,0,1444060914290,1444060915038,913,411,0,0,0,5,4,1,54,0001-00-0007-70.png,0005-00-0003-93.png
14,513,1,1444060915063,1444060915410,939,384,0,0,0,5,4,1,54,0001-00-0003-44.png,0005-00-0002-95.png
14,514,1,1444060915432,1444060915890,350,358,0,0,0,2,1,1,21,0002-00-0000-58.png,0004-00-0009-42.png
14,515,0,1444060915907,1444060917038,288,371,0,0,0,3,4,1,34,0003-00-0006-21.png,0005-00-0002-52.png
14,516,1,1444060917062,1444060917206,281,393,0,0,0,2,3,1,23,0002-00-0009-82.png,0003-00-0009-58.png
14,517,0,1444060917235,1444060917527,913,423,0,0,0,5,4,1,54,0001-00-0002-95.png,0005-00-0003-86.png
14,518,1,1444060917551,1444060917980,904,402,0,0,0,3,2,1,32,0003-00-0009-59.png,0002-00-0007-50.png
14,519,1,1444060918000,1444060918291,894,509,0,0,0,1,2,1,12,0004-00-0006-03.png,0002-00-0000-93.png
14,520,1,1444060918314,1444060919056,907,410,0,0,0,4,3,1,43,0005-00-0002-26.png,0003-00-0005-33.png
14,521,0,1444060919084,1444060919282,338,445,0,0,0,2,1,1,21,0002-00-0006-45.png,0004-00-0009-24.png
14,522,0,1444060919307,1444060919621,312,421,0,0,0,3,2,1,32,0003-00-0007-07.png,0002-00-0000-74.png
14,523,1,1444060919645,1444060920349,391,560,0,0,0,3,4,1,34,0003-00-0007-50.png,0005-00-0006-17.png
14,524,1,1444060920389,1444060921286,898,486,0,0,0,5,4,1,54,0001-00-0009-37.png,0005-00-0006-79.png
14,525,1,1444060921317,1444060922217,926,412,0,0,0,1,2,1,12,0004-00-0004-63.png,0002-00-0009-75.png
14,526,0,1444060922253,1444060922856,339,418,0,0,0,5,4,1,54,0001-00-0002-18.png,0005-00-0006-51.png
14,527,1,1444060922887,1444060923302,365,433,0,0,0,4,3,1,43,0005-00-0001-59.png,0003-00-0008-95.png
14,528,1,1444060923344,1444060923755,905,505,0,0,0,2,3,1,23,0002-00-0009-53.png,0003-00-0001-32.png
14,529,1,1444060923781,1444060924777,387,482,0,0,0,3,4,1,34,0003-00-0001-91.png,0005-00-0007-11.png
14,530,0,1444060924801,1444060925081,904,402,0,0,0,1,2,1,12,0004-00-0009-82.png,0002-00-0004-79.png
14,531,0,1444060925118,1444060925413,294,406,0,0,0,5,4,1,54,0001-00-0006-88.png,0005-00-0003-52.png
14,532,0,1444060925447,1444060925796,325,370,0,0,0,2,3,1,23,0002-00-0004-17.png,0003-00-0003-37.png
14,533,1,1444060925810,1444060926244,926,373,0,0,0,4,3,1,43,0005-00-0000-97.png,0003-00-0008-15.png
14,534,1,1444060926311,1444060926847,295,420,0,0,0,3,2,1,32,0003-00-0006-05.png,0002-00-0006-79.png
14,535,0,1444060926882,1444060927175,401,516,0,0,0,5,4,1,54,0001-00-0003-75.png,0005-00-0004-62.png
14,536,1,1444060927200,1444060927851,391,495,0,0,0,2,1,1,21,0002-00-0007-18.png,0004-00-0000-94.png
14,537,0,1444060927896,1444060928229,896,394,0,0,0,2,1,1,21,0002-00-0006-31.png,0004-00-0001-81.png
14,538,0,1444060928266,1444060928732,879,402,0,0,0,3,2,1,32,0003-00-0009-18.png,0002-00-0006-32.png
14,539,0,1444060928778,1444060929033,322,362,0,0,0,5,4,1,54,0001-00-0007-80.png,0005-00-0009-28.png
14,540,0,1444060929068,1444060929685,331,410,0,0,0,2,3,1,23,0002-00-0005-02.png,0003-00-0001-16.png
14,541,0,1444060929715,1444060929997,302,393,0,0,0,4,3,1,43,0005-00-0006-04.png,0003-00-0004-46.png
14,542,0,1444060930038,1444060930500,907,412,0,0,0,5,4,1,54,0001-00-0003-33.png,0005-00-0005-80.png
14,543,1,1444060930522,1444060931258,875,410,0,0,0,3,4,1,34,0003-00-0009-69.png,0005-00-0009-07.png
14,544,0,1444060931290,1444060932190,338,424,0,0,0,1,2,1,12,0004-00-0006-92.png,0002-00-0000-32.png
14,545,0,1444060932217,1444060932965,878,376,0,0,0,2,3,1,23,0002-00-0006-87.png,0003-00-0000-73.png
14,546,1,1444060932991,1444060933226,914,514,0,0,0,3,2,1,32,0003-00-0002-02.png,0002-00-0001-44.png
14,547,0,1444060933241,1444060933952,325,371,0,0,0,5,4,1,54,0001-00-0006-47.png,0005-00-0007-71.png
14,548,0,1444060933971,1444060934319,375,489,0,0,0,2,1,1,21,0002-00-0009-82.png,0004-00-0001-17.png
14,549,1,1444060934334,1444060934693,875,475,0,0,0,3,4,1,34,0003-00-0003-11.png,0005-00-0008-71.png
14,550,1,1444060934717,1444060935953,897,394,0,0,0,1,2,1,12,0004-00-0000-56.png,0002-00-0008-86.png
14,551,1,1444060935967,1444060936277,334,401,0,0,0,4,3,1,43,0005-00-0004-78.png,0003-00-0000-11.png
14,552,1,1444060936310,1444060936881,439,503,0,0,0,5,4,1,54,0001-00-0005-66.png,0005-00-0004-01.png
14,553,0,1444060936909,1444060937335,504,501,0,0,0,2,1,1,21,0002-00-0007-67.png,0004-00-0005-95.png
14,554,1,1444060937361,1444060937697,299,358,0,0,0,1,2,1,12,0004-00-0003-18.png,0002-00-0009-72.png
14,555,0,1444060937727,1444060938030,486,401,0,0,0,3,2,1,32,0003-00-0002-31.png,0002-00-0004-05.png
14,556,0,1444060938061,1444060938370,263,384,0,0,0,2,3,1,23,0002-00-0003-72.png,0003-00-0009-59.png
14,557,0,1444060938392,1444060938737,888,496,0,0,0,5,4,1,54,0001-00-0008-60.png,0005-00-0002-43.png
14,558,1,1444060938770,1444060939267,317,358,0,0,0,3,4,1,34,0003-00-0009-43.png,0005-00-0004-70.png
14,559,1,1444060939290,1444060940947,376,423,0,0,0,5,4,1,54,0001-00-0003-50.png,0005-00-0008-41.png
14,560,0,1444060940996,1444060941539,926,397,0,0,0,4,3,1,43,0005-00-0003-80.png,0003-00-0004-69.png
14,561,1,1444060941571,1444060941922,369,382,0,0,0,2,3,1,23,0002-00-0000-94.png,0003-00-0002-65.png
14,562,0,1444060941948,1444060942105,319,394,0,0,0,2,1,1,21,0002-00-0006-21.png,0004-00-0001-62.png
14,563,0,1444060942133,1444060942710,314,410,0,0,0,4,3,1,43,0005-00-0007-33.png,0003-00-0006-32.png
14,564,1,1444060942736,1444060943179,376,410,0,0,0,5,4,1,54,0001-00-0004-20.png,0005-00-0000-07.png
14,565,0,1444060943198,1444060943683,900,397,0,0,0,5,4,1,54,0001-00-0002-29.png,0005-00-0009-01.png
14,566,1,1444060943725,1444060944437,879,404,0,0,0,3,2,1,32,0003-00-0003-08.png,0002-00-0001-77.png
14,567,0,1444060944464,1444060945633,915,475,0,0,0,1,2,1,12,0004-00-0003-79.png,0002-00-0006-91.png
14,568,0,1444060945661,1444060945986,907,404,0,0,0,3,4,1,34,0003-00-0003-92.png,0005-00-0008-55.png
14,569,0,1444060946034,1444060946539,308,408,0,0,0,2,3,1,23,0002-00-0005-62.png,0003-00-0002-30.png
14,570,1,1444060946561,1444060947515,876,493,0,0,0,5,4,1,54,0001-00-0003-57.png,0005-00-0009-47.png
14,571,1,1444060947543,1444060947888,350,358,0,0,0,3,4,1,34,0003-00-0006-50.png,0005-00-0007-50.png
14,572,1,1444060947917,1444060948208,900,489,0,0,0,2,1,1,21,0002-00-0003-20.png,0004-00-0008-57.png
14,573,1,1444060948242,1444060948685,324,403,0,0,0,5,4,1,54,0001-00-0000-52.png,0005-00-0009-90.png
14,574,0,1444060948729,1444060949198,402,418,0,0,0,4,3,1,43,0005-00-0000-32.png,0003-00-0003-20.png
14,575,1,1444060949220,1444060949389,369,487,0,0,0,3,2,1,32,0003-00-0000-12.png,0002-00-0000-79.png
14,576,0,1444060949417,1444060950091,907,410,0,0,0,1,2,1,12,0004-00-0009-12.png,0002-00-0004-28.png
14,577,1,1444060950115,1444060950580,896,427,0,0,0,1,2,1,12,0004-00-0002-38.png,0002-00-0002-06.png
14,578,0,1444060950607,1444060951106,913,409,0,0,0,5,4,1,54,0001-00-0002-27.png,0005-00-0000-73.png
14,579,1,1444060951132,1444060951461,410,467,0,0,0,3,2,1,32,0003-00-0004-83.png,0002-00-0006-86.png
14,580,1,1444060951484,1444060951604,863,396,0,0,0,2,1,1,21,0002-00-0003-79.png,0004-00-0008-38.png
14,581,0,1444060951629,1444060952163,898,511,0,0,0,2,3,1,23,0002-00-0006-78.png,0003-00-0005-16.png
14,582,0,1444060952191,1444060953361,900,398,0,0,0,4,3,1,43,0005-00-0000-43.png,0003-00-0003-89.png
14,583,1,1444060953390,1444060954361,299,463,0,0,0,3,4,1,34,0003-00-0000-89.png,0005-00-0007-62.png
14,584,1,1444060954383,1444060954891,390,475,0,0,0,5,4,1,54,0001-00-0009-33.png,0005-00-0004-22.png
14,585,1,1444060954921,1444060955130,344,388,0,0,0,4,3,1,43,0005-00-0002-28.png,0003-00-0000-12.png
14,586,0,1444060955165,1444060955306,903,403,0,0,0,2,1,1,21,0002-00-0009-02.png,0004-00-0000-17.png
14,587,0,1444060955333,1444060955682,886,399,0,0,0,3,2,1,32,0003-00-0005-51.png,0002-00-0003-67.png
14,588,0,1444060955713,1444060956339,401,358,0,0,0,3,4,1,34,0003-00-0009-72.png,0005-00-0001-21.png
14,589,1,1444060956363,1444060957239,882,411,0,0,0,5,4,1,54,0001-00-0006-31.png,0005-00-0002-26.png
14,590,1,1444060957267,1444060957674,876,397,0,0,0,5,4,1,54,0001-00-0005-48.png,0005-00-0008-46.png
14,591,0,1444060957696,1444060958223,931,406,0,0,0,2,3,1,23,0002-00-0003-15.png,0003-00-0001-06.png
14,592,1,1444060958242,1444060958599,290,376,0,0,0,1,2,1,12,0004-00-0006-58.png,0002-00-0001-10.png
14,593,0,1444060958623,1444060959059,900,460,0,0,0,2,1,1,21,0002-00-0005-45.png,0004-00-0000-02.png
14,594,0,1444060959085,1444060959376,938,424,0,0,0,5,4,1,54,0001-00-0003-28.png,0005-00-0001-19.png
14,595,0,1444060959407,1444060960461,904,402,0,0,0,4,3,1,43,0005-00-0004-50.png,0003-00-0002-30.png
14,596,1,1444060960481,1444060960762,862,462,0,0,0,1,2,1,12,0004-00-0006-64.png,0002-00-0009-33.png
14,597,0,1444060960791,1444060961587,401,489,0,0,0,5,4,1,54,0001-00-0008-72.png,0005-00-0002-78.png
14,598,1,1444060961627,1444060962417,320,402,0,0,0,3,4,1,34,0003-00-0000-84.png,0005-00-0003-93.png
14,599,1,1444060962443,1444060963029,901,424,0,0,0,2,3,1,23,0002-00-0003-39.png,0003-00-0008-11.png
14,600,0,1444060963069,1444060963614,305,408,0,0,0,3,2,1,32,0003-00-0002-82.png,0002-00-0007-09.png
14,601,1,1444060963638,1444060963875,900,437,0,0,0,2,3,1,23,0002-00-0005-15.png,0003-00-0000-84.png
14,602,0,1444060963911,1444060964722,343,424,0,0,0,2,1,1,21,0002-00-0004-84.png,0004-00-0009-59.png
14,603,0,1444060964756,1444060965103,912,491,0,0,0,5,4,1,54,0001-00-0009-40.png,0005-00-0007-85.png
14,604,0,1444060965132,1444060965726,388,470,0,0,0,3,2,1,32,0003-00-0003-59.png,0002-00-0000-07.png
14,605,1,1444060965753,1444060966006,900,501,0,0,0,3,4,1,34,0003-00-0001-85.png,0005-00-0006-91.png
14,606,0,1444060966027,1444060966374,291,427,0,0,0,4,3,1,43,0005-00-0004-62.png,0003-00-0004-88.png
14,607,0,1444060966394,1444060967206,376,384,0,0,0,5,4,1,54,0001-00-0004-85.png,0005-00-0009-34.png
14,608,1,1444060967248,1444060968268,922,401,0,0,0,1,2,1,12,0004-00-0003-04.png,0002-00-0008-03.png
14,609,0,1444060968287,1444060968977,412,501,0,0,0,3,2,1,32,0003-00-0004-06.png,0002-00-0003-25.png
14,610,1,1444060969014,1444060969174,870,497,0,0,0,1,2,1,12,0004-00-0008-35.png,0002-00-0002-24.png
14,611,1,1444060969206,1444060969482,907,385,0,0,0,2,1,1,21,0002-00-0004-69.png,0004-00-0005-45.png
14,612,0,1444060969519,1444060969823,324,398,0,0,0,5,4,1,54,0001-00-0008-01.png,0005-00-0004-21.png
14,613,1,1444060969847,1444060970238,330,427,0,0,0,3,4,1,34,0003-00-0002-65.png,0005-00-0008-47.png
14,614,0,1444060970274,1444060970521,316,386,0,0,0,4,3,1,43,0005-00-0008-47.png,0003-00-0009-47.png
14,615,1,1444060970554,1444060970869,901,462,0,0,0,5,4,1,54,0001-00-0005-78.png,0005-00-0007-32.png
14,616,1,1444060970902,1444060971308,904,402,0,0,0,2,3,1,23,0002-00-0006-77.png,0003-00-0007-74.png
14,617,1,1444060971329,1444060972036,406,395,0,0,0,3,4,1,34,0003-00-0001-07.png,0005-00-0008-01.png
14,618,0,1444060972060,1444060972395,907,411,0,0,0,3,2,1,32,0003-00-0002-76.png,0002-00-0000-45.png
14,619,1,1444060972433,1444060973939,368,403,0,0,0,1,2,1,12,0004-00-0000-55.png,0002-00-0007-56.png
14,620,0,1444060973962,1444060974958,350,425,0,0,0,5,4,1,54,0001-00-0000-79.png,0005-00-0007-70.png
14,621,1,1444060974997,1444060975244,926,423,0,0,0,2,3,1,23,0002-00-0007-74.png,0003-00-0000-69.png
14,622,0,1444060975274,1444060975883,896,375,0,0,0,4,3,1,43,0005-00-0006-48.png,0003-00-0003-43.png
14,623,0,1444060975918,1444060976815,414,562,0,0,0,5,4,1,54,0001-00-0001-88.png,0005-00-0005-48.png
14,624,0,1444060976840,1444060977238,350,397,0,0,0,2,1,1,21,0002-00-0009-78.png,0004-00-0001-11.png
14,625,1,1444060977276,1444060977819,952,383,0,0,0,1,2,1,12,0004-00-0004-77.png,0002-00-0007-83.png
14,626,1,1444060977841,1444060978719,314,390,0,0,0,3,4,1,34,0003-00-0003-83.png,0005-00-0009-21.png
14,627,1,1444060978753,1444060979111,911,398,0,0,0,3,2,1,32,0003-00-0000-94.png,0002-00-0002-82.png
14,628,1,1444060979159,1444060979618,324,397,0,0,0,5,4,1,54,0001-00-0007-89.png,0005-00-0000-15.png
14,629,0,1444060979652,1444060980215,415,516,0,0,0,2,3,1,23,0002-00-0000-94.png,0003-00-0005-21.png
14,630,1,1444060980245,1444060980637,914,434,0,0,0,5,4,1,54,0001-00-0006-09.png,0005-00-0003-49.png
14,631,1,1444060980686,1444060981378,318,365,0,0,0,4,3,1,43,0005-00-0006-70.png,0003-00-0002-37.png
14,632,0,1444060981408,1444060981973,376,436,0,0,0,2,1,1,21,0002-00-0001-77.png,0004-00-0008-60.png
14,633,1,1444060982000,1444060982405,886,438,0,0,0,2,3,1,23,0002-00-0008-75.png,0003-00-0009-56.png
14,634,1,1444060982421,1444060983602,876,424,0,0,0,3,2,1,32,0003-00-0007-32.png,0002-00-0003-01.png
14,635,1,1444060983640,1444060984252,359,415,0,0,0,3,4,1,34,0003-00-0005-96.png,0005-00-0001-37.png
14,636,0,1444060984280,1444060984824,364,487,0,0,0,5,4,1,54,0001-00-0001-11.png,0005-00-0000-49.png
14,637,1,1444060984842,1444060985087,900,437,0,0,0,5,4,1,54,0001-00-0003-91.png,0005-00-0002-99.png
14,638,0,1444060985117,1444060985698,397,487,0,0,0,1,2,1,12,0004-00-0000-75.png,0002-00-0007-91.png
14,639,1,1444060985726,1444060986113,901,399,0,0,0,4,3,1,43,0005-00-0005-41.png,0003-00-0004-56.png
14,640,1,1444060986144,1444060986627,372,427,0,0,0,2,1,1,21,0002-00-0004-39.png,0004-00-0000-02.png
14,641,0,1444060986662,1444060986982,339,411,0,0,0,3,2,1,32,0003-00-0000-49.png,0002-00-0001-58.png
14,642,1,1444060987013,1444060987420,871,420,0,0,0,5,4,1,54,0001-00-0007-81.png,0005-00-0001-79.png
14,643,0,1444060987458,1444060987748,888,410,0,0,0,2,3,1,23,0002-00-0006-76.png,0003-00-0006-49.png
14,644,0,1444060987777,1444060988962,308,393,0,0,0,3,4,1,34,0003-00-0001-04.png,0005-00-0000-72.png
14,645,1,1444060989000,1444060989700,376,384,0,0,0,5,4,1,54,0001-00-0005-59.png,0005-00-0000-68.png
14,646,1,1444060989725,1444060990168,875,501,0,0,0,4,3,1,43,0005-00-0005-56.png,0003-00-0005-95.png
14,647,0,1444060990212,1444060990685,907,436,0,0,0,2,1,1,21,0002-00-0004-67.png,0004-00-0009-09.png
14,648,1,1444060990717,1444060991193,879,506,0,0,0,1,2,1,12,0004-00-0005-33.png,0002-00-0005-87.png
14,649,1,1444060991213,1444060992754,881,500,0,0,0,2,3,1,23,0002-00-0003-98.png,0003-00-0009-97.png
14,650,1,1444060992791,1444060993107,326,378,0,0,0,2,1,1,21,0002-00-0002-49.png,0004-00-0005-30.png
14,651,0,1444060993135,1444060993799,878,454,0,0,0,3,2,1,32,0003-00-0003-87.png,0002-00-0007-58.png
14,652,1,1444060993832,1444060994538,299,423,0,0,0,5,4,1,54,0001-00-0005-92.png,0005-00-0000-38.png
14,653,1,1444060994567,1444060994890,902,418,0,0,0,4,3,1,43,0005-00-0007-75.png,0003-00-0003-82.png
14,654,1,1444060994930,1444060995933,313,393,0,0,0,3,4,1,34,0003-00-0001-02.png,0005-00-0006-19.png
14,655,0,1444060995964,1444060996724,888,449,0,0,0,5,4,1,54,0001-00-0003-97.png,0005-00-0009-12.png
14,656,1,1444060996749,1444060997206,392,494,0,0,0,1,2,1,12,0004-00-0003-26.png,0002-00-0003-75.png
14,657,1,1444060997244,1444060997784,324,403,0,0,0,3,4,1,34,0003-00-0007-27.png,0005-00-0006-09.png
14,658,0,1444060997819,1444060998663,890,418,0,0,0,4,3,1,43,0005-00-0007-38.png,0003-00-0002-96.png
14,659,0,1444060998695,1444060999345,377,431,0,0,0,2,1,1,21,0002-00-0009-07.png,0004-00-0004-43.png
14,660,1,1444060999374,1444060999805,872,536,0,0,0,3,2,1,32,0003-00-0002-58.png,0002-00-0003-85.png
14,661,1,1444060999830,1444061000383,896,401,0,0,0,1,2,1,12,0004-00-0008-97.png,0002-00-0000-12.png
14,662,0,1444061000425,1444061000629,899,378,0,0,0,5,4,1,54,0001-00-0005-79.png,0005-00-0002-05.png
14,663,1,1444061000680,1444061000939,895,477,0,0,0,5,4,1,54,0001-00-0009-80.png,0005-00-0005-25.png
14,664,0,1444061000965,1444061001650,875,398,0,0,0,2,3,1,23,0002-00-0004-26.png,0003-00-0008-13.png
14,665,1,1444061001667,1444061002547,863,398,0,0,0,3,4,1,34,0003-00-0002-74.png,0005-00-0004-92.png
14,666,1,1444061002579,1444061002995,394,454,0,0,0,1,2,1,12,0004-00-0002-38.png,0002-00-0006-46.png
14,667,0,1444061003047,1444061003264,376,501,0,0,0,3,2,1,32,0003-00-0005-14.png,0002-00-0000-01.png
14,668,1,1444061003299,1444061003924,883,513,0,0,0,5,4,1,54,0001-00-0002-34.png,0005-00-0003-56.png
14,669,0,1444061003951,1444061004484,346,415,0,0,0,5,4,1,54,0001-00-0003-73.png,0005-00-0006-81.png
14,670,1,1444061004510,1444061004879,350,410,0,0,0,2,1,1,21,0002-00-0000-04.png,0004-00-0003-21.png
14,671,1,1444061004924,1444061005568,400,403,0,0,0,2,3,1,23,0002-00-0009-55.png,0003-00-0008-86.png
14,672,1,1444061005598,1444061006102,868,534,0,0,0,4,3,1,43,0005-00-0003-84.png,0003-00-0001-63.png
14,673,0,1444061006141,1444061006573,261,449,0,0,0,2,1,1,21,0002-00-0008-34.png,0004-00-0009-05.png
14,674,1,1444061006602,1444061006921,518,410,0,0,0,4,3,1,43,0005-00-0002-02.png,0003-00-0007-14.png
14,675,1,1444061006952,1444061007636,343,407,0,0,0,3,2,1,32,0003-00-0000-61.png,0002-00-0002-07.png
14,676,1,1444061007670,1444061008607,901,450,0,0,0,5,4,1,54,0001-00-0008-33.png,0005-00-0000-14.png
14,677,0,1444061008631,1444061008964,358,471,0,0,0,3,4,1,34,0003-00-0003-02.png,0005-00-0003-31.png
14,678,1,1444061008991,1444061009296,874,516,0,0,0,2,3,1,23,0002-00-0000-28.png,0003-00-0007-55.png
14,679,1,1444061009317,1444061009566,298,449,0,0,0,5,4,1,54,0001-00-0002-37.png,0005-00-0008-56.png
14,680,0,1444061009608,1444061009960,350,398,0,0,0,1,2,1,12,0004-00-0009-19.png,0002-00-0000-59.png
14,681,0,1444061010004,1444061010875,900,410,0,0,0,1,2,1,12,0004-00-0009-06.png,0002-00-0008-70.png
14,682,0,1444061010912,1444061011262,376,462,0,0,0,3,2,1,32,0003-00-0007-09.png,0002-00-0008-52.png
14,683,0,1444061011291,1444061011860,893,509,0,0,0,2,3,1,23,0002-00-0008-01.png,0003-00-0005-74.png
14,684,1,1444061011888,1444061012958,376,436,0,0,0,4,3,1,43,0005-00-0000-72.png,0003-00-0000-28.png
14,685,0,1444061012990,1444061013291,910,399,0,0,0,5,4,1,54,0001-00-0008-80.png,0005-00-0000-39.png
14,686,1,1444061013347,1444061013720,319,416,0,0,0,2,1,1,21,0002-00-0007-64.png,0004-00-0005-16.png
14,687,1,1444061013760,1444061014307,363,379,0,0,0,3,4,1,34,0003-00-0005-00.png,0005-00-0002-98.png
14,688,1,1444061014339,1444061014593,349,405,0,0,0,5,4,1,54,0001-00-0004-44.png,0005-00-0004-98.png
14,689,1,1444061014632,1444061014731,910,436,0,0,0,1,2,1,12,0004-00-0009-51.png,0002-00-0005-36.png
14,690,0,1444061014758,1444061015565,299,462,0,0,0,2,3,1,23,0002-00-0004-67.png,0003-00-0000-62.png
14,691,1,1444061015606,1444061015734,391,541,0,0,0,2,1,1,21,0002-00-0009-77.png,0004-00-0005-55.png
14,692,1,1444061015753,1444061016331,875,464,0,0,0,5,4,1,54,0001-00-0001-57.png,0005-00-0002-05.png
14,693,1,1444061016358,1444061017049,900,410,0,0,0,3,4,1,34,0003-00-0008-17.png,0005-00-0000-46.png
14,694,1,1444061017086,1444061017423,900,412,0,0,0,5,4,1,54,0001-00-0001-07.png,0005-00-0000-83.png
14,695,1,1444061017447,1444061018145,390,445,0,0,0,3,2,1,32,0003-00-0008-85.png,0002-00-0003-90.png
14,696,1,1444061018169,1444061018394,349,435,0,0,0,4,3,1,43,0005-00-0001-52.png,0003-00-0005-09.png
14,697,1,1444061018427,1444061018749,323,423,0,0,0,2,3,1,23,0002-00-0003-42.png,0003-00-0008-45.png
14,698,0,1444061018772,1444061019143,930,402,0,0,0,3,4,1,34,0003-00-0005-19.png,0005-00-0006-59.png
14,699,1,1444061019165,1444061019605,355,432,0,0,0,4,3,1,43,0005-00-0003-38.png,0003-00-0001-84.png
14,700,0,1444061019629,1444061020049,350,397,0,0,0,2,1,1,21,0002-00-0009-39.png,0004-00-0006-04.png
14,701,0,1444061020077,1444061020405,399,522,0,0,0,5,4,1,54,0001-00-0001-21.png,0005-00-0000-70.png
14,702,0,1444061020429,1444061021646,386,530,0,0,0,5,4,1,54,0001-00-0003-09.png,0005-00-0009-56.png
14,703,1,1444061021672,1444061022241,871,427,0,0,0,1,2,1,12,0004-00-0000-52.png,0002-00-0003-87.png
14,704,1,1444061022284,1444061022643,908,500,0,0,0,3,2,1,32,0003-00-0003-17.png,0002-00-0004-52.png
14,705,0,1444061022672,1444061023364,901,408,0,0,0,2,1,1,21,0002-00-0008-61.png,0004-00-0000-44.png
14,706,0,1444061023401,1444061024044,908,526,0,0,0,1,2,1,12,0004-00-0001-53.png,0002-00-0006-89.png
14,707,1,1444061024074,1444061024734,870,524,0,0,0,5,4,1,54,0001-00-0004-01.png,0005-00-0001-65.png
14,708,0,1444061024763,1444061025037,323,423,0,0,0,5,4,1,54,0001-00-0009-56.png,0005-00-0004-04.png
14,709,0,1444061025086,1444061025836,343,443,0,0,0,3,4,1,34,0003-00-0000-61.png,0005-00-0002-73.png
14,710,0,1444061025861,1444061026202,502,407,0,0,0,2,3,1,23,0002-00-0007-83.png,0003-00-0003-35.png
14,711,1,1444061026243,1444061026692,899,508,0,0,0,3,2,1,32,0003-00-0009-19.png,0002-00-0005-77.png
14,712,1,1444061026723,1444061027325,376,410,0,0,0,4,3,1,43,0005-00-0008-28.png,0003-00-0004-76.png
14,713,1,1444061027348,1444061027990,899,457,0,0,0,5,4,1,54,0001-00-0007-54.png,0005-00-0001-60.png
14,714,0,1444061028034,1444061029567,900,411,0,0,0,4,3,1,43,0005-00-0000-58.png,0003-00-0003-57.png
14,715,0,1444061029592,1444061029739,370,423,0,0,0,5,4,1,54,0001-00-0007-19.png,0005-00-0000-22.png
14,716,1,1444061029763,1444061029995,879,454,0,0,0,3,4,1,34,0003-00-0003-00.png,0005-00-0002-59.png
14,717,1,1444061030019,1444061030570,912,424,0,0,0,2,1,1,21,0002-00-0004-38.png,0004-00-0007-07.png
14,718,1,1444061030609,1444061030964,359,410,0,0,0,1,2,1,12,0004-00-0000-48.png,0002-00-0000-36.png
14,719,0,1444061030990,1444061031384,905,404,0,0,0,3,2,1,32,0003-00-0001-95.png,0002-00-0002-72.png
14,720,0,1444061031411,1444061031765,350,358,0,0,0,2,3,1,23,0002-00-0006-25.png,0003-00-0007-95.png
14,721,1,1444061031794,1444061032168,901,449,0,0,0,1,2,1,12,0004-00-0001-60.png,0002-00-0002-82.png
14,722,0,1444061032209,1444061032799,330,409,0,0,0,5,4,1,54,0001-00-0000-71.png,0005-00-0008-98.png
14,723,1,1444061032822,1444061033467,926,409,0,0,0,2,1,1,21,0002-00-0008-53.png,0004-00-0006-31.png
14,724,1,1444061033501,1444061033604,369,444,0,0,0,4,3,1,43,0005-00-0004-31.png,0003-00-0008-45.png
14,725,1,1444061033631,1444061034473,888,501,0,0,0,5,4,1,54,0001-00-0009-68.png,0005-00-0004-47.png
14,726,1,1444061034500,1444061035126,890,495,0,0,0,2,3,1,23,0002-00-0003-31.png,0003-00-0001-25.png
14,727,1,1444061035160,1444061036921,394,506,0,0,0,3,4,1,34,0003-00-0005-03.png,0005-00-0005-85.png
14,728,1,1444061036959,1444061037641,873,542,0,0,0,3,2,1,32,0003-00-0000-84.png,0002-00-0009-84.png
14,729,0,1444061037662,1444061038260,928,403,0,0,0,1,2,1,12,0004-00-0001-58.png,0002-00-0003-08.png
14,730,0,1444061038289,1444061039220,897,533,0,0,0,4,3,1,43,0005-00-0001-76.png,0003-00-0008-70.png
14,731,0,1444061039251,1444061039933,952,408,0,0,0,2,1,1,21,0002-00-0001-97.png,0004-00-0003-01.png
14,732,1,1444061039955,1444061040383,359,358,0,0,0,5,4,1,54,0001-00-0002-17.png,0005-00-0003-83.png
14,733,0,1444061040418,1444061040662,324,395,0,0,0,5,4,1,54,0001-00-0001-16.png,0005-00-0000-07.png
14,734,0,1444061040702,1444061041287,913,410,0,0,0,3,4,1,34,0003-00-0003-54.png,0005-00-0006-78.png
14,735,1,1444061041320,1444061041975,324,424,0,0,0,2,3,1,23,0002-00-0008-99.png,0003-00-0002-84.png
14,736,0,1444061041998,1444061043322,349,397,0,0,0,3,2,1,32,0003-00-0004-49.png,0002-00-0005-68.png
14,737,1,1444061043345,1444061043791,926,424,0,0,0,5,4,1,54,0001-00-0001-96.png,0005-00-0005-16.png
14,738,1,1444061043817,1444061044263,324,422,0,0,0,1,2,1,12,0004-00-0008-46.png,0002-00-0001-41.png
14,739,1,1444061044288,1444061044559,339,391,0,0,0,3,4,1,34,0003-00-0001-73.png,0005-00-0003-88.png
14,740,0,1444061044576,1444061045276,879,427,0,0,0,2,1,1,21,0002-00-0008-08.png,0004-00-0003-78.png
14,741,1,1444061045307,1444061045851,357,419,0,0,0,5,4,1,54,0001-00-0008-03.png,0005-00-0002-14.png
14,742,0,1444061045874,1444061047146,862,462,0,0,0,2,3,1,23,0002-00-0002-84.png,0003-00-0007-97.png
14,743,0,1444061047180,1444061047565,926,398,0,0,0,4,3,1,43,0005-00-0007-56.png,0003-00-0007-49.png
14,744,0,1444061047601,1444061048236,299,399,0,0,0,3,2,1,32,0003-00-0006-40.png,0002-00-0002-12.png
14,745,1,1444061048265,1444061048831,899,515,0,0,0,4,3,1,43,0005-00-0005-92.png,0003-00-0007-77.png
14,746,1,1444061048868,1444061050124,352,434,0,0,0,2,3,1,23,0002-00-0009-26.png,0003-00-0009-56.png
14,747,1,1444061050159,1444061051105,901,397,0,0,0,5,4,1,54,0001-00-0003-21.png,0005-00-0006-58.png
14,748,1,1444061051129,1444061052749,319,407,0,0,0,1,2,1,12,0004-00-0003-24.png,0002-00-0005-98.png
14,749,1,1444061052779,1444061053083,898,535,0,0,0,5,4,1,54,0001-00-0007-20.png,0005-00-0009-99.png
14,750,1,1444061053120,1444061053578,364,393,0,0,0,3,2,1,32,0003-00-0005-18.png,0002-00-0007-78.png
14,751,1,1444061053597,1444061054660,353,408,0,0,0,3,4,1,34,0003-00-0006-36.png,0005-00-0007-49.png
14,752,1,1444061054686,1444061054836,889,449,0,0,0,2,1,1,21,0002-00-0009-09.png,0004-00-0009-72.png
14,753,0,1444061054861,1444061055308,395,460,0,0,0,1,2,1,12,0004-00-0003-78.png,0002-00-0000-76.png
14,754,0,1444061055349,1444061055486,873,372,0,0,0,3,2,1,32,0003-00-0002-03.png,0002-00-0004-36.png
14,755,0,1444061055522,1444061056039,902,416,0,0,0,2,3,1,23,0002-00-0008-61.png,0003-00-0002-80.png
14,756,0,1444061056075,1444061056618,334,391,0,0,0,5,4,1,54,0001-00-0007-45.png,0005-00-0000-28.png
14,757,0,1444061056665,1444061057761,913,398,0,0,0,2,1,1,21,0002-00-0008-84.png,0004-00-0004-39.png
14,758,1,1444061057782,1444061058287,324,404,0,0,0,4,3,1,43,0005-00-0002-14.png,0003-00-0009-09.png
14,759,0,1444061058332,1444061058652,321,375,0,0,0,3,4,1,34,0003-00-0000-03.png,0005-00-0000-57.png
14,760,1,1444061058684,1444061058940,395,524,0,0,0,5,4,1,54,0001-00-0005-37.png,0005-00-0003-26.png
14,761,1,1444061058970,1444061059302,900,412,0,0,0,5,4,1,54,0001-00-0007-75.png,0005-00-0007-10.png
14,762,1,1444061059328,1444061060319,329,399,0,0,0,5,4,1,54,0001-00-0006-82.png,0005-00-0003-81.png
14,763,1,1444061060353,1444061060571,349,425,0,0,0,2,3,1,23,0002-00-0006-71.png,0003-00-0000-88.png
14,764,1,1444061060605,1444061061006,311,390,0,0,0,3,2,1,32,0003-00-0007-24.png,0002-00-0000-42.png
14,765,1,1444061061033,1444061061374,936,425,0,0,0,3,4,1,34,0003-00-0006-05.png,0005-00-0007-83.png
14,766,0,1444061061398,1444061062305,376,410,0,0,0,1,2,1,12,0004-00-0008-73.png,0002-00-0007-52.png
14,767,1,1444061062337,1444061062672,913,398,0,0,0,2,1,1,21,0002-00-0000-96.png,0004-00-0008-97.png
14,768,0,1444061062707,1444061063125,396,415,0,0,0,4,3,1,43,0005-00-0002-05.png,0003-00-0002-92.png
14,769,0,1444061063156,1444061063629,376,462,0,0,0,2,1,1,21,0002-00-0004-31.png,0004-00-0003-74.png
14,770,0,1444061063656,1444061064267,323,379,0,0,0,3,4,1,34,0003-00-0005-40.png,0005-00-0001-99.png
14,771,1,1444061064292,1444061065238,273,397,0,0,0,2,3,1,23,0002-00-0006-69.png,0003-00-0002-78.png
14,772,1,1444061065259,1444061066286,915,489,0,0,0,4,3,1,43,0005-00-0001-51.png,0003-00-0009-79.png
14,773,0,1444061066320,1444061066628,895,414,0,0,0,3,2,1,32,0003-00-0008-46.png,0002-00-0000-34.png
14,774,1,1444061066664,1444061066913,900,488,0,0,0,1,2,1,12,0004-00-0003-04.png,0002-00-0009-70.png
14,775,0,1444061066934,1444061067419,299,397,0,0,0,5,4,1,54,0001-00-0006-83.png,0005-00-0008-67.png
14,776,0,1444061067454,1444061067935,364,407,0,0,0,5,4,1,54,0001-00-0006-71.png,0005-00-0003-64.png
14,777,0,1444061067970,1444061068697,887,449,0,0,0,2,1,1,21,0002-00-0009-35.png,0004-00-0001-45.png
14,778,1,1444061068726,1444061069589,322,397,0,0,0,5,4,1,54,0001-00-0000-44.png,0005-00-0009-20.png
14,779,1,1444061069609,1444061070251,367,506,0,0,0,2,3,1,23,0002-00-0008-92.png,0003-00-0005-33.png
14,780,0,1444061070290,1444061070719,338,381,0,0,0,1,2,1,12,0004-00-0002-38.png,0002-00-0004-21.png
14,781,1,1444061070745,1444061071239,305,410,0,0,0,5,4,1,54,0001-00-0008-00.png,0005-00-0000-15.png
14,782,0,1444061071265,1444061071678,899,405,0,0,0,3,4,1,34,0003-00-0000-64.png,0005-00-0004-16.png
14,783,1,1444061071700,1444061072370,912,398,0,0,0,4,3,1,43,0005-00-0008-21.png,0003-00-0000-94.png
14,784,1,1444061072408,1444061072985,902,390,0,0,0,3,2,1,32,0003-00-0006-03.png,0002-00-0000-48.png
14,785,1,1444061073012,1444061073282,334,414,0,0,0,2,1,1,21,0002-00-0006-23.png,0004-00-0009-13.png
14,786,1,1444061073323,1444061073777,872,431,0,0,0,5,4,1,54,0001-00-0006-30.png,0005-00-0009-93.png
14,787,1,1444061073807,1444061074680,350,504,0,0,0,1,2,1,12,0004-00-0001-40.png,0002-00-0000-64.png
14,788,0,1444061074728,1444061075243,306,393,0,0,0,3,2,1,32,0003-00-0006-23.png,0002-00-0003-44.png
14,789,1,1444061075262,1444061075848,904,402,0,0,0,2,3,1,23,0002-00-0004-42.png,0003-00-0006-99.png
14,790,1,1444061075880,1444061076485,386,410,0,0,0,4,3,1,43,0005-00-0005-32.png,0003-00-0003-06.png
14,791,1,1444061076515,1444061076907,900,460,0,0,0,5,4,1,54,0001-00-0001-11.png,0005-00-0004-86.png
14,792,0,1444061076935,1444061077246,421,479,0,0,0,3,4,1,34,0003-00-0009-40.png,0005-00-0002-02.png
14,793,0,1444061077267,1444061078173,344,447,0,0,0,5,4,1,54,0001-00-0008-03.png,0005-00-0009-34.png
14,794,0,1444061078197,1444061079206,332,406,0,0,0,2,1,1,21,0002-00-0004-81.png,0004-00-0006-66.png
14,795,1,1444061079228,1444061080214,876,441,0,0,0,4,3,1,43,0005-00-0004-50.png,0003-00-0004-69.png
14,796,1,1444061080237,1444061080579,311,386,0,0,0,5,4,1,54,0001-00-0005-08.png,0005-00-0008-94.png
14,797,0,1444061080606,1444061081387,889,527,0,0,0,3,2,1,32,0003-00-0002-72.png,0002-00-0009-09.png
14,798,1,1444061081416,1444061081642,883,429,0,0,0,2,3,1,23,0002-00-0002-12.png,0003-00-0003-78.png
14,799,0,1444061081675,1444061083090,873,458,0,0,0,1,2,1,12,0004-00-0004-02.png,0002-00-0009-01.png
14,800,0,1444061083114,1444061083686,889,440,0,0,0,3,4,1,34,0003-00-0001-92.png,0005-00-0007-67.png
14,801,1,1444061083707,1444061084110,341,401,0,0,0,3,4,1,34,0003-00-0000-69.png,0005-00-0006-25.png
14,802,0,1444061084138,1444061084374,350,410,0,0,0,1,2,1,12,0004-00-0008-45.png,0002-00-0003-70.png
14,803,0,1444061084395,1444061084945,862,424,0,0,0,5,4,1,54,0001-00-0000-32.png,0005-00-0005-13.png
14,804,0,1444061084967,1444061085534,307,402,0,0,0,2,3,1,23,0002-00-0003-75.png,0003-00-0001-93.png
14,805,1,1444061085564,1444061086381,868,483,0,0,0,4,3,1,43,0005-00-0005-13.png,0003-00-0004-92.png
14,806,0,1444061086406,1444061087063,387,502,0,0,0,5,4,1,54,0001-00-0000-35.png,0005-00-0002-27.png
14,807,0,1444061087079,1444061087576,902,424,0,0,0,2,1,1,21,0002-00-0003-44.png,0004-00-0006-88.png
14,808,0,1444061087599,1444061088134,385,496,0,0,0,3,2,1,32,0003-00-0001-41.png,0002-00-0009-57.png
14,809,0,1444061088171,1444061088955,396,531,0,0,0,4,3,1,43,0005-00-0002-64.png,0003-00-0001-81.png
14,810,0,1444061088986,1444061089474,376,410,0,0,0,3,4,1,34,0003-00-0002-40.png,0005-00-0003-89.png
14,811,1,1444061089530,1444061090037,875,424,0,0,0,2,1,1,21,0002-00-0002-33.png,0004-00-0005-69.png
14,812,1,1444061090067,1444061090302,346,416,0,0,0,1,2,1,12,0004-00-0005-42.png,0002-00-0005-85.png
14,813,0,1444061090342,1444061090592,904,402,0,0,0,2,3,1,23,0002-00-0008-19.png,0003-00-0004-86.png
14,814,1,1444061090631,1444061091243,862,450,0,0,0,3,2,1,32,0003-00-0000-87.png,0002-00-0000-67.png
14,815,0,1444061091274,1444061091556,339,401,0,0,0,5,4,1,54,0001-00-0004-97.png,0005-00-0003-32.png
14,816,1,1444061091593,1444061092394,350,398,0,0,0,5,4,1,54,0001-00-0004-87.png,0005-00-0008-46.png
14,817,1,1444061092429,1444061092668,401,491,0,0,0,3,4,1,34,0003-00-0007-60.png,0005-00-0005-64.png
14,818,0,1444061092693,1444061093174,418,508,0,0,0,2,3,1,23,0002-00-0005-31.png,0003-00-0008-48.png
14,819,1,1444061093215,1444061093630,516,443,0,0,0,3,2,1,32,0003-00-0006-70.png,0002-00-0003-27.png
14,820,1,1444061093681,1444061094647,345,400,0,0,0,5,4,1,54,0001-00-0000-92.png,0005-00-0005-34.png
14,821,1,1444061094671,1444061094887,879,428,0,0,0,1,2,1,12,0004-00-0005-91.png,0002-00-0007-82.png
14,822,0,1444061094928,1444061095204,363,490,0,0,0,4,3,1,43,0005-00-0006-23.png,0003-00-0000-48.png
14,823,0,1444061095228,1444061095398,427,384,0,0,0,2,1,1,21,0002-00-0003-29.png,0004-00-0001-78.png
14,824,0,1444061095433,1444061096526,520,410,0,0,0,5,4,1,54,0001-00-0000-51.png,0005-00-0006-85.png
14,825,0,1444061096561,1444061097313,319,399,0,0,0,1,2,1,12,0004-00-0003-54.png,0002-00-0005-02.png
14,826,1,1444061097337,1444061098200,291,401,0,0,0,3,4,1,34,0003-00-0009-97.png,0005-00-0006-38.png
14,827,1,1444061098246,1444061099161,392,508,0,0,0,3,2,1,32,0003-00-0004-13.png,0002-00-0002-40.png
14,828,0,1444061099203,1444061099636,900,437,0,0,0,4,3,1,43,0005-00-0000-59.png,0003-00-0000-86.png
14,829,1,1444061099660,1444061100090,348,409,0,0,0,2,1,1,21,0002-00-0006-03.png,0004-00-0007-34.png
14,830,0,1444061100137,1444061100467,886,424,0,0,0,5,4,1,54,0001-00-0001-78.png,0005-00-0007-26.png
14,831,1,1444061100499,1444061100750,336,391,0,0,0,5,4,1,54,0001-00-0006-06.png,0005-00-0007-97.png
14,832,1,1444061100778,1444061101175,352,410,0,0,0,2,3,1,23,0002-00-0001-33.png,0003-00-0002-85.png
14,833,0,1444061101203,1444061101604,905,427,0,0,0,5,4,1,54,0001-00-0008-68.png,0005-00-0004-23.png
14,834,0,1444061101632,1444061101926,324,377,0,0,0,2,3,1,23,0002-00-0009-95.png,0003-00-0005-21.png
14,835,0,1444061101954,1444061102551,335,389,0,0,0,1,2,1,12,0004-00-0009-25.png,0002-00-0004-65.png
14,836,0,1444061102585,1444061103979,323,422,0,0,0,5,4,1,54,0001-00-0001-07.png,0005-00-0004-91.png
14,837,1,1444061104011,1444061105096,396,511,0,0,0,3,4,1,34,0003-00-0007-68.png,0005-00-0001-76.png
14,838,0,1444061105123,1444061105580,930,428,0,0,0,2,1,1,21,0002-00-0004-90.png,0004-00-0000-88.png
14,839,0,1444061105625,1444061106230,504,374,0,0,0,3,2,1,32,0003-00-0005-13.png,0002-00-0006-40.png
14,840,0,1444061106268,1444061106658,943,378,0,0,0,4,3,1,43,0005-00-0001-36.png,0003-00-0000-61.png
14,841,1,1444061106677,1444061107108,886,424,0,0,0,2,3,1,23,0002-00-0009-13.png,0003-00-0004-17.png
14,842,1,1444061107131,1444061107361,334,400,0,0,0,3,2,1,32,0003-00-0003-50.png,0002-00-0002-96.png
14,843,1,1444061107387,1444061107912,887,490,0,0,0,5,4,1,54,0001-00-0007-20.png,0005-00-0006-12.png
14,844,1,1444061107943,1444061108522,387,534,0,0,0,4,3,1,43,0005-00-0004-30.png,0003-00-0008-75.png
14,845,1,1444061108558,1444061109156,376,384,0,0,0,2,1,1,21,0002-00-0009-15.png,0004-00-0002-96.png
14,846,1,1444061109178,1444061109786,349,428,0,0,0,5,4,1,54,0001-00-0000-79.png,0005-00-0007-70.png
14,847,1,1444061109808,1444061110331,413,398,0,0,0,1,2,1,12,0004-00-0006-08.png,0002-00-0001-76.png
14,848,1,1444061110358,1444061110636,895,423,0,0,0,3,4,1,34,0003-00-0003-43.png,0005-00-0009-91.png
14,849,1,1444061110674,1444061110966,879,428,0,0,0,4,3,1,43,0005-00-0000-93.png,0003-00-0007-57.png
14,850,1,1444061111002,1444061112124,902,416,0,0,0,2,3,1,23,0002-00-0002-37.png,0003-00-0000-71.png
14,851,1,1444061112159,1444061113214,325,423,0,0,0,2,1,1,21,0002-00-0005-26.png,0004-00-0004-04.png
14,852,1,1444061113250,1444061115092,877,443,0,0,0,3,2,1,32,0003-00-0007-60.png,0002-00-0004-86.png
14,853,1,1444061115117,1444061115451,904,402,0,0,0,5,4,1,54,0001-00-0005-61.png,0005-00-0001-51.png
14,854,0,1444061115476,1444061116268,919,426,0,0,0,1,2,1,12,0004-00-0006-35.png,0002-00-0006-57.png
14,855,1,1444061116294,1444061116651,350,423,0,0,0,5,4,1,54,0001-00-0002-96.png,0005-00-0006-10.png
14,856,0,1444061116667,1444061117155,888,450,0,0,0,3,4,1,34,0003-00-0006-82.png,0005-00-0007-96.png
14,857,1,1444061117184,1444061118102,401,410,0,0,0,3,4,1,34,0003-00-0000-63.png,0005-00-0006-64.png
14,858,0,1444061118133,1444061118511,879,453,0,0,0,1,2,1,12,0004-00-0004-88.png,0002-00-0001-59.png
14,859,0,1444061118548,1444061119620,325,398,0,0,0,3,2,1,32,0003-00-0004-59.png,0002-00-0005-01.png
14,860,0,1444061119650,1444061120597,887,424,0,0,0,4,3,1,43,0005-00-0004-12.png,0003-00-0009-73.png
14,861,0,1444061120629,1444061121059,393,519,0,0,0,5,4,1,54,0001-00-0004-08.png,0005-00-0000-70.png
14,862,1,1444061121098,1444061121579,888,410,0,0,0,2,1,1,21,0002-00-0007-79.png,0004-00-0000-33.png
14,863,1,1444061121593,1444061122489,888,424,0,0,0,5,4,1,54,0001-00-0004-11.png,0005-00-0000-28.png
14,864,0,1444061122509,1444061122919,878,440,0,0,0,2,3,1,23,0002-00-0003-76.png,0003-00-0008-77.png
14,865,1,1444061122950,1444061123549,340,367,0,0,0,1,2,1,12,0004-00-0004-26.png,0002-00-0006-96.png
14,866,1,1444061123575,1444061123910,401,384,0,0,0,5,4,1,54,0001-00-0001-90.png,0005-00-0005-88.png
14,867,1,1444061123959,1444061124226,356,377,0,0,0,3,2,1,32,0003-00-0002-67.png,0002-00-0009-48.png
14,868,1,1444061124257,1444061124872,899,491,0,0,0,5,4,1,54,0001-00-0002-74.png,0005-00-0002-13.png
14,869,1,1444061124894,1444061125567,329,427,0,0,0,4,3,1,43,0005-00-0003-71.png,0003-00-0007-19.png
14,870,0,1444061125593,1444061125917,920,388,0,0,0,2,1,1,21,0002-00-0006-78.png,0004-00-0007-31.png
14,871,0,1444061125945,1444061126656,293,358,0,0,0,3,4,1,34,0003-00-0004-61.png,0005-00-0007-01.png
14,872,0,1444061126685,1444061127067,896,498,0,0,0,2,3,1,23,0002-00-0002-70.png,0003-00-0000-31.png
14,873,1,1444061127098,1444061127512,895,423,0,0,0,4,3,1,43,0005-00-0002-74.png,0003-00-0003-31.png
14,874,1,1444061127536,1444061128910,356,517,0,0,0,2,3,1,23,0002-00-0000-95.png,0003-00-0007-37.png
14,875,1,1444061128942,1444061129485,875,448,0,0,0,3,2,1,32,0003-00-0001-91.png,0002-00-0007-30.png
14,876,0,1444061129506,1444061129804,357,419,0,0,0,1,2,1,12,0004-00-0000-23.png,0002-00-0000-53.png
14,877,1,1444061129831,1444061130093,888,397,0,0,0,5,4,1,54,0001-00-0001-39.png,0005-00-0009-18.png
14,878,1,1444061130117,1444061131106,876,462,0,0,0,2,1,1,21,0002-00-0009-58.png,0004-00-0004-98.png
14,879,1,1444061131133,1444061131682,392,481,0,0,0,5,4,1,54,0001-00-0002-21.png,0005-00-0004-03.png
14,880,0,1444061131714,1444061132206,875,508,0,0,0,3,4,1,34,0003-00-0008-81.png,0005-00-0001-75.png
14,881,0,1444061132226,1444061132837,350,414,0,0,0,5,4,1,54,0001-00-0009-29.png,0005-00-0005-71.png
14,882,1,1444061132859,1444061133102,323,406,0,0,0,3,2,1,32,0003-00-0003-61.png,0002-00-0007-91.png
14,883,1,1444061133132,1444061133492,390,514,0,0,0,5,4,1,54,0001-00-0001-46.png,0005-00-0005-56.png
14,884,0,1444061133516,1444061133677,877,443,0,0,0,2,3,1,23,0002-00-0000-31.png,0003-00-0002-08.png
14,885,0,1444061133707,1444061134208,876,449,0,0,0,1,2,1,12,0004-00-0001-28.png,0002-00-0005-49.png
14,886,1,1444061134236,1444061134732,379,535,0,0,0,3,4,1,34,0003-00-0002-36.png,0005-00-0005-62.png
14,887,1,1444061134758,1444061135600,872,534,0,0,0,2,1,1,21,0002-00-0004-69.png,0004-00-0001-34.png
14,888,0,1444061135633,1444061136051,419,524,0,0,0,4,3,1,43,0005-00-0001-02.png,0003-00-0005-71.png
14,889,1,1444061136086,1444061136442,328,389,0,0,0,5,4,1,54,0001-00-0006-16.png,0005-00-0000-31.png
14,890,0,1444061136476,1444061136932,865,461,0,0,0,5,4,1,54,0001-00-0007-21.png,0005-00-0004-13.png
14,891,1,1444061136953,1444061137722,375,433,0,0,0,3,4,1,34,0003-00-0003-90.png,0005-00-0003-90.png
14,892,0,1444061137746,1444061137924,298,409,0,0,0,4,3,1,43,0005-00-0002-19.png,0003-00-0005-09.png
14,893,0,1444061137947,1444061138345,874,528,0,0,0,1,2,1,12,0004-00-0006-28.png,0002-00-0000-90.png
14,894,1,1444061138380,1444061138950,914,397,0,0,0,2,1,1,21,0002-00-0005-96.png,0004-00-0003-50.png
14,895,1,1444061138969,1444061139198,879,506,0,0,0,2,3,1,23,0002-00-0002-14.png,0003-00-0003-99.png
14,896,1,1444061139224,1444061139813,392,482,0,0,0,3,2,1,32,0003-00-0005-43.png,0002-00-0001-27.png
14,897,1,1444061139845,1444061140321,504,410,0,0,0,1,2,1,12,0004-00-0006-95.png,0002-00-0002-65.png
14,898,1,1444061140353,1444061140743,920,423,0,0,0,3,2,1,32,0003-00-0007-42.png,0002-00-0006-51.png
14,899,0,1444061140768,1444061141066,312,391,0,0,0,3,4,1,34,0003-00-0006-24.png,0005-00-0000-27.png
14,900,0,1444061141087,1444061141598,926,410,0,0,0,2,3,1,23,0002-00-0003-17.png,0003-00-0009-97.png
14,901,0,1444061141629,1444061142139,862,521,0,0,0,4,3,1,43,0005-00-0007-58.png,0003-00-0000-89.png
14,902,1,1444061142166,1444061142443,314,391,0,0,0,5,4,1,54,0001-00-0008-67.png,0005-00-0002-24.png
14,903,1,1444061142462,1444061143155,888,449,0,0,0,2,1,1,21,0002-00-0006-34.png,0004-00-0007-99.png
14,904,0,1444061143188,1444061143682,336,426,0,0,0,5,4,1,54,0001-00-0008-33.png,0005-00-0007-52.png
14,905,0,1444061143712,1444061144246,387,424,0,0,0,3,4,1,34,0003-00-0009-45.png,0005-00-0000-25.png
14,906,1,1444061144274,1444061144738,364,429,0,0,0,3,2,1,32,0003-00-0008-07.png,0002-00-0008-76.png
14,907,1,1444061144773,1444061145364,401,504,0,0,0,5,4,1,54,0001-00-0004-18.png,0005-00-0001-76.png
14,908,1,1444061145394,1444061145759,880,438,0,0,0,1,2,1,12,0004-00-0009-11.png,0002-00-0001-24.png
14,909,1,1444061145778,1444061146236,325,423,0,0,0,5,4,1,54,0001-00-0009-84.png,0005-00-0009-68.png
14,910,1,1444061146260,1444061146819,868,512,0,0,0,4,3,1,43,0005-00-0003-65.png,0003-00-0001-50.png
14,911,0,1444061146857,1444061147152,900,436,0,0,0,2,3,1,23,0002-00-0000-91.png,0003-00-0001-13.png
14,912,1,1444061147175,1444061147540,908,403,0,0,0,2,1,1,21,0002-00-0009-02.png,0004-00-0009-29.png
14,913,1,1444061147562,1444061147878,376,477,0,0,0,4,3,1,43,0005-00-0006-70.png,0003-00-0009-17.png
14,914,1,1444061147903,1444061148452,926,385,0,0,0,1,2,1,12,0004-00-0007-42.png,0002-00-0005-14.png
14,915,0,1444061148475,1444061149395,363,514,0,0,0,2,3,1,23,0002-00-0002-41.png,0003-00-0005-74.png
14,916,0,1444061149447,1444061150006,875,409,0,0,0,5,4,1,54,0001-00-0004-66.png,0005-00-0004-60.png
14,917,0,1444061150044,1444061150682,391,490,0,0,0,3,4,1,34,0003-00-0002-23.png,0005-00-0006-90.png
14,918,0,1444061150710,1444061151020,317,364,0,0,0,5,4,1,54,0001-00-0007-79.png,0005-00-0006-75.png
14,919,0,1444061151041,1444061151255,887,424,0,0,0,2,1,1,21,0002-00-0009-72.png,0004-00-0005-75.png
14,920,1,1444061151287,1444061151580,362,410,0,0,0,3,2,1,32,0003-00-0001-67.png,0002-00-0003-86.png
14,921,1,1444061151605,1444061152313,391,494,0,0,0,2,3,1,23,0002-00-0005-27.png,0003-00-0005-70.png
14,922,1,1444061152343,1444061152888,875,396,0,0,0,3,4,1,34,0003-00-0003-16.png,0005-00-0009-75.png
14,923,1,1444061152922,1444061154018,366,492,0,0,0,3,2,1,32,0003-00-0002-19.png,0002-00-0008-61.png
14,924,0,1444061154044,1444061154683,913,424,0,0,0,4,3,1,43,0005-00-0009-96.png,0003-00-0003-86.png
14,925,1,1444061154710,1444061155333,350,423,0,0,0,5,4,1,54,0001-00-0001-79.png,0005-00-0006-86.png
14,926,0,1444061155364,1444061155581,350,342,0,0,0,5,4,1,54,0001-00-0008-82.png,0005-00-0006-63.png
14,927,1,1444061155612,1444061155922,376,398,0,0,0,1,2,1,12,0004-00-0007-51.png,0002-00-0003-58.png
14,928,0,1444061155946,1444061156105,876,518,0,0,0,2,1,1,21,0002-00-0001-53.png,0004-00-0000-16.png
14,929,0,1444061156143,1444061156651,874,517,0,0,0,2,3,1,23,0002-00-0001-36.png,0003-00-0000-45.png
14,930,1,1444061156688,1444061156984,874,412,0,0,0,5,4,1,54,0001-00-0005-24.png,0005-00-0009-23.png
14,931,0,1444061157017,1444061157295,360,390,0,0,0,4,3,1,43,0005-00-0001-05.png,0003-00-0005-68.png
14,932,0,1444061157319,1444061157809,875,436,0,0,0,1,2,1,12,0004-00-0000-62.png,0002-00-0005-49.png
14,933,1,1444061157854,1444061159005,888,410,0,0,0,3,2,1,32,0003-00-0009-98.png,0002-00-0005-24.png
14,934,0,1444061159029,1444061159381,900,429,0,0,0,2,1,1,21,0002-00-0003-19.png,0004-00-0004-05.png
14,935,1,1444061159417,1444061160005,385,467,0,0,0,3,4,1,34,0003-00-0005-13.png,0005-00-0005-51.png
14,936,1,1444061160021,1444061160566,869,423,0,0,0,5,4,1,54,0001-00-0008-63.png,0005-00-0000-55.png
14,937,1,1444061160599,1444061161275,416,489,0,0,0,2,3,1,23,0002-00-0003-03.png,0003-00-0003-78.png
14,938,1,1444061161310,1444061162128,407,403,0,0,0,3,4,1,34,0003-00-0008-43.png,0005-00-0004-06.png
14,939,1,1444061162176,1444061162525,873,508,0,0,0,5,4,1,54,0001-00-0002-65.png,0005-00-0009-02.png
14,940,1,1444061162564,1444061162927,341,413,0,0,0,2,1,1,21,0002-00-0007-98.png,0004-00-0009-94.png
14,941,1,1444061162948,1444061163415,389,404,0,0,0,1,2,1,12,0004-00-0000-48.png,0002-00-0005-04.png
14,942,0,1444061163451,1444061164310,385,398,0,0,0,5,4,1,54,0001-00-0002-51.png,0005-00-0007-49.png
14,943,1,1444061164341,1444061164658,344,399,0,0,0,3,2,1,32,0003-00-0002-83.png,0002-00-0008-80.png
14,944,1,1444061164689,1444061164863,913,410,0,0,0,4,3,1,43,0005-00-0004-76.png,0003-00-0002-58.png
14,945,0,1444061164883,1444061165187,340,430,0,0,0,5,4,1,54,0001-00-0007-80.png,0005-00-0008-25.png
14,946,1,1444061165221,1444061166001,360,428,0,0,0,3,4,1,34,0003-00-0005-38.png,0005-00-0007-10.png
14,947,1,1444061166022,1444061166489,896,524,0,0,0,1,2,1,12,0004-00-0002-49.png,0002-00-0001-52.png
14,948,0,1444061166518,1444061166727,364,419,0,0,0,5,4,1,54,0001-00-0002-68.png,0005-00-0006-85.png
14,949,1,1444061166767,1444061167251,906,402,0,0,0,4,3,1,43,0005-00-0001-56.png,0003-00-0002-23.png
14,950,1,1444061167279,1444061168363,371,454,0,0,0,2,3,1,23,0002-00-0004-92.png,0003-00-0006-90.png
14,951,0,1444061168385,1444061168744,332,401,0,0,0,2,1,1,21,0002-00-0009-31.png,0004-00-0001-86.png
14,952,1,1444061168774,1444061169379,512,443,0,0,0,3,2,1,32,0003-00-0001-23.png,0002-00-0000-60.png
14,953,0,1444061169405,1444061169805,315,402,0,0,0,3,2,1,32,0003-00-0001-23.png,0002-00-0008-68.png
14,954,0,1444061169839,1444061170619,345,406,0,0,0,3,4,1,34,0003-00-0005-43.png,0005-00-0008-76.png
14,955,1,1444061170652,1444061171568,356,410,0,0,0,4,3,1,43,0005-00-0008-60.png,0003-00-0007-48.png
14,956,1,1444061171605,1444061172266,322,400,0,0,0,1,2,1,12,0004-00-0003-29.png,0002-00-0001-67.png
14,957,0,1444061172292,1444061174175,407,505,0,0,0,5,4,1,54,0001-00-0009-48.png,0005-00-0003-87.png
14,958,0,1444061174197,1444061174790,385,423,0,0,0,2,3,1,23,0002-00-0004-33.png,0003-00-0009-75.png
14,959,1,1444061174839,1444061175637,875,436,0,0,0,5,4,1,54,0001-00-0008-67.png,0005-00-0006-11.png
14,960,1,1444061175659,1444061176295,364,442,0,0,0,2,1,1,21,0002-00-0008-87.png,0004-00-0004-62.png
14,961,1,1444061176321,1444061176730,320,334,0,0,0,5,4,1,54,0001-00-0006-55.png,0005-00-0007-69.png
14,962,1,1444061176757,1444061177061,289,375,0,0,0,1,2,1,12,0004-00-0000-22.png,0002-00-0008-73.png
14,963,1,1444061177085,1444061177691,363,437,0,0,0,4,3,1,43,0005-00-0008-35.png,0003-00-0003-73.png
14,964,0,1444061177711,1444061177955,861,451,0,0,0,2,1,1,21,0002-00-0001-39.png,0004-00-0001-65.png
14,965,1,1444061177976,1444061178767,388,475,0,0,0,2,3,1,23,0002-00-0009-52.png,0003-00-0006-81.png
14,966,0,1444061178792,1444061179175,891,533,0,0,0,5,4,1,54,0001-00-0002-02.png,0005-00-0005-32.png
14,967,0,1444061179208,1444061179712,900,517,0,0,0,3,4,1,34,0003-00-0001-58.png,0005-00-0003-54.png
14,968,0,1444061179732,1444061179913,894,485,0,0,0,3,2,1,32,0003-00-0001-13.png,0002-00-0006-92.png
14,969,0,1444061179947,1444061180481,876,544,0,0,0,2,1,1,21,0002-00-0006-23.png,0004-00-0002-24.png
14,970,0,1444061180504,1444061180675,876,410,0,0,0,3,4,1,34,0003-00-0009-11.png,0005-00-0008-64.png
14,971,1,1444061180699,1444061181077,422,524,0,0,0,5,4,1,54,0001-00-0000-65.png,0005-00-0006-50.png
14,972,1,1444061181097,1444061181761,873,436,0,0,0,1,2,1,12,0004-00-0007-00.png,0002-00-0006-87.png
14,973,0,1444061181799,1444061182166,875,449,0,0,0,2,3,1,23,0002-00-0001-73.png,0003-00-0009-54.png
14,974,1,1444061182188,1444061182489,370,436,0,0,0,5,4,1,54,0001-00-0006-47.png,0005-00-0001-33.png
14,975,0,1444061182513,1444061182841,394,491,0,0,0,4,3,1,43,0005-00-0008-74.png,0003-00-0005-93.png
14,976,1,1444061182862,1444061183782,874,487,0,0,0,3,2,1,32,0003-00-0003-00.png,0002-00-0000-18.png
14,977,1,1444061183820,1444061184301,414,490,0,0,0,4,3,1,43,0005-00-0006-07.png,0003-00-0009-56.png
14,978,0,1444061184316,1444061184625,876,501,0,0,0,2,1,1,21,0002-00-0008-82.png,0004-00-0000-55.png
14,979,0,1444061184651,1444061184921,396,504,0,0,0,3,4,1,34,0003-00-0006-75.png,0005-00-0002-17.png
14,980,1,1444061184971,1444061185560,388,436,0,0,0,1,2,1,12,0004-00-0006-35.png,0002-00-0009-59.png
14,981,1,1444061185580,1444061185967,317,378,0,0,0,2,3,1,23,0002-00-0005-72.png,0003-00-0000-30.png
14,982,0,1444061185993,1444061187216,896,446,0,0,0,5,4,1,54,0001-00-0005-41.png,0005-00-0004-52.png
14,983,0,1444061187245,1444061188012,880,429,0,0,0,3,2,1,32,0003-00-0006-61.png,0002-00-0001-87.png
14,984,1,1444061188043,1444061188550,373,423,0,0,0,5,4,1,54,0001-00-0008-76.png,0005-00-0000-26.png
14,985,0,1444061188580,1444061189388,453,472,0,0,0,4,3,1,43,0005-00-0008-13.png,0003-00-0006-64.png
14,986,1,1444061189421,1444061189588,328,414,0,0,0,5,4,1,54,0001-00-0002-53.png,0005-00-0000-43.png
14,987,1,1444061189614,1444061189827,896,446,0,0,0,1,2,1,12,0004-00-0001-76.png,0002-00-0000-68.png
14,988,1,1444061189862,1444061190407,376,410,0,0,0,3,4,1,34,0003-00-0005-15.png,0005-00-0009-75.png
14,989,0,1444061190422,1444061190781,886,425,0,0,0,3,2,1,32,0003-00-0000-54.png,0002-00-0004-42.png
