subject_id,trial,correct_response,stim_time,response_time,x_coord,y_coord,trial_timeout,timeout_time,interTrial_timeout,left_rank,right_rank,distance,joint_rank,left_image,right_image
9,1,0,1444328280027,1444328280717,1067,188,0,0,0,2,3,1,23,0002-00-0008-59.png,0003-00-0005-66.png
9,2,1,1444328280748,1444328282734,987,336,0,0,0,3,2,1,32,0003-00-0006-17.png,0002-00-0004-14.png
9,3,0,1444328282761,1444328282811,419,215,0,0,0,4,3,1,43,0005-00-0003-13.png,0003-00-0006-17.png
9,4,0,1444328282841,1444328287089,1057,418,0,0,0,5,4,1,54,0001-00-0006-15.png,0005-00-0003-27.png
9,5,1,1444328287137,1444328287392,997,237,0,0,0,2,1,1,21,0002-00-0001-60.png,0004-00-0003-77.png
9,6,1,1444328287425,1444328288735,280,267,0,0,0,3,4,1,34,0003-00-0003-99.png,0005-00-0005-00.png
9,7,1,1444328288764,1444328289394,397,262,0,0,0,5,4,1,54,0001-00-0009-17.png,0005-00-0001-07.png
9,8,0,1444328289439,1444328289984,435,278,0,0,0,1,2,1,12,0004-00-0009-59.png,0002-00-0001-12.png
9,9,1,1444328290009,1444328290040,959,299,0,0,0,3,4,1,34,0003-00-0003-70.png,0005-00-0006-52.png
9,10,0,1444328290067,1444328290242,904,349,0,0,0,5,4,1,54,0001-00-0009-90.png,0005-00-0009-52.png
9,11,1,1444328290269,1444328290974,332,351,0,0,0,4,3,1,43,0005-00-0007-75.png,0003-00-0004-93.png
9,12,0,1444328291026,1444328291037,935,283,0,0,0,3,2,1,32,0003-00-0006-87.png,0002-00-0004-17.png
9,13,1,1444328291079,1444328291761,984,276,0,0,0,5,4,1,54,0001-00-0006-13.png,0005-00-0005-77.png
9,14,1,1444328291781,1444328293783,937,319,0,0,0,2,3,1,23,0002-00-0008-85.png,0003-00-0008-54.png
9,15,0,1444328293804,1444328293827,417,266,0,0,0,1,2,1,12,0004-00-0009-26.png,0002-00-0003-62.png
9,16,1,1444328293850,1444328294094,435,262,0,0,0,2,1,1,21,0002-00-0008-29.png,0004-00-0003-88.png
9,17,0,1444328294115,1444328294418,1015,245,0,0,0,3,4,1,34,0003-00-0005-93.png,0005-00-0001-65.png
9,18,1,1444328294449,1444328296390,924,348,0,0,0,5,4,1,54,0001-00-0003-46.png,0005-00-0006-92.png
9,19,1,1444328296423,1444328296959,1016,262,0,0,0,3,2,1,32,0003-00-0007-96.png,0002-00-0005-16.png
9,20,0,1444328296991,1444328299055,496,260,0,0,0,2,1,1,21,0002-00-0008-79.png,0004-00-0000-12.png
9,21,1,1444328299083,1444328300407,985,306,0,0,0,1,2,1,12,0004-00-0000-89.png,0002-00-0003-46.png
9,22,1,1444328300433,1444328300484,942,351,0,0,0,2,3,1,23,0002-00-0002-05.png,0003-00-0007-23.png
9,23,0,1444328300509,1444328307031,466,249,0,0,0,4,3,1,43,0005-00-0007-70.png,0003-00-0003-69.png
9,24,1,1444328307060,1444328307105,870,369,0,0,0,5,4,1,54,0001-00-0000-70.png,0005-00-0009-84.png
9,25,0,1444328307124,1444328307434,904,401,0,0,0,1,2,1,12,0004-00-0009-43.png,0002-00-0009-17.png
9,26,1,1444328307471,1444328307735,932,369,0,0,0,3,2,1,32,0003-00-0003-40.png,0002-00-0006-92.png
9,27,0,1444328307759,1444328307817,903,382,0,0,0,4,3,1,43,0005-00-0000-15.png,0003-00-0001-66.png
9,28,0,1444328307844,1444328309721,334,301,0,0,0,5,4,1,54,0001-00-0002-50.png,0005-00-0003-08.png
9,29,1,1444328309764,1444328311077,879,349,0,0,0,3,4,1,34,0003-00-0009-25.png,0005-00-0009-37.png
9,30,1,1444328311104,1444328311259,889,393,0,0,0,2,1,1,21,0002-00-0009-85.png,0004-00-0007-73.png
9,31,0,1444328311293,1444328311325,922,377,0,0,0,2,3,1,23,0002-00-0006-26.png,0003-00-0003-30.png
9,32,1,1444328311365,1444328312145,451,246,0,0,0,5,4,1,54,0001-00-0003-31.png,0005-00-0008-19.png
9,33,1,1444328312174,1444328312554,892,334,0,0,0,2,3,1,23,0002-00-0003-92.png,0003-00-0008-08.png
9,34,0,1444328312580,1444328312924,1067,221,0,0,0,3,2,1,32,0003-00-0005-52.png,0002-00-0001-42.png
9,35,0,1444328312951,1444328313227,933,350,0,0,0,2,1,1,21,0002-00-0002-13.png,0004-00-0000-25.png
9,36,0,1444328313262,1444328313471,403,342,0,0,0,5,4,1,54,0001-00-0005-10.png,0005-00-0009-84.png
9,37,1,1444328313508,1444328313529,913,366,0,0,0,3,4,1,34,0003-00-0005-39.png,0005-00-0006-33.png
9,38,1,1444328313555,1444328313949,904,375,0,0,0,1,2,1,12,0004-00-0008-96.png,0002-00-0002-66.png
9,39,0,1444328313974,1444328315557,888,361,0,0,0,4,3,1,43,0005-00-0002-02.png,0003-00-0001-86.png
9,40,1,1444328315584,1444328316191,920,391,0,0,0,5,4,1,54,0001-00-0001-63.png,0005-00-0007-28.png
9,41,1,1444328316224,1444328316488,936,365,0,0,0,3,2,1,32,0003-00-0005-24.png,0002-00-0009-80.png
9,42,0,1444328316505,1444328316688,881,390,0,0,0,5,4,1,54,0001-00-0009-82.png,0005-00-0000-83.png
9,43,1,1444328316725,1444328319476,453,218,0,0,0,3,4,1,34,0003-00-0001-20.png,0005-00-0007-03.png
9,44,1,1444328319504,1444328320015,894,363,0,0,0,2,3,1,23,0002-00-0000-18.png,0003-00-0005-28.png
9,45,0,1444328320046,1444328320700,1011,266,0,0,0,1,2,1,12,0004-00-0001-54.png,0002-00-0008-08.png
9,46,0,1444328320737,1444328320855,938,291,0,0,0,4,3,1,43,0005-00-0005-50.png,0003-00-0001-56.png
9,47,0,1444328320885,1444328321293,950,309,0,0,0,5,4,1,54,0001-00-0008-13.png,0005-00-0009-58.png
9,48,0,1444328321323,1444328321617,990,338,0,0,0,2,1,1,21,0002-00-0006-92.png,0004-00-0002-12.png
9,49,0,1444328321641,1444328321933,944,290,0,0,0,5,4,1,54,0001-00-0009-49.png,0005-00-0009-73.png
9,50,1,1444328321958,1444328323363,941,308,0,0,0,4,3,1,43,0005-00-0000-15.png,0003-00-0004-25.png
9,51,0,1444328323389,1444328323471,940,335,0,0,0,2,3,1,23,0002-00-0008-09.png,0003-00-0001-21.png
9,52,0,1444328323492,1444328324179,922,349,0,0,0,1,2,1,12,0004-00-0005-27.png,0002-00-0005-41.png
9,53,0,1444328324201,1444328324679,931,367,0,0,0,5,4,1,54,0001-00-0001-88.png,0005-00-0001-91.png
9,54,1,1444328324701,1444328324958,991,291,0,0,0,3,2,1,32,0003-00-0008-09.png,0002-00-0003-96.png
9,55,1,1444328324991,1444328325168,450,274,0,0,0,2,1,1,21,0002-00-0002-30.png,0004-00-0009-82.png
9,56,0,1444328325179,1444328325309,862,323,0,0,0,3,4,1,34,0003-00-0000-83.png,0005-00-0004-91.png
9,57,1,1444328325343,1444328325903,465,266,0,0,0,5,4,1,54,0001-00-0006-58.png,0005-00-0004-14.png
9,58,0,1444328325933,1444328326223,907,368,0,0,0,2,3,1,23,0002-00-0002-08.png,0003-00-0002-56.png
9,59,1,1444328326253,1444328328148,863,349,0,0,0,2,1,1,21,0002-00-0008-12.png,0004-00-0003-23.png
9,60,1,1444328328177,1444328328421,888,349,0,0,0,4,3,1,43,0005-00-0003-12.png,0003-00-0003-45.png
9,61,1,1444328328440,1444328328936,964,297,0,0,0,3,4,1,34,0003-00-0006-74.png,0005-00-0000-78.png
9,62,1,1444328328962,1444328329167,397,344,0,0,0,1,2,1,12,0004-00-0003-62.png,0002-00-0009-53.png
9,63,0,1444328329198,1444328329428,1044,263,0,0,0,5,4,1,54,0001-00-0006-09.png,0005-00-0000-27.png
9,64,1,1444328329468,1444328329715,438,218,0,0,0,3,2,1,32,0003-00-0001-24.png,0002-00-0009-54.png
9,65,0,1444328329738,1444328329770,427,256,0,0,0,4,3,1,43,0005-00-0003-19.png,0003-00-0008-70.png
9,66,1,1444328329798,1444328330191,410,212,0,0,0,5,4,1,54,0001-00-0000-49.png,0005-00-0005-59.png
9,67,1,1444328330221,1444328330495,1027,493,0,0,0,2,3,1,23,0002-00-0009-95.png,0003-00-0008-16.png
9,68,0,1444328330529,1444328331726,1079,245,0,0,0,3,2,1,32,0003-00-0004-21.png,0002-00-0003-95.png
9,69,1,1444328331756,1444328332344,1040,247,0,0,0,5,4,1,54,0001-00-0003-57.png,0005-00-0006-99.png
9,70,1,1444328332370,1444328333693,864,308,0,0,0,1,2,1,12,0004-00-0005-96.png,0002-00-0006-76.png
9,71,0,1444328333730,1444328334103,1068,219,0,0,0,2,1,1,21,0002-00-0001-18.png,0004-00-0009-15.png
9,72,0,1444328334137,1444328341159,923,336,0,0,0,3,4,1,34,0003-00-0008-16.png,0005-00-0009-10.png
9,73,1,1444328341193,1444328343233,963,271,0,0,0,4,3,1,43,0005-00-0008-35.png,0003-00-0008-85.png
9,74,1,1444328343258,1444328345786,964,286,0,0,0,3,4,1,34,0003-00-0005-61.png,0005-00-0009-67.png
9,75,1,1444328345812,1444328346093,925,363,0,0,0,1,2,1,12,0004-00-0004-02.png,0002-00-0002-19.png
9,76,0,1444328346109,1444328346226,862,375,0,0,0,2,3,1,23,0002-00-0003-76.png,0003-00-0001-65.png
9,77,1,1444328346244,1444328346306,991,355,0,0,0,2,1,1,21,0002-00-0002-97.png,0004-00-0007-01.png
9,78,0,1444328346324,1444328346412,431,222,0,0,0,5,4,1,54,0001-00-0004-67.png,0005-00-0009-12.png
9,79,1,1444328346457,1444328348996,393,338,0,0,0,3,2,1,32,0003-00-0002-47.png,0002-00-0005-42.png
9,80,1,1444328349020,1444328349168,328,319,0,0,0,5,4,1,54,0001-00-0007-60.png,0005-00-0001-34.png
9,81,1,1444328349195,1444328349608,879,445,0,0,0,5,4,1,54,0001-00-0007-28.png,0005-00-0008-68.png
9,82,1,1444328349644,1444328349848,991,271,0,0,0,4,3,1,43,0005-00-0003-08.png,0003-00-0008-12.png
9,83,1,1444328349877,1444328350085,437,227,0,0,0,5,4,1,54,0001-00-0009-57.png,0005-00-0007-77.png
9,84,0,1444328350129,1444328350566,865,312,0,0,0,2,3,1,23,0002-00-0006-67.png,0003-00-0008-59.png
9,85,0,1444328350595,1444328352025,963,271,0,0,0,3,4,1,34,0003-00-0009-44.png,0005-00-0009-47.png
9,86,1,1444328352058,1444328352569,1041,218,0,0,0,2,1,1,21,0002-00-0002-52.png,0004-00-0001-81.png
9,87,0,1444328352628,1444328352741,1041,218,0,0,0,1,2,1,12,0004-00-0008-75.png,0002-00-0009-25.png
9,88,1,1444328352760,1444328352786,983,252,0,0,0,3,2,1,32,0003-00-0007-07.png,0002-00-0006-67.png
9,89,1,1444328352810,1444328353277,1049,234,0,0,0,1,2,1,12,0004-00-0000-07.png,0002-00-0005-41.png
9,90,0,1444328353308,1444328353571,983,291,0,0,0,3,2,1,32,0003-00-0000-61.png,0002-00-0008-54.png
9,91,1,1444328353597,1444328355575,452,207,0,0,0,5,4,1,54,0001-00-0002-74.png,0005-00-0005-84.png
9,92,1,1444328355593,1444328355761,867,362,0,0,0,4,3,1,43,0005-00-0004-97.png,0003-00-0004-00.png
9,93,0,1444328355780,1444328356065,878,369,0,0,0,5,4,1,54,0001-00-0001-72.png,0005-00-0005-19.png
9,94,0,1444328356087,1444328356724,959,294,0,0,0,2,3,1,23,0002-00-0006-47.png,0003-00-0003-46.png
9,95,0,1444328356748,1444328356763,873,337,0,0,0,3,4,1,34,0003-00-0006-98.png,0005-00-0005-32.png
9,96,1,1444328356789,1444328359497,1083,269,0,0,0,2,1,1,21,0002-00-0006-37.png,0004-00-0006-10.png
9,97,1,1444328359518,1444328360291,896,353,0,0,0,4,3,1,43,0005-00-0002-71.png,0003-00-0001-79.png
9,98,1,1444328360333,1444328360461,443,224,0,0,0,2,3,1,23,0002-00-0001-34.png,0003-00-0004-65.png
9,99,0,1444328360488,1444328360897,1067,218,0,0,0,2,1,1,21,0002-00-0008-02.png,0004-00-0007-41.png
9,100,0,1444328360934,1444328361068,871,352,0,0,0,1,2,1,12,0004-00-0001-12.png,0002-00-0001-00.png
9,101,0,1444328361104,1444328361339,432,275,0,0,0,5,4,1,54,0001-00-0001-46.png,0005-00-0004-64.png
9,102,1,1444328361371,1444328361678,973,290,0,0,0,5,4,1,54,0001-00-0005-97.png,0005-00-0007-13.png
9,103,0,1444328361704,1444328362656,912,377,0,0,0,3,4,1,34,0003-00-0000-26.png,0005-00-0004-26.png
9,104,0,1444328362690,1444328362764,875,349,0,0,0,3,2,1,32,0003-00-0004-46.png,0002-00-0009-58.png
9,105,0,1444328362791,1444328362873,888,358,0,0,0,2,1,1,21,0002-00-0006-02.png,0004-00-0004-17.png
9,106,1,1444328362920,1444328364485,990,307,0,0,0,1,2,1,12,0004-00-0009-18.png,0002-00-0001-08.png
9,107,0,1444328364517,1444328364917,448,200,0,0,0,3,2,1,32,0003-00-0003-58.png,0002-00-0005-23.png
9,108,0,1444328364951,1444328367402,442,240,0,0,0,3,4,1,34,0003-00-0008-08.png,0005-00-0005-48.png
9,109,0,1444328367437,1444328367542,999,271,0,0,0,2,3,1,23,0002-00-0004-33.png,0003-00-0005-41.png
9,110,1,1444328367562,1444328369461,1092,217,0,0,0,5,4,1,54,0001-00-0001-62.png,0005-00-0007-02.png
9,111,0,1444328369482,1444328369690,478,246,0,0,0,4,3,1,43,0005-00-0009-27.png,0003-00-0008-36.png
9,112,1,1444328369735,1444328369903,1005,421,0,0,0,5,4,1,54,0001-00-0006-66.png,0005-00-0006-77.png
9,113,0,1444328369945,1444328370514,905,445,0,0,0,2,3,1,23,0002-00-0005-98.png,0003-00-0004-92.png
9,114,0,1444328370542,1444328371196,964,281,0,0,0,3,2,1,32,0003-00-0006-71.png,0002-00-0000-33.png
9,115,1,1444328371225,1444328371548,936,295,0,0,0,5,4,1,54,0001-00-0002-08.png,0005-00-0002-13.png
9,116,1,1444328371592,1444328372088,427,233,0,0,0,5,4,1,54,0001-00-0003-96.png,0005-00-0006-01.png
9,117,1,1444328372127,1444328372929,1067,218,0,0,0,1,2,1,12,0004-00-0000-98.png,0002-00-0004-17.png
9,118,1,1444328372961,1444328374325,912,366,0,0,0,3,4,1,34,0003-00-0009-12.png,0005-00-0006-78.png
9,119,1,1444328374358,1444328374484,446,230,0,0,0,4,3,1,43,0005-00-0003-78.png,0003-00-0001-96.png
9,120,1,1444328374525,1444328374688,1041,256,0,0,0,2,1,1,21,0002-00-0006-85.png,0004-00-0004-91.png
9,121,1,1444328374720,1444328375932,963,437,0,0,0,3,2,1,32,0003-00-0006-88.png,0002-00-0005-47.png
9,122,1,1444328375964,1444328376051,431,242,0,0,0,3,4,1,34,0003-00-0009-51.png,0005-00-0000-78.png
9,123,1,1444328376072,1444328376684,916,337,0,0,0,4,3,1,43,0005-00-0001-04.png,0003-00-0002-10.png
9,124,1,1444328376726,1444328376808,906,366,0,0,0,2,3,1,23,0002-00-0007-76.png,0003-00-0000-25.png
9,125,0,1444328376827,1444328378138,994,291,0,0,0,5,4,1,54,0001-00-0004-86.png,0005-00-0001-81.png
9,126,1,1444328378172,1444328378964,1092,259,0,0,0,2,1,1,21,0002-00-0002-13.png,0004-00-0006-71.png
9,127,0,1444328378983,1444328379027,872,369,0,0,0,1,2,1,12,0004-00-0003-91.png,0002-00-0002-90.png
9,128,0,1444328379056,1444328379299,479,224,0,0,0,5,4,1,54,0001-00-0008-79.png,0005-00-0002-84.png
9,129,0,1444328379340,1444328381413,1071,248,0,0,0,4,3,1,43,0005-00-0000-03.png,0003-00-0006-13.png
9,130,1,1444328381450,1444328381712,862,323,0,0,0,5,4,1,54,0001-00-0000-40.png,0005-00-0002-68.png
9,131,1,1444328381740,1444328381877,1094,239,0,0,0,3,2,1,32,0003-00-0006-42.png,0002-00-0006-26.png
9,132,0,1444328381894,1444328384656,941,286,0,0,0,5,4,1,54,0001-00-0009-16.png,0005-00-0006-94.png
9,133,0,1444328384701,1444328385246,888,386,0,0,0,3,4,1,34,0003-00-0002-37.png,0005-00-0003-86.png
9,134,1,1444328385269,1444328385673,453,207,0,0,0,2,1,1,21,0002-00-0001-43.png,0004-00-0006-32.png
9,135,0,1444328385706,1444328386832,939,330,0,0,0,1,2,1,12,0004-00-0007-97.png,0002-00-0009-33.png
9,136,1,1444328386868,1444328387885,377,344,0,0,0,2,3,1,23,0002-00-0008-21.png,0003-00-0007-34.png
9,137,1,1444328387916,1444328388058,961,305,0,0,0,3,4,1,34,0003-00-0004-62.png,0005-00-0008-83.png
9,138,1,1444328388093,1444328395477,893,353,0,0,0,1,2,1,12,0004-00-0006-49.png,0002-00-0005-17.png
9,139,0,1444328395515,1444328395631,453,245,0,0,0,5,4,1,54,0001-00-0000-60.png,0005-00-0003-67.png
9,140,0,1444328395655,1444328395771,440,233,0,0,0,2,1,1,21,0002-00-0000-57.png,0004-00-0009-36.png
9,141,1,1444328395800,1444328396134,937,309,0,0,0,2,3,1,23,0002-00-0004-49.png,0003-00-0004-80.png
9,142,0,1444328396160,1444328396275,870,395,0,0,0,4,3,1,43,0005-00-0002-14.png,0003-00-0006-55.png
9,143,1,1444328396301,1444328396539,1068,239,0,0,0,5,4,1,54,0001-00-0008-90.png,0005-00-0008-10.png
9,144,1,1444328396565,1444328397043,437,234,0,0,0,3,2,1,32,0003-00-0004-86.png,0002-00-0004-69.png
9,145,1,1444328397078,1444328397253,864,351,0,0,0,3,4,1,34,0003-00-0001-15.png,0005-00-0004-53.png
9,146,1,1444328397287,1444328398354,900,401,0,0,0,4,3,1,43,0005-00-0007-80.png,0003-00-0001-92.png
9,147,1,1444328398380,1444328398974,456,218,0,0,0,5,4,1,54,0001-00-0005-40.png,0005-00-0002-75.png
9,148,1,1444328398994,1444328399291,1067,254,0,0,0,1,2,1,12,0004-00-0007-97.png,0002-00-0008-18.png
9,149,0,1444328399331,1444328400306,876,375,0,0,0,3,2,1,32,0003-00-0000-82.png,0002-00-0006-44.png
9,150,1,1444328400325,1444328401849,888,271,0,0,0,2,3,1,23,0002-00-0000-62.png,0003-00-0005-11.png
9,151,1,1444328401870,1444328401988,941,319,0,0,0,2,1,1,21,0002-00-0001-20.png,0004-00-0002-84.png
9,152,1,1444328402015,1444328403301,903,356,0,0,0,5,4,1,54,0001-00-0000-20.png,0005-00-0003-25.png
9,153,1,1444328403337,1444328403365,966,302,0,0,0,5,4,1,54,0001-00-0005-03.png,0005-00-0009-93.png
9,154,1,1444328403404,1444328403586,1000,351,0,0,0,1,2,1,12,0004-00-0007-18.png,0002-00-0001-85.png
9,155,0,1444328403610,1444328408013,416,349,0,0,0,5,4,1,54,0001-00-0003-73.png,0005-00-0003-01.png
9,156,0,1444328408045,1444328412798,960,369,0,0,0,3,2,1,32,0003-00-0005-12.png,0002-00-0006-12.png
9,157,1,1444328412823,1444328413038,890,346,0,0,0,3,4,1,34,0003-00-0008-97.png,0005-00-0004-50.png
9,158,1,1444328413068,1444328417367,477,238,0,0,0,4,3,1,43,0005-00-0005-10.png,0003-00-0001-20.png
9,159,1,1444328417388,1444328418871,1067,228,0,0,0,2,3,1,23,0002-00-0007-66.png,0003-00-0002-38.png
9,160,0,1444328418906,1444328418952,925,440,0,0,0,2,1,1,21,0002-00-0008-01.png,0004-00-0006-80.png
9,161,0,1444328418981,1444328421058,878,408,0,0,0,5,4,1,54,0001-00-0004-27.png,0005-00-0005-26.png
9,162,1,1444328421077,1444328422783,442,208,0,0,0,2,1,1,21,0002-00-0006-24.png,0004-00-0003-10.png
9,163,1,1444328422805,1444328422975,862,375,0,0,0,3,2,1,32,0003-00-0009-62.png,0002-00-0000-38.png
9,164,1,1444328423017,1444328423490,914,294,0,0,0,2,3,1,23,0002-00-0009-60.png,0003-00-0004-91.png
9,165,1,1444328423510,1444328423534,411,337,0,0,0,3,4,1,34,0003-00-0000-40.png,0005-00-0009-26.png
9,166,1,1444328423553,1444328423588,895,420,0,0,0,1,2,1,12,0004-00-0003-59.png,0002-00-0007-97.png
9,167,1,1444328423618,1444328423803,406,330,0,0,0,5,4,1,54,0001-00-0009-10.png,0005-00-0002-01.png
9,168,1,1444328423838,1444328424723,913,474,0,0,0,4,3,1,43,0005-00-0008-56.png,0003-00-0002-43.png
9,169,0,1444328424747,1444328425625,893,418,0,0,0,2,3,1,23,0002-00-0000-02.png,0003-00-0005-93.png
9,170,1,1444328425669,1444328426196,865,411,0,0,0,5,4,1,54,0001-00-0009-93.png,0005-00-0009-41.png
9,171,1,1444328426227,1444328428003,1071,242,0,0,0,3,4,1,34,0003-00-0008-58.png,0005-00-0005-28.png
9,172,1,1444328428027,1444328428311,868,362,0,0,0,2,1,1,21,0002-00-0008-51.png,0004-00-0002-25.png
9,173,0,1444328428346,1444328431522,457,212,0,0,0,5,4,1,54,0001-00-0006-99.png,0005-00-0004-17.png
9,174,1,1444328431551,1444328432759,1065,232,0,0,0,4,3,1,43,0005-00-0009-87.png,0003-00-0009-97.png
9,175,1,1444328432785,1444328434684,899,348,0,0,0,3,2,1,32,0003-00-0000-38.png,0002-00-0001-90.png
9,176,1,1444328434712,1444328437411,878,375,0,0,0,1,2,1,12,0004-00-0004-03.png,0002-00-0001-26.png
9,177,0,1444328437437,1444328437653,987,289,0,0,0,2,1,1,21,0002-00-0007-99.png,0004-00-0002-14.png
9,178,1,1444328437675,1444328439236,894,391,0,0,0,5,4,1,54,0001-00-0003-31.png,0005-00-0002-08.png
9,179,1,1444328439275,1444328439813,870,365,0,0,0,5,4,1,54,0001-00-0007-69.png,0005-00-0007-21.png
9,180,0,1444328439853,1444328440109,471,241,0,0,0,3,4,1,34,0003-00-0006-60.png,0005-00-0005-59.png
9,181,0,1444328440139,1444328441030,964,385,0,0,0,4,3,1,43,0005-00-0008-32.png,0003-00-0005-26.png
9,182,1,1444328441060,1444328441361,458,243,0,0,0,1,2,1,12,0004-00-0007-23.png,0002-00-0009-00.png
9,183,0,1444328441393,1444328442236,1041,232,0,0,0,2,3,1,23,0002-00-0006-43.png,0003-00-0004-02.png
9,184,0,1444328442267,1444328442688,901,346,0,0,0,3,2,1,32,0003-00-0001-82.png,0002-00-0002-87.png
9,185,1,1444328442718,1444328443691,924,453,0,0,0,3,4,1,34,0003-00-0008-81.png,0005-00-0007-14.png
9,186,1,1444328443728,1444328444054,875,366,0,0,0,3,2,1,32,0003-00-0007-68.png,0002-00-0009-25.png
9,187,0,1444328444091,1444328444231,420,353,0,0,0,1,2,1,12,0004-00-0000-98.png,0002-00-0000-29.png
9,188,1,1444328444262,1444328444790,1053,218,0,0,0,2,1,1,21,0002-00-0005-21.png,0004-00-0009-08.png
9,189,1,1444328444813,1444328445086,989,291,0,0,0,2,3,1,23,0002-00-0006-61.png,0003-00-0009-20.png
9,190,1,1444328445111,1444328445123,367,348,0,0,0,4,3,1,43,0005-00-0002-79.png,0003-00-0009-17.png
9,191,0,1444328445153,1444328450097,383,359,0,0,0,5,4,1,54,0001-00-0009-88.png,0005-00-0007-26.png
9,192,0,1444328450126,1444328450510,864,361,0,0,0,5,4,1,54,0001-00-0005-58.png,0005-00-0007-73.png
9,193,1,1444328450538,1444328450775,1063,252,0,0,0,3,4,1,34,0003-00-0006-91.png,0005-00-0007-14.png
9,194,0,1444328450809,1444328452326,893,346,0,0,0,3,2,1,32,0003-00-0002-46.png,0002-00-0006-36.png
9,195,1,1444328452356,1444328453380,359,315,0,0,0,1,2,1,12,0004-00-0003-19.png,0002-00-0008-92.png
9,196,0,1444328453415,1444328453761,866,335,0,0,0,2,1,1,21,0002-00-0000-50.png,0004-00-0001-38.png
9,197,1,1444328453782,1444328454658,945,312,0,0,0,5,4,1,54,0001-00-0002-08.png,0005-00-0003-97.png
9,198,1,1444328454681,1444328454929,904,329,0,0,0,2,3,1,23,0002-00-0007-29.png,0003-00-0009-79.png
9,199,0,1444328454956,1444328455282,913,256,0,0,0,4,3,1,43,0005-00-0002-34.png,0003-00-0003-54.png
9,200,0,1444328455312,1444328455507,370,359,0,0,0,5,4,1,54,0001-00-0008-05.png,0005-00-0004-52.png
9,201,0,1444328455532,1444328456074,874,388,0,0,0,3,2,1,32,0003-00-0003-68.png,0002-00-0000-08.png
9,202,1,1444328456122,1444328456259,366,322,0,0,0,2,3,1,23,0002-00-0003-49.png,0003-00-0006-28.png
9,203,0,1444328456284,1444328456718,1056,218,0,0,0,5,4,1,54,0001-00-0006-11.png,0005-00-0009-77.png
9,204,0,1444328456744,1444328457283,890,326,0,0,0,4,3,1,43,0005-00-0009-56.png,0003-00-0005-67.png
9,205,1,1444328457316,1444328458731,973,349,0,0,0,1,2,1,12,0004-00-0003-97.png,0002-00-0006-98.png
9,206,0,1444328458758,1444328459063,890,325,0,0,0,5,4,1,54,0001-00-0006-55.png,0005-00-0004-90.png
9,207,1,1444328459099,1444328459203,481,210,0,0,0,3,4,1,34,0003-00-0008-62.png,0005-00-0008-08.png
9,208,1,1444328459246,1444328459552,896,402,0,0,0,2,1,1,21,0002-00-0000-90.png,0004-00-0000-48.png
9,209,1,1444328459578,1444328462408,869,366,0,0,0,3,4,1,34,0003-00-0004-15.png,0005-00-0000-90.png
9,210,1,1444328462434,1444328463547,870,375,0,0,0,2,1,1,21,0002-00-0009-02.png,0004-00-0008-11.png
9,211,1,1444328463570,1444328464052,871,394,0,0,0,3,2,1,32,0003-00-0000-16.png,0002-00-0001-78.png
9,212,0,1444328464085,1444328464327,1067,235,0,0,0,2,3,1,23,0002-00-0003-90.png,0003-00-0006-57.png
9,213,0,1444328464365,1444328464441,888,361,0,0,0,1,2,1,12,0004-00-0003-35.png,0002-00-0001-94.png
9,214,0,1444328464462,1444328464584,1110,255,0,0,0,5,4,1,54,0001-00-0001-10.png,0005-00-0008-97.png
9,215,0,1444328464616,1444328465414,886,375,0,0,0,5,4,1,54,0001-00-0002-07.png,0005-00-0003-03.png
9,216,1,1444328465443,1444328465675,399,344,0,0,0,4,3,1,43,0005-00-0007-57.png,0003-00-0003-52.png
9,217,1,1444328465698,1444328466071,489,192,0,0,0,2,3,1,23,0002-00-0007-01.png,0003-00-0009-07.png
9,218,0,1444328466092,1444328466762,1016,258,0,0,0,3,4,1,34,0003-00-0002-53.png,0005-00-0000-28.png
9,219,0,1444328466803,1444328466959,1067,245,0,0,0,5,4,1,54,0001-00-0007-59.png,0005-00-0002-45.png
9,220,0,1444328466989,1444328467171,943,277,0,0,0,2,1,1,21,0002-00-0000-68.png,0004-00-0001-32.png
9,221,0,1444328467209,1444328467482,888,349,0,0,0,1,2,1,12,0004-00-0007-83.png,0002-00-0006-37.png
9,222,1,1444328467505,1444328467853,872,375,0,0,0,3,2,1,32,0003-00-0002-94.png,0002-00-0001-40.png
9,223,1,1444328467890,1444328468144,871,353,0,0,0,4,3,1,43,0005-00-0002-96.png,0003-00-0009-77.png
9,224,1,1444328468164,1444328468361,951,305,0,0,0,5,4,1,54,0001-00-0008-02.png,0005-00-0000-89.png
9,225,1,1444328468397,1444328471353,473,260,0,0,0,3,2,1,32,0003-00-0007-87.png,0002-00-0002-08.png
9,226,0,1444328471383,1444328471732,934,288,0,0,0,2,1,1,21,0002-00-0005-39.png,0004-00-0008-12.png
9,227,1,1444328471753,1444328477624,913,375,0,0,0,5,4,1,54,0001-00-0008-84.png,0005-00-0002-88.png
9,228,0,1444328477653,1444328479406,862,361,0,0,0,2,3,1,23,0002-00-0008-27.png,0003-00-0002-47.png
9,229,1,1444328479443,1444328482387,394,332,0,0,0,3,4,1,34,0003-00-0001-52.png,0005-00-0005-26.png
9,230,1,1444328482420,1444328483191,897,453,0,0,0,1,2,1,12,0004-00-0007-03.png,0002-00-0008-21.png
9,231,0,1444328483210,1444328483603,895,445,0,0,0,5,4,1,54,0001-00-0006-87.png,0005-00-0007-00.png
9,232,1,1444328483643,1444328483704,884,385,0,0,0,4,3,1,43,0005-00-0004-53.png,0003-00-0003-32.png
9,233,0,1444328483729,1444328484810,383,323,0,0,0,2,3,1,23,0002-00-0002-73.png,0003-00-0000-78.png
9,234,0,1444328484851,1444328484963,984,289,0,0,0,5,4,1,54,0001-00-0002-91.png,0005-00-0001-23.png
9,235,0,1444328484993,1444328485108,1105,248,0,0,0,2,1,1,21,0002-00-0004-53.png,0004-00-0004-17.png
9,236,0,1444328485132,1444328485576,862,332,0,0,0,5,4,1,54,0001-00-0000-22.png,0005-00-0005-27.png
9,237,0,1444328485617,1444328486147,443,237,0,0,0,1,2,1,12,0004-00-0007-86.png,0002-00-0002-06.png
9,238,1,1444328486178,1444328489190,1064,256,0,0,0,3,2,1,32,0003-00-0005-76.png,0002-00-0001-79.png
9,239,0,1444328489218,1444328492643,1014,457,0,0,0,4,3,1,43,0005-00-0001-15.png,0003-00-0002-71.png
9,240,1,1444328492675,1444328492874,896,241,0,0,0,3,4,1,34,0003-00-0006-40.png,0005-00-0006-21.png
9,241,0,1444328492897,1444328493324,942,296,0,0,0,2,3,1,23,0002-00-0002-61.png,0003-00-0008-67.png
9,242,0,1444328493349,1444328493484,449,260,0,0,0,3,4,1,34,0003-00-0006-55.png,0005-00-0009-67.png
9,243,1,1444328493515,1444328493840,938,286,0,0,0,2,1,1,21,0002-00-0002-08.png,0004-00-0009-30.png
9,244,0,1444328493862,1444328493947,864,355,0,0,0,3,2,1,32,0003-00-0007-83.png,0002-00-0001-93.png
9,245,0,1444328493981,1444328494034,469,198,0,0,0,5,4,1,54,0001-00-0006-26.png,0005-00-0006-53.png
9,246,1,1444328494066,1444328494362,858,270,0,0,0,4,3,1,43,0005-00-0009-11.png,0003-00-0008-02.png
9,247,0,1444328494392,1444328494606,1069,211,0,0,0,1,2,1,12,0004-00-0006-05.png,0002-00-0007-59.png
9,248,0,1444328494631,1444328494931,864,352,0,0,0,5,4,1,54,0001-00-0007-35.png,0005-00-0002-57.png
9,249,1,1444328494960,1444328496034,469,230,0,0,0,5,4,1,54,0001-00-0003-20.png,0005-00-0005-53.png
9,250,1,1444328496061,1444328496390,453,232,0,0,0,2,1,1,21,0002-00-0006-46.png,0004-00-0007-15.png
9,251,1,1444328496424,1444328498699,1067,235,0,0,0,4,3,1,43,0005-00-0006-37.png,0003-00-0004-99.png
9,252,1,1444328498720,1444328498942,1070,244,0,0,0,3,4,1,34,0003-00-0005-21.png,0005-00-0006-47.png
9,253,0,1444328498976,1444328499083,442,234,0,0,0,3,2,1,32,0003-00-0004-36.png,0002-00-0001-71.png
9,254,1,1444328499118,1444328499248,1092,202,0,0,0,5,4,1,54,0001-00-0000-08.png,0005-00-0005-30.png
9,255,1,1444328499270,1444328499508,460,208,0,0,0,2,3,1,23,0002-00-0006-01.png,0003-00-0004-95.png
9,256,0,1444328499536,1444328500171,990,282,0,0,0,1,2,1,12,0004-00-0001-47.png,0002-00-0008-96.png
9,257,0,1444328500216,1444328500314,475,229,0,0,0,5,4,1,54,0001-00-0007-10.png,0005-00-0003-18.png
9,258,1,1444328500345,1444328502706,1079,283,0,0,0,3,2,1,32,0003-00-0001-56.png,0002-00-0009-94.png
9,259,0,1444328502730,1444328502848,962,295,0,0,0,5,4,1,54,0001-00-0000-16.png,0005-00-0007-06.png
9,260,0,1444328502865,1444328504717,440,245,0,0,0,3,4,1,34,0003-00-0001-94.png,0005-00-0009-09.png
9,261,0,1444328504737,1444328505446,1061,219,0,0,0,1,2,1,12,0004-00-0004-58.png,0002-00-0007-02.png
9,262,1,1444328505486,1444328505770,913,271,0,0,0,2,1,1,21,0002-00-0005-72.png,0004-00-0008-23.png
9,263,1,1444328505795,1444328505890,964,345,0,0,0,4,3,1,43,0005-00-0000-50.png,0003-00-0006-16.png
9,264,1,1444328505919,1444328506106,964,362,0,0,0,2,3,1,23,0002-00-0001-86.png,0003-00-0009-49.png
9,265,1,1444328506130,1444328508424,868,365,0,0,0,2,1,1,21,0002-00-0000-55.png,0004-00-0009-55.png
9,266,1,1444328508445,1444328509098,870,271,0,0,0,5,4,1,54,0001-00-0007-14.png,0005-00-0006-14.png
9,267,0,1444328509122,1444328510227,1046,260,0,0,0,2,3,1,23,0002-00-0004-69.png,0003-00-0002-53.png
9,268,1,1444328510252,1444328510425,959,305,0,0,0,5,4,1,54,0001-00-0004-71.png,0005-00-0001-79.png
9,269,0,1444328510447,1444328510810,1062,255,0,0,0,1,2,1,12,0004-00-0008-26.png,0002-00-0009-49.png
9,270,1,1444328510839,1444328511010,445,253,0,0,0,3,4,1,34,0003-00-0000-18.png,0005-00-0001-91.png
9,271,1,1444328511038,1444328511289,1056,218,0,0,0,4,3,1,43,0005-00-0006-32.png,0003-00-0000-66.png
9,272,0,1444328511305,1444328512230,934,316,0,0,0,3,2,1,32,0003-00-0000-52.png,0002-00-0009-26.png
9,273,1,1444328512253,1444328512549,478,233,0,0,0,1,2,1,12,0004-00-0000-62.png,0002-00-0006-12.png
9,274,1,1444328512583,1444328514180,932,331,0,0,0,5,4,1,54,0001-00-0000-25.png,0005-00-0007-84.png
9,275,0,1444328514215,1444328514258,862,357,0,0,0,4,3,1,43,0005-00-0007-35.png,0003-00-0002-33.png
9,276,1,1444328514283,1444328514412,466,238,0,0,0,2,1,1,21,0002-00-0007-58.png,0004-00-0008-92.png
9,277,1,1444328514430,1444328514753,925,323,0,0,0,2,3,1,23,0002-00-0005-50.png,0003-00-0006-55.png
9,278,1,1444328514778,1444328515294,862,365,0,0,0,5,4,1,54,0001-00-0008-80.png,0005-00-0008-12.png
9,279,1,1444328515320,1444328515938,869,416,0,0,0,3,4,1,34,0003-00-0003-10.png,0005-00-0003-37.png
9,280,0,1444328515981,1444328516184,873,422,0,0,0,3,2,1,32,0003-00-0004-42.png,0002-00-0005-34.png
9,281,1,1444328516220,1444328516325,398,372,0,0,0,3,2,1,32,0003-00-0004-82.png,0002-00-0003-81.png
9,282,1,1444328516343,1444328517331,950,302,0,0,0,2,1,1,21,0002-00-0003-00.png,0004-00-0002-82.png
9,283,0,1444328517356,1444328522266,1068,261,0,0,0,5,4,1,54,0001-00-0003-97.png,0005-00-0003-77.png
9,284,1,1444328522301,1444328522543,917,299,0,0,0,4,3,1,43,0005-00-0007-07.png,0003-00-0000-35.png
9,285,1,1444328522574,1444328523588,456,269,0,0,0,1,2,1,12,0004-00-0006-26.png,0002-00-0005-64.png
9,286,1,1444328523642,1444328523833,926,333,0,0,0,5,4,1,54,0001-00-0002-01.png,0005-00-0009-31.png
9,287,1,1444328523869,1444328524562,866,335,0,0,0,2,3,1,23,0002-00-0005-90.png,0003-00-0003-02.png
9,288,0,1444328524589,1444328524641,913,401,0,0,0,3,4,1,34,0003-00-0005-29.png,0005-00-0003-75.png
9,289,0,1444328524690,1444328524948,927,480,0,0,0,2,3,1,23,0002-00-0000-06.png,0003-00-0004-48.png
9,290,0,1444328524969,1444328525200,1067,218,0,0,0,4,3,1,43,0005-00-0006-55.png,0003-00-0002-89.png
9,291,0,1444328525239,1444328525540,1051,274,0,0,0,2,1,1,21,0002-00-0003-02.png,0004-00-0008-33.png
9,292,1,1444328525562,1444328527842,894,326,0,0,0,3,4,1,34,0003-00-0001-42.png,0005-00-0001-67.png
9,293,1,1444328527862,1444328528294,376,339,0,0,0,3,2,1,32,0003-00-0008-99.png,0002-00-0005-17.png
9,294,1,1444328528318,1444328530091,459,230,0,0,0,1,2,1,12,0004-00-0009-29.png,0002-00-0009-82.png
9,295,1,1444328530119,1444328530220,453,253,0,0,0,5,4,1,54,0001-00-0009-24.png,0005-00-0007-20.png
9,296,0,1444328530260,1444328530959,913,427,0,0,0,5,4,1,54,0001-00-0009-42.png,0005-00-0006-34.png
9,297,1,1444328530991,1444328531791,874,427,0,0,0,5,4,1,54,0001-00-0000-59.png,0005-00-0002-05.png
9,298,0,1444328531824,1444328532260,866,363,0,0,0,2,1,1,21,0002-00-0001-02.png,0004-00-0009-47.png
9,299,1,1444328532288,1444328534274,917,285,0,0,0,3,2,1,32,0003-00-0000-71.png,0002-00-0008-26.png
9,300,1,1444328534295,1444328534438,1084,245,0,0,0,5,4,1,54,0001-00-0003-45.png,0005-00-0005-58.png
9,301,0,1444328534458,1444328534657,412,401,0,0,0,3,4,1,34,0003-00-0001-23.png,0005-00-0006-84.png
9,302,1,1444328534679,1444328535717,1058,209,0,0,0,4,3,1,43,0005-00-0006-73.png,0003-00-0005-29.png
9,303,1,1444328535747,1444328535970,913,401,0,0,0,2,3,1,23,0002-00-0002-57.png,0003-00-0005-74.png
9,304,1,1444328535995,1444328536563,943,275,0,0,0,1,2,1,12,0004-00-0008-47.png,0002-00-0007-45.png
9,305,0,1444328536592,1444328537773,935,330,0,0,0,3,4,1,34,0003-00-0005-85.png,0005-00-0006-08.png
9,306,0,1444328537808,1444328538243,464,207,0,0,0,5,4,1,54,0001-00-0000-16.png,0005-00-0008-22.png
9,307,1,1444328538269,1444328538745,939,401,0,0,0,2,1,1,21,0002-00-0003-89.png,0004-00-0005-30.png
9,308,1,1444328538781,1444328539141,863,389,0,0,0,1,2,1,12,0004-00-0002-42.png,0002-00-0008-09.png
9,309,0,1444328539174,1444328539287,1038,220,0,0,0,2,3,1,23,0002-00-0008-80.png,0003-00-0008-41.png
9,310,0,1444328539317,1444328539527,428,239,0,0,0,3,2,1,32,0003-00-0004-77.png,0002-00-0002-04.png
9,311,0,1444328539547,1444328539607,970,376,0,0,0,4,3,1,43,0005-00-0002-29.png,0003-00-0006-99.png
9,312,0,1444328539622,1444328540117,1041,218,0,0,0,5,4,1,54,0001-00-0003-05.png,0005-00-0006-31.png
9,313,1,1444328540152,1444328540318,877,358,0,0,0,1,2,1,12,0004-00-0007-33.png,0002-00-0007-43.png
9,314,1,1444328540348,1444328544844,862,284,0,0,0,5,4,1,54,0001-00-0002-64.png,0005-00-0007-92.png
9,315,1,1444328544869,1444328545822,459,224,0,0,0,2,1,1,21,0002-00-0004-84.png,0004-00-0005-08.png
9,316,1,1444328545854,1444328548088,964,308,0,0,0,3,2,1,32,0003-00-0009-93.png,0002-00-0000-31.png
9,317,1,1444328548108,1444328548288,885,350,0,0,0,2,3,1,23,0002-00-0000-37.png,0003-00-0000-31.png
9,318,0,1444328548315,1444328548430,938,348,0,0,0,4,3,1,43,0005-00-0007-12.png,0003-00-0000-14.png
9,319,0,1444328548468,1444328548946,939,314,0,0,0,3,4,1,34,0003-00-0002-23.png,0005-00-0008-95.png
9,320,1,1444328548971,1444328549194,957,377,0,0,0,5,4,1,54,0001-00-0000-82.png,0005-00-0009-93.png
9,321,1,1444328549217,1444328550053,862,375,0,0,0,5,4,1,54,0001-00-0006-51.png,0005-00-0004-74.png
9,322,0,1444328550073,1444328550180,433,204,0,0,0,1,2,1,12,0004-00-0005-58.png,0002-00-0002-96.png
9,323,1,1444328550206,1444328550223,986,290,0,0,0,3,4,1,34,0003-00-0007-10.png,0005-00-0007-29.png
9,324,0,1444328550256,1444328551291,990,453,0,0,0,3,2,1,32,0003-00-0003-26.png,0002-00-0003-48.png
9,325,1,1444328551315,1444328551907,875,380,0,0,0,5,4,1,54,0001-00-0007-06.png,0005-00-0009-70.png
9,326,1,1444328551934,1444328552367,876,366,0,0,0,2,3,1,23,0002-00-0005-80.png,0003-00-0004-61.png
9,327,0,1444328552402,1444328552452,414,328,0,0,0,2,1,1,21,0002-00-0000-86.png,0004-00-0004-80.png
9,328,0,1444328552484,1444328552538,1063,246,0,0,0,4,3,1,43,0005-00-0008-71.png,0003-00-0001-08.png
9,329,1,1444328552571,1444328552656,891,322,0,0,0,5,4,1,54,0001-00-0005-71.png,0005-00-0009-91.png
9,330,0,1444328552681,1444328552872,1059,253,0,0,0,1,2,1,12,0004-00-0008-32.png,0002-00-0004-06.png
9,331,1,1444328552899,1444328553270,877,323,0,0,0,3,2,1,32,0003-00-0000-40.png,0002-00-0004-76.png
9,332,1,1444328553301,1444328553706,449,218,0,0,0,3,4,1,34,0003-00-0004-35.png,0005-00-0008-39.png
9,333,1,1444328553750,1444328554059,860,352,0,0,0,5,4,1,54,0001-00-0009-74.png,0005-00-0002-37.png
9,334,1,1444328554090,1444328554191,860,348,0,0,0,2,1,1,21,0002-00-0003-59.png,0004-00-0009-99.png
9,335,1,1444328554212,1444328554679,887,388,0,0,0,2,3,1,23,0002-00-0001-76.png,0003-00-0008-77.png
9,336,0,1444328554710,1444328554914,471,211,0,0,0,4,3,1,43,0005-00-0006-80.png,0003-00-0006-17.png
9,337,1,1444328554931,1444328555035,962,279,0,0,0,2,3,1,23,0002-00-0008-75.png,0003-00-0007-86.png
9,338,0,1444328555058,1444328555588,913,427,0,0,0,5,4,1,54,0001-00-0008-36.png,0005-00-0007-66.png
9,339,1,1444328555617,1444328555795,961,265,0,0,0,1,2,1,12,0004-00-0006-77.png,0002-00-0002-58.png
9,340,1,1444328555846,1444328556261,960,375,0,0,0,4,3,1,43,0005-00-0009-02.png,0003-00-0006-51.png
9,341,1,1444328556309,1444328556442,1056,208,0,0,0,3,2,1,32,0003-00-0008-86.png,0002-00-0004-53.png
9,342,1,1444328556457,1444328557189,973,267,0,0,0,5,4,1,54,0001-00-0009-58.png,0005-00-0003-01.png
9,343,0,1444328557222,1444328566989,450,258,0,0,0,3,4,1,34,0003-00-0008-97.png,0005-00-0009-75.png
9,344,0,1444328567007,1444328567550,464,215,0,0,0,2,1,1,21,0002-00-0004-43.png,0004-00-0003-72.png
9,345,0,1444328567591,1444328567649,890,362,0,0,0,4,3,1,43,0005-00-0008-53.png,0003-00-0008-18.png
9,346,0,1444328567674,1444328567865,870,375,0,0,0,5,4,1,54,0001-00-0007-87.png,0005-00-0002-96.png
9,347,1,1444328567897,1444328569238,349,327,0,0,0,3,4,1,34,0003-00-0000-46.png,0005-00-0000-11.png
9,348,1,1444328569271,1444328572724,935,281,0,0,0,3,2,1,32,0003-00-0002-26.png,0002-00-0007-02.png
9,349,1,1444328572762,1444328572925,885,378,0,0,0,2,3,1,23,0002-00-0003-97.png,0003-00-0004-31.png
9,350,0,1444328572956,1444328573581,427,269,0,0,0,5,4,1,54,0001-00-0006-98.png,0005-00-0000-52.png
9,351,1,1444328573612,1444328574291,1019,249,0,0,0,1,2,1,12,0004-00-0007-67.png,0002-00-0002-28.png
9,352,1,1444328574325,1444328574354,943,280,0,0,0,2,1,1,21,0002-00-0006-18.png,0004-00-0000-11.png
9,353,0,1444328574391,1444328574615,874,377,0,0,0,1,2,1,12,0004-00-0001-62.png,0002-00-0005-73.png
9,354,0,1444328574643,1444328574843,1065,249,0,0,0,3,2,1,32,0003-00-0002-41.png,0002-00-0001-59.png
9,355,0,1444328574882,1444328575219,1036,235,0,0,0,2,1,1,21,0002-00-0008-77.png,0004-00-0005-18.png
9,356,1,1444328575262,1444328576572,917,386,0,0,0,4,3,1,43,0005-00-0008-30.png,0003-00-0006-19.png
9,357,0,1444328576604,1444328576905,969,273,0,0,0,5,4,1,54,0001-00-0006-27.png,0005-00-0007-34.png
9,358,0,1444328576923,1444328579641,906,436,0,0,0,5,4,1,54,0001-00-0002-55.png,0005-00-0009-98.png
9,359,0,1444328579668,1444328581594,381,339,0,0,0,3,4,1,34,0003-00-0008-81.png,0005-00-0003-54.png
9,360,0,1444328581625,1444328581841,1025,218,0,0,0,2,3,1,23,0002-00-0005-98.png,0003-00-0001-49.png
9,361,1,1444328581863,1444328582019,904,366,0,0,0,2,3,1,23,0002-00-0008-31.png,0003-00-0001-49.png
9,362,1,1444328582060,1444328582221,401,311,0,0,0,3,2,1,32,0003-00-0001-09.png,0002-00-0005-74.png
9,363,1,1444328582250,1444328582714,990,384,0,0,0,5,4,1,54,0001-00-0007-34.png,0005-00-0005-80.png
9,364,0,1444328582746,1444328586087,922,415,0,0,0,2,1,1,21,0002-00-0000-57.png,0004-00-0009-41.png
9,365,0,1444328586114,1444328586229,925,465,0,0,0,4,3,1,43,0005-00-0004-88.png,0003-00-0007-96.png
9,366,1,1444328586256,1444328586342,963,267,0,0,0,3,4,1,34,0003-00-0004-86.png,0005-00-0009-63.png
9,367,1,1444328586375,1444328586962,435,219,0,0,0,5,4,1,54,0001-00-0007-24.png,0005-00-0000-14.png
9,368,1,1444328586987,1444328587096,993,314,0,0,0,1,2,1,12,0004-00-0009-73.png,0002-00-0003-47.png
9,369,0,1444328587139,1444328587798,888,392,0,0,0,1,2,1,12,0004-00-0000-97.png,0002-00-0006-88.png
9,370,1,1444328587830,1444328587878,990,283,0,0,0,2,1,1,21,0002-00-0009-95.png,0004-00-0009-50.png
9,371,0,1444328587907,1444328588046,463,233,0,0,0,3,2,1,32,0003-00-0006-70.png,0002-00-0006-24.png
9,372,1,1444328588072,1444328588355,862,368,0,0,0,4,3,1,43,0005-00-0004-43.png,0003-00-0007-93.png
9,373,1,1444328588380,1444328588471,387,334,0,0,0,2,3,1,23,0002-00-0004-96.png,0003-00-0008-42.png
9,374,1,1444328588492,1444328591502,1067,218,0,0,0,5,4,1,54,0001-00-0000-49.png,0005-00-0005-09.png
9,375,1,1444328591539,1444328591882,1028,218,0,0,0,3,4,1,34,0003-00-0004-37.png,0005-00-0002-07.png
9,376,1,1444328591916,1444328592011,412,401,0,0,0,5,4,1,54,0001-00-0008-20.png,0005-00-0006-63.png
9,377,1,1444328592047,1444328592996,1009,504,0,0,0,2,3,1,23,0002-00-0002-67.png,0003-00-0009-61.png
9,378,1,1444328593026,1444328593861,964,480,0,0,0,2,1,1,21,0002-00-0001-27.png,0004-00-0000-95.png
9,379,0,1444328593884,1444328596020,868,389,0,0,0,1,2,1,12,0004-00-0008-15.png,0002-00-0006-29.png
9,380,1,1444328596066,1444328596238,864,358,0,0,0,5,4,1,54,0001-00-0004-54.png,0005-00-0001-57.png
9,381,1,1444328596266,1444328596333,390,327,0,0,0,3,2,1,32,0003-00-0009-74.png,0002-00-0003-82.png
9,382,1,1444328596354,1444328596412,939,293,0,0,0,3,4,1,34,0003-00-0001-81.png,0005-00-0007-66.png
9,383,1,1444328596435,1444328597322,492,167,0,0,0,5,4,1,54,0001-00-0002-98.png,0005-00-0006-80.png
9,384,1,1444328597351,1444328597571,876,427,0,0,0,4,3,1,43,0005-00-0009-10.png,0003-00-0009-48.png
9,385,1,1444328597596,1444328598390,893,351,0,0,0,5,4,1,54,0001-00-0009-88.png,0005-00-0009-63.png
9,386,1,1444328598419,1444328598487,1011,216,0,0,0,2,1,1,21,0002-00-0001-18.png,0004-00-0009-95.png
9,387,1,1444328598507,1444328599040,944,294,0,0,0,4,3,1,43,0005-00-0009-40.png,0003-00-0008-41.png
9,388,1,1444328599059,1444328600333,981,294,0,0,0,1,2,1,12,0004-00-0001-40.png,0002-00-0006-53.png
9,389,1,1444328600358,1444328601288,913,323,0,0,0,3,2,1,32,0003-00-0003-41.png,0002-00-0008-65.png
9,390,0,1444328601315,1444328602004,871,401,0,0,0,5,4,1,54,0001-00-0003-48.png,0005-00-0001-78.png
9,391,1,1444328602029,1444328602635,1061,254,0,0,0,2,3,1,23,0002-00-0000-76.png,0003-00-0004-44.png
9,392,1,1444328602656,1444328603164,898,348,0,0,0,3,4,1,34,0003-00-0001-20.png,0005-00-0007-69.png
9,393,0,1444328603184,1444328603750,990,349,0,0,0,1,2,1,12,0004-00-0009-45.png,0002-00-0002-26.png
9,394,1,1444328603773,1444328604040,1043,215,0,0,0,4,3,1,43,0005-00-0004-97.png,0003-00-0003-46.png
9,395,0,1444328604065,1444328604296,447,229,0,0,0,5,4,1,54,0001-00-0008-05.png,0005-00-0003-18.png
9,396,1,1444328604326,1444328604388,917,313,0,0,0,2,3,1,23,0002-00-0001-65.png,0003-00-0000-36.png
9,397,1,1444328604414,1444328604803,881,387,0,0,0,3,2,1,32,0003-00-0005-29.png,0002-00-0005-11.png
9,398,0,1444328604827,1444328606679,392,315,0,0,0,2,1,1,21,0002-00-0006-67.png,0004-00-0009-57.png
9,399,1,1444328606706,1444328606781,455,233,0,0,0,3,4,1,34,0003-00-0003-85.png,0005-00-0008-70.png
9,400,1,1444328606804,1444328608077,924,293,0,0,0,5,4,1,54,0001-00-0009-71.png,0005-00-0001-07.png
9,401,1,1444328608108,1444328608885,868,332,0,0,0,3,2,1,32,0003-00-0009-12.png,0002-00-0002-08.png
9,402,0,1444328608922,1444328608929,913,453,0,0,0,2,1,1,21,0002-00-0003-04.png,0004-00-0002-00.png
9,403,1,1444328608970,1444328609013,1067,229,0,0,0,1,2,1,12,0004-00-0002-16.png,0002-00-0000-40.png
9,404,0,1444328609031,1444328609719,1067,254,0,0,0,2,3,1,23,0002-00-0008-12.png,0003-00-0002-31.png
9,405,0,1444328609752,1444328609889,866,325,0,0,0,5,4,1,54,0001-00-0003-80.png,0005-00-0003-80.png
9,406,1,1444328609936,1444328610414,939,293,0,0,0,4,3,1,43,0005-00-0009-30.png,0003-00-0005-81.png
9,407,0,1444328610440,1444328610742,366,317,0,0,0,3,4,1,34,0003-00-0006-76.png,0005-00-0003-27.png
9,408,1,1444328610767,1444328612913,485,259,0,0,0,5,4,1,54,0001-00-0003-32.png,0005-00-0002-38.png
9,409,1,1444328612938,1444328613577,879,461,0,0,0,1,2,1,12,0004-00-0007-13.png,0002-00-0005-01.png
9,410,0,1444328613602,1444328613655,894,348,0,0,0,3,2,1,32,0003-00-0004-25.png,0002-00-0007-74.png
9,411,0,1444328613685,1444328613814,862,384,0,0,0,2,3,1,23,0002-00-0004-17.png,0003-00-0008-85.png
9,412,1,1444328613853,1444328613940,954,295,0,0,0,5,4,1,54,0001-00-0008-88.png,0005-00-0009-03.png
9,413,1,1444328613967,1444328615312,393,343,0,0,0,3,4,1,34,0003-00-0009-10.png,0005-00-0005-25.png
9,414,1,1444328615343,1444328615512,1075,227,0,0,0,2,1,1,21,0002-00-0009-21.png,0004-00-0005-53.png
9,415,1,1444328615543,1444328616107,990,315,0,0,0,4,3,1,43,0005-00-0006-47.png,0003-00-0001-43.png
9,416,0,1444328616140,1444328616878,446,399,0,0,0,5,4,1,54,0001-00-0005-95.png,0005-00-0009-08.png
9,417,0,1444328616905,1444328620550,898,427,0,0,0,2,1,1,21,0002-00-0005-80.png,0004-00-0007-56.png
9,418,1,1444328620580,1444328621952,478,229,0,0,0,1,2,1,12,0004-00-0000-47.png,0002-00-0006-64.png
9,419,0,1444328621988,1444328622384,913,453,0,0,0,5,4,1,54,0001-00-0002-04.png,0005-00-0001-85.png
9,420,0,1444328622406,1444328627395,928,283,0,0,0,2,3,1,23,0002-00-0004-32.png,0003-00-0001-79.png
9,421,1,1444328627427,1444328628092,911,382,0,0,0,4,3,1,43,0005-00-0000-78.png,0003-00-0008-72.png
9,422,1,1444328628116,1444328634026,893,403,0,0,0,3,2,1,32,0003-00-0005-67.png,0002-00-0007-03.png
9,423,0,1444328634042,1444328635044,470,210,0,0,0,5,4,1,54,0001-00-0003-97.png,0005-00-0007-50.png
9,424,1,1444328635088,1444328635715,490,239,0,0,0,3,4,1,34,0003-00-0009-21.png,0005-00-0004-38.png
9,425,0,1444328635756,1444328635812,454,203,0,0,0,5,4,1,54,0001-00-0009-16.png,0005-00-0003-00.png
9,426,1,1444328635842,1444328636277,911,265,0,0,0,2,1,1,21,0002-00-0003-34.png,0004-00-0007-45.png
9,427,0,1444328636318,1444328636358,862,349,0,0,0,3,4,1,34,0003-00-0000-74.png,0005-00-0002-23.png
9,428,0,1444328636416,1444328637976,887,380,0,0,0,1,2,1,12,0004-00-0006-57.png,0002-00-0003-24.png
9,429,1,1444328638011,1444328639632,478,223,0,0,0,3,2,1,32,0003-00-0005-88.png,0002-00-0000-90.png
9,430,1,1444328639664,1444328640142,939,363,0,0,0,5,4,1,54,0001-00-0000-15.png,0005-00-0004-28.png
9,431,1,1444328640189,1444328640794,939,427,0,0,0,4,3,1,43,0005-00-0007-69.png,0003-00-0001-49.png
9,432,0,1444328640820,1444328640987,873,421,0,0,0,2,3,1,23,0002-00-0001-22.png,0003-00-0007-64.png
9,433,0,1444328641011,1444328643186,877,344,0,0,0,2,3,1,23,0002-00-0007-01.png,0003-00-0008-66.png
9,434,0,1444328643214,1444328644765,862,366,0,0,0,5,4,1,54,0001-00-0006-33.png,0005-00-0003-01.png
9,435,1,1444328644795,1444328645278,1090,215,0,0,0,3,2,1,32,0003-00-0006-12.png,0002-00-0007-06.png
9,436,1,1444328645315,1444328645781,405,347,0,0,0,1,2,1,12,0004-00-0004-31.png,0002-00-0008-05.png
9,437,1,1444328645809,1444328649830,494,201,0,0,0,5,4,1,54,0001-00-0009-03.png,0005-00-0003-70.png
9,438,0,1444328649852,1444328650071,951,453,0,0,0,4,3,1,43,0005-00-0001-77.png,0003-00-0009-31.png
9,439,1,1444328650102,1444328651136,939,453,0,0,0,2,1,1,21,0002-00-0009-02.png,0004-00-0008-47.png
9,440,1,1444328651160,1444328651278,862,358,0,0,0,3,4,1,34,0003-00-0005-76.png,0005-00-0006-61.png
9,441,0,1444328651300,1444328651786,923,453,0,0,0,5,4,1,54,0001-00-0000-20.png,0005-00-0009-43.png
9,442,0,1444328651809,1444328652032,894,266,0,0,0,2,1,1,21,0002-00-0002-00.png,0004-00-0009-16.png
9,443,1,1444328652051,1444328652759,964,453,0,0,0,4,3,1,43,0005-00-0009-08.png,0003-00-0007-04.png
9,444,0,1444328652779,1444328654329,483,236,0,0,0,5,4,1,54,0001-00-0005-74.png,0005-00-0006-05.png
9,445,1,1444328654377,1444328654771,468,221,0,0,0,2,3,1,23,0002-00-0002-91.png,0003-00-0004-93.png
9,446,1,1444328654797,1444328654929,959,292,0,0,0,1,2,1,12,0004-00-0008-43.png,0002-00-0000-08.png
9,447,1,1444328654962,1444328655053,929,292,0,0,0,3,4,1,34,0003-00-0004-87.png,0005-00-0007-46.png
9,448,1,1444328655088,1444328655665,889,376,0,0,0,3,2,1,32,0003-00-0009-39.png,0002-00-0007-90.png
9,449,1,1444328655691,1444328655830,875,375,0,0,0,5,4,1,54,0001-00-0008-09.png,0005-00-0003-60.png
9,450,1,1444328655855,1444328666922,1087,214,0,0,0,5,4,1,54,0001-00-0001-06.png,0005-00-0000-77.png
9,451,1,1444328666950,1444328667023,942,387,0,0,0,4,3,1,43,0005-00-0000-93.png,0003-00-0003-37.png
9,452,1,1444328667041,1444328667587,942,295,0,0,0,2,3,1,23,0002-00-0000-23.png,0003-00-0008-78.png
9,453,1,1444328667643,1444328667785,871,404,0,0,0,1,2,1,12,0004-00-0004-97.png,0002-00-0009-14.png
9,454,1,1444328667815,1444328669366,1085,254,0,0,0,2,1,1,21,0002-00-0002-39.png,0004-00-0006-07.png
9,455,1,1444328669395,1444328669512,925,326,0,0,0,3,2,1,32,0003-00-0009-77.png,0002-00-0006-58.png
9,456,1,1444328669536,1444328670817,868,402,0,0,0,3,4,1,34,0003-00-0006-03.png,0005-00-0004-06.png
9,457,1,1444328670856,1444328670896,940,281,0,0,0,1,2,1,12,0004-00-0006-54.png,0002-00-0008-31.png
9,458,1,1444328670926,1444328670949,893,326,0,0,0,5,4,1,54,0001-00-0005-93.png,0005-00-0007-88.png
9,459,1,1444328670969,1444328671256,876,361,0,0,0,2,3,1,23,0002-00-0006-97.png,0003-00-0008-48.png
9,460,1,1444328671289,1444328671543,913,453,0,0,0,3,4,1,34,0003-00-0004-53.png,0005-00-0002-41.png
9,461,0,1444328671579,1444328672524,483,199,0,0,0,2,1,1,21,0002-00-0001-59.png,0004-00-0006-70.png
9,462,1,1444328672549,1444328672696,898,386,0,0,0,4,3,1,43,0005-00-0002-41.png,0003-00-0009-67.png
9,463,1,1444328672735,1444328675449,1066,219,0,0,0,3,2,1,32,0003-00-0004-93.png,0002-00-0000-96.png
9,464,1,1444328675477,1444328676641,1016,208,0,0,0,5,4,1,54,0001-00-0002-72.png,0005-00-0004-64.png
9,465,1,1444328676672,1444328677310,887,351,0,0,0,3,2,1,32,0003-00-0000-24.png,0002-00-0003-85.png
9,466,1,1444328677332,1444328677749,862,349,0,0,0,3,4,1,34,0003-00-0007-46.png,0005-00-0000-18.png
9,467,0,1444328677773,1444328679163,1042,241,0,0,0,2,3,1,23,0002-00-0000-41.png,0003-00-0000-41.png
9,468,1,1444328679211,1444328679677,881,330,0,0,0,4,3,1,43,0005-00-0009-70.png,0003-00-0007-71.png
9,469,0,1444328679701,1444328679843,1084,249,0,0,0,5,4,1,54,0001-00-0002-03.png,0005-00-0007-33.png
9,470,1,1444328679875,1444328679991,915,300,0,0,0,5,4,1,54,0001-00-0001-10.png,0005-00-0003-83.png
9,471,1,1444328680013,1444328680268,469,211,0,0,0,1,2,1,12,0004-00-0003-86.png,0002-00-0004-89.png
9,472,1,1444328680303,1444328686822,906,267,0,0,0,2,1,1,21,0002-00-0005-09.png,0004-00-0009-64.png
9,473,0,1444328686847,1444328692460,926,385,0,0,0,3,2,1,32,0003-00-0000-47.png,0002-00-0005-12.png
9,474,1,1444328692478,1444328692718,884,429,0,0,0,3,4,1,34,0003-00-0007-33.png,0005-00-0004-95.png
9,475,1,1444328692744,1444328692777,878,386,0,0,0,4,3,1,43,0005-00-0003-85.png,0003-00-0007-47.png
9,476,0,1444328692800,1444328693871,966,267,0,0,0,5,4,1,54,0001-00-0004-30.png,0005-00-0005-38.png
9,477,1,1444328693897,1444328694264,961,409,0,0,0,2,3,1,23,0002-00-0009-57.png,0003-00-0005-10.png
9,478,1,1444328694298,1444328694575,892,293,0,0,0,5,4,1,54,0001-00-0003-86.png,0005-00-0001-34.png
9,479,1,1444328694607,1444328695776,453,207,0,0,0,2,1,1,21,0002-00-0003-79.png,0004-00-0006-45.png
9,480,1,1444328695805,1444328695835,914,297,0,0,0,1,2,1,12,0004-00-0009-15.png,0002-00-0003-48.png
9,481,1,1444328695868,1444328695957,895,394,0,0,0,5,4,1,54,0001-00-0005-28.png,0005-00-0005-19.png
9,482,0,1444328695981,1444328696162,956,288,0,0,0,1,2,1,12,0004-00-0001-20.png,0002-00-0001-12.png
9,483,1,1444328696197,1444328696454,939,453,0,0,0,2,3,1,23,0002-00-0006-70.png,0003-00-0000-82.png
9,484,1,1444328696487,1444328696575,475,216,0,0,0,5,4,1,54,0001-00-0006-01.png,0005-00-0003-50.png
9,485,1,1444328696608,1444328701440,913,414,0,0,0,4,3,1,43,0005-00-0002-34.png,0003-00-0005-39.png
9,486,1,1444328701473,1444328701888,869,442,0,0,0,3,4,1,34,0003-00-0009-85.png,0005-00-0003-99.png
9,487,1,1444328701915,1444328704463,927,441,0,0,0,3,2,1,32,0003-00-0003-00.png,0002-00-0008-48.png
9,488,1,1444328704482,1444328704781,959,358,0,0,0,2,1,1,21,0002-00-0000-74.png,0004-00-0001-14.png
9,489,0,1444328704804,1444328706244,478,218,0,0,0,5,4,1,54,0001-00-0006-56.png,0005-00-0007-52.png
9,490,1,1444328706265,1444328706357,923,277,0,0,0,4,3,1,43,0005-00-0005-33.png,0003-00-0008-56.png
9,491,0,1444328706391,1444328706989,478,228,0,0,0,3,4,1,34,0003-00-0000-61.png,0005-00-0006-69.png
9,492,0,1444328707034,1444328707307,964,366,0,0,0,1,2,1,12,0004-00-0008-54.png,0002-00-0002-74.png
9,493,1,1444328707337,1444328707368,894,391,0,0,0,3,2,1,32,0003-00-0001-40.png,0002-00-0001-59.png
9,494,1,1444328707400,1444328708339,1024,275,0,0,0,2,1,1,21,0002-00-0008-19.png,0004-00-0009-52.png
9,495,1,1444328708367,1444328708521,873,378,0,0,0,2,3,1,23,0002-00-0007-64.png,0003-00-0000-03.png
9,496,1,1444328708553,1444328708781,939,427,0,0,0,5,4,1,54,0001-00-0003-03.png,0005-00-0008-61.png
9,497,1,1444328708822,1444328709394,463,220,0,0,0,1,2,1,12,0004-00-0000-16.png,0002-00-0006-89.png
9,498,0,1444328709429,1444328709507,1067,244,0,0,0,2,1,1,21,0002-00-0002-65.png,0004-00-0000-77.png
9,499,0,1444328709526,1444328709762,951,492,0,0,0,5,4,1,54,0001-00-0005-40.png,0005-00-0004-89.png
9,500,0,1444328709791,1444328710073,949,401,0,0,0,2,3,1,23,0002-00-0002-39.png,0003-00-0007-77.png
9,501,1,1444328710097,1444328710615,869,370,0,0,0,3,2,1,32,0003-00-0000-60.png,0002-00-0000-60.png
9,502,0,1444328710649,1444328711125,927,494,0,0,0,3,4,1,34,0003-00-0004-75.png,0005-00-0000-51.png
9,503,0,1444328711154,1444328711515,1067,245,0,0,0,4,3,1,43,0005-00-0001-53.png,0003-00-0001-00.png
9,504,0,1444328711544,1444328715964,514,286,0,0,0,5,4,1,54,0001-00-0002-82.png,0005-00-0001-68.png
9,505,1,1444328715996,1444328716366,939,453,0,0,0,5,4,1,54,0001-00-0001-08.png,0005-00-0000-39.png
9,506,0,1444328716405,1444328716844,869,383,0,0,0,4,3,1,43,0005-00-0000-05.png,0003-00-0000-93.png
9,507,1,1444328716873,1444328717715,455,214,0,0,0,2,3,1,23,0002-00-0000-52.png,0003-00-0008-28.png
9,508,1,1444328717745,1444328719644,1070,236,0,0,0,3,4,1,34,0003-00-0007-76.png,0005-00-0000-45.png
9,509,1,1444328719670,1444328719916,911,358,0,0,0,2,1,1,21,0002-00-0009-83.png,0004-00-0002-90.png
9,510,0,1444328719938,1444328720668,869,367,0,0,0,3,2,1,32,0003-00-0009-98.png,0002-00-0005-15.png
9,511,1,1444328720683,1444328721498,511,205,0,0,0,5,4,1,54,0001-00-0001-12.png,0005-00-0008-30.png
9,512,1,1444328721534,1444328721764,862,334,0,0,0,1,2,1,12,0004-00-0009-02.png,0002-00-0005-50.png
9,513,1,1444328721814,1444328721960,913,427,0,0,0,4,3,1,43,0005-00-0002-33.png,0003-00-0008-66.png
9,514,0,1444328721992,1444328733141,352,324,0,0,0,5,4,1,54,0001-00-0001-23.png,0005-00-0009-44.png
9,515,1,1444328733173,1444328733261,929,319,0,0,0,3,2,1,32,0003-00-0006-50.png,0002-00-0009-60.png
9,516,1,1444328733289,1444328733867,453,212,0,0,0,5,4,1,54,0001-00-0005-37.png,0005-00-0000-74.png
9,517,0,1444328733912,1444328734312,957,289,0,0,0,2,1,1,21,0002-00-0007-35.png,0004-00-0006-12.png
9,518,0,1444328734334,1444328734535,1071,266,0,0,0,2,3,1,23,0002-00-0008-23.png,0003-00-0000-20.png
9,519,0,1444328734567,1444328738314,865,326,0,0,0,3,4,1,34,0003-00-0002-51.png,0005-00-0007-43.png
9,520,1,1444328738353,1444328738855,874,349,0,0,0,1,2,1,12,0004-00-0007-55.png,0002-00-0000-19.png
9,521,1,1444328738896,1444328739253,892,324,0,0,0,3,4,1,34,0003-00-0005-87.png,0005-00-0007-83.png
9,522,0,1444328739289,1444328742188,870,375,0,0,0,5,4,1,54,0001-00-0009-50.png,0005-00-0001-22.png
9,523,1,1444328742213,1444328743672,874,371,0,0,0,4,3,1,43,0005-00-0004-81.png,0003-00-0002-64.png
9,524,1,1444328743700,1444328743919,962,289,0,0,0,5,4,1,54,0001-00-0006-90.png,0005-00-0003-68.png
9,525,0,1444328743952,1444328744133,449,214,0,0,0,1,2,1,12,0004-00-0003-65.png,0002-00-0009-80.png
9,526,0,1444328744154,1444328744659,964,360,0,0,0,2,3,1,23,0002-00-0008-63.png,0003-00-0002-19.png
9,527,1,1444328744682,1444328745607,474,232,0,0,0,2,1,1,21,0002-00-0003-67.png,0004-00-0001-68.png
9,528,1,1444328745630,1444328745861,442,227,0,0,0,3,2,1,32,0003-00-0002-07.png,0002-00-0008-82.png
9,529,1,1444328745890,1444328745902,1067,230,0,0,0,5,4,1,54,0001-00-0000-59.png,0005-00-0001-37.png
9,530,0,1444328745939,1444328745953,1118,245,0,0,0,3,4,1,34,0003-00-0004-25.png,0005-00-0005-17.png
9,531,0,1444328745979,1444328746501,463,238,0,0,0,4,3,1,43,0005-00-0004-31.png,0003-00-0001-72.png
9,532,1,1444328746530,1444328746683,375,359,0,0,0,1,2,1,12,0004-00-0005-24.png,0002-00-0008-30.png
9,533,0,1444328746715,1444328748813,912,465,0,0,0,2,3,1,23,0002-00-0007-76.png,0003-00-0008-22.png
9,534,0,1444328748841,1444328748985,962,350,0,0,0,5,4,1,54,0001-00-0001-75.png,0005-00-0006-38.png
9,535,0,1444328749004,1444328749052,888,374,0,0,0,3,2,1,32,0003-00-0008-14.png,0002-00-0002-02.png
9,536,0,1444328749068,1444328749201,975,491,0,0,0,2,1,1,21,0002-00-0002-49.png,0004-00-0006-55.png
9,537,0,1444328749236,1444328749762,500,232,0,0,0,4,3,1,43,0005-00-0004-48.png,0003-00-0001-63.png
9,538,1,1444328749796,1444328750469,949,298,0,0,0,5,4,1,54,0001-00-0007-15.png,0005-00-0007-21.png
9,539,0,1444328750515,1444328750697,894,376,0,0,0,3,2,1,32,0003-00-0009-26.png,0002-00-0000-65.png
9,540,1,1444328750721,1444328758364,928,382,0,0,0,2,1,1,21,0002-00-0006-46.png,0004-00-0003-99.png
9,541,1,1444328758394,1444328758684,450,258,0,0,0,3,4,1,34,0003-00-0002-77.png,0005-00-0005-36.png
9,542,1,1444328758724,1444328758924,969,298,0,0,0,2,3,1,23,0002-00-0006-97.png,0003-00-0003-95.png
9,543,0,1444328758948,1444328759994,459,254,0,0,0,5,4,1,54,0001-00-0001-52.png,0005-00-0002-72.png
9,544,0,1444328760024,1444328760588,892,421,0,0,0,1,2,1,12,0004-00-0001-01.png,0002-00-0001-32.png
9,545,1,1444328760614,1444328761132,907,430,0,0,0,5,4,1,54,0001-00-0007-50.png,0005-00-0003-76.png
9,546,1,1444328761150,1444328761629,904,427,0,0,0,2,3,1,23,0002-00-0002-98.png,0003-00-0007-43.png
9,547,0,1444328761665,1444328761952,888,401,0,0,0,5,4,1,54,0001-00-0006-41.png,0005-00-0004-85.png
9,548,1,1444328761986,1444328766468,976,375,0,0,0,2,1,1,21,0002-00-0003-76.png,0004-00-0005-34.png
9,549,1,1444328766506,1444328767149,893,340,0,0,0,3,2,1,32,0003-00-0000-38.png,0002-00-0005-88.png
9,550,1,1444328767178,1444328770259,482,244,0,0,0,3,4,1,34,0003-00-0003-06.png,0005-00-0007-81.png
9,551,1,1444328770290,1444328771463,481,265,0,0,0,4,3,1,43,0005-00-0009-74.png,0003-00-0009-71.png
9,552,0,1444328771503,1444328771528,927,427,0,0,0,1,2,1,12,0004-00-0008-39.png,0002-00-0009-90.png
9,553,0,1444328771557,1444328772350,866,380,0,0,0,4,3,1,43,0005-00-0008-17.png,0003-00-0006-78.png
9,554,1,1444328772387,1444328772575,879,383,0,0,0,1,2,1,12,0004-00-0002-02.png,0002-00-0001-27.png
9,555,0,1444328772605,1444328772749,966,267,0,0,0,3,4,1,34,0003-00-0008-22.png,0005-00-0006-45.png
9,556,1,1444328772777,1444328773079,890,419,0,0,0,2,1,1,21,0002-00-0003-13.png,0004-00-0001-57.png
9,557,1,1444328773109,1444328773188,913,427,0,0,0,5,4,1,54,0001-00-0000-32.png,0005-00-0002-16.png
9,558,1,1444328773225,1444328776007,398,326,0,0,0,3,2,1,32,0003-00-0000-08.png,0002-00-0002-04.png
9,559,0,1444328776051,1444328776407,1086,251,0,0,0,2,3,1,23,0002-00-0004-50.png,0003-00-0002-12.png
9,560,1,1444328776431,1444328777357,888,362,0,0,0,5,4,1,54,0001-00-0004-00.png,0005-00-0004-74.png
9,561,1,1444328777380,1444328777505,956,274,0,0,0,1,2,1,12,0004-00-0005-57.png,0002-00-0008-72.png
9,562,0,1444328777531,1444328778103,957,427,0,0,0,3,2,1,32,0003-00-0004-19.png,0002-00-0004-11.png
9,563,1,1444328778125,1444328778307,891,387,0,0,0,5,4,1,54,0001-00-0003-29.png,0005-00-0004-78.png
9,564,1,1444328778332,1444328778370,1076,217,0,0,0,3,4,1,34,0003-00-0006-87.png,0005-00-0007-32.png
9,565,1,1444328778391,1444328778466,862,325,0,0,0,2,3,1,23,0002-00-0000-31.png,0003-00-0003-00.png
9,566,1,1444328778492,1444328780313,960,297,0,0,0,4,3,1,43,0005-00-0001-79.png,0003-00-0009-25.png
9,567,0,1444328780349,1444328780365,898,402,0,0,0,2,1,1,21,0002-00-0004-56.png,0004-00-0007-13.png
9,568,0,1444328780385,1444328780748,485,276,0,0,0,5,4,1,54,0001-00-0006-76.png,0005-00-0001-38.png
9,569,0,1444328780778,1444328783051,919,317,0,0,0,2,1,1,21,0002-00-0003-50.png,0004-00-0007-52.png
9,570,1,1444328783083,1444328783110,914,363,0,0,0,5,4,1,54,0001-00-0004-82.png,0005-00-0007-25.png
9,571,1,1444328783134,1444328783687,913,362,0,0,0,2,3,1,23,0002-00-0000-92.png,0003-00-0006-40.png
9,572,0,1444328783714,1444328783889,462,212,0,0,0,3,2,1,32,0003-00-0001-38.png,0002-00-0005-04.png
9,573,1,1444328783915,1444328783980,509,252,0,0,0,3,4,1,34,0003-00-0003-82.png,0005-00-0001-20.png
9,574,1,1444328783999,1444328784299,862,401,0,0,0,5,4,1,54,0001-00-0006-02.png,0005-00-0000-06.png
9,575,1,1444328784321,1444328784430,872,394,0,0,0,4,3,1,43,0005-00-0008-44.png,0003-00-0003-63.png
9,576,0,1444328784459,1444328784657,478,239,0,0,0,1,2,1,12,0004-00-0007-02.png,0002-00-0001-53.png
9,577,0,1444328784691,1444328789432,965,286,0,0,0,5,4,1,54,0001-00-0005-28.png,0005-00-0001-82.png
9,578,1,1444328789471,1444328789487,896,403,0,0,0,4,3,1,43,0005-00-0000-75.png,0003-00-0005-75.png
9,579,1,1444328789513,1444328790114,867,377,0,0,0,3,2,1,32,0003-00-0008-09.png,0002-00-0005-72.png
9,580,0,1444328790144,1444328790440,862,375,0,0,0,5,4,1,54,0001-00-0007-38.png,0005-00-0009-63.png
9,581,0,1444328790467,1444328790711,1069,221,0,0,0,1,2,1,12,0004-00-0002-79.png,0002-00-0007-22.png
9,582,0,1444328790741,1444328791142,356,356,0,0,0,2,1,1,21,0002-00-0001-26.png,0004-00-0001-15.png
9,583,1,1444328791178,1444328791290,1045,224,0,0,0,2,3,1,23,0002-00-0006-30.png,0003-00-0006-59.png
9,584,0,1444328791329,1444328797328,885,350,0,0,0,3,4,1,34,0003-00-0003-40.png,0005-00-0001-51.png
9,585,1,1444328797357,1444328797467,964,271,0,0,0,1,2,1,12,0004-00-0005-44.png,0002-00-0004-28.png
9,586,0,1444328797492,1444328797680,1063,216,0,0,0,3,2,1,32,0003-00-0008-60.png,0002-00-0008-16.png
9,587,0,1444328797706,1444328798186,505,214,0,0,0,5,4,1,54,0001-00-0007-21.png,0005-00-0000-29.png
9,588,0,1444328798214,1444328799366,986,309,0,0,0,5,4,1,54,0001-00-0006-96.png,0005-00-0004-76.png
9,589,0,1444328799394,1444328799880,909,413,0,0,0,4,3,1,43,0005-00-0007-91.png,0003-00-0006-57.png
9,590,0,1444328799908,1444328800011,1092,218,0,0,0,2,1,1,21,0002-00-0005-87.png,0004-00-0004-46.png
9,591,0,1444328800037,1444328800276,926,440,0,0,0,2,3,1,23,0002-00-0000-07.png,0003-00-0007-53.png
9,592,1,1444328800305,1444328803543,1017,265,0,0,0,3,4,1,34,0003-00-0009-42.png,0005-00-0000-33.png
9,593,1,1444328803570,1444328803645,962,374,0,0,0,3,2,1,32,0003-00-0009-01.png,0002-00-0004-80.png
9,594,0,1444328803680,1444328804061,921,393,0,0,0,4,3,1,43,0005-00-0001-17.png,0003-00-0006-55.png
9,595,0,1444328804080,1444328804521,478,245,0,0,0,1,2,1,12,0004-00-0004-95.png,0002-00-0008-88.png
9,596,0,1444328804561,1444328804717,947,275,0,0,0,2,1,1,21,0002-00-0000-80.png,0004-00-0007-92.png
9,597,1,1444328804748,1444328804896,862,375,0,0,0,5,4,1,54,0001-00-0006-32.png,0005-00-0001-05.png
9,598,0,1444328804921,1444328806174,900,401,0,0,0,5,4,1,54,0001-00-0005-11.png,0005-00-0003-03.png
9,599,1,1444328806201,1444328806735,1103,256,0,0,0,3,4,1,34,0003-00-0008-92.png,0005-00-0003-19.png
9,600,1,1444328806776,1444328807077,990,453,0,0,0,2,3,1,23,0002-00-0005-96.png,0003-00-0008-59.png
9,601,1,1444328807108,1444328809489,964,339,0,0,0,4,3,1,43,0005-00-0001-86.png,0003-00-0003-46.png
9,602,1,1444328809519,1444328809656,914,376,0,0,0,2,1,1,21,0002-00-0002-28.png,0004-00-0004-72.png
9,603,0,1444328809694,1444328809745,983,369,0,0,0,2,3,1,23,0002-00-0009-54.png,0003-00-0005-39.png
9,604,1,1444328809772,1444328809780,917,399,0,0,0,3,2,1,32,0003-00-0000-15.png,0002-00-0003-82.png
9,605,0,1444328809813,1444328810583,877,435,0,0,0,1,2,1,12,0004-00-0005-34.png,0002-00-0004-25.png
9,606,1,1444328810608,1444328810795,941,346,0,0,0,5,4,1,54,0001-00-0002-53.png,0005-00-0006-01.png
9,607,0,1444328810833,1444328811470,990,284,0,0,0,5,4,1,54,0001-00-0002-14.png,0005-00-0001-41.png
9,608,1,1444328811500,1444328812516,894,394,0,0,0,3,4,1,34,0003-00-0004-80.png,0005-00-0004-61.png
9,609,0,1444328812533,1444328812775,373,357,0,0,0,2,1,1,21,0002-00-0006-03.png,0004-00-0008-41.png
9,610,0,1444328812809,1444328813403,481,224,0,0,0,5,4,1,54,0001-00-0007-20.png,0005-00-0004-09.png
9,611,0,1444328813426,1444328815149,917,386,0,0,0,2,3,1,23,0002-00-0003-13.png,0003-00-0002-27.png
9,612,0,1444328815184,1444328815258,982,275,0,0,0,4,3,1,43,0005-00-0008-88.png,0003-00-0007-09.png
9,613,1,1444328815282,1444328815332,903,409,0,0,0,1,2,1,12,0004-00-0009-24.png,0002-00-0008-65.png
9,614,1,1444328815356,1444328816171,888,361,0,0,0,3,2,1,32,0003-00-0003-93.png,0002-00-0009-24.png
9,615,1,1444328816189,1444328817361,504,245,0,0,0,5,4,1,54,0001-00-0009-15.png,0005-00-0007-66.png
9,616,1,1444328817394,1444328818105,964,358,0,0,0,3,4,1,34,0003-00-0001-11.png,0005-00-0001-41.png
9,617,0,1444328818129,1444328819193,885,376,0,0,0,5,4,1,54,0001-00-0003-41.png,0005-00-0003-57.png
9,618,1,1444328819230,1444328824743,922,420,0,0,0,1,2,1,12,0004-00-0000-14.png,0002-00-0009-74.png
9,619,0,1444328824768,1444328825008,964,333,0,0,0,2,3,1,23,0002-00-0002-35.png,0003-00-0004-53.png
9,620,1,1444328825056,1444328825315,390,319,0,0,0,3,4,1,34,0003-00-0000-28.png,0005-00-0002-05.png
9,621,0,1444328825343,1444328825480,927,435,0,0,0,5,4,1,54,0001-00-0000-25.png,0005-00-0002-42.png
9,622,0,1444328825500,1444328826408,989,305,0,0,0,2,1,1,21,0002-00-0005-69.png,0004-00-0006-00.png
9,623,0,1444328826436,1444328827692,492,216,0,0,0,3,2,1,32,0003-00-0003-93.png,0002-00-0005-78.png
9,624,1,1444328827730,1444328827984,888,349,0,0,0,4,3,1,43,0005-00-0006-57.png,0003-00-0001-36.png
9,625,0,1444328828013,1444328828385,883,375,0,0,0,4,3,1,43,0005-00-0000-99.png,0003-00-0004-90.png
9,626,1,1444328828412,1444328828775,933,415,0,0,0,3,2,1,32,0003-00-0009-60.png,0002-00-0009-71.png
9,627,1,1444328828792,1444328829161,897,395,0,0,0,3,4,1,34,0003-00-0004-60.png,0005-00-0002-95.png
9,628,0,1444328829199,1444328830258,874,379,0,0,0,2,1,1,21,0002-00-0008-63.png,0004-00-0001-88.png
9,629,0,1444328830296,1444328830385,490,238,0,0,0,1,2,1,12,0004-00-0009-21.png,0002-00-0000-81.png
9,630,0,1444328830412,1444328830608,930,487,0,0,0,5,4,1,54,0001-00-0007-18.png,0005-00-0004-22.png
9,631,1,1444328830635,1444328832371,477,266,0,0,0,5,4,1,54,0001-00-0000-58.png,0005-00-0000-52.png
9,632,1,1444328832407,1444328834973,921,289,0,0,0,2,3,1,23,0002-00-0009-38.png,0003-00-0004-79.png
9,633,1,1444328834998,1444328835343,905,404,0,0,0,2,3,1,23,0002-00-0001-62.png,0003-00-0006-26.png
9,634,1,1444328835376,1444328835561,964,232,0,0,0,4,3,1,43,0005-00-0006-95.png,0003-00-0009-20.png
9,635,1,1444328835587,1444328837679,1083,218,0,0,0,5,4,1,54,0001-00-0001-87.png,0005-00-0004-32.png
9,636,1,1444328837721,1444328837954,487,250,0,0,0,5,4,1,54,0001-00-0007-01.png,0005-00-0001-97.png
9,637,1,1444328837975,1444328838364,959,289,0,0,0,1,2,1,12,0004-00-0004-89.png,0002-00-0000-05.png
9,638,1,1444328838385,1444328838881,930,432,0,0,0,3,4,1,34,0003-00-0009-80.png,0005-00-0000-40.png
9,639,1,1444328838905,1444328838931,421,357,0,0,0,3,2,1,32,0003-00-0003-49.png,0002-00-0006-85.png
9,640,1,1444328838954,1444328843452,1118,235,0,0,0,2,1,1,21,0002-00-0003-92.png,0004-00-0001-87.png
9,641,1,1444328843485,1444328843576,913,391,0,0,0,2,3,1,23,0002-00-0008-23.png,0003-00-0007-41.png
9,642,1,1444328843605,1444328843682,898,349,0,0,0,5,4,1,54,0001-00-0001-98.png,0005-00-0002-24.png
9,643,1,1444328843712,1444328843930,905,358,0,0,0,3,4,1,34,0003-00-0002-16.png,0005-00-0008-50.png
9,644,0,1444328843959,1444328844121,996,263,0,0,0,4,3,1,43,0005-00-0009-89.png,0003-00-0002-07.png
9,645,1,1444328844159,1444328844565,907,380,0,0,0,5,4,1,54,0001-00-0001-96.png,0005-00-0004-82.png
9,646,1,1444328844594,1444328844945,992,273,0,0,0,3,2,1,32,0003-00-0007-59.png,0002-00-0002-74.png
9,647,1,1444328844973,1444328845088,471,257,0,0,0,1,2,1,12,0004-00-0004-48.png,0002-00-0002-31.png
9,648,0,1444328845118,1444328845450,1060,244,0,0,0,2,1,1,21,0002-00-0002-69.png,0004-00-0002-65.png
9,649,1,1444328845473,1444328846630,938,348,0,0,0,5,4,1,54,0001-00-0002-94.png,0005-00-0006-90.png
9,650,1,1444328846654,1444328849688,968,285,0,0,0,1,2,1,12,0004-00-0007-96.png,0002-00-0003-76.png
9,651,0,1444328849717,1444328849839,476,230,0,0,0,3,2,1,32,0003-00-0006-17.png,0002-00-0002-77.png
9,652,0,1444328849874,1444328850212,494,238,0,0,0,2,3,1,23,0002-00-0008-99.png,0003-00-0009-87.png
9,653,1,1444328850243,1444328851588,863,359,0,0,0,5,4,1,54,0001-00-0004-73.png,0005-00-0007-13.png
9,654,0,1444328851627,1444328854968,882,404,0,0,0,3,4,1,34,0003-00-0004-18.png,0005-00-0000-61.png
9,655,0,1444328854991,1444328855501,906,383,0,0,0,4,3,1,43,0005-00-0009-09.png,0003-00-0001-45.png
9,656,1,1444328855538,1444328855645,935,367,0,0,0,2,1,1,21,0002-00-0005-44.png,0004-00-0009-14.png
9,657,1,1444328855671,1444328856135,1071,246,0,0,0,3,2,1,32,0003-00-0007-27.png,0002-00-0003-04.png
9,658,1,1444328856176,1444328856442,479,232,0,0,0,5,4,1,54,0001-00-0000-52.png,0005-00-0004-42.png
9,659,1,1444328856464,1444328857584,1003,493,0,0,0,1,2,1,12,0004-00-0003-42.png,0002-00-0000-42.png
9,660,1,1444328857604,1444328857667,966,296,0,0,0,4,3,1,43,0005-00-0005-93.png,0003-00-0002-13.png
9,661,0,1444328857697,1444328857865,898,386,0,0,0,5,4,1,54,0001-00-0006-25.png,0005-00-0004-78.png
9,662,1,1444328857893,1444328858019,904,408,0,0,0,2,3,1,23,0002-00-0007-27.png,0003-00-0002-92.png
9,663,0,1444328858044,1444328858777,508,226,0,0,0,2,1,1,21,0002-00-0007-88.png,0004-00-0002-22.png
9,664,1,1444328858808,1444328860342,857,450,0,0,0,3,4,1,34,0003-00-0009-86.png,0005-00-0006-33.png
9,665,1,1444328860366,1444328860404,865,364,0,0,0,1,2,1,12,0004-00-0009-63.png,0002-00-0002-41.png
9,666,1,1444328860453,1444328860787,990,261,0,0,0,2,1,1,21,0002-00-0000-59.png,0004-00-0008-95.png
9,667,1,1444328860821,1444328861292,888,358,0,0,0,2,3,1,23,0002-00-0006-64.png,0003-00-0005-09.png
9,668,1,1444328861321,1444328861591,503,234,0,0,0,5,4,1,54,0001-00-0008-63.png,0005-00-0009-93.png
9,669,1,1444328861621,1444328861626,858,381,0,0,0,4,3,1,43,0005-00-0002-02.png,0003-00-0001-09.png
9,670,1,1444328861650,1444328861816,914,436,0,0,0,3,2,1,32,0003-00-0000-66.png,0002-00-0009-40.png
9,671,1,1444328861839,1444328862774,901,427,0,0,0,5,4,1,54,0001-00-0009-89.png,0005-00-0001-22.png
9,672,1,1444328862801,1444328863328,964,365,0,0,0,3,4,1,34,0003-00-0004-64.png,0005-00-0008-11.png
9,673,0,1444328863361,1444328863610,896,377,0,0,0,5,4,1,54,0001-00-0003-17.png,0005-00-0009-73.png
9,674,0,1444328863633,1444328864225,871,445,0,0,0,4,3,1,43,0005-00-0005-72.png,0003-00-0000-51.png
9,675,1,1444328864242,1444328864659,891,411,0,0,0,5,4,1,54,0001-00-0000-37.png,0005-00-0005-21.png
9,676,0,1444328864688,1444328864804,416,401,0,0,0,3,4,1,34,0003-00-0008-87.png,0005-00-0009-12.png
9,677,1,1444328864831,1444328866700,913,358,0,0,0,2,1,1,21,0002-00-0007-20.png,0004-00-0008-22.png
9,678,1,1444328866731,1444328867044,912,330,0,0,0,1,2,1,12,0004-00-0002-91.png,0002-00-0001-35.png
9,679,1,1444328867082,1444328867134,469,213,0,0,0,3,2,1,32,0003-00-0003-27.png,0002-00-0009-46.png
9,680,1,1444328867173,1444328867329,939,506,0,0,0,2,3,1,23,0002-00-0005-87.png,0003-00-0006-85.png
9,681,0,1444328867365,1444328867549,1091,273,0,0,0,1,2,1,12,0004-00-0006-34.png,0002-00-0005-00.png
9,682,1,1444328867579,1444328868455,939,338,0,0,0,2,3,1,23,0002-00-0000-16.png,0003-00-0004-58.png
9,683,1,1444328868485,1444328868863,478,235,0,0,0,2,1,1,21,0002-00-0005-12.png,0004-00-0004-99.png
9,684,0,1444328868884,1444328869379,476,236,0,0,0,5,4,1,54,0001-00-0007-02.png,0005-00-0008-45.png
9,685,1,1444328869406,1444328869931,491,232,0,0,0,5,4,1,54,0001-00-0007-05.png,0005-00-0005-61.png
9,686,0,1444328869977,1444328871026,478,271,0,0,0,3,4,1,34,0003-00-0007-15.png,0005-00-0003-73.png
9,687,1,1444328871059,1444328871412,871,342,0,0,0,4,3,1,43,0005-00-0001-34.png,0003-00-0004-57.png
9,688,1,1444328871434,1444328871753,1073,184,0,0,0,3,2,1,32,0003-00-0009-68.png,0002-00-0009-79.png
9,689,1,1444328871776,1444328872647,925,363,0,0,0,4,3,1,43,0005-00-0008-85.png,0003-00-0006-57.png
9,690,1,1444328872680,1444328872712,315,336,0,0,0,5,4,1,54,0001-00-0005-74.png,0005-00-0009-83.png
9,691,0,1444328872748,1444328872874,910,271,0,0,0,3,2,1,32,0003-00-0000-12.png,0002-00-0007-05.png
9,692,1,1444328872895,1444328873460,1014,263,0,0,0,3,4,1,34,0003-00-0002-44.png,0005-00-0008-50.png
9,693,1,1444328873490,1444328873742,1036,242,0,0,0,2,1,1,21,0002-00-0008-53.png,0004-00-0005-45.png
9,694,1,1444328873756,1444328874680,1016,453,0,0,0,2,3,1,23,0002-00-0008-70.png,0003-00-0007-64.png
9,695,0,1444328874712,1444328874892,496,192,0,0,0,5,4,1,54,0001-00-0003-38.png,0005-00-0000-61.png
9,696,1,1444328874909,1444328875333,486,212,0,0,0,1,2,1,12,0004-00-0007-85.png,0002-00-0001-71.png
9,697,1,1444328875357,1444328875494,950,313,0,0,0,4,3,1,43,0005-00-0003-00.png,0003-00-0003-79.png
9,698,1,1444328875519,1444328876170,966,433,0,0,0,5,4,1,54,0001-00-0009-34.png,0005-00-0006-15.png
9,699,0,1444328876204,1444328876668,927,315,0,0,0,1,2,1,12,0004-00-0000-29.png,0002-00-0003-90.png
9,700,1,1444328876697,1444328877188,1092,218,0,0,0,3,2,1,32,0003-00-0002-74.png,0002-00-0007-05.png
9,701,1,1444328877207,1444328885350,867,387,0,0,0,3,4,1,34,0003-00-0006-05.png,0005-00-0000-71.png
9,702,1,1444328885372,1444328886138,862,284,0,0,0,5,4,1,54,0001-00-0002-27.png,0005-00-0002-19.png
9,703,1,1444328886174,1444328886258,467,216,0,0,0,2,1,1,21,0002-00-0006-94.png,0004-00-0009-38.png
9,704,1,1444328886310,1444328887806,940,298,0,0,0,2,3,1,23,0002-00-0009-07.png,0003-00-0007-10.png
9,705,1,1444328887828,1444328889726,879,375,0,0,0,5,4,1,54,0001-00-0009-72.png,0005-00-0002-20.png
9,706,1,1444328889756,1444328889897,863,288,0,0,0,3,4,1,34,0003-00-0001-87.png,0005-00-0008-37.png
9,707,0,1444328889937,1444328890002,914,248,0,0,0,5,4,1,54,0001-00-0000-84.png,0005-00-0002-09.png
9,708,1,1444328890026,1444328892259,860,367,0,0,0,2,3,1,23,0002-00-0000-49.png,0003-00-0004-34.png
9,709,1,1444328892289,1444328892547,1069,235,0,0,0,4,3,1,43,0005-00-0001-76.png,0003-00-0003-35.png
9,710,1,1444328892588,1444328892854,1051,218,0,0,0,1,2,1,12,0004-00-0009-79.png,0002-00-0004-41.png
9,711,1,1444328892877,1444328892886,969,287,0,0,0,3,2,1,32,0003-00-0002-32.png,0002-00-0007-96.png
9,712,0,1444328892916,1444328893175,936,426,0,0,0,2,1,1,21,0002-00-0005-16.png,0004-00-0008-24.png
9,713,0,1444328893209,1444328893540,506,224,0,0,0,5,4,1,54,0001-00-0008-62.png,0005-00-0000-49.png
9,714,1,1444328893567,1444328893704,964,506,0,0,0,3,2,1,32,0003-00-0006-30.png,0002-00-0003-05.png
9,715,1,1444328893722,1444328894603,888,364,0,0,0,3,4,1,34,0003-00-0009-53.png,0005-00-0005-89.png
9,716,1,1444328894630,1444328895279,888,362,0,0,0,2,3,1,23,0002-00-0008-00.png,0003-00-0009-75.png
9,717,0,1444328895302,1444328895384,1099,220,0,0,0,5,4,1,54,0001-00-0001-01.png,0005-00-0005-14.png
9,718,0,1444328895414,1444328895761,865,369,0,0,0,1,2,1,12,0004-00-0001-94.png,0002-00-0000-89.png
9,719,1,1444328895803,1444328897508,1067,236,0,0,0,2,1,1,21,0002-00-0002-44.png,0004-00-0008-02.png
9,720,1,1444328897558,1444328897820,879,347,0,0,0,4,3,1,43,0005-00-0005-52.png,0003-00-0008-62.png
9,721,1,1444328897838,1444328899425,462,206,0,0,0,1,2,1,12,0004-00-0003-06.png,0002-00-0006-77.png
9,722,1,1444328899483,1444328899785,1053,244,0,0,0,2,1,1,21,0002-00-0000-69.png,0004-00-0003-54.png
9,723,1,1444328899822,1444328900224,901,398,0,0,0,3,2,1,32,0003-00-0007-23.png,0002-00-0001-70.png
9,724,0,1444328900240,1444328900727,902,345,0,0,0,5,4,1,54,0001-00-0008-56.png,0005-00-0005-44.png
9,725,0,1444328900763,1444328900873,964,287,0,0,0,3,4,1,34,0003-00-0008-05.png,0005-00-0001-30.png
9,726,0,1444328900899,1444328901580,895,446,0,0,0,2,3,1,23,0002-00-0008-14.png,0003-00-0000-51.png
9,727,0,1444328901602,1444328901956,862,427,0,0,0,5,4,1,54,0001-00-0005-24.png,0005-00-0002-57.png
9,728,0,1444328901984,1444328905350,507,214,0,0,0,4,3,1,43,0005-00-0000-45.png,0003-00-0003-28.png
9,729,0,1444328905380,1444328905635,925,491,0,0,0,2,3,1,23,0002-00-0009-44.png,0003-00-0005-21.png
9,730,1,1444328905657,1444328906220,879,382,0,0,0,3,4,1,34,0003-00-0009-30.png,0005-00-0007-26.png
9,731,0,1444328906253,1444328906501,932,279,0,0,0,5,4,1,54,0001-00-0009-50.png,0005-00-0003-86.png
9,732,0,1444328906520,1444328906589,489,210,0,0,0,4,3,1,43,0005-00-0001-50.png,0003-00-0006-10.png
9,733,0,1444328906633,1444328908246,934,285,0,0,0,3,2,1,32,0003-00-0009-03.png,0002-00-0005-38.png
9,734,0,1444328908269,1444328910079,1062,220,0,0,0,5,4,1,54,0001-00-0004-86.png,0005-00-0002-99.png
9,735,0,1444328910118,1444328910346,1026,218,0,0,0,2,1,1,21,0002-00-0004-15.png,0004-00-0001-42.png
9,736,1,1444328910371,1444328910448,888,349,0,0,0,1,2,1,12,0004-00-0007-56.png,0002-00-0005-48.png
9,737,0,1444328910472,1444328910519,900,358,0,0,0,1,2,1,12,0004-00-0007-25.png,0002-00-0009-68.png
9,738,0,1444328910573,1444328911073,876,401,0,0,0,5,4,1,54,0001-00-0008-28.png,0005-00-0005-73.png
9,739,1,1444328911096,1444328911141,895,389,0,0,0,3,4,1,34,0003-00-0005-36.png,0005-00-0001-44.png
9,740,0,1444328911166,1444328911587,405,258,0,0,0,2,1,1,21,0002-00-0004-25.png,0004-00-0005-88.png
9,741,1,1444328911615,1444328911788,931,327,0,0,0,3,2,1,32,0003-00-0002-65.png,0002-00-0000-36.png
9,742,1,1444328911833,1444328914472,929,349,0,0,0,2,3,1,23,0002-00-0006-86.png,0003-00-0005-98.png
9,743,1,1444328914499,1444328915487,484,215,0,0,0,5,4,1,54,0001-00-0001-96.png,0005-00-0005-06.png
9,744,0,1444328915511,1444328915810,943,359,0,0,0,4,3,1,43,0005-00-0004-15.png,0003-00-0000-13.png
9,745,1,1444328915851,1444328916203,506,230,0,0,0,5,4,1,54,0001-00-0000-57.png,0005-00-0008-87.png
9,746,1,1444328916219,1444328916643,956,301,0,0,0,1,2,1,12,0004-00-0001-14.png,0002-00-0003-42.png
9,747,0,1444328916710,1444328916819,970,299,0,0,0,2,3,1,23,0002-00-0001-60.png,0003-00-0009-64.png
9,748,0,1444328916851,1444328917045,1063,222,0,0,0,3,4,1,34,0003-00-0002-25.png,0005-00-0001-92.png
9,749,1,1444328917076,1444328924194,465,213,0,0,0,3,2,1,32,0003-00-0001-02.png,0002-00-0005-59.png
9,750,0,1444328924224,1444328924359,481,207,0,0,0,5,4,1,54,0001-00-0003-22.png,0005-00-0009-79.png
9,751,1,1444328924390,1444328924534,437,272,0,0,0,4,3,1,43,0005-00-0004-20.png,0003-00-0007-81.png
9,752,0,1444328924566,1444328925147,1000,487,0,0,0,2,1,1,21,0002-00-0009-99.png,0004-00-0006-53.png
9,753,1,1444328925195,1444328925389,466,165,0,0,0,2,1,1,21,0002-00-0007-06.png,0004-00-0001-75.png
9,754,1,1444328925409,1444328925428,911,329,0,0,0,4,3,1,43,0005-00-0004-52.png,0003-00-0000-84.png
9,755,0,1444328925450,1444328925793,903,409,0,0,0,1,2,1,12,0004-00-0006-43.png,0002-00-0006-53.png
9,756,1,1444328925822,1444328926234,945,335,0,0,0,3,4,1,34,0003-00-0002-32.png,0005-00-0000-06.png
9,757,1,1444328926261,1444328926308,427,203,0,0,0,5,4,1,54,0001-00-0002-41.png,0005-00-0008-40.png
9,758,1,1444328926338,1444328929220,455,227,0,0,0,2,3,1,23,0002-00-0006-80.png,0003-00-0006-21.png
9,759,0,1444328929243,1444328929742,955,291,0,0,0,3,2,1,32,0003-00-0009-13.png,0002-00-0000-10.png
9,760,0,1444328929775,1444328929793,464,232,0,0,0,5,4,1,54,0001-00-0002-55.png,0005-00-0002-28.png
9,761,1,1444328929823,1444328930433,453,235,0,0,0,1,2,1,12,0004-00-0001-71.png,0002-00-0002-84.png
9,762,1,1444328930455,1444328931650,865,344,0,0,0,5,4,1,54,0001-00-0008-39.png,0005-00-0007-26.png
9,763,1,1444328931702,1444328931785,966,270,0,0,0,2,1,1,21,0002-00-0007-60.png,0004-00-0003-30.png
9,764,1,1444328931812,1444328931944,1045,257,0,0,0,4,3,1,43,0005-00-0008-33.png,0003-00-0006-85.png
9,765,0,1444328931977,1444328932315,468,234,0,0,0,5,4,1,54,0001-00-0001-36.png,0005-00-0007-36.png
9,766,0,1444328932337,1444328934163,928,286,0,0,0,3,4,1,34,0003-00-0000-40.png,0005-00-0005-84.png
9,767,1,1444328934187,1444328934486,926,440,0,0,0,2,3,1,23,0002-00-0008-97.png,0003-00-0007-29.png
9,768,1,1444328934516,1444328934537,936,318,0,0,0,3,2,1,32,0003-00-0004-10.png,0002-00-0004-73.png
9,769,1,1444328934568,1444328934889,939,453,0,0,0,2,3,1,23,0002-00-0003-58.png,0003-00-0005-87.png
9,770,1,1444328934918,1444328935175,943,278,0,0,0,2,1,1,21,0002-00-0005-95.png,0004-00-0005-41.png
9,771,1,1444328935209,1444328936189,465,236,0,0,0,4,3,1,43,0005-00-0008-30.png,0003-00-0008-05.png
9,772,1,1444328936221,1444328936328,473,256,0,0,0,1,2,1,12,0004-00-0009-87.png,0002-00-0001-78.png
9,773,1,1444328936352,1444328936788,1062,247,0,0,0,3,2,1,32,0003-00-0009-97.png,0002-00-0009-20.png
9,774,1,1444328936819,1444328936967,866,331,0,0,0,5,4,1,54,0001-00-0001-92.png,0005-00-0000-60.png
9,775,1,1444328937001,1444328937061,1018,234,0,0,0,3,4,1,34,0003-00-0008-97.png,0005-00-0008-12.png
9,776,1,1444328937096,1444328940111,944,291,0,0,0,5,4,1,54,0001-00-0001-64.png,0005-00-0004-71.png
9,777,0,1444328940138,1444328942018,916,389,0,0,0,3,4,1,34,0003-00-0009-18.png,0005-00-0005-44.png
9,778,1,1444328942050,1444328942918,970,291,0,0,0,4,3,1,43,0005-00-0006-28.png,0003-00-0000-72.png
9,779,1,1444328942941,1444328943509,1067,241,0,0,0,3,2,1,32,0003-00-0008-53.png,0002-00-0005-13.png
9,780,1,1444328943534,1444328945251,437,273,0,0,0,5,4,1,54,0001-00-0008-58.png,0005-00-0005-31.png
9,781,1,1444328945277,1444328945428,464,219,0,0,0,5,4,1,54,0001-00-0009-13.png,0005-00-0004-89.png
9,782,1,1444328945457,1444328946723,417,423,0,0,0,2,3,1,23,0002-00-0008-13.png,0003-00-0003-26.png
9,783,1,1444328946750,1444328947080,939,281,0,0,0,1,2,1,12,0004-00-0007-46.png,0002-00-0005-91.png
9,784,1,1444328947108,1444328947475,939,343,0,0,0,2,1,1,21,0002-00-0003-48.png,0004-00-0000-35.png
9,785,0,1444328947500,1444328948184,939,401,0,0,0,2,3,1,23,0002-00-0008-99.png,0003-00-0008-08.png
9,786,1,1444328948205,1444328948379,1066,269,0,0,0,2,1,1,21,0002-00-0007-47.png,0004-00-0001-84.png
9,787,1,1444328948425,1444328948876,468,258,0,0,0,5,4,1,54,0001-00-0000-44.png,0005-00-0001-93.png
9,788,0,1444328948905,1444328949554,950,289,0,0,0,3,2,1,32,0003-00-0008-10.png,0002-00-0008-47.png
9,789,0,1444328949594,1444328949866,483,244,0,0,0,1,2,1,12,0004-00-0009-54.png,0002-00-0002-88.png
9,790,0,1444328949894,1444328950527,474,218,0,0,0,3,4,1,34,0003-00-0002-62.png,0005-00-0002-58.png
9,791,1,1444328950553,1444328953240,1044,225,0,0,0,5,4,1,54,0001-00-0007-65.png,0005-00-0005-95.png
9,792,1,1444328953274,1444328954091,1046,235,0,0,0,4,3,1,43,0005-00-0001-33.png,0003-00-0000-53.png
9,793,0,1444328954116,1444328954267,427,385,0,0,0,3,2,1,32,0003-00-0008-02.png,0002-00-0002-99.png
9,794,0,1444328954289,1444328954768,939,480,0,0,0,4,3,1,43,0005-00-0003-17.png,0003-00-0008-27.png
9,795,1,1444328954794,1444328956281,967,289,0,0,0,5,4,1,54,0001-00-0003-20.png,0005-00-0007-13.png
9,796,0,1444328956308,1444328958112,874,405,0,0,0,2,1,1,21,0002-00-0000-32.png,0004-00-0000-97.png
9,797,0,1444328958144,1444328959206,1067,255,0,0,0,1,2,1,12,0004-00-0002-19.png,0002-00-0004-09.png
9,798,0,1444328959238,1444328959320,942,288,0,0,0,5,4,1,54,0001-00-0004-04.png,0005-00-0006-32.png
9,799,0,1444328959344,1444328959451,914,283,0,0,0,3,4,1,34,0003-00-0008-73.png,0005-00-0004-88.png
9,800,1,1444328959476,1444328959822,1068,251,0,0,0,2,3,1,23,0002-00-0008-85.png,0003-00-0000-28.png
9,801,1,1444328959845,1444328960551,860,465,0,0,0,2,1,1,21,0002-00-0003-58.png,0004-00-0004-79.png
9,802,1,1444328960580,1444328961499,872,383,0,0,0,1,2,1,12,0004-00-0009-31.png,0002-00-0005-45.png
9,803,0,1444328961522,1444328962032,494,227,0,0,0,2,3,1,23,0002-00-0007-01.png,0003-00-0006-87.png
9,804,0,1444328962075,1444328962423,878,349,0,0,0,3,4,1,34,0003-00-0005-67.png,0005-00-0004-37.png
9,805,1,1444328962461,1444328962910,876,427,0,0,0,3,2,1,32,0003-00-0005-80.png,0002-00-0006-13.png
9,806,1,1444328962932,1444328963380,460,229,0,0,0,5,4,1,54,0001-00-0004-17.png,0005-00-0000-31.png
9,807,1,1444328963416,1444328965094,913,315,0,0,0,5,4,1,54,0001-00-0002-94.png,0005-00-0004-20.png
9,808,1,1444328965132,1444328965382,986,475,0,0,0,4,3,1,43,0005-00-0005-20.png,0003-00-0008-85.png
9,809,0,1444328965419,1444328966237,491,238,0,0,0,2,1,1,21,0002-00-0006-49.png,0004-00-0001-11.png
9,810,1,1444328966260,1444328967472,489,235,0,0,0,2,3,1,23,0002-00-0004-41.png,0003-00-0005-89.png
9,811,1,1444328967493,1444328967923,966,293,0,0,0,5,4,1,54,0001-00-0002-24.png,0005-00-0007-68.png
9,812,0,1444328967967,1444328968140,1067,275,0,0,0,5,4,1,54,0001-00-0000-83.png,0005-00-0005-02.png
9,813,1,1444328968162,1444328969146,484,261,0,0,0,1,2,1,12,0004-00-0009-51.png,0002-00-0003-08.png
9,814,0,1444328969192,1444328970271,1070,249,0,0,0,4,3,1,43,0005-00-0006-14.png,0003-00-0006-57.png
9,815,0,1444328970314,1444328971149,886,384,0,0,0,3,2,1,32,0003-00-0005-18.png,0002-00-0009-46.png
9,816,1,1444328971175,1444328971329,984,290,0,0,0,3,4,1,34,0003-00-0000-79.png,0005-00-0004-06.png
9,817,1,1444328971357,1444328971880,921,419,0,0,0,1,2,1,12,0004-00-0006-73.png,0002-00-0002-18.png
9,818,1,1444328971910,1444328971945,894,392,0,0,0,3,2,1,32,0003-00-0003-77.png,0002-00-0008-68.png
9,819,1,1444328971961,1444328972330,1069,244,0,0,0,4,3,1,43,0005-00-0005-46.png,0003-00-0003-48.png
9,820,0,1444328972369,1444328972677,468,224,0,0,0,5,4,1,54,0001-00-0004-76.png,0005-00-0000-20.png
9,821,1,1444328972693,1444328973437,478,237,0,0,0,2,3,1,23,0002-00-0007-60.png,0003-00-0002-09.png
9,822,1,1444328973466,1444328973570,898,453,0,0,0,5,4,1,54,0001-00-0005-66.png,0005-00-0007-44.png
9,823,1,1444328973603,1444328975153,927,493,0,0,0,2,1,1,21,0002-00-0006-38.png,0004-00-0004-70.png
9,824,0,1444328975176,1444328975913,913,480,0,0,0,3,4,1,34,0003-00-0002-28.png,0005-00-0007-44.png
9,825,1,1444328975940,1444328976236,1067,234,0,0,0,4,3,1,43,0005-00-0003-16.png,0003-00-0000-97.png
9,826,1,1444328976269,1444328976526,477,224,0,0,0,5,4,1,54,0001-00-0002-93.png,0005-00-0009-45.png
9,827,0,1444328976559,1444328978168,468,221,0,0,0,2,1,1,21,0002-00-0000-09.png,0004-00-0006-60.png
9,828,0,1444328978199,1444328979306,888,453,0,0,0,2,3,1,23,0002-00-0004-60.png,0003-00-0005-43.png
9,829,1,1444328979331,1444328982203,888,401,0,0,0,1,2,1,12,0004-00-0004-76.png,0002-00-0007-53.png
9,830,1,1444328982233,1444328982347,1066,246,0,0,0,3,4,1,34,0003-00-0002-82.png,0005-00-0001-68.png
9,831,1,1444328982383,1444328982473,939,453,0,0,0,5,4,1,54,0001-00-0009-38.png,0005-00-0005-03.png
9,832,0,1444328982518,1444328983254,862,375,0,0,0,3,2,1,32,0003-00-0001-67.png,0002-00-0003-82.png
9,833,0,1444328983281,1444328983717,896,358,0,0,0,5,4,1,54,0001-00-0009-32.png,0005-00-0004-16.png
9,834,1,1444328983750,1444328983888,500,230,0,0,0,2,3,1,23,0002-00-0004-95.png,0003-00-0005-14.png
9,835,1,1444328983928,1444328983983,960,289,0,0,0,1,2,1,12,0004-00-0005-81.png,0002-00-0003-40.png
9,836,1,1444328984003,1444328984359,888,377,0,0,0,4,3,1,43,0005-00-0008-53.png,0003-00-0008-31.png
9,837,1,1444328984384,1444328984581,494,233,0,0,0,2,1,1,21,0002-00-0000-82.png,0004-00-0006-80.png
9,838,0,1444328984613,1444328984737,940,306,0,0,0,3,4,1,34,0003-00-0005-70.png,0005-00-0002-01.png
9,839,0,1444328984774,1444328984893,935,304,0,0,0,5,4,1,54,0001-00-0001-20.png,0005-00-0003-33.png
9,840,1,1444328984920,1444329003408,909,375,0,0,0,3,2,1,32,0003-00-0006-31.png,0002-00-0003-82.png
9,841,1,1444329003438,1444329004797,964,453,0,0,0,4,3,1,43,0005-00-0007-23.png,0003-00-0001-70.png
9,842,1,1444329004821,1444329005434,906,409,0,0,0,2,3,1,23,0002-00-0009-86.png,0003-00-0006-33.png
9,843,0,1444329005458,1444329006061,943,280,0,0,0,3,2,1,32,0003-00-0001-21.png,0002-00-0002-81.png
9,844,1,1444329006095,1444329006679,863,373,0,0,0,5,4,1,54,0001-00-0007-28.png,0005-00-0007-36.png
9,845,1,1444329006712,1444329006728,880,382,0,0,0,1,2,1,12,0004-00-0003-16.png,0002-00-0004-33.png
9,846,1,1444329006750,1444329006902,482,263,0,0,0,3,4,1,34,0003-00-0003-48.png,0005-00-0007-63.png
9,847,1,1444329006924,1444329007268,874,440,0,0,0,5,4,1,54,0001-00-0003-26.png,0005-00-0002-70.png
9,848,1,1444329007298,1444329007645,968,274,0,0,0,2,1,1,21,0002-00-0004-45.png,0004-00-0009-75.png
9,849,1,1444329007680,1444329007965,879,416,0,0,0,2,3,1,23,0002-00-0003-63.png,0003-00-0001-07.png
9,850,1,1444329007997,1444329008781,961,268,0,0,0,4,3,1,43,0005-00-0001-95.png,0003-00-0007-80.png
9,851,1,1444329008811,1444329009409,892,328,0,0,0,5,4,1,54,0001-00-0008-99.png,0005-00-0009-58.png
9,852,0,1444329009438,1444329009550,939,301,0,0,0,3,2,1,32,0003-00-0001-54.png,0002-00-0001-64.png
9,853,0,1444329009575,1444329018888,884,377,0,0,0,2,1,1,21,0002-00-0002-34.png,0004-00-0001-17.png
9,854,0,1444329018923,1444329019292,920,389,0,0,0,5,4,1,54,0001-00-0003-11.png,0005-00-0002-10.png
9,855,1,1444329019326,1444329019501,939,349,0,0,0,1,2,1,12,0004-00-0005-38.png,0002-00-0002-59.png
9,856,1,1444329019535,1444329020919,458,244,0,0,0,3,4,1,34,0003-00-0000-24.png,0005-00-0001-09.png
9,857,0,1444329020944,1444329023346,943,294,0,0,0,5,4,1,54,0001-00-0009-69.png,0005-00-0006-55.png
9,858,1,1444329023371,1444329023700,454,227,0,0,0,3,2,1,32,0003-00-0006-04.png,0002-00-0005-52.png
9,859,1,1444329023748,1444329025073,1035,231,0,0,0,5,4,1,54,0001-00-0007-94.png,0005-00-0006-42.png
9,860,0,1444329025117,1444329025600,988,272,0,0,0,2,3,1,23,0002-00-0007-31.png,0003-00-0000-95.png
9,861,0,1444329025650,1444329025758,900,375,0,0,0,3,4,1,34,0003-00-0009-27.png,0005-00-0004-27.png
9,862,1,1444329025787,1444329028694,892,347,0,0,0,4,3,1,43,0005-00-0007-07.png,0003-00-0005-16.png
9,863,0,1444329028721,1444329028981,456,242,0,0,0,1,2,1,12,0004-00-0000-07.png,0002-00-0002-42.png
9,864,0,1444329029015,1444329029164,940,375,0,0,0,2,1,1,21,0002-00-0008-10.png,0004-00-0008-45.png
9,865,1,1444329029217,1444329029806,924,491,0,0,0,3,2,1,32,0003-00-0002-15.png,0002-00-0007-42.png
9,866,0,1444329029825,1444329029921,887,402,0,0,0,4,3,1,43,0005-00-0008-73.png,0003-00-0002-71.png
9,867,1,1444329029940,1444329030948,1066,243,0,0,0,1,2,1,12,0004-00-0000-65.png,0002-00-0007-35.png
9,868,0,1444329030979,1444329031060,996,315,0,0,0,2,3,1,23,0002-00-0008-53.png,0003-00-0007-36.png
9,869,1,1444329031086,1444329031384,877,424,0,0,0,5,4,1,54,0001-00-0001-95.png,0005-00-0001-62.png
9,870,0,1444329031418,1444329034228,878,404,0,0,0,3,4,1,34,0003-00-0003-90.png,0005-00-0005-35.png
9,871,1,1444329034265,1444329034543,454,256,0,0,0,2,1,1,21,0002-00-0005-92.png,0004-00-0004-08.png
9,872,0,1444329034567,1444329035263,458,237,0,0,0,5,4,1,54,0001-00-0008-51.png,0005-00-0008-21.png
9,873,0,1444329035295,1444329035629,894,414,0,0,0,2,3,1,23,0002-00-0003-81.png,0003-00-0006-99.png
9,874,0,1444329035657,1444329036736,395,331,0,0,0,1,2,1,12,0004-00-0000-60.png,0002-00-0001-23.png
9,875,1,1444329036764,1444329037005,901,480,0,0,0,2,1,1,21,0002-00-0009-71.png,0004-00-0007-28.png
9,876,1,1444329037036,1444329037151,969,272,0,0,0,4,3,1,43,0005-00-0009-53.png,0003-00-0006-57.png
9,877,0,1444329037177,1444329037770,906,410,0,0,0,3,2,1,32,0003-00-0009-54.png,0002-00-0009-73.png
9,878,0,1444329037791,1444329038466,1089,304,0,0,0,5,4,1,54,0001-00-0001-76.png,0005-00-0004-96.png
9,879,1,1444329038494,1444329038559,916,351,0,0,0,5,4,1,54,0001-00-0008-50.png,0005-00-0001-38.png
9,880,1,1444329038601,1444329039020,966,368,0,0,0,3,4,1,34,0003-00-0004-01.png,0005-00-0008-89.png
9,881,1,1444329039053,1444329040234,1065,274,0,0,0,5,4,1,54,0001-00-0009-33.png,0005-00-0005-90.png
9,882,0,1444329040271,1444329042519,479,266,0,0,0,4,3,1,43,0005-00-0004-19.png,0003-00-0002-97.png
9,883,0,1444329042561,1444329042607,486,246,0,0,0,2,1,1,21,0002-00-0001-88.png,0004-00-0004-88.png
9,884,1,1444329042633,1444329042687,920,414,0,0,0,2,3,1,23,0002-00-0005-35.png,0003-00-0009-03.png
9,885,0,1444329042721,1444329043197,887,466,0,0,0,5,4,1,54,0001-00-0009-63.png,0005-00-0008-28.png
9,886,0,1444329043221,1444329045898,943,289,0,0,0,3,2,1,32,0003-00-0007-96.png,0002-00-0003-04.png
9,887,0,1444329045925,1444329046233,880,385,0,0,0,1,2,1,12,0004-00-0003-34.png,0002-00-0003-99.png
9,888,0,1444329046264,1444329047178,986,270,0,0,0,3,4,1,34,0003-00-0006-73.png,0005-00-0002-98.png
9,889,1,1444329047203,1444329048017,859,352,0,0,0,5,4,1,54,0001-00-0007-83.png,0005-00-0001-62.png
9,890,0,1444329048053,1444329048844,966,292,0,0,0,1,2,1,12,0004-00-0008-05.png,0002-00-0006-76.png
9,891,1,1444329048876,1444329049145,877,375,0,0,0,3,2,1,32,0003-00-0009-26.png,0002-00-0005-04.png
9,892,0,1444329049178,1444329049345,940,292,0,0,0,3,4,1,34,0003-00-0005-92.png,0005-00-0008-44.png
9,893,0,1444329049372,1444329050941,869,371,0,0,0,4,3,1,43,0005-00-0001-31.png,0003-00-0005-13.png
9,894,1,1444329050969,1444329051508,927,386,0,0,0,2,3,1,23,0002-00-0005-13.png,0003-00-0008-75.png
9,895,1,1444329051536,1444329051752,483,242,0,0,0,2,1,1,21,0002-00-0006-97.png,0004-00-0009-96.png
9,896,1,1444329051807,1444329072319,910,424,0,0,0,5,4,1,54,0001-00-0004-64.png,0005-00-0004-57.png
9,897,0,1444329072341,1444329072397,899,349,0,0,0,2,3,1,23,0002-00-0005-54.png,0003-00-0009-04.png
9,898,0,1444329072429,1444329072439,431,220,0,0,0,1,2,1,12,0004-00-0005-63.png,0002-00-0004-52.png
9,899,0,1444329072493,1444329072814,945,289,0,0,0,3,4,1,34,0003-00-0002-77.png,0005-00-0000-85.png
9,900,1,1444329072874,1444329073363,900,365,0,0,0,5,4,1,54,0001-00-0003-31.png,0005-00-0000-25.png
9,901,0,1444329073388,1444329073480,871,421,0,0,0,2,1,1,21,0002-00-0003-69.png,0004-00-0003-41.png
9,902,1,1444329073511,1444329073931,470,249,0,0,0,4,3,1,43,0005-00-0008-84.png,0003-00-0002-49.png
9,903,1,1444329073951,1444329075050,475,229,0,0,0,5,4,1,54,0001-00-0006-59.png,0005-00-0007-42.png
9,904,0,1444329075083,1444329075159,457,252,0,0,0,3,2,1,32,0003-00-0009-52.png,0002-00-0001-95.png
9,905,1,1444329075186,1444329089704,449,220,0,0,0,2,3,1,23,0002-00-0007-87.png,0003-00-0005-13.png
9,906,0,1444329089732,1444329090210,920,316,0,0,0,4,3,1,43,0005-00-0000-88.png,0003-00-0008-05.png
9,907,0,1444329090246,1444329090497,900,401,0,0,0,1,2,1,12,0004-00-0008-86.png,0002-00-0000-00.png
9,908,0,1444329090527,1444329090915,915,270,0,0,0,3,2,1,32,0003-00-0007-14.png,0002-00-0005-19.png
9,909,0,1444329090957,1444329092372,891,373,0,0,0,3,4,1,34,0003-00-0001-93.png,0005-00-0001-62.png
9,910,1,1444329092399,1444329092907,1069,243,0,0,0,2,1,1,21,0002-00-0005-99.png,0004-00-0002-07.png
9,911,1,1444329092938,1444329093028,969,385,0,0,0,5,4,1,54,0001-00-0006-70.png,0005-00-0000-53.png
9,912,0,1444329093052,1444329096752,921,392,0,0,0,5,4,1,54,0001-00-0000-96.png,0005-00-0005-94.png
9,913,1,1444329096772,1444329097455,964,366,0,0,0,2,3,1,23,0002-00-0006-76.png,0003-00-0000-76.png
9,914,1,1444329097485,1444329097832,414,271,0,0,0,1,2,1,12,0004-00-0001-99.png,0002-00-0009-84.png
9,915,0,1444329097864,1444329098914,1065,283,0,0,0,3,2,1,32,0003-00-0003-96.png,0002-00-0001-05.png
9,916,1,1444329098944,1444329099394,941,320,0,0,0,5,4,1,54,0001-00-0003-11.png,0005-00-0007-46.png
9,917,1,1444329099425,1444329099651,921,418,0,0,0,2,1,1,21,0002-00-0003-39.png,0004-00-0002-94.png
9,918,1,1444329099668,1444329099731,478,245,0,0,0,5,4,1,54,0001-00-0007-59.png,0005-00-0008-26.png
9,919,1,1444329099762,1444329099915,894,368,0,0,0,4,3,1,43,0005-00-0006-10.png,0003-00-0004-95.png
9,920,1,1444329099952,1444329100268,888,384,0,0,0,3,4,1,34,0003-00-0009-72.png,0005-00-0005-87.png
9,921,1,1444329100291,1444329100392,939,306,0,0,0,5,4,1,54,0001-00-0007-37.png,0005-00-0007-47.png
9,922,0,1444329100427,1444329100668,894,285,0,0,0,2,3,1,23,0002-00-0006-96.png,0003-00-0001-39.png
9,923,1,1444329100692,1444329100753,395,409,0,0,0,1,2,1,12,0004-00-0002-31.png,0002-00-0002-64.png
9,924,1,1444329100797,1444329101016,873,324,0,0,0,4,3,1,43,0005-00-0005-87.png,0003-00-0000-34.png
9,925,1,1444329101047,1444329101634,862,349,0,0,0,3,2,1,32,0003-00-0009-82.png,0002-00-0001-40.png
9,926,1,1444329101661,1444329102245,478,218,0,0,0,2,1,1,21,0002-00-0001-25.png,0004-00-0003-83.png
9,927,1,1444329102281,1444329102429,469,214,0,0,0,5,4,1,54,0001-00-0000-16.png,0005-00-0004-71.png
9,928,0,1444329102463,1444329102591,1045,253,0,0,0,3,4,1,34,0003-00-0006-33.png,0005-00-0005-52.png
9,929,0,1444329102616,1444329102772,863,352,0,0,0,5,4,1,54,0001-00-0006-36.png,0005-00-0004-30.png
9,930,1,1444329102809,1444329103806,903,427,0,0,0,3,4,1,34,0003-00-0001-70.png,0005-00-0007-33.png
9,931,1,1444329103840,1444329104000,1091,266,0,0,0,1,2,1,12,0004-00-0000-79.png,0002-00-0004-02.png
9,932,1,1444329104031,1444329104285,1092,258,0,0,0,2,1,1,21,0002-00-0000-57.png,0004-00-0005-11.png
9,933,0,1444329104308,1444329104320,481,219,0,0,0,4,3,1,43,0005-00-0003-64.png,0003-00-0000-99.png
9,934,0,1444329104342,1444329104536,503,231,0,0,0,5,4,1,54,0001-00-0008-47.png,0005-00-0007-27.png
9,935,1,1444329104569,1444329106902,480,244,0,0,0,2,3,1,23,0002-00-0001-31.png,0003-00-0007-34.png
9,936,1,1444329106934,1444329108658,492,205,0,0,0,3,2,1,32,0003-00-0009-14.png,0002-00-0004-67.png
9,937,1,1444329108686,1444329108888,949,294,0,0,0,4,3,1,43,0005-00-0003-21.png,0003-00-0006-64.png
9,938,0,1444329108921,1444329122609,927,401,0,0,0,2,1,1,21,0002-00-0005-13.png,0004-00-0000-87.png
9,939,0,1444329122637,1444329123563,934,294,0,0,0,3,4,1,34,0003-00-0009-14.png,0005-00-0008-49.png
9,940,0,1444329123595,1444329124288,427,413,0,0,0,5,4,1,54,0001-00-0006-59.png,0005-00-0001-21.png
9,941,1,1444329124307,1444329124907,921,335,0,0,0,1,2,1,12,0004-00-0008-92.png,0002-00-0008-15.png
9,942,1,1444329124928,1444329124965,473,251,0,0,0,5,4,1,54,0001-00-0008-81.png,0005-00-0000-80.png
9,943,0,1444329124989,1444329125152,956,330,0,0,0,2,3,1,23,0002-00-0004-92.png,0003-00-0003-20.png
9,944,0,1444329125180,1444329125226,446,256,0,0,0,3,2,1,32,0003-00-0007-84.png,0002-00-0005-80.png
9,945,1,1444329125261,1444329125356,469,260,0,0,0,2,1,1,21,0002-00-0006-60.png,0004-00-0001-38.png
9,946,1,1444329125376,1444329125654,466,249,0,0,0,3,2,1,32,0003-00-0003-44.png,0002-00-0007-20.png
9,947,0,1444329125678,1444329126016,886,327,0,0,0,5,4,1,54,0001-00-0006-43.png,0005-00-0000-72.png
9,948,0,1444329126039,1444329127495,453,233,0,0,0,4,3,1,43,0005-00-0008-78.png,0003-00-0005-59.png
9,949,0,1444329127521,1444329128148,911,299,0,0,0,5,4,1,54,0001-00-0000-59.png,0005-00-0005-34.png
9,950,1,1444329128169,1444329128593,899,427,0,0,0,3,4,1,34,0003-00-0004-27.png,0005-00-0006-38.png
9,951,0,1444329128628,1444329129765,939,427,0,0,0,2,3,1,23,0002-00-0009-20.png,0003-00-0009-67.png
9,952,1,1444329129802,1444329132985,869,445,0,0,0,1,2,1,12,0004-00-0005-11.png,0002-00-0001-26.png
9,953,1,1444329133014,1444329133694,933,402,0,0,0,5,4,1,54,0001-00-0009-68.png,0005-00-0007-37.png
9,954,1,1444329133717,1444329135159,970,365,0,0,0,2,3,1,23,0002-00-0009-24.png,0003-00-0007-79.png
9,955,0,1444329135179,1444329135330,913,480,0,0,0,3,2,1,32,0003-00-0009-07.png,0002-00-0000-80.png
9,956,1,1444329135358,1444329135945,1083,256,0,0,0,4,3,1,43,0005-00-0006-73.png,0003-00-0006-53.png
9,957,1,1444329135988,1444329138169,895,370,0,0,0,2,1,1,21,0002-00-0000-07.png,0004-00-0002-20.png
9,958,1,1444329138208,1444329144961,996,267,0,0,0,5,4,1,54,0001-00-0003-89.png,0005-00-0003-54.png
9,959,0,1444329144993,1444329145061,891,372,0,0,0,1,2,1,12,0004-00-0006-16.png,0002-00-0002-30.png
9,960,1,1444329145080,1444329145429,990,288,0,0,0,3,4,1,34,0003-00-0006-04.png,0005-00-0002-74.png
9,961,1,1444329145456,1444329145686,933,384,0,0,0,2,1,1,21,0002-00-0006-47.png,0004-00-0009-73.png
9,962,0,1444329145711,1444329146806,480,243,0,0,0,1,2,1,12,0004-00-0009-89.png,0002-00-0004-86.png
9,963,1,1444329146823,1444329147212,907,356,0,0,0,2,3,1,23,0002-00-0001-48.png,0003-00-0004-93.png
9,964,0,1444329147244,1444329149257,381,341,0,0,0,5,4,1,54,0001-00-0007-38.png,0005-00-0000-48.png
9,965,1,1444329149294,1444329149801,862,365,0,0,0,5,4,1,54,0001-00-0007-89.png,0005-00-0005-92.png
9,966,1,1444329149834,1444329150081,913,387,0,0,0,4,3,1,43,0005-00-0004-53.png,0003-00-0009-86.png
9,967,0,1444329150108,1444329150359,946,395,0,0,0,3,2,1,32,0003-00-0002-73.png,0002-00-0005-51.png
9,968,1,1444329150381,1444329151854,930,331,0,0,0,3,4,1,34,0003-00-0003-95.png,0005-00-0004-33.png
9,969,1,1444329151892,1444329152048,972,443,0,0,0,3,4,1,34,0003-00-0000-96.png,0005-00-0007-76.png
9,970,0,1444329152075,1444329152237,924,396,0,0,0,2,3,1,23,0002-00-0007-92.png,0003-00-0009-55.png
9,971,1,1444329152273,1444329155059,932,395,0,0,0,3,2,1,32,0003-00-0008-69.png,0002-00-0005-55.png
9,972,1,1444329155085,1444329157637,477,270,0,0,0,2,1,1,21,0002-00-0004-83.png,0004-00-0005-67.png
9,973,1,1444329157671,1444329158003,979,480,0,0,0,4,3,1,43,0005-00-0008-10.png,0003-00-0001-50.png
9,974,1,1444329158032,1444329158706,966,299,0,0,0,5,4,1,54,0001-00-0003-99.png,0005-00-0001-29.png
9,975,0,1444329158737,1444329159005,933,377,0,0,0,1,2,1,12,0004-00-0006-01.png,0002-00-0005-63.png
9,976,0,1444329159046,1444329159712,507,262,0,0,0,5,4,1,54,0001-00-0007-31.png,0005-00-0002-50.png
9,977,0,1444329159749,1444329160152,908,296,0,0,0,3,2,1,32,0003-00-0001-41.png,0002-00-0005-81.png
9,978,1,1444329160189,1444329160662,939,336,0,0,0,2,1,1,21,0002-00-0004-38.png,0004-00-0003-10.png
9,979,1,1444329160704,1444329160854,390,327,0,0,0,1,2,1,12,0004-00-0001-80.png,0002-00-0009-28.png
9,980,1,1444329160872,1444329161122,913,411,0,0,0,5,4,1,54,0001-00-0001-22.png,0005-00-0001-64.png
9,981,1,1444329161148,1444329161191,995,294,0,0,0,2,3,1,23,0002-00-0004-83.png,0003-00-0002-57.png
9,982,0,1444329161223,1444329162193,910,372,0,0,0,5,4,1,54,0001-00-0004-16.png,0005-00-0007-25.png
9,983,0,1444329162227,1444329162251,485,265,0,0,0,4,3,1,43,0005-00-0004-67.png,0003-00-0008-67.png
9,984,1,1444329162275,1444329162871,909,333,0,0,0,3,4,1,34,0003-00-0008-53.png,0005-00-0008-96.png
9,985,1,1444329162891,1444329162947,887,353,0,0,0,5,4,1,54,0001-00-0007-39.png,0005-00-0004-00.png
9,986,0,1444329162984,1444329163213,870,240,0,0,0,3,4,1,34,0003-00-0003-41.png,0005-00-0004-10.png
9,987,1,1444329163244,1444329163284,913,427,0,0,0,3,2,1,32,0003-00-0005-76.png,0002-00-0000-72.png
9,988,0,1444329163309,1444329165456,392,314,0,0,0,1,2,1,12,0004-00-0006-07.png,0002-00-0005-79.png
9,989,1,1444329165484,1444329166483,910,472,0,0,0,5,4,1,54,0001-00-0009-86.png,0005-00-0005-56.png
9,990,1,1444329166517,1444329166674,862,386,0,0,0,2,1,1,21,0002-00-0007-71.png,0004-00-0009-44.png
9,991,1,1444329166705,1444329167216,962,288,0,0,0,2,3,1,23,0002-00-0002-31.png,0003-00-0003-25.png
9,992,0,1444329167231,1444329167409,897,401,0,0,0,4,3,1,43,0005-00-0001-28.png,0003-00-0006-35.png
9,993,1,1444329167434,1444329167738,956,297,0,0,0,2,3,1,23,0002-00-0006-06.png,0003-00-0000-51.png
9,994,1,1444329167760,1444329167990,928,331,0,0,0,2,1,1,21,0002-00-0000-24.png,0004-00-0001-22.png
9,995,0,1444329168017,1444329168396,471,227,0,0,0,5,4,1,54,0001-00-0007-61.png,0005-00-0004-62.png
9,996,0,1444329168420,1444329170313,916,415,0,0,0,5,4,1,54,0001-00-0000-31.png,0005-00-0000-63.png
9,997,0,1444329170362,1444329170444,937,362,0,0,0,3,2,1,32,0003-00-0005-10.png,0002-00-0000-91.png
