subject_id,trial,correct_response,stim_time,response_time,x_coord,y_coord,trial_timeout,timeout_time,interTrial_timeout,left_rank,right_rank,distance,joint_rank,left_image,right_image
9,1,1,1444666860037,1444666860376,1043,310,0,0,0,2,3,1,23,0002-00-0006-66.png,0003-00-0001-53.png
9,2,0,1444666860398,1444666861279,990,424,0,0,0,3,2,1,32,0003-00-0005-37.png,0002-00-0001-43.png
9,3,1,1444666861307,1444666861478,452,301,0,0,0,4,3,1,43,0005-00-0009-15.png,0003-00-0008-19.png
9,4,1,1444666861504,1444666862814,991,377,0,0,0,5,4,1,54,0001-00-0005-91.png,0005-00-0003-02.png
9,5,1,1444666862830,1444666865943,366,428,0,0,0,5,4,1,54,0001-00-0000-31.png,0005-00-0005-52.png
9,6,0,1444666865975,1444666866824,342,376,0,0,0,3,4,1,34,0003-00-0007-76.png,0005-00-0000-90.png
9,7,1,1444666866867,1444666867041,462,267,0,0,0,1,2,1,12,0004-00-0009-25.png,0002-00-0006-47.png
9,8,1,1444666867077,1444666867190,940,369,0,0,0,2,1,1,21,0002-00-0002-57.png,0004-00-0001-59.png
9,9,1,1444666867208,1444666867332,894,394,0,0,0,1,2,1,12,0004-00-0001-33.png,0002-00-0005-43.png
9,10,0,1444666867361,1444666868485,382,378,0,0,0,4,3,1,43,0005-00-0003-63.png,0003-00-0009-60.png
9,11,1,1444666868520,1444666868896,1044,306,0,0,0,3,4,1,34,0003-00-0006-63.png,0005-00-0000-28.png
9,12,1,1444666868918,1444666869010,886,385,0,0,0,2,1,1,21,0002-00-0005-19.png,0004-00-0008-33.png
9,13,1,1444666869032,1444666869264,339,421,0,0,0,2,3,1,23,0002-00-0008-58.png,0003-00-0005-63.png
9,14,1,1444666869298,1444666870082,904,463,0,0,0,3,2,1,32,0003-00-0000-46.png,0002-00-0003-55.png
9,15,0,1444666870111,1444666872876,900,462,0,0,0,5,4,1,54,0001-00-0007-33.png,0005-00-0009-54.png
9,16,0,1444666872918,1444666873686,404,367,0,0,0,5,4,1,54,0001-00-0005-42.png,0005-00-0003-03.png
9,17,1,1444666873713,1444666873788,1018,272,0,0,0,2,3,1,23,0002-00-0007-92.png,0003-00-0008-13.png
9,18,1,1444666873823,1444666874297,944,379,0,0,0,4,3,1,43,0005-00-0005-35.png,0003-00-0003-22.png
9,19,0,1444666874318,1444666874385,389,402,0,0,0,5,4,1,54,0001-00-0002-51.png,0005-00-0001-38.png
9,20,1,1444666874438,1444666874910,381,403,0,0,0,5,4,1,54,0001-00-0001-05.png,0005-00-0006-06.png
9,21,0,1444666874934,1444666875615,930,278,0,0,0,3,2,1,32,0003-00-0003-42.png,0002-00-0001-75.png
9,22,0,1444666875638,1444666875729,374,400,0,0,0,1,2,1,12,0004-00-0008-70.png,0002-00-0001-67.png
9,23,0,1444666875750,1444666876758,917,344,0,0,0,3,4,1,34,0003-00-0007-02.png,0005-00-0006-03.png
9,24,1,1444666876795,1444666877706,900,279,0,0,0,2,1,1,21,0002-00-0004-65.png,0004-00-0009-48.png
9,25,1,1444666877727,1444666879741,398,428,0,0,0,5,4,1,54,0001-00-0004-38.png,0005-00-0003-92.png
9,26,1,1444666879780,1444666879822,380,398,0,0,0,3,4,1,34,0003-00-0007-78.png,0005-00-0007-79.png
9,27,1,1444666879840,1444666879977,1031,279,0,0,0,2,1,1,21,0002-00-0001-88.png,0004-00-0003-30.png
9,28,1,1444666879998,1444666884023,437,252,0,0,0,4,3,1,43,0005-00-0001-71.png,0003-00-0003-94.png
9,29,0,1444666884044,1444666943066,862,416,0,0,0,3,2,1,32,0003-00-0008-74.png,0002-00-0001-96.png
9,30,1,1444666943099,1444666943150,913,378,0,0,0,2,3,1,23,0002-00-0002-09.png,0003-00-0008-66.png
9,31,1,1444666943191,1444666943321,461,294,0,0,0,1,2,1,12,0004-00-0006-07.png,0002-00-0003-26.png
9,32,1,1444666943335,1444666943454,927,380,0,0,0,5,4,1,54,0001-00-0004-44.png,0005-00-0009-70.png
9,33,1,1444666943472,1444666945222,942,432,0,0,0,2,1,1,21,0002-00-0005-11.png,0004-00-0009-81.png
9,34,0,1444666945254,1444666946494,360,426,0,0,0,3,2,1,32,0003-00-0001-12.png,0002-00-0003-33.png
9,35,1,1444666946513,1444666947483,368,423,0,0,0,4,3,1,43,0005-00-0005-45.png,0003-00-0003-31.png
9,36,0,1444666947503,1444666949219,936,369,0,0,0,5,4,1,54,0001-00-0009-90.png,0005-00-0000-64.png
9,37,1,1444666949243,1444666949522,925,377,0,0,0,5,4,1,54,0001-00-0002-78.png,0005-00-0005-84.png
9,38,1,1444666949564,1444666951278,872,410,0,0,0,3,4,1,34,0003-00-0005-34.png,0005-00-0001-00.png
9,39,1,1444666951300,1444666951364,360,367,0,0,0,2,3,1,23,0002-00-0006-94.png,0003-00-0009-84.png
9,40,0,1444666951402,1444666951648,907,443,0,0,0,1,2,1,12,0004-00-0005-03.png,0002-00-0001-67.png
9,41,1,1444666951678,1444666952949,1023,412,0,0,0,1,2,1,12,0004-00-0005-15.png,0002-00-0003-54.png
9,42,1,1444666952975,1444666953278,362,418,0,0,0,3,4,1,34,0003-00-0003-91.png,0005-00-0006-43.png
9,43,0,1444666953291,1444666953376,908,277,0,0,0,4,3,1,43,0005-00-0004-28.png,0003-00-0008-75.png
9,44,0,1444666953408,1444666953548,308,344,0,0,0,2,3,1,23,0002-00-0008-57.png,0003-00-0005-64.png
9,45,1,1444666953584,1444666954551,416,270,0,0,0,3,2,1,32,0003-00-0005-76.png,0002-00-0007-28.png
9,46,0,1444666954576,1444666954855,356,395,0,0,0,5,4,1,54,0001-00-0004-28.png,0005-00-0004-08.png
9,47,1,1444666954882,1444666954985,1045,239,0,0,0,2,1,1,21,0002-00-0002-17.png,0004-00-0002-52.png
9,48,0,1444666955018,1444666955210,891,387,0,0,0,5,4,1,54,0001-00-0006-77.png,0005-00-0001-90.png
9,49,0,1444666955231,1444666958406,304,413,0,0,0,4,3,1,43,0005-00-0007-64.png,0003-00-0005-82.png
9,50,0,1444666958436,1444666958541,350,374,0,0,0,2,1,1,21,0002-00-0007-71.png,0004-00-0009-61.png
9,51,1,1444666958580,1444666958624,932,350,0,0,0,5,4,1,54,0001-00-0007-64.png,0005-00-0004-86.png
9,52,1,1444666958659,1444666959095,928,469,0,0,0,3,2,1,32,0003-00-0006-12.png,0002-00-0009-43.png
9,53,1,1444666959119,1444666963549,947,353,0,0,0,2,3,1,23,0002-00-0009-99.png,0003-00-0007-08.png
9,54,1,1444666963590,1444666963759,299,266,0,0,0,3,4,1,34,0003-00-0003-00.png,0005-00-0003-15.png
9,55,0,1444666963785,1444666964103,913,395,0,0,0,5,4,1,54,0001-00-0002-10.png,0005-00-0004-79.png
9,56,0,1444666964139,1444666966470,368,410,0,0,0,1,2,1,12,0004-00-0005-82.png,0002-00-0004-65.png
9,57,0,1444666966489,1444666966727,974,251,0,0,0,2,1,1,21,0002-00-0005-96.png,0004-00-0004-20.png
9,58,0,1444666966754,1444666972270,369,381,0,0,0,5,4,1,54,0001-00-0005-65.png,0005-00-0002-07.png
9,59,0,1444666972296,1444666973881,954,343,0,0,0,3,4,1,34,0003-00-0007-66.png,0005-00-0001-45.png
9,60,0,1444666973914,1444666974170,350,368,0,0,0,5,4,1,54,0001-00-0009-16.png,0005-00-0001-48.png
9,61,1,1444666974194,1444666974439,427,239,0,0,0,2,3,1,23,0002-00-0000-80.png,0003-00-0002-57.png
9,62,0,1444666974467,1444666974808,521,533,0,0,0,1,2,1,12,0004-00-0008-39.png,0002-00-0003-39.png
9,63,0,1444666974827,1444666976871,911,229,0,0,0,3,2,1,32,0003-00-0001-08.png,0002-00-0004-01.png
9,64,0,1444666976897,1444666976944,319,395,0,0,0,4,3,1,43,0005-00-0005-37.png,0003-00-0002-63.png
9,65,0,1444666976975,1444666977141,331,405,0,0,0,4,3,1,43,0005-00-0001-30.png,0003-00-0004-99.png
9,66,1,1444666977169,1444666990196,1038,277,0,0,0,3,2,1,32,0003-00-0004-66.png,0002-00-0006-61.png
9,67,0,1444666990224,1444666992051,902,476,0,0,0,2,1,1,21,0002-00-0007-24.png,0004-00-0003-28.png
9,68,0,1444666992078,1444666992192,878,520,0,0,0,2,3,1,23,0002-00-0004-80.png,0003-00-0003-01.png
9,69,0,1444666992214,1444666993387,496,514,0,0,0,5,4,1,54,0001-00-0009-79.png,0005-00-0008-82.png
9,70,0,1444666993422,1444666994060,946,428,0,0,0,1,2,1,12,0004-00-0005-28.png,0002-00-0005-86.png
9,71,1,1444666994104,1444666996683,350,424,0,0,0,3,4,1,34,0003-00-0008-15.png,0005-00-0000-77.png
9,72,1,1444666996702,1444666997228,1041,289,0,0,0,5,4,1,54,0001-00-0005-95.png,0005-00-0000-78.png
9,73,1,1444666997253,1444666997799,1069,281,0,0,0,5,4,1,54,0001-00-0003-62.png,0005-00-0004-44.png
9,74,0,1444666997824,1444666997984,870,422,0,0,0,3,2,1,32,0003-00-0009-86.png,0002-00-0006-23.png
9,75,1,1444666998017,1444666998180,340,382,0,0,0,2,1,1,21,0002-00-0009-73.png,0004-00-0009-86.png
9,76,0,1444666998197,1444667000757,991,354,0,0,0,3,4,1,34,0003-00-0002-36.png,0005-00-0001-75.png
9,77,0,1444667000781,1444667001163,956,349,0,0,0,2,3,1,23,0002-00-0001-72.png,0003-00-0007-36.png
9,78,1,1444667001189,1444667001366,862,384,0,0,0,5,4,1,54,0001-00-0000-14.png,0005-00-0000-27.png
9,79,0,1444667001392,1444667002111,964,358,0,0,0,1,2,1,12,0004-00-0008-16.png,0002-00-0005-78.png
9,80,0,1444667002134,1444667002275,319,407,0,0,0,4,3,1,43,0005-00-0003-46.png,0003-00-0005-88.png
9,81,0,1444667002308,1444667002683,940,358,0,0,0,2,1,1,21,0002-00-0005-87.png,0004-00-0006-59.png
9,82,1,1444667002719,1444667002764,333,410,0,0,0,1,2,1,12,0004-00-0003-81.png,0002-00-0009-41.png
9,83,1,1444667002802,1444667003118,927,356,0,0,0,5,4,1,54,0001-00-0000-69.png,0005-00-0008-79.png
9,84,1,1444667003147,1444667003971,860,394,0,0,0,3,2,1,32,0003-00-0002-33.png,0002-00-0007-83.png
9,85,0,1444667004012,1444667004929,974,535,0,0,0,3,4,1,34,0003-00-0005-90.png,0005-00-0009-43.png
9,86,0,1444667004955,1444667004998,862,436,0,0,0,2,3,1,23,0002-00-0000-53.png,0003-00-0006-83.png
9,87,0,1444667005037,1444667005673,937,373,0,0,0,4,3,1,43,0005-00-0004-63.png,0003-00-0006-67.png
9,88,1,1444667005704,1444667010132,426,272,0,0,0,5,4,1,54,0001-00-0003-79.png,0005-00-0002-95.png
9,89,1,1444667010162,1444667010647,1036,270,0,0,0,1,2,1,12,0004-00-0003-68.png,0002-00-0001-84.png
9,90,0,1444667010676,1444667012585,1063,278,0,0,0,2,3,1,23,0002-00-0000-55.png,0003-00-0003-78.png
9,91,1,1444667012605,1444667012615,888,384,0,0,0,3,2,1,32,0003-00-0002-15.png,0002-00-0005-84.png
9,92,0,1444667012663,1444667013459,925,405,0,0,0,4,3,1,43,0005-00-0004-69.png,0003-00-0007-46.png
9,93,1,1444667013503,1444667013561,440,279,0,0,0,5,4,1,54,0001-00-0001-43.png,0005-00-0001-23.png
9,94,1,1444667013609,1444667013704,927,346,0,0,0,2,1,1,21,0002-00-0004-97.png,0004-00-0002-89.png
9,95,1,1444667013733,1444667013750,863,374,0,0,0,3,4,1,34,0003-00-0003-32.png,0005-00-0007-74.png
9,96,0,1444667013784,1444667014173,339,382,0,0,0,5,4,1,54,0001-00-0001-58.png,0005-00-0005-60.png
9,97,1,1444667014196,1444667014229,337,403,0,0,0,4,3,1,43,0005-00-0000-18.png,0003-00-0007-92.png
9,98,1,1444667014261,1444667015411,938,402,0,0,0,5,4,1,54,0001-00-0007-06.png,0005-00-0000-27.png
9,99,1,1444667015436,1444667016126,871,384,0,0,0,2,3,1,23,0002-00-0007-62.png,0003-00-0005-62.png
9,100,1,1444667016162,1444667016914,963,409,0,0,0,5,4,1,54,0001-00-0007-35.png,0005-00-0007-65.png
9,101,0,1444667016941,1444667016978,356,423,0,0,0,3,2,1,32,0003-00-0006-59.png,0002-00-0002-44.png
9,102,1,1444667017002,1444667017007,355,412,0,0,0,3,4,1,34,0003-00-0009-76.png,0005-00-0005-09.png
9,103,0,1444667017045,1444667017369,939,421,0,0,0,2,1,1,21,0002-00-0008-37.png,0004-00-0006-62.png
9,104,0,1444667017390,1444667017638,949,367,0,0,0,1,2,1,12,0004-00-0004-99.png,0002-00-0000-29.png
9,105,1,1444667017662,1444667017666,862,384,0,0,0,5,4,1,54,0001-00-0002-38.png,0005-00-0001-63.png
9,106,1,1444667017702,1444667017972,442,279,0,0,0,1,2,1,12,0004-00-0002-12.png,0002-00-0003-18.png
9,107,1,1444667018023,1444667018134,910,359,0,0,0,2,1,1,21,0002-00-0009-18.png,0004-00-0007-11.png
9,108,1,1444667018162,1444667018620,1067,253,0,0,0,5,4,1,54,0001-00-0002-45.png,0005-00-0000-12.png
9,109,1,1444667018646,1444667019328,434,262,0,0,0,2,3,1,23,0002-00-0004-26.png,0003-00-0008-85.png
9,110,0,1444667019362,1444667019389,413,298,0,0,0,3,2,1,32,0003-00-0007-83.png,0002-00-0009-07.png
9,111,1,1444667019444,1444667021277,940,397,0,0,0,3,4,1,34,0003-00-0002-97.png,0005-00-0008-96.png
9,112,0,1444667021306,1444667025109,1082,331,0,0,0,4,3,1,43,0005-00-0007-68.png,0003-00-0009-56.png
9,113,0,1444667025135,1444667025644,953,435,0,0,0,3,2,1,32,0003-00-0005-88.png,0002-00-0003-28.png
9,114,1,1444667025671,1444667025858,1035,346,0,0,0,1,2,1,12,0004-00-0006-91.png,0002-00-0003-13.png
9,115,1,1444667025880,1444667025956,374,474,0,0,0,5,4,1,54,0001-00-0006-12.png,0005-00-0004-36.png
9,116,0,1444667025986,1444667026009,949,384,0,0,0,5,4,1,54,0001-00-0005-61.png,0005-00-0008-27.png
9,117,0,1444667026050,1444667027291,989,352,0,0,0,3,4,1,34,0003-00-0003-72.png,0005-00-0002-08.png
9,118,1,1444667027322,1444667027620,272,324,0,0,0,2,3,1,23,0002-00-0004-31.png,0003-00-0009-02.png
9,119,0,1444667027644,1444667030838,888,370,0,0,0,4,3,1,43,0005-00-0004-11.png,0003-00-0004-56.png
9,120,1,1444667030855,1444667031414,487,454,0,0,0,2,1,1,21,0002-00-0004-22.png,0004-00-0004-14.png
9,121,0,1444667031446,1444667031688,936,410,0,0,0,5,4,1,54,0001-00-0000-38.png,0005-00-0008-89.png
9,122,1,1444667031714,1444667031899,1040,378,0,0,0,2,3,1,23,0002-00-0007-49.png,0003-00-0008-68.png
9,123,1,1444667031920,1444667032812,950,358,0,0,0,5,4,1,54,0001-00-0000-62.png,0005-00-0000-87.png
9,124,0,1444667032836,1444667033849,210,253,0,0,0,3,2,1,32,0003-00-0007-82.png,0002-00-0000-54.png
9,125,1,1444667033877,1444667034769,926,351,0,0,0,3,4,1,34,0003-00-0005-81.png,0005-00-0003-62.png
9,126,1,1444667034789,1444667034928,231,508,0,0,0,2,1,1,21,0002-00-0000-33.png,0004-00-0008-48.png
9,127,1,1444667034951,1444667035203,314,410,0,0,0,4,3,1,43,0005-00-0006-94.png,0003-00-0003-61.png
9,128,0,1444667035227,1444667036130,922,436,0,0,0,1,2,1,12,0004-00-0002-32.png,0002-00-0006-19.png
9,129,1,1444667036159,1444667036344,863,403,0,0,0,2,3,1,23,0002-00-0008-12.png,0003-00-0001-91.png
9,130,1,1444667036369,1444667036428,938,350,0,0,0,2,1,1,21,0002-00-0009-75.png,0004-00-0006-46.png
9,131,0,1444667036458,1444667037728,239,358,0,0,0,4,3,1,43,0005-00-0002-40.png,0003-00-0008-13.png
9,132,1,1444667037748,1444667038112,941,386,0,0,0,3,2,1,32,0003-00-0001-92.png,0002-00-0005-70.png
9,133,1,1444667038145,1444667038934,389,253,0,0,0,1,2,1,12,0004-00-0007-29.png,0002-00-0004-21.png
9,134,0,1444667038973,1444667039391,342,406,0,0,0,3,4,1,34,0003-00-0007-42.png,0005-00-0003-28.png
9,135,1,1444667039420,1444667039890,322,435,0,0,0,5,4,1,54,0001-00-0009-74.png,0005-00-0007-60.png
9,136,0,1444667039925,1444667041288,935,386,0,0,0,5,4,1,54,0001-00-0007-93.png,0005-00-0002-28.png
9,137,1,1444667041318,1444667041350,305,402,0,0,0,5,4,1,54,0001-00-0005-64.png,0005-00-0006-69.png
9,138,1,1444667041373,1444667041413,303,384,0,0,0,2,3,1,23,0002-00-0002-87.png,0003-00-0004-29.png
9,139,1,1444667041442,1444667045250,1041,306,0,0,0,5,4,1,54,0001-00-0008-86.png,0005-00-0007-57.png
9,140,0,1444667045285,1444667046004,418,269,0,0,0,2,1,1,21,0002-00-0002-19.png,0004-00-0004-49.png
9,141,0,1444667046028,1444667046075,974,462,0,0,0,3,4,1,34,0003-00-0007-89.png,0005-00-0005-08.png
9,142,0,1444667046121,1444667048768,935,419,0,0,0,4,3,1,43,0005-00-0009-87.png,0003-00-0007-78.png
9,143,1,1444667048793,1444667048864,299,350,0,0,0,3,2,1,32,0003-00-0006-97.png,0002-00-0006-62.png
9,144,1,1444667048884,1444667049220,913,445,0,0,0,1,2,1,12,0004-00-0005-12.png,0002-00-0002-60.png
9,145,0,1444667049265,1444667054304,894,249,0,0,0,5,4,1,54,0001-00-0009-45.png,0005-00-0009-40.png
9,146,1,1444667054346,1444667054483,278,409,0,0,0,3,4,1,34,0003-00-0006-98.png,0005-00-0007-92.png
9,147,1,1444667054502,1444667054813,298,357,0,0,0,1,2,1,12,0004-00-0009-79.png,0002-00-0008-11.png
9,148,1,1444667054848,1444667055155,932,413,0,0,0,5,4,1,54,0001-00-0002-75.png,0005-00-0003-42.png
9,149,0,1444667055185,1444667055224,884,361,0,0,0,2,3,1,23,0002-00-0007-89.png,0003-00-0006-92.png
9,150,1,1444667055244,1444667055766,875,477,0,0,0,2,1,1,21,0002-00-0005-91.png,0004-00-0009-95.png
9,151,1,1444667055796,1444667056024,1067,294,0,0,0,3,2,1,32,0003-00-0002-01.png,0002-00-0008-42.png
9,152,1,1444667056053,1444667058621,939,358,0,0,0,4,3,1,43,0005-00-0003-64.png,0003-00-0000-92.png
9,153,0,1444667058651,1444667060309,876,367,0,0,0,1,2,1,12,0004-00-0004-83.png,0002-00-0002-58.png
9,154,1,1444667060337,1444667060437,932,313,0,0,0,2,3,1,23,0002-00-0009-03.png,0003-00-0001-94.png
9,155,0,1444667060470,1444667062211,993,558,0,0,0,5,4,1,54,0001-00-0000-79.png,0005-00-0003-35.png
9,156,1,1444667062248,1444667062629,1023,275,0,0,0,3,4,1,34,0003-00-0001-44.png,0005-00-0005-56.png
9,157,0,1444667062653,1444667062693,870,400,0,0,0,5,4,1,54,0001-00-0001-71.png,0005-00-0006-14.png
9,158,1,1444667062718,1444667063352,924,380,0,0,0,4,3,1,43,0005-00-0006-37.png,0003-00-0001-41.png
9,159,0,1444667063377,1444667063605,884,307,0,0,0,2,1,1,21,0002-00-0004-95.png,0004-00-0008-64.png
9,160,1,1444667063655,1444667063688,235,367,0,0,0,3,2,1,32,0003-00-0002-59.png,0002-00-0005-56.png
9,161,1,1444667063708,1444667074004,306,402,0,0,0,4,3,1,43,0005-00-0002-17.png,0003-00-0002-01.png
9,162,0,1444667074025,1444667074048,1014,320,0,0,0,3,2,1,32,0003-00-0000-91.png,0002-00-0002-41.png
9,163,1,1444667074076,1444667074587,1051,306,0,0,0,1,2,1,12,0004-00-0000-51.png,0002-00-0001-56.png
9,164,1,1444667074616,1444667075374,931,372,0,0,0,3,4,1,34,0003-00-0006-45.png,0005-00-0006-52.png
9,165,1,1444667075397,1444667076071,499,302,0,0,0,2,1,1,21,0002-00-0002-42.png,0004-00-0007-94.png
9,166,0,1444667076091,1444667076729,346,416,0,0,0,2,3,1,23,0002-00-0003-81.png,0003-00-0002-64.png
9,167,1,1444667076751,1444667077017,889,301,0,0,0,5,4,1,54,0001-00-0000-70.png,0005-00-0001-56.png
9,168,1,1444667077049,1444667077388,931,384,0,0,0,5,4,1,54,0001-00-0003-23.png,0005-00-0005-58.png
9,169,0,1444667077406,1444667078720,1016,309,0,0,0,2,1,1,21,0002-00-0008-38.png,0004-00-0001-42.png
9,170,0,1444667078747,1444667079619,881,333,0,0,0,2,3,1,23,0002-00-0004-84.png,0003-00-0003-30.png
9,171,1,1444667079653,1444667079962,329,412,0,0,0,5,4,1,54,0001-00-0001-99.png,0005-00-0000-41.png
9,172,0,1444667079982,1444667080019,327,373,0,0,0,3,4,1,34,0003-00-0004-92.png,0005-00-0006-68.png
9,173,0,1444667080048,1444667080167,418,285,0,0,0,3,2,1,32,0003-00-0008-39.png,0002-00-0005-63.png
9,174,1,1444667080194,1444667080783,980,462,0,0,0,4,3,1,43,0005-00-0001-76.png,0003-00-0002-68.png
9,175,0,1444667080805,1444667081775,964,419,0,0,0,5,4,1,54,0001-00-0009-02.png,0005-00-0001-12.png
9,176,1,1444667081805,1444667081850,969,323,0,0,0,1,2,1,12,0004-00-0008-50.png,0002-00-0007-58.png
9,177,1,1444667081893,1444667082318,326,408,0,0,0,5,4,1,54,0001-00-0001-14.png,0005-00-0009-26.png
9,178,1,1444667082345,1444667082390,412,279,0,0,0,1,2,1,12,0004-00-0005-37.png,0002-00-0002-93.png
9,179,1,1444667082426,1444667082461,410,276,0,0,0,3,2,1,32,0003-00-0000-31.png,0002-00-0001-10.png
9,180,0,1444667082494,1444667082982,921,351,0,0,0,4,3,1,43,0005-00-0000-17.png,0003-00-0005-33.png
9,181,1,1444667082998,1444667083063,922,382,0,0,0,2,1,1,21,0002-00-0006-66.png,0004-00-0005-47.png
9,182,1,1444667083096,1444667084888,875,474,0,0,0,3,4,1,34,0003-00-0007-90.png,0005-00-0009-21.png
9,183,1,1444667084919,1444667085132,411,297,0,0,0,2,3,1,23,0002-00-0000-60.png,0003-00-0005-42.png
9,184,0,1444667085158,1444667085438,913,514,0,0,0,5,4,1,54,0001-00-0002-63.png,0005-00-0007-28.png
9,185,1,1444667085458,1444667085834,879,470,0,0,0,4,3,1,43,0005-00-0006-18.png,0003-00-0003-39.png
9,186,0,1444667085855,1444667085982,889,306,0,0,0,2,1,1,21,0002-00-0005-79.png,0004-00-0002-98.png
9,187,1,1444667086020,1444667086247,921,322,0,0,0,5,4,1,54,0001-00-0009-76.png,0005-00-0009-68.png
9,188,1,1444667086272,1444667086576,936,403,0,0,0,1,2,1,12,0004-00-0003-69.png,0002-00-0001-13.png
9,189,1,1444667086611,1444667086637,369,378,0,0,0,3,2,1,32,0003-00-0008-94.png,0002-00-0003-68.png
9,190,1,1444667086665,1444667090057,909,411,0,0,0,3,4,1,34,0003-00-0002-63.png,0005-00-0008-30.png
9,191,0,1444667090086,1444667090343,869,367,0,0,0,2,3,1,23,0002-00-0005-58.png,0003-00-0007-48.png
9,192,0,1444667090371,1444667090541,425,244,0,0,0,5,4,1,54,0001-00-0000-50.png,0005-00-0000-60.png
9,193,1,1444667090567,1444667090746,1041,271,0,0,0,3,4,1,34,0003-00-0003-36.png,0005-00-0004-28.png
9,194,1,1444667090789,1444667091154,403,269,0,0,0,1,2,1,12,0004-00-0005-84.png,0002-00-0004-31.png
9,195,1,1444667091196,1444667091616,920,352,0,0,0,2,1,1,21,0002-00-0008-58.png,0004-00-0001-79.png
9,196,1,1444667091639,1444667093030,415,253,0,0,0,4,3,1,43,0005-00-0002-33.png,0003-00-0007-44.png
9,197,1,1444667093055,1444667093057,432,268,0,0,0,2,3,1,23,0002-00-0003-68.png,0003-00-0007-10.png
9,198,0,1444667093100,1444667093236,425,292,0,0,0,5,4,1,54,0001-00-0003-83.png,0005-00-0001-12.png
9,199,0,1444667093276,1444667093450,1067,275,0,0,0,5,4,1,54,0001-00-0002-80.png,0005-00-0003-81.png
9,200,1,1444667093476,1444667097037,1039,290,0,0,0,3,2,1,32,0003-00-0000-53.png,0002-00-0000-65.png
9,201,0,1444667097060,1444667097423,1039,275,0,0,0,3,2,1,32,0003-00-0000-86.png,0002-00-0005-61.png
9,202,0,1444667097448,1444667097578,872,386,0,0,0,2,1,1,21,0002-00-0000-09.png,0004-00-0009-67.png
9,203,1,1444667097617,1444667097628,893,423,0,0,0,2,3,1,23,0002-00-0007-39.png,0003-00-0006-56.png
9,204,0,1444667097653,1444667097968,419,312,0,0,0,3,4,1,34,0003-00-0005-03.png,0005-00-0006-87.png
9,205,1,1444667097993,1444667099619,426,267,0,0,0,5,4,1,54,0001-00-0008-19.png,0005-00-0006-77.png
9,206,0,1444667099649,1444667100588,431,261,0,0,0,1,2,1,12,0004-00-0009-97.png,0002-00-0001-35.png
9,207,1,1444667100621,1444667100650,888,541,0,0,0,5,4,1,54,0001-00-0007-93.png,0005-00-0006-86.png
9,208,0,1444667100677,1444667100708,348,401,0,0,0,4,3,1,43,0005-00-0005-21.png,0003-00-0000-20.png
9,209,0,1444667100733,1444667101088,862,385,0,0,0,2,1,1,21,0002-00-0000-06.png,0004-00-0001-04.png
9,210,0,1444667101106,1444667102422,917,411,0,0,0,3,2,1,32,0003-00-0001-64.png,0002-00-0000-50.png
9,211,1,1444667102477,1444667102582,421,262,0,0,0,3,4,1,34,0003-00-0006-49.png,0005-00-0003-28.png
9,212,1,1444667102606,1444667107708,345,296,0,0,0,1,2,1,12,0004-00-0001-98.png,0002-00-0008-59.png
9,213,0,1444667107738,1444667108522,1041,296,0,0,0,5,4,1,54,0001-00-0007-23.png,0005-00-0008-27.png
9,214,1,1444667108552,1444667108999,435,285,0,0,0,2,3,1,23,0002-00-0000-80.png,0003-00-0006-54.png
9,215,1,1444667109025,1444667109914,1011,277,0,0,0,5,4,1,54,0001-00-0004-06.png,0005-00-0003-38.png
9,216,0,1444667109935,1444667110674,430,305,0,0,0,4,3,1,43,0005-00-0002-78.png,0003-00-0001-80.png
9,217,1,1444667110700,1444667110959,869,479,0,0,0,2,3,1,23,0002-00-0005-66.png,0003-00-0003-51.png
9,218,1,1444667110984,1444667112779,876,401,0,0,0,3,2,1,32,0003-00-0001-88.png,0002-00-0004-95.png
9,219,1,1444667112804,1444667115342,913,514,0,0,0,5,4,1,54,0001-00-0003-18.png,0005-00-0000-73.png
9,220,0,1444667115376,1444667116236,938,313,0,0,0,1,2,1,12,0004-00-0004-16.png,0002-00-0006-23.png
9,221,0,1444667116270,1444667116919,421,284,0,0,0,5,4,1,54,0001-00-0004-20.png,0005-00-0008-61.png
9,222,1,1444667116955,1444667117942,889,375,0,0,0,2,1,1,21,0002-00-0008-47.png,0004-00-0001-57.png
9,223,1,1444667117976,1444667118183,892,367,0,0,0,3,4,1,34,0003-00-0006-49.png,0005-00-0002-89.png
9,224,0,1444667118204,1444667118308,458,293,0,0,0,4,3,1,43,0005-00-0001-05.png,0003-00-0006-07.png
9,225,1,1444667118337,1444667122108,1016,320,0,0,0,4,3,1,43,0005-00-0007-91.png,0003-00-0006-60.png
9,226,1,1444667122130,1444667122615,427,279,0,0,0,5,4,1,54,0001-00-0001-08.png,0005-00-0006-45.png
9,227,0,1444667122641,1444667122874,414,279,0,0,0,2,1,1,21,0002-00-0001-15.png,0004-00-0008-45.png
9,228,1,1444667122905,1444667124340,949,436,0,0,0,2,3,1,23,0002-00-0008-41.png,0003-00-0004-91.png
9,229,1,1444667124362,1444667124448,431,301,0,0,0,3,2,1,32,0003-00-0003-14.png,0002-00-0005-75.png
9,230,1,1444667124489,1444667124508,876,541,0,0,0,1,2,1,12,0004-00-0003-61.png,0002-00-0008-64.png
9,231,1,1444667124528,1444667124667,876,541,0,0,0,3,4,1,34,0003-00-0007-48.png,0005-00-0001-75.png
9,232,1,1444667124704,1444667124979,918,354,0,0,0,5,4,1,54,0001-00-0005-35.png,0005-00-0001-43.png
9,233,0,1444667125011,1444667125963,907,262,0,0,0,4,3,1,43,0005-00-0003-02.png,0003-00-0001-50.png
9,234,0,1444667126009,1444667126043,959,298,0,0,0,2,1,1,21,0002-00-0006-39.png,0004-00-0006-47.png
9,235,0,1444667126064,1444667127374,951,297,0,0,0,3,4,1,34,0003-00-0007-50.png,0005-00-0007-29.png
9,236,1,1444667127412,1444667127448,961,353,0,0,0,3,2,1,32,0003-00-0005-69.png,0002-00-0004-89.png
9,237,1,1444667127466,1444667127667,403,257,0,0,0,5,4,1,54,0001-00-0000-28.png,0005-00-0009-74.png
9,238,0,1444667127689,1444667128440,941,308,0,0,0,5,4,1,54,0001-00-0001-09.png,0005-00-0007-86.png
9,239,0,1444667128464,1444667128572,918,375,0,0,0,2,3,1,23,0002-00-0008-62.png,0003-00-0006-74.png
9,240,1,1444667128592,1444667128795,1033,311,0,0,0,1,2,1,12,0004-00-0002-05.png,0002-00-0001-02.png
9,241,0,1444667128821,1444667129443,914,309,0,0,0,4,3,1,43,0005-00-0005-93.png,0003-00-0001-21.png
9,242,1,1444667129467,1444667129758,929,394,0,0,0,5,4,1,54,0001-00-0000-09.png,0005-00-0007-09.png
9,243,0,1444667129783,1444667130306,1020,347,0,0,0,5,4,1,54,0001-00-0006-32.png,0005-00-0002-15.png
9,244,0,1444667130340,1444667131665,861,374,0,0,0,3,2,1,32,0003-00-0008-64.png,0002-00-0006-28.png
9,245,0,1444667131698,1444667133687,445,286,0,0,0,2,1,1,21,0002-00-0009-10.png,0004-00-0005-07.png
9,246,1,1444667133713,1444667133723,440,238,0,0,0,1,2,1,12,0004-00-0006-82.png,0002-00-0006-64.png
9,247,0,1444667133747,1444667134100,353,392,0,0,0,2,3,1,23,0002-00-0006-46.png,0003-00-0006-41.png
9,248,0,1444667134118,1444667136213,1027,253,0,0,0,3,4,1,34,0003-00-0008-54.png,0005-00-0003-73.png
9,249,0,1444667136249,1444667136613,862,332,0,0,0,4,3,1,43,0005-00-0004-82.png,0003-00-0001-31.png
9,250,1,1444667136643,1444667136710,429,277,0,0,0,1,2,1,12,0004-00-0006-08.png,0002-00-0008-77.png
9,251,1,1444667136728,1444667137404,938,383,0,0,0,3,4,1,34,0003-00-0001-79.png,0005-00-0005-56.png
9,252,1,1444667137443,1444667138336,429,254,0,0,0,5,4,1,54,0001-00-0001-68.png,0005-00-0004-09.png
9,253,0,1444667138372,1444667138423,1067,269,0,0,0,5,4,1,54,0001-00-0004-50.png,0005-00-0003-10.png
9,254,0,1444667138446,1444667139980,442,305,0,0,0,2,3,1,23,0002-00-0001-64.png,0003-00-0009-74.png
9,255,1,1444667140001,1444667140867,936,333,0,0,0,3,2,1,32,0003-00-0002-86.png,0002-00-0004-12.png
9,256,0,1444667140905,1444667142449,935,329,0,0,0,2,1,1,21,0002-00-0009-36.png,0004-00-0009-17.png
9,257,1,1444667142484,1444667143202,470,267,0,0,0,2,3,1,23,0002-00-0003-82.png,0003-00-0008-30.png
9,258,1,1444667143253,1444667147432,485,269,0,0,0,1,2,1,12,0004-00-0009-43.png,0002-00-0005-12.png
9,259,0,1444667147462,1444667147556,1051,306,0,0,0,4,3,1,43,0005-00-0008-55.png,0003-00-0001-54.png
9,260,0,1444667147579,1444667148987,941,345,0,0,0,5,4,1,54,0001-00-0008-08.png,0005-00-0002-26.png
9,261,1,1444667149013,1444667149317,1047,262,0,0,0,5,4,1,54,0001-00-0006-02.png,0005-00-0009-50.png
9,262,1,1444667149344,1444667149627,299,394,0,0,0,3,2,1,32,0003-00-0005-81.png,0002-00-0003-22.png
9,263,1,1444667149657,1444667149706,1043,289,0,0,0,2,1,1,21,0002-00-0009-13.png,0004-00-0004-92.png
9,264,1,1444667149729,1444667149964,423,282,0,0,0,3,4,1,34,0003-00-0001-83.png,0005-00-0001-50.png
9,265,0,1444667149994,1444667150295,412,264,0,0,0,2,1,1,21,0002-00-0008-52.png,0004-00-0000-66.png
9,266,1,1444667150319,1444667157294,911,388,0,0,0,5,4,1,54,0001-00-0002-69.png,0005-00-0006-72.png
9,267,0,1444667157324,1444667158468,412,462,0,0,0,1,2,1,12,0004-00-0004-43.png,0002-00-0003-07.png
9,268,0,1444667158498,1444667159547,367,386,0,0,0,3,4,1,34,0003-00-0003-83.png,0005-00-0004-71.png
9,269,1,1444667159572,1444667160378,937,306,0,0,0,5,4,1,54,0001-00-0003-64.png,0005-00-0004-28.png
9,270,1,1444667160399,1444667160641,1040,283,0,0,0,2,3,1,23,0002-00-0006-35.png,0003-00-0006-36.png
9,271,1,1444667160674,1444667161299,906,445,0,0,0,4,3,1,43,0005-00-0006-87.png,0003-00-0000-88.png
9,272,1,1444667161326,1444667161853,945,299,0,0,0,3,2,1,32,0003-00-0007-05.png,0002-00-0007-04.png
9,273,1,1444667161879,1444667162173,966,299,0,0,0,3,4,1,34,0003-00-0000-67.png,0005-00-0002-86.png
9,274,1,1444667162192,1444667163441,1019,304,0,0,0,2,1,1,21,0002-00-0006-83.png,0004-00-0001-29.png
9,275,0,1444667163470,1444667163529,863,368,0,0,0,5,4,1,54,0001-00-0007-63.png,0005-00-0007-57.png
9,276,0,1444667163564,1444667164447,862,347,0,0,0,1,2,1,12,0004-00-0001-91.png,0002-00-0007-47.png
9,277,0,1444667164467,1444667164524,412,286,0,0,0,4,3,1,43,0005-00-0007-04.png,0003-00-0002-05.png
9,278,0,1444667164559,1444667164781,369,418,0,0,0,2,3,1,23,0002-00-0002-21.png,0003-00-0005-92.png
9,279,1,1444667164805,1444667165276,937,375,0,0,0,5,4,1,54,0001-00-0009-98.png,0005-00-0003-20.png
9,280,0,1444667165296,1444667165535,876,477,0,0,0,3,2,1,32,0003-00-0008-80.png,0002-00-0003-50.png
9,281,1,1444667165565,1444667169403,347,392,0,0,0,5,4,1,54,0001-00-0005-03.png,0005-00-0008-71.png
9,282,0,1444667169432,1444667169973,420,288,0,0,0,5,4,1,54,0001-00-0001-67.png,0005-00-0004-80.png
9,283,0,1444667170018,1444667170254,1036,296,0,0,0,3,4,1,34,0003-00-0002-80.png,0005-00-0008-23.png
9,284,1,1444667170282,1444667173921,905,495,0,0,0,3,2,1,32,0003-00-0007-56.png,0002-00-0005-30.png
9,285,1,1444667173943,1444667174459,942,356,0,0,0,2,1,1,21,0002-00-0005-69.png,0004-00-0004-52.png
9,286,1,1444667174484,1444667174872,1066,307,0,0,0,4,3,1,43,0005-00-0005-71.png,0003-00-0002-39.png
9,287,0,1444667174898,1444667175174,966,364,0,0,0,1,2,1,12,0004-00-0005-01.png,0002-00-0003-51.png
9,288,0,1444667175200,1444667175577,942,365,0,0,0,2,3,1,23,0002-00-0008-20.png,0003-00-0001-47.png
9,289,1,1444667175598,1444667176055,865,356,0,0,0,5,4,1,54,0001-00-0007-08.png,0005-00-0000-76.png
9,290,1,1444667176078,1444667177399,406,395,0,0,0,1,2,1,12,0004-00-0008-13.png,0002-00-0006-20.png
9,291,1,1444667177434,1444667177515,1016,316,0,0,0,4,3,1,43,0005-00-0007-22.png,0003-00-0000-35.png
9,292,0,1444667177545,1444667177725,415,280,0,0,0,3,2,1,32,0003-00-0008-42.png,0002-00-0002-41.png
9,293,1,1444667177763,1444667178087,902,529,0,0,0,2,3,1,23,0002-00-0002-96.png,0003-00-0000-31.png
9,294,0,1444667178122,1444667180207,1004,306,0,0,0,3,4,1,34,0003-00-0000-47.png,0005-00-0002-12.png
9,295,0,1444667180231,1444667180525,969,303,0,0,0,2,1,1,21,0002-00-0002-42.png,0004-00-0004-87.png
9,296,0,1444667180553,1444667180765,925,375,0,0,0,5,4,1,54,0001-00-0007-68.png,0005-00-0004-04.png
9,297,0,1444667180815,1444667181062,323,388,0,0,0,5,4,1,54,0001-00-0001-78.png,0005-00-0000-38.png
9,298,1,1444667181098,1444667181357,360,390,0,0,0,3,2,1,32,0003-00-0006-77.png,0002-00-0006-13.png
9,299,0,1444667181384,1444667182713,1067,288,0,0,0,5,4,1,54,0001-00-0008-93.png,0005-00-0002-00.png
9,300,1,1444667182753,1444667182934,391,314,0,0,0,1,2,1,12,0004-00-0006-69.png,0002-00-0001-11.png
9,301,1,1444667182964,1444667183239,401,279,0,0,0,2,3,1,23,0002-00-0001-18.png,0003-00-0002-30.png
9,302,1,1444667183259,1444667186267,1025,274,0,0,0,4,3,1,43,0005-00-0000-27.png,0003-00-0006-54.png
9,303,0,1444667186292,1444667186346,877,442,0,0,0,3,4,1,34,0003-00-0008-52.png,0005-00-0004-93.png
9,304,1,1444667186379,1444667189195,913,488,0,0,0,2,1,1,21,0002-00-0000-83.png,0004-00-0004-33.png
9,305,1,1444667189226,1444667190745,928,529,0,0,0,5,4,1,54,0001-00-0000-45.png,0005-00-0008-78.png
9,306,0,1444667190779,1444667190822,862,401,0,0,0,3,2,1,32,0003-00-0006-13.png,0002-00-0001-16.png
9,307,1,1444667190845,1444667190907,411,262,0,0,0,2,1,1,21,0002-00-0002-94.png,0004-00-0003-85.png
9,308,0,1444667190960,1444667191935,414,462,0,0,0,5,4,1,54,0001-00-0008-61.png,0005-00-0000-75.png
9,309,1,1444667191967,1444667193212,933,376,0,0,0,3,4,1,34,0003-00-0005-89.png,0005-00-0007-68.png
9,310,0,1444667193238,1444667194415,437,236,0,0,0,2,3,1,23,0002-00-0009-68.png,0003-00-0008-31.png
9,311,1,1444667194450,1444667194560,913,541,0,0,0,1,2,1,12,0004-00-0008-17.png,0002-00-0006-83.png
9,312,0,1444667194587,1444667194683,915,333,0,0,0,4,3,1,43,0005-00-0001-06.png,0003-00-0003-19.png
9,313,1,1444667194720,1444667194880,882,411,0,0,0,3,4,1,34,0003-00-0003-07.png,0005-00-0002-51.png
9,314,0,1444667194903,1444667195437,913,541,0,0,0,1,2,1,12,0004-00-0003-46.png,0002-00-0005-22.png
9,315,1,1444667195466,1444667195597,916,356,0,0,0,5,4,1,54,0001-00-0008-03.png,0005-00-0009-76.png
9,316,0,1444667195625,1444667195894,414,356,0,0,0,4,3,1,43,0005-00-0006-46.png,0003-00-0008-41.png
9,317,0,1444667195928,1444667197106,933,364,0,0,0,2,1,1,21,0002-00-0005-74.png,0004-00-0003-40.png
9,318,0,1444667197137,1444667197651,457,270,0,0,0,3,2,1,32,0003-00-0006-13.png,0002-00-0001-55.png
9,319,0,1444667197684,1444667197713,394,286,0,0,0,2,3,1,23,0002-00-0004-87.png,0003-00-0004-67.png
9,320,0,1444667197739,1444667200089,888,488,0,0,0,5,4,1,54,0001-00-0009-69.png,0005-00-0005-44.png
9,321,1,1444667200139,1444667200951,355,408,0,0,0,3,2,1,32,0003-00-0005-86.png,0002-00-0009-17.png
9,322,1,1444667200992,1444667201114,422,298,0,0,0,4,3,1,43,0005-00-0002-25.png,0003-00-0003-08.png
9,323,1,1444667201143,1444667201773,959,375,0,0,0,2,3,1,23,0002-00-0008-71.png,0003-00-0001-46.png
9,324,1,1444667201792,1444667201906,1037,308,0,0,0,5,4,1,54,0001-00-0000-85.png,0005-00-0004-07.png
9,325,0,1444667201940,1444667202457,965,439,0,0,0,1,2,1,12,0004-00-0005-94.png,0002-00-0009-61.png
9,326,0,1444667202481,1444667203256,337,396,0,0,0,5,4,1,54,0001-00-0001-40.png,0005-00-0000-48.png
9,327,1,1444667203279,1444667203531,437,257,0,0,0,3,4,1,34,0003-00-0005-65.png,0005-00-0003-89.png
9,328,0,1444667203564,1444667203823,403,267,0,0,0,2,1,1,21,0002-00-0007-18.png,0004-00-0000-06.png
9,329,0,1444667203854,1444667204387,862,342,0,0,0,4,3,1,43,0005-00-0001-97.png,0003-00-0000-55.png
9,330,0,1444667204417,1444667204591,934,377,0,0,0,1,2,1,12,0004-00-0009-17.png,0002-00-0001-52.png
9,331,1,1444667204618,1444667204902,1035,296,0,0,0,5,4,1,54,0001-00-0000-98.png,0005-00-0009-99.png
9,332,1,1444667204940,1444667206321,511,310,0,0,0,5,4,1,54,0001-00-0005-54.png,0005-00-0007-39.png
9,333,0,1444667206351,1444667206551,940,352,0,0,0,3,2,1,32,0003-00-0000-80.png,0002-00-0007-55.png
9,334,1,1444667206592,1444667207004,952,554,0,0,0,3,4,1,34,0003-00-0005-82.png,0005-00-0009-84.png
9,335,1,1444667207037,1444667208847,860,350,0,0,0,2,3,1,23,0002-00-0002-88.png,0003-00-0009-72.png
9,336,1,1444667208874,1444667209134,864,326,0,0,0,2,1,1,21,0002-00-0007-19.png,0004-00-0008-17.png
9,337,0,1444667209161,1444667209260,964,353,0,0,0,5,4,1,54,0001-00-0000-53.png,0005-00-0000-19.png
9,338,0,1444667209294,1444667210957,896,377,0,0,0,4,3,1,43,0005-00-0003-77.png,0003-00-0006-65.png
9,339,1,1444667210982,1444667212310,356,405,0,0,0,3,4,1,34,0003-00-0006-53.png,0005-00-0004-70.png
9,340,1,1444667212348,1444667213241,415,270,0,0,0,1,2,1,12,0004-00-0006-73.png,0002-00-0006-76.png
9,341,1,1444667213265,1444667216258,427,282,0,0,0,2,3,1,23,0002-00-0008-88.png,0003-00-0003-98.png
9,342,1,1444667216292,1444667216346,910,411,0,0,0,3,2,1,32,0003-00-0005-83.png,0002-00-0001-89.png
9,343,1,1444667216376,1444667217436,930,443,0,0,0,5,4,1,54,0001-00-0009-82.png,0005-00-0004-49.png
9,344,0,1444667217476,1444667217879,875,451,0,0,0,2,1,1,21,0002-00-0009-32.png,0004-00-0004-80.png
9,345,1,1444667217912,1444667218255,913,332,0,0,0,3,4,1,34,0003-00-0002-82.png,0005-00-0008-27.png
9,346,0,1444667218285,1444667218615,1041,306,0,0,0,2,3,1,23,0002-00-0006-59.png,0003-00-0004-31.png
9,347,0,1444667218641,1444667218712,920,452,0,0,0,5,4,1,54,0001-00-0009-69.png,0005-00-0003-62.png
9,348,1,1444667218737,1444667219304,920,417,0,0,0,4,3,1,43,0005-00-0004-71.png,0003-00-0008-85.png
9,349,1,1444667219336,1444667220799,955,341,0,0,0,2,1,1,21,0002-00-0008-55.png,0004-00-0009-88.png
9,350,1,1444667220832,1444667221724,1001,306,0,0,0,5,4,1,54,0001-00-0009-24.png,0005-00-0008-60.png
9,351,1,1444667221751,1444667221940,401,291,0,0,0,3,2,1,32,0003-00-0009-43.png,0002-00-0009-57.png
9,352,1,1444667221980,1444667223204,391,449,0,0,0,1,2,1,12,0004-00-0001-83.png,0002-00-0007-74.png
9,353,1,1444667223234,1444667223494,1045,330,0,0,0,4,3,1,43,0005-00-0009-22.png,0003-00-0008-40.png
9,354,0,1444667223521,1444667223667,857,362,0,0,0,5,4,1,54,0001-00-0008-57.png,0005-00-0008-27.png
9,355,0,1444667223681,1444667226145,931,418,0,0,0,3,2,1,32,0003-00-0006-12.png,0002-00-0004-89.png
9,356,0,1444667226176,1444667227264,369,236,0,0,0,5,4,1,54,0001-00-0001-04.png,0005-00-0004-41.png
9,357,1,1444667227289,1444667228921,907,394,0,0,0,1,2,1,12,0004-00-0007-53.png,0002-00-0004-90.png
9,358,0,1444667228948,1444667229162,1016,291,0,0,0,2,1,1,21,0002-00-0007-53.png,0004-00-0009-65.png
9,359,0,1444667229198,1444667229468,932,324,0,0,0,2,3,1,23,0002-00-0007-96.png,0003-00-0006-13.png
9,360,1,1444667229496,1444667234143,431,275,0,0,0,3,4,1,34,0003-00-0007-54.png,0005-00-0000-66.png
9,361,1,1444667234169,1444667235205,463,265,0,0,0,2,1,1,21,0002-00-0007-46.png,0004-00-0005-36.png
9,362,0,1444667235229,1444667235363,357,383,0,0,0,2,3,1,23,0002-00-0008-66.png,0003-00-0004-68.png
9,363,1,1444667235384,1444667236042,1022,297,0,0,0,5,4,1,54,0001-00-0007-17.png,0005-00-0006-72.png
9,364,1,1444667236066,1444667236557,438,302,0,0,0,3,2,1,32,0003-00-0009-20.png,0002-00-0009-96.png
9,365,0,1444667236574,1444667236613,898,354,0,0,0,5,4,1,54,0001-00-0002-44.png,0005-00-0007-52.png
9,366,1,1444667236641,1444667236696,893,381,0,0,0,4,3,1,43,0005-00-0007-75.png,0003-00-0003-07.png
9,367,1,1444667236726,1444667236782,873,450,0,0,0,3,4,1,34,0003-00-0006-31.png,0005-00-0008-92.png
9,368,1,1444667236815,1444667237519,1047,295,0,0,0,1,2,1,12,0004-00-0002-68.png,0002-00-0003-01.png
9,369,1,1444667237553,1444667237916,869,327,0,0,0,1,2,1,12,0004-00-0009-08.png,0002-00-0007-82.png
9,370,0,1444667237938,1444667238781,341,387,0,0,0,3,2,1,32,0003-00-0001-44.png,0002-00-0003-90.png
9,371,0,1444667238799,1444667239032,364,368,0,0,0,2,1,1,21,0002-00-0007-70.png,0004-00-0001-00.png
9,372,0,1444667239054,1444667239277,1092,280,0,0,0,2,3,1,23,0002-00-0006-19.png,0003-00-0009-20.png
9,373,0,1444667239301,1444667240375,440,266,0,0,0,3,4,1,34,0003-00-0009-06.png,0005-00-0005-36.png
9,374,1,1444667240405,1444667240661,434,273,0,0,0,5,4,1,54,0001-00-0001-13.png,0005-00-0001-65.png
9,375,1,1444667240702,1444667241355,487,220,0,0,0,5,4,1,54,0001-00-0004-43.png,0005-00-0009-41.png
9,376,1,1444667241382,1444667241417,988,558,0,0,0,4,3,1,43,0005-00-0007-88.png,0003-00-0007-12.png
9,377,0,1444667241445,1444667242376,877,488,0,0,0,5,4,1,54,0001-00-0003-45.png,0005-00-0004-27.png
9,378,1,1444667242402,1444667242991,901,528,0,0,0,3,4,1,34,0003-00-0000-09.png,0005-00-0001-55.png
9,379,1,1444667243017,1444667243136,887,381,0,0,0,2,1,1,21,0002-00-0002-95.png,0004-00-0005-07.png
9,380,0,1444667243166,1444667244243,1072,289,0,0,0,1,2,1,12,0004-00-0007-80.png,0002-00-0000-98.png
9,381,0,1444667244275,1444667244360,413,304,0,0,0,5,4,1,54,0001-00-0005-62.png,0005-00-0002-74.png
9,382,0,1444667244396,1444667245195,880,498,0,0,0,3,2,1,32,0003-00-0006-19.png,0002-00-0001-97.png
9,383,1,1444667245217,1444667248106,877,433,0,0,0,4,3,1,43,0005-00-0009-09.png,0003-00-0005-39.png
9,384,1,1444667248137,1444667248425,367,389,0,0,0,2,3,1,23,0002-00-0001-07.png,0003-00-0007-39.png
9,385,0,1444667248456,1444667248836,938,344,0,0,0,3,4,1,34,0003-00-0000-66.png,0005-00-0009-26.png
9,386,0,1444667248868,1444667248998,436,274,0,0,0,4,3,1,43,0005-00-0006-47.png,0003-00-0004-22.png
9,387,1,1444667249033,1444667249861,865,395,0,0,0,5,4,1,54,0001-00-0005-12.png,0005-00-0001-01.png
9,388,1,1444667249886,1444667250054,425,315,0,0,0,3,2,1,32,0003-00-0002-26.png,0002-00-0002-90.png
9,389,0,1444667250074,1444667250177,1056,279,0,0,0,2,1,1,21,0002-00-0005-80.png,0004-00-0009-75.png
9,390,1,1444667250202,1444667250779,384,332,0,0,0,5,4,1,54,0001-00-0002-52.png,0005-00-0005-95.png
9,391,0,1444667250802,1444667251491,880,416,0,0,0,1,2,1,12,0004-00-0005-50.png,0002-00-0001-46.png
9,392,1,1444667251512,1444667251560,1067,248,0,0,0,2,3,1,23,0002-00-0008-04.png,0003-00-0004-38.png
9,393,1,1444667251591,1444667251688,894,374,0,0,0,1,2,1,12,0004-00-0007-48.png,0002-00-0004-95.png
9,394,1,1444667251726,1444667253800,862,432,0,0,0,5,4,1,54,0001-00-0008-48.png,0005-00-0007-29.png
9,395,0,1444667253840,1444667255445,439,239,0,0,0,5,4,1,54,0001-00-0005-13.png,0005-00-0004-44.png
9,396,0,1444667255476,1444667256326,888,488,0,0,0,3,2,1,32,0003-00-0003-85.png,0002-00-0001-67.png
9,397,0,1444667256358,1444667256509,888,332,0,0,0,2,3,1,23,0002-00-0008-40.png,0003-00-0003-45.png
9,398,1,1444667256550,1444667257165,1033,299,0,0,0,2,1,1,21,0002-00-0007-01.png,0004-00-0001-82.png
9,399,0,1444667257199,1444667257411,928,488,0,0,0,4,3,1,43,0005-00-0001-61.png,0003-00-0008-14.png
9,400,1,1444667257438,1444667257547,893,332,0,0,0,3,4,1,34,0003-00-0007-21.png,0005-00-0004-40.png
9,401,1,1444667257576,1444667259023,458,279,0,0,0,2,3,1,23,0002-00-0008-76.png,0003-00-0000-82.png
9,402,0,1444667259040,1444667259949,423,273,0,0,0,4,3,1,43,0005-00-0007-95.png,0003-00-0004-64.png
9,403,1,1444667259971,1444667260186,937,355,0,0,0,5,4,1,54,0001-00-0002-19.png,0005-00-0008-12.png
9,404,1,1444667260207,1444667260453,403,352,0,0,0,2,1,1,21,0002-00-0004-20.png,0004-00-0004-45.png
9,405,1,1444667260482,1444667261317,970,261,0,0,0,1,2,1,12,0004-00-0006-59.png,0002-00-0004-83.png
9,406,1,1444667261355,1444667261551,479,244,0,0,0,5,4,1,54,0001-00-0001-96.png,0005-00-0003-30.png
9,407,0,1444667261573,1444667263729,967,310,0,0,0,3,2,1,32,0003-00-0009-66.png,0002-00-0006-02.png
9,408,1,1444667263760,1444667264426,962,374,0,0,0,3,4,1,34,0003-00-0003-65.png,0005-00-0001-35.png
9,409,1,1444667264459,1444667264536,1017,310,0,0,0,1,2,1,12,0004-00-0008-66.png,0002-00-0008-51.png
9,410,1,1444667264557,1444667264890,877,474,0,0,0,5,4,1,54,0001-00-0003-22.png,0005-00-0005-18.png
9,411,0,1444667264920,1444667265841,964,355,0,0,0,2,3,1,23,0002-00-0007-95.png,0003-00-0003-87.png
9,412,1,1444667265863,1444667267546,436,239,0,0,0,3,2,1,32,0003-00-0002-26.png,0002-00-0004-15.png
9,413,1,1444667267574,1444667268442,1067,268,0,0,0,3,4,1,34,0003-00-0008-85.png,0005-00-0008-09.png
9,414,0,1444667268485,1444667268967,862,375,0,0,0,5,4,1,54,0001-00-0006-26.png,0005-00-0001-36.png
9,415,1,1444667268993,1444667270838,432,282,0,0,0,4,3,1,43,0005-00-0003-75.png,0003-00-0004-05.png
9,416,1,1444667270860,1444667271997,404,310,0,0,0,2,1,1,21,0002-00-0009-67.png,0004-00-0008-46.png
9,417,1,1444667272019,1444667273460,934,546,0,0,0,2,1,1,21,0002-00-0008-01.png,0004-00-0009-13.png
9,418,1,1444667273510,1444667273552,397,306,0,0,0,4,3,1,43,0005-00-0002-22.png,0003-00-0005-57.png
9,419,1,1444667273576,1444667420889,862,488,0,0,0,3,2,1,32,0003-00-0001-98.png,0002-00-0009-29.png
9,420,1,1444667420921,1444667421117,405,316,0,0,0,3,4,1,34,0003-00-0004-17.png,0005-00-0000-67.png
9,421,0,1444667421145,1444667424891,902,357,0,0,0,5,4,1,54,0001-00-0005-53.png,0005-00-0008-13.png
9,422,1,1444667424922,1444667429080,958,429,0,0,0,2,3,1,23,0002-00-0000-25.png,0003-00-0008-08.png
9,423,1,1444667429114,1444667430017,1041,279,0,0,0,5,4,1,54,0001-00-0001-98.png,0005-00-0002-49.png
9,424,1,1444667430040,1444667430386,945,364,0,0,0,1,2,1,12,0004-00-0003-53.png,0002-00-0005-56.png
9,425,1,1444667430414,1444667431056,418,254,0,0,0,2,3,1,23,0002-00-0009-39.png,0003-00-0005-02.png
9,426,0,1444667431084,1444667431633,949,362,0,0,0,3,4,1,34,0003-00-0000-39.png,0005-00-0006-72.png
9,427,0,1444667431659,1444667431953,964,340,0,0,0,1,2,1,12,0004-00-0006-19.png,0002-00-0008-07.png
9,428,0,1444667431988,1444667437443,913,399,0,0,0,2,1,1,21,0002-00-0003-96.png,0004-00-0001-50.png
9,429,0,1444667437483,1444667437776,420,288,0,0,0,3,2,1,32,0003-00-0004-92.png,0002-00-0002-97.png
9,430,0,1444667437801,1444667439690,930,358,0,0,0,4,3,1,43,0005-00-0005-76.png,0003-00-0005-80.png
9,431,0,1444667439744,1444667439779,860,418,0,0,0,5,4,1,54,0001-00-0004-91.png,0005-00-0007-39.png
9,432,1,1444667439804,1444667446440,888,462,0,0,0,5,4,1,54,0001-00-0008-62.png,0005-00-0003-05.png
9,433,0,1444667446477,1444667446592,433,269,0,0,0,2,3,1,23,0002-00-0003-65.png,0003-00-0004-76.png
9,434,1,1444667446617,1444667447361,1067,296,0,0,0,5,4,1,54,0001-00-0002-28.png,0005-00-0002-63.png
9,435,1,1444667447391,1444667447710,873,462,0,0,0,3,4,1,34,0003-00-0004-79.png,0005-00-0005-06.png
9,436,1,1444667447738,1444667450875,964,347,0,0,0,5,4,1,54,0001-00-0007-25.png,0005-00-0005-32.png
9,437,0,1444667450901,1444667451040,869,357,0,0,0,4,3,1,43,0005-00-0004-09.png,0003-00-0004-82.png
9,438,0,1444667451062,1444667452662,922,335,0,0,0,1,2,1,12,0004-00-0001-35.png,0002-00-0000-15.png
9,439,0,1444667452693,1444667453812,425,310,0,0,0,2,1,1,21,0002-00-0009-13.png,0004-00-0005-18.png
9,440,0,1444667453841,1444667453878,936,397,0,0,0,3,2,1,32,0003-00-0001-41.png,0002-00-0005-71.png
9,441,0,1444667453913,1444667454430,354,274,0,0,0,5,4,1,54,0001-00-0001-26.png,0005-00-0000-00.png
9,442,1,1444667454451,1444667454515,935,373,0,0,0,3,4,1,34,0003-00-0001-76.png,0005-00-0003-55.png
9,443,1,1444667454541,1444667458555,436,301,0,0,0,5,4,1,54,0001-00-0004-31.png,0005-00-0005-22.png
9,444,1,1444667458570,1444667458913,935,360,0,0,0,3,2,1,32,0003-00-0000-67.png,0002-00-0001-99.png
9,445,0,1444667458936,1444667458992,1073,273,0,0,0,2,3,1,23,0002-00-0006-65.png,0003-00-0004-13.png
9,446,0,1444667459024,1444667460072,366,264,0,0,0,2,1,1,21,0002-00-0004-59.png,0004-00-0001-22.png
9,447,1,1444667460108,1444667462036,1059,271,0,0,0,4,3,1,43,0005-00-0008-26.png,0003-00-0008-20.png
9,448,0,1444667462069,1444667462785,395,444,0,0,0,1,2,1,12,0004-00-0009-06.png,0002-00-0003-12.png
9,449,0,1444667462814,1444667462875,1057,264,0,0,0,2,3,1,23,0002-00-0003-17.png,0003-00-0009-18.png
9,450,1,1444667462924,1444667463531,871,426,0,0,0,3,2,1,32,0003-00-0007-14.png,0002-00-0001-82.png
9,451,0,1444667463558,1444667464422,439,277,0,0,0,4,3,1,43,0005-00-0007-75.png,0003-00-0005-70.png
9,452,1,1444667464466,1444667464476,909,378,0,0,0,2,1,1,21,0002-00-0004-36.png,0004-00-0002-45.png
9,453,0,1444667464500,1444667467622,863,396,0,0,0,3,4,1,34,0003-00-0007-80.png,0005-00-0002-38.png
9,454,1,1444667467659,1444667468473,418,291,0,0,0,1,2,1,12,0004-00-0002-13.png,0002-00-0003-43.png
9,455,1,1444667468505,1444667469011,908,313,0,0,0,5,4,1,54,0001-00-0002-52.png,0005-00-0009-83.png
9,456,0,1444667469045,1444667469204,425,248,0,0,0,5,4,1,54,0001-00-0001-50.png,0005-00-0006-52.png
9,457,0,1444667469225,1444667469552,1058,274,0,0,0,3,4,1,34,0003-00-0003-16.png,0005-00-0005-91.png
9,458,0,1444667469583,1444667469785,946,347,0,0,0,5,4,1,54,0001-00-0007-50.png,0005-00-0009-20.png
9,459,1,1444667469809,1444667470033,964,333,0,0,0,4,3,1,43,0005-00-0001-63.png,0003-00-0008-06.png
9,460,0,1444667470055,1444667470146,866,446,0,0,0,2,3,1,23,0002-00-0007-78.png,0003-00-0007-84.png
9,461,0,1444667470170,1444667470206,970,426,0,0,0,1,2,1,12,0004-00-0006-43.png,0002-00-0007-42.png
9,462,1,1444667470241,1444667472722,970,363,0,0,0,2,1,1,21,0002-00-0008-55.png,0004-00-0005-82.png
9,463,0,1444667472747,1444667473448,467,277,0,0,0,5,4,1,54,0001-00-0000-40.png,0005-00-0008-19.png
9,464,1,1444667473472,1444667473517,405,328,0,0,0,3,2,1,32,0003-00-0001-55.png,0002-00-0005-72.png
9,465,1,1444667473544,1444667473878,1071,305,0,0,0,3,2,1,32,0003-00-0006-13.png,0002-00-0007-42.png
9,466,1,1444667473902,1444667473915,959,325,0,0,0,2,1,1,21,0002-00-0009-80.png,0004-00-0007-01.png
9,467,0,1444667473944,1444667477218,875,488,0,0,0,2,3,1,23,0002-00-0002-65.png,0003-00-0005-28.png
9,468,0,1444667477245,1444667477402,889,365,0,0,0,3,4,1,34,0003-00-0009-94.png,0005-00-0003-08.png
9,469,1,1444667477426,1444667478313,388,388,0,0,0,5,4,1,54,0001-00-0009-72.png,0005-00-0006-92.png
9,470,0,1444667478353,1444667478365,917,371,0,0,0,4,3,1,43,0005-00-0006-47.png,0003-00-0007-82.png
9,471,0,1444667478396,1444667479132,942,384,0,0,0,1,2,1,12,0004-00-0009-46.png,0002-00-0006-40.png
9,472,1,1444667479171,1444667479354,1000,354,0,0,0,5,4,1,54,0001-00-0003-97.png,0005-00-0006-35.png
9,473,1,1444667479384,1444667479641,466,262,0,0,0,1,2,1,12,0004-00-0006-64.png,0002-00-0002-24.png
9,474,0,1444667479670,1444667479861,368,413,0,0,0,2,3,1,23,0002-00-0004-10.png,0003-00-0001-47.png
9,475,0,1444667479887,1444667480047,429,299,0,0,0,4,3,1,43,0005-00-0008-17.png,0003-00-0004-36.png
9,476,1,1444667480079,1444667480278,351,380,0,0,0,5,4,1,54,0001-00-0005-21.png,0005-00-0007-09.png
9,477,1,1444667480301,1444667480771,964,373,0,0,0,2,1,1,21,0002-00-0001-85.png,0004-00-0009-59.png
9,478,1,1444667480798,1444667480869,916,376,0,0,0,3,4,1,34,0003-00-0003-88.png,0005-00-0004-71.png
9,479,0,1444667480910,1444667481117,455,294,0,0,0,5,4,1,54,0001-00-0000-40.png,0005-00-0000-09.png
9,480,0,1444667481145,1444667481214,370,428,0,0,0,3,2,1,32,0003-00-0006-75.png,0002-00-0003-70.png
9,481,0,1444667481248,1444667481536,959,363,0,0,0,2,1,1,21,0002-00-0002-85.png,0004-00-0001-79.png
9,482,1,1444667481571,1444667481671,862,421,0,0,0,3,4,1,34,0003-00-0009-36.png,0005-00-0002-23.png
9,483,1,1444667481704,1444667481835,892,402,0,0,0,2,3,1,23,0002-00-0001-12.png,0003-00-0009-78.png
9,484,0,1444667481863,1444667484003,466,256,0,0,0,5,4,1,54,0001-00-0002-49.png,0005-00-0006-47.png
9,485,0,1444667484037,1444667484283,932,350,0,0,0,4,3,1,43,0005-00-0001-80.png,0003-00-0007-24.png
9,486,1,1444667484310,1444667484438,340,329,0,0,0,3,2,1,32,0003-00-0009-48.png,0002-00-0006-02.png
9,487,1,1444667484464,1444667484634,410,308,0,0,0,1,2,1,12,0004-00-0005-05.png,0002-00-0009-33.png
9,488,1,1444667484659,1444667484792,479,278,0,0,0,5,4,1,54,0001-00-0009-34.png,0005-00-0006-49.png
9,489,1,1444667484822,1444667484840,458,257,0,0,0,2,3,1,23,0002-00-0009-87.png,0003-00-0003-73.png
9,490,1,1444667484860,1444667486506,931,332,0,0,0,5,4,1,54,0001-00-0004-53.png,0005-00-0007-45.png
9,491,1,1444667486523,1444667486557,427,291,0,0,0,4,3,1,43,0005-00-0000-47.png,0003-00-0007-59.png
9,492,1,1444667486582,1444667487948,462,256,0,0,0,5,4,1,54,0001-00-0002-09.png,0005-00-0005-60.png
9,493,0,1444667487992,1444667488074,444,292,0,0,0,2,1,1,21,0002-00-0005-72.png,0004-00-0006-50.png
9,494,1,1444667488105,1444667488421,945,322,0,0,0,3,2,1,32,0003-00-0002-37.png,0002-00-0001-74.png
9,495,1,1444667488459,1444667488651,478,239,0,0,0,3,4,1,34,0003-00-0001-61.png,0005-00-0002-54.png
9,496,0,1444667488679,1444667488847,913,514,0,0,0,1,2,1,12,0004-00-0006-89.png,0002-00-0007-73.png
9,497,0,1444667488871,1444667489249,422,342,0,0,0,4,3,1,43,0005-00-0006-61.png,0003-00-0007-01.png
9,498,1,1444667489281,1444667492722,444,237,0,0,0,2,3,1,23,0002-00-0004-71.png,0003-00-0007-06.png
9,499,0,1444667492743,1444667493622,888,488,0,0,0,5,4,1,54,0001-00-0007-37.png,0005-00-0007-52.png
9,500,1,1444667493665,1444667493979,918,372,0,0,0,2,1,1,21,0002-00-0008-94.png,0004-00-0003-59.png
9,501,1,1444667494001,1444667494113,946,334,0,0,0,3,4,1,34,0003-00-0001-93.png,0005-00-0000-00.png
9,502,1,1444667494144,1444667494560,940,382,0,0,0,1,2,1,12,0004-00-0003-67.png,0002-00-0009-93.png
9,503,1,1444667494574,1444667494734,927,555,0,0,0,3,2,1,32,0003-00-0006-89.png,0002-00-0004-01.png
9,504,1,1444667494759,1444667494873,461,255,0,0,0,5,4,1,54,0001-00-0007-47.png,0005-00-0003-02.png
9,505,0,1444667494902,1444667495405,860,444,0,0,0,4,3,1,43,0005-00-0005-91.png,0003-00-0006-86.png
9,506,1,1444667495432,1444667495467,873,526,0,0,0,2,1,1,21,0002-00-0003-20.png,0004-00-0009-28.png
9,507,1,1444667495485,1444667495629,989,355,0,0,0,3,4,1,34,0003-00-0002-02.png,0005-00-0001-56.png
9,508,1,1444667495657,1444667498139,453,263,0,0,0,3,2,1,32,0003-00-0003-53.png,0002-00-0002-55.png
9,509,1,1444667498163,1444667498653,412,354,0,0,0,1,2,1,12,0004-00-0007-31.png,0002-00-0007-63.png
9,510,0,1444667498690,1444667498780,464,272,0,0,0,5,4,1,54,0001-00-0003-57.png,0005-00-0003-62.png
9,511,1,1444667498813,1444667499085,1040,266,0,0,0,2,3,1,23,0002-00-0000-12.png,0003-00-0004-81.png
9,512,1,1444667499107,1444667499128,878,352,0,0,0,5,4,1,54,0001-00-0009-98.png,0005-00-0006-37.png
9,513,0,1444667499151,1444667499609,963,313,0,0,0,5,4,1,54,0001-00-0009-35.png,0005-00-0002-34.png
9,514,0,1444667499640,1444667506292,857,411,0,0,0,2,3,1,23,0002-00-0008-05.png,0003-00-0004-31.png
9,515,0,1444667506334,1444667507017,887,354,0,0,0,2,1,1,21,0002-00-0009-96.png,0004-00-0000-41.png
9,516,1,1444667507042,1444667509296,944,316,0,0,0,3,4,1,34,0003-00-0003-54.png,0005-00-0005-66.png
9,517,1,1444667509316,1444667510255,420,336,0,0,0,4,3,1,43,0005-00-0006-89.png,0003-00-0007-77.png
9,518,1,1444667510278,1444667510952,398,243,0,0,0,3,2,1,32,0003-00-0002-02.png,0002-00-0000-52.png
9,519,1,1444667510982,1444667511256,439,315,0,0,0,1,2,1,12,0004-00-0009-96.png,0002-00-0007-00.png
9,520,0,1444667511285,1444667513100,858,384,0,0,0,5,4,1,54,0001-00-0005-50.png,0005-00-0006-23.png
9,521,0,1444667513124,1444667517352,964,298,0,0,0,3,2,1,32,0003-00-0008-41.png,0002-00-0001-86.png
9,522,1,1444667517379,1444667517459,432,234,0,0,0,2,1,1,21,0002-00-0001-69.png,0004-00-0001-29.png
9,523,1,1444667517503,1444667517721,430,271,0,0,0,4,3,1,43,0005-00-0006-34.png,0003-00-0008-35.png
9,524,1,1444667517745,1444667519569,1061,247,0,0,0,5,4,1,54,0001-00-0000-61.png,0005-00-0007-05.png
9,525,1,1444667519591,1444667520230,465,240,0,0,0,3,4,1,34,0003-00-0000-83.png,0005-00-0007-66.png
9,526,0,1444667520258,1444667520431,911,321,0,0,0,5,4,1,54,0001-00-0001-27.png,0005-00-0003-57.png
9,527,1,1444667520467,1444667521846,421,311,0,0,0,2,3,1,23,0002-00-0008-07.png,0003-00-0007-82.png
9,528,0,1444667521867,1444667522992,1057,280,0,0,0,1,2,1,12,0004-00-0001-93.png,0002-00-0005-88.png
9,529,1,1444667523019,1444667524237,874,432,0,0,0,5,4,1,54,0001-00-0001-84.png,0005-00-0001-08.png
9,530,1,1444667524275,1444667524477,401,322,0,0,0,2,1,1,21,0002-00-0003-75.png,0004-00-0003-20.png
9,531,1,1444667524508,1444667525941,447,269,0,0,0,1,2,1,12,0004-00-0000-48.png,0002-00-0002-01.png
9,532,1,1444667525968,1444667526149,916,365,0,0,0,2,3,1,23,0002-00-0009-47.png,0003-00-0001-10.png
9,533,1,1444667526178,1444667526272,922,335,0,0,0,3,2,1,32,0003-00-0008-90.png,0002-00-0007-40.png
9,534,1,1444667526295,1444667526664,879,407,0,0,0,3,4,1,34,0003-00-0006-32.png,0005-00-0004-07.png
9,535,0,1444667526697,1444667529544,422,266,0,0,0,5,4,1,54,0001-00-0007-36.png,0005-00-0003-94.png
9,536,1,1444667529569,1444667529825,874,462,0,0,0,4,3,1,43,0005-00-0005-97.png,0003-00-0001-19.png
9,537,1,1444667529854,1444667530212,994,346,0,0,0,2,1,1,21,0002-00-0001-46.png,0004-00-0007-96.png
9,538,1,1444667530229,1444667530963,441,258,0,0,0,4,3,1,43,0005-00-0005-60.png,0003-00-0008-14.png
9,539,1,1444667530992,1444667531347,1048,262,0,0,0,3,4,1,34,0003-00-0001-91.png,0005-00-0009-02.png
9,540,0,1444667531370,1444667531778,444,235,0,0,0,2,3,1,23,0002-00-0003-48.png,0003-00-0004-99.png
9,541,1,1444667531798,1444667532019,432,264,0,0,0,5,4,1,54,0001-00-0005-71.png,0005-00-0002-19.png
9,542,1,1444667532046,1444667532577,1009,309,0,0,0,5,4,1,54,0001-00-0006-31.png,0005-00-0004-08.png
9,543,0,1444667532605,1444667535141,876,403,0,0,0,1,2,1,12,0004-00-0009-23.png,0002-00-0002-07.png
9,544,1,1444667535176,1444667535249,462,254,0,0,0,3,2,1,32,0003-00-0008-03.png,0002-00-0002-73.png
9,545,1,1444667535279,1444667535309,905,344,0,0,0,3,4,1,34,0003-00-0004-38.png,0005-00-0006-92.png
9,546,1,1444667535335,1444667535705,432,248,0,0,0,5,4,1,54,0001-00-0005-66.png,0005-00-0007-60.png
9,547,1,1444667535731,1444667535824,917,353,0,0,0,2,3,1,23,0002-00-0001-94.png,0003-00-0004-99.png
9,548,0,1444667535866,1444667536096,902,514,0,0,0,5,4,1,54,0001-00-0009-02.png,0005-00-0008-28.png
9,549,1,1444667536123,1444667536568,497,241,0,0,0,1,2,1,12,0004-00-0005-43.png,0002-00-0005-51.png
9,550,1,1444667536592,1444667536910,461,272,0,0,0,2,1,1,21,0002-00-0009-17.png,0004-00-0000-97.png
9,551,0,1444667536935,1444667537782,913,514,0,0,0,4,3,1,43,0005-00-0006-21.png,0003-00-0004-31.png
9,552,1,1444667537812,1444667539527,463,251,0,0,0,3,2,1,32,0003-00-0004-51.png,0002-00-0003-72.png
9,553,1,1444667539556,1444667539757,862,541,0,0,0,5,4,1,54,0001-00-0001-32.png,0005-00-0001-62.png
9,554,1,1444667539800,1444667539970,419,302,0,0,0,2,3,1,23,0002-00-0000-96.png,0003-00-0002-79.png
9,555,0,1444667539998,1444667558501,888,541,0,0,0,5,4,1,54,0001-00-0001-25.png,0005-00-0005-21.png
9,556,1,1444667558523,1444667559587,464,283,0,0,0,4,3,1,43,0005-00-0006-21.png,0003-00-0000-60.png
9,557,0,1444667559619,1444667561376,888,514,0,0,0,3,2,1,32,0003-00-0007-19.png,0002-00-0000-76.png
9,558,1,1444667561402,1444667562138,862,514,0,0,0,1,2,1,12,0004-00-0006-32.png,0002-00-0003-36.png
9,559,1,1444667562162,1444667562291,477,236,0,0,0,3,4,1,34,0003-00-0008-79.png,0005-00-0005-49.png
9,560,0,1444667562309,1444667563291,953,352,0,0,0,2,1,1,21,0002-00-0002-26.png,0004-00-0001-89.png
9,561,1,1444667563323,1444667563665,1041,279,0,0,0,2,1,1,21,0002-00-0003-36.png,0004-00-0003-80.png
9,562,0,1444667563700,1444667565386,913,541,0,0,0,2,3,1,23,0002-00-0008-26.png,0003-00-0000-76.png
9,563,1,1444667565412,1444667565758,901,554,0,0,0,1,2,1,12,0004-00-0001-31.png,0002-00-0001-28.png
9,564,0,1444667565789,1444667567733,887,353,0,0,0,5,4,1,54,0001-00-0009-66.png,0005-00-0007-98.png
9,565,0,1444667567753,1444667580639,888,541,0,0,0,4,3,1,43,0005-00-0008-80.png,0003-00-0005-23.png
9,566,1,1444667580671,1444667581822,368,387,0,0,0,3,4,1,34,0003-00-0008-77.png,0005-00-0003-04.png
9,567,1,1444667581850,1444667585718,872,551,0,0,0,5,4,1,54,0001-00-0008-08.png,0005-00-0006-28.png
9,568,0,1444667585751,1444667586064,393,335,0,0,0,3,2,1,32,0003-00-0003-74.png,0002-00-0007-78.png
9,569,1,1444667586088,1444667588065,888,541,0,0,0,3,4,1,34,0003-00-0008-45.png,0005-00-0008-03.png
9,570,1,1444667588101,1444667588141,939,306,0,0,0,1,2,1,12,0004-00-0000-19.png,0002-00-0002-80.png
9,571,1,1444667588165,1444667588273,356,392,0,0,0,5,4,1,54,0001-00-0001-42.png,0005-00-0003-04.png
9,572,1,1444667588302,1444667588683,459,260,0,0,0,3,2,1,32,0003-00-0000-11.png,0002-00-0003-46.png
9,573,1,1444667588712,1444667589427,888,514,0,0,0,2,1,1,21,0002-00-0009-13.png,0004-00-0008-49.png
9,574,1,1444667589448,1444667589949,415,317,0,0,0,4,3,1,43,0005-00-0009-20.png,0003-00-0008-91.png
9,575,1,1444667589972,1444667589998,929,333,0,0,0,5,4,1,54,0001-00-0001-44.png,0005-00-0004-53.png
9,576,0,1444667590035,1444667590360,871,332,0,0,0,2,3,1,23,0002-00-0005-56.png,0003-00-0006-17.png
9,577,1,1444667590392,1444667590606,943,324,0,0,0,5,4,1,54,0001-00-0002-07.png,0005-00-0001-05.png
9,578,0,1444667590636,1444667592113,904,440,0,0,0,2,1,1,21,0002-00-0001-51.png,0004-00-0008-20.png
9,579,0,1444667592145,1444667595059,956,436,0,0,0,3,2,1,32,0003-00-0007-36.png,0002-00-0008-57.png
9,580,1,1444667595094,1444667595324,869,383,0,0,0,5,4,1,54,0001-00-0008-91.png,0005-00-0002-23.png
9,581,1,1444667595345,1444667595431,413,346,0,0,0,4,3,1,43,0005-00-0008-11.png,0003-00-0006-04.png
9,582,1,1444667595453,1444667595551,1043,261,0,0,0,1,2,1,12,0004-00-0005-44.png,0002-00-0000-90.png
9,583,0,1444667595589,1444667595693,933,434,0,0,0,3,4,1,34,0003-00-0008-11.png,0005-00-0009-18.png
9,584,1,1444667595728,1444667596766,344,372,0,0,0,2,3,1,23,0002-00-0005-30.png,0003-00-0006-53.png
9,585,1,1444667596791,1444667598972,1041,268,0,0,0,2,3,1,23,0002-00-0003-98.png,0003-00-0001-47.png
9,586,1,1444667598995,1444667599106,876,464,0,0,0,5,4,1,54,0001-00-0005-34.png,0005-00-0009-41.png
9,587,0,1444667599133,1444667599906,950,355,0,0,0,5,4,1,54,0001-00-0007-12.png,0005-00-0004-15.png
9,588,0,1444667599932,1444667599984,943,351,0,0,0,4,3,1,43,0005-00-0008-50.png,0003-00-0000-59.png
9,589,1,1444667600005,1444667600316,416,314,0,0,0,2,1,1,21,0002-00-0003-57.png,0004-00-0003-79.png
9,590,0,1444667600343,1444667600720,872,394,0,0,0,3,2,1,32,0003-00-0004-56.png,0002-00-0003-70.png
9,591,1,1444667600760,1444667600817,882,461,0,0,0,3,4,1,34,0003-00-0005-77.png,0005-00-0000-71.png
9,592,1,1444667600851,1444667600965,935,310,0,0,0,1,2,1,12,0004-00-0007-79.png,0002-00-0009-10.png
9,593,1,1444667600998,1444667601973,1064,323,0,0,0,4,3,1,43,0005-00-0009-85.png,0003-00-0008-40.png
9,594,0,1444667601999,1444667602204,468,277,0,0,0,2,3,1,23,0002-00-0009-95.png,0003-00-0005-59.png
9,595,0,1444667602233,1444667602540,872,481,0,0,0,5,4,1,54,0001-00-0000-71.png,0005-00-0000-17.png
9,596,0,1444667602572,1444667605431,893,321,0,0,0,1,2,1,12,0004-00-0000-27.png,0002-00-0007-57.png
9,597,0,1444667605454,1444667606037,954,352,0,0,0,3,4,1,34,0003-00-0004-31.png,0005-00-0002-98.png
9,598,1,1444667606068,1444667607487,879,410,0,0,0,3,2,1,32,0003-00-0006-10.png,0002-00-0008-66.png
9,599,0,1444667607518,1444667607612,450,247,0,0,0,5,4,1,54,0001-00-0005-24.png,0005-00-0004-90.png
9,600,1,1444667607631,1444667607989,427,343,0,0,0,2,1,1,21,0002-00-0006-33.png,0004-00-0007-10.png
9,601,0,1444667608010,1444667609258,876,514,0,0,0,2,3,1,23,0002-00-0001-84.png,0003-00-0005-54.png
9,602,1,1444667609290,1444667609622,995,337,0,0,0,1,2,1,12,0004-00-0007-50.png,0002-00-0001-00.png
9,603,1,1444667609660,1444667609836,391,379,0,0,0,2,1,1,21,0002-00-0003-57.png,0004-00-0009-91.png
9,604,1,1444667609856,1444667609914,388,394,0,0,0,3,4,1,34,0003-00-0004-17.png,0005-00-0000-40.png
9,605,0,1444667609947,1444667610521,451,236,0,0,0,5,4,1,54,0001-00-0008-58.png,0005-00-0002-63.png
9,606,1,1444667610558,1444667610943,446,273,0,0,0,3,2,1,32,0003-00-0008-45.png,0002-00-0005-13.png
9,607,1,1444667610970,1444667611702,449,403,0,0,0,5,4,1,54,0001-00-0002-29.png,0005-00-0007-60.png
9,608,0,1444667611767,1444667611793,907,328,0,0,0,4,3,1,43,0005-00-0002-90.png,0003-00-0007-32.png
9,609,1,1444667611815,1444667612317,465,241,0,0,0,3,4,1,34,0003-00-0008-72.png,0005-00-0005-65.png
9,610,0,1444667612348,1444667614206,862,531,0,0,0,5,4,1,54,0001-00-0003-57.png,0005-00-0006-60.png
9,611,1,1444667614260,1444667614819,926,350,0,0,0,5,4,1,54,0001-00-0009-66.png,0005-00-0009-55.png
9,612,1,1444667614839,1444667616112,859,388,0,0,0,1,2,1,12,0004-00-0007-75.png,0002-00-0009-10.png
9,613,0,1444667616133,1444667616669,934,363,0,0,0,2,3,1,23,0002-00-0005-47.png,0003-00-0004-50.png
9,614,1,1444667616694,1444667617497,885,356,0,0,0,4,3,1,43,0005-00-0005-16.png,0003-00-0000-87.png
9,615,1,1444667617517,1444667619289,452,281,0,0,0,2,1,1,21,0002-00-0008-84.png,0004-00-0002-74.png
9,616,1,1444667619322,1444667619546,478,243,0,0,0,3,2,1,32,0003-00-0009-72.png,0002-00-0006-04.png
9,617,1,1444667619573,1444667621033,1058,283,0,0,0,5,4,1,54,0001-00-0003-12.png,0005-00-0008-30.png
9,618,0,1444667621073,1444667621591,939,514,0,0,0,2,3,1,23,0002-00-0009-05.png,0003-00-0005-94.png
9,619,0,1444667621627,1444667624093,861,516,0,0,0,5,4,1,54,0001-00-0009-38.png,0005-00-0003-05.png
9,620,1,1444667624117,1444667624182,862,384,0,0,0,1,2,1,12,0004-00-0008-34.png,0002-00-0000-75.png
9,621,0,1444667624204,1444667638395,460,245,0,0,0,2,1,1,21,0002-00-0007-68.png,0004-00-0001-52.png
9,622,0,1444667638417,1444667638985,966,338,0,0,0,4,3,1,43,0005-00-0008-57.png,0003-00-0007-14.png
9,623,0,1444667639022,1444667639669,1047,301,0,0,0,3,4,1,34,0003-00-0009-33.png,0005-00-0004-49.png
9,624,1,1444667639698,1444667640113,462,305,0,0,0,3,2,1,32,0003-00-0002-08.png,0002-00-0001-32.png
9,625,1,1444667640137,1444667640281,458,233,0,0,0,2,1,1,21,0002-00-0001-69.png,0004-00-0001-76.png
9,626,1,1444667640319,1444667640621,441,244,0,0,0,4,3,1,43,0005-00-0002-56.png,0003-00-0006-77.png
9,627,1,1444667640651,1444667640778,403,408,0,0,0,3,2,1,32,0003-00-0007-67.png,0002-00-0001-96.png
9,628,0,1444667640804,1444667641019,862,488,0,0,0,5,4,1,54,0001-00-0007-11.png,0005-00-0003-18.png
9,629,1,1444667641041,1444667641574,1083,306,0,0,0,5,4,1,54,0001-00-0004-49.png,0005-00-0004-72.png
9,630,1,1444667641604,1444667641722,909,341,0,0,0,2,3,1,23,0002-00-0005-30.png,0003-00-0006-25.png
9,631,0,1444667641742,1444667641802,883,455,0,0,0,3,4,1,34,0003-00-0006-13.png,0005-00-0003-59.png
9,632,1,1444667641848,1444667642446,932,326,0,0,0,1,2,1,12,0004-00-0007-56.png,0002-00-0004-58.png
9,633,0,1444667642468,1444667643724,874,462,0,0,0,2,1,1,21,0002-00-0009-45.png,0004-00-0001-48.png
9,634,1,1444667643752,1444667643860,873,412,0,0,0,1,2,1,12,0004-00-0008-68.png,0002-00-0001-77.png
9,635,1,1444667643884,1444667644267,448,304,0,0,0,3,4,1,34,0003-00-0006-43.png,0005-00-0002-30.png
9,636,0,1444667644290,1444667644369,1039,302,0,0,0,2,3,1,23,0002-00-0004-89.png,0003-00-0005-69.png
9,637,0,1444667644404,1444667644802,1035,271,0,0,0,4,3,1,43,0005-00-0007-01.png,0003-00-0004-45.png
9,638,0,1444667644841,1444667644902,971,453,0,0,0,5,4,1,54,0001-00-0006-29.png,0005-00-0007-08.png
9,639,1,1444667644930,1444667645246,437,224,0,0,0,5,4,1,54,0001-00-0004-04.png,0005-00-0001-81.png
9,640,0,1444667645275,1444667645953,1060,272,0,0,0,3,2,1,32,0003-00-0005-35.png,0002-00-0001-80.png
9,641,0,1444667645977,1444667646317,860,387,0,0,0,5,4,1,54,0001-00-0003-77.png,0005-00-0005-69.png
9,642,1,1444667646338,1444667647366,486,242,0,0,0,5,4,1,54,0001-00-0004-40.png,0005-00-0000-66.png
9,643,1,1444667647397,1444667647569,1081,278,0,0,0,1,2,1,12,0004-00-0007-03.png,0002-00-0000-00.png
9,644,1,1444667647600,1444667648887,872,482,0,0,0,2,1,1,21,0002-00-0004-90.png,0004-00-0000-54.png
9,645,0,1444667648926,1444667649053,372,374,0,0,0,3,2,1,32,0003-00-0004-76.png,0002-00-0006-07.png
9,646,1,1444667649088,1444667649713,468,241,0,0,0,3,4,1,34,0003-00-0006-79.png,0005-00-0008-51.png
9,647,1,1444667649748,1444667650045,976,330,0,0,0,2,3,1,23,0002-00-0009-05.png,0003-00-0000-77.png
9,648,1,1444667650068,1444667650467,1041,319,0,0,0,4,3,1,43,0005-00-0009-09.png,0003-00-0001-66.png
9,649,1,1444667650503,1444667654015,974,356,0,0,0,4,3,1,43,0005-00-0004-87.png,0003-00-0005-72.png
9,650,1,1444667654048,1444667654248,379,364,0,0,0,3,2,1,32,0003-00-0009-32.png,0002-00-0002-47.png
9,651,1,1444667654271,1444667656334,924,377,0,0,0,2,1,1,21,0002-00-0007-02.png,0004-00-0008-31.png
9,652,1,1444667656354,1444667656403,881,498,0,0,0,5,4,1,54,0001-00-0000-56.png,0005-00-0000-99.png
9,653,1,1444667656422,1444667658468,902,444,0,0,0,5,4,1,54,0001-00-0009-35.png,0005-00-0009-84.png
9,654,0,1444667658493,1444667658768,420,388,0,0,0,3,4,1,34,0003-00-0000-63.png,0005-00-0007-00.png
9,655,0,1444667658790,1444667659809,1040,319,0,0,0,2,3,1,23,0002-00-0001-23.png,0003-00-0002-01.png
9,656,1,1444667659836,1444667660143,913,514,0,0,0,1,2,1,12,0004-00-0009-12.png,0002-00-0006-00.png
9,657,0,1444667660183,1444667660618,395,384,0,0,0,5,4,1,54,0001-00-0005-34.png,0005-00-0009-02.png
9,658,1,1444667660640,1444667661423,857,509,0,0,0,5,4,1,54,0001-00-0002-89.png,0005-00-0003-46.png
9,659,1,1444667661454,1444667661961,444,285,0,0,0,2,1,1,21,0002-00-0003-47.png,0004-00-0000-35.png
9,660,1,1444667661989,1444667662158,1036,306,0,0,0,2,3,1,23,0002-00-0009-47.png,0003-00-0002-27.png
9,661,1,1444667662190,1444667662940,866,437,0,0,0,4,3,1,43,0005-00-0008-43.png,0003-00-0002-58.png
9,662,1,1444667662964,1444667663500,885,441,0,0,0,3,2,1,32,0003-00-0003-98.png,0002-00-0008-47.png
9,663,1,1444667663528,1444667663563,464,293,0,0,0,1,2,1,12,0004-00-0000-25.png,0002-00-0001-32.png
9,664,0,1444667663601,1444667665584,1049,306,0,0,0,3,4,1,34,0003-00-0007-07.png,0005-00-0008-92.png
9,665,1,1444667665611,1444667665666,467,275,0,0,0,5,4,1,54,0001-00-0006-88.png,0005-00-0008-90.png
9,666,0,1444667665695,1444667665878,939,488,0,0,0,3,2,1,32,0003-00-0004-11.png,0002-00-0005-16.png
9,667,0,1444667665904,1444667666222,986,330,0,0,0,5,4,1,54,0001-00-0003-70.png,0005-00-0000-14.png
9,668,1,1444667666250,1444667669410,948,346,0,0,0,3,4,1,34,0003-00-0004-80.png,0005-00-0007-53.png
9,669,0,1444667669445,1444667669498,864,395,0,0,0,4,3,1,43,0005-00-0002-50.png,0003-00-0002-92.png
9,670,1,1444667669524,1444667669805,971,430,0,0,0,2,1,1,21,0002-00-0006-20.png,0004-00-0000-90.png
9,671,0,1444667669833,1444667671025,1039,294,0,0,0,1,2,1,12,0004-00-0008-34.png,0002-00-0005-30.png
9,672,1,1444667671052,1444667671537,942,353,0,0,0,2,3,1,23,0002-00-0003-99.png,0003-00-0008-63.png
9,673,0,1444667671566,1444667672088,453,279,0,0,0,3,2,1,32,0003-00-0005-23.png,0002-00-0005-04.png
9,674,0,1444667672126,1444667672466,916,358,0,0,0,5,4,1,54,0001-00-0000-94.png,0005-00-0002-99.png
9,675,0,1444667672503,1444667672606,957,344,0,0,0,2,1,1,21,0002-00-0009-33.png,0004-00-0008-61.png
9,676,1,1444667672649,1444667675374,363,377,0,0,0,2,3,1,23,0002-00-0009-31.png,0003-00-0009-65.png
9,677,1,1444667675402,1444667675655,970,400,0,0,0,3,4,1,34,0003-00-0007-92.png,0005-00-0004-00.png
9,678,0,1444667675678,1444667676883,877,436,0,0,0,1,2,1,12,0004-00-0006-00.png,0002-00-0002-90.png
9,679,0,1444667676915,1444667678901,963,313,0,0,0,5,4,1,54,0001-00-0004-68.png,0005-00-0003-81.png
9,680,0,1444667678920,1444667680260,958,375,0,0,0,4,3,1,43,0005-00-0000-80.png,0003-00-0000-46.png
9,681,1,1444667680287,1444667681758,860,387,0,0,0,1,2,1,12,0004-00-0002-35.png,0002-00-0007-60.png
9,682,0,1444667681793,1444667681892,1069,302,0,0,0,3,2,1,32,0003-00-0004-58.png,0002-00-0004-24.png
9,683,1,1444667681921,1444667682139,888,436,0,0,0,2,3,1,23,0002-00-0005-35.png,0003-00-0000-65.png
9,684,0,1444667682163,1444667682439,956,358,0,0,0,2,1,1,21,0002-00-0009-48.png,0004-00-0008-48.png
9,685,0,1444667682458,1444667682634,445,281,0,0,0,5,4,1,54,0001-00-0003-64.png,0005-00-0000-04.png
9,686,0,1444667682649,1444667682798,451,289,0,0,0,4,3,1,43,0005-00-0003-45.png,0003-00-0001-14.png
9,687,0,1444667682821,1444667682944,1052,315,0,0,0,5,4,1,54,0001-00-0005-09.png,0005-00-0004-42.png
9,688,1,1444667682973,1444667683204,484,236,0,0,0,3,4,1,34,0003-00-0004-50.png,0005-00-0005-94.png
9,689,1,1444667683233,1444667683839,453,244,0,0,0,5,4,1,54,0001-00-0006-36.png,0005-00-0009-88.png
9,690,0,1444667683864,1444667683957,862,422,0,0,0,5,4,1,54,0001-00-0006-47.png,0005-00-0001-67.png
9,691,0,1444667683983,1444667684290,865,419,0,0,0,3,2,1,32,0003-00-0006-08.png,0002-00-0005-26.png
9,692,1,1444667684313,1444667685742,1031,306,0,0,0,2,3,1,23,0002-00-0009-25.png,0003-00-0004-13.png
9,693,0,1444667685765,1444667685808,899,500,0,0,0,3,4,1,34,0003-00-0001-91.png,0005-00-0009-99.png
9,694,1,1444667685843,1444667686346,464,312,0,0,0,4,3,1,43,0005-00-0009-34.png,0003-00-0002-48.png
9,695,1,1444667686387,1444667689012,401,436,0,0,0,1,2,1,12,0004-00-0001-50.png,0002-00-0005-93.png
9,696,0,1444667689038,1444667689374,444,260,0,0,0,2,1,1,21,0002-00-0001-91.png,0004-00-0002-34.png
9,697,1,1444667689399,1444667690054,1049,302,0,0,0,1,2,1,12,0004-00-0000-63.png,0002-00-0008-57.png
9,698,1,1444667690085,1444667690706,934,427,0,0,0,3,4,1,34,0003-00-0006-07.png,0005-00-0008-91.png
9,699,1,1444667690751,1444667692056,913,488,0,0,0,5,4,1,54,0001-00-0007-71.png,0005-00-0007-74.png
9,700,1,1444667692098,1444667693853,959,371,0,0,0,4,3,1,43,0005-00-0003-77.png,0003-00-0007-75.png
9,701,1,1444667693889,1444667694462,442,245,0,0,0,5,4,1,54,0001-00-0007-67.png,0005-00-0009-77.png
9,702,1,1444667694483,1444667696724,472,249,0,0,0,2,3,1,23,0002-00-0003-07.png,0003-00-0006-19.png
9,703,1,1444667696745,1444667697460,873,447,0,0,0,2,1,1,21,0002-00-0001-61.png,0004-00-0007-48.png
9,704,0,1444667697512,1444667697625,873,541,0,0,0,3,2,1,32,0003-00-0009-69.png,0002-00-0005-27.png
9,705,0,1444667697653,1444667698106,858,433,0,0,0,5,4,1,54,0001-00-0000-70.png,0005-00-0008-30.png
9,706,1,1444667698139,1444667699858,878,384,0,0,0,2,1,1,21,0002-00-0004-25.png,0004-00-0002-77.png
9,707,1,1444667699879,1444667702353,1063,310,0,0,0,4,3,1,43,0005-00-0006-48.png,0003-00-0003-89.png
9,708,1,1444667702385,1444667702663,925,371,0,0,0,1,2,1,12,0004-00-0008-41.png,0002-00-0007-25.png
9,709,0,1444667702685,1444667703519,1031,279,0,0,0,3,4,1,34,0003-00-0009-17.png,0005-00-0008-68.png
9,710,1,1444667703542,1444667704315,892,410,0,0,0,3,2,1,32,0003-00-0008-11.png,0002-00-0000-63.png
9,711,1,1444667704359,1444667706342,465,231,0,0,0,2,3,1,23,0002-00-0007-07.png,0003-00-0005-77.png
9,712,0,1444667706371,1444667710053,455,251,0,0,0,5,4,1,54,0001-00-0003-41.png,0005-00-0009-18.png
9,713,1,1444667710081,1444667710358,1003,565,0,0,0,2,3,1,23,0002-00-0002-88.png,0003-00-0001-17.png
9,714,0,1444667710391,1444667710458,895,314,0,0,0,3,4,1,34,0003-00-0004-97.png,0005-00-0006-83.png
9,715,1,1444667710480,1444667710772,401,422,0,0,0,2,1,1,21,0002-00-0004-77.png,0004-00-0004-48.png
9,716,1,1444667710805,1444667711115,893,475,0,0,0,5,4,1,54,0001-00-0008-28.png,0005-00-0004-84.png
9,717,1,1444667711149,1444667711193,942,349,0,0,0,1,2,1,12,0004-00-0003-27.png,0002-00-0009-68.png
9,718,1,1444667711228,1444667711382,869,436,0,0,0,5,4,1,54,0001-00-0002-22.png,0005-00-0003-31.png
9,719,1,1444667711410,1444667711442,458,287,0,0,0,3,2,1,32,0003-00-0001-51.png,0002-00-0007-68.png
9,720,1,1444667711482,1444667719596,1067,288,0,0,0,4,3,1,43,0005-00-0003-84.png,0003-00-0006-77.png
9,721,0,1444667719619,1444667719652,465,253,0,0,0,5,4,1,54,0001-00-0001-18.png,0005-00-0000-72.png
9,722,0,1444667719676,1444667719801,1016,292,0,0,0,1,2,1,12,0004-00-0004-91.png,0002-00-0005-96.png
9,723,0,1444667719842,1444667720296,872,487,0,0,0,5,4,1,54,0001-00-0009-59.png,0005-00-0000-39.png
9,724,1,1444667720322,1444667720479,347,419,0,0,0,3,2,1,32,0003-00-0003-53.png,0002-00-0003-97.png
9,725,0,1444667720506,1444667722141,912,344,0,0,0,3,4,1,34,0003-00-0003-85.png,0005-00-0009-85.png
9,726,1,1444667722166,1444667722290,961,376,0,0,0,2,1,1,21,0002-00-0008-90.png,0004-00-0001-70.png
9,727,1,1444667722317,1444667722433,884,408,0,0,0,2,3,1,23,0002-00-0006-11.png,0003-00-0000-21.png
9,728,0,1444667722486,1444667722546,455,287,0,0,0,4,3,1,43,0005-00-0004-73.png,0003-00-0004-31.png
9,729,0,1444667722574,1444667723239,929,348,0,0,0,3,2,1,32,0003-00-0002-38.png,0002-00-0007-81.png
9,730,1,1444667723260,1444667725247,462,238,0,0,0,2,1,1,21,0002-00-0009-55.png,0004-00-0004-16.png
9,731,0,1444667725284,1444667727246,911,333,0,0,0,1,2,1,12,0004-00-0002-03.png,0002-00-0009-56.png
9,732,0,1444667727271,1444667728651,919,507,0,0,0,5,4,1,54,0001-00-0006-29.png,0005-00-0008-63.png
9,733,1,1444667728672,1444667729349,1069,287,0,0,0,3,4,1,34,0003-00-0003-34.png,0005-00-0003-61.png
9,734,1,1444667729379,1444667731361,1067,292,0,0,0,4,3,1,43,0005-00-0009-59.png,0003-00-0004-55.png
9,735,0,1444667731394,1444667731596,862,420,0,0,0,2,3,1,23,0002-00-0009-94.png,0003-00-0003-84.png
9,736,0,1444667731629,1444667732024,881,323,0,0,0,5,4,1,54,0001-00-0003-34.png,0005-00-0008-24.png
9,737,0,1444667732045,1444667732170,426,365,0,0,0,4,3,1,43,0005-00-0004-60.png,0003-00-0004-42.png
9,738,1,1444667732195,1444667732698,484,252,0,0,0,1,2,1,12,0004-00-0004-79.png,0002-00-0004-76.png
9,739,0,1444667732730,1444667732835,1092,266,0,0,0,2,3,1,23,0002-00-0005-54.png,0003-00-0004-12.png
9,740,1,1444667732868,1444667733131,901,502,0,0,0,3,4,1,34,0003-00-0007-33.png,0005-00-0007-38.png
9,741,0,1444667733166,1444667734911,913,332,0,0,0,3,2,1,32,0003-00-0003-79.png,0002-00-0001-36.png
9,742,1,1444667734957,1444667735214,958,336,0,0,0,2,1,1,21,0002-00-0006-60.png,0004-00-0003-02.png
9,743,1,1444667735245,1444667735728,906,461,0,0,0,5,4,1,54,0001-00-0003-05.png,0005-00-0005-30.png
9,744,0,1444667735759,1444667735963,886,370,0,0,0,5,4,1,54,0001-00-0001-92.png,0005-00-0003-05.png
9,745,1,1444667736002,1444667736748,904,460,0,0,0,2,1,1,21,0002-00-0000-43.png,0004-00-0004-91.png
9,746,0,1444667736771,1444667737824,903,419,0,0,0,3,2,1,32,0003-00-0001-44.png,0002-00-0006-87.png
9,747,1,1444667737844,1444667737909,862,269,0,0,0,1,2,1,12,0004-00-0006-93.png,0002-00-0004-56.png
9,748,1,1444667737947,1444667737976,912,361,0,0,0,2,3,1,23,0002-00-0008-05.png,0003-00-0004-31.png
9,749,0,1444667737995,1444667738150,923,355,0,0,0,5,4,1,54,0001-00-0000-53.png,0005-00-0001-81.png
9,750,0,1444667738170,1444667738221,872,436,0,0,0,4,3,1,43,0005-00-0004-04.png,0003-00-0002-75.png
9,751,0,1444667738255,1444667738343,990,358,0,0,0,3,4,1,34,0003-00-0009-33.png,0005-00-0009-52.png
9,752,1,1444667738370,1444667738845,388,395,0,0,0,5,4,1,54,0001-00-0003-95.png,0005-00-0000-35.png
9,753,1,1444667738868,1444667739357,902,334,0,0,0,2,1,1,21,0002-00-0001-34.png,0004-00-0001-73.png
9,754,1,1444667739392,1444667739417,884,411,0,0,0,1,2,1,12,0004-00-0009-92.png,0002-00-0000-49.png
9,755,1,1444667739442,1444667739725,961,348,0,0,0,3,2,1,32,0003-00-0004-29.png,0002-00-0005-02.png
9,756,1,1444667739741,1444667740864,1013,279,0,0,0,5,4,1,54,0001-00-0004-27.png,0005-00-0006-04.png
9,757,1,1444667740886,1444667741435,927,468,0,0,0,2,3,1,23,0002-00-0001-11.png,0003-00-0004-60.png
9,758,0,1444667741466,1444667742114,446,316,0,0,0,3,4,1,34,0003-00-0003-92.png,0005-00-0001-43.png
9,759,1,1444667742146,1444667742247,1020,302,0,0,0,5,4,1,54,0001-00-0000-32.png,0005-00-0003-10.png
9,760,1,1444667742269,1444667742901,350,377,0,0,0,4,3,1,43,0005-00-0008-56.png,0003-00-0001-95.png
9,761,0,1444667742939,1444667743278,911,437,0,0,0,1,2,1,12,0004-00-0003-97.png,0002-00-0004-31.png
9,762,1,1444667743322,1444667744714,903,436,0,0,0,5,4,1,54,0001-00-0007-27.png,0005-00-0008-72.png
9,763,1,1444667744742,1444667745104,868,454,0,0,0,4,3,1,43,0005-00-0000-80.png,0003-00-0009-61.png
9,764,0,1444667745133,1444667746345,422,427,0,0,0,3,2,1,32,0003-00-0001-44.png,0002-00-0001-93.png
9,765,0,1444667746372,1444667746498,1012,315,0,0,0,2,1,1,21,0002-00-0004-13.png,0004-00-0009-46.png
9,766,0,1444667746540,1444667747147,486,233,0,0,0,5,4,1,54,0001-00-0007-87.png,0005-00-0001-59.png
9,767,0,1444667747179,1444667747201,1041,267,0,0,0,3,4,1,34,0003-00-0006-86.png,0005-00-0004-13.png
9,768,0,1444667747241,1444667747452,464,259,0,0,0,2,3,1,23,0002-00-0009-76.png,0003-00-0008-46.png
9,769,0,1444667747484,1444667747547,469,233,0,0,0,2,1,1,21,0002-00-0000-91.png,0004-00-0003-76.png
9,770,1,1444667747576,1444667747630,346,441,0,0,0,5,4,1,54,0001-00-0006-89.png,0005-00-0005-50.png
9,771,0,1444667747652,1444667747749,389,350,0,0,0,4,3,1,43,0005-00-0004-73.png,0003-00-0006-08.png
9,772,1,1444667747776,1444667747992,914,321,0,0,0,5,4,1,54,0001-00-0003-77.png,0005-00-0004-90.png
9,773,1,1444667748015,1444667748088,984,394,0,0,0,3,4,1,34,0003-00-0006-75.png,0005-00-0001-93.png
9,774,0,1444667748113,1444667748694,929,549,0,0,0,2,3,1,23,0002-00-0009-97.png,0003-00-0007-56.png
9,775,1,1444667748720,1444667749145,901,418,0,0,0,1,2,1,12,0004-00-0009-57.png,0002-00-0002-68.png
9,776,1,1444667749166,1444667750739,872,420,0,0,0,3,2,1,32,0003-00-0008-24.png,0002-00-0004-51.png
9,777,0,1444667750777,1444667750932,962,389,0,0,0,3,4,1,34,0003-00-0000-46.png,0005-00-0002-71.png
9,778,0,1444667750951,1444667751588,922,352,0,0,0,5,4,1,54,0001-00-0000-99.png,0005-00-0003-10.png
9,779,1,1444667751613,1444667752149,1059,340,0,0,0,4,3,1,43,0005-00-0006-14.png,0003-00-0004-06.png
9,780,1,1444667752178,1444667752233,879,413,0,0,0,2,1,1,21,0002-00-0006-79.png,0004-00-0000-92.png
9,781,1,1444667752264,1444667753145,462,251,0,0,0,1,2,1,12,0004-00-0003-87.png,0002-00-0007-78.png
9,782,1,1444667753174,1444667753446,933,341,0,0,0,3,2,1,32,0003-00-0008-71.png,0002-00-0003-69.png
9,783,0,1444667753465,1444667753654,465,267,0,0,0,5,4,1,54,0001-00-0006-16.png,0005-00-0004-64.png
9,784,1,1444667753692,1444667755065,493,224,0,0,0,2,3,1,23,0002-00-0007-24.png,0003-00-0000-66.png
9,785,1,1444667755087,1444667755621,1056,246,0,0,0,5,4,1,54,0001-00-0001-11.png,0005-00-0008-14.png
9,786,0,1444667755651,1444667756775,879,358,0,0,0,4,3,1,43,0005-00-0007-61.png,0003-00-0003-37.png
9,787,1,1444667756807,1444667758178,898,357,0,0,0,1,2,1,12,0004-00-0008-32.png,0002-00-0000-54.png
9,788,1,1444667758205,1444667758504,880,390,0,0,0,2,3,1,23,0002-00-0004-15.png,0003-00-0009-34.png
9,789,1,1444667758523,1444667758569,440,271,0,0,0,2,1,1,21,0002-00-0001-20.png,0004-00-0009-46.png
9,790,0,1444667758589,1444667760334,422,297,0,0,0,3,4,1,34,0003-00-0004-48.png,0005-00-0006-36.png
9,791,1,1444667760375,1444667760502,469,243,0,0,0,5,4,1,54,0001-00-0002-48.png,0005-00-0007-51.png
9,792,0,1444667760525,1444667760955,858,379,0,0,0,3,2,1,32,0003-00-0008-15.png,0002-00-0007-06.png
9,793,0,1444667760985,1444667761166,862,320,0,0,0,3,2,1,32,0003-00-0005-36.png,0002-00-0003-16.png
9,794,0,1444667761185,1444667761509,862,358,0,0,0,1,2,1,12,0004-00-0000-29.png,0002-00-0005-93.png
9,795,1,1444667761537,1444667761736,967,342,0,0,0,2,1,1,21,0002-00-0007-54.png,0004-00-0005-18.png
9,796,0,1444667761766,1444667761775,916,327,0,0,0,3,4,1,34,0003-00-0007-87.png,0005-00-0002-68.png
9,797,1,1444667761806,1444667761940,384,296,0,0,0,2,3,1,23,0002-00-0004-18.png,0003-00-0008-22.png
9,798,0,1444667761957,1444667763084,462,269,0,0,0,5,4,1,54,0001-00-0006-09.png,0005-00-0005-59.png
9,799,1,1444667763104,1444667763457,1039,299,0,0,0,5,4,1,54,0001-00-0002-15.png,0005-00-0002-87.png
9,800,0,1444667763476,1444667764605,909,533,0,0,0,4,3,1,43,0005-00-0004-41.png,0003-00-0003-84.png
9,801,1,1444667764634,1444667765777,883,407,0,0,0,3,4,1,34,0003-00-0006-55.png,0005-00-0002-29.png
9,802,0,1444667765807,1444667765849,913,328,0,0,0,4,3,1,43,0005-00-0007-65.png,0003-00-0009-42.png
9,803,1,1444667765873,1444667767303,435,237,0,0,0,5,4,1,54,0001-00-0006-52.png,0005-00-0008-06.png
9,804,0,1444667767334,1444667767601,460,277,0,0,0,1,2,1,12,0004-00-0003-87.png,0002-00-0006-36.png
9,805,1,1444667767626,1444667768312,871,411,0,0,0,3,2,1,32,0003-00-0005-50.png,0002-00-0002-69.png
9,806,0,1444667768336,1444667769232,494,250,0,0,0,5,4,1,54,0001-00-0008-70.png,0005-00-0006-47.png
9,807,0,1444667769254,1444667769692,882,366,0,0,0,2,3,1,23,0002-00-0000-45.png,0003-00-0008-27.png
9,808,1,1444667769718,1444667769820,987,336,0,0,0,2,1,1,21,0002-00-0000-32.png,0004-00-0002-89.png
9,809,0,1444667769840,1444667769948,375,404,0,0,0,3,4,1,34,0003-00-0006-53.png,0005-00-0005-49.png
9,810,0,1444667769974,1444667770054,940,318,0,0,0,3,2,1,32,0003-00-0001-46.png,0002-00-0003-33.png
9,811,1,1444667770081,1444667771638,491,243,0,0,0,2,1,1,21,0002-00-0006-20.png,0004-00-0005-96.png
9,812,1,1444667771665,1444667771993,941,390,0,0,0,5,4,1,54,0001-00-0002-63.png,0005-00-0005-93.png
9,813,1,1444667772035,1444667772266,1044,287,0,0,0,4,3,1,43,0005-00-0002-01.png,0003-00-0005-48.png
9,814,1,1444667772285,1444667776059,891,447,0,0,0,5,4,1,54,0001-00-0003-41.png,0005-00-0000-16.png
9,815,1,1444667776088,1444667776175,888,358,0,0,0,1,2,1,12,0004-00-0006-20.png,0002-00-0009-17.png
9,816,1,1444667776202,1444667776322,470,297,0,0,0,2,3,1,23,0002-00-0004-77.png,0003-00-0000-72.png
9,817,0,1444667776336,1444667776966,939,409,0,0,0,2,3,1,23,0002-00-0007-94.png,0003-00-0001-64.png
9,818,1,1444667776992,1444667777108,869,479,0,0,0,2,1,1,21,0002-00-0007-91.png,0004-00-0005-10.png
9,819,0,1444667777140,1444667777219,482,255,0,0,0,1,2,1,12,0004-00-0002-60.png,0002-00-0009-11.png
9,820,1,1444667777244,1444667777293,499,242,0,0,0,3,2,1,32,0003-00-0000-96.png,0002-00-0002-96.png
9,821,1,1444667777331,1444667777614,886,478,0,0,0,4,3,1,43,0005-00-0007-17.png,0003-00-0004-47.png
9,822,1,1444667777639,1444667778268,1067,264,0,0,0,5,4,1,54,0001-00-0009-95.png,0005-00-0007-37.png
9,823,0,1444667778294,1444667778312,1078,289,0,0,0,5,4,1,54,0001-00-0006-49.png,0005-00-0009-04.png
9,824,0,1444667778334,1444667778570,479,268,0,0,0,3,4,1,34,0003-00-0008-57.png,0005-00-0003-05.png
9,825,1,1444667778600,1444667779821,859,438,0,0,0,4,3,1,43,0005-00-0002-74.png,0003-00-0000-53.png
9,826,0,1444667779845,1444667780141,880,411,0,0,0,3,4,1,34,0003-00-0001-80.png,0005-00-0007-94.png
9,827,1,1444667780165,1444667780731,932,354,0,0,0,1,2,1,12,0004-00-0004-51.png,0002-00-0003-16.png
9,828,1,1444667780769,1444667780938,1032,325,0,0,0,3,2,1,32,0003-00-0002-29.png,0002-00-0007-78.png
9,829,1,1444667780966,1444667781037,897,436,0,0,0,5,4,1,54,0001-00-0007-98.png,0005-00-0001-47.png
9,830,1,1444667781074,1444667781114,460,325,0,0,0,5,4,1,54,0001-00-0000-14.png,0005-00-0000-23.png
9,831,0,1444667781141,1444667783101,885,492,0,0,0,2,3,1,23,0002-00-0007-48.png,0003-00-0008-38.png
9,832,0,1444667783138,1444667785831,909,356,0,0,0,2,1,1,21,0002-00-0008-03.png,0004-00-0003-60.png
9,833,1,1444667785859,1444667786105,867,374,0,0,0,5,4,1,54,0001-00-0006-76.png,0005-00-0006-41.png
9,834,1,1444667786127,1444667786387,444,349,0,0,0,4,3,1,43,0005-00-0003-33.png,0003-00-0007-15.png
9,835,1,1444667786410,1444667787404,884,375,0,0,0,3,4,1,34,0003-00-0009-09.png,0005-00-0003-25.png
9,836,1,1444667787439,1444667789263,478,323,0,0,0,2,1,1,21,0002-00-0008-48.png,0004-00-0006-54.png
9,837,1,1444667789302,1444667790884,1049,261,0,0,0,2,3,1,23,0002-00-0005-00.png,0003-00-0007-02.png
9,838,1,1444667790906,1444667791079,876,489,0,0,0,3,2,1,32,0003-00-0007-63.png,0002-00-0003-39.png
9,839,0,1444667791103,1444667792138,963,350,0,0,0,5,4,1,54,0001-00-0000-14.png,0005-00-0007-12.png
9,840,1,1444667792177,1444667792524,898,390,0,0,0,1,2,1,12,0004-00-0008-48.png,0002-00-0009-77.png
9,841,1,1444667792555,1444667792809,913,358,0,0,0,3,2,1,32,0003-00-0003-34.png,0002-00-0002-23.png
9,842,1,1444667792857,1444667793295,1052,253,0,0,0,2,1,1,21,0002-00-0004-59.png,0004-00-0003-26.png
9,843,1,1444667793328,1444667793660,906,433,0,0,0,4,3,1,43,0005-00-0006-09.png,0003-00-0004-84.png
9,844,1,1444667793688,1444667793746,478,237,0,0,0,2,3,1,23,0002-00-0001-94.png,0003-00-0002-66.png
9,845,1,1444667793777,1444667794096,481,257,0,0,0,5,4,1,54,0001-00-0002-21.png,0005-00-0005-02.png
9,846,1,1444667794129,1444667795347,892,497,0,0,0,5,4,1,54,0001-00-0006-58.png,0005-00-0001-70.png
9,847,0,1444667795366,1444667795680,487,245,0,0,0,1,2,1,12,0004-00-0003-45.png,0002-00-0006-57.png
9,848,1,1444667795706,1444667796194,495,250,0,0,0,3,4,1,34,0003-00-0003-15.png,0005-00-0006-68.png
9,849,1,1444667796230,1444667796638,475,248,0,0,0,3,4,1,34,0003-00-0004-37.png,0005-00-0002-82.png
9,850,0,1444667796673,1444667796958,870,435,0,0,0,2,3,1,23,0002-00-0008-88.png,0003-00-0005-91.png
9,851,0,1444667796982,1444667805061,941,332,0,0,0,5,4,1,54,0001-00-0009-20.png,0005-00-0005-26.png
9,852,0,1444667805087,1444667805806,887,436,0,0,0,5,4,1,54,0001-00-0009-05.png,0005-00-0000-32.png
9,853,0,1444667805836,1444667809532,433,287,0,0,0,1,2,1,12,0004-00-0000-91.png,0002-00-0002-92.png
9,854,1,1444667809556,1444667812040,862,446,0,0,0,4,3,1,43,0005-00-0000-01.png,0003-00-0008-78.png
9,855,1,1444667812060,1444667817539,961,335,0,0,0,3,2,1,32,0003-00-0009-19.png,0002-00-0005-02.png
9,856,1,1444667817596,1444667817842,916,414,0,0,0,2,1,1,21,0002-00-0003-53.png,0004-00-0000-84.png
9,857,0,1444667817883,1444667818161,1083,292,0,0,0,2,3,1,23,0002-00-0008-10.png,0003-00-0003-91.png
9,858,1,1444667818181,1444667818307,431,393,0,0,0,5,4,1,54,0001-00-0001-87.png,0005-00-0005-39.png
9,859,1,1444667818342,1444667818841,1092,276,0,0,0,3,2,1,32,0003-00-0005-75.png,0002-00-0009-99.png
9,860,1,1444667818886,1444667819320,867,355,0,0,0,1,2,1,12,0004-00-0001-13.png,0002-00-0001-97.png
9,861,0,1444667819344,1444667819439,938,360,0,0,0,4,3,1,43,0005-00-0006-55.png,0003-00-0009-92.png
9,862,1,1444667819461,1444667819879,377,368,0,0,0,5,4,1,54,0001-00-0004-55.png,0005-00-0009-46.png
9,863,1,1444667819898,1444667820289,1041,264,0,0,0,2,1,1,21,0002-00-0003-25.png,0004-00-0002-23.png
9,864,1,1444667820318,1444667820590,896,480,0,0,0,3,4,1,34,0003-00-0009-04.png,0005-00-0000-61.png
9,865,1,1444667820618,1444667821604,473,262,0,0,0,5,4,1,54,0001-00-0004-37.png,0005-00-0001-88.png
9,866,1,1444667821622,1444667821669,470,275,0,0,0,5,4,1,54,0001-00-0004-01.png,0005-00-0008-21.png
9,867,1,1444667821694,1444667821848,887,469,0,0,0,1,2,1,12,0004-00-0000-08.png,0002-00-0003-78.png
9,868,1,1444667821881,1444667822518,445,303,0,0,0,4,3,1,43,0005-00-0009-87.png,0003-00-0002-65.png
9,869,1,1444667822541,1444667822735,894,347,0,0,0,3,2,1,32,0003-00-0003-34.png,0002-00-0009-87.png
9,870,0,1444667822762,1444667823514,906,398,0,0,0,2,3,1,23,0002-00-0004-70.png,0003-00-0002-37.png
9,871,1,1444667823556,1444667823670,433,336,0,0,0,3,4,1,34,0003-00-0003-94.png,0005-00-0005-95.png
9,872,1,1444667823688,1444667828222,466,280,0,0,0,2,1,1,21,0002-00-0001-06.png,0004-00-0009-15.png
9,873,1,1444667828253,1444667828357,862,503,0,0,0,5,4,1,54,0001-00-0008-37.png,0005-00-0001-76.png
9,874,1,1444667828381,1444667828479,482,224,0,0,0,3,4,1,34,0003-00-0008-68.png,0005-00-0000-64.png
9,875,1,1444667828512,1444667830407,933,348,0,0,0,5,4,1,54,0001-00-0007-73.png,0005-00-0009-82.png
9,876,1,1444667830430,1444667830469,919,506,0,0,0,1,2,1,12,0004-00-0000-61.png,0002-00-0008-99.png
9,877,1,1444667830492,1444667830674,905,332,0,0,0,4,3,1,43,0005-00-0007-57.png,0003-00-0006-47.png
9,878,1,1444667830693,1444667830846,1066,313,0,0,0,2,3,1,23,0002-00-0009-20.png,0003-00-0006-48.png
9,879,0,1444667830883,1444667831575,915,436,0,0,0,3,2,1,32,0003-00-0005-06.png,0002-00-0005-99.png
9,880,0,1444667831603,1444667832964,966,367,0,0,0,2,1,1,21,0002-00-0005-87.png,0004-00-0000-97.png
9,881,1,1444667832990,1444667833327,1102,298,0,0,0,3,2,1,32,0003-00-0005-71.png,0002-00-0006-03.png
9,882,0,1444667833353,1444667836509,894,371,0,0,0,5,4,1,54,0001-00-0005-97.png,0005-00-0005-20.png
9,883,1,1444667836539,1444667836657,867,429,0,0,0,2,1,1,21,0002-00-0006-32.png,0004-00-0000-49.png
9,884,0,1444667836687,1444667840837,910,386,0,0,0,3,4,1,34,0003-00-0006-60.png,0005-00-0006-52.png
9,885,0,1444667840860,1444667841111,866,384,0,0,0,1,2,1,12,0004-00-0005-59.png,0002-00-0005-95.png
9,886,0,1444667841142,1444667845425,478,296,0,0,0,4,3,1,43,0005-00-0002-42.png,0003-00-0005-55.png
9,887,0,1444667845453,1444667845800,912,324,0,0,0,5,4,1,54,0001-00-0000-75.png,0005-00-0008-09.png
9,888,0,1444667845835,1444667846773,888,436,0,0,0,2,3,1,23,0002-00-0000-27.png,0003-00-0002-05.png
9,889,1,1444667846824,1444667847444,888,348,0,0,0,2,1,1,21,0002-00-0006-48.png,0004-00-0006-99.png
9,890,1,1444667847473,1444667847640,1066,321,0,0,0,3,4,1,34,0003-00-0006-08.png,0005-00-0004-66.png
9,891,1,1444667847671,1444667847831,402,372,0,0,0,5,4,1,54,0001-00-0005-34.png,0005-00-0004-11.png
9,892,0,1444667847871,1444667848012,965,409,0,0,0,4,3,1,43,0005-00-0007-09.png,0003-00-0008-76.png
9,893,0,1444667848049,1444667848118,447,262,0,0,0,3,2,1,32,0003-00-0002-79.png,0002-00-0008-83.png
9,894,0,1444667848158,1444667848281,937,342,0,0,0,5,4,1,54,0001-00-0007-57.png,0005-00-0005-11.png
9,895,1,1444667848311,1444667848560,1067,266,0,0,0,2,3,1,23,0002-00-0006-73.png,0003-00-0009-95.png
9,896,1,1444667848577,1444667849128,903,410,0,0,0,1,2,1,12,0004-00-0005-38.png,0002-00-0008-52.png
9,897,1,1444667849158,1444667852831,406,304,0,0,0,4,3,1,43,0005-00-0000-86.png,0003-00-0007-79.png
9,898,1,1444667852868,1444667858317,926,554,0,0,0,3,2,1,32,0003-00-0000-73.png,0002-00-0008-63.png
9,899,1,1444667858349,1444667858680,964,358,0,0,0,2,3,1,23,0002-00-0006-02.png,0003-00-0005-96.png
9,900,1,1444667858727,1444667858788,470,274,0,0,0,2,1,1,21,0002-00-0002-38.png,0004-00-0001-92.png
9,901,1,1444667858819,1444667858940,935,353,0,0,0,5,4,1,54,0001-00-0006-83.png,0005-00-0002-61.png
9,902,0,1444667858970,1444667859636,1061,285,0,0,0,1,2,1,12,0004-00-0006-33.png,0002-00-0003-79.png
9,903,0,1444667859654,1444667860052,1064,265,0,0,0,5,4,1,54,0001-00-0009-30.png,0005-00-0009-30.png
9,904,1,1444667860079,1444667860868,938,417,0,0,0,3,4,1,34,0003-00-0006-84.png,0005-00-0004-01.png
9,905,1,1444667860903,1444667861088,867,358,0,0,0,5,4,1,54,0001-00-0000-02.png,0005-00-0008-53.png
9,906,0,1444667861112,1444667861952,383,382,0,0,0,2,3,1,23,0002-00-0007-23.png,0003-00-0008-16.png
9,907,0,1444667861983,1444667862190,899,354,0,0,0,3,4,1,34,0003-00-0009-87.png,0005-00-0001-76.png
9,908,0,1444667862211,1444667862522,950,518,0,0,0,1,2,1,12,0004-00-0008-46.png,0002-00-0002-74.png
9,909,0,1444667862548,1444667864361,933,344,0,0,0,3,2,1,32,0003-00-0004-05.png,0002-00-0002-04.png
9,910,1,1444667864392,1444667864456,1068,303,0,0,0,2,1,1,21,0002-00-0008-79.png,0004-00-0004-34.png
9,911,1,1444667864488,1444667866050,916,366,0,0,0,5,4,1,54,0001-00-0003-86.png,0005-00-0002-49.png
9,912,1,1444667866074,1444667866499,860,439,0,0,0,4,3,1,43,0005-00-0006-75.png,0003-00-0008-36.png
9,913,1,1444667866521,1444667867242,385,395,0,0,0,2,1,1,21,0002-00-0006-60.png,0004-00-0007-35.png
9,914,0,1444667867270,1444667868051,495,260,0,0,0,5,4,1,54,0001-00-0001-71.png,0005-00-0003-17.png
9,915,1,1444667868080,1444667868679,1092,272,0,0,0,1,2,1,12,0004-00-0000-53.png,0002-00-0004-66.png
9,916,1,1444667868707,1444667868769,990,474,0,0,0,5,4,1,54,0001-00-0008-84.png,0005-00-0005-17.png
9,917,0,1444667868791,1444667869414,1045,281,0,0,0,3,4,1,34,0003-00-0002-74.png,0005-00-0002-68.png
9,918,0,1444667869460,1444667871801,1060,294,0,0,0,4,3,1,43,0005-00-0004-15.png,0003-00-0007-98.png
9,919,1,1444667871834,1444667871904,962,485,0,0,0,2,3,1,23,0002-00-0008-86.png,0003-00-0007-55.png
9,920,1,1444667871932,1444667872129,1028,313,0,0,0,3,2,1,32,0003-00-0004-12.png,0002-00-0005-84.png
9,921,0,1444667872161,1444667872308,434,275,0,0,0,2,1,1,21,0002-00-0007-81.png,0004-00-0007-12.png
9,922,0,1444667872359,1444667872422,386,405,0,0,0,3,2,1,32,0003-00-0002-51.png,0002-00-0001-11.png
9,923,0,1444667872443,1444667872630,879,443,0,0,0,1,2,1,12,0004-00-0007-54.png,0002-00-0009-01.png
9,924,1,1444667872674,1444667872733,913,332,0,0,0,5,4,1,54,0001-00-0001-10.png,0005-00-0007-67.png
9,925,1,1444667872757,1444667872820,939,366,0,0,0,2,3,1,23,0002-00-0001-57.png,0003-00-0002-83.png
9,926,1,1444667872856,1444667872986,898,338,0,0,0,4,3,1,43,0005-00-0000-83.png,0003-00-0007-67.png
9,927,1,1444667873034,1444667873632,1041,279,0,0,0,3,4,1,34,0003-00-0004-18.png,0005-00-0005-43.png
9,928,1,1444667873654,1444667874908,880,444,0,0,0,5,4,1,54,0001-00-0005-67.png,0005-00-0004-81.png
9,929,1,1444667874927,1444667875874,864,426,0,0,0,4,3,1,43,0005-00-0006-95.png,0003-00-0006-98.png
9,930,1,1444667875930,1444667876382,894,358,0,0,0,3,2,1,32,0003-00-0003-06.png,0002-00-0002-30.png
9,931,1,1444667876425,1444667876714,468,233,0,0,0,5,4,1,54,0001-00-0003-51.png,0005-00-0005-02.png
9,932,0,1444667876757,1444667876801,483,236,0,0,0,2,1,1,21,0002-00-0007-06.png,0004-00-0005-44.png
9,933,1,1444667876830,1444667876944,888,436,0,0,0,5,4,1,54,0001-00-0001-97.png,0005-00-0001-75.png
9,934,0,1444667876987,1444667877235,859,390,0,0,0,2,3,1,23,0002-00-0000-72.png,0003-00-0009-03.png
9,935,1,1444667877256,1444667878963,863,425,0,0,0,3,4,1,34,0003-00-0007-04.png,0005-00-0005-47.png
9,936,0,1444667878993,1444667881426,1092,292,0,0,0,1,2,1,12,0004-00-0004-15.png,0002-00-0004-47.png
9,937,1,1444667881466,1444667881725,867,397,0,0,0,4,3,1,43,0005-00-0009-83.png,0003-00-0005-51.png
9,938,1,1444667881751,1444667881829,492,278,0,0,0,5,4,1,54,0001-00-0006-74.png,0005-00-0005-00.png
9,939,1,1444667881869,1444667883285,872,466,0,0,0,3,2,1,32,0003-00-0006-83.png,0002-00-0001-62.png
9,940,1,1444667883331,1444667883805,868,407,0,0,0,2,1,1,21,0002-00-0005-55.png,0004-00-0001-84.png
9,941,1,1444667883828,1444667884162,486,253,0,0,0,5,4,1,54,0001-00-0001-02.png,0005-00-0004-46.png
9,942,1,1444667884191,1444667884827,1067,279,0,0,0,3,4,1,34,0003-00-0006-42.png,0005-00-0008-31.png
9,943,0,1444667884859,1444667887714,488,265,0,0,0,2,3,1,23,0002-00-0007-78.png,0003-00-0006-41.png
9,944,1,1444667887762,1444667888011,1097,263,0,0,0,1,2,1,12,0004-00-0006-70.png,0002-00-0003-14.png
9,945,0,1444667888048,1444667888202,1072,281,0,0,0,1,2,1,12,0004-00-0002-33.png,0002-00-0005-07.png
9,946,0,1444667888230,1444667893714,865,400,0,0,0,4,3,1,43,0005-00-0007-16.png,0003-00-0007-85.png
9,947,0,1444667893741,1444667894620,862,384,0,0,0,3,2,1,32,0003-00-0003-42.png,0002-00-0003-70.png
9,948,0,1444667894652,1444667895310,1067,294,0,0,0,5,4,1,54,0001-00-0003-10.png,0005-00-0005-44.png
9,949,1,1444667895337,1444667895346,389,380,0,0,0,2,3,1,23,0002-00-0002-75.png,0003-00-0006-43.png
9,950,0,1444667895373,1444667896391,440,290,0,0,0,2,1,1,21,0002-00-0000-99.png,0004-00-0004-83.png
9,951,1,1444667896418,1444667897235,461,326,0,0,0,3,4,1,34,0003-00-0009-45.png,0005-00-0008-74.png
9,952,0,1444667897261,1444667897947,862,370,0,0,0,5,4,1,54,0001-00-0006-98.png,0005-00-0003-25.png
9,953,0,1444667897988,1444667898156,470,288,0,0,0,3,4,1,34,0003-00-0000-77.png,0005-00-0004-92.png
9,954,1,1444667898181,1444667900766,442,269,0,0,0,5,4,1,54,0001-00-0002-74.png,0005-00-0006-52.png
9,955,0,1444667900804,1444667901723,899,415,0,0,0,1,2,1,12,0004-00-0001-36.png,0002-00-0004-55.png
9,956,0,1444667901755,1444667902930,879,480,0,0,0,5,4,1,54,0001-00-0004-87.png,0005-00-0001-81.png
9,957,0,1444667902957,1444667903503,879,396,0,0,0,2,1,1,21,0002-00-0006-23.png,0004-00-0006-44.png
9,958,0,1444667903528,1444667903633,862,416,0,0,0,3,2,1,32,0003-00-0003-83.png,0002-00-0007-66.png
9,959,1,1444667903660,1444667903745,903,350,0,0,0,4,3,1,43,0005-00-0007-22.png,0003-00-0003-36.png
9,960,1,1444667903769,1444667903915,891,406,0,0,0,2,3,1,23,0002-00-0001-92.png,0003-00-0002-86.png
9,961,0,1444667903939,1444667903966,938,357,0,0,0,1,2,1,12,0004-00-0000-88.png,0002-00-0004-00.png
9,962,0,1444667904003,1444667904263,864,393,0,0,0,4,3,1,43,0005-00-0005-01.png,0003-00-0008-63.png
9,963,0,1444667904285,1444667904464,465,278,0,0,0,3,4,1,34,0003-00-0008-42.png,0005-00-0007-75.png
9,964,1,1444667904497,1444667904589,1072,269,0,0,0,2,1,1,21,0002-00-0003-03.png,0004-00-0006-14.png
9,965,1,1444667904612,1444667904901,903,488,0,0,0,5,4,1,54,0001-00-0003-72.png,0005-00-0002-07.png
9,966,0,1444667904936,1444667906503,897,361,0,0,0,2,3,1,23,0002-00-0006-24.png,0003-00-0005-42.png
9,967,0,1444667906530,1444667906725,1067,333,0,0,0,3,2,1,32,0003-00-0000-25.png,0002-00-0001-73.png
9,968,0,1444667906766,1444667910449,441,279,0,0,0,5,4,1,54,0001-00-0008-88.png,0005-00-0001-51.png
9,969,0,1444667910486,1444667910720,454,260,0,0,0,2,3,1,23,0002-00-0003-52.png,0003-00-0006-00.png
9,970,1,1444667910764,1444667910971,931,348,0,0,0,3,2,1,32,0003-00-0002-37.png,0002-00-0000-48.png
9,971,0,1444667910998,1444667911168,930,548,0,0,0,4,3,1,43,0005-00-0009-52.png,0003-00-0008-50.png
9,972,0,1444667911202,1444667911414,919,366,0,0,0,2,1,1,21,0002-00-0000-09.png,0004-00-0007-45.png
9,973,1,1444667911445,1444667912300,441,265,0,0,0,1,2,1,12,0004-00-0000-19.png,0002-00-0004-14.png
9,974,0,1444667912328,1444667913560,483,277,0,0,0,5,4,1,54,0001-00-0001-83.png,0005-00-0004-59.png
9,975,1,1444667913581,1444667913809,473,262,0,0,0,5,4,1,54,0001-00-0004-20.png,0005-00-0003-51.png
9,976,1,1444667913839,1444667914677,862,342,0,0,0,3,4,1,34,0003-00-0009-90.png,0005-00-0009-53.png
9,977,0,1444667914703,1444667918432,862,410,0,0,0,2,1,1,21,0002-00-0002-60.png,0004-00-0007-98.png
9,978,1,1444667918472,1444667918531,862,384,0,0,0,4,3,1,43,0005-00-0005-40.png,0003-00-0000-21.png
9,979,0,1444667918554,1444667918696,1037,335,0,0,0,5,4,1,54,0001-00-0009-02.png,0005-00-0006-58.png
9,980,0,1444667918721,1444667919009,893,426,0,0,0,3,4,1,34,0003-00-0008-37.png,0005-00-0003-51.png
9,981,0,1444667919034,1444667919393,888,358,0,0,0,1,2,1,12,0004-00-0001-28.png,0002-00-0008-31.png
9,982,0,1444667919421,1444667919593,865,410,0,0,0,2,3,1,23,0002-00-0006-82.png,0003-00-0007-84.png
9,983,1,1444667919620,1444667919671,469,247,0,0,0,3,2,1,32,0003-00-0004-17.png,0002-00-0006-47.png
9,984,1,1444667919692,1444667921699,950,332,0,0,0,5,4,1,54,0001-00-0008-56.png,0005-00-0003-94.png
9,985,1,1444667921730,1444667923020,937,431,0,0,0,2,1,1,21,0002-00-0007-52.png,0004-00-0002-71.png
9,986,1,1444667923052,1444667923417,863,363,0,0,0,4,3,1,43,0005-00-0005-11.png,0003-00-0000-30.png
9,987,1,1444667923451,1444667923480,867,401,0,0,0,3,2,1,32,0003-00-0008-96.png,0002-00-0005-72.png
9,988,0,1444667923526,1444667924063,453,293,0,0,0,1,2,1,12,0004-00-0008-21.png,0002-00-0007-98.png
9,989,0,1444667924084,1444667924942,943,337,0,0,0,3,4,1,34,0003-00-0009-47.png,0005-00-0004-79.png
9,990,1,1444667924971,1444667930072,866,315,0,0,0,5,4,1,54,0001-00-0002-65.png,0005-00-0000-71.png
9,991,0,1444667930095,1444667930200,1024,278,0,0,0,5,4,1,54,0001-00-0002-15.png,0005-00-0001-58.png
9,992,1,1444667930230,1444667930261,873,427,0,0,0,2,3,1,23,0002-00-0008-71.png,0003-00-0001-32.png
9,993,1,1444667930278,1444667930558,926,357,0,0,0,5,4,1,54,0001-00-0000-14.png,0005-00-0001-86.png
9,994,0,1444667930584,1444667930657,896,458,0,0,0,2,3,1,23,0002-00-0003-20.png,0003-00-0003-74.png
9,995,1,1444667930700,1444667930803,872,437,0,0,0,2,1,1,21,0002-00-0007-70.png,0004-00-0009-27.png
9,996,1,1444667930830,1444667930836,921,362,0,0,0,1,2,1,12,0004-00-0000-80.png,0002-00-0005-50.png
9,997,1,1444667930870,1444667931315,923,441,0,0,0,3,4,1,34,0003-00-0000-40.png,0005-00-0001-57.png
