subject_id,trial,correct_response,stim_time,response_time,x_coord,y_coord,trial_timeout,timeout_time,interTrial_timeout,left_rank,right_rank,distance,joint_rank,left_image,right_image
9,1,0,1444230420032,1444230420427,1056,362,0,0,0,3,4,1,34,0003-00-0007-13.png,0005-00-0004-36.png
9,2,1,1444230420450,1444230420533,366,380,0,0,0,5,4,1,54,0001-00-0000-98.png,0005-00-0004-61.png
9,3,1,1444230420580,1444230423204,401,303,0,0,0,2,1,1,21,0002-00-0001-84.png,0004-00-0002-00.png
9,4,0,1444230423226,1444230423242,1045,268,0,0,0,4,3,1,43,0005-00-0002-54.png,0003-00-0004-60.png
9,5,1,1444230423269,1444230424508,347,409,0,0,0,2,3,1,23,0002-00-0000-22.png,0003-00-0002-35.png
9,6,0,1444230424528,1444230425091,862,436,0,0,0,3,2,1,32,0003-00-0001-92.png,0002-00-0007-88.png
9,7,1,1444230425129,1444230425814,862,410,0,0,0,1,2,1,12,0004-00-0009-12.png,0002-00-0007-56.png
9,8,0,1444230425837,1444230426037,897,322,0,0,0,5,4,1,54,0001-00-0009-30.png,0005-00-0005-40.png
9,9,1,1444230426062,1444230426283,990,531,0,0,0,4,3,1,43,0005-00-0008-52.png,0003-00-0002-09.png
9,10,1,1444230426318,1444230426773,400,411,0,0,0,5,4,1,54,0001-00-0000-80.png,0005-00-0009-79.png
9,11,1,1444230426814,1444230427037,865,461,0,0,0,2,3,1,23,0002-00-0008-00.png,0003-00-0006-03.png
9,12,0,1444230427061,1444230427086,340,413,0,0,0,5,4,1,54,0001-00-0003-73.png,0005-00-0008-74.png
9,13,1,1444230427120,1444230427130,888,242,0,0,0,3,2,1,32,0003-00-0005-53.png,0002-00-0001-32.png
9,14,1,1444230427173,1444230427176,918,396,0,0,0,2,1,1,21,0002-00-0002-47.png,0004-00-0007-57.png
9,15,1,1444230427208,1444230427322,379,303,0,0,0,1,2,1,12,0004-00-0007-93.png,0002-00-0008-65.png
9,16,1,1444230427356,1444230427483,1012,355,0,0,0,3,4,1,34,0003-00-0000-84.png,0005-00-0007-00.png
9,17,1,1444230427506,1444230427661,1009,311,0,0,0,1,2,1,12,0004-00-0001-60.png,0002-00-0007-28.png
9,18,1,1444230427691,1444230427744,934,384,0,0,0,5,4,1,54,0001-00-0009-75.png,0005-00-0003-39.png
9,19,0,1444230427776,1444230439510,417,300,0,0,0,2,1,1,21,0002-00-0005-05.png,0004-00-0003-22.png
9,20,1,1444230439537,1444230440299,994,320,0,0,0,2,3,1,23,0002-00-0003-26.png,0003-00-0001-75.png
9,21,1,1444230440324,1444230440725,986,393,0,0,0,4,3,1,43,0005-00-0009-82.png,0003-00-0007-27.png
9,22,1,1444230440746,1444230441197,351,331,0,0,0,3,4,1,34,0003-00-0009-77.png,0005-00-0000-81.png
9,23,1,1444230441234,1444230441267,509,262,0,0,0,3,2,1,32,0003-00-0009-62.png,0002-00-0000-18.png
9,24,1,1444230441302,1444230441650,1071,341,0,0,0,5,4,1,54,0001-00-0002-96.png,0005-00-0005-81.png
9,25,0,1444230441690,1444230443557,911,432,0,0,0,5,4,1,54,0001-00-0009-21.png,0005-00-0006-09.png
9,26,0,1444230443583,1444230448134,911,481,0,0,0,2,3,1,23,0002-00-0007-55.png,0003-00-0003-28.png
9,27,0,1444230448159,1444230448210,437,305,0,0,0,3,2,1,32,0003-00-0008-88.png,0002-00-0000-20.png
9,28,0,1444230448237,1444230448266,422,366,0,0,0,5,4,1,54,0001-00-0008-99.png,0005-00-0002-76.png
9,29,0,1444230448282,1444230449438,337,422,0,0,0,4,3,1,43,0005-00-0004-33.png,0003-00-0000-26.png
9,30,1,1444230449461,1444230449556,916,383,0,0,0,1,2,1,12,0004-00-0008-34.png,0002-00-0006-72.png
9,31,1,1444230449599,1444230449698,355,400,0,0,0,3,4,1,34,0003-00-0004-87.png,0005-00-0006-24.png
9,32,1,1444230449734,1444230450815,1017,299,0,0,0,2,1,1,21,0002-00-0009-48.png,0004-00-0009-74.png
9,33,0,1444230450840,1444230451201,391,271,0,0,0,2,3,1,23,0002-00-0002-45.png,0003-00-0000-76.png
9,34,0,1444230451225,1444230455411,365,413,0,0,0,2,1,1,21,0002-00-0001-27.png,0004-00-0009-38.png
9,35,1,1444230455434,1444230455792,996,322,0,0,0,5,4,1,54,0001-00-0001-52.png,0005-00-0009-97.png
9,36,0,1444230455825,1444230455907,948,427,0,0,0,3,2,1,32,0003-00-0006-31.png,0002-00-0005-65.png
9,37,1,1444230455926,1444230456089,865,458,0,0,0,3,4,1,34,0003-00-0000-26.png,0005-00-0004-21.png
9,38,1,1444230456114,1444230457950,386,457,0,0,0,5,4,1,54,0001-00-0002-88.png,0005-00-0002-48.png
9,39,1,1444230457992,1444230458658,927,357,0,0,0,4,3,1,43,0005-00-0001-67.png,0003-00-0006-79.png
9,40,1,1444230458687,1444230458844,887,515,0,0,0,1,2,1,12,0004-00-0002-62.png,0002-00-0004-83.png
9,41,1,1444230458861,1444230459542,857,337,0,0,0,4,3,1,43,0005-00-0007-17.png,0003-00-0007-83.png
9,42,0,1444230459563,1444230459697,407,285,0,0,0,3,2,1,32,0003-00-0007-33.png,0002-00-0002-83.png
9,43,0,1444230459723,1444230459925,918,373,0,0,0,1,2,1,12,0004-00-0002-52.png,0002-00-0007-46.png
9,44,0,1444230459952,1444230460772,439,304,0,0,0,3,4,1,34,0003-00-0007-89.png,0005-00-0004-26.png
9,45,0,1444230460799,1444230461102,867,554,0,0,0,5,4,1,54,0001-00-0005-97.png,0005-00-0001-67.png
9,46,0,1444230461126,1444230461784,333,388,0,0,0,2,1,1,21,0002-00-0001-23.png,0004-00-0008-09.png
9,47,1,1444230461813,1444230461845,380,290,0,0,0,5,4,1,54,0001-00-0004-29.png,0005-00-0009-94.png
9,48,1,1444230461878,1444230462448,988,378,0,0,0,2,3,1,23,0002-00-0007-09.png,0003-00-0007-45.png
9,49,1,1444230462476,1444230462584,912,372,0,0,0,2,3,1,23,0002-00-0004-66.png,0003-00-0009-54.png
9,50,0,1444230462609,1444230463242,406,273,0,0,0,2,1,1,21,0002-00-0009-56.png,0004-00-0008-64.png
9,51,0,1444230463281,1444230463332,918,372,0,0,0,5,4,1,54,0001-00-0009-08.png,0005-00-0007-73.png
9,52,0,1444230463352,1444230464072,410,300,0,0,0,3,4,1,34,0003-00-0007-81.png,0005-00-0007-45.png
9,53,1,1444230464110,1444230464219,1000,307,0,0,0,4,3,1,43,0005-00-0009-15.png,0003-00-0004-00.png
9,54,0,1444230464242,1444230464378,348,424,0,0,0,1,2,1,12,0004-00-0008-34.png,0002-00-0002-34.png
9,55,0,1444230464412,1444230466897,938,378,0,0,0,3,2,1,32,0003-00-0003-81.png,0002-00-0006-80.png
9,56,0,1444230466920,1444230469963,893,487,0,0,0,5,4,1,54,0001-00-0000-65.png,0005-00-0004-39.png
9,57,0,1444230469991,1444230470248,864,362,0,0,0,4,3,1,43,0005-00-0002-23.png,0003-00-0002-11.png
9,58,1,1444230470276,1444230473009,901,385,0,0,0,2,1,1,21,0002-00-0003-12.png,0004-00-0005-34.png
9,59,1,1444230473036,1444230473818,873,464,0,0,0,5,4,1,54,0001-00-0005-35.png,0005-00-0000-31.png
9,60,1,1444230473846,1444230474324,335,388,0,0,0,5,4,1,54,0001-00-0004-55.png,0005-00-0004-52.png
9,61,1,1444230474359,1444230474437,329,398,0,0,0,3,4,1,34,0003-00-0003-42.png,0005-00-0004-32.png
9,62,1,1444230474469,1444230475067,924,357,0,0,0,3,2,1,32,0003-00-0008-93.png,0002-00-0008-69.png
9,63,1,1444230475099,1444230475165,884,458,0,0,0,1,2,1,12,0004-00-0008-17.png,0002-00-0002-27.png
9,64,0,1444230475218,1444230475487,364,405,0,0,0,2,3,1,23,0002-00-0000-11.png,0003-00-0002-26.png
9,65,1,1444230475507,1444230475744,1038,304,0,0,0,3,2,1,32,0003-00-0002-31.png,0002-00-0008-05.png
9,66,0,1444230475777,1444230476141,421,254,0,0,0,4,3,1,43,0005-00-0000-58.png,0003-00-0008-85.png
9,67,0,1444230476168,1444230482962,925,371,0,0,0,5,4,1,54,0001-00-0008-40.png,0005-00-0004-14.png
9,68,1,1444230482985,1444230483219,888,448,0,0,0,2,3,1,23,0002-00-0003-89.png,0003-00-0005-13.png
9,69,1,1444230483259,1444230483318,872,446,0,0,0,2,1,1,21,0002-00-0000-49.png,0004-00-0008-68.png
9,70,0,1444230483359,1444230483431,368,431,0,0,0,3,4,1,34,0003-00-0009-72.png,0005-00-0006-30.png
9,71,1,1444230483471,1444230484413,918,356,0,0,0,1,2,1,12,0004-00-0006-21.png,0002-00-0007-89.png
9,72,1,1444230484443,1444230484684,418,292,0,0,0,5,4,1,54,0001-00-0008-67.png,0005-00-0003-70.png
9,73,1,1444230484715,1444230484998,935,378,0,0,0,3,2,1,32,0003-00-0003-79.png,0002-00-0003-08.png
9,74,0,1444230485027,1444230485345,873,408,0,0,0,2,3,1,23,0002-00-0007-67.png,0003-00-0008-79.png
9,75,1,1444230485374,1444230487044,906,339,0,0,0,1,2,1,12,0004-00-0000-00.png,0002-00-0008-67.png
9,76,0,1444230487072,1444230488192,860,407,0,0,0,3,4,1,34,0003-00-0005-58.png,0005-00-0006-30.png
9,77,1,1444230488223,1444230488304,858,464,0,0,0,4,3,1,43,0005-00-0008-89.png,0003-00-0006-35.png
9,78,1,1444230488345,1444230488855,433,251,0,0,0,5,4,1,54,0001-00-0003-25.png,0005-00-0004-26.png
9,79,1,1444230488881,1444230489330,328,388,0,0,0,2,1,1,21,0002-00-0001-69.png,0004-00-0000-76.png
9,80,1,1444230489368,1444230489593,922,350,0,0,0,5,4,1,54,0001-00-0000-22.png,0005-00-0005-61.png
9,81,0,1444230489619,1444230491145,914,350,0,0,0,2,1,1,21,0002-00-0005-44.png,0004-00-0001-93.png
9,82,1,1444230491167,1444230491851,919,352,0,0,0,1,2,1,12,0004-00-0007-77.png,0002-00-0001-37.png
9,83,1,1444230491873,1444230492086,917,383,0,0,0,2,3,1,23,0002-00-0006-87.png,0003-00-0003-87.png
9,84,1,1444230492120,1444230492258,882,322,0,0,0,5,4,1,54,0001-00-0005-12.png,0005-00-0005-80.png
9,85,0,1444230492283,1444230492355,919,418,0,0,0,3,2,1,32,0003-00-0006-21.png,0002-00-0004-11.png
9,86,0,1444230492390,1444230492464,407,279,0,0,0,4,3,1,43,0005-00-0008-99.png,0003-00-0000-16.png
9,87,0,1444230492487,1444230492528,417,265,0,0,0,3,4,1,34,0003-00-0008-44.png,0005-00-0007-03.png
9,88,1,1444230492548,1444230492595,456,247,0,0,0,5,4,1,54,0001-00-0005-07.png,0005-00-0009-28.png
9,89,1,1444230492622,1444230492858,872,514,0,0,0,2,3,1,23,0002-00-0009-25.png,0003-00-0000-72.png
9,90,1,1444230492894,1444230493144,368,363,0,0,0,1,2,1,12,0004-00-0003-36.png,0002-00-0009-73.png
9,91,1,1444230493178,1444230494125,906,446,0,0,0,3,2,1,32,0003-00-0001-23.png,0002-00-0008-56.png
9,92,0,1444230494163,1444230494305,862,410,0,0,0,2,1,1,21,0002-00-0007-46.png,0004-00-0006-47.png
9,93,0,1444230494335,1444230494437,403,300,0,0,0,5,4,1,54,0001-00-0000-44.png,0005-00-0002-71.png
9,94,1,1444230494461,1444230515891,375,397,0,0,0,5,4,1,54,0001-00-0002-50.png,0005-00-0004-93.png
9,95,0,1444230515913,1444230516130,981,552,0,0,0,4,3,1,43,0005-00-0007-50.png,0003-00-0008-53.png
9,96,0,1444230516153,1444230516874,923,359,0,0,0,3,4,1,34,0003-00-0009-48.png,0005-00-0006-55.png
9,97,0,1444230516894,1444230519548,366,375,0,0,0,2,1,1,21,0002-00-0002-50.png,0004-00-0001-71.png
9,98,0,1444230519592,1444230519609,923,377,0,0,0,3,2,1,32,0003-00-0002-62.png,0002-00-0002-92.png
9,99,1,1444230519637,1444230520833,946,485,0,0,0,3,4,1,34,0003-00-0008-61.png,0005-00-0000-71.png
9,100,1,1444230520875,1444230521777,902,357,0,0,0,4,3,1,43,0005-00-0008-91.png,0003-00-0006-10.png
9,101,1,1444230521801,1444230524110,860,463,0,0,0,5,4,1,54,0001-00-0008-15.png,0005-00-0007-56.png
9,102,1,1444230524147,1444230524297,956,354,0,0,0,5,4,1,54,0001-00-0005-52.png,0005-00-0009-30.png
9,103,1,1444230524316,1444230524582,435,294,0,0,0,1,2,1,12,0004-00-0000-27.png,0002-00-0001-09.png
9,104,1,1444230524606,1444230524819,432,270,0,0,0,2,3,1,23,0002-00-0008-19.png,0003-00-0008-91.png
9,105,0,1444230524836,1444230524927,352,378,0,0,0,2,1,1,21,0002-00-0006-09.png,0004-00-0006-08.png
9,106,1,1444230524964,1444230525355,932,395,0,0,0,1,2,1,12,0004-00-0008-07.png,0002-00-0004-84.png
9,107,1,1444230525384,1444230525760,939,444,0,0,0,3,2,1,32,0003-00-0005-20.png,0002-00-0003-49.png
9,108,1,1444230525788,1444230526387,862,488,0,0,0,3,4,1,34,0003-00-0007-01.png,0005-00-0008-99.png
9,109,1,1444230526419,1444230526569,907,346,0,0,0,2,3,1,23,0002-00-0003-48.png,0003-00-0007-41.png
9,110,0,1444230526590,1444230526875,348,379,0,0,0,5,4,1,54,0001-00-0004-02.png,0005-00-0004-54.png
9,111,0,1444230526909,1444230527723,438,277,0,0,0,4,3,1,43,0005-00-0008-39.png,0003-00-0007-39.png
9,112,1,1444230527746,1444230527795,921,320,0,0,0,5,4,1,54,0001-00-0000-91.png,0005-00-0007-58.png
9,113,0,1444230527836,1444230528287,395,459,0,0,0,3,2,1,32,0003-00-0004-94.png,0002-00-0006-91.png
9,114,0,1444230528337,1444230528398,336,393,0,0,0,2,1,1,21,0002-00-0006-14.png,0004-00-0008-71.png
9,115,1,1444230528423,1444230529465,920,377,0,0,0,4,3,1,43,0005-00-0009-95.png,0003-00-0004-90.png
9,116,0,1444230529489,1444230530412,962,336,0,0,0,5,4,1,54,0001-00-0000-39.png,0005-00-0005-12.png
9,117,1,1444230530432,1444230530833,937,344,0,0,0,2,3,1,23,0002-00-0002-95.png,0003-00-0007-94.png
9,118,0,1444230530855,1444230531106,931,441,0,0,0,3,4,1,34,0003-00-0007-81.png,0005-00-0007-44.png
9,119,0,1444230531138,1444230533498,436,277,0,0,0,1,2,1,12,0004-00-0007-33.png,0002-00-0007-92.png
9,120,1,1444230533520,1444230533722,862,320,0,0,0,5,4,1,54,0001-00-0008-99.png,0005-00-0005-86.png
9,121,1,1444230533754,1444230534274,865,363,0,0,0,5,4,1,54,0001-00-0004-22.png,0005-00-0009-26.png
9,122,0,1444230534325,1444230537832,1067,279,0,0,0,2,3,1,23,0002-00-0001-11.png,0003-00-0002-33.png
9,123,1,1444230537852,1444230538697,930,357,0,0,0,5,4,1,54,0001-00-0009-10.png,0005-00-0006-56.png
9,124,0,1444230538718,1444230538733,1046,304,0,0,0,3,4,1,34,0003-00-0007-51.png,0005-00-0009-08.png
9,125,1,1444230538763,1444230539042,958,352,0,0,0,2,1,1,21,0002-00-0006-29.png,0004-00-0000-70.png
9,126,1,1444230539069,1444230539264,859,387,0,0,0,4,3,1,43,0005-00-0006-37.png,0003-00-0006-62.png
9,127,1,1444230539287,1444230539680,877,358,0,0,0,1,2,1,12,0004-00-0000-26.png,0002-00-0008-24.png
9,128,0,1444230539696,1444230539823,378,368,0,0,0,3,2,1,32,0003-00-0006-77.png,0002-00-0002-92.png
9,129,0,1444230539853,1444230539874,361,393,0,0,0,2,1,1,21,0002-00-0009-61.png,0004-00-0003-88.png
9,130,1,1444230539903,1444230544100,872,295,0,0,0,4,3,1,43,0005-00-0006-44.png,0003-00-0006-45.png
9,131,1,1444230544133,1444230545048,894,371,0,0,0,3,4,1,34,0003-00-0008-96.png,0005-00-0001-79.png
9,132,1,1444230545082,1444230545786,888,488,0,0,0,2,3,1,23,0002-00-0008-53.png,0003-00-0004-84.png
9,133,1,1444230545824,1444230546029,463,295,0,0,0,1,2,1,12,0004-00-0001-04.png,0002-00-0008-37.png
9,134,1,1444230546057,1444230546202,1048,312,0,0,0,5,4,1,54,0001-00-0009-98.png,0005-00-0000-94.png
9,135,1,1444230546231,1444230549252,926,475,0,0,0,3,2,1,32,0003-00-0007-59.png,0002-00-0006-09.png
9,136,1,1444230549291,1444230550325,372,400,0,0,0,5,4,1,54,0001-00-0009-56.png,0005-00-0001-92.png
9,137,0,1444230550346,1444230550624,957,392,0,0,0,2,3,1,23,0002-00-0006-80.png,0003-00-0004-73.png
9,138,0,1444230550645,1444230550735,421,290,0,0,0,4,3,1,43,0005-00-0008-64.png,0003-00-0000-68.png
9,139,1,1444230550755,1444230550814,379,374,0,0,0,1,2,1,12,0004-00-0004-58.png,0002-00-0003-46.png
9,140,1,1444230550845,1444230550930,890,378,0,0,0,3,4,1,34,0003-00-0003-08.png,0005-00-0000-79.png
9,141,1,1444230550953,1444230552613,932,346,0,0,0,5,4,1,54,0001-00-0005-05.png,0005-00-0008-71.png
9,142,0,1444230552642,1444230552718,888,347,0,0,0,3,2,1,32,0003-00-0005-94.png,0002-00-0001-60.png
9,143,0,1444230552752,1444230552944,436,308,0,0,0,5,4,1,54,0001-00-0001-70.png,0005-00-0004-26.png
9,144,1,1444230552967,1444230553119,956,383,0,0,0,2,1,1,21,0002-00-0001-62.png,0004-00-0007-14.png
9,145,0,1444230553148,1444230553573,363,354,0,0,0,5,4,1,54,0001-00-0007-28.png,0005-00-0005-86.png
9,146,0,1444230553608,1444230553935,871,375,0,0,0,2,3,1,23,0002-00-0002-63.png,0003-00-0000-92.png
9,147,0,1444230553963,1444230554080,976,332,0,0,0,5,4,1,54,0001-00-0004-15.png,0005-00-0009-54.png
9,148,1,1444230554113,1444230554898,863,408,0,0,0,3,2,1,32,0003-00-0005-66.png,0002-00-0001-71.png
9,149,1,1444230554920,1444230555437,963,358,0,0,0,4,3,1,43,0005-00-0001-33.png,0003-00-0007-91.png
9,150,0,1444230555458,1444230555560,366,373,0,0,0,1,2,1,12,0004-00-0007-09.png,0002-00-0009-15.png
9,151,1,1444230555586,1444230556266,985,425,0,0,0,3,4,1,34,0003-00-0006-16.png,0005-00-0005-24.png
9,152,1,1444230556310,1444230557468,905,429,0,0,0,2,1,1,21,0002-00-0008-94.png,0004-00-0007-82.png
9,153,0,1444230557495,1444230557847,454,278,0,0,0,5,4,1,54,0001-00-0009-13.png,0005-00-0002-10.png
9,154,0,1444230557875,1444230558132,936,381,0,0,0,3,2,1,32,0003-00-0006-28.png,0002-00-0004-23.png
9,155,1,1444230558162,1444230558359,880,433,0,0,0,2,1,1,21,0002-00-0006-35.png,0004-00-0007-67.png
9,156,0,1444230558384,1444230560323,434,282,0,0,0,3,4,1,34,0003-00-0009-25.png,0005-00-0008-18.png
9,157,0,1444230560357,1444230560792,924,331,0,0,0,4,3,1,43,0005-00-0009-50.png,0003-00-0004-47.png
9,158,1,1444230560822,1444230563178,898,541,0,0,0,2,3,1,23,0002-00-0008-45.png,0003-00-0008-40.png
9,159,0,1444230563197,1444230563890,903,391,0,0,0,5,4,1,54,0001-00-0002-30.png,0005-00-0004-06.png
9,160,0,1444230563915,1444230564871,449,281,0,0,0,1,2,1,12,0004-00-0006-06.png,0002-00-0003-43.png
9,161,0,1444230564902,1444230565247,964,462,0,0,0,4,3,1,43,0005-00-0009-47.png,0003-00-0000-45.png
9,162,1,1444230565269,1444230565324,869,337,0,0,0,5,4,1,54,0001-00-0008-76.png,0005-00-0008-30.png
9,163,1,1444230565348,1444230565738,1042,297,0,0,0,3,4,1,34,0003-00-0008-13.png,0005-00-0007-34.png
9,164,1,1444230565773,1444230565906,1016,294,0,0,0,2,3,1,23,0002-00-0005-41.png,0003-00-0000-20.png
9,165,0,1444230565934,1444230566373,875,393,0,0,0,3,2,1,32,0003-00-0008-16.png,0002-00-0001-06.png
9,166,1,1444230566398,1444230568153,939,384,0,0,0,2,1,1,21,0002-00-0001-02.png,0004-00-0005-13.png
9,167,0,1444230568194,1444230568231,872,461,0,0,0,5,4,1,54,0001-00-0000-82.png,0005-00-0001-74.png
9,168,0,1444230568258,1444230568534,432,330,0,0,0,1,2,1,12,0004-00-0006-28.png,0002-00-0005-03.png
9,169,1,1444230568552,1444230568930,425,280,0,0,0,5,4,1,54,0001-00-0006-63.png,0005-00-0006-23.png
9,170,0,1444230568966,1444230569227,926,358,0,0,0,1,2,1,12,0004-00-0002-24.png,0002-00-0004-04.png
9,171,1,1444230569259,1444230569272,865,409,0,0,0,3,2,1,32,0003-00-0009-06.png,0002-00-0003-88.png
9,172,0,1444230569293,1444230569581,344,411,0,0,0,5,4,1,54,0001-00-0000-17.png,0005-00-0000-86.png
9,173,0,1444230569608,1444230569773,890,560,0,0,0,3,4,1,34,0003-00-0005-12.png,0005-00-0001-60.png
9,174,0,1444230569808,1444230569951,915,359,0,0,0,2,3,1,23,0002-00-0000-23.png,0003-00-0001-35.png
9,175,0,1444230569980,1444230569995,866,451,0,0,0,4,3,1,43,0005-00-0006-25.png,0003-00-0005-88.png
9,176,1,1444230570039,1444230570630,1046,478,0,0,0,2,1,1,21,0002-00-0002-57.png,0004-00-0003-62.png
9,177,1,1444230570656,1444230579133,373,404,0,0,0,3,2,1,32,0003-00-0001-34.png,0002-00-0001-98.png
9,178,1,1444230579160,1444230579251,441,295,0,0,0,2,3,1,23,0002-00-0002-11.png,0003-00-0006-29.png
9,179,1,1444230579273,1444230580632,906,361,0,0,0,2,1,1,21,0002-00-0009-47.png,0004-00-0003-33.png
9,180,1,1444230580661,1444230581016,860,383,0,0,0,5,4,1,54,0001-00-0003-63.png,0005-00-0000-02.png
9,181,1,1444230581042,1444230584971,923,374,0,0,0,3,4,1,34,0003-00-0006-20.png,0005-00-0009-93.png
9,182,1,1444230584996,1444230585160,873,410,0,0,0,5,4,1,54,0001-00-0007-42.png,0005-00-0009-00.png
9,183,0,1444230585182,1444230585976,921,355,0,0,0,1,2,1,12,0004-00-0004-45.png,0002-00-0002-42.png
9,184,0,1444230586023,1444230586114,352,386,0,0,0,4,3,1,43,0005-00-0004-83.png,0003-00-0005-08.png
9,185,1,1444230586139,1444230586197,359,395,0,0,0,3,4,1,34,0003-00-0006-45.png,0005-00-0000-60.png
9,186,0,1444230586228,1444230586907,1084,253,0,0,0,2,1,1,21,0002-00-0004-81.png,0004-00-0000-64.png
9,187,1,1444230586938,1444230588660,936,336,0,0,0,5,4,1,54,0001-00-0009-12.png,0005-00-0000-58.png
9,188,0,1444230588687,1444230588831,857,337,0,0,0,1,2,1,12,0004-00-0009-28.png,0002-00-0004-94.png
9,189,0,1444230588859,1444230589391,910,383,0,0,0,2,3,1,23,0002-00-0006-29.png,0003-00-0000-02.png
9,190,1,1444230589413,1444230590045,898,505,0,0,0,4,3,1,43,0005-00-0000-01.png,0003-00-0001-61.png
9,191,0,1444230590074,1444230593889,324,414,0,0,0,3,2,1,32,0003-00-0005-08.png,0002-00-0003-39.png
9,192,1,1444230593920,1444230594429,367,419,0,0,0,5,4,1,54,0001-00-0006-13.png,0005-00-0008-14.png
9,193,0,1444230594461,1444230594742,446,280,0,0,0,3,4,1,34,0003-00-0009-07.png,0005-00-0003-59.png
9,194,0,1444230594777,1444230595341,888,514,0,0,0,1,2,1,12,0004-00-0005-08.png,0002-00-0001-36.png
9,195,1,1444230595372,1444230596200,980,280,0,0,0,3,2,1,32,0003-00-0008-17.png,0002-00-0008-77.png
9,196,0,1444230596235,1444230596615,340,462,0,0,0,5,4,1,54,0001-00-0002-75.png,0005-00-0009-51.png
9,197,1,1444230596632,1444230596655,923,410,0,0,0,5,4,1,54,0001-00-0008-00.png,0005-00-0007-39.png
9,198,0,1444230596681,1444230596840,367,403,0,0,0,4,3,1,43,0005-00-0009-63.png,0003-00-0007-53.png
9,199,1,1444230596880,1444230597610,352,412,0,0,0,2,3,1,23,0002-00-0007-94.png,0003-00-0007-16.png
9,200,1,1444230597643,1444230598099,1041,293,0,0,0,2,1,1,21,0002-00-0005-07.png,0004-00-0003-12.png
9,201,1,1444230598141,1444230598481,353,386,0,0,0,5,4,1,54,0001-00-0003-87.png,0005-00-0009-82.png
9,202,1,1444230598510,1444230598574,428,306,0,0,0,3,2,1,32,0003-00-0008-48.png,0002-00-0000-89.png
9,203,1,1444230598599,1444230598857,911,494,0,0,0,2,3,1,23,0002-00-0003-27.png,0003-00-0009-98.png
9,204,0,1444230598885,1444230598962,887,427,0,0,0,1,2,1,12,0004-00-0007-86.png,0002-00-0006-51.png
9,205,0,1444230599011,1444230599257,909,311,0,0,0,4,3,1,43,0005-00-0008-48.png,0003-00-0009-75.png
9,206,1,1444230599287,1444230600340,442,300,0,0,0,5,4,1,54,0001-00-0009-04.png,0005-00-0001-53.png
9,207,0,1444230600389,1444230603868,919,352,0,0,0,3,4,1,34,0003-00-0007-52.png,0005-00-0006-28.png
9,208,1,1444230603907,1444230604252,913,368,0,0,0,2,1,1,21,0002-00-0009-15.png,0004-00-0005-94.png
9,209,0,1444230604280,1444230604545,1031,328,0,0,0,4,3,1,43,0005-00-0000-13.png,0003-00-0009-59.png
9,210,0,1444230604571,1444230604659,383,463,0,0,0,1,2,1,12,0004-00-0009-32.png,0002-00-0003-59.png
9,211,1,1444230604699,1444230605180,1027,332,0,0,0,5,4,1,54,0001-00-0006-00.png,0005-00-0001-66.png
9,212,1,1444230605224,1444230605777,361,405,0,0,0,3,4,1,34,0003-00-0003-18.png,0005-00-0007-65.png
9,213,1,1444230605806,1444230609827,443,317,0,0,0,2,3,1,23,0002-00-0009-81.png,0003-00-0006-39.png
9,214,1,1444230609855,1444230610037,943,377,0,0,0,2,1,1,21,0002-00-0001-65.png,0004-00-0003-36.png
9,215,0,1444230610065,1444230611426,327,376,0,0,0,3,2,1,32,0003-00-0004-62.png,0002-00-0008-73.png
9,216,0,1444230611449,1444230614393,863,502,0,0,0,5,4,1,54,0001-00-0008-32.png,0005-00-0003-20.png
9,217,1,1444230614415,1444230615366,1035,338,0,0,0,5,4,1,54,0001-00-0008-35.png,0005-00-0005-98.png
9,218,0,1444230615397,1444230615425,478,281,0,0,0,2,3,1,23,0002-00-0009-13.png,0003-00-0004-23.png
9,219,0,1444230615459,1444230615992,461,319,0,0,0,4,3,1,43,0005-00-0000-28.png,0003-00-0005-85.png
9,220,1,1444230616023,1444230616264,991,310,0,0,0,1,2,1,12,0004-00-0001-31.png,0002-00-0003-55.png
9,221,1,1444230616289,1444230617847,1044,323,0,0,0,2,1,1,21,0002-00-0006-41.png,0004-00-0003-77.png
9,222,1,1444230617884,1444230618207,892,438,0,0,0,3,2,1,32,0003-00-0000-62.png,0002-00-0008-42.png
9,223,1,1444230618231,1444230618348,938,382,0,0,0,3,4,1,34,0003-00-0001-27.png,0005-00-0000-89.png
9,224,0,1444230618370,1444230618609,1081,316,0,0,0,5,4,1,54,0001-00-0009-09.png,0005-00-0004-55.png
9,225,0,1444230618629,1444230618686,897,328,0,0,0,2,3,1,23,0002-00-0002-24.png,0003-00-0006-48.png
9,226,1,1444230618713,1444230739485,875,423,0,0,0,2,1,1,21,0002-00-0003-74.png,0004-00-0009-31.png
9,227,1,1444230739508,1444230739599,363,385,0,0,0,3,2,1,32,0003-00-0001-12.png,0002-00-0003-53.png
9,228,0,1444230739623,1444230740181,417,306,0,0,0,5,4,1,54,0001-00-0001-92.png,0005-00-0001-74.png
9,229,0,1444230740210,1444230742245,879,398,0,0,0,1,2,1,12,0004-00-0008-41.png,0002-00-0009-19.png
9,230,0,1444230742273,1444230742321,901,375,0,0,0,4,3,1,43,0005-00-0001-25.png,0003-00-0004-23.png
9,231,1,1444230742349,1444230744976,872,436,0,0,0,3,4,1,34,0003-00-0006-11.png,0005-00-0007-97.png
9,232,1,1444230744997,1444230745761,899,507,0,0,0,5,4,1,54,0001-00-0000-13.png,0005-00-0000-81.png
9,233,1,1444230745797,1444230745807,380,409,0,0,0,2,3,1,23,0002-00-0002-42.png,0003-00-0005-80.png
9,234,0,1444230745830,1444230746365,888,541,0,0,0,5,4,1,54,0001-00-0007-68.png,0005-00-0008-06.png
9,235,1,1444230746397,1444230746408,869,479,0,0,0,5,4,1,54,0001-00-0005-36.png,0005-00-0005-31.png
9,236,0,1444230746436,1444230747582,860,392,0,0,0,4,3,1,43,0005-00-0005-56.png,0003-00-0000-59.png
9,237,1,1444230747601,1444230747729,908,460,0,0,0,3,4,1,34,0003-00-0005-30.png,0005-00-0003-32.png
9,238,0,1444230747756,1444230748493,448,303,0,0,0,3,2,1,32,0003-00-0006-99.png,0002-00-0006-06.png
9,239,0,1444230748516,1444230748553,443,308,0,0,0,1,2,1,12,0004-00-0008-65.png,0002-00-0004-38.png
9,240,1,1444230748588,1444230749463,942,347,0,0,0,2,1,1,21,0002-00-0005-79.png,0004-00-0002-32.png
9,241,0,1444230749503,1444230749925,888,413,0,0,0,1,2,1,12,0004-00-0005-09.png,0002-00-0005-55.png
9,242,1,1444230749953,1444230750296,412,423,0,0,0,5,4,1,54,0001-00-0004-31.png,0005-00-0001-36.png
9,243,1,1444230750317,1444230750442,918,358,0,0,0,4,3,1,43,0005-00-0000-51.png,0003-00-0009-95.png
9,244,0,1444230750471,1444230750700,1067,269,0,0,0,3,2,1,32,0003-00-0002-07.png,0002-00-0006-46.png
9,245,0,1444230750730,1444230750790,1042,301,0,0,0,3,4,1,34,0003-00-0005-93.png,0005-00-0007-18.png
9,246,1,1444230750817,1444230750948,864,403,0,0,0,2,3,1,23,0002-00-0004-20.png,0003-00-0002-87.png
9,247,1,1444230750988,1444230752711,1068,280,0,0,0,5,4,1,54,0001-00-0001-29.png,0005-00-0003-26.png
9,248,0,1444230752737,1444230753398,946,379,0,0,0,2,1,1,21,0002-00-0006-02.png,0004-00-0005-47.png
9,249,1,1444230753419,1444230754414,881,374,0,0,0,3,4,1,34,0003-00-0006-02.png,0005-00-0009-12.png
9,250,0,1444230754443,1444230754480,894,440,0,0,0,4,3,1,43,0005-00-0002-68.png,0003-00-0006-44.png
9,251,0,1444230754495,1444230754609,870,477,0,0,0,3,2,1,32,0003-00-0003-28.png,0002-00-0005-70.png
9,252,1,1444230754634,1444230762662,890,335,0,0,0,5,4,1,54,0001-00-0002-33.png,0005-00-0009-63.png
9,253,0,1444230762689,1444230762787,363,418,0,0,0,5,4,1,54,0001-00-0004-99.png,0005-00-0008-94.png
9,254,1,1444230762824,1444230764309,933,374,0,0,0,2,1,1,21,0002-00-0003-59.png,0004-00-0001-33.png
9,255,0,1444230764338,1444230764355,446,272,0,0,0,1,2,1,12,0004-00-0003-81.png,0002-00-0003-81.png
9,256,1,1444230764382,1444230764854,967,350,0,0,0,2,3,1,23,0002-00-0002-51.png,0003-00-0000-30.png
9,257,1,1444230764882,1444230765052,1041,253,0,0,0,4,3,1,43,0005-00-0004-66.png,0003-00-0007-25.png
9,258,1,1444230765073,1444230765806,865,408,0,0,0,2,3,1,23,0002-00-0007-84.png,0003-00-0009-03.png
9,259,0,1444230765829,1444230767060,886,414,0,0,0,5,4,1,54,0001-00-0000-99.png,0005-00-0000-78.png
9,260,0,1444230767084,1444230767433,1063,272,0,0,0,3,2,1,32,0003-00-0006-78.png,0002-00-0001-95.png
9,261,0,1444230767473,1444230767522,434,297,0,0,0,2,1,1,21,0002-00-0000-38.png,0004-00-0001-59.png
9,262,0,1444230767554,1444230768479,1049,329,0,0,0,5,4,1,54,0001-00-0002-49.png,0005-00-0005-62.png
9,263,1,1444230768510,1444230769080,409,294,0,0,0,3,4,1,34,0003-00-0004-00.png,0005-00-0008-32.png
9,264,1,1444230769118,1444230769577,413,307,0,0,0,1,2,1,12,0004-00-0001-34.png,0002-00-0002-35.png
9,265,1,1444230769602,1444230772468,1014,309,0,0,0,2,3,1,23,0002-00-0006-29.png,0003-00-0006-93.png
9,266,0,1444230772492,1444230772579,918,350,0,0,0,4,3,1,43,0005-00-0003-50.png,0003-00-0005-09.png
9,267,1,1444230772606,1444230773851,866,431,0,0,0,5,4,1,54,0001-00-0005-16.png,0005-00-0008-30.png
9,268,0,1444230773881,1444230774136,427,290,0,0,0,1,2,1,12,0004-00-0007-04.png,0002-00-0006-70.png
9,269,1,1444230774168,1444230775124,419,272,0,0,0,5,4,1,54,0001-00-0005-69.png,0005-00-0009-57.png
9,270,1,1444230775153,1444230775690,864,403,0,0,0,3,2,1,32,0003-00-0007-34.png,0002-00-0005-79.png
9,271,0,1444230775720,1444230775879,413,278,0,0,0,3,4,1,34,0003-00-0002-15.png,0005-00-0006-65.png
9,272,0,1444230775908,1444230775995,430,306,0,0,0,2,1,1,21,0002-00-0005-96.png,0004-00-0009-09.png
9,273,0,1444230776033,1444230776329,458,323,0,0,0,2,3,1,23,0002-00-0003-95.png,0003-00-0003-78.png
9,274,1,1444230776354,1444230777629,366,381,0,0,0,3,2,1,32,0003-00-0006-23.png,0002-00-0003-00.png
9,275,1,1444230777663,1444230778287,1013,327,0,0,0,1,2,1,12,0004-00-0001-07.png,0002-00-0004-49.png
9,276,1,1444230778310,1444230778699,950,358,0,0,0,5,4,1,54,0001-00-0002-47.png,0005-00-0005-50.png
9,277,0,1444230778735,1444230778773,888,396,0,0,0,3,4,1,34,0003-00-0001-97.png,0005-00-0003-61.png
9,278,0,1444230778804,1444230779766,1016,266,0,0,0,2,1,1,21,0002-00-0004-34.png,0004-00-0007-70.png
9,279,0,1444230779794,1444230779944,457,332,0,0,0,4,3,1,43,0005-00-0009-72.png,0003-00-0001-69.png
9,280,1,1444230779966,1444230780174,936,370,0,0,0,5,4,1,54,0001-00-0002-73.png,0005-00-0005-29.png
9,281,1,1444230780206,1444230780265,926,488,0,0,0,4,3,1,43,0005-00-0005-65.png,0003-00-0002-87.png
9,282,0,1444230780294,1444230780546,888,342,0,0,0,2,1,1,21,0002-00-0002-27.png,0004-00-0002-28.png
9,283,0,1444230780573,1444230780699,453,280,0,0,0,3,4,1,34,0003-00-0003-68.png,0005-00-0009-67.png
9,284,1,1444230780729,1444230780825,881,522,0,0,0,1,2,1,12,0004-00-0007-54.png,0002-00-0003-67.png
9,285,0,1444230780853,1444230780981,387,380,0,0,0,3,2,1,32,0003-00-0004-40.png,0002-00-0005-25.png
9,286,0,1444230780999,1444230781097,393,393,0,0,0,2,3,1,23,0002-00-0002-14.png,0003-00-0005-23.png
9,287,0,1444230781119,1444230781186,916,382,0,0,0,5,4,1,54,0001-00-0006-34.png,0005-00-0006-15.png
9,288,0,1444230781212,1444230781240,1013,288,0,0,0,5,4,1,54,0001-00-0009-84.png,0005-00-0002-27.png
9,289,0,1444230781275,1444230782114,1067,279,0,0,0,4,3,1,43,0005-00-0002-72.png,0003-00-0004-47.png
9,290,1,1444230782146,1444230782560,942,347,0,0,0,3,2,1,32,0003-00-0009-58.png,0002-00-0009-83.png
9,291,0,1444230782588,1444230793025,857,417,0,0,0,5,4,1,54,0001-00-0003-25.png,0005-00-0005-33.png
9,292,0,1444230793053,1444230794982,456,266,0,0,0,1,2,1,12,0004-00-0002-22.png,0002-00-0004-31.png
9,293,0,1444230795004,1444230795859,941,325,0,0,0,3,4,1,34,0003-00-0003-32.png,0005-00-0009-61.png
9,294,0,1444230795890,1444230796015,938,334,0,0,0,2,3,1,23,0002-00-0000-40.png,0003-00-0001-17.png
9,295,1,1444230796062,1444230796093,891,457,0,0,0,5,4,1,54,0001-00-0003-29.png,0005-00-0005-55.png
9,296,0,1444230796126,1444230796172,939,448,0,0,0,2,1,1,21,0002-00-0007-08.png,0004-00-0004-07.png
9,297,0,1444230796196,1444230796247,1065,278,0,0,0,5,4,1,54,0001-00-0009-09.png,0005-00-0008-38.png
9,298,0,1444230796274,1444230803902,1090,303,0,0,0,3,2,1,32,0003-00-0009-56.png,0002-00-0004-41.png
9,299,1,1444230803933,1444230804445,878,358,0,0,0,3,4,1,34,0003-00-0000-88.png,0005-00-0007-59.png
9,300,1,1444230804473,1444230804815,420,325,0,0,0,1,2,1,12,0004-00-0001-16.png,0002-00-0005-18.png
9,301,0,1444230804863,1444230805157,860,473,0,0,0,5,4,1,54,0001-00-0008-42.png,0005-00-0004-59.png
9,302,1,1444230805180,1444230805300,353,405,0,0,0,4,3,1,43,0005-00-0005-34.png,0003-00-0000-00.png
9,303,1,1444230805324,1444230805899,330,352,0,0,0,2,1,1,21,0002-00-0007-75.png,0004-00-0004-73.png
9,304,0,1444230805931,1444230806211,899,436,0,0,0,2,3,1,23,0002-00-0009-10.png,0003-00-0004-18.png
9,305,0,1444230806235,1444230814147,407,271,0,0,0,1,2,1,12,0004-00-0005-83.png,0002-00-0008-08.png
9,306,0,1444230814166,1444230814509,888,451,0,0,0,3,2,1,32,0003-00-0002-07.png,0002-00-0006-10.png
9,307,1,1444230814534,1444230815804,458,306,0,0,0,5,4,1,54,0001-00-0002-19.png,0005-00-0000-12.png
9,308,1,1444230815832,1444230816956,875,427,0,0,0,2,1,1,21,0002-00-0002-85.png,0004-00-0008-24.png
9,309,0,1444230817001,1444230817112,899,541,0,0,0,3,4,1,34,0003-00-0006-87.png,0005-00-0008-52.png
9,310,0,1444230817145,1444230817676,913,541,0,0,0,2,3,1,23,0002-00-0003-56.png,0003-00-0009-25.png
9,311,1,1444230817701,1444230817840,915,383,0,0,0,5,4,1,54,0001-00-0005-09.png,0005-00-0003-96.png
9,312,0,1444230817865,1444230818893,921,326,0,0,0,4,3,1,43,0005-00-0002-34.png,0003-00-0001-70.png
9,313,1,1444230818935,1444230819045,930,332,0,0,0,4,3,1,43,0005-00-0005-65.png,0003-00-0000-80.png
9,314,0,1444230819079,1444230819319,1012,308,0,0,0,3,4,1,34,0003-00-0008-10.png,0005-00-0001-77.png
9,315,0,1444230819363,1444230820005,884,442,0,0,0,5,4,1,54,0001-00-0007-21.png,0005-00-0008-96.png
9,316,0,1444230820039,1444230820400,478,294,0,0,0,2,1,1,21,0002-00-0005-62.png,0004-00-0004-53.png
9,317,0,1444230820440,1444230824482,913,332,0,0,0,5,4,1,54,0001-00-0006-06.png,0005-00-0006-32.png
9,318,1,1444230824506,1444230826048,910,368,0,0,0,2,3,1,23,0002-00-0007-43.png,0003-00-0005-22.png
9,319,1,1444230826089,1444230826202,908,359,0,0,0,3,2,1,32,0003-00-0002-79.png,0002-00-0006-97.png
9,320,1,1444230826218,1444230826250,884,418,0,0,0,1,2,1,12,0004-00-0003-32.png,0002-00-0005-56.png
9,321,0,1444230826275,1444230826482,897,355,0,0,0,2,3,1,23,0002-00-0005-56.png,0003-00-0002-59.png
9,322,0,1444230826509,1444230826599,988,491,0,0,0,3,2,1,32,0003-00-0004-33.png,0002-00-0004-89.png
9,323,0,1444230826621,1444230827048,463,302,0,0,0,4,3,1,43,0005-00-0006-88.png,0003-00-0001-27.png
9,324,0,1444230827073,1444230827166,877,488,0,0,0,1,2,1,12,0004-00-0007-57.png,0002-00-0001-00.png
9,325,0,1444230827202,1444230827204,888,337,0,0,0,3,4,1,34,0003-00-0006-06.png,0005-00-0006-31.png
9,326,1,1444230827224,1444230827914,894,430,0,0,0,2,1,1,21,0002-00-0006-21.png,0004-00-0007-02.png
9,327,1,1444230827952,1444230828767,873,346,0,0,0,5,4,1,54,0001-00-0001-27.png,0005-00-0002-55.png
9,328,0,1444230828796,1444230829368,909,337,0,0,0,5,4,1,54,0001-00-0004-85.png,0005-00-0000-29.png
9,329,1,1444230829398,1444230829702,396,374,0,0,0,4,3,1,43,0005-00-0004-59.png,0003-00-0001-19.png
9,330,1,1444230829725,1444230829807,877,503,0,0,0,3,2,1,32,0003-00-0005-43.png,0002-00-0008-78.png
9,331,1,1444230829838,1444230829947,929,522,0,0,0,5,4,1,54,0001-00-0004-79.png,0005-00-0008-60.png
9,332,1,1444230829971,1444230830380,1047,324,0,0,0,1,2,1,12,0004-00-0005-14.png,0002-00-0005-83.png
9,333,1,1444230830408,1444230832304,946,249,0,0,0,2,1,1,21,0002-00-0005-83.png,0004-00-0007-34.png
9,334,1,1444230832332,1444230833156,419,443,0,0,0,3,4,1,34,0003-00-0001-00.png,0005-00-0000-05.png
9,335,1,1444230833180,1444230833273,931,372,0,0,0,2,3,1,23,0002-00-0007-54.png,0003-00-0005-44.png
9,336,1,1444230833299,1444230833712,962,356,0,0,0,5,4,1,54,0001-00-0006-56.png,0005-00-0002-80.png
9,337,0,1444230833740,1444230834040,887,309,0,0,0,2,1,1,21,0002-00-0002-06.png,0004-00-0007-73.png
9,338,0,1444230834066,1444230834595,858,360,0,0,0,3,4,1,34,0003-00-0004-34.png,0005-00-0008-12.png
9,339,1,1444230834628,1444230834669,941,369,0,0,0,5,4,1,54,0001-00-0007-77.png,0005-00-0007-18.png
9,340,1,1444230834718,1444230835074,1039,337,0,0,0,2,3,1,23,0002-00-0008-00.png,0003-00-0004-39.png
9,341,1,1444230835103,1444230835253,915,379,0,0,0,1,2,1,12,0004-00-0006-25.png,0002-00-0005-91.png
9,342,1,1444230835282,1444230835708,890,440,0,0,0,5,4,1,54,0001-00-0008-74.png,0005-00-0005-24.png
9,343,1,1444230835739,1444230835962,954,386,0,0,0,3,2,1,32,0003-00-0002-65.png,0002-00-0005-39.png
9,344,1,1444230835983,1444230836115,873,488,0,0,0,4,3,1,43,0005-00-0004-00.png,0003-00-0006-08.png
9,345,1,1444230836133,1444230836458,381,393,0,0,0,2,3,1,23,0002-00-0003-85.png,0003-00-0007-92.png
9,346,1,1444230836493,1444230836705,377,368,0,0,0,4,3,1,43,0005-00-0002-80.png,0003-00-0001-19.png
9,347,0,1444230836736,1444230837160,935,368,0,0,0,1,2,1,12,0004-00-0006-74.png,0002-00-0007-57.png
9,348,1,1444230837192,1444230837413,911,463,0,0,0,5,4,1,54,0001-00-0007-59.png,0005-00-0007-25.png
9,349,0,1444230837440,1444230837447,1043,280,0,0,0,5,4,1,54,0001-00-0007-84.png,0005-00-0003-49.png
9,350,1,1444230837481,1444230837964,1089,251,0,0,0,3,2,1,32,0003-00-0004-24.png,0002-00-0002-16.png
9,351,1,1444230837980,1444230838907,862,436,0,0,0,2,1,1,21,0002-00-0003-26.png,0004-00-0006-08.png
9,352,0,1444230838932,1444230839120,429,272,0,0,0,3,4,1,34,0003-00-0003-06.png,0005-00-0009-36.png
9,353,0,1444230839139,1444230839319,446,267,0,0,0,5,4,1,54,0001-00-0002-68.png,0005-00-0007-45.png
9,354,1,1444230839351,1444230839577,1046,330,0,0,0,2,3,1,23,0002-00-0000-78.png,0003-00-0008-56.png
9,355,1,1444230839607,1444230840829,871,413,0,0,0,2,1,1,21,0002-00-0003-99.png,0004-00-0006-68.png
9,356,0,1444230840852,1444230841132,990,372,0,0,0,1,2,1,12,0004-00-0000-74.png,0002-00-0003-90.png
9,357,0,1444230841155,1444230844564,429,264,0,0,0,3,4,1,34,0003-00-0004-46.png,0005-00-0005-44.png
9,358,1,1444230844599,1444230845523,903,413,0,0,0,3,2,1,32,0003-00-0000-36.png,0002-00-0005-64.png
9,359,1,1444230845547,1444230846920,935,368,0,0,0,5,4,1,54,0001-00-0000-21.png,0005-00-0008-22.png
9,360,1,1444230846938,1444230847474,873,442,0,0,0,4,3,1,43,0005-00-0002-20.png,0003-00-0000-31.png
9,361,1,1444230847511,1444230847974,880,332,0,0,0,2,3,1,23,0002-00-0004-01.png,0003-00-0004-19.png
9,362,1,1444230848012,1444230848392,445,303,0,0,0,2,1,1,21,0002-00-0004-82.png,0004-00-0008-92.png
9,363,1,1444230848415,1444230848672,906,391,0,0,0,5,4,1,54,0001-00-0000-90.png,0005-00-0008-46.png
9,364,0,1444230848714,1444230849091,1017,281,0,0,0,1,2,1,12,0004-00-0007-83.png,0002-00-0002-55.png
9,365,1,1444230849122,1444230849226,870,452,0,0,0,3,4,1,34,0003-00-0004-69.png,0005-00-0007-10.png
9,366,1,1444230849249,1444230850441,1010,274,0,0,0,4,3,1,43,0005-00-0004-76.png,0003-00-0004-94.png
9,367,1,1444230850482,1444230851382,461,302,0,0,0,5,4,1,54,0001-00-0004-43.png,0005-00-0006-02.png
9,368,1,1444230851412,1444230852363,938,337,0,0,0,3,2,1,32,0003-00-0005-03.png,0002-00-0002-82.png
9,369,1,1444230852389,1444230857695,964,514,0,0,0,3,2,1,32,0003-00-0000-33.png,0002-00-0006-12.png
9,370,1,1444230857716,1444230858422,994,335,0,0,0,5,4,1,54,0001-00-0000-80.png,0005-00-0001-49.png
9,371,1,1444230858457,1444230858724,325,384,0,0,0,2,1,1,21,0002-00-0003-29.png,0004-00-0004-51.png
9,372,0,1444230858764,1444230858805,1022,320,0,0,0,5,4,1,54,0001-00-0001-34.png,0005-00-0008-54.png
9,373,1,1444230858835,1444230859107,983,470,0,0,0,4,3,1,43,0005-00-0006-21.png,0003-00-0008-59.png
9,374,1,1444230859136,1444230862905,420,255,0,0,0,2,3,1,23,0002-00-0008-00.png,0003-00-0009-40.png
9,375,1,1444230862938,1444230863022,990,279,0,0,0,1,2,1,12,0004-00-0000-78.png,0002-00-0002-70.png
9,376,0,1444230863047,1444230863531,412,286,0,0,0,3,4,1,34,0003-00-0008-48.png,0005-00-0001-71.png
9,377,0,1444230863554,1444230864066,414,301,0,0,0,5,4,1,54,0001-00-0005-12.png,0005-00-0006-16.png
9,378,1,1444230864097,1444230865223,889,491,0,0,0,3,2,1,32,0003-00-0007-43.png,0002-00-0000-20.png
9,379,1,1444230865259,1444230866215,888,293,0,0,0,4,3,1,43,0005-00-0001-13.png,0003-00-0000-10.png
9,380,1,1444230866238,1444230866330,370,400,0,0,0,2,1,1,21,0002-00-0006-53.png,0004-00-0005-54.png
9,381,1,1444230866345,1444230866426,948,358,0,0,0,5,4,1,54,0001-00-0001-10.png,0005-00-0009-79.png
9,382,1,1444230866467,1444230868768,395,395,0,0,0,3,4,1,34,0003-00-0007-80.png,0005-00-0003-69.png
9,383,0,1444230868793,1444230869514,920,344,0,0,0,2,3,1,23,0002-00-0001-82.png,0003-00-0004-95.png
9,384,0,1444230869543,1444230870217,1033,297,0,0,0,1,2,1,12,0004-00-0000-08.png,0002-00-0009-94.png
9,385,1,1444230870245,1444230874594,456,324,0,0,0,4,3,1,43,0005-00-0008-77.png,0003-00-0008-72.png
9,386,0,1444230874639,1444230874743,888,332,0,0,0,1,2,1,12,0004-00-0002-49.png,0002-00-0008-91.png
9,387,1,1444230874776,1444230875615,309,400,0,0,0,5,4,1,54,0001-00-0004-41.png,0005-00-0004-75.png
9,388,0,1444230875633,1444230876967,994,369,0,0,0,3,2,1,32,0003-00-0005-21.png,0002-00-0008-47.png
9,389,0,1444230877003,1444230877152,960,338,0,0,0,5,4,1,54,0001-00-0008-83.png,0005-00-0000-74.png
9,390,0,1444230877169,1444230878360,983,383,0,0,0,3,4,1,34,0003-00-0002-35.png,0005-00-0001-43.png