subject_id,trial,correct_response,stim_time,response_time,x_coord,y_coord,trial_timeout,timeout_time,interTrial_timeout,left_rank,right_rank,distance,joint_rank,left_image,right_image
14,1,1,1444162380037,1444162380432,350,424,0,0,0,5,4,1,54,0001-00-0005-13.png,0005-00-0003-85.png
14,2,1,1444162380466,1444162380924,958,489,0,0,0,3,4,1,34,0003-00-0007-38.png,0005-00-0007-33.png
14,3,0,1444162380966,1444162381407,361,463,0,0,0,1,2,1,12,0004-00-0008-86.png,0002-00-0003-04.png
14,4,1,1444162381429,1444162381995,998,489,0,0,0,2,3,1,23,0002-00-0002-11.png,0003-00-0000-99.png
14,5,1,1444162382024,1444162382450,414,462,0,0,0,5,4,1,54,0001-00-0006-97.png,0005-00-0007-52.png
14,6,1,1444162382476,1444162382827,408,371,0,0,0,3,2,1,32,0003-00-0006-08.png,0002-00-0002-48.png
14,7,1,1444162382860,1444162383295,379,478,0,0,0,2,1,1,21,0002-00-0000-57.png,0004-00-0001-56.png
14,8,1,1444162383322,1444162383668,979,383,0,0,0,4,3,1,43,0005-00-0008-22.png,0003-00-0009-07.png
14,9,0,1444162383695,1444162384537,236,462,0,0,0,2,3,1,23,0002-00-0000-06.png,0003-00-0004-21.png
14,10,1,1444162384578,1444162385426,331,378,0,0,0,5,4,1,54,0001-00-0007-63.png,0005-00-0006-57.png
14,11,0,1444162385465,1444162385903,418,493,0,0,0,3,2,1,32,0003-00-0002-22.png,0002-00-0003-24.png
14,12,1,1444162385931,1444162386270,928,494,0,0,0,1,2,1,12,0004-00-0007-95.png,0002-00-0004-96.png
14,13,1,1444162386300,1444162386856,376,501,0,0,0,3,4,1,34,0003-00-0002-36.png,0005-00-0006-91.png
14,14,1,1444162386886,1444162387215,911,413,0,0,0,2,1,1,21,0002-00-0006-23.png,0004-00-0007-70.png
14,15,1,1444162387242,1444162387816,928,492,0,0,0,5,4,1,54,0001-00-0009-42.png,0005-00-0002-01.png
14,16,1,1444162387838,1444162388025,305,224,0,0,0,4,3,1,43,0005-00-0002-36.png,0003-00-0002-58.png
14,17,1,1444162388043,1444162389596,938,487,0,0,0,2,1,1,21,0002-00-0009-36.png,0004-00-0009-91.png
14,18,1,1444162389620,1444162390499,925,456,0,0,0,1,2,1,12,0004-00-0006-20.png,0002-00-0007-59.png
14,19,0,1444162390534,1444162391204,962,392,0,0,0,5,4,1,54,0001-00-0009-12.png,0005-00-0003-14.png
14,20,1,1444162391242,1444162391778,296,366,0,0,0,3,4,1,34,0003-00-0005-79.png,0005-00-0007-10.png
14,21,0,1444162391796,1444162392170,927,486,0,0,0,3,2,1,32,0003-00-0004-61.png,0002-00-0008-46.png
14,22,1,1444162392190,1444162392582,937,431,0,0,0,5,4,1,54,0001-00-0004-19.png,0005-00-0008-87.png
14,23,1,1444162392622,1444162392765,935,474,0,0,0,2,3,1,23,0002-00-0004-12.png,0003-00-0003-75.png
14,24,1,1444162392791,1444162393105,948,470,0,0,0,4,3,1,43,0005-00-0004-60.png,0003-00-0000-24.png
14,25,1,1444162393124,1444162393471,942,482,0,0,0,1,2,1,12,0004-00-0005-24.png,0002-00-0005-98.png
14,26,1,1444162393494,1444162394462,929,377,0,0,0,2,1,1,21,0002-00-0006-86.png,0004-00-0002-05.png
14,27,1,1444162394488,1444162394637,952,397,0,0,0,2,3,1,23,0002-00-0004-46.png,0003-00-0004-34.png
14,28,1,1444162394665,1444162395127,933,448,0,0,0,3,4,1,34,0003-00-0001-12.png,0005-00-0002-87.png
14,29,1,1444162395143,1444162395943,966,524,0,0,0,4,3,1,43,0005-00-0001-62.png,0003-00-0001-11.png
14,30,1,1444162395973,1444162396490,337,384,0,0,0,5,4,1,54,0001-00-0007-31.png,0005-00-0001-32.png
14,31,1,1444162396538,1444162396936,951,437,0,0,0,3,2,1,32,0003-00-0003-13.png,0002-00-0002-40.png
14,32,0,1444162396966,1444162397283,977,371,0,0,0,5,4,1,54,0001-00-0009-69.png,0005-00-0003-56.png
14,33,1,1444162397306,1444162397748,948,389,0,0,0,5,4,1,54,0001-00-0009-03.png,0005-00-0001-34.png
14,34,0,1444162397769,1444162398369,929,441,0,0,0,2,1,1,21,0002-00-0009-47.png,0004-00-0002-83.png
14,35,0,1444162398394,1444162398716,950,382,0,0,0,3,4,1,34,0003-00-0001-05.png,0005-00-0005-27.png
14,36,1,1444162398748,1444162399225,898,303,0,0,0,3,2,1,32,0003-00-0004-42.png,0002-00-0009-06.png
14,37,1,1444162399252,1444162400769,926,470,0,0,0,4,3,1,43,0005-00-0005-72.png,0003-00-0006-94.png
14,38,1,1444162400783,1444162401109,521,378,0,0,0,1,2,1,12,0004-00-0004-28.png,0002-00-0001-95.png
14,39,1,1444162401134,1444162401873,365,389,0,0,0,2,3,1,23,0002-00-0006-30.png,0003-00-0001-56.png
14,40,1,1444162401899,1444162402224,928,442,0,0,0,5,4,1,54,0001-00-0005-70.png,0005-00-0007-79.png
14,41,0,1444162402264,1444162402981,897,448,0,0,0,1,2,1,12,0004-00-0005-37.png,0002-00-0009-14.png
14,42,0,1444162403022,1444162403295,955,403,0,0,0,5,4,1,54,0001-00-0002-95.png,0005-00-0001-82.png
14,43,0,1444162403328,1444162403724,324,446,0,0,0,2,3,1,23,0002-00-0000-71.png,0003-00-0009-24.png
14,44,1,1444162403743,1444162405646,504,423,0,0,0,3,4,1,34,0003-00-0004-76.png,0005-00-0003-84.png
14,45,0,1444162405668,1444162406115,899,370,0,0,0,3,2,1,32,0003-00-0006-80.png,0002-00-0003-85.png
14,46,0,1444162406148,1444162406842,926,450,0,0,0,2,1,1,21,0002-00-0009-20.png,0004-00-0009-12.png
14,47,1,1444162406873,1444162407423,956,427,0,0,0,4,3,1,43,0005-00-0008-31.png,0003-00-0000-21.png
14,48,1,1444162407450,1444162407727,938,527,0,0,0,5,4,1,54,0001-00-0005-91.png,0005-00-0003-00.png
14,49,0,1444162407754,1444162408112,932,472,0,0,0,3,2,1,32,0003-00-0007-96.png,0002-00-0000-98.png
14,50,0,1444162408133,1444162408477,949,365,0,0,0,1,2,1,12,0004-00-0001-50.png,0002-00-0008-15.png
14,51,1,1444162408507,1444162408740,981,375,0,0,0,5,4,1,54,0001-00-0009-80.png,0005-00-0004-23.png
14,52,1,1444162408762,1444162409440,341,397,0,0,0,2,1,1,21,0002-00-0009-49.png,0004-00-0009-94.png
14,53,1,1444162409470,1444162409837,427,449,0,0,0,2,3,1,23,0002-00-0004-23.png,0003-00-0008-44.png
14,54,0,1444162409867,1444162410320,945,459,0,0,0,4,3,1,43,0005-00-0007-37.png,0003-00-0000-56.png
14,55,1,1444162410344,1444162410983,925,463,0,0,0,3,4,1,34,0003-00-0006-98.png,0005-00-0001-16.png
14,56,0,1444162411015,1444162411809,925,489,0,0,0,5,4,1,54,0001-00-0008-38.png,0005-00-0000-75.png
14,57,1,1444162411837,1444162412114,899,487,0,0,0,3,4,1,34,0003-00-0002-13.png,0005-00-0000-47.png
14,58,1,1444162412146,1444162412295,327,410,0,0,0,3,2,1,32,0003-00-0000-84.png,0002-00-0007-96.png
14,59,0,1444162412325,1444162412654,259,525,0,0,0,5,4,1,54,0001-00-0003-78.png,0005-00-0009-90.png
14,60,1,1444162412676,1444162413218,922,498,0,0,0,2,1,1,21,0002-00-0009-56.png,0004-00-0001-72.png
14,61,1,1444162413252,1444162413801,320,381,0,0,0,1,2,1,12,0004-00-0007-49.png,0002-00-0009-43.png
14,62,0,1444162413834,1444162414032,197,436,0,0,0,4,3,1,43,0005-00-0007-49.png,0003-00-0006-04.png
14,63,1,1444162414070,1444162414476,376,371,0,0,0,2,3,1,23,0002-00-0000-45.png,0003-00-0002-51.png
14,64,0,1444162414503,1444162414779,901,450,0,0,0,5,4,1,54,0001-00-0009-90.png,0005-00-0009-85.png
14,65,0,1444162414799,1444162415298,338,391,0,0,0,2,1,1,21,0002-00-0005-92.png,0004-00-0002-53.png
14,66,0,1444162415327,1444162415871,406,432,0,0,0,2,3,1,23,0002-00-0009-37.png,0003-00-0005-10.png
14,67,1,1444162415903,1444162416299,888,267,0,0,0,4,3,1,43,0005-00-0006-70.png,0003-00-0004-95.png
14,68,1,1444162416334,1444162416928,941,458,0,0,0,3,2,1,32,0003-00-0000-87.png,0002-00-0002-60.png
14,69,0,1444162416954,1444162417474,926,373,0,0,0,5,4,1,54,0001-00-0009-44.png,0005-00-0000-64.png
14,70,0,1444162417507,1444162418080,951,346,0,0,0,1,2,1,12,0004-00-0009-88.png,0002-00-0000-11.png
14,71,1,1444162418118,1444162418441,425,461,0,0,0,5,4,1,54,0001-00-0003-37.png,0005-00-0009-30.png
14,72,0,1444162418475,1444162419061,339,371,0,0,0,3,4,1,34,0003-00-0004-36.png,0005-00-0009-02.png
14,73,1,1444162419087,1444162419695,419,557,0,0,0,4,3,1,43,0005-00-0002-37.png,0003-00-0002-21.png
14,74,1,1444162419742,1444162420060,925,360,0,0,0,3,4,1,34,0003-00-0003-44.png,0005-00-0002-68.png
14,75,1,1444162420082,1444162420288,336,400,0,0,0,2,1,1,21,0002-00-0009-24.png,0004-00-0001-01.png
14,76,1,1444162420321,1444162420721,360,423,0,0,0,5,4,1,54,0001-00-0008-57.png,0005-00-0009-56.png
14,77,0,1444162420745,1444162421025,939,462,0,0,0,3,2,1,32,0003-00-0009-41.png,0002-00-0003-75.png
14,78,0,1444162421054,1444162421551,901,467,0,0,0,1,2,1,12,0004-00-0001-80.png,0002-00-0008-74.png
14,79,1,1444162421583,1444162422114,384,367,0,0,0,2,3,1,23,0002-00-0008-94.png,0003-00-0008-93.png
14,80,0,1444162422144,1444162422400,925,489,0,0,0,5,4,1,54,0001-00-0002-20.png,0005-00-0003-86.png
14,81,1,1444162422422,1444162423013,956,517,0,0,0,5,4,1,54,0001-00-0002-53.png,0005-00-0007-02.png
14,82,1,1444162423050,1444162423790,394,475,0,0,0,1,2,1,12,0004-00-0005-95.png,0002-00-0009-02.png
14,83,1,1444162423820,1444162424078,300,400,0,0,0,2,3,1,23,0002-00-0000-05.png,0003-00-0000-35.png
14,84,0,1444162424095,1444162424373,302,392,0,0,0,3,2,1,32,0003-00-0009-26.png,0002-00-0002-26.png
14,85,1,1444162424401,1444162424765,343,396,0,0,0,3,4,1,34,0003-00-0005-38.png,0005-00-0005-96.png
14,86,1,1444162424788,1444162425276,945,459,0,0,0,2,1,1,21,0002-00-0009-27.png,0004-00-0005-45.png
14,87,1,1444162425309,1444162425437,337,372,0,0,0,4,3,1,43,0005-00-0004-24.png,0003-00-0001-59.png
14,88,1,1444162425477,1444162426154,914,470,0,0,0,5,4,1,54,0001-00-0009-29.png,0005-00-0000-45.png
14,89,0,1444162426189,1444162426573,930,324,0,0,0,5,4,1,54,0001-00-0001-32.png,0005-00-0001-80.png
14,90,1,1444162426597,1444162428268,291,372,0,0,0,2,1,1,21,0002-00-0006-63.png,0004-00-0004-61.png
14,91,0,1444162428299,1444162428866,416,480,0,0,0,4,3,1,43,0005-00-0004-75.png,0003-00-0001-09.png
14,92,0,1444162428899,1444162429559,924,386,0,0,0,2,3,1,23,0002-00-0005-42.png,0003-00-0000-90.png
14,93,1,1444162429594,1444162430166,357,368,0,0,0,1,2,1,12,0004-00-0002-66.png,0002-00-0006-77.png
14,94,1,1444162430191,1444162430497,928,468,0,0,0,3,2,1,32,0003-00-0000-74.png,0002-00-0007-45.png
14,95,0,1444162430525,1444162431303,350,386,0,0,0,5,4,1,54,0001-00-0004-88.png,0005-00-0007-52.png
14,96,1,1444162431328,1444162431962,511,382,0,0,0,3,4,1,34,0003-00-0009-55.png,0005-00-0003-80.png
14,97,0,1444162431990,1444162432476,945,442,0,0,0,5,4,1,54,0001-00-0004-71.png,0005-00-0001-90.png
14,98,1,1444162432497,1444162432911,350,423,0,0,0,3,4,1,34,0003-00-0008-04.png,0005-00-0009-60.png
14,99,0,1444162432929,1444162433250,316,340,0,0,0,3,2,1,32,0003-00-0003-72.png,0002-00-0006-39.png
14,100,1,1444162433280,1444162433587,921,498,0,0,0,4,3,1,43,0005-00-0008-87.png,0003-00-0004-72.png
14,101,0,1444162433624,1444162433955,309,339,0,0,0,2,1,1,21,0002-00-0007-69.png,0004-00-0009-65.png
14,102,1,1444162433981,1444162434356,307,445,0,0,0,1,2,1,12,0004-00-0001-83.png,0002-00-0007-66.png
14,103,1,1444162434384,1444162434697,315,396,0,0,0,2,3,1,23,0002-00-0006-87.png,0003-00-0009-11.png
14,104,1,1444162434722,1444162434931,917,376,0,0,0,5,4,1,54,0001-00-0007-87.png,0005-00-0009-68.png
14,105,1,1444162434965,1444162435449,421,504,0,0,0,2,1,1,21,0002-00-0004-79.png,0004-00-0003-01.png
14,106,0,1444162435492,1444162436268,948,469,0,0,0,3,2,1,32,0003-00-0000-99.png,0002-00-0008-45.png
14,107,1,1444162436295,1444162436556,197,484,0,0,0,5,4,1,54,0001-00-0004-66.png,0005-00-0008-45.png
14,108,1,1444162436586,1444162436844,365,462,0,0,0,1,2,1,12,0004-00-0000-61.png,0002-00-0007-44.png
14,109,0,1444162436863,1444162437958,904,389,0,0,0,4,3,1,43,0005-00-0004-73.png,0003-00-0001-05.png
14,110,0,1444162437986,1444162439496,925,398,0,0,0,3,4,1,34,0003-00-0009-39.png,0005-00-0003-47.png
14,111,0,1444162439526,1444162440062,294,337,0,0,0,2,3,1,23,0002-00-0001-56.png,0003-00-0008-30.png
14,112,1,1444162440095,1444162440837,952,448,0,0,0,5,4,1,54,0001-00-0009-20.png,0005-00-0007-06.png
14,113,1,1444162440865,1444162441359,305,384,0,0,0,2,3,1,23,0002-00-0000-02.png,0003-00-0007-12.png
14,114,1,1444162441401,1444162441584,417,497,0,0,0,5,4,1,54,0001-00-0003-07.png,0005-00-0004-24.png
14,115,1,1444162441615,1444162441931,894,400,0,0,0,3,4,1,34,0003-00-0009-27.png,0005-00-0000-76.png
14,116,1,1444162441969,1444162442811,926,489,0,0,0,4,3,1,43,0005-00-0007-31.png,0003-00-0000-75.png
14,117,1,1444162442839,1444162443194,914,432,0,0,0,3,2,1,32,0003-00-0000-29.png,0002-00-0006-70.png
14,118,1,1444162443238,1444162443482,362,475,0,0,0,1,2,1,12,0004-00-0000-08.png,0002-00-0009-65.png
14,119,0,1444162443500,1444162443917,393,495,0,0,0,2,1,1,21,0002-00-0005-47.png,0004-00-0009-59.png
14,120,1,1444162443966,1444162444623,927,463,0,0,0,5,4,1,54,0001-00-0003-20.png,0005-00-0009-24.png
14,121,1,1444162444657,1444162445521,943,376,0,0,0,5,4,1,54,0001-00-0009-73.png,0005-00-0002-57.png
14,122,1,1444162445546,1444162445903,376,371,0,0,0,4,3,1,43,0005-00-0006-70.png,0003-00-0008-47.png
14,123,0,1444162445928,1444162446135,350,400,0,0,0,3,4,1,34,0003-00-0003-76.png,0005-00-0000-15.png
14,124,1,1444162446162,1444162446904,899,384,0,0,0,2,1,1,21,0002-00-0002-66.png,0004-00-0003-99.png
14,125,0,1444162446931,1444162447688,900,436,0,0,0,3,2,1,32,0003-00-0009-46.png,0002-00-0000-08.png
14,126,1,1444162447719,1444162448463,907,489,0,0,0,2,3,1,23,0002-00-0008-24.png,0003-00-0008-14.png
14,127,1,1444162448492,1444162449103,902,496,0,0,0,1,2,1,12,0004-00-0006-57.png,0002-00-0002-51.png
14,128,1,1444162449142,1444162449702,314,393,0,0,0,5,4,1,54,0001-00-0007-43.png,0005-00-0003-39.png
14,129,1,1444162449724,1444162450410,350,358,0,0,0,2,3,1,23,0002-00-0001-79.png,0003-00-0009-67.png
14,130,1,1444162450475,1444162451236,940,404,0,0,0,4,3,1,43,0005-00-0004-10.png,0003-00-0009-56.png
14,131,0,1444162451267,1444162452228,913,476,0,0,0,1,2,1,12,0004-00-0001-35.png,0002-00-0004-73.png
14,132,1,1444162452258,1444162452891,328,358,0,0,0,5,4,1,54,0001-00-0004-38.png,0005-00-0006-38.png
14,133,1,1444162452914,1444162453383,325,423,0,0,0,3,4,1,34,0003-00-0007-96.png,0005-00-0003-15.png
14,134,1,1444162453410,1444162454002,350,385,0,0,0,2,1,1,21,0002-00-0000-34.png,0004-00-0004-83.png
14,135,1,1444162454038,1444162454667,924,510,0,0,0,5,4,1,54,0001-00-0008-26.png,0005-00-0007-83.png
14,136,0,1444162454704,1444162455148,904,402,0,0,0,3,2,1,32,0003-00-0004-28.png,0002-00-0002-74.png
14,137,1,1444162455167,1444162455700,401,514,0,0,0,3,2,1,32,0003-00-0000-76.png,0002-00-0005-15.png
14,138,0,1444162455727,1444162456636,355,438,0,0,0,5,4,1,54,0001-00-0008-05.png,0005-00-0000-61.png
14,139,0,1444162456663,1444162456978,351,381,0,0,0,2,1,1,21,0002-00-0001-60.png,0004-00-0008-42.png
14,140,1,1444162457032,1444162457945,911,483,0,0,0,5,4,1,54,0001-00-0008-19.png,0005-00-0007-69.png
14,141,1,1444162457977,1444162458227,925,382,0,0,0,2,3,1,23,0002-00-0002-75.png,0003-00-0008-36.png
14,142,1,1444162458249,1444162458507,356,382,0,0,0,4,3,1,43,0005-00-0001-86.png,0003-00-0008-28.png
14,143,1,1444162458547,1444162458813,435,559,0,0,0,1,2,1,12,0004-00-0004-79.png,0002-00-0007-32.png
14,144,0,1444162458831,1444162459407,401,512,0,0,0,3,4,1,34,0003-00-0001-95.png,0005-00-0005-46.png
14,145,1,1444162459440,1444162460789,299,409,0,0,0,5,4,1,54,0001-00-0004-40.png,0005-00-0005-52.png
14,146,0,1444162460823,1444162461336,326,357,0,0,0,2,3,1,23,0002-00-0006-59.png,0003-00-0003-39.png
14,147,0,1444162461382,1444162461564,363,408,0,0,0,2,1,1,21,0002-00-0005-03.png,0004-00-0001-21.png
14,148,1,1444162461590,1444162462143,931,490,0,0,0,3,4,1,34,0003-00-0006-21.png,0005-00-0006-05.png
14,149,1,1444162462166,1444162462610,915,498,0,0,0,3,2,1,32,0003-00-0006-20.png,0002-00-0006-49.png
14,150,1,1444162462651,1444162463320,343,400,0,0,0,1,2,1,12,0004-00-0005-39.png,0002-00-0003-52.png
14,151,0,1444162463349,1444162464332,504,332,0,0,0,5,4,1,54,0001-00-0008-73.png,0005-00-0009-71.png
14,152,1,1444162464352,1444162464901,297,335,0,0,0,4,3,1,43,0005-00-0000-36.png,0003-00-0005-28.png
14,153,0,1444162464939,1444162465108,401,397,0,0,0,2,3,1,23,0002-00-0008-78.png,0003-00-0006-18.png
14,154,1,1444162465151,1444162465861,878,392,0,0,0,1,2,1,12,0004-00-0000-79.png,0002-00-0006-92.png
14,155,1,1444162465887,1444162466346,509,357,0,0,0,5,4,1,54,0001-00-0007-82.png,0005-00-0008-32.png
14,156,1,1444162466376,1444162466722,903,377,0,0,0,3,2,1,32,0003-00-0000-56.png,0002-00-0006-25.png
14,157,1,1444162466753,1444162467327,939,345,0,0,0,4,3,1,43,0005-00-0005-31.png,0003-00-0008-19.png
14,158,0,1444162467346,1444162467718,904,376,0,0,0,2,1,1,21,0002-00-0001-03.png,0004-00-0006-81.png
14,159,0,1444162467760,1444162468548,937,398,0,0,0,3,4,1,34,0003-00-0007-92.png,0005-00-0002-92.png
14,160,1,1444162468583,1444162469071,337,411,0,0,0,5,4,1,54,0001-00-0006-42.png,0005-00-0007-06.png
14,161,1,1444162469098,1444162469487,895,371,0,0,0,5,4,1,54,0001-00-0005-07.png,0005-00-0006-97.png
14,162,1,1444162469519,1444162469790,263,381,0,0,0,2,1,1,21,0002-00-0002-01.png,0004-00-0002-62.png
14,163,1,1444162469818,1444162470634,337,439,0,0,0,1,2,1,12,0004-00-0008-44.png,0002-00-0007-82.png
14,164,0,1444162470666,1444162471109,926,385,0,0,0,5,4,1,54,0001-00-0000-80.png,0005-00-0004-71.png
14,165,0,1444162471144,1444162471262,927,388,0,0,0,2,3,1,23,0002-00-0008-86.png,0003-00-0006-57.png
14,166,1,1444162471292,1444162471805,305,384,0,0,0,3,2,1,32,0003-00-0005-57.png,0002-00-0003-66.png
14,167,0,1444162471841,1444162472373,875,399,0,0,0,3,4,1,34,0003-00-0006-88.png,0005-00-0000-01.png
14,168,1,1444162472399,1444162472758,338,417,0,0,0,4,3,1,43,0005-00-0003-91.png,0003-00-0005-88.png
14,169,0,1444162472806,1444162473555,909,472,0,0,0,3,4,1,34,0003-00-0002-25.png,0005-00-0004-30.png
14,170,1,1444162473581,1444162473931,875,438,0,0,0,2,1,1,21,0002-00-0007-68.png,0004-00-0003-30.png
14,171,1,1444162473964,1444162474534,299,331,0,0,0,5,4,1,54,0001-00-0001-42.png,0005-00-0006-30.png
14,172,0,1444162474561,1444162474969,443,496,0,0,0,2,3,1,23,0002-00-0002-75.png,0003-00-0004-08.png
14,173,1,1444162474985,1444162476006,314,413,0,0,0,4,3,1,43,0005-00-0001-29.png,0003-00-0003-78.png
14,174,1,1444162476028,1444162476574,286,398,0,0,0,5,4,1,54,0001-00-0004-75.png,0005-00-0001-71.png
14,175,1,1444162476596,1444162477597,947,362,0,0,0,3,2,1,32,0003-00-0000-64.png,0002-00-0008-04.png
14,176,1,1444162477616,1444162478873,315,392,0,0,0,1,2,1,12,0004-00-0006-81.png,0002-00-0007-41.png
14,177,0,1444162478905,1444162479375,919,441,0,0,0,2,1,1,21,0002-00-0006-85.png,0004-00-0004-84.png
14,178,0,1444162479408,1444162479618,924,455,0,0,0,3,4,1,34,0003-00-0007-88.png,0005-00-0004-63.png
14,179,1,1444162479646,1444162479990,311,358,0,0,0,3,2,1,32,0003-00-0002-93.png,0002-00-0003-94.png
14,180,0,1444162480034,1444162480338,420,431,0,0,0,4,3,1,43,0005-00-0007-01.png,0003-00-0009-16.png
14,181,1,1444162480373,1444162481425,350,384,0,0,0,1,2,1,12,0004-00-0004-06.png,0002-00-0001-60.png
14,182,1,1444162481452,1444162482211,318,370,0,0,0,5,4,1,54,0001-00-0002-07.png,0005-00-0007-90.png
14,183,0,1444162482237,1444162482590,872,399,0,0,0,5,4,1,54,0001-00-0004-76.png,0005-00-0007-49.png
14,184,1,1444162482610,1444162483142,890,390,0,0,0,2,3,1,23,0002-00-0009-91.png,0003-00-0001-06.png
14,185,1,1444162483181,1444162483477,350,423,0,0,0,2,3,1,23,0002-00-0009-17.png,0003-00-0005-87.png
14,186,1,1444162483512,1444162484038,918,389,0,0,0,5,4,1,54,0001-00-0003-01.png,0005-00-0004-75.png
14,187,0,1444162484070,1444162484537,913,527,0,0,0,5,4,1,54,0001-00-0008-89.png,0005-00-0009-82.png
14,188,0,1444162484574,1444162484732,898,437,0,0,0,3,4,1,34,0003-00-0003-55.png,0005-00-0006-81.png
14,189,1,1444162484759,1444162485068,350,358,0,0,0,4,3,1,43,0005-00-0001-91.png,0003-00-0003-56.png
14,190,1,1444162485097,1444162486047,924,513,0,0,0,3,2,1,32,0003-00-0005-43.png,0002-00-0005-28.png
14,191,1,1444162486080,1444162486339,350,429,0,0,0,1,2,1,12,0004-00-0003-32.png,0002-00-0006-26.png
14,192,1,1444162486364,1444162487104,331,390,0,0,0,2,1,1,21,0002-00-0006-67.png,0004-00-0006-75.png
14,193,0,1444162487124,1444162488208,331,432,0,0,0,1,2,1,12,0004-00-0009-42.png,0002-00-0004-07.png
14,194,1,1444162488229,1444162490056,892,430,0,0,0,4,3,1,43,0005-00-0003-65.png,0003-00-0000-50.png
14,195,0,1444162490081,1444162490680,439,536,0,0,0,3,4,1,34,0003-00-0003-30.png,0005-00-0001-50.png
14,196,0,1444162490699,1444162491239,870,509,0,0,0,2,3,1,23,0002-00-0007-90.png,0003-00-0008-59.png
14,197,0,1444162491265,1444162491885,933,460,0,0,0,5,4,1,54,0001-00-0002-17.png,0005-00-0009-89.png
14,198,1,1444162491902,1444162492324,951,384,0,0,0,3,2,1,32,0003-00-0000-89.png,0002-00-0003-78.png
14,199,0,1444162492354,1444162492889,365,480,0,0,0,2,1,1,21,0002-00-0007-70.png,0004-00-0000-13.png
14,200,0,1444162492928,1444162493272,401,410,0,0,0,5,4,1,54,0001-00-0008-76.png,0005-00-0006-32.png
14,201,1,1444162493294,1444162493463,350,435,0,0,0,2,1,1,21,0002-00-0005-44.png,0004-00-0004-24.png
14,202,1,1444162493483,1444162493853,445,561,0,0,0,1,2,1,12,0004-00-0001-19.png,0002-00-0008-26.png
14,203,1,1444162493886,1444162494509,386,476,0,0,0,4,3,1,43,0005-00-0009-88.png,0003-00-0006-08.png
14,204,1,1444162494527,1444162495419,392,455,0,0,0,3,4,1,34,0003-00-0004-76.png,0005-00-0001-77.png
14,205,1,1444162495441,1444162496156,932,420,0,0,0,3,2,1,32,0003-00-0004-09.png,0002-00-0006-91.png
14,206,1,1444162496185,1444162496696,913,476,0,0,0,5,4,1,54,0001-00-0007-78.png,0005-00-0008-22.png
14,207,0,1444162496719,1444162497194,937,425,0,0,0,5,4,1,54,0001-00-0006-81.png,0005-00-0005-83.png
14,208,0,1444162497222,1444162497843,369,393,0,0,0,2,3,1,23,0002-00-0006-07.png,0003-00-0007-52.png
14,209,0,1444162497868,1444162498429,416,497,0,0,0,2,1,1,21,0002-00-0003-46.png,0004-00-0009-77.png
14,210,0,1444162498470,1444162498922,307,393,0,0,0,5,4,1,54,0001-00-0008-09.png,0005-00-0008-48.png
14,211,1,1444162498948,1444162499746,888,514,0,0,0,3,2,1,32,0003-00-0007-41.png,0002-00-0007-39.png
14,212,0,1444162499784,1444162500456,362,424,0,0,0,3,4,1,34,0003-00-0002-79.png,0005-00-0005-69.png
14,213,0,1444162500502,1444162500869,504,436,0,0,0,1,2,1,12,0004-00-0008-43.png,0002-00-0008-27.png
14,214,1,1444162500906,1444162501946,328,400,0,0,0,2,3,1,23,0002-00-0000-27.png,0003-00-0005-68.png
14,215,0,1444162501973,1444162502455,876,413,0,0,0,5,4,1,54,0001-00-0009-68.png,0005-00-0008-95.png
14,216,0,1444162502473,1444162503292,418,492,0,0,0,4,3,1,43,0005-00-0001-94.png,0003-00-0007-07.png
14,217,1,1444162503318,1444162503802,416,487,0,0,0,2,1,1,21,0002-00-0002-00.png,0004-00-0009-88.png
14,218,1,1444162503836,1444162504626,885,430,0,0,0,5,4,1,54,0001-00-0009-47.png,0005-00-0002-90.png
14,219,1,1444162504647,1444162504812,878,545,0,0,0,5,4,1,54,0001-00-0007-80.png,0005-00-0007-10.png
14,220,1,1444162504838,1444162505129,915,497,0,0,0,4,3,1,43,0005-00-0006-07.png,0003-00-0009-47.png
14,221,0,1444162505149,1444162505590,901,436,0,0,0,3,4,1,34,0003-00-0005-06.png,0005-00-0002-46.png
14,222,1,1444162505611,1444162506086,901,423,0,0,0,3,2,1,32,0003-00-0006-03.png,0002-00-0002-52.png
14,223,0,1444162506126,1444162506682,932,412,0,0,0,1,2,1,12,0004-00-0007-99.png,0002-00-0006-63.png
14,224,0,1444162506706,1444162507603,325,392,0,0,0,2,3,1,23,0002-00-0003-46.png,0003-00-0006-21.png
14,225,0,1444162507633,1444162508283,324,410,0,0,0,5,4,1,54,0001-00-0008-55.png,0005-00-0008-50.png
14,226,1,1444162508321,1444162509245,890,416,0,0,0,2,3,1,23,0002-00-0009-74.png,0003-00-0000-12.png
14,227,0,1444162509270,1444162509714,299,410,0,0,0,3,2,1,32,0003-00-0006-98.png,0002-00-0001-70.png
14,228,0,1444162509744,1444162509993,344,392,0,0,0,3,4,1,34,0003-00-0002-76.png,0005-00-0006-38.png
14,229,1,1444162510022,1444162510445,921,394,0,0,0,2,1,1,21,0002-00-0007-24.png,0004-00-0002-17.png
14,230,1,1444162510474,1444162510728,904,376,0,0,0,1,2,1,12,0004-00-0001-47.png,0002-00-0000-51.png
14,231,1,1444162510759,1444162511031,395,497,0,0,0,5,4,1,54,0001-00-0000-99.png,0005-00-0000-98.png
14,232,0,1444162511065,1444162511562,903,479,0,0,0,4,3,1,43,0005-00-0008-32.png,0003-00-0007-68.png
14,233,0,1444162511594,1444162512267,913,461,0,0,0,2,1,1,21,0002-00-0000-22.png,0004-00-0006-14.png
14,234,0,1444162512307,1444162512455,912,398,0,0,0,4,3,1,43,0005-00-0003-61.png,0003-00-0006-55.png
14,235,1,1444162512476,1444162512898,352,425,0,0,0,5,4,1,54,0001-00-0004-94.png,0005-00-0005-21.png
14,236,1,1444162512928,1444162513734,923,440,0,0,0,5,4,1,54,0001-00-0006-48.png,0005-00-0001-09.png
14,237,0,1444162513754,1444162514393,924,399,0,0,0,2,3,1,23,0002-00-0004-46.png,0003-00-0004-02.png
14,238,0,1444162514427,1444162514731,913,476,0,0,0,3,4,1,34,0003-00-0009-99.png,0005-00-0009-38.png
14,239,0,1444162514760,1444162515003,318,358,0,0,0,3,2,1,32,0003-00-0003-91.png,0002-00-0009-75.png
14,240,1,1444162515029,1444162515288,496,412,0,0,0,1,2,1,12,0004-00-0009-63.png,0002-00-0006-00.png
14,241,0,1444162515325,1444162516353,901,502,0,0,0,4,3,1,43,0005-00-0009-15.png,0003-00-0008-82.png
14,242,1,1444162516385,1444162516770,892,427,0,0,0,5,4,1,54,0001-00-0003-00.png,0005-00-0003-15.png
14,243,1,1444162516795,1444162517345,327,353,0,0,0,5,4,1,54,0001-00-0004-78.png,0005-00-0002-78.png
14,244,0,1444162517370,1444162517656,388,423,0,0,0,2,3,1,23,0002-00-0005-18.png,0003-00-0002-58.png
14,245,1,1444162517701,1444162518035,294,395,0,0,0,2,1,1,21,0002-00-0003-17.png,0004-00-0008-48.png
14,246,0,1444162518063,1444162518231,915,415,0,0,0,3,4,1,34,0003-00-0005-53.png,0005-00-0001-45.png
14,247,1,1444162518259,1444162518860,355,401,0,0,0,3,2,1,32,0003-00-0007-06.png,0002-00-0004-38.png
14,248,1,1444162518886,1444162519748,921,402,0,0,0,1,2,1,12,0004-00-0006-51.png,0002-00-0002-97.png
14,249,1,1444162519771,1444162519920,874,398,0,0,0,3,4,1,34,0003-00-0009-33.png,0005-00-0006-61.png
14,250,0,1444162519958,1444162520237,925,424,0,0,0,3,2,1,32,0003-00-0008-52.png,0002-00-0004-00.png
14,251,1,1444162520266,1444162520610,400,410,0,0,0,5,4,1,54,0001-00-0009-05.png,0005-00-0007-30.png
14,252,1,1444162520634,1444162521211,438,522,0,0,0,1,2,1,12,0004-00-0005-64.png,0002-00-0000-58.png
14,253,0,1444162521250,1444162521477,904,403,0,0,0,4,3,1,43,0005-00-0003-16.png,0003-00-0003-83.png
14,254,1,1444162521513,1444162521856,350,358,0,0,0,5,4,1,54,0001-00-0000-68.png,0005-00-0008-02.png
14,255,0,1444162521882,1444162522446,926,403,0,0,0,2,3,1,23,0002-00-0005-44.png,0003-00-0003-97.png
14,256,1,1444162522483,1444162523423,911,489,0,0,0,2,1,1,21,0002-00-0000-85.png,0004-00-0003-10.png
14,257,1,1444162523450,1444162524156,376,384,0,0,0,1,2,1,12,0004-00-0008-22.png,0002-00-0009-24.png
14,258,0,1444162524181,1444162524854,916,501,0,0,0,5,4,1,54,0001-00-0000-21.png,0005-00-0007-24.png
14,259,1,1444162524891,1444162525311,911,489,0,0,0,2,3,1,23,0002-00-0007-43.png,0003-00-0002-58.png
14,260,0,1444162525338,1444162525832,919,468,0,0,0,5,4,1,54,0001-00-0007-36.png,0005-00-0002-65.png
14,261,1,1444162525848,1444162526758,948,392,0,0,0,2,1,1,21,0002-00-0003-57.png,0004-00-0001-31.png
14,262,1,1444162526778,1444162527131,299,384,0,0,0,3,4,1,34,0003-00-0003-79.png,0005-00-0008-02.png
14,263,1,1444162527159,1444162527756,887,424,0,0,0,3,2,1,32,0003-00-0007-35.png,0002-00-0002-56.png
14,264,0,1444162527784,1444162528147,478,393,0,0,0,4,3,1,43,0005-00-0000-52.png,0003-00-0009-23.png
14,265,1,1444162528190,1444162529482,914,489,0,0,0,4,3,1,43,0005-00-0000-16.png,0003-00-0005-40.png
14,266,1,1444162529518,1444162530354,956,386,0,0,0,3,2,1,32,0003-00-0003-49.png,0002-00-0001-77.png
14,267,0,1444162530386,1444162530979,917,482,0,0,0,1,2,1,12,0004-00-0008-65.png,0002-00-0005-46.png
14,268,0,1444162531006,1444162531750,299,397,0,0,0,2,1,1,21,0002-00-0001-56.png,0004-00-0007-06.png
14,269,1,1444162531781,1444162532500,900,425,0,0,0,3,4,1,34,0003-00-0008-41.png,0005-00-0006-37.png
14,270,1,1444162532533,1444162533092,280,369,0,0,0,5,4,1,54,0001-00-0004-20.png,0005-00-0005-59.png
14,271,0,1444162533118,1444162533441,334,396,0,0,0,5,4,1,54,0001-00-0005-86.png,0005-00-0003-82.png
14,272,0,1444162533467,1444162533964,868,359,0,0,0,2,3,1,23,0002-00-0008-23.png,0003-00-0003-37.png
14,273,1,1444162533995,1444162534928,318,357,0,0,0,5,4,1,54,0001-00-0004-00.png,0005-00-0008-10.png
14,274,1,1444162534947,1444162535616,887,501,0,0,0,2,3,1,23,0002-00-0005-96.png,0003-00-0008-52.png
14,275,0,1444162535663,1444162536134,431,457,0,0,0,4,3,1,43,0005-00-0006-61.png,0003-00-0007-08.png
14,276,0,1444162536161,1444162536799,365,444,0,0,0,3,2,1,32,0003-00-0006-30.png,0002-00-0009-19.png
14,277,0,1444162536831,1444162538122,377,414,0,0,0,5,4,1,54,0001-00-0007-84.png,0005-00-0003-81.png
14,278,0,1444162538146,1444162538388,876,527,0,0,0,2,1,1,21,0002-00-0002-56.png,0004-00-0006-84.png
14,279,1,1444162538411,1444162539482,320,374,0,0,0,3,4,1,34,0003-00-0000-59.png,0005-00-0004-85.png
14,280,1,1444162539516,1444162540009,904,457,0,0,0,1,2,1,12,0004-00-0006-32.png,0002-00-0001-29.png
14,281,1,1444162540041,1444162540222,346,390,0,0,0,1,2,1,12,0004-00-0007-44.png,0002-00-0009-88.png
14,282,1,1444162540269,1444162541226,916,392,0,0,0,3,4,1,34,0003-00-0009-53.png,0005-00-0003-45.png
14,283,0,1444162541260,1444162541741,320,380,0,0,0,2,1,1,21,0002-00-0008-05.png,0004-00-0007-33.png
14,284,1,1444162541757,1444162542116,310,388,0,0,0,4,3,1,43,0005-00-0000-57.png,0003-00-0009-51.png
14,285,0,1444162542159,1444162542658,299,409,0,0,0,5,4,1,54,0001-00-0006-49.png,0005-00-0002-45.png
14,286,0,1444162542680,1444162542995,925,413,0,0,0,2,3,1,23,0002-00-0001-56.png,0003-00-0005-22.png
14,287,1,1444162543031,1444162543284,946,397,0,0,0,5,4,1,54,0001-00-0002-57.png,0005-00-0003-12.png
14,288,0,1444162543313,1444162543672,874,384,0,0,0,3,2,1,32,0003-00-0001-30.png,0002-00-0008-51.png
14,289,1,1444162543707,1444162544333,351,416,0,0,0,3,2,1,32,0003-00-0001-54.png,0002-00-0003-87.png
14,290,0,1444162544361,1444162544947,925,501,0,0,0,1,2,1,12,0004-00-0006-59.png,0002-00-0004-55.png
14,291,0,1444162544971,1444162545293,340,441,0,0,0,3,4,1,34,0003-00-0007-17.png,0005-00-0004-05.png
14,292,0,1444162545318,1444162545718,333,418,0,0,0,5,4,1,54,0001-00-0003-59.png,0005-00-0001-66.png
14,293,0,1444162545745,1444162546148,890,418,0,0,0,4,3,1,43,0005-00-0009-16.png,0003-00-0005-56.png
14,294,1,1444162546174,1444162546652,363,446,0,0,0,5,4,1,54,0001-00-0008-71.png,0005-00-0002-75.png
14,295,1,1444162546678,1444162547018,487,436,0,0,0,2,1,1,21,0002-00-0004-92.png,0004-00-0002-85.png
14,296,1,1444162547056,1444162547627,486,374,0,0,0,2,3,1,23,0002-00-0008-87.png,0003-00-0006-61.png
14,297,0,1444162547654,1444162548792,291,427,0,0,0,5,4,1,54,0001-00-0001-53.png,0005-00-0008-89.png
14,298,1,1444162548810,1444162549447,325,358,0,0,0,4,3,1,43,0005-00-0003-17.png,0003-00-0007-44.png
14,299,1,1444162549472,1444162550010,929,401,0,0,0,3,2,1,32,0003-00-0009-29.png,0002-00-0005-33.png
14,300,0,1444162550036,1444162550312,392,424,0,0,0,5,4,1,54,0001-00-0000-05.png,0005-00-0001-39.png
14,301,0,1444162550332,1444162550629,940,467,0,0,0,3,4,1,34,0003-00-0003-16.png,0005-00-0000-77.png
14,302,0,1444162550661,1444162551179,938,459,0,0,0,2,1,1,21,0002-00-0007-91.png,0004-00-0003-76.png
14,303,1,1444162551200,1444162552619,389,371,0,0,0,1,2,1,12,0004-00-0007-22.png,0002-00-0004-82.png
14,304,1,1444162552649,1444162553677,343,357,0,0,0,2,3,1,23,0002-00-0000-73.png,0003-00-0003-58.png
14,305,1,1444162553712,1444162554511,286,352,0,0,0,3,2,1,32,0003-00-0004-59.png,0002-00-0002-26.png
14,306,0,1444162554553,1444162554861,400,489,0,0,0,5,4,1,54,0001-00-0000-68.png,0005-00-0005-90.png
14,307,1,1444162554885,1444162555195,904,403,0,0,0,1,2,1,12,0004-00-0003-13.png,0002-00-0001-74.png
14,308,0,1444162555232,1444162556755,352,394,0,0,0,2,1,1,21,0002-00-0005-47.png,0004-00-0009-11.png
14,309,0,1444162556782,1444162557455,915,443,0,0,0,3,4,1,34,0003-00-0006-79.png,0005-00-0001-41.png
14,310,1,1444162557481,1444162557744,956,401,0,0,0,5,4,1,54,0001-00-0006-27.png,0005-00-0005-56.png
14,311,0,1444162557766,1444162558034,384,427,0,0,0,4,3,1,43,0005-00-0008-79.png,0003-00-0006-29.png
14,312,1,1444162558054,1444162558434,912,425,0,0,0,2,3,1,23,0002-00-0002-25.png,0003-00-0008-78.png
14,313,0,1444162558459,1444162558647,414,502,0,0,0,5,4,1,54,0001-00-0000-05.png,0005-00-0005-11.png
14,314,0,1444162558679,1444162559328,935,410,0,0,0,2,3,1,23,0002-00-0002-64.png,0003-00-0004-28.png
14,315,0,1444162559345,1444162559808,916,420,0,0,0,4,3,1,43,0005-00-0006-04.png,0003-00-0003-06.png
14,316,1,1444162559833,1444162560094,927,408,0,0,0,2,1,1,21,0002-00-0007-00.png,0004-00-0008-24.png
14,317,1,1444162560140,1444162560759,332,403,0,0,0,3,4,1,34,0003-00-0005-22.png,0005-00-0007-23.png
14,318,0,1444162560789,1444162561306,324,412,0,0,0,1,2,1,12,0004-00-0007-14.png,0002-00-0008-99.png
14,319,1,1444162561342,1444162561937,408,516,0,0,0,3,2,1,32,0003-00-0007-31.png,0002-00-0004-82.png
14,320,0,1444162561961,1444162562362,369,423,0,0,0,5,4,1,54,0001-00-0004-46.png,0005-00-0005-70.png
14,321,1,1444162562384,1444162562889,925,373,0,0,0,4,3,1,43,0005-00-0008-84.png,0003-00-0000-00.png
14,322,1,1444162562912,1444162563228,413,475,0,0,0,2,1,1,21,0002-00-0005-94.png,0004-00-0009-37.png
14,323,0,1444162563257,1444162563592,351,421,0,0,0,5,4,1,54,0001-00-0007-05.png,0005-00-0004-66.png
14,324,1,1444162563622,1444162564468,427,541,0,0,0,3,2,1,32,0003-00-0005-31.png,0002-00-0004-02.png
14,325,1,1444162564498,1444162564709,326,370,0,0,0,5,4,1,54,0001-00-0006-72.png,0005-00-0004-21.png
14,326,1,1444162564728,1444162565334,895,397,0,0,0,1,2,1,12,0004-00-0001-71.png,0002-00-0002-81.png
14,327,1,1444162565374,1444162565979,928,416,0,0,0,3,4,1,34,0003-00-0007-22.png,0005-00-0004-37.png
14,328,0,1444162566006,1444162566781,380,478,0,0,0,2,3,1,23,0002-00-0004-14.png,0003-00-0003-46.png
14,329,1,1444162566816,1444162567412,341,432,0,0,0,5,4,1,54,0001-00-0003-15.png,0005-00-0000-24.png
14,330,0,1444162567443,1444162567670,880,442,0,0,0,3,4,1,34,0003-00-0001-45.png,0005-00-0007-00.png
14,331,1,1444162567702,1444162568302,894,415,0,0,0,2,3,1,23,0002-00-0000-75.png,0003-00-0008-63.png
14,332,0,1444162568330,1444162568824,360,402,0,0,0,2,1,1,21,0002-00-0007-04.png,0004-00-0004-41.png
14,333,0,1444162568866,1444162569232,292,391,0,0,0,4,3,1,43,0005-00-0000-83.png,0003-00-0003-52.png
14,334,0,1444162569259,1444162571250,907,482,0,0,0,3,2,1,32,0003-00-0005-96.png,0002-00-0004-28.png
14,335,0,1444162571274,1444162571525,332,443,0,0,0,5,4,1,54,0001-00-0007-58.png,0005-00-0000-81.png
14,336,1,1444162571547,1444162572679,340,395,0,0,0,1,2,1,12,0004-00-0003-94.png,0002-00-0008-49.png
14,337,1,1444162572707,1444162572998,350,436,0,0,0,2,1,1,21,0002-00-0009-20.png,0004-00-0009-93.png
14,338,0,1444162573038,1444162573291,885,498,0,0,0,5,4,1,54,0001-00-0001-67.png,0005-00-0003-90.png
14,339,1,1444162573331,1444162573530,387,481,0,0,0,1,2,1,12,0004-00-0009-30.png,0002-00-0001-16.png
14,340,1,1444162573564,1444162573776,917,472,0,0,0,5,4,1,54,0001-00-0008-91.png,0005-00-0009-22.png
14,341,1,1444162573809,1444162574194,926,377,0,0,0,3,4,1,34,0003-00-0005-87.png,0005-00-0007-00.png
14,342,0,1444162574228,1444162574478,875,501,0,0,0,3,2,1,32,0003-00-0009-46.png,0002-00-0002-18.png
14,343,1,1444162574503,1444162575001,401,358,0,0,0,2,3,1,23,0002-00-0003-27.png,0003-00-0004-44.png
14,344,0,1444162575032,1444162575513,875,435,0,0,0,4,3,1,43,0005-00-0005-39.png,0003-00-0009-91.png
14,345,1,1444162575543,1444162576192,294,421,0,0,0,2,3,1,23,0002-00-0001-69.png,0003-00-0004-45.png
14,346,1,1444162576219,1444162576636,381,462,0,0,0,3,2,1,32,0003-00-0009-85.png,0002-00-0005-91.png
14,347,0,1444162576677,1444162577050,415,538,0,0,0,1,2,1,12,0004-00-0001-11.png,0002-00-0006-07.png
14,348,1,1444162577093,1444162577712,401,413,0,0,0,5,4,1,54,0001-00-0003-12.png,0005-00-0007-75.png
14,349,1,1444162577730,1444162578195,324,396,0,0,0,4,3,1,43,0005-00-0006-22.png,0003-00-0009-06.png
14,350,0,1444162578226,1444162578412,925,410,0,0,0,5,4,1,54,0001-00-0000-99.png,0005-00-0007-00.png
14,351,1,1444162578437,1444162578669,951,401,0,0,0,2,1,1,21,0002-00-0007-92.png,0004-00-0009-13.png
14,352,0,1444162578718,1444162578953,926,417,0,0,0,3,4,1,34,0003-00-0002-27.png,0005-00-0005-68.png
14,353,1,1444162578995,1444162579637,374,385,0,0,0,4,3,1,43,0005-00-0003-02.png,0003-00-0005-28.png
14,354,1,1444162579659,1444162580244,407,515,0,0,0,3,4,1,34,0003-00-0004-14.png,0005-00-0003-16.png
14,355,1,1444162580270,1444162580886,332,384,0,0,0,1,2,1,12,0004-00-0006-89.png,0002-00-0001-88.png
14,356,0,1444162580933,1444162581349,410,510,0,0,0,5,4,1,54,0001-00-0005-69.png,0005-00-0001-01.png
14,357,1,1444162581374,1444162581816,917,493,0,0,0,5,4,1,54,0001-00-0007-09.png,0005-00-0003-53.png
14,358,0,1444162581846,1444162582405,396,514,0,0,0,2,1,1,21,0002-00-0003-10.png,0004-00-0004-15.png
14,359,1,1444162582449,1444162582916,879,429,0,0,0,2,3,1,23,0002-00-0003-53.png,0003-00-0009-51.png
14,360,0,1444162582948,1444162584036,897,508,0,0,0,3,2,1,32,0003-00-0006-10.png,0002-00-0003-38.png
14,361,1,1444162584071,1444162584457,349,436,0,0,0,4,3,1,43,0005-00-0004-81.png,0003-00-0001-78.png
14,362,0,1444162584493,1444162585077,508,419,0,0,0,2,1,1,21,0002-00-0000-73.png,0004-00-0006-82.png
14,363,0,1444162585100,1444162585502,964,467,0,0,0,1,2,1,12,0004-00-0001-36.png,0002-00-0002-00.png
14,364,0,1444162585539,1444162585966,222,462,0,0,0,3,2,1,32,0003-00-0003-78.png,0002-00-0000-06.png
14,365,1,1444162586000,1444162586220,893,416,0,0,0,5,4,1,54,0001-00-0005-67.png,0005-00-0009-27.png
14,366,1,1444162586257,1444162586603,354,422,0,0,0,5,4,1,54,0001-00-0001-38.png,0005-00-0009-63.png
14,367,0,1444162586650,1444162587391,880,403,0,0,0,3,4,1,34,0003-00-0002-25.png,0005-00-0009-54.png
14,368,0,1444162587421,1444162588107,900,501,0,0,0,2,3,1,23,0002-00-0000-70.png,0003-00-0003-57.png
14,369,1,1444162588147,1444162588676,365,474,0,0,0,4,3,1,43,0005-00-0002-32.png,0003-00-0006-85.png
14,370,1,1444162588702,1444162589082,917,398,0,0,0,3,2,1,32,0003-00-0009-17.png,0002-00-0009-32.png
14,371,1,1444162589112,1444162589722,354,405,0,0,0,1,2,1,12,0004-00-0001-23.png,0002-00-0002-64.png
14,372,1,1444162589764,1444162590661,484,397,0,0,0,3,4,1,34,0003-00-0002-56.png,0005-00-0003-22.png
14,373,0,1444162590709,1444162591428,504,425,0,0,0,2,1,1,21,0002-00-0000-48.png,0004-00-0009-89.png
14,374,1,1444162591450,1444162592006,334,374,0,0,0,5,4,1,54,0001-00-0002-26.png,0005-00-0006-50.png
14,375,1,1444162592042,1444162592230,396,488,0,0,0,5,4,1,54,0001-00-0008-82.png,0005-00-0000-65.png
14,376,1,1444162592254,1444162592968,310,383,0,0,0,2,3,1,23,0002-00-0008-90.png,0003-00-0009-50.png
14,377,1,1444162592996,1444162593275,933,486,0,0,0,3,2,1,32,0003-00-0008-95.png,0002-00-0009-72.png
14,378,1,1444162593308,1444162594772,320,395,0,0,0,4,3,1,43,0005-00-0006-35.png,0003-00-0008-54.png
14,379,1,1444162594809,1444162595471,355,357,0,0,0,3,4,1,34,0003-00-0004-21.png,0005-00-0006-42.png
14,380,1,1444162595497,1444162596027,902,495,0,0,0,2,3,1,23,0002-00-0004-71.png,0003-00-0008-30.png
14,381,1,1444162596053,1444162596617,320,421,0,0,0,5,4,1,54,0001-00-0001-01.png,0005-00-0009-48.png
14,382,1,1444162596657,1444162597434,324,403,0,0,0,5,4,1,54,0001-00-0000-94.png,0005-00-0000-10.png
14,383,1,1444162597457,1444162598007,376,397,0,0,0,1,2,1,12,0004-00-0006-99.png,0002-00-0002-99.png
14,384,1,1444162598031,1444162598406,896,497,0,0,0,2,1,1,21,0002-00-0001-29.png,0004-00-0003-20.png
14,385,0,1444162598443,1444162598970,926,411,0,0,0,3,4,1,34,0003-00-0000-06.png,0005-00-0006-11.png
14,386,0,1444162599004,1444162599481,348,394,0,0,0,4,3,1,43,0005-00-0005-45.png,0003-00-0005-46.png
14,387,1,1444162599510,1444162600443,320,415,0,0,0,1,2,1,12,0004-00-0003-24.png,0002-00-0007-05.png
14,388,0,1444162600474,1444162601342,881,493,0,0,0,5,4,1,54,0001-00-0004-01.png,0005-00-0009-82.png
14,389,0,1444162601372,1444162602468,305,436,0,0,0,3,2,1,32,0003-00-0006-08.png,0002-00-0002-88.png
14,390,0,1444162602498,1444162603095,365,449,0,0,0,2,1,1,21,0002-00-0007-40.png,0004-00-0002-26.png
14,391,1,1444162603118,1444162603470,900,427,0,0,0,2,3,1,23,0002-00-0009-11.png,0003-00-0005-17.png
14,392,0,1444162603518,1444162603712,901,435,0,0,0,5,4,1,54,0001-00-0000-74.png,0005-00-0008-84.png
14,393,0,1444162603752,1444162604802,350,410,0,0,0,1,2,1,12,0004-00-0004-92.png,0002-00-0008-98.png
14,394,0,1444162604826,1444162605412,901,396,0,0,0,5,4,1,54,0001-00-0005-24.png,0005-00-0003-25.png
14,395,1,1444162605442,1444162606120,899,516,0,0,0,4,3,1,43,0005-00-0006-91.png,0003-00-0005-80.png
14,396,0,1444162606145,1444162606409,898,496,0,0,0,2,1,1,21,0002-00-0004-82.png,0004-00-0008-71.png
14,397,1,1444162606445,1444162607042,339,408,0,0,0,2,3,1,23,0002-00-0008-33.png,0003-00-0007-26.png
14,398,1,1444162607068,1444162607410,321,421,0,0,0,3,2,1,32,0003-00-0006-38.png,0002-00-0005-20.png
14,399,0,1444162607440,1444162608257,897,387,0,0,0,3,4,1,34,0003-00-0000-48.png,0005-00-0006-25.png
14,400,1,1444162608289,1444162609379,350,392,0,0,0,5,4,1,54,0001-00-0004-65.png,0005-00-0007-60.png
14,401,1,1444162609411,1444162609672,890,426,0,0,0,4,3,1,43,0005-00-0003-39.png,0003-00-0008-06.png
14,402,1,1444162609702,1444162610050,920,417,0,0,0,5,4,1,54,0001-00-0008-34.png,0005-00-0001-99.png
14,403,1,1444162610073,1444162610240,287,355,0,0,0,3,4,1,34,0003-00-0004-65.png,0005-00-0009-81.png
14,404,0,1444162610268,1444162610810,905,416,0,0,0,2,1,1,21,0002-00-0006-67.png,0004-00-0002-64.png
14,405,1,1444162610844,1444162611321,344,413,0,0,0,3,2,1,32,0003-00-0009-99.png,0002-00-0004-26.png
14,406,1,1444162611351,1444162612403,351,409,0,0,0,2,3,1,23,0002-00-0001-70.png,0003-00-0005-69.png
14,407,1,1444162612426,1444162612854,925,385,0,0,0,5,4,1,54,0001-00-0005-95.png,0005-00-0003-72.png
14,408,1,1444162612884,1444162613254,903,520,0,0,0,1,2,1,12,0004-00-0005-37.png,0002-00-0003-73.png
14,409,1,1444162613287,1444162613520,414,528,0,0,0,2,3,1,23,0002-00-0005-75.png,0003-00-0000-26.png
14,410,1,1444162613545,1444162613921,874,438,0,0,0,1,2,1,12,0004-00-0006-94.png,0002-00-0007-92.png
14,411,1,1444162613965,1444162614324,503,457,0,0,0,3,4,1,34,0003-00-0004-94.png,0005-00-0009-08.png
14,412,1,1444162614354,1444162614805,899,395,0,0,0,2,1,1,21,0002-00-0004-56.png,0004-00-0000-42.png
14,413,1,1444162614833,1444162615225,349,399,0,0,0,5,4,1,54,0001-00-0005-29.png,0005-00-0007-45.png
14,414,1,1444162615269,1444162615454,339,387,0,0,0,4,3,1,43,0005-00-0003-26.png,0003-00-0009-06.png
14,415,0,1444162615499,1444162615708,877,363,0,0,0,5,4,1,54,0001-00-0008-41.png,0005-00-0005-81.png
14,416,0,1444162615733,1444162616323,912,502,0,0,0,3,2,1,32,0003-00-0008-11.png,0002-00-0009-98.png
14,417,1,1444162616349,1444162616546,925,490,0,0,0,5,4,1,54,0001-00-0003-93.png,0005-00-0007-33.png
14,418,0,1444162616575,1444162616858,379,429,0,0,0,2,3,1,23,0002-00-0004-67.png,0003-00-0000-78.png
14,419,1,1444162616904,1444162617468,289,381,0,0,0,3,4,1,34,0003-00-0005-99.png,0005-00-0003-50.png
14,420,1,1444162617487,1444162617733,344,386,0,0,0,1,2,1,12,0004-00-0008-92.png,0002-00-0006-44.png
14,421,0,1444162617762,1444162618131,902,519,0,0,0,2,1,1,21,0002-00-0005-33.png,0004-00-0000-54.png
14,422,1,1444162618160,1444162618620,936,425,0,0,0,5,4,1,54,0001-00-0000-77.png,0005-00-0004-79.png
14,423,0,1444162618643,1444162618845,370,490,0,0,0,4,3,1,43,0005-00-0009-92.png,0003-00-0005-68.png
14,424,1,1444162618877,1444162619712,879,427,0,0,0,3,2,1,32,0003-00-0008-63.png,0002-00-0000-95.png
14,425,1,1444162619749,1444162620260,886,378,0,0,0,3,4,1,34,0003-00-0007-63.png,0005-00-0008-95.png
14,426,1,1444162620285,1444162620731,374,462,0,0,0,5,4,1,54,0001-00-0006-05.png,0005-00-0001-78.png
14,427,1,1444162620762,1444162621462,414,485,0,0,0,1,2,1,12,0004-00-0008-02.png,0002-00-0004-04.png
14,428,0,1444162621492,1444162622341,338,344,0,0,0,2,1,1,21,0002-00-0006-00.png,0004-00-0003-52.png
14,429,1,1444162622379,1444162623249,516,384,0,0,0,3,2,1,32,0003-00-0002-82.png,0002-00-0002-35.png
14,430,1,1444162623264,1444162623793,408,492,0,0,0,2,3,1,23,0002-00-0007-66.png,0003-00-0001-52.png
14,431,0,1444162623817,1444162624356,899,422,0,0,0,5,4,1,54,0001-00-0003-11.png,0005-00-0000-06.png
14,432,0,1444162624386,1444162625483,901,502,0,0,0,4,3,1,43,0005-00-0009-19.png,0003-00-0001-36.png
14,433,1,1444162625509,1444162626445,316,402,0,0,0,5,4,1,54,0001-00-0005-85.png,0005-00-0005-03.png
14,434,1,1444162626466,1444162626602,400,385,0,0,0,3,2,1,32,0003-00-0004-20.png,0002-00-0009-47.png
14,435,1,1444162626618,1444162627044,922,420,0,0,0,3,4,1,34,0003-00-0006-90.png,0005-00-0000-93.png
14,436,0,1444162627080,1444162627663,943,414,0,0,0,2,1,1,21,0002-00-0001-71.png,0004-00-0002-29.png
14,437,1,1444162627697,1444162628085,909,410,0,0,0,4,3,1,43,0005-00-0003-55.png,0003-00-0002-14.png
14,438,1,1444162628117,1444162628576,889,513,0,0,0,5,4,1,54,0001-00-0008-77.png,0005-00-0006-00.png
14,439,0,1444162628611,1444162629071,305,374,0,0,0,1,2,1,12,0004-00-0006-24.png,0002-00-0009-23.png
14,440,0,1444162629093,1444162629586,354,422,0,0,0,2,3,1,23,0002-00-0007-65.png,0003-00-0006-75.png
14,441,1,1444162629616,1444162629992,874,527,0,0,0,5,4,1,54,0001-00-0008-17.png,0005-00-0003-97.png
14,442,1,1444162630011,1444162630193,399,436,0,0,0,2,1,1,21,0002-00-0006-81.png,0004-00-0004-22.png
14,443,1,1444162630223,1444162630672,914,398,0,0,0,4,3,1,43,0005-00-0000-19.png,0003-00-0003-44.png
14,444,1,1444162630697,1444162631311,374,434,0,0,0,1,2,1,12,0004-00-0004-87.png,0002-00-0000-19.png
14,445,0,1444162631351,1444162631700,958,414,0,0,0,5,4,1,54,0001-00-0001-12.png,0005-00-0008-23.png
14,446,1,1444162631727,1444162632132,401,410,0,0,0,2,3,1,23,0002-00-0001-24.png,0003-00-0000-31.png
14,447,0,1444162632175,1444162633319,340,426,0,0,0,3,2,1,32,0003-00-0000-46.png,0002-00-0007-74.png
14,448,0,1444162633350,1444162634088,360,375,0,0,0,3,4,1,34,0003-00-0002-33.png,0005-00-0009-49.png
14,449,1,1444162634110,1444162634381,888,410,0,0,0,4,3,1,43,0005-00-0003-68.png,0003-00-0007-61.png
14,450,0,1444162634410,1444162635163,435,534,0,0,0,2,3,1,23,0002-00-0006-61.png,0003-00-0004-02.png
14,451,0,1444162635206,1444162635661,875,425,0,0,0,3,4,1,34,0003-00-0004-32.png,0005-00-0005-59.png
14,452,0,1444162635695,1444162636325,871,418,0,0,0,3,2,1,32,0003-00-0005-76.png,0002-00-0002-31.png
14,453,1,1444162636347,1444162637092,366,502,0,0,0,5,4,1,54,0001-00-0001-01.png,0005-00-0005-37.png
14,454,1,1444162637120,1444162637441,889,397,0,0,0,5,4,1,54,0001-00-0000-33.png,0005-00-0007-78.png
14,455,1,1444162637477,1444162638103,324,403,0,0,0,1,2,1,12,0004-00-0003-84.png,0002-00-0007-09.png
14,456,0,1444162638125,1444162638411,320,441,0,0,0,2,1,1,21,0002-00-0004-94.png,0004-00-0002-18.png
14,457,1,1444162638439,1444162638875,376,409,0,0,0,2,3,1,23,0002-00-0005-82.png,0003-00-0008-33.png
14,458,0,1444162638908,1444162639460,933,387,0,0,0,3,2,1,32,0003-00-0006-59.png,0002-00-0005-83.png
14,459,1,1444162639489,1444162640497,373,385,0,0,0,1,2,1,12,0004-00-0001-54.png,0002-00-0002-72.png
14,460,0,1444162640522,1444162641887,311,426,0,0,0,4,3,1,43,0005-00-0005-77.png,0003-00-0009-69.png
14,461,1,1444162641909,1444162642275,214,508,0,0,0,2,1,1,21,0002-00-0004-58.png,0004-00-0002-05.png
14,462,1,1444162642305,1444162642802,367,442,0,0,0,3,4,1,34,0003-00-0002-75.png,0005-00-0006-49.png
14,463,0,1444162642846,1444162643301,508,387,0,0,0,5,4,1,54,0001-00-0004-28.png,0005-00-0003-51.png
14,464,1,1444162643327,1444162643623,451,421,0,0,0,5,4,1,54,0001-00-0006-26.png,0005-00-0002-08.png
14,465,0,1444162643653,1444162644194,478,395,0,0,0,1,2,1,12,0004-00-0009-44.png,0002-00-0005-52.png
14,466,1,1444162644221,1444162644825,902,436,0,0,0,5,4,1,54,0001-00-0000-63.png,0005-00-0007-72.png
14,467,1,1444162644844,1444162645310,874,452,0,0,0,2,3,1,23,0002-00-0004-36.png,0003-00-0008-79.png
14,468,1,1444162645350,1444162646063,921,425,0,0,0,5,4,1,54,0001-00-0008-83.png,0005-00-0003-34.png
14,469,1,1444162646096,1444162646419,919,416,0,0,0,4,3,1,43,0005-00-0000-12.png,0003-00-0008-33.png
14,470,1,1444162646458,1444162646740,902,410,0,0,0,3,4,1,34,0003-00-0003-73.png,0005-00-0000-10.png
14,471,1,1444162646778,1444162647082,872,408,0,0,0,3,2,1,32,0003-00-0006-52.png,0002-00-0009-85.png
14,472,1,1444162647118,1444162647555,490,454,0,0,0,2,1,1,21,0002-00-0005-02.png,0004-00-0007-30.png
14,473,1,1444162647585,1444162648329,903,403,0,0,0,3,4,1,34,0003-00-0008-67.png,0005-00-0006-48.png
14,474,1,1444162648355,1444162648917,350,358,0,0,0,5,4,1,54,0001-00-0000-31.png,0005-00-0008-54.png
14,475,0,1444162648941,1444162649333,416,529,0,0,0,2,3,1,23,0002-00-0006-27.png,0003-00-0007-48.png
14,476,1,1444162649350,1444162650080,372,418,0,0,0,1,2,1,12,0004-00-0000-65.png,0002-00-0004-90.png
14,477,0,1444162650104,1444162650474,337,419,0,0,0,4,3,1,43,0005-00-0008-04.png,0003-00-0009-03.png
14,478,1,1444162650520,1444162651438,319,394,0,0,0,3,2,1,32,0003-00-0000-77.png,0002-00-0003-70.png
14,479,1,1444162651463,1444162652023,376,384,0,0,0,2,1,1,21,0002-00-0004-41.png,0004-00-0004-96.png
14,480,1,1444162652054,1444162652491,905,376,0,0,0,5,4,1,54,0001-00-0006-80.png,0005-00-0004-85.png
14,481,1,1444162652515,1444162653085,899,509,0,0,0,3,2,1,32,0003-00-0005-30.png,0002-00-0009-06.png
14,482,0,1444162653119,1444162653763,401,384,0,0,0,2,1,1,21,0002-00-0006-03.png,0004-00-0006-29.png
14,483,0,1444162653803,1444162654573,335,425,0,0,0,2,3,1,23,0002-00-0003-62.png,0003-00-0004-21.png
14,484,0,1444162654606,1444162654914,351,436,0,0,0,5,4,1,54,0001-00-0001-46.png,0005-00-0007-51.png
14,485,0,1444162654945,1444162655334,222,497,0,0,0,1,2,1,12,0004-00-0001-10.png,0002-00-0006-33.png
14,486,1,1444162655368,1444162655857,350,423,0,0,0,3,4,1,34,0003-00-0005-89.png,0005-00-0000-71.png
14,487,1,1444162655889,1444162656157,879,532,0,0,0,5,4,1,54,0001-00-0001-20.png,0005-00-0002-30.png
14,488,0,1444162656182,1444162657050,418,509,0,0,0,4,3,1,43,0005-00-0002-92.png,0003-00-0004-00.png
14,489,0,1444162657085,1444162657448,925,371,0,0,0,3,2,1,32,0003-00-0005-80.png,0002-00-0000-30.png
14,490,0,1444162657484,1444162657966,345,387,0,0,0,5,4,1,54,0001-00-0003-24.png,0005-00-0008-50.png
14,491,1,1444162657999,1444162659113,904,376,0,0,0,2,3,1,23,0002-00-0006-71.png,0003-00-0004-17.png
14,492,0,1444162659140,1444162659598,891,458,0,0,0,2,1,1,21,0002-00-0007-69.png,0004-00-0000-37.png
14,493,1,1444162659626,1444162660482,905,389,0,0,0,4,3,1,43,0005-00-0004-58.png,0003-00-0001-55.png
14,494,1,1444162660504,1444162660966,330,395,0,0,0,5,4,1,54,0001-00-0007-49.png,0005-00-0003-24.png
14,495,1,1444162660990,1444162661469,325,358,0,0,0,1,2,1,12,0004-00-0006-41.png,0002-00-0009-64.png
14,496,1,1444162661490,1444162662804,918,511,0,0,0,3,4,1,34,0003-00-0006-64.png,0005-00-0000-65.png
14,497,1,1444162662836,1444162663148,401,515,0,0,0,3,2,1,32,0003-00-0008-37.png,0002-00-0009-98.png
14,498,1,1444162663181,1444162663480,400,411,0,0,0,2,3,1,23,0002-00-0004-78.png,0003-00-0003-88.png
14,499,1,1444162663521,1444162663985,886,516,0,0,0,3,4,1,34,0003-00-0005-02.png,0005-00-0001-39.png
14,500,1,1444162664007,1444162664789,888,502,0,0,0,5,4,1,54,0001-00-0008-06.png,0005-00-0001-21.png
14,501,1,1444162664816,1444162665281,414,538,0,0,0,2,1,1,21,0002-00-0009-88.png,0004-00-0003-82.png
14,502,0,1444162665315,1444162665740,350,410,0,0,0,4,3,1,43,0005-00-0007-28.png,0003-00-0002-54.png
14,503,1,1444162665777,1444162666112,303,406,0,0,0,5,4,1,54,0001-00-0007-34.png,0005-00-0007-70.png
14,504,1,1444162666144,1444162666574,512,377,0,0,0,1,2,1,12,0004-00-0001-45.png,0002-00-0005-29.png
14,505,0,1444162666603,1444162666980,924,436,0,0,0,4,3,1,43,0005-00-0008-44.png,0003-00-0000-68.png
14,506,1,1444162667015,1444162667384,363,491,0,0,0,3,4,1,34,0003-00-0004-59.png,0005-00-0003-15.png
14,507,1,1444162667408,1444162667797,376,401,0,0,0,2,1,1,21,0002-00-0004-19.png,0004-00-0007-04.png
14,508,0,1444162667827,1444162668285,417,508,0,0,0,1,2,1,12,0004-00-0006-13.png,0002-00-0002-27.png
14,509,1,1444162668324,1444162668748,471,427,0,0,0,2,3,1,23,0002-00-0000-73.png,0003-00-0004-47.png
14,510,1,1444162668762,1444162669062,350,344,0,0,0,3,2,1,32,0003-00-0001-42.png,0002-00-0004-29.png
14,511,0,1444162669103,1444162669384,900,398,0,0,0,5,4,1,54,0001-00-0002-10.png,0005-00-0004-85.png
14,512,1,1444162669418,1444162670663,350,396,0,0,0,5,4,1,54,0001-00-0005-61.png,0005-00-0003-01.png
14,513,1,1444162670693,1444162671884,859,362,0,0,0,1,2,1,12,0004-00-0003-88.png,0002-00-0006-63.png
14,514,1,1444162671914,1444162672533,914,477,0,0,0,3,2,1,32,0003-00-0006-30.png,0002-00-0008-98.png
14,515,1,1444162672556,1444162672881,913,384,0,0,0,3,4,1,34,0003-00-0002-15.png,0005-00-0003-91.png
14,516,1,1444162672906,1444162673447,945,345,0,0,0,2,1,1,21,0002-00-0000-93.png,0004-00-0003-80.png
14,517,1,1444162673474,1444162674321,338,385,0,0,0,2,3,1,23,0002-00-0009-94.png,0003-00-0007-73.png
14,518,1,1444162674348,1444162675328,861,508,0,0,0,4,3,1,43,0005-00-0009-07.png,0003-00-0006-88.png
14,519,1,1444162675366,1444162675797,898,394,0,0,0,5,4,1,54,0001-00-0008-53.png,0005-00-0008-39.png
14,520,0,1444162675827,1444162676108,504,424,0,0,0,5,4,1,54,0001-00-0000-17.png,0005-00-0003-07.png
14,521,0,1444162676139,1444162676403,918,455,0,0,0,2,3,1,23,0002-00-0001-87.png,0003-00-0008-81.png
14,522,0,1444162676435,1444162677022,926,424,0,0,0,3,4,1,34,0003-00-0000-14.png,0005-00-0008-20.png
14,523,0,1444162677048,1444162677306,323,423,0,0,0,1,2,1,12,0004-00-0008-80.png,0002-00-0004-73.png
14,524,1,1444162677348,1444162677564,342,427,0,0,0,4,3,1,43,0005-00-0000-88.png,0003-00-0006-46.png
14,525,0,1444162677598,1444162678333,896,497,0,0,0,2,1,1,21,0002-00-0004-60.png,0004-00-0008-24.png
14,526,0,1444162678371,1444162679036,952,397,0,0,0,5,4,1,54,0001-00-0007-29.png,0005-00-0006-25.png
14,527,1,1444162679059,1444162679272,359,483,0,0,0,5,4,1,54,0001-00-0003-71.png,0005-00-0002-44.png
14,528,0,1444162679298,1444162679665,874,384,0,0,0,3,2,1,32,0003-00-0004-90.png,0002-00-0003-31.png
14,529,1,1444162679702,1444162680112,977,371,0,0,0,5,4,1,54,0001-00-0009-66.png,0005-00-0007-55.png
14,530,0,1444162680140,1444162680781,896,368,0,0,0,5,4,1,54,0001-00-0001-84.png,0005-00-0004-84.png
14,531,1,1444162680808,1444162681069,342,401,0,0,0,2,3,1,23,0002-00-0009-90.png,0003-00-0006-74.png
14,532,0,1444162681100,1444162681435,421,515,0,0,0,1,2,1,12,0004-00-0006-24.png,0002-00-0009-31.png
14,533,1,1444162681459,1444162682328,934,460,0,0,0,2,1,1,21,0002-00-0001-07.png,0004-00-0004-56.png
14,534,1,1444162682370,1444162682737,315,421,0,0,0,3,4,1,34,0003-00-0006-47.png,0005-00-0008-02.png
14,535,0,1444162682771,1444162683244,307,406,0,0,0,3,2,1,32,0003-00-0003-86.png,0002-00-0002-37.png
14,536,0,1444162683295,1444162683842,198,513,0,0,0,4,3,1,43,0005-00-0003-08.png,0003-00-0000-87.png
14,537,0,1444162683860,1444162684253,879,402,0,0,0,3,2,1,32,0003-00-0001-07.png,0002-00-0001-98.png
14,538,1,1444162684272,1444162684884,354,474,0,0,0,2,3,1,23,0002-00-0002-81.png,0003-00-0005-72.png
14,539,1,1444162684911,1444162685370,360,410,0,0,0,2,1,1,21,0002-00-0008-64.png,0004-00-0000-18.png
14,540,1,1444162685413,1444162685892,879,428,0,0,0,5,4,1,54,0001-00-0009-40.png,0005-00-0003-76.png
14,541,1,1444162685921,1444162686525,357,395,0,0,0,1,2,1,12,0004-00-0007-42.png,0002-00-0009-60.png
14,542,1,1444162686556,1444162687056,925,386,0,0,0,3,4,1,34,0003-00-0008-45.png,0005-00-0003-33.png
14,543,0,1444162687079,1444162687696,942,418,0,0,0,5,4,1,54,0001-00-0006-86.png,0005-00-0009-19.png
14,544,1,1444162687723,1444162688058,350,423,0,0,0,4,3,1,43,0005-00-0007-18.png,0003-00-0008-90.png
14,545,0,1444162688079,1444162688791,891,422,0,0,0,1,2,1,12,0004-00-0006-54.png,0002-00-0006-62.png
14,546,1,1444162688819,1444162689137,325,410,0,0,0,5,4,1,54,0001-00-0002-95.png,0005-00-0007-46.png
14,547,0,1444162689167,1444162690436,873,507,0,0,0,4,3,1,43,0005-00-0007-70.png,0003-00-0003-70.png
14,548,0,1444162690459,1444162691395,875,424,0,0,0,2,3,1,23,0002-00-0009-80.png,0003-00-0000-46.png
14,549,1,1444162691415,1444162691729,416,521,0,0,0,3,4,1,34,0003-00-0004-82.png,0005-00-0003-88.png
14,550,1,1444162691771,1444162692151,350,449,0,0,0,3,2,1,32,0003-00-0001-50.png,0002-00-0006-35.png
14,551,0,1444162692180,1444162692391,885,533,0,0,0,5,4,1,54,0001-00-0008-02.png,0005-00-0005-37.png
14,552,1,1444162692433,1444162692607,384,440,0,0,0,2,1,1,21,0002-00-0009-97.png,0004-00-0001-14.png
14,553,1,1444162692640,1444162692848,312,449,0,0,0,5,4,1,54,0001-00-0009-51.png,0005-00-0003-21.png
14,554,1,1444162692882,1444162693213,933,413,0,0,0,2,1,1,21,0002-00-0009-91.png,0004-00-0000-78.png
14,555,1,1444162693240,1444162693403,884,526,0,0,0,5,4,1,54,0001-00-0002-93.png,0005-00-0008-81.png
14,556,1,1444162693431,1444162694981,376,410,0,0,0,2,3,1,23,0002-00-0002-55.png,0003-00-0006-36.png
14,557,0,1444162695010,1444162695880,315,440,0,0,0,1,2,1,12,0004-00-0005-01.png,0002-00-0004-54.png
14,558,1,1444162695905,1444162697309,414,545,0,0,0,3,4,1,34,0003-00-0009-38.png,0005-00-0008-70.png
14,559,1,1444162697332,1444162697659,302,424,0,0,0,3,2,1,32,0003-00-0004-39.png,0002-00-0001-86.png
14,560,0,1444162697685,1444162698478,891,518,0,0,0,4,3,1,43,0005-00-0005-55.png,0003-00-0004-33.png
14,561,1,1444162698514,1444162698851,876,409,0,0,0,4,3,1,43,0005-00-0001-40.png,0003-00-0004-13.png
14,562,1,1444162698883,1444162699111,862,496,0,0,0,5,4,1,54,0001-00-0006-80.png,0005-00-0000-82.png
14,563,1,1444162699140,1444162699559,390,424,0,0,0,2,3,1,23,0002-00-0000-12.png,0003-00-0005-73.png
14,564,1,1444162699587,1444162699999,368,365,0,0,0,2,1,1,21,0002-00-0005-13.png,0004-00-0009-01.png
14,565,1,1444162700035,1444162700892,368,435,0,0,0,5,4,1,54,0001-00-0005-38.png,0005-00-0007-23.png
14,566,1,1444162700933,1444162701448,299,423,0,0,0,3,2,1,32,0003-00-0008-63.png,0002-00-0007-92.png
14,567,1,1444162701478,1444162702396,900,400,0,0,0,3,4,1,34,0003-00-0003-25.png,0005-00-0003-97.png
14,568,0,1444162702429,1444162703531,920,468,0,0,0,1,2,1,12,0004-00-0007-09.png,0002-00-0003-51.png
14,569,1,1444162703578,1444162704268,462,386,0,0,0,2,1,1,21,0002-00-0001-77.png,0004-00-0001-94.png
14,570,1,1444162704295,1444162704913,900,411,0,0,0,2,3,1,23,0002-00-0008-47.png,0003-00-0008-39.png
14,571,0,1444162704949,1444162705274,953,442,0,0,0,5,4,1,54,0001-00-0004-02.png,0005-00-0000-37.png
14,572,1,1444162705296,1444162705825,394,512,0,0,0,1,2,1,12,0004-00-0006-90.png,0002-00-0008-97.png
14,573,1,1444162705846,1444162706606,324,373,0,0,0,5,4,1,54,0001-00-0007-01.png,0005-00-0002-19.png
14,574,1,1444162706639,1444162706844,413,529,0,0,0,3,4,1,34,0003-00-0001-84.png,0005-00-0006-31.png
14,575,1,1444162706876,1444162707610,876,465,0,0,0,4,3,1,43,0005-00-0001-56.png,0003-00-0001-59.png
14,576,1,1444162707633,1444162708558,866,430,0,0,0,3,2,1,32,0003-00-0002-93.png,0002-00-0004-48.png
14,577,0,1444162708602,1444162710126,921,485,0,0,0,2,3,1,23,0002-00-0004-58.png,0003-00-0004-50.png
14,578,1,1444162710160,1444162710508,920,410,0,0,0,1,2,1,12,0004-00-0004-40.png,0002-00-0006-09.png
14,579,1,1444162710542,1444162710823,875,462,0,0,0,2,1,1,21,0002-00-0003-92.png,0004-00-0009-31.png
14,580,1,1444162710864,1444162711276,927,430,0,0,0,5,4,1,54,0001-00-0009-54.png,0005-00-0007-56.png
14,581,0,1444162711313,1444162712046,336,382,0,0,0,4,3,1,43,0005-00-0008-17.png,0003-00-0006-23.png
14,582,0,1444162712070,1444162712402,318,409,0,0,0,5,4,1,54,0001-00-0004-12.png,0005-00-0000-84.png
14,583,1,1444162712429,1444162713837,366,422,0,0,0,3,4,1,34,0003-00-0002-52.png,0005-00-0001-70.png
14,584,1,1444162713863,1444162714395,429,555,0,0,0,3,2,1,32,0003-00-0009-20.png,0002-00-0009-35.png
14,585,1,1444162714418,1444162714799,924,486,0,0,0,2,3,1,23,0002-00-0003-86.png,0003-00-0009-53.png
14,586,1,1444162714817,1444162715141,932,487,0,0,0,3,2,1,32,0003-00-0001-72.png,0002-00-0002-86.png
14,587,1,1444162715164,1444162715714,345,419,0,0,0,1,2,1,12,0004-00-0008-50.png,0002-00-0002-84.png
14,588,1,1444162715733,1444162715904,941,471,0,0,0,5,4,1,54,0001-00-0009-29.png,0005-00-0007-53.png
14,589,0,1444162715933,1444162716468,939,371,0,0,0,2,1,1,21,0002-00-0009-49.png,0004-00-0006-99.png
14,590,0,1444162716485,1444162716909,931,349,0,0,0,4,3,1,43,0005-00-0002-55.png,0003-00-0008-00.png
14,591,1,1444162716936,1444162717305,900,491,0,0,0,3,4,1,34,0003-00-0003-01.png,0005-00-0004-65.png
14,592,0,1444162717331,1444162717806,899,307,0,0,0,5,4,1,54,0001-00-0005-96.png,0005-00-0001-37.png
14,593,1,1444162717830,1444162718120,401,384,0,0,0,3,2,1,32,0003-00-0006-88.png,0002-00-0000-97.png
14,594,0,1444162718149,1444162718360,319,425,0,0,0,1,2,1,12,0004-00-0009-34.png,0002-00-0000-47.png
14,595,0,1444162718391,1444162718529,918,399,0,0,0,2,3,1,23,0002-00-0004-77.png,0003-00-0001-61.png
14,596,1,1444162718556,1444162718803,892,394,0,0,0,2,1,1,21,0002-00-0008-88.png,0004-00-0007-86.png
14,597,1,1444162718829,1444162719457,390,488,0,0,0,5,4,1,54,0001-00-0004-16.png,0005-00-0007-44.png
14,598,0,1444162719488,1444162720167,380,520,0,0,0,5,4,1,54,0001-00-0004-55.png,0005-00-0008-29.png
14,599,1,1444162720194,1444162720927,906,426,0,0,0,4,3,1,43,0005-00-0004-02.png,0003-00-0000-68.png
14,600,0,1444162720957,1444162721596,894,415,0,0,0,3,4,1,34,0003-00-0003-68.png,0005-00-0001-31.png
14,601,0,1444162721632,1444162722440,915,504,0,0,0,5,4,1,54,0001-00-0007-18.png,0005-00-0007-73.png
14,602,0,1444162722470,1444162723031,922,401,0,0,0,4,3,1,43,0005-00-0002-14.png,0003-00-0007-81.png
14,603,1,1444162723057,1444162723323,912,398,0,0,0,3,2,1,32,0003-00-0007-75.png,0002-00-0002-87.png
14,604,1,1444162723366,1444162723844,350,429,0,0,0,1,2,1,12,0004-00-0005-83.png,0002-00-0006-32.png
14,605,0,1444162723879,1444162724243,349,438,0,0,0,5,4,1,54,0001-00-0005-26.png,0005-00-0004-81.png
14,606,1,1444162724268,1444162724649,866,402,0,0,0,2,1,1,21,0002-00-0000-07.png,0004-00-0008-49.png
14,607,1,1444162724678,1444162725019,339,424,0,0,0,3,4,1,34,0003-00-0009-58.png,0005-00-0008-07.png
14,608,0,1444162725043,1444162725617,353,426,0,0,0,2,3,1,23,0002-00-0001-57.png,0003-00-0001-49.png
14,609,1,1444162725646,1444162726096,904,401,0,0,0,1,2,1,12,0004-00-0004-59.png,0002-00-0003-96.png
14,610,1,1444162726132,1444162726463,349,410,0,0,0,2,3,1,23,0002-00-0006-72.png,0003-00-0000-84.png
14,611,0,1444162726503,1444162727091,893,431,0,0,0,5,4,1,54,0001-00-0009-65.png,0005-00-0001-08.png
14,612,1,1444162727127,1444162727696,915,538,0,0,0,3,4,1,34,0003-00-0000-32.png,0005-00-0006-29.png
14,613,1,1444162727718,1444162728261,313,403,0,0,0,3,2,1,32,0003-00-0004-39.png,0002-00-0003-45.png
14,614,1,1444162728293,1444162728605,376,358,0,0,0,5,4,1,54,0001-00-0007-90.png,0005-00-0001-47.png
14,615,0,1444162728642,1444162729183,898,508,0,0,0,4,3,1,43,0005-00-0005-12.png,0003-00-0007-90.png
14,616,1,1444162729202,1444162729679,318,448,0,0,0,2,1,1,21,0002-00-0008-81.png,0004-00-0006-89.png
14,617,1,1444162729705,1444162730024,887,528,0,0,0,2,1,1,21,0002-00-0001-78.png,0004-00-0000-71.png
14,618,0,1444162730061,1444162730310,927,408,0,0,0,3,2,1,32,0003-00-0001-83.png,0002-00-0000-56.png
14,619,0,1444162730344,1444162730554,877,438,0,0,0,1,2,1,12,0004-00-0008-22.png,0002-00-0009-87.png
14,620,0,1444162730575,1444162731007,302,399,0,0,0,5,4,1,54,0001-00-0008-21.png,0005-00-0003-36.png
14,621,1,1444162731031,1444162732005,910,465,0,0,0,3,4,1,34,0003-00-0003-02.png,0005-00-0003-17.png
14,622,1,1444162732029,1444162732453,325,390,0,0,0,4,3,1,43,0005-00-0002-64.png,0003-00-0001-59.png
14,623,1,1444162732477,1444162733417,350,358,0,0,0,5,4,1,54,0001-00-0004-10.png,0005-00-0006-26.png
14,624,1,1444162733447,1444162733858,928,464,0,0,0,2,3,1,23,0002-00-0009-13.png,0003-00-0001-26.png
14,625,0,1444162733886,1444162734315,339,420,0,0,0,2,3,1,23,0002-00-0007-96.png,0003-00-0000-64.png
14,626,0,1444162734342,1444162734651,931,417,0,0,0,3,2,1,32,0003-00-0001-92.png,0002-00-0009-94.png
14,627,0,1444162734685,1444162735446,401,410,0,0,0,1,2,1,12,0004-00-0005-23.png,0002-00-0000-11.png
14,628,1,1444162735486,1444162735871,875,370,0,0,0,3,4,1,34,0003-00-0005-77.png,0005-00-0000-90.png
14,629,0,1444162735903,1444162736217,890,490,0,0,0,5,4,1,54,0001-00-0008-96.png,0005-00-0002-87.png
14,630,1,1444162736244,1444162737799,240,495,0,0,0,4,3,1,43,0005-00-0000-61.png,0003-00-0002-24.png
14,631,1,1444162737827,1444162738587,522,403,0,0,0,2,1,1,21,0002-00-0009-92.png,0004-00-0001-37.png
14,632,1,1444162738617,1444162738879,376,371,0,0,0,5,4,1,54,0001-00-0009-12.png,0005-00-0009-55.png
14,633,0,1444162738910,1444162739465,290,382,0,0,0,2,3,1,23,0002-00-0004-20.png,0003-00-0007-28.png
14,634,1,1444162739500,1444162740096,338,419,0,0,0,1,2,1,12,0004-00-0007-99.png,0002-00-0002-22.png
14,635,1,1444162740121,1444162740448,376,422,0,0,0,3,2,1,32,0003-00-0005-20.png,0002-00-0003-20.png
14,636,1,1444162740476,1444162740971,925,437,0,0,0,4,3,1,43,0005-00-0000-18.png,0003-00-0008-73.png
14,637,1,1444162741005,1444162741574,361,408,0,0,0,3,4,1,34,0003-00-0003-88.png,0005-00-0002-99.png
14,638,1,1444162741618,1444162742182,350,396,0,0,0,2,1,1,21,0002-00-0006-52.png,0004-00-0003-09.png
14,639,1,1444162742226,1444162742559,390,512,0,0,0,5,4,1,54,0001-00-0002-52.png,0005-00-0002-69.png
14,640,1,1444162742595,1444162742756,906,376,0,0,0,5,4,1,54,0001-00-0003-60.png,0005-00-0008-77.png
14,641,0,1444162742771,1444162743027,431,526,0,0,0,1,2,1,12,0004-00-0009-43.png,0002-00-0008-39.png
14,642,1,1444162743057,1444162744007,862,423,0,0,0,2,3,1,23,0002-00-0008-72.png,0003-00-0000-84.png
14,643,1,1444162744034,1444162744617,917,425,0,0,0,5,4,1,54,0001-00-0009-79.png,0005-00-0001-39.png
14,644,1,1444162744655,1444162745256,346,443,0,0,0,5,4,1,54,0001-00-0007-68.png,0005-00-0009-40.png
14,645,1,1444162745296,1444162745667,376,384,0,0,0,3,2,1,32,0003-00-0002-08.png,0002-00-0009-94.png
14,646,1,1444162745691,1444162746039,902,402,0,0,0,2,1,1,21,0002-00-0007-74.png,0004-00-0002-03.png
14,647,0,1444162746069,1444162746480,338,416,0,0,0,4,3,1,43,0005-00-0001-33.png,0003-00-0006-46.png
14,648,1,1444162746524,1444162747171,900,373,0,0,0,3,4,1,34,0003-00-0004-50.png,0005-00-0008-71.png
14,649,1,1444162747190,1444162747834,341,415,0,0,0,3,4,1,34,0003-00-0004-92.png,0005-00-0006-47.png
14,650,0,1444162747859,1444162748237,953,339,0,0,0,3,2,1,32,0003-00-0001-27.png,0002-00-0001-91.png
14,651,0,1444162748258,1444162748432,331,367,0,0,0,4,3,1,43,0005-00-0001-43.png,0003-00-0003-95.png
14,652,0,1444162748459,1444162749099,376,424,0,0,0,1,2,1,12,0004-00-0009-90.png,0002-00-0004-14.png
14,653,0,1444162749135,1444162749771,363,410,0,0,0,2,3,1,23,0002-00-0002-72.png,0003-00-0000-01.png
14,654,1,1444162749793,1444162750187,884,480,0,0,0,2,1,1,21,0002-00-0002-99.png,0004-00-0000-50.png
14,655,0,1444162750219,1444162751023,951,389,0,0,0,5,4,1,54,0001-00-0007-39.png,0005-00-0002-72.png
14,656,1,1444162751054,1444162751573,338,426,0,0,0,5,4,1,54,0001-00-0006-46.png,0005-00-0007-26.png
14,657,1,1444162751602,1444162752339,906,440,0,0,0,5,4,1,54,0001-00-0000-25.png,0005-00-0001-24.png
14,658,0,1444162752373,1444162753518,350,370,0,0,0,3,2,1,32,0003-00-0005-69.png,0002-00-0003-58.png
14,659,0,1444162753550,1444162753889,876,424,0,0,0,4,3,1,43,0005-00-0007-46.png,0003-00-0001-65.png
14,660,0,1444162753921,1444162754222,919,403,0,0,0,5,4,1,54,0001-00-0000-48.png,0005-00-0001-01.png
14,661,1,1444162754249,1444162754588,376,423,0,0,0,1,2,1,12,0004-00-0007-85.png,0002-00-0008-87.png
14,662,1,1444162754634,1444162754968,349,449,0,0,0,2,3,1,23,0002-00-0000-71.png,0003-00-0007-02.png
14,663,1,1444162754994,1444162755474,364,468,0,0,0,3,4,1,34,0003-00-0001-93.png,0005-00-0006-14.png
14,664,1,1444162755497,1444162756093,917,520,0,0,0,2,1,1,21,0002-00-0008-61.png,0004-00-0006-42.png
14,665,0,1444162756141,1444162756524,900,401,0,0,0,5,4,1,54,0001-00-0009-94.png,0005-00-0009-03.png
14,666,1,1444162756546,1444162757747,395,392,0,0,0,3,4,1,34,0003-00-0005-99.png,0005-00-0008-20.png
14,667,0,1444162757769,1444162758282,867,438,0,0,0,2,1,1,21,0002-00-0004-31.png,0004-00-0002-24.png
14,668,1,1444162758319,1444162759740,883,489,0,0,0,3,2,1,32,0003-00-0003-86.png,0002-00-0007-08.png
14,669,0,1444162759762,1444162760293,376,427,0,0,0,5,4,1,54,0001-00-0001-50.png,0005-00-0002-50.png
14,670,0,1444162760326,1444162760535,338,410,0,0,0,4,3,1,43,0005-00-0000-72.png,0003-00-0008-86.png
14,671,1,1444162760557,1444162761129,350,423,0,0,0,2,3,1,23,0002-00-0002-48.png,0003-00-0008-56.png
14,672,0,1444162761159,1444162761500,900,410,0,0,0,1,2,1,12,0004-00-0003-95.png,0002-00-0002-32.png
14,673,0,1444162761534,1444162761857,350,423,0,0,0,1,2,1,12,0004-00-0007-65.png,0002-00-0002-09.png
14,674,0,1444162761900,1444162762199,886,499,0,0,0,2,3,1,23,0002-00-0002-19.png,0003-00-0008-39.png
14,675,1,1444162762219,1444162762689,865,430,0,0,0,4,3,1,43,0005-00-0007-29.png,0003-00-0008-94.png
14,676,1,1444162762713,1444162762906,504,462,0,0,0,2,1,1,21,0002-00-0007-49.png,0004-00-0002-14.png
14,677,0,1444162762939,1444162763589,897,410,0,0,0,3,4,1,34,0003-00-0008-87.png,0005-00-0008-87.png
14,678,0,1444162763619,1444162763964,921,367,0,0,0,3,2,1,32,0003-00-0001-44.png,0002-00-0008-20.png
14,679,1,1444162763992,1444162764426,971,411,0,0,0,5,4,1,54,0001-00-0004-73.png,0005-00-0003-55.png
14,680,0,1444162764448,1444162764670,296,377,0,0,0,5,4,1,54,0001-00-0007-27.png,0005-00-0001-22.png
14,681,1,1444162764700,1444162765025,899,360,0,0,0,2,3,1,23,0002-00-0008-39.png,0003-00-0009-81.png
14,682,0,1444162765057,1444162765496,342,431,0,0,0,3,4,1,34,0003-00-0000-09.png,0005-00-0008-90.png
14,683,1,1444162765522,1444162765916,327,420,0,0,0,2,1,1,21,0002-00-0001-31.png,0004-00-0007-50.png
14,684,1,1444162765943,1444162766199,897,485,0,0,0,5,4,1,54,0001-00-0006-48.png,0005-00-0001-60.png
14,685,0,1444162766229,1444162766596,505,493,0,0,0,5,4,1,54,0001-00-0001-02.png,0005-00-0004-14.png
14,686,1,1444162766630,1444162766860,891,504,0,0,0,3,2,1,32,0003-00-0006-84.png,0002-00-0008-12.png
14,687,1,1444162766881,1444162767723,471,461,0,0,0,4,3,1,43,0005-00-0002-15.png,0003-00-0002-05.png
14,688,1,1444162767745,1444162769451,862,514,0,0,0,1,2,1,12,0004-00-0008-27.png,0002-00-0001-04.png
14,689,1,1444162769480,1444162770570,329,399,0,0,0,2,3,1,23,0002-00-0009-73.png,0003-00-0009-72.png
14,690,0,1444162770598,1444162770881,970,512,0,0,0,3,4,1,34,0003-00-0001-44.png,0005-00-0007-05.png
14,691,1,1444162770910,1444162771302,350,410,0,0,0,2,1,1,21,0002-00-0008-09.png,0004-00-0007-49.png
14,692,1,1444162771343,1444162772037,890,516,0,0,0,3,2,1,32,0003-00-0007-59.png,0002-00-0007-30.png
14,693,1,1444162772064,1444162772545,400,410,0,0,0,5,4,1,54,0001-00-0006-70.png,0005-00-0000-31.png
14,694,1,1444162772586,1444162772935,323,422,0,0,0,1,2,1,12,0004-00-0001-47.png,0002-00-0009-84.png
14,695,1,1444162772979,1444162773247,857,377,0,0,0,4,3,1,43,0005-00-0004-85.png,0003-00-0005-53.png
14,696,0,1444162773278,1444162773686,376,358,0,0,0,5,4,1,54,0001-00-0007-13.png,0005-00-0007-66.png
14,697,1,1444162773718,1444162774384,329,424,0,0,0,3,4,1,34,0003-00-0009-62.png,0005-00-0007-42.png
14,698,1,1444162774409,1444162775157,388,527,0,0,0,3,2,1,32,0003-00-0003-47.png,0002-00-0004-27.png
14,699,0,1444162775185,1444162775741,874,422,0,0,0,1,2,1,12,0004-00-0006-15.png,0002-00-0004-20.png
14,700,1,1444162775769,1444162776267,894,430,0,0,0,2,1,1,21,0002-00-0008-11.png,0004-00-0001-44.png
14,701,1,1444162776316,1444162776593,858,526,0,0,0,5,4,1,54,0001-00-0007-63.png,0005-00-0008-81.png
14,702,1,1444162776622,1444162777774,918,470,0,0,0,4,3,1,43,0005-00-0001-90.png,0003-00-0000-57.png
14,703,0,1444162777812,1444162778104,372,455,0,0,0,5,4,1,54,0001-00-0008-80.png,0005-00-0006-77.png
14,704,0,1444162778134,1444162778750,323,410,0,0,0,2,3,1,23,0002-00-0008-63.png,0003-00-0005-00.png
14,705,0,1444162778792,1444162779279,376,384,0,0,0,4,3,1,43,0005-00-0005-56.png,0003-00-0006-42.png
14,706,0,1444162779325,1444162779978,894,407,0,0,0,2,3,1,23,0002-00-0003-21.png,0003-00-0006-40.png
14,707,0,1444162780013,1444162780218,331,345,0,0,0,3,2,1,32,0003-00-0000-53.png,0002-00-0005-80.png
14,708,0,1444162780253,1444162780886,299,410,0,0,0,3,4,1,34,0003-00-0002-96.png,0005-00-0007-20.png
14,709,1,1444162780912,1444162781234,876,493,0,0,0,5,4,1,54,0001-00-0000-46.png,0005-00-0002-75.png
14,710,0,1444162781251,1444162781875,339,462,0,0,0,2,1,1,21,0002-00-0008-96.png,0004-00-0008-75.png
14,711,0,1444162781902,1444162782108,910,466,0,0,0,5,4,1,54,0001-00-0002-42.png,0005-00-0009-38.png
14,712,1,1444162782145,1444162782706,902,494,0,0,0,1,2,1,12,0004-00-0005-48.png,0002-00-0007-90.png
14,713,0,1444162782730,1444162783186,373,453,0,0,0,2,3,1,23,0002-00-0001-13.png,0003-00-0007-60.png
14,714,1,1444162783204,1444162783945,942,472,0,0,0,3,2,1,32,0003-00-0009-13.png,0002-00-0008-12.png
14,715,0,1444162783967,1444162784732,902,416,0,0,0,4,3,1,43,0005-00-0001-07.png,0003-00-0009-80.png
14,716,1,1444162784759,1444162785046,920,372,0,0,0,2,1,1,21,0002-00-0008-04.png,0004-00-0002-30.png
14,717,0,1444162785069,1444162785476,387,548,0,0,0,3,4,1,34,0003-00-0005-83.png,0005-00-0001-58.png
14,718,1,1444162785513,1444162786090,401,410,0,0,0,1,2,1,12,0004-00-0008-30.png,0002-00-0000-03.png
14,719,1,1444162786112,1444162786218,387,502,0,0,0,5,4,1,54,0001-00-0006-15.png,0005-00-0002-06.png
14,720,0,1444162786244,1444162787034,350,384,0,0,0,5,4,1,54,0001-00-0008-97.png,0005-00-0001-37.png
14,721,1,1444162787061,1444162787786,355,483,0,0,0,3,4,1,34,0003-00-0000-75.png,0005-00-0002-09.png
14,722,1,1444162787817,1444162788205,870,370,0,0,0,5,4,1,54,0001-00-0009-34.png,0005-00-0008-12.png
14,723,0,1444162788233,1444162788597,401,384,0,0,0,3,2,1,32,0003-00-0008-22.png,0002-00-0005-86.png
14,724,1,1444162788637,1444162788951,864,482,0,0,0,1,2,1,12,0004-00-0003-41.png,0002-00-0004-15.png
14,725,1,1444162788974,1444162790111,432,520,0,0,0,4,3,1,43,0005-00-0001-85.png,0003-00-0000-11.png
14,726,0,1444162790143,1444162790638,376,397,0,0,0,5,4,1,54,0001-00-0001-59.png,0005-00-0002-14.png
14,727,1,1444162790664,1444162791187,904,402,0,0,0,2,3,1,23,0002-00-0009-62.png,0003-00-0006-08.png
14,728,1,1444162791219,1444162791442,401,384,0,0,0,2,1,1,21,0002-00-0002-06.png,0004-00-0008-65.png
14,729,1,1444162791470,1444162791841,271,508,0,0,0,2,1,1,21,0002-00-0000-25.png,0004-00-0009-28.png
14,730,1,1444162791882,1444162792641,507,442,0,0,0,3,2,1,32,0003-00-0002-75.png,0002-00-0008-63.png
14,731,1,1444162792678,1444162793695,889,489,0,0,0,4,3,1,43,0005-00-0007-21.png,0003-00-0007-68.png
14,732,0,1444162793723,1444162794227,273,488,0,0,0,5,4,1,54,0001-00-0007-49.png,0005-00-0001-92.png
14,733,1,1444162794249,1444162795037,329,397,0,0,0,5,4,1,54,0001-00-0009-72.png,0005-00-0009-69.png
14,734,1,1444162795065,1444162795972,916,494,0,0,0,2,3,1,23,0002-00-0002-01.png,0003-00-0009-44.png
14,735,0,1444162795993,1444162796426,366,402,0,0,0,1,2,1,12,0004-00-0007-59.png,0002-00-0005-00.png
14,736,0,1444162796468,1444162796895,335,397,0,0,0,3,4,1,34,0003-00-0001-54.png,0005-00-0005-32.png
14,737,0,1444162796922,1444162797232,376,423,0,0,0,3,2,1,32,0003-00-0001-38.png,0002-00-0006-69.png
14,738,0,1444162797252,1444162797686,944,382,0,0,0,5,4,1,54,0001-00-0001-59.png,0005-00-0002-93.png
14,739,1,1444162797723,1444162798202,358,442,0,0,0,5,4,1,54,0001-00-0000-91.png,0005-00-0001-94.png
14,740,1,1444162798229,1444162798760,401,510,0,0,0,2,3,1,23,0002-00-0003-17.png,0003-00-0004-76.png
14,741,1,1444162798786,1444162799076,374,408,0,0,0,3,4,1,34,0003-00-0004-81.png,0005-00-0003-66.png
14,742,1,1444162799095,1444162799377,911,425,0,0,0,2,1,1,21,0002-00-0007-08.png,0004-00-0003-95.png
14,743,0,1444162799396,1444162800352,901,401,0,0,0,4,3,1,43,0005-00-0005-78.png,0003-00-0002-26.png
14,744,1,1444162800377,1444162800806,355,434,0,0,0,1,2,1,12,0004-00-0002-75.png,0002-00-0001-85.png
14,745,1,1444162800833,1444162801335,409,441,0,0,0,3,4,1,34,0003-00-0001-27.png,0005-00-0004-02.png
14,746,1,1444162801353,1444162802703,860,500,0,0,0,4,3,1,43,0005-00-0006-66.png,0003-00-0003-68.png
14,747,1,1444162802733,1444162804344,906,439,0,0,0,2,1,1,21,0002-00-0000-42.png,0004-00-0002-25.png
14,748,1,1444162804406,1444162805063,872,484,0,0,0,2,3,1,23,0002-00-0004-21.png,0003-00-0000-01.png
14,749,1,1444162805107,1444162805684,401,384,0,0,0,1,2,1,12,0004-00-0000-01.png,0002-00-0003-64.png
14,750,1,1444162805706,1444162805807,919,494,0,0,0,5,4,1,54,0001-00-0009-62.png,0005-00-0002-92.png
14,751,0,1444162805839,1444162806720,340,441,0,0,0,5,4,1,54,0001-00-0003-57.png,0005-00-0004-01.png
14,752,0,1444162806745,1444162807002,406,430,0,0,0,3,2,1,32,0003-00-0006-01.png,0002-00-0000-92.png
14,753,1,1444162807022,1444162807529,348,449,0,0,0,1,2,1,12,0004-00-0009-11.png,0002-00-0007-38.png
14,754,1,1444162807559,1444162807864,365,440,0,0,0,5,4,1,54,0001-00-0007-41.png,0005-00-0000-97.png
14,755,0,1444162807897,1444162808316,325,449,0,0,0,2,3,1,23,0002-00-0000-57.png,0003-00-0009-32.png
14,756,1,1444162808351,1444162808593,869,403,0,0,0,3,4,1,34,0003-00-0009-19.png,0005-00-0005-01.png
14,757,0,1444162808622,1444162808991,388,425,0,0,0,4,3,1,43,0005-00-0009-54.png,0003-00-0001-09.png
14,758,1,1444162809023,1444162809287,919,399,0,0,0,5,4,1,54,0001-00-0007-49.png,0005-00-0002-12.png
14,759,0,1444162809311,1444162809993,897,419,0,0,0,2,1,1,21,0002-00-0006-71.png,0004-00-0001-45.png
14,760,1,1444162810025,1444162810428,898,453,0,0,0,3,2,1,32,0003-00-0007-77.png,0002-00-0000-41.png
14,761,0,1444162810450,1444162811102,907,404,0,0,0,1,2,1,12,0004-00-0006-77.png,0002-00-0007-91.png
14,762,0,1444162811129,1444162811655,350,358,0,0,0,4,3,1,43,0005-00-0001-57.png,0003-00-0002-55.png
14,763,1,1444162811677,1444162812116,858,457,0,0,0,5,4,1,54,0001-00-0009-46.png,0005-00-0006-85.png
14,764,0,1444162812145,1444162812502,520,410,0,0,0,5,4,1,54,0001-00-0000-39.png,0005-00-0002-03.png
14,765,1,1444162812536,1444162813769,923,401,0,0,0,3,4,1,34,0003-00-0002-10.png,0005-00-0005-85.png
14,766,1,1444162813798,1444162814255,362,448,0,0,0,2,1,1,21,0002-00-0006-49.png,0004-00-0009-34.png
14,767,1,1444162814279,1444162815547,392,555,0,0,0,3,2,1,32,0003-00-0001-66.png,0002-00-0005-02.png
14,768,0,1444162815577,1444162816363,324,424,0,0,0,2,3,1,23,0002-00-0005-25.png,0003-00-0001-81.png
14,769,0,1444162816383,1444162817169,347,464,0,0,0,4,3,1,43,0005-00-0003-54.png,0003-00-0003-88.png
14,770,0,1444162817215,1444162817621,922,401,0,0,0,2,1,1,21,0002-00-0005-83.png,0004-00-0008-08.png
14,771,0,1444162817658,1444162818031,334,413,0,0,0,3,4,1,34,0003-00-0003-77.png,0005-00-0008-47.png
14,772,1,1444162818064,1444162818283,901,468,0,0,0,5,4,1,54,0001-00-0002-55.png,0005-00-0008-40.png
14,773,0,1444162818349,1444162819031,363,446,0,0,0,5,4,1,54,0001-00-0005-85.png,0005-00-0004-70.png
14,774,1,1444162819052,1444162820021,273,410,0,0,0,1,2,1,12,0004-00-0004-42.png,0002-00-0009-43.png
14,775,1,1444162820065,1444162820726,345,416,0,0,0,2,3,1,23,0002-00-0009-54.png,0003-00-0009-17.png
14,776,0,1444162820753,1444162821056,928,417,0,0,0,3,2,1,32,0003-00-0006-82.png,0002-00-0008-77.png
14,777,1,1444162821085,1444162821576,874,490,0,0,0,5,4,1,54,0001-00-0009-53.png,0005-00-0004-10.png
14,778,0,1444162821615,1444162822737,913,423,0,0,0,2,3,1,23,0002-00-0007-04.png,0003-00-0007-95.png
14,779,1,1444162822763,1444162823711,348,392,0,0,0,3,2,1,32,0003-00-0005-57.png,0002-00-0008-87.png
14,780,1,1444162823741,1444162824141,894,486,0,0,0,2,1,1,21,0002-00-0008-18.png,0004-00-0009-00.png
14,781,0,1444162824160,1444162824666,338,416,0,0,0,3,4,1,34,0003-00-0000-62.png,0005-00-0001-60.png
14,782,0,1444162824705,1444162824991,292,393,0,0,0,1,2,1,12,0004-00-0008-11.png,0002-00-0009-93.png
14,783,1,1444162825022,1444162826378,317,396,0,0,0,5,4,1,54,0001-00-0001-68.png,0005-00-0008-68.png
14,784,1,1444162826407,1444162827151,376,423,0,0,0,4,3,1,43,0005-00-0005-95.png,0003-00-0000-17.png
14,785,1,1444162827173,1444162827928,899,437,0,0,0,4,3,1,43,0005-00-0000-41.png,0003-00-0003-11.png
14,786,1,1444162827950,1444162828799,350,475,0,0,0,3,2,1,32,0003-00-0008-82.png,0002-00-0001-31.png
14,787,1,1444162828824,1444162829139,305,399,0,0,0,2,1,1,21,0002-00-0007-24.png,0004-00-0008-53.png
14,788,0,1444162829178,1444162829574,331,401,0,0,0,3,4,1,34,0003-00-0004-19.png,0005-00-0006-50.png
14,789,0,1444162829599,1444162829865,358,454,0,0,0,5,4,1,54,0001-00-0006-83.png,0005-00-0007-45.png
14,790,0,1444162829896,1444162830731,346,438,0,0,0,2,3,1,23,0002-00-0001-56.png,0003-00-0009-79.png
14,791,1,1444162830754,1444162831936,952,345,0,0,0,5,4,1,54,0001-00-0008-19.png,0005-00-0008-21.png
14,792,1,1444162831968,1444162833449,893,428,0,0,0,1,2,1,12,0004-00-0000-41.png,0002-00-0002-76.png
14,793,0,1444162833477,1444162833677,504,453,0,0,0,5,4,1,54,0001-00-0002-25.png,0005-00-0008-53.png
14,794,1,1444162833707,1444162834017,401,423,0,0,0,3,2,1,32,0003-00-0001-96.png,0002-00-0001-60.png
14,795,0,1444162834046,1444162835211,902,499,0,0,0,1,2,1,12,0004-00-0004-89.png,0002-00-0002-72.png
14,796,1,1444162835230,1444162835475,343,422,0,0,0,2,1,1,21,0002-00-0004-68.png,0004-00-0007-70.png
14,797,1,1444162835504,1444162836735,339,359,0,0,0,2,3,1,23,0002-00-0009-12.png,0003-00-0007-31.png
14,798,1,1444162836753,1444162837484,952,403,0,0,0,5,4,1,54,0001-00-0009-22.png,0005-00-0000-47.png
14,799,1,1444162837507,1444162837892,901,409,0,0,0,3,4,1,34,0003-00-0006-92.png,0005-00-0004-10.png
14,800,1,1444162837934,1444162838896,858,473,0,0,0,4,3,1,43,0005-00-0006-26.png,0003-00-0004-27.png
14,801,1,1444162838917,1444162839207,345,357,0,0,0,3,2,1,32,0003-00-0009-45.png,0002-00-0007-18.png
14,802,0,1444162839236,1444162839957,922,393,0,0,0,5,4,1,54,0001-00-0006-10.png,0005-00-0000-59.png
14,803,1,1444162839987,1444162840654,896,366,0,0,0,5,4,1,54,0001-00-0002-50.png,0005-00-0002-48.png
14,804,1,1444162840675,1444162841062,294,363,0,0,0,2,3,1,23,0002-00-0005-67.png,0003-00-0000-30.png
14,805,0,1444162841097,1444162841448,341,393,0,0,0,4,3,1,43,0005-00-0001-33.png,0003-00-0002-17.png
14,806,0,1444162841480,1444162841968,912,398,0,0,0,1,2,1,12,0004-00-0000-81.png,0002-00-0003-21.png
14,807,1,1444162841989,1444162842411,321,417,0,0,0,2,1,1,21,0002-00-0000-91.png,0004-00-0009-08.png
14,808,1,1444162842440,1444162842582,523,448,0,0,0,3,4,1,34,0003-00-0003-54.png,0005-00-0007-44.png
14,809,1,1444162842609,1444162842919,323,394,0,0,0,4,3,1,43,0005-00-0002-24.png,0003-00-0001-95.png
14,810,1,1444162842944,1444162844276,403,513,0,0,0,3,4,1,34,0003-00-0007-10.png,0005-00-0000-16.png
14,811,1,1444162844316,1444162844778,910,545,0,0,0,2,3,1,23,0002-00-0009-41.png,0003-00-0004-32.png
14,812,0,1444162844800,1444162845143,933,438,0,0,0,1,2,1,12,0004-00-0003-50.png,0002-00-0009-88.png
14,813,0,1444162845177,1444162845436,367,468,0,0,0,3,2,1,32,0003-00-0001-24.png,0002-00-0004-81.png
14,814,1,1444162845474,1444162845854,861,481,0,0,0,5,4,1,54,0001-00-0001-63.png,0005-00-0009-39.png
14,815,0,1444162845878,1444162846122,869,484,0,0,0,5,4,1,54,0001-00-0000-93.png,0005-00-0003-10.png
14,816,1,1444162846149,1444162846728,355,421,0,0,0,2,1,1,21,0002-00-0004-21.png,0004-00-0003-03.png
14,817,1,1444162846762,1444162847130,337,419,0,0,0,3,2,1,32,0003-00-0003-82.png,0002-00-0006-10.png
14,818,1,1444162847156,1444162847453,294,416,0,0,0,4,3,1,43,0005-00-0008-77.png,0003-00-0005-61.png
14,819,0,1444162847475,1444162848097,906,426,0,0,0,3,4,1,34,0003-00-0006-30.png,0005-00-0006-63.png
14,820,1,1444162848121,1444162848626,401,384,0,0,0,2,1,1,21,0002-00-0001-80.png,0004-00-0005-50.png
14,821,0,1444162848654,1444162849065,884,373,0,0,0,5,4,1,54,0001-00-0000-82.png,0005-00-0003-39.png
14,822,1,1444162849094,1444162850410,891,403,0,0,0,5,4,1,54,0001-00-0004-06.png,0005-00-0004-90.png
14,823,1,1444162850430,1444162850954,324,410,0,0,0,2,3,1,23,0002-00-0005-55.png,0003-00-0000-80.png
14,824,0,1444162850983,1444162851207,363,400,0,0,0,1,2,1,12,0004-00-0006-78.png,0002-00-0008-23.png
14,825,0,1444162851225,1444162851692,906,457,0,0,0,3,4,1,34,0003-00-0001-10.png,0005-00-0005-82.png
14,826,0,1444162851719,1444162852217,336,437,0,0,0,1,2,1,12,0004-00-0002-28.png,0002-00-0000-95.png
14,827,1,1444162852261,1444162852479,904,428,0,0,0,4,3,1,43,0005-00-0008-81.png,0003-00-0001-51.png
14,828,1,1444162852514,1444162852913,917,405,0,0,0,5,4,1,54,0001-00-0009-73.png,0005-00-0009-46.png
14,829,1,1444162852936,1444162853769,418,454,0,0,0,2,3,1,23,0002-00-0003-34.png,0003-00-0008-00.png
14,830,1,1444162853798,1444162854595,338,419,0,0,0,2,1,1,21,0002-00-0009-79.png,0004-00-0003-87.png
14,831,1,1444162854625,1444162855055,376,384,0,0,0,5,4,1,54,0001-00-0009-39.png,0005-00-0005-74.png
14,832,0,1444162855094,1444162856022,914,414,0,0,0,3,2,1,32,0003-00-0003-52.png,0002-00-0008-06.png
14,833,0,1444162856054,1444162856306,885,461,0,0,0,2,1,1,21,0002-00-0007-66.png,0004-00-0004-06.png
14,834,0,1444162856336,1444162856727,900,385,0,0,0,5,4,1,54,0001-00-0009-07.png,0005-00-0004-67.png
14,835,1,1444162856755,1444162857810,293,421,0,0,0,1,2,1,12,0004-00-0002-43.png,0002-00-0007-32.png
14,836,1,1444162857834,1444162858709,376,410,0,0,0,4,3,1,43,0005-00-0003-57.png,0003-00-0002-15.png
14,837,1,1444162858732,1444162859039,384,437,0,0,0,3,2,1,32,0003-00-0003-06.png,0002-00-0002-78.png
14,838,0,1444162859062,1444162859885,374,410,0,0,0,2,3,1,23,0002-00-0008-41.png,0003-00-0006-70.png
14,839,0,1444162859926,1444162860565,926,428,0,0,0,3,4,1,34,0003-00-0006-08.png,0005-00-0004-96.png
14,840,1,1444162860606,1444162861002,396,505,0,0,0,5,4,1,54,0001-00-0007-80.png,0005-00-0004-32.png
14,841,1,1444162861037,1444162861434,896,506,0,0,0,4,3,1,43,0005-00-0002-48.png,0003-00-0007-77.png
14,842,1,1444162861462,1444162861901,348,423,0,0,0,3,2,1,32,0003-00-0000-93.png,0002-00-0003-59.png
14,843,1,1444162861945,1444162862342,366,481,0,0,0,1,2,1,12,0004-00-0008-84.png,0002-00-0007-46.png
14,844,0,1444162862370,1444162862468,300,391,0,0,0,2,1,1,21,0002-00-0004-13.png,0004-00-0004-79.png
14,845,1,1444162862491,1444162863207,427,452,0,0,0,5,4,1,54,0001-00-0002-91.png,0005-00-0006-65.png
14,846,1,1444162863241,1444162863512,390,468,0,0,0,2,3,1,23,0002-00-0002-48.png,0003-00-0003-47.png
14,847,1,1444162863531,1444162864591,909,479,0,0,0,5,4,1,54,0001-00-0008-37.png,0005-00-0001-67.png
14,848,1,1444162864617,1444162865000,893,431,0,0,0,3,4,1,34,0003-00-0001-60.png,0005-00-0002-48.png
14,849,0,1444162865026,1444162865984,423,516,0,0,0,4,3,1,43,0005-00-0009-38.png,0003-00-0001-95.png
14,850,1,1444162866026,1444162866390,388,472,0,0,0,3,4,1,34,0003-00-0009-14.png,0005-00-0003-37.png
14,851,1,1444162866415,1444162867166,273,514,0,0,0,2,1,1,21,0002-00-0008-07.png,0004-00-0003-51.png
14,852,0,1444162867191,1444162867739,398,392,0,0,0,2,3,1,23,0002-00-0000-24.png,0003-00-0009-31.png
14,853,0,1444162867771,1444162868209,875,436,0,0,0,1,2,1,12,0004-00-0007-17.png,0002-00-0007-36.png
14,854,0,1444162868251,1444162868625,882,419,0,0,0,5,4,1,54,0001-00-0002-43.png,0005-00-0007-73.png
14,855,0,1444162868653,1444162869122,875,469,0,0,0,5,4,1,54,0001-00-0009-63.png,0005-00-0009-18.png
14,856,1,1444162869146,1444162869513,902,494,0,0,0,3,2,1,32,0003-00-0006-86.png,0002-00-0004-84.png
14,857,1,1444162869541,1444162869858,350,411,0,0,0,3,2,1,32,0003-00-0002-05.png,0002-00-0002-30.png
14,858,1,1444162869885,1444162870559,900,423,0,0,0,5,4,1,54,0001-00-0004-75.png,0005-00-0001-28.png
14,859,1,1444162870591,1444162870858,895,495,0,0,0,1,2,1,12,0004-00-0000-81.png,0002-00-0004-28.png
14,860,0,1444162870895,1444162871622,416,541,0,0,0,3,4,1,34,0003-00-0003-46.png,0005-00-0002-52.png
14,861,1,1444162871646,1444162871868,900,437,0,0,0,5,4,1,54,0001-00-0005-88.png,0005-00-0005-82.png
14,862,1,1444162871898,1444162872438,354,403,0,0,0,2,1,1,21,0002-00-0000-58.png,0004-00-0005-89.png
14,863,1,1444162872478,1444162872738,350,437,0,0,0,4,3,1,43,0005-00-0001-36.png,0003-00-0004-24.png
14,864,0,1444162872753,1444162873386,895,423,0,0,0,2,3,1,23,0002-00-0000-02.png,0003-00-0000-71.png
14,865,1,1444162873425,1444162873922,222,488,0,0,0,5,4,1,54,0001-00-0003-25.png,0005-00-0003-25.png
14,866,0,1444162873952,1444162874711,863,514,0,0,0,3,2,1,32,0003-00-0004-51.png,0002-00-0007-99.png
14,867,1,1444162874747,1444162875160,913,482,0,0,0,4,3,1,43,0005-00-0006-13.png,0003-00-0009-77.png
14,868,1,1444162875192,1444162875722,910,479,0,0,0,2,3,1,23,0002-00-0001-22.png,0003-00-0007-24.png
14,869,0,1444162875754,1444162876047,901,492,0,0,0,2,1,1,21,0002-00-0006-78.png,0004-00-0000-39.png
14,870,0,1444162876068,1444162876990,376,410,0,0,0,5,4,1,54,0001-00-0007-61.png,0005-00-0009-68.png
14,871,0,1444162877013,1444162877668,426,539,0,0,0,3,4,1,34,0003-00-0000-83.png,0005-00-0009-78.png
14,872,1,1444162877700,1444162878426,197,488,0,0,0,1,2,1,12,0004-00-0004-86.png,0002-00-0001-91.png
14,873,0,1444162878463,1444162879780,927,424,0,0,0,3,2,1,32,0003-00-0006-34.png,0002-00-0001-39.png
14,874,1,1444162879805,1444162880115,928,419,0,0,0,3,4,1,34,0003-00-0002-94.png,0005-00-0003-38.png
14,875,1,1444162880139,1444162880647,862,370,0,0,0,1,2,1,12,0004-00-0000-47.png,0002-00-0008-35.png
14,876,1,1444162880679,1444162881395,319,420,0,0,0,5,4,1,54,0001-00-0009-54.png,0005-00-0007-64.png
14,877,1,1444162881432,1444162881563,497,524,0,0,0,4,3,1,43,0005-00-0009-06.png,0003-00-0005-89.png
14,878,0,1444162881589,1444162882170,901,528,0,0,0,2,3,1,23,0002-00-0004-13.png,0003-00-0006-41.png
14,879,0,1444162882205,1444162883163,416,507,0,0,0,2,1,1,21,0002-00-0008-99.png,0004-00-0008-58.png
14,880,1,1444162883182,1444162883313,350,410,0,0,0,5,4,1,54,0001-00-0003-33.png,0005-00-0002-98.png
14,881,0,1444162883336,1444162883540,939,358,0,0,0,1,2,1,12,0004-00-0008-53.png,0002-00-0007-87.png
14,882,1,1444162883585,1444162884014,896,477,0,0,0,2,1,1,21,0002-00-0001-75.png,0004-00-0000-29.png
14,883,0,1444162884046,1444162885846,343,406,0,0,0,3,2,1,32,0003-00-0003-02.png,0002-00-0007-55.png
14,884,1,1444162885864,1444162886007,320,393,0,0,0,5,4,1,54,0001-00-0000-11.png,0005-00-0000-89.png
14,885,1,1444162886034,1444162886442,921,393,0,0,0,5,4,1,54,0001-00-0004-30.png,0005-00-0006-95.png
14,886,0,1444162886484,1444162886945,376,397,0,0,0,4,3,1,43,0005-00-0002-96.png,0003-00-0000-96.png
14,887,1,1444162886975,1444162887308,273,394,0,0,0,3,4,1,34,0003-00-0004-59.png,0005-00-0001-52.png
14,888,0,1444162887333,1444162888162,341,427,0,0,0,2,3,1,23,0002-00-0007-71.png,0003-00-0007-03.png
14,889,1,1444162888188,1444162888671,875,422,0,0,0,1,2,1,12,0004-00-0006-25.png,0002-00-0007-36.png
14,890,1,1444162888695,1444162889309,325,384,0,0,0,3,2,1,32,0003-00-0002-11.png,0002-00-0007-32.png
14,891,0,1444162889330,1444162889876,350,423,0,0,0,4,3,1,43,0005-00-0008-37.png,0003-00-0005-48.png
14,892,0,1444162889912,1444162891048,921,435,0,0,0,3,4,1,34,0003-00-0003-46.png,0005-00-0003-73.png
14,893,0,1444162891084,1444162891408,325,358,0,0,0,5,4,1,54,0001-00-0007-94.png,0005-00-0003-27.png
14,894,1,1444162891452,1444162892262,293,410,0,0,0,5,4,1,54,0001-00-0003-56.png,0005-00-0001-15.png
14,895,0,1444162892282,1444162893418,291,401,0,0,0,2,1,1,21,0002-00-0005-86.png,0004-00-0002-28.png
14,896,1,1444162893443,1444162894393,927,419,0,0,0,2,3,1,23,0002-00-0004-16.png,0003-00-0006-83.png
14,897,1,1444162894425,1444162894881,909,414,0,0,0,5,4,1,54,0001-00-0005-87.png,0005-00-0004-32.png
14,898,1,1444162894910,1444162895029,864,458,0,0,0,4,3,1,43,0005-00-0008-93.png,0003-00-0005-28.png
14,899,1,1444162895052,1444162895664,280,495,0,0,0,2,3,1,23,0002-00-0009-10.png,0003-00-0009-77.png
14,900,1,1444162895715,1444162896224,887,505,0,0,0,2,1,1,21,0002-00-0007-02.png,0004-00-0004-49.png
14,901,1,1444162896248,1444162896622,954,475,0,0,0,3,2,1,32,0003-00-0005-95.png,0002-00-0005-86.png
14,902,0,1444162896647,1444162897484,325,428,0,0,0,5,4,1,54,0001-00-0007-85.png,0005-00-0001-47.png
14,903,1,1444162897527,1444162898084,249,530,0,0,0,3,4,1,34,0003-00-0006-18.png,0005-00-0001-33.png
14,904,1,1444162898107,1444162898684,519,469,0,0,0,1,2,1,12,0004-00-0001-37.png,0002-00-0005-43.png
14,905,1,1444162898741,1444162899554,504,446,0,0,0,4,3,1,43,0005-00-0004-59.png,0003-00-0009-42.png
14,906,1,1444162899594,1444162900025,376,370,0,0,0,2,1,1,21,0002-00-0001-84.png,0004-00-0003-10.png
14,907,1,1444162900046,1444162900377,452,488,0,0,0,3,4,1,34,0003-00-0006-20.png,0005-00-0008-79.png
14,908,1,1444162900409,1444162901083,952,358,0,0,0,2,3,1,23,0002-00-0003-82.png,0003-00-0004-66.png
14,909,1,1444162901114,1444162901332,348,395,0,0,0,5,4,1,54,0001-00-0007-86.png,0005-00-0005-83.png
14,910,0,1444162901357,1444162901789,389,395,0,0,0,5,4,1,54,0001-00-0006-68.png,0005-00-0007-35.png
14,911,0,1444162901818,1444162902176,372,387,0,0,0,3,2,1,32,0003-00-0003-33.png,0002-00-0008-78.png
14,912,1,1444162902201,1444162902509,897,419,0,0,0,1,2,1,12,0004-00-0008-73.png,0002-00-0000-61.png
14,913,1,1444162902530,1444162902948,401,399,0,0,0,1,2,1,12,0004-00-0004-13.png,0002-00-0003-59.png
14,914,1,1444162902975,1444162903298,293,415,0,0,0,3,2,1,32,0003-00-0003-29.png,0002-00-0006-78.png
14,915,1,1444162903326,1444162903587,376,422,0,0,0,2,1,1,21,0002-00-0004-41.png,0004-00-0007-22.png
14,916,1,1444162903617,1444162904305,919,510,0,0,0,2,3,1,23,0002-00-0009-22.png,0003-00-0000-86.png
14,917,1,1444162904330,1444162905230,900,490,0,0,0,5,4,1,54,0001-00-0007-92.png,0005-00-0001-17.png
14,918,1,1444162905264,1444162905646,344,375,0,0,0,3,4,1,34,0003-00-0007-01.png,0005-00-0001-22.png
14,919,0,1444162905682,1444162905936,875,417,0,0,0,4,3,1,43,0005-00-0007-65.png,0003-00-0006-59.png
14,920,0,1444162905964,1444162906524,900,429,0,0,0,5,4,1,54,0001-00-0007-08.png,0005-00-0005-65.png
14,921,1,1444162906566,1444162907032,956,427,0,0,0,3,2,1,32,0003-00-0008-86.png,0002-00-0008-79.png
14,922,0,1444162907058,1444162907742,1010,401,0,0,0,5,4,1,54,0001-00-0003-76.png,0005-00-0004-52.png
14,923,0,1444162907761,1444162908090,427,411,0,0,0,5,4,1,54,0001-00-0009-76.png,0005-00-0002-97.png
14,924,1,1444162908116,1444162909179,369,426,0,0,0,2,3,1,23,0002-00-0002-23.png,0003-00-0004-82.png
14,925,0,1444162909213,1444162909612,926,412,0,0,0,3,4,1,34,0003-00-0004-45.png,0005-00-0002-48.png
14,926,1,1444162909639,1444162910312,862,345,0,0,0,1,2,1,12,0004-00-0008-42.png,0002-00-0002-12.png
14,927,0,1444162910339,1444162910989,925,464,0,0,0,2,1,1,21,0002-00-0006-91.png,0004-00-0001-06.png
14,928,1,1444162911023,1444162911378,295,520,0,0,0,4,3,1,43,0005-00-0004-80.png,0003-00-0004-44.png
14,929,1,1444162911417,1444162912221,366,466,0,0,0,2,3,1,23,0002-00-0000-41.png,0003-00-0006-52.png
14,930,0,1444162912238,1444162912544,401,410,0,0,0,5,4,1,54,0001-00-0000-79.png,0005-00-0007-03.png
14,931,0,1444162912581,1444162912962,882,408,0,0,0,4,3,1,43,0005-00-0005-15.png,0003-00-0001-88.png
14,932,0,1444162912996,1444162913526,378,414,0,0,0,3,2,1,32,0003-00-0006-59.png,0002-00-0000-93.png
14,933,0,1444162913572,1444162913975,898,435,0,0,0,1,2,1,12,0004-00-0004-44.png,0002-00-0005-30.png
14,934,0,1444162913997,1444162914754,860,364,0,0,0,2,1,1,21,0002-00-0004-08.png,0004-00-0006-65.png
14,935,1,1444162914776,1444162915203,934,369,0,0,0,3,4,1,34,0003-00-0009-45.png,0005-00-0004-68.png
14,936,1,1444162915234,1444162915495,950,334,0,0,0,5,4,1,54,0001-00-0005-47.png,0005-00-0006-41.png
14,937,1,1444162915535,1444162916310,332,454,0,0,0,1,2,1,12,0004-00-0004-82.png,0002-00-0009-24.png
14,938,1,1444162916345,1444162916818,342,410,0,0,0,2,1,1,21,0002-00-0003-66.png,0004-00-0000-77.png
14,939,0,1444162916845,1444162917143,350,396,0,0,0,5,4,1,54,0001-00-0004-27.png,0005-00-0000-22.png
14,940,1,1444162917172,1444162917710,504,472,0,0,0,5,4,1,54,0001-00-0008-24.png,0005-00-0009-41.png
14,941,1,1444162917746,1444162918542,919,339,0,0,0,4,3,1,43,0005-00-0006-97.png,0003-00-0006-16.png
14,942,1,1444162918574,1444162918761,362,388,0,0,0,2,3,1,23,0002-00-0009-83.png,0003-00-0009-41.png
14,943,1,1444162918802,1444162919499,908,473,0,0,0,3,4,1,34,0003-00-0005-71.png,0005-00-0006-54.png
14,944,0,1444162919520,1444162920117,906,490,0,0,0,3,2,1,32,0003-00-0009-39.png,0002-00-0000-91.png
14,945,0,1444162920142,1444162921010,376,344,0,0,0,3,4,1,34,0003-00-0008-18.png,0005-00-0004-47.png
14,946,1,1444162921031,1444162921613,932,489,0,0,0,2,3,1,23,0002-00-0007-75.png,0003-00-0005-93.png
14,947,1,1444162921637,1444162922621,342,427,0,0,0,3,2,1,32,0003-00-0005-28.png,0002-00-0005-34.png
14,948,0,1444162922651,1444162923050,873,483,0,0,0,2,1,1,21,0002-00-0008-12.png,0004-00-0002-45.png
14,949,0,1444162923082,1444162923203,314,394,0,0,0,5,4,1,54,0001-00-0009-61.png,0005-00-0000-17.png
14,950,1,1444162923240,1444162923550,350,443,0,0,0,4,3,1,43,0005-00-0002-99.png,0003-00-0000-67.png
14,951,1,1444162923592,1444162924334,449,508,0,0,0,5,4,1,54,0001-00-0003-99.png,0005-00-0002-84.png
14,952,1,1444162924365,1444162924818,345,380,0,0,0,1,2,1,12,0004-00-0003-89.png,0002-00-0002-66.png
14,953,1,1444162924847,1444162925168,922,498,0,0,0,1,2,1,12,0004-00-0001-50.png,0002-00-0001-76.png
14,954,1,1444162925194,1444162925460,908,464,0,0,0,3,4,1,34,0003-00-0002-90.png,0005-00-0002-95.png
14,955,0,1444162925488,1444162925809,309,403,0,0,0,4,3,1,43,0005-00-0002-62.png,0003-00-0009-15.png
14,956,1,1444162925837,1444162926225,877,389,0,0,0,3,2,1,32,0003-00-0007-33.png,0002-00-0001-60.png
14,957,1,1444162926259,1444162926614,930,376,0,0,0,5,4,1,54,0001-00-0007-31.png,0005-00-0001-58.png
14,958,0,1444162926635,1444162927016,313,392,0,0,0,2,1,1,21,0002-00-0003-34.png,0004-00-0000-14.png
14,959,0,1444162927046,1444162927543,898,440,0,0,0,5,4,1,54,0001-00-0003-20.png,0005-00-0001-88.png
14,960,0,1444162927572,1444162928733,333,467,0,0,0,2,3,1,23,0002-00-0003-51.png,0003-00-0008-52.png
14,961,0,1444162928763,1444162929317,401,358,0,0,0,1,2,1,12,0004-00-0006-43.png,0002-00-0001-75.png
14,962,1,1444162929352,1444162929857,401,384,0,0,0,4,3,1,43,0005-00-0008-57.png,0003-00-0008-47.png
14,963,1,1444162929898,1444162930971,361,412,0,0,0,3,4,1,34,0003-00-0002-78.png,0005-00-0008-69.png
14,964,1,1444162930991,1444162931238,489,408,0,0,0,5,4,1,54,0001-00-0003-65.png,0005-00-0002-04.png
14,965,1,1444162931266,1444162931659,913,476,0,0,0,2,1,1,21,0002-00-0009-55.png,0004-00-0006-56.png
14,966,1,1444162931681,1444162932273,364,404,0,0,0,5,4,1,54,0001-00-0000-12.png,0005-00-0009-18.png
14,967,1,1444162932318,1444162932905,918,403,0,0,0,3,2,1,32,0003-00-0001-06.png,0002-00-0003-23.png
14,968,1,1444162932936,1444162933327,920,517,0,0,0,2,3,1,23,0002-00-0002-73.png,0003-00-0002-87.png
14,969,0,1444162933356,1444162934041,350,410,0,0,0,2,3,1,23,0002-00-0007-97.png,0003-00-0005-06.png
14,970,0,1444162934065,1444162934396,922,394,0,0,0,5,4,1,54,0001-00-0002-00.png,0005-00-0007-94.png
14,971,0,1444162934425,1444162935078,364,420,0,0,0,3,2,1,32,0003-00-0006-02.png,0002-00-0002-40.png
14,972,1,1444162935099,1444162935529,356,353,0,0,0,2,1,1,21,0002-00-0004-58.png,0004-00-0001-59.png
14,973,1,1444162935552,1444162935902,952,371,0,0,0,1,2,1,12,0004-00-0004-55.png,0002-00-0003-79.png
14,974,1,1444162935931,1444162936458,346,379,0,0,0,5,4,1,54,0001-00-0006-31.png,0005-00-0008-20.png
14,975,0,1444162936480,1444162937117,888,502,0,0,0,4,3,1,43,0005-00-0001-63.png,0003-00-0006-65.png
14,976,0,1444162937142,1444162937668,896,498,0,0,0,3,4,1,34,0003-00-0001-85.png,0005-00-0005-45.png
14,977,0,1444162937700,1444162938072,401,428,0,0,0,2,1,1,21,0002-00-0008-82.png,0004-00-0007-86.png
14,978,1,1444162938102,1444162939034,922,408,0,0,0,5,4,1,54,0001-00-0007-72.png,0005-00-0003-78.png
14,979,1,1444162939058,1444162939537,950,408,0,0,0,5,4,1,54,0001-00-0005-65.png,0005-00-0005-48.png
14,980,1,1444162939563,1444162940827,427,542,0,0,0,3,2,1,32,0003-00-0004-23.png,0002-00-0004-66.png
14,981,1,1444162940866,1444162941542,310,381,0,0,0,2,3,1,23,0002-00-0000-29.png,0003-00-0007-37.png
14,982,0,1444162941580,1444162942090,897,408,0,0,0,3,4,1,34,0003-00-0003-91.png,0005-00-0003-81.png
14,983,0,1444162942125,1444162942455,935,449,0,0,0,1,2,1,12,0004-00-0006-43.png,0002-00-0001-14.png
14,984,0,1444162942481,1444162943337,366,406,0,0,0,4,3,1,43,0005-00-0002-46.png,0003-00-0005-38.png
14,985,1,1444162943356,1444162943497,341,371,0,0,0,5,4,1,54,0001-00-0000-00.png,0005-00-0009-67.png
14,986,0,1444162943550,1444162944463,922,367,0,0,0,1,2,1,12,0004-00-0000-68.png,0002-00-0008-04.png
14,987,1,1444162944495,1444162945424,390,501,0,0,0,4,3,1,43,0005-00-0009-16.png,0003-00-0008-76.png
14,988,0,1444162945442,1444162945780,386,375,0,0,0,3,2,1,32,0003-00-0002-38.png,0002-00-0006-75.png
14,989,0,1444162945820,1444162946036,904,481,0,0,0,2,3,1,23,0002-00-0000-17.png,0003-00-0009-16.png
