subject_id,trial,correct_response,stim_time,response_time,x_coord,y_coord,trial_timeout,timeout_time,interTrial_timeout,left_rank,right_rank,distance,joint_rank,left_image,right_image
9,1,0,1443817620024,1443817620963,513,337,0,0,0,2,1,1,21,0002-00-0006-64.png,0004-00-0000-84.png
9,2,1,1443817620996,1443817621978,513,471,0,0,0,3,2,1,32,0003-00-0009-83.png,0002-00-0000-26.png
9,3,0,1443817622000,1443817622840,1069,316,0,0,0,3,4,1,34,0003-00-0009-83.png,0005-00-0008-48.png
9,4,0,1443817622876,1443817626155,858,379,0,0,0,5,4,1,54,0001-00-0009-50.png,0005-00-0009-68.png
9,5,0,1443817626185,1443817626335,952,247,0,0,0,4,3,1,43,0005-00-0006-63.png,0003-00-0008-32.png
9,6,0,1443817626365,1443817626892,980,357,0,0,0,1,2,1,12,0004-00-0009-65.png,0002-00-0001-47.png
9,7,0,1443817626932,1443817627721,913,335,0,0,0,2,3,1,23,0002-00-0000-74.png,0003-00-0007-75.png
9,8,0,1443817627756,1443817627942,1076,476,0,0,0,5,4,1,54,0001-00-0007-35.png,0005-00-0004-25.png
9,9,0,1443817627977,1443817629553,963,355,0,0,0,2,3,1,23,0002-00-0003-51.png,0003-00-0008-68.png
9,10,0,1443817629587,1443817629615,893,360,0,0,0,4,3,1,43,0005-00-0009-08.png,0003-00-0002-08.png
9,11,1,1443817629644,1443817630351,428,263,0,0,0,5,4,1,54,0001-00-0001-08.png,0005-00-0008-13.png
9,12,1,1443817630381,1443817630716,419,294,0,0,0,3,2,1,32,0003-00-0004-68.png,0002-00-0009-91.png
9,13,1,1443817630753,1443817634754,1142,325,0,0,0,3,4,1,34,0003-00-0007-52.png,0005-00-0003-71.png
9,14,1,1443817634775,1443817635166,922,410,0,0,0,2,1,1,21,0002-00-0009-02.png,0004-00-0001-21.png
9,15,1,1443817635196,1443817635552,1041,288,0,0,0,5,4,1,54,0001-00-0002-86.png,0005-00-0008-71.png
9,16,0,1443817635592,1443817638174,394,273,0,0,0,1,2,1,12,0004-00-0003-36.png,0002-00-0003-42.png
9,17,1,1443817638211,1443817638491,401,265,0,0,0,2,3,1,23,0002-00-0000-38.png,0003-00-0006-85.png
9,18,0,1443817638523,1443817640995,935,383,0,0,0,2,1,1,21,0002-00-0004-76.png,0004-00-0000-56.png
9,19,0,1443817641020,1443817642669,205,344,0,0,0,5,4,1,54,0001-00-0008-73.png,0005-00-0000-07.png
9,20,0,1443817642701,1443817642894,397,347,0,0,0,3,4,1,34,0003-00-0009-00.png,0005-00-0005-57.png
9,21,1,1443817642914,1443817643204,342,280,0,0,0,5,4,1,54,0001-00-0007-86.png,0005-00-0004-36.png
9,22,0,1443817643231,1443817643324,429,492,0,0,0,3,2,1,32,0003-00-0008-99.png,0002-00-0003-55.png
9,23,1,1443817643358,1443817643427,277,400,0,0,0,1,2,1,12,0004-00-0005-50.png,0002-00-0005-86.png
9,24,0,1443817643457,1443817643864,862,268,0,0,0,4,3,1,43,0005-00-0007-34.png,0003-00-0005-10.png
9,25,0,1443817643878,1443817644089,995,324,0,0,0,3,4,1,34,0003-00-0000-85.png,0005-00-0009-29.png
9,26,1,1443817644122,1443817644210,874,248,0,0,0,5,4,1,54,0001-00-0000-08.png,0005-00-0009-39.png
9,27,1,1443817644234,1443817644415,896,403,0,0,0,5,4,1,54,0001-00-0002-01.png,0005-00-0000-67.png
9,28,0,1443817644439,1443817644523,1141,277,0,0,0,3,2,1,32,0003-00-0000-44.png,0002-00-0000-68.png
9,29,0,1443817644553,1443817651611,393,292,0,0,0,1,2,1,12,0004-00-0004-95.png,0002-00-0000-68.png
9,30,1,1443817651643,1443817651941,376,276,0,0,0,2,3,1,23,0002-00-0005-19.png,0003-00-0002-55.png
9,31,0,1443817651965,1443817652830,981,286,0,0,0,4,3,1,43,0005-00-0005-84.png,0003-00-0001-54.png
9,32,1,1443817652854,1443817655979,943,353,0,0,0,2,1,1,21,0002-00-0006-46.png,0004-00-0000-53.png
9,33,1,1443817656009,1443817656223,889,372,0,0,0,2,3,1,23,0002-00-0008-40.png,0003-00-0009-37.png
9,34,1,1443817656236,1443817656332,950,267,0,0,0,5,4,1,54,0001-00-0005-54.png,0005-00-0003-65.png
9,35,0,1443817656362,1443817656710,862,384,0,0,0,2,1,1,21,0002-00-0006-48.png,0004-00-0007-50.png
9,36,1,1443817656745,1443817657722,312,264,0,0,0,3,2,1,32,0003-00-0002-04.png,0002-00-0003-96.png
9,37,0,1443817657746,1443817659163,978,355,0,0,0,1,2,1,12,0004-00-0008-65.png,0002-00-0008-84.png
9,38,0,1443817659193,1443817659273,862,332,0,0,0,5,4,1,54,0001-00-0006-74.png,0005-00-0001-49.png
9,39,0,1443817659299,1443817660039,309,358,0,0,0,4,3,1,43,0005-00-0006-14.png,0003-00-0008-44.png
9,40,0,1443817660060,1443817660437,305,423,0,0,0,3,4,1,34,0003-00-0005-64.png,0005-00-0004-91.png
9,41,1,1443817660474,1443817661303,964,258,0,0,0,5,4,1,54,0001-00-0008-04.png,0005-00-0008-82.png
9,42,1,1443817661331,1443817661885,339,352,0,0,0,2,3,1,23,0002-00-0007-11.png,0003-00-0008-29.png
9,43,0,1443817661923,1443817662362,1016,332,0,0,0,4,3,1,43,0005-00-0003-97.png,0003-00-0002-85.png
9,44,1,1443817662385,1443817662625,324,434,0,0,0,3,4,1,34,0003-00-0002-14.png,0005-00-0000-06.png
9,45,0,1443817662667,1443817662747,865,409,0,0,0,5,4,1,54,0001-00-0009-71.png,0005-00-0001-92.png
9,46,1,1443817662766,1443817662820,312,345,0,0,0,1,2,1,12,0004-00-0005-57.png,0002-00-0001-09.png
9,47,0,1443817662854,1443817663605,913,253,0,0,0,2,1,1,21,0002-00-0003-08.png,0004-00-0008-93.png
9,48,1,1443817663632,1443817664053,350,364,0,0,0,3,2,1,32,0003-00-0004-14.png,0002-00-0005-46.png
9,49,1,1443817664086,1443817668953,943,263,0,0,0,1,2,1,12,0004-00-0002-33.png,0002-00-0000-71.png
9,50,1,1443817668995,1443817669473,450,388,0,0,0,4,3,1,43,0005-00-0007-67.png,0003-00-0007-39.png
9,51,1,1443817669507,1443817669898,944,233,0,0,0,5,4,1,54,0001-00-0005-01.png,0005-00-0001-65.png
9,52,0,1443817669938,1443817670068,350,419,0,0,0,2,3,1,23,0002-00-0004-94.png,0003-00-0000-22.png
9,53,1,1443817670095,1443817670221,242,384,0,0,0,5,4,1,54,0001-00-0007-98.png,0005-00-0000-34.png
9,54,1,1443817670255,1443817670669,436,321,0,0,0,3,4,1,34,0003-00-0004-27.png,0005-00-0006-70.png
9,55,0,1443817670692,1443817671264,941,505,0,0,0,2,1,1,21,0002-00-0009-38.png,0004-00-0005-71.png
9,56,1,1443817671293,1443817671995,903,279,0,0,0,3,2,1,32,0003-00-0001-75.png,0002-00-0006-24.png
9,57,1,1443817672028,1443817672110,930,281,0,0,0,3,4,1,34,0003-00-0004-96.png,0005-00-0009-10.png
9,58,0,1443817672154,1443817673678,865,432,0,0,0,5,4,1,54,0001-00-0009-65.png,0005-00-0003-06.png
9,59,1,1443817673696,1443817675446,968,549,0,0,0,1,2,1,12,0004-00-0005-57.png,0002-00-0009-96.png
9,60,0,1443817675467,1443817676241,504,473,0,0,0,5,4,1,54,0001-00-0008-74.png,0005-00-0008-98.png
9,61,1,1443817676265,1443817676373,350,400,0,0,0,3,2,1,32,0003-00-0002-21.png,0002-00-0000-72.png
9,62,1,1443817676404,1443817676859,340,327,0,0,0,2,3,1,23,0002-00-0005-63.png,0003-00-0007-71.png
9,63,1,1443817676900,1443817677954,992,548,0,0,0,4,3,1,43,0005-00-0006-94.png,0003-00-0006-75.png
9,64,1,1443817677981,1443817682311,325,358,0,0,0,2,1,1,21,0002-00-0001-55.png,0004-00-0003-76.png
9,65,0,1443817682336,1443817683666,874,253,0,0,0,4,3,1,43,0005-00-0003-51.png,0003-00-0004-16.png
9,66,0,1443817683692,1443817683728,875,436,0,0,0,2,1,1,21,0002-00-0004-26.png,0004-00-0001-67.png
9,67,1,1443817683763,1443817685219,880,280,0,0,0,3,4,1,34,0003-00-0006-32.png,0005-00-0007-69.png
9,68,0,1443817685245,1443817685473,976,324,0,0,0,1,2,1,12,0004-00-0004-06.png,0002-00-0004-97.png
9,69,0,1443817685502,1443817687389,934,343,0,0,0,5,4,1,54,0001-00-0005-67.png,0005-00-0006-88.png
9,70,1,1443817687416,1443817687578,954,403,0,0,0,5,4,1,54,0001-00-0000-52.png,0005-00-0003-82.png
9,71,1,1443817687608,1443817689174,998,532,0,0,0,2,3,1,23,0002-00-0003-20.png,0003-00-0001-85.png
9,72,0,1443817689202,1443817689409,280,413,0,0,0,3,2,1,32,0003-00-0000-44.png,0002-00-0005-95.png
9,73,0,1443817689448,1443817689601,955,396,0,0,0,5,4,1,54,0001-00-0009-75.png,0005-00-0002-96.png
9,74,1,1443817689623,1443817689968,983,561,0,0,0,4,3,1,43,0005-00-0008-99.png,0003-00-0001-09.png
9,75,1,1443817689998,1443817693798,913,242,0,0,0,2,3,1,23,0002-00-0001-13.png,0003-00-0009-12.png
9,76,1,1443817693827,1443817694867,868,487,0,0,0,3,4,1,34,0003-00-0001-12.png,0005-00-0002-80.png
9,77,0,1443817694913,1443817695129,868,355,0,0,0,1,2,1,12,0004-00-0009-95.png,0002-00-0009-43.png
9,78,0,1443817695180,1443817695264,358,361,0,0,0,3,2,1,32,0003-00-0005-17.png,0002-00-0008-86.png
9,79,1,1443817695288,1443817695340,340,374,0,0,0,5,4,1,54,0001-00-0007-43.png,0005-00-0001-61.png
9,80,1,1443817695359,1443817695455,964,400,0,0,0,2,1,1,21,0002-00-0000-00.png,0004-00-0003-26.png
9,81,1,1443817695489,1443817695567,363,279,0,0,0,2,3,1,23,0002-00-0004-03.png,0003-00-0006-23.png
9,82,1,1443817695588,1443817695943,303,259,0,0,0,3,2,1,32,0003-00-0007-60.png,0002-00-0007-85.png
9,83,0,1443817695981,1443817701579,858,333,0,0,0,5,4,1,54,0001-00-0002-80.png,0005-00-0002-75.png
9,84,1,1443817701601,1443817702081,325,399,0,0,0,2,1,1,21,0002-00-0002-94.png,0004-00-0001-29.png
9,85,1,1443817702098,1443817702242,387,294,0,0,0,1,2,1,12,0004-00-0006-73.png,0002-00-0008-27.png
9,86,0,1443817702280,1443817703613,1055,279,0,0,0,4,3,1,43,0005-00-0006-44.png,0003-00-0003-14.png
9,87,1,1443817703645,1443817704767,862,370,0,0,0,5,4,1,54,0001-00-0005-29.png,0005-00-0006-92.png
9,88,0,1443817704798,1443817705219,913,384,0,0,0,3,4,1,34,0003-00-0005-61.png,0005-00-0007-78.png
9,89,1,1443817705257,1443817705318,972,390,0,0,0,2,3,1,23,0002-00-0004-25.png,0003-00-0009-72.png
9,90,0,1443817705348,1443817705536,412,527,0,0,0,5,4,1,54,0001-00-0000-39.png,0005-00-0007-07.png
9,91,0,1443817705571,1443817705855,397,281,0,0,0,1,2,1,12,0004-00-0006-59.png,0002-00-0008-92.png
9,92,0,1443817705898,1443817706001,335,416,0,0,0,3,4,1,34,0003-00-0000-79.png,0005-00-0003-05.png
9,93,1,1443817706026,1443817707211,956,420,0,0,0,2,1,1,21,0002-00-0007-52.png,0004-00-0001-35.png
9,94,1,1443817707253,1443817714616,871,430,0,0,0,4,3,1,43,0005-00-0002-66.png,0003-00-0009-55.png
9,95,0,1443817714637,1443817715999,327,265,0,0,0,5,4,1,54,0001-00-0005-94.png,0005-00-0001-74.png
9,96,1,1443817716020,1443817716442,880,463,0,0,0,3,2,1,32,0003-00-0002-67.png,0002-00-0006-65.png
9,97,1,1443817716472,1443817716834,888,488,0,0,0,2,3,1,23,0002-00-0006-22.png,0003-00-0006-28.png
9,98,1,1443817716872,1443817716988,900,514,0,0,0,3,2,1,32,0003-00-0006-02.png,0002-00-0009-77.png
9,99,1,1443817716999,1443817717752,1070,232,0,0,0,5,4,1,54,0001-00-0004-06.png,0005-00-0009-97.png
9,100,1,1443817717771,1443817718365,264,387,0,0,0,1,2,1,12,0004-00-0008-94.png,0002-00-0006-96.png
9,101,1,1443817718392,1443817720135,886,292,0,0,0,2,1,1,21,0002-00-0008-76.png,0004-00-0005-60.png
9,102,0,1443817720171,1443817720513,885,261,0,0,0,3,4,1,34,0003-00-0006-53.png,0005-00-0006-99.png
9,103,1,1443817720541,1443817720695,955,550,0,0,0,5,4,1,54,0001-00-0000-12.png,0005-00-0003-32.png
9,104,0,1443817720736,1443817720765,951,339,0,0,0,4,3,1,43,0005-00-0004-92.png,0003-00-0002-15.png
9,105,0,1443817720787,1443817720945,311,417,0,0,0,1,2,1,12,0004-00-0001-20.png,0002-00-0006-69.png
9,106,1,1443817720977,1443817722269,958,392,0,0,0,2,1,1,21,0002-00-0006-75.png,0004-00-0009-29.png
9,107,1,1443817722289,1443817722473,990,555,0,0,0,2,3,1,23,0002-00-0006-30.png,0003-00-0004-11.png
9,108,0,1443817722492,1443817723554,921,306,0,0,0,5,4,1,54,0001-00-0001-49.png,0005-00-0000-57.png
9,109,1,1443817723581,1443817723856,1032,279,0,0,0,5,4,1,54,0001-00-0007-40.png,0005-00-0005-31.png
9,110,1,1443817723873,1443817724006,351,327,0,0,0,3,4,1,34,0003-00-0004-44.png,0005-00-0007-24.png
9,111,1,1443817724023,1443817724095,939,488,0,0,0,4,3,1,43,0005-00-0009-81.png,0003-00-0001-70.png
9,112,0,1443817724114,1443817726357,869,505,0,0,0,3,2,1,32,0003-00-0009-85.png,0002-00-0009-93.png
9,113,0,1443817726413,1443817726436,903,260,0,0,0,4,3,1,43,0005-00-0000-94.png,0003-00-0003-63.png
9,114,1,1443817726477,1443817726777,870,351,0,0,0,3,2,1,32,0003-00-0002-66.png,0002-00-0000-08.png
9,115,0,1443817726801,1443817728649,877,332,0,0,0,2,3,1,23,0002-00-0002-89.png,0003-00-0003-66.png
9,116,0,1443817728681,1443817728979,867,420,0,0,0,1,2,1,12,0004-00-0009-10.png,0002-00-0009-34.png
9,117,0,1443817729003,1443817732961,931,515,0,0,0,5,4,1,54,0001-00-0009-19.png,0005-00-0007-50.png
9,118,1,1443817732989,1443817733551,964,341,0,0,0,3,4,1,34,0003-00-0008-93.png,0005-00-0005-77.png
9,119,1,1443817733585,1443817733887,1108,253,0,0,0,2,1,1,21,0002-00-0006-01.png,0004-00-0004-66.png
9,120,0,1443817733906,1443817733942,887,377,0,0,0,5,4,1,54,0001-00-0006-32.png,0005-00-0003-80.png
9,121,0,1443817733966,1443817734139,869,409,0,0,0,2,3,1,23,0002-00-0007-28.png,0003-00-0009-67.png
9,122,1,1443817734163,1443817735334,1071,289,0,0,0,1,2,1,12,0004-00-0008-99.png,0002-00-0004-23.png
9,123,1,1443817735372,1443817735992,872,332,0,0,0,5,4,1,54,0001-00-0000-25.png,0005-00-0001-71.png
9,124,0,1443817736021,1443817738945,927,561,0,0,0,5,4,1,54,0001-00-0003-40.png,0005-00-0007-93.png
9,125,0,1443817738970,1443817743637,359,414,0,0,0,3,4,1,34,0003-00-0001-80.png,0005-00-0001-15.png
9,126,0,1443817743666,1443817743752,863,361,0,0,0,2,1,1,21,0002-00-0003-69.png,0004-00-0004-93.png
9,127,1,1443817743783,1443817743907,1092,317,0,0,0,3,2,1,32,0003-00-0006-47.png,0002-00-0000-49.png
9,128,1,1443817743949,1443817744660,349,331,0,0,0,4,3,1,43,0005-00-0002-55.png,0003-00-0006-04.png
9,129,0,1443817744704,1443817745479,953,436,0,0,0,4,3,1,43,0005-00-0005-86.png,0003-00-0008-14.png
9,130,1,1443817745521,1443817745558,317,403,0,0,0,3,4,1,34,0003-00-0007-55.png,0005-00-0004-57.png
9,131,1,1443817745586,1443817746212,939,357,0,0,0,5,4,1,54,0001-00-0003-33.png,0005-00-0002-79.png
9,132,1,1443817746245,1443817746837,1017,531,0,0,0,1,2,1,12,0004-00-0003-91.png,0002-00-0007-26.png
9,133,0,1443817746866,1443817747685,871,410,0,0,0,2,3,1,23,0002-00-0005-53.png,0003-00-0007-86.png
9,134,1,1443817747703,1443817750014,909,331,0,0,0,5,4,1,54,0001-00-0001-66.png,0005-00-0004-51.png
9,135,1,1443817750050,1443817755654,859,446,0,0,0,2,1,1,21,0002-00-0000-10.png,0004-00-0008-28.png
9,136,0,1443817755679,1443817755812,299,413,0,0,0,3,2,1,32,0003-00-0002-11.png,0002-00-0006-80.png
9,137,1,1443817755845,1443817755855,384,302,0,0,0,4,3,1,43,0005-00-0001-92.png,0003-00-0006-29.png
9,138,0,1443817755881,1443817757182,401,291,0,0,0,2,1,1,21,0002-00-0000-40.png,0004-00-0004-78.png
9,139,0,1443817757206,1443817757290,327,353,0,0,0,3,4,1,34,0003-00-0007-23.png,0005-00-0003-97.png
9,140,1,1443817757324,1443817757542,216,303,0,0,0,5,4,1,54,0001-00-0009-68.png,0005-00-0000-36.png
9,141,1,1443817757582,1443817758070,340,400,0,0,0,5,4,1,54,0001-00-0008-79.png,0005-00-0000-09.png
9,142,0,1443817758097,1443817758225,993,255,0,0,0,2,3,1,23,0002-00-0003-85.png,0003-00-0003-16.png
9,143,1,1443817758252,1443817759795,896,454,0,0,0,1,2,1,12,0004-00-0008-01.png,0002-00-0000-35.png
9,144,1,1443817759819,1443817760893,879,392,0,0,0,3,2,1,32,0003-00-0004-99.png,0002-00-0008-46.png
9,145,1,1443817760917,1443817762640,963,270,0,0,0,1,2,1,12,0004-00-0003-20.png,0002-00-0000-77.png
9,146,1,1443817762683,1443817762800,958,345,0,0,0,5,4,1,54,0001-00-0000-60.png,0005-00-0006-63.png
9,147,0,1443817762818,1443817762926,939,420,0,0,0,5,4,1,54,0001-00-0007-27.png,0005-00-0002-63.png
9,148,1,1443817762959,1443817763492,990,514,0,0,0,2,1,1,21,0002-00-0000-28.png,0004-00-0004-41.png
9,149,1,1443817763519,1443817765055,950,488,0,0,0,3,2,1,32,0003-00-0001-75.png,0002-00-0005-94.png
9,150,1,1443817765080,1443817765294,862,415,0,0,0,4,3,1,43,0005-00-0008-32.png,0003-00-0006-53.png
9,151,0,1443817765326,1443817766103,860,442,0,0,0,3,4,1,34,0003-00-0005-76.png,0005-00-0006-15.png
9,152,1,1443817766126,1443817766434,310,374,0,0,0,2,3,1,23,0002-00-0008-45.png,0003-00-0000-76.png
9,153,0,1443817766459,1443817766558,322,382,0,0,0,3,2,1,32,0003-00-0003-81.png,0002-00-0006-01.png
9,154,0,1443817766587,1443817766815,874,289,0,0,0,5,4,1,54,0001-00-0009-42.png,0005-00-0003-84.png
9,155,1,1443817766856,1443817768646,962,388,0,0,0,1,2,1,12,0004-00-0007-75.png,0002-00-0007-13.png
9,156,1,1443817768666,1443817768746,269,328,0,0,0,4,3,1,43,0005-00-0003-98.png,0003-00-0005-32.png
9,157,1,1443817768771,1443817779650,261,473,0,0,0,2,1,1,21,0002-00-0003-48.png,0004-00-0008-98.png
9,158,0,1443817779673,1443817780648,249,224,0,0,0,3,4,1,34,0003-00-0005-18.png,0005-00-0005-14.png
9,159,0,1443817780675,1443817781477,403,255,0,0,0,2,3,1,23,0002-00-0005-24.png,0003-00-0000-72.png
9,160,1,1443817781520,1443817781962,302,347,0,0,0,5,4,1,54,0001-00-0008-07.png,0005-00-0009-91.png
9,161,1,1443817781979,1443817782039,412,227,0,0,0,2,3,1,23,0002-00-0001-52.png,0003-00-0004-50.png
9,162,1,1443817782068,1443817782251,984,378,0,0,0,3,4,1,34,0003-00-0008-22.png,0005-00-0001-28.png
9,163,0,1443817782278,1443817782307,939,323,0,0,0,2,1,1,21,0002-00-0002-03.png,0004-00-0009-52.png
9,164,1,1443817782333,1443817782629,864,325,0,0,0,5,4,1,54,0001-00-0002-27.png,0005-00-0008-86.png
9,165,0,1443817782655,1443817782997,396,294,0,0,0,4,3,1,43,0005-00-0002-19.png,0003-00-0005-65.png
9,166,1,1443817783025,1443817783276,944,340,0,0,0,1,2,1,12,0004-00-0003-03.png,0002-00-0006-08.png
9,167,1,1443817783299,1443817783495,401,265,0,0,0,5,4,1,54,0001-00-0009-63.png,0005-00-0001-94.png
9,168,1,1443817783519,1443817784265,387,294,0,0,0,3,2,1,32,0003-00-0009-86.png,0002-00-0009-42.png
9,169,1,1443817784305,1443817789267,273,346,0,0,0,5,4,1,54,0001-00-0009-63.png,0005-00-0008-45.png
9,170,1,1443817789294,1443817789641,934,534,0,0,0,3,2,1,32,0003-00-0004-04.png,0002-00-0002-83.png
9,171,1,1443817789663,1443817789720,873,488,0,0,0,5,4,1,54,0001-00-0007-34.png,0005-00-0002-08.png
9,172,1,1443817789740,1443817789808,223,277,0,0,0,3,4,1,34,0003-00-0004-97.png,0005-00-0003-61.png
9,173,1,1443817789829,1443817789990,964,332,0,0,0,2,3,1,23,0002-00-0006-07.png,0003-00-0009-23.png
9,174,0,1443817790015,1443817790441,913,332,0,0,0,1,2,1,12,0004-00-0000-41.png,0002-00-0004-62.png
9,175,0,1443817790473,1443817790540,308,416,0,0,0,2,1,1,21,0002-00-0000-55.png,0004-00-0005-20.png
9,176,0,1443817790560,1443817790718,908,371,0,0,0,4,3,1,43,0005-00-0005-31.png,0003-00-0001-22.png
9,177,1,1443817790749,1443817790870,874,410,0,0,0,3,2,1,32,0003-00-0007-02.png,0002-00-0004-54.png
9,178,0,1443817790894,1443817791123,388,410,0,0,0,5,4,1,54,0001-00-0003-90.png,0005-00-0000-36.png
9,179,1,1443817791150,1443817792215,976,410,0,0,0,5,4,1,54,0001-00-0006-66.png,0005-00-0000-28.png
9,180,1,1443817792255,1443817793299,197,374,0,0,0,1,2,1,12,0004-00-0009-66.png,0002-00-0008-19.png
9,181,1,1443817793325,1443817795319,257,371,0,0,0,2,1,1,21,0002-00-0008-68.png,0004-00-0005-11.png
9,182,1,1443817795357,1443817799008,913,419,0,0,0,2,3,1,23,0002-00-0002-67.png,0003-00-0007-90.png
9,183,1,1443817799040,1443817802729,273,425,0,0,0,4,3,1,43,0005-00-0007-95.png,0003-00-0004-20.png
9,184,0,1443817802755,1443817803104,905,416,0,0,0,3,4,1,34,0003-00-0000-44.png,0005-00-0004-17.png
9,185,0,1443817803124,1443817805855,862,434,0,0,0,2,1,1,21,0002-00-0007-01.png,0004-00-0004-98.png
9,186,1,1443817805896,1443817806032,877,356,0,0,0,5,4,1,54,0001-00-0006-52.png,0005-00-0006-71.png
9,187,1,1443817806063,1443817806206,376,551,0,0,0,5,4,1,54,0001-00-0000-22.png,0005-00-0004-87.png
9,188,1,1443817806227,1443817806743,243,322,0,0,0,3,4,1,34,0003-00-0004-02.png,0005-00-0002-65.png
9,189,1,1443817806770,1443817807029,912,382,0,0,0,4,3,1,43,0005-00-0002-58.png,0003-00-0006-89.png
9,190,0,1443817807066,1443817807277,344,263,0,0,0,1,2,1,12,0004-00-0004-28.png,0002-00-0005-81.png
9,191,0,1443817807300,1443817807564,301,409,0,0,0,2,3,1,23,0002-00-0002-34.png,0003-00-0004-12.png
9,192,1,1443817807589,1443817808126,886,287,0,0,0,3,2,1,32,0003-00-0006-43.png,0002-00-0003-15.png
9,193,0,1443817808145,1443817808348,870,421,0,0,0,2,1,1,21,0002-00-0003-83.png,0004-00-0004-35.png
9,194,0,1443817808394,1443817812851,915,354,0,0,0,5,4,1,54,0001-00-0006-65.png,0005-00-0008-73.png
9,195,0,1443817812884,1443817813079,955,383,0,0,0,1,2,1,12,0004-00-0005-35.png,0002-00-0000-82.png
9,196,0,1443817813113,1443817813468,877,436,0,0,0,3,4,1,34,0003-00-0000-87.png,0005-00-0000-48.png
9,197,1,1443817813484,1443817813683,1050,249,0,0,0,2,3,1,23,0002-00-0007-84.png,0003-00-0001-69.png
9,198,1,1443817813717,1443817813879,865,383,0,0,0,3,2,1,32,0003-00-0007-24.png,0002-00-0006-05.png
9,199,1,1443817813914,1443817814736,926,347,0,0,0,5,4,1,54,0001-00-0002-10.png,0005-00-0008-45.png
9,200,1,1443817814756,1443817814799,915,356,0,0,0,4,3,1,43,0005-00-0001-35.png,0003-00-0008-74.png
9,201,0,1443817814830,1443817816272,317,389,0,0,0,5,4,1,54,0001-00-0000-94.png,0005-00-0000-97.png
9,202,0,1443817816303,1443817816847,259,380,0,0,0,5,4,1,54,0001-00-0005-62.png,0005-00-0007-92.png
9,203,0,1443817816876,1443817817022,945,371,0,0,0,2,1,1,21,0002-00-0006-73.png,0004-00-0002-52.png
9,204,0,1443817817045,1443817817531,964,541,0,0,0,3,2,1,32,0003-00-0002-62.png,0002-00-0001-76.png
9,205,0,1443817817563,1443817817615,426,255,0,0,0,3,4,1,34,0003-00-0009-89.png,0005-00-0000-23.png
9,206,1,1443817817643,1443817817748,401,243,0,0,0,2,3,1,23,0002-00-0002-19.png,0003-00-0003-10.png
9,207,0,1443817817776,1443817817873,334,399,0,0,0,1,2,1,12,0004-00-0007-03.png,0002-00-0005-19.png
9,208,0,1443817817909,1443817817935,936,373,0,0,0,4,3,1,43,0005-00-0005-16.png,0003-00-0000-13.png
9,209,1,1443817817962,1443817818225,1036,304,0,0,0,4,3,1,43,0005-00-0003-65.png,0003-00-0001-99.png
9,210,0,1443817818253,1443817818356,868,392,0,0,0,5,4,1,54,0001-00-0000-71.png,0005-00-0006-73.png
9,211,1,1443817818390,1443817818436,859,473,0,0,0,1,2,1,12,0004-00-0007-65.png,0002-00-0001-28.png
9,212,1,1443817818475,1443817818832,901,476,0,0,0,2,1,1,21,0002-00-0003-91.png,0004-00-0008-15.png
9,213,1,1443817818856,1443817818936,915,311,0,0,0,3,2,1,32,0003-00-0007-50.png,0002-00-0007-19.png
9,214,1,1443817818969,1443817819148,943,308,0,0,0,2,3,1,23,0002-00-0007-97.png,0003-00-0005-82.png
9,215,0,1443817819170,1443817819546,863,412,0,0,0,5,4,1,54,0001-00-0004-39.png,0005-00-0009-07.png
9,216,1,1443817819573,1443817820398,272,452,0,0,0,3,4,1,34,0003-00-0000-70.png,0005-00-0004-49.png
9,217,1,1443817820430,1443817820510,866,559,0,0,0,3,2,1,32,0003-00-0005-98.png,0002-00-0009-91.png
9,218,0,1443817820543,1443817821001,876,450,0,0,0,3,4,1,34,0003-00-0009-81.png,0005-00-0000-21.png
9,219,1,1443817821024,1443817821052,256,478,0,0,0,5,4,1,54,0001-00-0007-18.png,0005-00-0007-41.png
9,220,0,1443817821079,1443817821177,888,306,0,0,0,5,4,1,54,0001-00-0008-71.png,0005-00-0006-29.png
9,221,0,1443817821206,1443817822224,862,395,0,0,0,2,3,1,23,0002-00-0001-88.png,0003-00-0004-52.png
9,222,1,1443817822248,1443817822487,876,488,0,0,0,4,3,1,43,0005-00-0005-11.png,0003-00-0006-26.png
9,223,1,1443817822527,1443817822660,913,317,0,0,0,2,1,1,21,0002-00-0006-91.png,0004-00-0005-80.png
9,224,0,1443817822681,1443817824417,222,346,0,0,0,1,2,1,12,0004-00-0004-11.png,0002-00-0003-73.png
9,225,1,1443817824448,1443817824529,266,276,0,0,0,4,3,1,43,0005-00-0003-94.png,0003-00-0006-74.png
9,226,1,1443817824557,1443817825116,864,245,0,0,0,5,4,1,54,0001-00-0006-18.png,0005-00-0006-21.png
9,227,1,1443817825147,1443817825166,899,500,0,0,0,3,2,1,32,0003-00-0003-26.png,0002-00-0002-68.png
9,228,1,1443817825206,1443817825651,950,352,0,0,0,3,4,1,34,0003-00-0009-90.png,0005-00-0004-75.png
9,229,0,1443817825669,1443817826497,495,253,0,0,0,5,4,1,54,0001-00-0005-56.png,0005-00-0007-18.png
9,230,1,1443817826525,1443817827286,376,299,0,0,0,2,3,1,23,0002-00-0000-26.png,0003-00-0009-38.png
9,231,1,1443817827305,1443817827649,913,355,0,0,0,2,1,1,21,0002-00-0009-14.png,0004-00-0005-49.png
9,232,1,1443817827681,1443817828923,928,410,0,0,0,1,2,1,12,0004-00-0008-45.png,0002-00-0009-38.png
9,233,1,1443817828954,1443817829277,464,253,0,0,0,4,3,1,43,0005-00-0002-09.png,0003-00-0007-38.png
9,234,0,1443817829308,1443817830254,513,341,0,0,0,1,2,1,12,0004-00-0001-70.png,0002-00-0000-73.png
9,235,0,1443817830282,1443817830474,939,514,0,0,0,5,4,1,54,0001-00-0009-38.png,0005-00-0004-55.png
9,236,1,1443817830507,1443817830688,900,462,0,0,0,5,4,1,54,0001-00-0005-45.png,0005-00-0004-04.png
9,237,1,1443817830727,1443817830871,880,340,0,0,0,3,2,1,32,0003-00-0002-02.png,0002-00-0007-03.png
9,238,0,1443817830899,1443817831203,910,332,0,0,0,3,4,1,34,0003-00-0006-49.png,0005-00-0007-30.png
9,239,0,1443817831231,1443817831284,424,356,0,0,0,2,3,1,23,0002-00-0004-11.png,0003-00-0002-91.png
9,240,1,1443817831318,1443817831388,318,374,0,0,0,2,1,1,21,0002-00-0008-95.png,0004-00-0006-62.png
9,241,1,1443817831415,1443817831662,289,302,0,0,0,3,2,1,32,0003-00-0003-84.png,0002-00-0008-53.png
9,242,1,1443817831685,1443817831777,1092,291,0,0,0,4,3,1,43,0005-00-0000-38.png,0003-00-0000-07.png
9,243,0,1443817831794,1443817832376,896,352,0,0,0,5,4,1,54,0001-00-0001-52.png,0005-00-0002-53.png
9,244,0,1443817832402,1443817832775,887,361,0,0,0,1,2,1,12,0004-00-0006-02.png,0002-00-0009-27.png
9,245,1,1443817832795,1443817832934,964,553,0,0,0,2,1,1,21,0002-00-0003-21.png,0004-00-0009-16.png
9,246,1,1443817832958,1443817833298,295,328,0,0,0,5,4,1,54,0001-00-0004-01.png,0005-00-0005-38.png
9,247,1,1443817833323,1443817833367,880,323,0,0,0,2,3,1,23,0002-00-0007-63.png,0003-00-0004-90.png
9,248,1,1443817833385,1443817834627,859,347,0,0,0,3,4,1,34,0003-00-0005-99.png,0005-00-0000-27.png
9,249,1,1443817834665,1443817840594,1133,253,0,0,0,5,4,1,54,0001-00-0009-26.png,0005-00-0008-81.png
9,250,1,1443817840622,1443817840740,1156,332,0,0,0,2,1,1,21,0002-00-0005-63.png,0004-00-0006-37.png
9,251,1,1443817840765,1443817840875,888,227,0,0,0,2,3,1,23,0002-00-0003-76.png,0003-00-0005-60.png
9,252,0,1443817840904,1443817841032,925,428,0,0,0,1,2,1,12,0004-00-0004-12.png,0002-00-0009-41.png
9,253,1,1443817841055,1443817841354,890,558,0,0,0,5,4,1,54,0001-00-0005-33.png,0005-00-0000-65.png
9,254,1,1443817841375,1443817842000,1093,352,0,0,0,4,3,1,43,0005-00-0006-65.png,0003-00-0003-68.png
9,255,0,1443817842029,1443817842131,888,436,0,0,0,3,4,1,34,0003-00-0008-30.png,0005-00-0000-01.png
9,256,0,1443817842169,1443817842716,861,279,0,0,0,3,2,1,32,0003-00-0001-99.png,0002-00-0006-02.png
9,257,0,1443817842754,1443817844508,321,357,0,0,0,4,3,1,43,0005-00-0002-78.png,0003-00-0006-47.png
9,258,0,1443817844550,1443817844807,863,441,0,0,0,3,4,1,34,0003-00-0002-35.png,0005-00-0005-97.png
9,259,1,1443817844826,1443817844927,939,370,0,0,0,5,4,1,54,0001-00-0002-20.png,0005-00-0007-83.png
9,260,0,1443817844963,1443817845285,913,384,0,0,0,2,1,1,21,0002-00-0008-36.png,0004-00-0000-15.png
9,261,0,1443817845319,1443817851935,902,462,0,0,0,5,4,1,54,0001-00-0004-18.png,0005-00-0003-08.png
9,262,0,1443817851975,1443817852091,888,462,0,0,0,2,3,1,23,0002-00-0000-25.png,0003-00-0007-57.png
9,263,0,1443817852161,1443817852564,913,316,0,0,0,1,2,1,12,0004-00-0004-07.png,0002-00-0009-79.png
9,264,1,1443817852593,1443817853937,939,420,0,0,0,3,2,1,32,0003-00-0006-18.png,0002-00-0007-41.png
9,265,1,1443817853963,1443817854025,887,365,0,0,0,3,2,1,32,0003-00-0009-91.png,0002-00-0006-77.png
9,266,1,1443817854062,1443817862359,273,358,0,0,0,4,3,1,43,0005-00-0009-69.png,0003-00-0002-55.png
9,267,0,1443817862391,1443817866773,973,488,0,0,0,2,1,1,21,0002-00-0009-19.png,0004-00-0007-78.png
9,268,0,1443817866809,1443817866894,888,514,0,0,0,5,4,1,54,0001-00-0004-92.png,0005-00-0002-94.png
9,269,0,1443817866925,1443817866963,926,502,0,0,0,1,2,1,12,0004-00-0007-71.png,0002-00-0007-09.png
9,270,1,1443817866992,1443817868083,964,322,0,0,0,3,4,1,34,0003-00-0009-93.png,0005-00-0006-35.png
9,271,0,1443817868118,1443817868161,376,290,0,0,0,2,3,1,23,0002-00-0000-37.png,0003-00-0000-78.png
9,272,1,1443817868197,1443817868259,934,329,0,0,0,5,4,1,54,0001-00-0009-68.png,0005-00-0007-21.png
9,273,1,1443817868287,1443817868328,886,443,0,0,0,1,2,1,12,0004-00-0009-02.png,0002-00-0001-94.png
9,274,1,1443817868358,1443817868948,259,292,0,0,0,5,4,1,54,0001-00-0009-14.png,0005-00-0001-54.png
9,275,1,1443817868984,1443817871374,894,376,0,0,0,3,2,1,32,0003-00-0008-05.png,0002-00-0008-68.png
9,276,1,1443817871395,1443817871689,305,362,0,0,0,2,1,1,21,0002-00-0000-44.png,0004-00-0004-89.png
9,277,0,1443817871719,1443817871844,1118,306,0,0,0,5,4,1,54,0001-00-0006-81.png,0005-00-0005-82.png
9,278,1,1443817871866,1443817872030,393,323,0,0,0,4,3,1,43,0005-00-0006-94.png,0003-00-0000-16.png
9,279,0,1443817872053,1443817873709,307,350,0,0,0,2,3,1,23,0002-00-0004-71.png,0003-00-0001-42.png
9,280,0,1443817873739,1443817873857,394,290,0,0,0,3,4,1,34,0003-00-0000-39.png,0005-00-0009-07.png
9,281,0,1443817873885,1443817874306,939,456,0,0,0,2,1,1,21,0002-00-0004-32.png,0004-00-0005-29.png
9,282,0,1443817874339,1443817874660,858,363,0,0,0,5,4,1,54,0001-00-0003-82.png,0005-00-0007-84.png
9,283,1,1443817874686,1443817874935,356,356,0,0,0,3,4,1,34,0003-00-0007-48.png,0005-00-0007-19.png
9,284,1,1443817874958,1443817875091,934,536,0,0,0,1,2,1,12,0004-00-0005-52.png,0002-00-0002-86.png
9,285,1,1443817875114,1443817876124,912,389,0,0,0,3,2,1,32,0003-00-0004-25.png,0002-00-0003-65.png
9,286,1,1443817876159,1443817876287,862,368,0,0,0,5,4,1,54,0001-00-0000-15.png,0005-00-0005-43.png
9,287,0,1443817876305,1443817878338,288,314,0,0,0,4,3,1,43,0005-00-0009-29.png,0003-00-0009-35.png
9,288,0,1443817878365,1443817879976,291,410,0,0,0,2,3,1,23,0002-00-0008-50.png,0003-00-0008-75.png
9,289,0,1443817880006,1443817880170,966,304,0,0,0,3,4,1,34,0003-00-0002-14.png,0005-00-0000-76.png
9,290,1,1443817880196,1443817880879,298,399,0,0,0,2,1,1,21,0002-00-0004-87.png,0004-00-0005-59.png
9,291,1,1443817880900,1443817880946,1016,296,0,0,0,4,3,1,43,0005-00-0007-59.png,0003-00-0005-52.png
9,292,0,1443817880969,1443817881018,867,356,0,0,0,5,4,1,54,0001-00-0008-14.png,0005-00-0007-47.png
9,293,0,1443817881042,1443817881649,901,477,0,0,0,2,3,1,23,0002-00-0001-99.png,0003-00-0009-57.png
9,294,1,1443817881678,1443817882623,874,436,0,0,0,5,4,1,54,0001-00-0007-76.png,0005-00-0009-62.png
9,295,0,1443817882651,1443817882753,453,341,0,0,0,1,2,1,12,0004-00-0002-26.png,0002-00-0005-18.png
9,296,1,1443817882781,1443817883123,303,385,0,0,0,3,2,1,32,0003-00-0002-20.png,0002-00-0009-96.png
9,297,1,1443817883153,1443817883235,916,331,0,0,0,5,4,1,54,0001-00-0001-63.png,0005-00-0009-57.png
9,298,1,1443817883254,1443817883425,244,237,0,0,0,1,2,1,12,0004-00-0007-92.png,0002-00-0005-33.png
9,299,0,1443817883454,1443817883795,213,327,0,0,0,2,3,1,23,0002-00-0000-57.png,0003-00-0006-15.png
9,300,1,1443817883815,1443817884044,325,372,0,0,0,4,3,1,43,0005-00-0004-65.png,0003-00-0005-60.png
9,301,1,1443817884064,1443817885661,974,562,0,0,0,5,4,1,54,0001-00-0000-25.png,0005-00-0000-52.png
9,302,1,1443817885693,1443817886999,241,335,0,0,0,3,2,1,32,0003-00-0001-29.png,0002-00-0008-42.png
9,303,1,1443817887030,1443817887381,866,276,0,0,0,2,1,1,21,0002-00-0006-97.png,0004-00-0005-23.png
9,304,0,1443817887405,1443817890450,862,293,0,0,0,3,4,1,34,0003-00-0008-62.png,0005-00-0002-15.png
9,305,0,1443817890474,1443817890625,857,416,0,0,0,2,3,1,23,0002-00-0000-70.png,0003-00-0008-37.png
9,306,0,1443817890650,1443817893644,306,379,0,0,0,2,1,1,21,0002-00-0002-36.png,0004-00-0003-59.png
9,307,1,1443817893663,1443817893993,899,474,0,0,0,5,4,1,54,0001-00-0009-77.png,0005-00-0005-55.png
9,308,1,1443817894024,1443817894139,862,420,0,0,0,1,2,1,12,0004-00-0006-97.png,0002-00-0004-54.png
9,309,1,1443817894174,1443817895046,884,421,0,0,0,5,4,1,54,0001-00-0007-52.png,0005-00-0002-46.png
9,310,0,1443817895077,1443817895305,1042,563,0,0,0,3,4,1,34,0003-00-0008-31.png,0005-00-0007-29.png
9,311,1,1443817895336,1443817899403,861,235,0,0,0,4,3,1,43,0005-00-0003-76.png,0003-00-0006-85.png
9,312,1,1443817899435,1443817899755,939,320,0,0,0,3,2,1,32,0003-00-0002-98.png,0002-00-0008-32.png
9,313,1,1443817899774,1443817901249,964,530,0,0,0,5,4,1,54,0001-00-0009-15.png,0005-00-0005-24.png
9,314,0,1443817901270,1443817901296,867,334,0,0,0,5,4,1,54,0001-00-0005-63.png,0005-00-0004-38.png
9,315,0,1443817901335,1443817902927,1092,267,0,0,0,1,2,1,12,0004-00-0005-28.png,0002-00-0008-29.png
9,316,1,1443817902974,1443817910078,913,367,0,0,0,4,3,1,43,0005-00-0005-55.png,0003-00-0007-93.png
9,317,0,1443817910109,1443817910155,935,363,0,0,0,2,1,1,21,0002-00-0004-67.png,0004-00-0008-42.png
9,318,1,1443817910194,1443817910212,865,351,0,0,0,3,4,1,34,0003-00-0000-55.png,0005-00-0002-00.png
9,319,0,1443817910248,1443817910824,312,382,0,0,0,3,2,1,32,0003-00-0004-19.png,0002-00-0001-93.png
9,320,1,1443817910854,1443817911423,1096,282,0,0,0,2,3,1,23,0002-00-0004-10.png,0003-00-0006-57.png
9,321,1,1443817911447,1443817913162,913,462,0,0,0,3,4,1,34,0003-00-0001-56.png,0005-00-0005-45.png
9,322,0,1443817913206,1443817913345,902,488,0,0,0,2,3,1,23,0002-00-0005-08.png,0003-00-0001-07.png
9,323,0,1443817913364,1443817914187,222,314,0,0,0,5,4,1,54,0001-00-0009-32.png,0005-00-0007-62.png
9,324,0,1443817914223,1443817914413,867,336,0,0,0,3,2,1,32,0003-00-0007-85.png,0002-00-0005-93.png
9,325,1,1443817914449,1443817914526,315,348,0,0,0,2,1,1,21,0002-00-0004-89.png,0004-00-0007-64.png
9,326,1,1443817914548,1443817920986,305,401,0,0,0,1,2,1,12,0004-00-0004-01.png,0002-00-0003-91.png
9,327,0,1443817921014,1443817921069,913,514,0,0,0,4,3,1,43,0005-00-0000-60.png,0003-00-0000-11.png
9,328,0,1443817921097,1443817926907,252,292,0,0,0,5,4,1,54,0001-00-0005-01.png,0005-00-0009-80.png
9,329,1,1443817926950,1443817927199,401,239,0,0,0,2,1,1,21,0002-00-0004-11.png,0004-00-0008-12.png
9,330,0,1443817927222,1443817929832,960,336,0,0,0,5,4,1,54,0001-00-0009-55.png,0005-00-0001-42.png
9,331,1,1443817929851,1443817930187,924,410,0,0,0,3,4,1,34,0003-00-0004-45.png,0005-00-0004-95.png
9,332,1,1443817930218,1443817931380,950,349,0,0,0,1,2,1,12,0004-00-0007-45.png,0002-00-0001-92.png
9,333,0,1443817931407,1443817932219,937,410,0,0,0,5,4,1,54,0001-00-0009-85.png,0005-00-0001-01.png
9,334,1,1443817932244,1443817932299,893,344,0,0,0,4,3,1,43,0005-00-0006-21.png,0003-00-0006-76.png
9,335,1,1443817932343,1443817932660,936,344,0,0,0,3,2,1,32,0003-00-0005-41.png,0002-00-0007-08.png
9,336,0,1443817932684,1443817932791,936,358,0,0,0,2,3,1,23,0002-00-0008-07.png,0003-00-0004-90.png
9,337,1,1443817932824,1443817932831,1058,410,0,0,0,3,2,1,32,0003-00-0002-76.png,0002-00-0002-92.png
9,338,0,1443817932854,1443817934156,899,350,0,0,0,5,4,1,54,0001-00-0000-61.png,0005-00-0006-95.png
9,339,0,1443817934186,1443817934617,261,240,0,0,0,3,4,1,34,0003-00-0008-52.png,0005-00-0004-80.png
9,340,1,1443817934646,1443817936837,402,246,0,0,0,2,3,1,23,0002-00-0002-92.png,0003-00-0009-47.png
9,341,1,1443817936874,1443817937037,862,462,0,0,0,4,3,1,43,0005-00-0003-20.png,0003-00-0004-48.png
9,342,1,1443817937071,1443817937648,871,455,0,0,0,2,1,1,21,0002-00-0006-12.png,0004-00-0006-62.png
9,343,0,1443817937683,1443817937873,872,462,0,0,0,5,4,1,54,0001-00-0008-55.png,0005-00-0008-66.png
9,344,1,1443817937917,1443817938856,878,332,0,0,0,1,2,1,12,0004-00-0006-19.png,0002-00-0001-90.png
9,345,0,1443817938893,1443817938914,888,381,0,0,0,2,3,1,23,0002-00-0009-59.png,0003-00-0005-09.png
9,346,1,1443817938945,1443817939079,911,330,0,0,0,4,3,1,43,0005-00-0004-35.png,0003-00-0005-07.png
9,347,0,1443817939106,1443817940562,896,323,0,0,0,3,4,1,34,0003-00-0008-60.png,0005-00-0005-14.png
9,348,0,1443817940599,1443817941752,1107,447,0,0,0,1,2,1,12,0004-00-0000-03.png,0002-00-0009-36.png
9,349,1,1443817941789,1443817942584,964,231,0,0,0,3,2,1,32,0003-00-0006-09.png,0002-00-0000-74.png
9,350,1,1443817942609,1443817942943,980,553,0,0,0,5,4,1,54,0001-00-0004-28.png,0005-00-0008-14.png
9,351,0,1443817942964,1443817943036,866,329,0,0,0,5,4,1,54,0001-00-0005-74.png,0005-00-0002-38.png
9,352,0,1443817943060,1443817943618,317,394,0,0,0,2,1,1,21,0002-00-0009-41.png,0004-00-0003-55.png
9,353,1,1443817943663,1443817945608,1017,295,0,0,0,5,4,1,54,0001-00-0004-60.png,0005-00-0003-77.png
9,354,0,1443817945632,1443817945683,913,245,0,0,0,4,3,1,43,0005-00-0007-99.png,0003-00-0003-37.png
9,355,0,1443817945712,1443817945811,873,451,0,0,0,2,1,1,21,0002-00-0005-41.png,0004-00-0004-74.png
9,356,0,1443817945838,1443817952880,859,414,0,0,0,2,3,1,23,0002-00-0006-31.png,0003-00-0001-30.png
9,357,1,1443817952919,1443817953395,339,436,0,0,0,1,2,1,12,0004-00-0001-09.png,0002-00-0003-91.png
9,358,0,1443817953417,1443817953434,865,324,0,0,0,3,2,1,32,0003-00-0006-62.png,0002-00-0004-15.png
9,359,1,1443817953455,1443817953688,313,357,0,0,0,3,4,1,34,0003-00-0002-29.png,0005-00-0002-06.png
9,360,1,1443817953722,1443817953812,913,514,0,0,0,5,4,1,54,0001-00-0002-00.png,0005-00-0007-54.png
9,361,1,1443817953842,1443817954287,284,402,0,0,0,5,4,1,54,0001-00-0005-31.png,0005-00-0002-18.png
9,362,1,1443817954315,1443817955442,323,395,0,0,0,2,3,1,23,0002-00-0003-64.png,0003-00-0005-72.png
9,363,0,1443817955471,1443817955546,498,280,0,0,0,5,4,1,54,0001-00-0001-87.png,0005-00-0003-07.png
9,364,1,1443817955577,1443817955694,401,330,0,0,0,1,2,1,12,0004-00-0006-10.png,0002-00-0005-82.png
9,365,1,1443817955736,1443817955845,342,244,0,0,0,2,1,1,21,0002-00-0003-90.png,0004-00-0001-47.png
9,366,0,1443817955878,1443817956222,376,449,0,0,0,3,4,1,34,0003-00-0007-06.png,0005-00-0000-49.png
9,367,0,1443817956252,1443817956746,962,332,0,0,0,4,3,1,43,0005-00-0006-57.png,0003-00-0008-95.png
9,368,1,1443817956782,1443817957902,974,337,0,0,0,3,2,1,32,0003-00-0005-61.png,0002-00-0001-45.png
9,369,1,1443817957923,1443817958758,887,369,0,0,0,4,3,1,43,0005-00-0007-29.png,0003-00-0007-01.png
9,370,0,1443817958782,1443817959034,876,416,0,0,0,5,4,1,54,0001-00-0008-59.png,0005-00-0001-25.png
9,371,1,1443817959077,1443817959394,256,227,0,0,0,2,1,1,21,0002-00-0009-68.png,0004-00-0003-02.png
9,372,1,1443817959428,1443817959491,948,410,0,0,0,2,3,1,23,0002-00-0009-67.png,0003-00-0008-87.png
9,373,1,1443817959521,1443817959814,1002,527,0,0,0,1,2,1,12,0004-00-0009-57.png,0002-00-0005-38.png
9,374,0,1443817959869,1443817960055,862,352,0,0,0,3,2,1,32,0003-00-0002-06.png,0002-00-0009-36.png
9,375,1,1443817960075,1443817960209,362,299,0,0,0,5,4,1,54,0001-00-0009-59.png,0005-00-0007-07.png
9,376,1,1443817960249,1443817960476,962,332,0,0,0,3,4,1,34,0003-00-0000-99.png,0005-00-0004-53.png
9,377,1,1443817960509,1443817960632,890,371,0,0,0,3,4,1,34,0003-00-0000-64.png,0005-00-0006-18.png
9,378,1,1443817960667,1443817960698,857,425,0,0,0,4,3,1,43,0005-00-0008-18.png,0003-00-0007-89.png
9,379,0,1443817960735,1443817960857,939,541,0,0,0,2,1,1,21,0002-00-0000-17.png,0004-00-0006-41.png
9,380,0,1443817960882,1443817961417,1077,302,0,0,0,1,2,1,12,0004-00-0006-49.png,0002-00-0009-12.png
9,381,0,1443817961446,1443817961857,386,331,0,0,0,5,4,1,54,0001-00-0006-29.png,0005-00-0002-49.png
9,382,1,1443817961875,1443817966397,964,322,0,0,0,5,4,1,54,0001-00-0006-23.png,0005-00-0008-71.png
9,383,0,1443817966444,1443817967408,925,384,0,0,0,2,3,1,23,0002-00-0009-87.png,0003-00-0003-98.png
9,384,1,1443817967445,1443817967848,908,390,0,0,0,3,2,1,32,0003-00-0000-39.png,0002-00-0000-06.png
9,385,0,1443817967871,1443817968396,908,352,0,0,0,1,2,1,12,0004-00-0006-07.png,0002-00-0005-99.png
9,386,0,1443817968433,1443817968656,288,347,0,0,0,3,4,1,34,0003-00-0000-67.png,0005-00-0007-91.png
9,387,1,1443817968680,1443817969111,317,420,0,0,0,4,3,1,43,0005-00-0005-26.png,0003-00-0008-83.png
9,388,1,1443817969140,1443817969220,862,334,0,0,0,5,4,1,54,0001-00-0008-27.png,0005-00-0009-20.png
9,389,0,1443817969247,1443817969636,928,399,0,0,0,2,3,1,23,0002-00-0002-65.png,0003-00-0000-47.png
9,390,0,1443817969678,1443817971455,926,488,0,0,0,3,2,1,32,0003-00-0002-23.png,0002-00-0006-70.png
9,391,1,1443817971478,1443817972170,923,358,0,0,0,5,4,1,54,0001-00-0008-21.png,0005-00-0000-49.png
9,392,0,1443817972208,1443817972278,279,331,0,0,0,2,1,1,21,0002-00-0002-09.png,0004-00-0002-75.png
9,393,0,1443817972298,1443817972341,913,424,0,0,0,1,2,1,12,0004-00-0003-49.png,0002-00-0005-93.png
9,394,1,1443817972361,1443817972451,897,332,0,0,0,3,2,1,32,0003-00-0007-66.png,0002-00-0002-09.png
9,395,0,1443817972476,1443817972948,1068,413,0,0,0,5,4,1,54,0001-00-0006-72.png,0005-00-0005-03.png
9,396,1,1443817972982,1443817975640,308,391,0,0,0,5,4,1,54,0001-00-0005-02.png,0005-00-0000-35.png
9,397,1,1443817975664,1443817976038,888,410,0,0,0,4,3,1,43,0005-00-0000-96.png,0003-00-0006-68.png
9,398,1,1443817976064,1443817976420,862,448,0,0,0,3,4,1,34,0003-00-0006-73.png,0005-00-0003-77.png
9,399,1,1443817976450,1443817977025,338,380,0,0,0,2,1,1,21,0002-00-0007-16.png,0004-00-0001-92.png
9,400,0,1443817977047,1443817977791,211,488,0,0,0,2,3,1,23,0002-00-0002-21.png,0003-00-0009-35.png
9,401,1,1443817977835,1443817978349,177,368,0,0,0,4,3,1,43,0005-00-0002-35.png,0003-00-0006-59.png
9,402,0,1443817978383,1443817982957,372,353,0,0,0,3,4,1,34,0003-00-0001-29.png,0005-00-0003-25.png
9,403,0,1443817983002,1443817983096,335,267,0,0,0,3,2,1,32,0003-00-0002-25.png,0002-00-0008-95.png
9,404,0,1443817983119,1443817983336,1016,307,0,0,0,5,4,1,54,0001-00-0009-92.png,0005-00-0001-33.png
9,405,1,1443817983358,1443817985771,898,338,0,0,0,1,2,1,12,0004-00-0008-15.png,0002-00-0001-89.png
9,406,1,1443817985805,1443817987418,247,354,0,0,0,5,4,1,54,0001-00-0002-76.png,0005-00-0000-60.png
9,407,1,1443817987439,1443817987555,218,333,0,0,0,2,1,1,21,0002-00-0006-65.png,0004-00-0002-68.png
9,408,0,1443817987589,1443817989420,415,372,0,0,0,2,3,1,23,0002-00-0005-65.png,0003-00-0006-80.png
9,409,1,1443817989445,1443817989468,1016,305,0,0,0,3,2,1,32,0003-00-0004-62.png,0002-00-0004-68.png
9,410,0,1443817989487,1443817989842,875,477,0,0,0,4,3,1,43,0005-00-0009-66.png,0003-00-0007-05.png
9,411,1,1443817989870,1443817990124,870,455,0,0,0,2,3,1,23,0002-00-0006-86.png,0003-00-0008-81.png
9,412,1,1443817990142,1443817990210,925,541,0,0,0,5,4,1,54,0001-00-0005-67.png,0005-00-0003-12.png
9,413,0,1443817990235,1443817990927,913,358,0,0,0,2,1,1,21,0002-00-0000-73.png,0004-00-0000-42.png
9,414,1,1443817990949,1443817991096,394,344,0,0,0,3,4,1,34,0003-00-0004-54.png,0005-00-0008-57.png
9,415,1,1443817991116,1443817995431,1155,282,0,0,0,1,2,1,12,0004-00-0004-97.png,0002-00-0002-93.png
9,416,1,1443817995455,1443817995791,389,279,0,0,0,5,4,1,54,0001-00-0001-60.png,0005-00-0002-03.png
9,417,0,1443817995813,1443817996144,1055,310,0,0,0,4,3,1,43,0005-00-0004-52.png,0003-00-0000-95.png
9,418,1,1443817996188,1443817996597,964,553,0,0,0,3,2,1,32,0003-00-0000-85.png,0002-00-0008-05.png
9,419,1,1443817996632,1443817996788,895,449,0,0,0,2,3,1,23,0002-00-0007-66.png,0003-00-0004-11.png
9,420,1,1443817996824,1443817996831,336,363,0,0,0,3,4,1,34,0003-00-0007-64.png,0005-00-0007-84.png
9,421,0,1443817996854,1443817996888,283,384,0,0,0,2,1,1,21,0002-00-0000-52.png,0004-00-0004-10.png
9,422,1,1443817996917,1443818022102,477,512,0,0,0,1,2,1,12,0004-00-0009-29.png,0002-00-0002-82.png
9,423,0,1443818022129,1443818022618,888,355,0,0,0,5,4,1,54,0001-00-0006-82.png,0005-00-0000-93.png
9,424,1,1443818022657,1443818023343,320,380,0,0,0,5,4,1,54,0001-00-0000-96.png,0005-00-0008-46.png
9,425,1,1443818023371,1443818023540,888,488,0,0,0,3,2,1,32,0003-00-0000-03.png,0002-00-0002-42.png
9,426,1,1443818023577,1443818023756,877,357,0,0,0,2,1,1,21,0002-00-0000-65.png,0004-00-0000-83.png
9,427,0,1443818023788,1443818024033,961,369,0,0,0,3,4,1,34,0003-00-0002-82.png,0005-00-0009-90.png
9,428,1,1443818024058,1443818024209,915,360,0,0,0,1,2,1,12,0004-00-0006-33.png,0002-00-0009-16.png
9,429,1,1443818024231,1443818025662,891,393,0,0,0,5,4,1,54,0001-00-0005-98.png,0005-00-0005-94.png
9,430,1,1443818025699,1443818025960,888,332,0,0,0,5,4,1,54,0001-00-0000-60.png,0005-00-0007-87.png
9,431,0,1443818025987,1443818026549,902,462,0,0,0,2,3,1,23,0002-00-0005-88.png,0003-00-0001-34.png
9,432,0,1443818026578,1443818028914,928,336,0,0,0,4,3,1,43,0005-00-0002-65.png,0003-00-0008-45.png
9,433,1,1443818028944,1443818029062,397,291,0,0,0,4,3,1,43,0005-00-0005-63.png,0003-00-0001-22.png
9,434,0,1443818029084,1443818029123,941,330,0,0,0,2,3,1,23,0002-00-0008-14.png,0003-00-0007-50.png
9,435,1,1443818029140,1443818029861,933,343,0,0,0,3,2,1,32,0003-00-0004-49.png,0002-00-0008-82.png
9,436,1,1443818029901,1443818029999,862,480,0,0,0,3,4,1,34,0003-00-0006-81.png,0005-00-0008-83.png
9,437,1,1443818030022,1443818030283,1090,300,0,0,0,2,1,1,21,0002-00-0006-90.png,0004-00-0009-94.png
9,438,0,1443818030314,1443818031429,862,420,0,0,0,5,4,1,54,0001-00-0003-61.png,0005-00-0009-08.png
9,439,1,1443818031457,1443818031697,939,488,0,0,0,1,2,1,12,0004-00-0008-91.png,0002-00-0004-59.png
9,440,1,1443818031718,1443818033230,913,358,0,0,0,5,4,1,54,0001-00-0009-33.png,0005-00-0001-80.png
9,441,1,1443818033253,1443818034141,293,531,0,0,0,4,3,1,43,0005-00-0006-20.png,0003-00-0005-45.png
9,442,0,1443818034169,1443818034564,266,472,0,0,0,1,2,1,12,0004-00-0005-40.png,0002-00-0008-95.png
9,443,1,1443818034608,1443818035002,226,342,0,0,0,3,4,1,34,0003-00-0001-77.png,0005-00-0006-14.png
9,444,0,1443818035046,1443818035742,1016,253,0,0,0,2,3,1,23,0002-00-0000-58.png,0003-00-0008-91.png
9,445,1,1443818035761,1443818037059,873,483,0,0,0,5,4,1,54,0001-00-0006-04.png,0005-00-0009-06.png
9,446,0,1443818037089,1443818037163,862,415,0,0,0,2,1,1,21,0002-00-0008-16.png,0004-00-0006-81.png
9,447,0,1443818037202,1443818037430,270,270,0,0,0,5,4,1,54,0001-00-0000-07.png,0005-00-0005-93.png
9,448,1,1443818037475,1443818046013,453,306,0,0,0,3,2,1,32,0003-00-0003-74.png,0002-00-0009-25.png
9,449,1,1443818046057,1443818046229,950,514,0,0,0,4,3,1,43,0005-00-0006-68.png,0003-00-0006-78.png
9,450,0,1443818046259,1443818046375,1030,301,0,0,0,2,3,1,23,0002-00-0002-20.png,0003-00-0000-36.png
9,451,1,1443818046394,1443818047236,860,443,0,0,0,3,4,1,34,0003-00-0006-61.png,0005-00-0002-00.png
9,452,1,1443818047258,1443818049154,888,358,0,0,0,1,2,1,12,0004-00-0008-13.png,0002-00-0001-07.png
9,453,1,1443818049193,1443818049813,885,363,0,0,0,3,2,1,32,0003-00-0000-44.png,0002-00-0002-01.png
9,454,1,1443818049835,1443818050695,886,362,0,0,0,5,4,1,54,0001-00-0008-82.png,0005-00-0007-60.png
9,455,0,1443818050731,1443818050819,504,541,0,0,0,2,1,1,21,0002-00-0006-20.png,0004-00-0002-24.png
9,456,0,1443818050842,1443818051110,322,490,0,0,0,5,4,1,54,0001-00-0002-47.png,0005-00-0004-42.png
9,457,0,1443818051139,1443818051605,994,355,0,0,0,5,4,1,54,0001-00-0000-24.png,0005-00-0000-87.png
9,458,1,1443818051637,1443818052532,287,477,0,0,0,3,2,1,32,0003-00-0004-03.png,0002-00-0000-13.png
9,459,0,1443818052567,1443818052575,947,352,0,0,0,4,3,1,43,0005-00-0004-99.png,0003-00-0004-34.png
9,460,1,1443818052596,1443818053722,936,333,0,0,0,5,4,1,54,0001-00-0007-94.png,0005-00-0005-01.png
9,461,1,1443818053765,1443818053942,251,524,0,0,0,1,2,1,12,0004-00-0001-07.png,0002-00-0001-37.png
9,462,1,1443818053966,1443818054672,985,364,0,0,0,2,1,1,21,0002-00-0008-23.png,0004-00-0008-33.png
9,463,1,1443818054700,1443818055088,256,498,0,0,0,2,3,1,23,0002-00-0009-68.png,0003-00-0000-79.png
9,464,1,1443818055113,1443818055307,300,390,0,0,0,3,4,1,34,0003-00-0006-99.png,0005-00-0004-00.png
9,465,0,1443818055341,1443818055539,939,419,0,0,0,5,4,1,54,0001-00-0003-21.png,0005-00-0002-68.png
9,466,1,1443818055560,1443818055664,871,428,0,0,0,2,3,1,23,0002-00-0008-62.png,0003-00-0005-85.png
9,467,1,1443818055697,1443818055763,922,352,0,0,0,4,3,1,43,0005-00-0002-84.png,0003-00-0005-68.png
9,468,0,1443818055803,1443818055890,278,413,0,0,0,2,1,1,21,0002-00-0003-79.png,0004-00-0002-03.png
9,469,0,1443818055930,1443818056075,224,226,0,0,0,5,4,1,54,0001-00-0009-27.png,0005-00-0005-16.png
9,470,1,1443818056108,1443818057213,890,407,0,0,0,3,2,1,32,0003-00-0007-76.png,0002-00-0009-98.png
9,471,1,1443818057242,1443818057309,862,422,0,0,0,3,4,1,34,0003-00-0003-31.png,0005-00-0003-65.png
9,472,0,1443818057347,1443818057740,866,353,0,0,0,1,2,1,12,0004-00-0009-69.png,0002-00-0009-66.png
9,473,1,1443818057764,1443818057976,325,394,0,0,0,4,3,1,43,0005-00-0003-48.png,0003-00-0007-41.png
9,474,0,1443818058002,1443818058358,352,273,0,0,0,5,4,1,54,0001-00-0006-50.png,0005-00-0006-58.png
9,475,1,1443818058383,1443818058515,280,399,0,0,0,2,3,1,23,0002-00-0003-51.png,0003-00-0001-24.png
9,476,1,1443818058544,1443818058932,277,287,0,0,0,1,2,1,12,0004-00-0006-99.png,0002-00-0000-08.png
9,477,1,1443818058963,1443818059055,453,329,0,0,0,5,4,1,54,0001-00-0003-97.png,0005-00-0002-04.png
9,478,0,1443818059079,1443818061153,859,404,0,0,0,3,4,1,34,0003-00-0000-51.png,0005-00-0000-31.png
9,479,0,1443818061180,1443818061395,309,290,0,0,0,3,2,1,32,0003-00-0000-42.png,0002-00-0009-09.png
9,480,0,1443818061417,1443818061951,1107,392,0,0,0,2,1,1,21,0002-00-0009-09.png,0004-00-0008-87.png
9,481,0,1443818061971,1443818064271,256,332,0,0,0,3,4,1,34,0003-00-0005-78.png,0005-00-0007-79.png
9,482,1,1443818064304,1443818064806,325,279,0,0,0,5,4,1,54,0001-00-0005-38.png,0005-00-0001-10.png
9,483,1,1443818064843,1443818065034,290,435,0,0,0,3,2,1,32,0003-00-0000-79.png,0002-00-0009-64.png
9,484,0,1443818065062,1443818065376,915,415,0,0,0,4,3,1,43,0005-00-0001-00.png,0003-00-0008-98.png
9,485,1,1443818065401,1443818065408,182,332,0,0,0,5,4,1,54,0001-00-0002-62.png,0005-00-0000-19.png
9,486,0,1443818065443,1443818066911,909,223,0,0,0,1,2,1,12,0004-00-0009-60.png,0002-00-0003-24.png
9,487,0,1443818066946,1443818067178,937,328,0,0,0,2,3,1,23,0002-00-0000-56.png,0003-00-0006-18.png
9,488,1,1443818067208,1443818067792,861,455,0,0,0,2,1,1,21,0002-00-0006-60.png,0004-00-0002-27.png
9,489,1,1443818067813,1443818071574,222,279,0,0,0,5,4,1,54,0001-00-0000-22.png,0005-00-0000-16.png
9,490,1,1443818071593,1443818071875,974,368,0,0,0,2,1,1,21,0002-00-0004-23.png,0004-00-0000-68.png
9,491,1,1443818071906,1443818072132,887,353,0,0,0,2,3,1,23,0002-00-0005-55.png,0003-00-0003-64.png
9,492,1,1443818072162,1443818073241,317,384,0,0,0,3,2,1,32,0003-00-0002-09.png,0002-00-0007-58.png
9,493,0,1443818073262,1443818074557,865,404,0,0,0,4,3,1,43,0005-00-0001-01.png,0003-00-0006-10.png
9,494,1,1443818074591,1443818074808,964,347,0,0,0,5,4,1,54,0001-00-0004-59.png,0005-00-0000-98.png
9,495,0,1443818074858,1443818075012,288,305,0,0,0,3,4,1,34,0003-00-0003-32.png,0005-00-0008-94.png
9,496,1,1443818075046,1443818076047,881,358,0,0,0,1,2,1,12,0004-00-0001-52.png,0002-00-0008-08.png
9,497,0,1443818076075,1443818076100,986,349,0,0,0,2,3,1,23,0002-00-0001-30.png,0003-00-0006-42.png
9,498,1,1443818076127,1443818076319,897,455,0,0,0,5,4,1,54,0001-00-0000-42.png,0005-00-0005-91.png
9,499,1,1443818076356,1443818076673,888,279,0,0,0,1,2,1,12,0004-00-0002-87.png,0002-00-0001-02.png
9,500,0,1443818076701,1443818078945,252,346,0,0,0,4,3,1,43,0005-00-0004-48.png,0003-00-0009-28.png
9,501,1,1443818078996,1443818079131,862,462,0,0,0,3,2,1,32,0003-00-0006-88.png,0002-00-0004-18.png
9,502,0,1443818079162,1443818079319,884,381,0,0,0,2,1,1,21,0002-00-0003-27.png,0004-00-0005-93.png
9,503,1,1443818079353,1443818080154,939,436,0,0,0,5,4,1,54,0001-00-0004-32.png,0005-00-0005-71.png
9,504,1,1443818080198,1443818080419,397,548,0,0,0,3,4,1,34,0003-00-0001-57.png,0005-00-0002-43.png
9,505,0,1443818080464,1443818080843,942,381,0,0,0,1,2,1,12,0004-00-0001-39.png,0002-00-0009-12.png
9,506,1,1443818080860,1443818081071,865,343,0,0,0,2,1,1,21,0002-00-0009-59.png,0004-00-0005-53.png
9,507,1,1443818081093,1443818082001,883,326,0,0,0,2,3,1,23,0002-00-0004-83.png,0003-00-0001-87.png
9,508,1,1443818082044,1443818082165,263,380,0,0,0,5,4,1,54,0001-00-0005-43.png,0005-00-0008-46.png
9,509,1,1443818082193,1443818082353,988,361,0,0,0,4,3,1,43,0005-00-0009-22.png,0003-00-0003-25.png
9,510,1,1443818082388,1443818082567,888,384,0,0,0,3,4,1,34,0003-00-0004-66.png,0005-00-0007-85.png
9,511,1,1443818082588,1443818082827,860,374,0,0,0,3,2,1,32,0003-00-0005-62.png,0002-00-0009-68.png
9,512,0,1443818082855,1443818085189,913,332,0,0,0,5,4,1,54,0001-00-0000-16.png,0005-00-0003-74.png
9,513,0,1443818085207,1443818085540,339,541,0,0,0,3,2,1,32,0003-00-0005-51.png,0002-00-0008-48.png
9,514,0,1443818085576,1443818086004,227,265,0,0,0,2,3,1,23,0002-00-0003-88.png,0003-00-0008-60.png
9,515,1,1443818086038,1443818086733,299,347,0,0,0,3,4,1,34,0003-00-0001-64.png,0005-00-0001-06.png
9,516,1,1443818086780,1443818086977,359,221,0,0,0,5,4,1,54,0001-00-0004-75.png,0005-00-0002-73.png
9,517,0,1443818087012,1443818087196,225,487,0,0,0,4,3,1,43,0005-00-0006-09.png,0003-00-0004-73.png
9,518,0,1443818087228,1443818087733,311,311,0,0,0,1,2,1,12,0004-00-0005-77.png,0002-00-0003-48.png
9,519,0,1443818087768,1443818088230,285,310,0,0,0,2,1,1,21,0002-00-0009-04.png,0004-00-0007-97.png
9,520,1,1443818088257,1443818089097,1092,332,0,0,0,5,4,1,54,0001-00-0000-85.png,0005-00-0000-55.png
9,521,1,1443818089122,1443818089222,885,287,0,0,0,2,3,1,23,0002-00-0008-58.png,0003-00-0006-84.png
9,522,0,1443818089253,1443818089478,862,543,0,0,0,3,2,1,32,0003-00-0004-39.png,0002-00-0000-78.png
9,523,0,1443818089511,1443818089614,201,443,0,0,0,2,1,1,21,0002-00-0007-50.png,0004-00-0002-97.png
9,524,1,1443818089639,1443818090050,273,306,0,0,0,3,4,1,34,0003-00-0009-93.png,0005-00-0004-17.png
9,525,0,1443818090081,1443818093042,970,311,0,0,0,1,2,1,12,0004-00-0001-14.png,0002-00-0005-78.png
9,526,1,1443818093069,1443818093871,970,310,0,0,0,4,3,1,43,0005-00-0006-65.png,0003-00-0007-47.png
9,527,0,1443818093901,1443818094990,282,468,0,0,0,5,4,1,54,0001-00-0003-74.png,0005-00-0002-90.png
9,528,1,1443818095027,1443818106102,943,374,0,0,0,5,4,1,54,0001-00-0000-80.png,0005-00-0008-49.png
9,529,1,1443818106126,1443818106199,256,465,0,0,0,2,1,1,21,0002-00-0005-94.png,0004-00-0008-44.png
9,530,0,1443818106227,1443818107153,465,410,0,0,0,3,2,1,32,0003-00-0002-08.png,0002-00-0001-73.png
9,531,0,1443818107184,1443818110809,1000,227,0,0,0,1,2,1,12,0004-00-0007-56.png,0002-00-0001-19.png
9,532,0,1443818110844,1443818113936,905,469,0,0,0,5,4,1,54,0001-00-0006-83.png,0005-00-0009-29.png
9,533,1,1443818113959,1443818114156,863,385,0,0,0,2,3,1,23,0002-00-0004-93.png,0003-00-0002-87.png
9,534,0,1443818114187,1443818114502,949,429,0,0,0,5,4,1,54,0001-00-0008-72.png,0005-00-0009-99.png
9,535,0,1443818114523,1443818114903,1145,361,0,0,0,3,4,1,34,0003-00-0006-54.png,0005-00-0000-50.png
9,536,0,1443818114935,1443818114974,885,384,0,0,0,4,3,1,43,0005-00-0007-63.png,0003-00-0000-19.png
9,537,0,1443818115000,1443818116313,888,429,0,0,0,3,2,1,32,0003-00-0000-06.png,0002-00-0006-31.png
9,538,1,1443818116333,1443818116700,401,302,0,0,0,5,4,1,54,0001-00-0004-22.png,0005-00-0003-45.png
9,539,1,1443818116723,1443818117029,210,503,0,0,0,2,3,1,23,0002-00-0003-02.png,0003-00-0005-42.png
9,540,1,1443818117054,1443818117179,975,410,0,0,0,5,4,1,54,0001-00-0006-81.png,0005-00-0005-86.png
9,541,1,1443818117208,1443818118622,889,284,0,0,0,4,3,1,43,0005-00-0009-35.png,0003-00-0000-94.png
9,542,1,1443818118646,1443818118777,299,436,0,0,0,3,4,1,34,0003-00-0000-17.png,0005-00-0009-98.png
9,543,0,1443818118805,1443818119162,1195,346,0,0,0,2,1,1,21,0002-00-0004-14.png,0004-00-0003-51.png
9,544,1,1443818119190,1443818119408,874,386,0,0,0,1,2,1,12,0004-00-0000-19.png,0002-00-0002-33.png
9,545,1,1443818119443,1443818120093,913,352,0,0,0,2,1,1,21,0002-00-0002-82.png,0004-00-0002-38.png
9,546,0,1443818120119,1443818121834,881,393,0,0,0,4,3,1,43,0005-00-0003-46.png,0003-00-0006-39.png
9,547,1,1443818121863,1443818121937,376,227,0,0,0,5,4,1,54,0001-00-0002-32.png,0005-00-0007-90.png
9,548,1,1443818121970,1443818122181,1043,339,0,0,0,3,2,1,32,0003-00-0009-29.png,0002-00-0006-01.png
9,549,1,1443818122222,1443818124276,404,253,0,0,0,5,4,1,54,0001-00-0006-57.png,0005-00-0003-30.png
9,550,1,1443818124295,1443818124404,281,322,0,0,0,1,2,1,12,0004-00-0003-22.png,0002-00-0008-02.png
9,551,1,1443818124437,1443818124992,862,462,0,0,0,3,4,1,34,0003-00-0007-45.png,0005-00-0005-47.png
9,552,0,1443818125014,1443818125716,300,373,0,0,0,2,3,1,23,0002-00-0006-94.png,0003-00-0006-40.png