subject_id,trial,correct_response,stim_time,response_time,x_coord,y_coord,trial_timeout,timeout_time,interTrial_timeout,left_rank,right_rank,distance,joint_rank,left_image,right_image
14,1,1,1444331700034,1444331700205,457,460,0,0,0,3,2,1,32,0003-00-0006-06.png,0002-00-0007-35.png
14,2,0,1444331700226,1444331701199,983,348,0,0,0,2,1,1,21,0002-00-0008-49.png,0004-00-0009-56.png
14,3,0,1444331701232,1444331701800,972,500,0,0,0,4,3,1,43,0005-00-0009-55.png,0003-00-0006-69.png
14,4,1,1444331701834,1444331702323,963,483,0,0,0,1,2,1,12,0004-00-0009-46.png,0002-00-0006-13.png
14,5,1,1444331702346,1444331702994,318,340,0,0,0,5,4,1,54,0001-00-0002-99.png,0005-00-0000-74.png
14,6,0,1444331703026,1444331703384,292,415,0,0,0,3,4,1,34,0003-00-0003-11.png,0005-00-0001-76.png
14,7,0,1444331703431,1444331703996,391,517,0,0,0,5,4,1,54,0001-00-0007-04.png,0005-00-0005-76.png
14,8,0,1444331704017,1444331705047,954,548,0,0,0,2,3,1,23,0002-00-0002-04.png,0003-00-0008-05.png
14,9,0,1444331705067,1444331705320,357,469,0,0,0,5,4,1,54,0001-00-0003-26.png,0005-00-0008-07.png
14,10,1,1444331705350,1444331705703,955,479,0,0,0,4,3,1,43,0005-00-0000-84.png,0003-00-0005-17.png
14,11,0,1444331705740,1444331706121,980,417,0,0,0,1,2,1,12,0004-00-0005-74.png,0002-00-0004-87.png
14,12,0,1444331706156,1444331706817,372,403,0,0,0,5,4,1,54,0001-00-0002-10.png,0005-00-0007-09.png
14,13,1,1444331706845,1444331707772,965,412,0,0,0,3,2,1,32,0003-00-0000-04.png,0002-00-0002-46.png
14,14,0,1444331707803,1444331708668,365,443,0,0,0,2,3,1,23,0002-00-0003-02.png,0003-00-0009-37.png
14,15,1,1444331708710,1444331709313,323,438,0,0,0,2,1,1,21,0002-00-0003-14.png,0004-00-0002-82.png
14,16,0,1444331709357,1444331709612,968,493,0,0,0,3,4,1,34,0003-00-0002-02.png,0005-00-0009-25.png
14,17,1,1444331709641,1444331709745,350,418,0,0,0,3,4,1,34,0003-00-0000-29.png,0005-00-0002-96.png
14,18,1,1444331709785,1444331710655,903,349,0,0,0,3,2,1,32,0003-00-0008-67.png,0002-00-0002-05.png
14,19,1,1444331710684,1444331711032,325,389,0,0,0,2,3,1,23,0002-00-0003-30.png,0003-00-0001-49.png
14,20,1,1444331711073,1444331711520,949,419,0,0,0,5,4,1,54,0001-00-0001-81.png,0005-00-0004-12.png
14,21,0,1444331711546,1444331712160,395,424,0,0,0,1,2,1,12,0004-00-0002-10.png,0002-00-0008-42.png
14,22,1,1444331712182,1444331712539,904,387,0,0,0,5,4,1,54,0001-00-0004-10.png,0005-00-0004-61.png
14,23,1,1444331712560,1444331713103,430,514,0,0,0,2,1,1,21,0002-00-0008-37.png,0004-00-0006-58.png
14,24,0,1444331713133,1444331713581,414,423,0,0,0,4,3,1,43,0005-00-0009-28.png,0003-00-0009-36.png
14,25,0,1444331713626,1444331713937,401,358,0,0,0,3,4,1,34,0003-00-0008-05.png,0005-00-0008-26.png
14,26,1,1444331714015,1444331714891,334,367,0,0,0,5,4,1,54,0001-00-0001-89.png,0005-00-0006-53.png
14,27,1,1444331714934,1444331715712,955,414,0,0,0,1,2,1,12,0004-00-0000-57.png,0002-00-0002-17.png
14,28,1,1444331715742,1444331716130,941,482,0,0,0,3,2,1,32,0003-00-0008-81.png,0002-00-0003-25.png
14,29,1,1444331716168,1444331716360,289,420,0,0,0,4,3,1,43,0005-00-0006-50.png,0003-00-0002-55.png
14,30,1,1444331716388,1444331716953,325,401,0,0,0,5,4,1,54,0001-00-0007-70.png,0005-00-0006-05.png
14,31,0,1444331716976,1444331717523,376,358,0,0,0,2,1,1,21,0002-00-0003-23.png,0004-00-0007-03.png
14,32,0,1444331717564,1444331718223,977,401,0,0,0,2,3,1,23,0002-00-0006-31.png,0003-00-0001-28.png
14,33,1,1444331718251,1444331718813,947,447,0,0,0,5,4,1,54,0001-00-0009-94.png,0005-00-0006-37.png
14,34,1,1444331718846,1444331719134,884,353,0,0,0,4,3,1,43,0005-00-0008-08.png,0003-00-0006-06.png
14,35,1,1444331719169,1444331719530,376,422,0,0,0,2,1,1,21,0002-00-0007-08.png,0004-00-0007-48.png
14,36,1,1444331719548,1444331719853,396,387,0,0,0,3,2,1,32,0003-00-0005-92.png,0002-00-0002-56.png
14,37,0,1444331719874,1444331720314,925,501,0,0,0,3,4,1,34,0003-00-0009-00.png,0005-00-0003-15.png
14,38,0,1444331720348,1444331720822,362,454,0,0,0,1,2,1,12,0004-00-0001-67.png,0002-00-0000-54.png
14,39,0,1444331720855,1444331721283,965,450,0,0,0,5,4,1,54,0001-00-0001-98.png,0005-00-0004-30.png
14,40,1,1444331721306,1444331721751,317,417,0,0,0,2,3,1,23,0002-00-0004-62.png,0003-00-0001-65.png
14,41,0,1444331721780,1444331722343,387,449,0,0,0,3,2,1,32,0003-00-0004-25.png,0002-00-0003-55.png
14,42,1,1444331722389,1444331723144,875,345,0,0,0,2,3,1,23,0002-00-0006-85.png,0003-00-0008-89.png
14,43,0,1444331723173,1444331723743,932,489,0,0,0,1,2,1,12,0004-00-0004-63.png,0002-00-0006-32.png
14,44,0,1444331723774,1444331724199,342,401,0,0,0,5,4,1,54,0001-00-0009-98.png,0005-00-0005-13.png
14,45,0,1444331724228,1444331725547,937,424,0,0,0,4,3,1,43,0005-00-0009-41.png,0003-00-0006-06.png
14,46,1,1444331725582,1444331726270,367,369,0,0,0,2,1,1,21,0002-00-0007-66.png,0004-00-0004-00.png
14,47,1,1444331726313,1444331726867,953,415,0,0,0,5,4,1,54,0001-00-0000-74.png,0005-00-0006-67.png
14,48,1,1444331726883,1444331727657,930,375,0,0,0,3,4,1,34,0003-00-0006-02.png,0005-00-0004-92.png
14,49,1,1444331727692,1444331729189,287,345,0,0,0,1,2,1,12,0004-00-0008-68.png,0002-00-0002-44.png
14,50,1,1444331729221,1444331730237,350,436,0,0,0,5,4,1,54,0001-00-0009-26.png,0005-00-0002-92.png
14,51,1,1444331730264,1444331730826,977,383,0,0,0,2,1,1,21,0002-00-0002-78.png,0004-00-0005-05.png
14,52,0,1444331730850,1444331731863,340,400,0,0,0,2,3,1,23,0002-00-0002-31.png,0003-00-0008-15.png
14,53,0,1444331731896,1444331732428,306,396,0,0,0,3,4,1,34,0003-00-0004-25.png,0005-00-0007-70.png
14,54,1,1444331732449,1444331733081,932,391,0,0,0,4,3,1,43,0005-00-0003-56.png,0003-00-0001-52.png
14,55,0,1444331733107,1444331733685,951,386,0,0,0,3,2,1,32,0003-00-0001-61.png,0002-00-0007-17.png
14,56,0,1444331733711,1444331734027,924,391,0,0,0,5,4,1,54,0001-00-0006-55.png,0005-00-0002-81.png
14,57,1,1444331734070,1444331734587,401,384,0,0,0,1,2,1,12,0004-00-0002-37.png,0002-00-0002-19.png
14,58,1,1444331734613,1444331735252,925,464,0,0,0,4,3,1,43,0005-00-0001-44.png,0003-00-0008-16.png
14,59,1,1444331735276,1444331735509,907,489,0,0,0,3,4,1,34,0003-00-0007-76.png,0005-00-0005-76.png
14,60,1,1444331735530,1444331736199,346,443,0,0,0,3,2,1,32,0003-00-0008-63.png,0002-00-0005-33.png
14,61,1,1444331736220,1444331736665,401,393,0,0,0,5,4,1,54,0001-00-0002-57.png,0005-00-0005-82.png
14,62,1,1444331736699,1444331737528,977,397,0,0,0,2,3,1,23,0002-00-0003-42.png,0003-00-0005-57.png
14,63,1,1444331737563,1444331737754,926,487,0,0,0,5,4,1,54,0001-00-0001-43.png,0005-00-0001-86.png
14,64,1,1444331737781,1444331738192,401,410,0,0,0,2,1,1,21,0002-00-0008-16.png,0004-00-0009-89.png
14,65,1,1444331738223,1444331738680,913,401,0,0,0,3,4,1,34,0003-00-0004-80.png,0005-00-0003-54.png
14,66,1,1444331738709,1444331739412,421,515,0,0,0,3,2,1,32,0003-00-0008-84.png,0002-00-0009-07.png
14,67,0,1444331739438,1444331739700,315,414,0,0,0,2,3,1,23,0002-00-0005-22.png,0003-00-0001-36.png
14,68,0,1444331739725,1444331741909,952,391,0,0,0,4,3,1,43,0005-00-0001-46.png,0003-00-0008-18.png
14,69,1,1444331741935,1444331742681,865,317,0,0,0,2,1,1,21,0002-00-0007-13.png,0004-00-0005-29.png
14,70,1,1444331742710,1444331743122,321,431,0,0,0,1,2,1,12,0004-00-0008-88.png,0002-00-0007-66.png
14,71,1,1444331743143,1444331743474,952,371,0,0,0,5,4,1,54,0001-00-0009-88.png,0005-00-0004-00.png
14,72,1,1444331743494,1444331744173,340,429,0,0,0,5,4,1,54,0001-00-0001-51.png,0005-00-0003-35.png
14,73,1,1444331744222,1444331745003,943,399,0,0,0,5,4,1,54,0001-00-0004-48.png,0005-00-0005-45.png
14,74,1,1444331745035,1444331745366,376,422,0,0,0,2,1,1,21,0002-00-0008-84.png,0004-00-0006-02.png
14,75,0,1444331745402,1444331745745,347,447,0,0,0,5,4,1,54,0001-00-0008-97.png,0005-00-0006-53.png
14,76,0,1444331745785,1444331746157,376,384,0,0,0,2,3,1,23,0002-00-0002-41.png,0003-00-0004-40.png
14,77,0,1444331746188,1444331747062,963,398,0,0,0,3,4,1,34,0003-00-0008-02.png,0005-00-0004-69.png
14,78,0,1444331747096,1444331747761,401,384,0,0,0,3,2,1,32,0003-00-0004-51.png,0002-00-0001-93.png
14,79,0,1444331747788,1444331747950,928,392,0,0,0,1,2,1,12,0004-00-0000-84.png,0002-00-0002-30.png
14,80,0,1444331747994,1444331748431,342,405,0,0,0,4,3,1,43,0005-00-0001-46.png,0003-00-0001-69.png
14,81,1,1444331748472,1444331748790,951,384,0,0,0,2,3,1,23,0002-00-0007-29.png,0003-00-0005-52.png
14,82,1,1444331748826,1444331749402,390,502,0,0,0,4,3,1,43,0005-00-0002-00.png,0003-00-0003-11.png
14,83,1,1444331749427,1444331749708,314,370,0,0,0,1,2,1,12,0004-00-0003-31.png,0002-00-0005-50.png
14,84,0,1444331749741,1444331750114,953,389,0,0,0,3,2,1,32,0003-00-0009-48.png,0002-00-0006-45.png
14,85,1,1444331750135,1444331750884,939,366,0,0,0,5,4,1,54,0001-00-0001-25.png,0005-00-0004-34.png
14,86,1,1444331750922,1444331751132,929,390,0,0,0,5,4,1,54,0001-00-0008-34.png,0005-00-0009-81.png
14,87,0,1444331751155,1444331751600,401,410,0,0,0,2,1,1,21,0002-00-0001-09.png,0004-00-0003-48.png
14,88,1,1444331751627,1444331751993,373,411,0,0,0,3,4,1,34,0003-00-0008-73.png,0005-00-0007-87.png
14,89,0,1444331752016,1444331752382,939,398,0,0,0,5,4,1,54,0001-00-0005-83.png,0005-00-0005-17.png
14,90,1,1444331752415,1444331752698,394,481,0,0,0,3,2,1,32,0003-00-0001-41.png,0002-00-0007-12.png
14,91,0,1444331752735,1444331753380,918,479,0,0,0,1,2,1,12,0004-00-0008-72.png,0002-00-0001-57.png
14,92,0,1444331753433,1444331753672,925,437,0,0,0,2,3,1,23,0002-00-0006-32.png,0003-00-0004-24.png
14,93,0,1444331753689,1444331754067,951,391,0,0,0,3,4,1,34,0003-00-0009-78.png,0005-00-0005-49.png
14,94,1,1444331754092,1444331754787,951,397,0,0,0,5,4,1,54,0001-00-0000-73.png,0005-00-0006-31.png
14,95,0,1444331754815,1444331755180,414,500,0,0,0,2,1,1,21,0002-00-0003-92.png,0004-00-0006-20.png
14,96,1,1444331755213,1444331755839,319,400,0,0,0,4,3,1,43,0005-00-0001-02.png,0003-00-0001-81.png
14,97,1,1444331755872,1444331756267,930,427,0,0,0,5,4,1,54,0001-00-0004-08.png,0005-00-0005-05.png
14,98,1,1444331756301,1444331756808,337,397,0,0,0,3,4,1,34,0003-00-0008-94.png,0005-00-0008-62.png
14,99,0,1444331756843,1444331757471,930,454,0,0,0,5,4,1,54,0001-00-0003-42.png,0005-00-0008-76.png
14,100,0,1444331757508,1444331757852,879,323,0,0,0,4,3,1,43,0005-00-0002-45.png,0003-00-0002-14.png
14,101,1,1444331757885,1444331758153,343,429,0,0,0,1,2,1,12,0004-00-0003-34.png,0002-00-0005-03.png
14,102,1,1444331758177,1444331758584,972,419,0,0,0,3,2,1,32,0003-00-0007-74.png,0002-00-0004-11.png
14,103,1,1444331758607,1444331759067,364,487,0,0,0,2,3,1,23,0002-00-0006-26.png,0003-00-0008-44.png
14,104,0,1444331759105,1444331759596,939,397,0,0,0,2,1,1,21,0002-00-0006-56.png,0004-00-0008-44.png
14,105,0,1444331759627,1444331759966,913,475,0,0,0,4,3,1,43,0005-00-0000-35.png,0003-00-0008-38.png
14,106,1,1444331760002,1444331760383,350,423,0,0,0,5,4,1,54,0001-00-0002-78.png,0005-00-0004-49.png
14,107,1,1444331760419,1444331760677,437,451,0,0,0,3,4,1,34,0003-00-0002-82.png,0005-00-0008-82.png
14,108,0,1444331760699,1444331761602,939,370,0,0,0,2,3,1,23,0002-00-0007-32.png,0003-00-0001-52.png
14,109,1,1444331761630,1444331762714,935,440,0,0,0,1,2,1,12,0004-00-0008-88.png,0002-00-0007-87.png
14,110,0,1444331762740,1444331763430,315,403,0,0,0,3,2,1,32,0003-00-0005-28.png,0002-00-0007-82.png
14,111,1,1444331763466,1444331763934,904,423,0,0,0,2,1,1,21,0002-00-0003-68.png,0004-00-0001-79.png
14,112,1,1444331763961,1444331764957,999,348,0,0,0,5,4,1,54,0001-00-0004-24.png,0005-00-0003-62.png
14,113,1,1444331764978,1444331765792,947,419,0,0,0,3,4,1,34,0003-00-0009-91.png,0005-00-0002-58.png
14,114,1,1444331765808,1444331766008,952,409,0,0,0,3,2,1,32,0003-00-0007-91.png,0002-00-0004-36.png
14,115,0,1444331766038,1444331766324,969,369,0,0,0,4,3,1,43,0005-00-0005-98.png,0003-00-0006-96.png
14,116,0,1444331766366,1444331766723,363,424,0,0,0,5,4,1,54,0001-00-0003-75.png,0005-00-0002-46.png
14,117,1,1444331766742,1444331766976,349,429,0,0,0,5,4,1,54,0001-00-0007-62.png,0005-00-0002-88.png
14,118,1,1444331767015,1444331767316,971,371,0,0,0,2,1,1,21,0002-00-0003-61.png,0004-00-0009-36.png
14,119,0,1444331767385,1444331767822,971,372,0,0,0,2,3,1,23,0002-00-0005-33.png,0003-00-0006-41.png
14,120,0,1444331767849,1444331768642,940,371,0,0,0,1,2,1,12,0004-00-0003-78.png,0002-00-0003-78.png
14,121,1,1444331768664,1444331769013,340,415,0,0,0,3,2,1,32,0003-00-0007-23.png,0002-00-0000-42.png
14,122,1,1444331769034,1444331769368,922,379,0,0,0,3,4,1,34,0003-00-0001-28.png,0005-00-0001-92.png
14,123,1,1444331769408,1444331770150,929,389,0,0,0,2,3,1,23,0002-00-0002-03.png,0003-00-0002-55.png
14,124,1,1444331770182,1444331770590,927,396,0,0,0,1,2,1,12,0004-00-0009-84.png,0002-00-0004-47.png
14,125,1,1444331770613,1444331771220,313,423,0,0,0,5,4,1,54,0001-00-0005-86.png,0005-00-0004-29.png
14,126,0,1444331771263,1444331771759,387,502,0,0,0,2,1,1,21,0002-00-0001-29.png,0004-00-0004-67.png
14,127,0,1444331771785,1444331772392,951,385,0,0,0,4,3,1,43,0005-00-0007-35.png,0003-00-0009-58.png
14,128,1,1444331772435,1444331772704,350,410,0,0,0,5,4,1,54,0001-00-0002-66.png,0005-00-0008-59.png
14,129,0,1444331772768,1444331773022,972,413,0,0,0,5,4,1,54,0001-00-0001-97.png,0005-00-0005-79.png
14,130,1,1444331773047,1444331774251,364,449,0,0,0,4,3,1,43,0005-00-0003-23.png,0003-00-0007-99.png
14,131,1,1444331774282,1444331774720,925,385,0,0,0,2,1,1,21,0002-00-0004-76.png,0004-00-0002-64.png
14,132,0,1444331774753,1444331775627,944,389,0,0,0,3,2,1,32,0003-00-0008-02.png,0002-00-0007-16.png
14,133,1,1444331775655,1444331776657,388,502,0,0,0,1,2,1,12,0004-00-0006-52.png,0002-00-0009-91.png
14,134,1,1444331776685,1444331777010,390,513,0,0,0,3,4,1,34,0003-00-0007-50.png,0005-00-0004-45.png
14,135,1,1444331777047,1444331777407,384,394,0,0,0,2,3,1,23,0002-00-0009-56.png,0003-00-0003-42.png
14,136,0,1444331777430,1444331777766,937,398,0,0,0,5,4,1,54,0001-00-0009-41.png,0005-00-0008-76.png
14,137,0,1444331777791,1444331778274,400,436,0,0,0,2,3,1,23,0002-00-0000-53.png,0003-00-0003-62.png
14,138,1,1444331778298,1444331779199,379,384,0,0,0,5,4,1,54,0001-00-0000-96.png,0005-00-0002-44.png
14,139,0,1444331779220,1444331779755,376,438,0,0,0,4,3,1,43,0005-00-0004-34.png,0003-00-0001-43.png
14,140,0,1444331779781,1444331781191,376,410,0,0,0,1,2,1,12,0004-00-0002-25.png,0002-00-0001-61.png
14,141,1,1444331781228,1444331781613,923,474,0,0,0,3,4,1,34,0003-00-0002-08.png,0005-00-0000-59.png
14,142,1,1444331781639,1444331782149,911,476,0,0,0,5,4,1,54,0001-00-0008-05.png,0005-00-0007-41.png
14,143,1,1444331782177,1444331782784,343,415,0,0,0,2,1,1,21,0002-00-0009-62.png,0004-00-0000-10.png
14,144,1,1444331782820,1444331783242,898,378,0,0,0,3,2,1,32,0003-00-0007-28.png,0002-00-0004-08.png
14,145,1,1444331783276,1444331785076,481,497,0,0,0,4,3,1,43,0005-00-0003-20.png,0003-00-0000-91.png
14,146,1,1444331785098,1444331785416,978,450,0,0,0,2,1,1,21,0002-00-0001-61.png,0004-00-0008-12.png
14,147,1,1444331785440,1444331785896,966,370,0,0,0,5,4,1,54,0001-00-0007-22.png,0005-00-0008-93.png
14,148,1,1444331785919,1444331786169,926,449,0,0,0,5,4,1,54,0001-00-0004-55.png,0005-00-0000-19.png
14,149,1,1444331786202,1444331786652,389,410,0,0,0,1,2,1,12,0004-00-0006-15.png,0002-00-0002-15.png
14,150,1,1444331786690,1444331787299,286,422,0,0,0,3,4,1,34,0003-00-0004-76.png,0005-00-0000-32.png
14,151,0,1444331787328,1444331788504,901,371,0,0,0,2,3,1,23,0002-00-0008-49.png,0003-00-0002-92.png
14,152,1,1444331788530,1444331788939,387,436,0,0,0,3,2,1,32,0003-00-0000-24.png,0002-00-0005-61.png
14,153,0,1444331788973,1444331789157,1009,363,0,0,0,3,4,1,34,0003-00-0001-97.png,0005-00-0002-38.png
14,154,0,1444331789183,1444331789824,979,390,0,0,0,3,2,1,32,0003-00-0002-68.png,0002-00-0007-43.png
14,155,0,1444331789870,1444331790376,370,426,0,0,0,5,4,1,54,0001-00-0002-23.png,0005-00-0001-25.png
14,156,0,1444331790406,1444331790936,955,427,0,0,0,2,1,1,21,0002-00-0004-87.png,0004-00-0004-00.png
14,157,0,1444331790966,1444331791939,864,370,0,0,0,4,3,1,43,0005-00-0006-97.png,0003-00-0003-94.png
14,158,1,1444331791966,1444331792202,954,387,0,0,0,5,4,1,54,0001-00-0005-25.png,0005-00-0005-46.png
14,159,1,1444331792226,1444331792940,350,384,0,0,0,2,3,1,23,0002-00-0001-47.png,0003-00-0001-73.png
14,160,1,1444331792963,1444331793302,920,420,0,0,0,1,2,1,12,0004-00-0006-06.png,0002-00-0001-78.png
14,161,1,1444331793331,1444331793660,288,394,0,0,0,3,2,1,32,0003-00-0002-14.png,0002-00-0003-47.png
14,162,0,1444331793689,1444331794168,325,424,0,0,0,5,4,1,54,0001-00-0006-19.png,0005-00-0006-45.png
14,163,0,1444331794192,1444331794444,938,398,0,0,0,1,2,1,12,0004-00-0009-20.png,0002-00-0001-15.png
14,164,1,1444331794468,1444331794674,375,410,0,0,0,3,4,1,34,0003-00-0002-82.png,0005-00-0007-62.png
14,165,1,1444331794708,1444331795624,301,428,0,0,0,5,4,1,54,0001-00-0000-44.png,0005-00-0008-25.png
14,166,0,1444331795655,1444331795899,414,417,0,0,0,4,3,1,43,0005-00-0005-08.png,0003-00-0004-51.png
14,167,0,1444331795926,1444331796350,931,375,0,0,0,2,1,1,21,0002-00-0003-98.png,0004-00-0005-54.png
14,168,0,1444331796376,1444331797039,901,476,0,0,0,2,3,1,23,0002-00-0009-88.png,0003-00-0000-42.png
14,169,1,1444331797060,1444331797805,930,401,0,0,0,2,3,1,23,0002-00-0006-02.png,0003-00-0001-93.png
14,170,0,1444331797820,1444331798673,323,371,0,0,0,1,2,1,12,0004-00-0005-92.png,0002-00-0009-78.png
14,171,0,1444331798711,1444331798939,948,393,0,0,0,3,4,1,34,0003-00-0003-08.png,0005-00-0000-33.png
14,172,0,1444331798987,1444331799433,383,497,0,0,0,3,2,1,32,0003-00-0001-54.png,0002-00-0004-46.png
14,173,1,1444331799459,1444331800526,951,385,0,0,0,2,1,1,21,0002-00-0002-51.png,0004-00-0004-17.png
14,174,1,1444331800549,1444331801050,938,375,0,0,0,5,4,1,54,0001-00-0005-60.png,0005-00-0001-08.png
14,175,0,1444331801080,1444331801502,926,383,0,0,0,4,3,1,43,0005-00-0007-63.png,0003-00-0005-34.png
14,176,1,1444331801538,1444331801812,307,393,0,0,0,5,4,1,54,0001-00-0007-83.png,0005-00-0008-58.png
14,177,0,1444331801838,1444331802316,385,495,0,0,0,5,4,1,54,0001-00-0005-41.png,0005-00-0007-96.png
14,178,0,1444331802346,1444331802946,929,414,0,0,0,1,2,1,12,0004-00-0000-09.png,0002-00-0005-63.png
14,179,0,1444331802966,1444331803492,903,466,0,0,0,5,4,1,54,0001-00-0001-23.png,0005-00-0003-77.png
14,180,1,1444331803527,1444331804496,306,430,0,0,0,3,4,1,34,0003-00-0002-39.png,0005-00-0007-72.png
14,181,0,1444331804523,1444331805225,887,378,0,0,0,3,2,1,32,0003-00-0008-27.png,0002-00-0009-96.png
14,182,0,1444331805252,1444331805662,881,344,0,0,0,2,1,1,21,0002-00-0007-30.png,0004-00-0000-57.png
14,183,1,1444331805697,1444331806047,303,383,0,0,0,2,3,1,23,0002-00-0009-97.png,0003-00-0004-23.png
14,184,1,1444331806083,1444331806432,401,397,0,0,0,4,3,1,43,0005-00-0003-99.png,0003-00-0001-22.png
14,185,0,1444331806458,1444331806640,392,520,0,0,0,2,1,1,21,0002-00-0003-19.png,0004-00-0001-27.png
14,186,1,1444331806690,1444331807182,955,409,0,0,0,5,4,1,54,0001-00-0006-70.png,0005-00-0008-11.png
14,187,1,1444331807222,1444331807560,926,397,0,0,0,3,4,1,34,0003-00-0006-32.png,0005-00-0004-62.png
14,188,0,1444331807596,1444331808033,938,371,0,0,0,5,4,1,54,0001-00-0002-52.png,0005-00-0006-28.png
14,189,0,1444331808059,1444331808705,867,350,0,0,0,3,2,1,32,0003-00-0001-92.png,0002-00-0003-80.png
14,190,0,1444331808734,1444331809455,354,376,0,0,0,4,3,1,43,0005-00-0004-78.png,0003-00-0004-90.png
14,191,0,1444331809489,1444331810066,319,446,0,0,0,1,2,1,12,0004-00-0000-17.png,0002-00-0007-82.png
14,192,0,1444331810102,1444331810244,392,410,0,0,0,2,3,1,23,0002-00-0007-41.png,0003-00-0003-57.png
14,193,0,1444331810276,1444331811178,927,384,0,0,0,5,4,1,54,0001-00-0005-06.png,0005-00-0005-96.png
14,194,0,1444331811196,1444331811484,389,423,0,0,0,4,3,1,43,0005-00-0005-13.png,0003-00-0003-87.png
14,195,0,1444331811507,1444331811981,887,488,0,0,0,1,2,1,12,0004-00-0009-99.png,0002-00-0006-98.png
14,196,1,1444331812013,1444331812263,364,514,0,0,0,3,4,1,34,0003-00-0004-13.png,0005-00-0006-93.png
14,197,1,1444331812285,1444331813018,901,476,0,0,0,2,1,1,21,0002-00-0000-25.png,0004-00-0005-51.png
14,198,1,1444331813048,1444331813681,521,393,0,0,0,2,3,1,23,0002-00-0003-69.png,0003-00-0000-21.png
14,199,0,1444331813709,1444331814354,924,408,0,0,0,5,4,1,54,0001-00-0001-17.png,0005-00-0005-65.png
14,200,1,1444331814379,1444331814765,912,392,0,0,0,3,2,1,32,0003-00-0008-83.png,0002-00-0006-35.png
14,201,1,1444331814813,1444331815127,927,366,0,0,0,2,1,1,21,0002-00-0008-25.png,0004-00-0007-94.png
14,202,0,1444331815170,1444331815472,349,400,0,0,0,3,4,1,34,0003-00-0006-87.png,0005-00-0001-33.png
14,203,1,1444331815493,1444331815914,320,405,0,0,0,5,4,1,54,0001-00-0001-36.png,0005-00-0008-15.png
14,204,0,1444331815949,1444331816332,912,502,0,0,0,2,3,1,23,0002-00-0003-27.png,0003-00-0003-28.png
14,205,0,1444331816365,1444331816750,949,411,0,0,0,3,2,1,32,0003-00-0009-10.png,0002-00-0008-20.png
14,206,0,1444331816784,1444331817270,937,476,0,0,0,1,2,1,12,0004-00-0004-25.png,0002-00-0001-17.png
14,207,0,1444331817295,1444331817483,344,425,0,0,0,4,3,1,43,0005-00-0004-71.png,0003-00-0008-64.png
14,208,0,1444331817517,1444331817766,953,388,0,0,0,5,4,1,54,0001-00-0004-80.png,0005-00-0006-92.png
14,209,0,1444331817786,1444331818340,320,384,0,0,0,3,2,1,32,0003-00-0002-90.png,0002-00-0007-07.png
14,210,1,1444331818368,1444331818640,896,365,0,0,0,5,4,1,54,0001-00-0006-56.png,0005-00-0000-38.png
14,211,0,1444331818665,1444331819096,376,436,0,0,0,2,3,1,23,0002-00-0004-62.png,0003-00-0003-60.png
14,212,1,1444331819129,1444331819394,958,403,0,0,0,1,2,1,12,0004-00-0006-93.png,0002-00-0006-50.png
14,213,0,1444331819426,1444331819779,917,403,0,0,0,3,4,1,34,0003-00-0005-93.png,0005-00-0009-39.png
14,214,0,1444331819808,1444331820227,299,390,0,0,0,2,1,1,21,0002-00-0004-83.png,0004-00-0002-55.png
14,215,1,1444331820263,1444331820664,939,398,0,0,0,4,3,1,43,0005-00-0009-43.png,0003-00-0006-24.png
14,216,1,1444331820683,1444331823028,926,435,0,0,0,5,4,1,54,0001-00-0008-04.png,0005-00-0008-03.png
14,217,1,1444331823047,1444331823299,923,457,0,0,0,2,1,1,21,0002-00-0005-61.png,0004-00-0006-81.png
14,218,0,1444331823323,1444331823770,477,338,0,0,0,4,3,1,43,0005-00-0002-99.png,0003-00-0004-21.png
14,219,0,1444331823831,1444331824119,917,491,0,0,0,5,4,1,54,0001-00-0004-73.png,0005-00-0007-87.png
14,220,0,1444331824142,1444331824875,952,377,0,0,0,3,2,1,32,0003-00-0004-33.png,0002-00-0003-17.png
14,221,1,1444331824906,1444331826015,866,363,0,0,0,3,4,1,34,0003-00-0002-40.png,0005-00-0001-60.png
14,222,0,1444331826036,1444331826494,965,449,0,0,0,5,4,1,54,0001-00-0008-05.png,0005-00-0007-20.png
14,223,1,1444331826517,1444331826836,921,446,0,0,0,2,3,1,23,0002-00-0007-00.png,0003-00-0002-13.png
14,224,0,1444331826864,1444331827570,310,425,0,0,0,1,2,1,12,0004-00-0002-50.png,0002-00-0000-65.png
14,225,0,1444331827598,1444331828320,376,488,0,0,0,3,2,1,32,0003-00-0001-91.png,0002-00-0000-74.png
14,226,1,1444331828365,1444331828733,926,358,0,0,0,5,4,1,54,0001-00-0008-92.png,0005-00-0008-68.png
14,227,0,1444331828766,1444331829038,350,384,0,0,0,2,3,1,23,0002-00-0001-68.png,0003-00-0006-50.png
14,228,1,1444331829064,1444331829741,478,547,0,0,0,2,1,1,21,0002-00-0008-20.png,0004-00-0002-23.png
14,229,0,1444331829775,1444331830095,273,435,0,0,0,1,2,1,12,0004-00-0007-04.png,0002-00-0007-69.png
14,230,1,1444331830127,1444331830670,899,482,0,0,0,5,4,1,54,0001-00-0005-62.png,0005-00-0003-47.png
14,231,0,1444331830702,1444331831066,965,371,0,0,0,3,4,1,34,0003-00-0006-87.png,0005-00-0008-59.png
14,232,0,1444331831094,1444331831315,354,409,0,0,0,4,3,1,43,0005-00-0009-28.png,0003-00-0007-97.png
14,233,1,1444331831341,1444331831506,519,397,0,0,0,1,2,1,12,0004-00-0002-56.png,0002-00-0004-39.png
14,234,1,1444331831534,1444331831773,299,358,0,0,0,5,4,1,54,0001-00-0009-95.png,0005-00-0008-91.png
14,235,1,1444331831801,1444331832241,374,411,0,0,0,4,3,1,43,0005-00-0003-44.png,0003-00-0007-26.png
14,236,1,1444331832263,1444331832584,274,423,0,0,0,3,4,1,34,0003-00-0004-20.png,0005-00-0005-66.png
14,237,0,1444331832606,1444331833205,936,450,0,0,0,5,4,1,54,0001-00-0001-35.png,0005-00-0003-06.png
14,238,0,1444331833244,1444331834241,325,402,0,0,0,2,3,1,23,0002-00-0007-61.png,0003-00-0004-84.png
14,239,1,1444331834273,1444331834583,862,363,0,0,0,3,2,1,32,0003-00-0006-07.png,0002-00-0009-29.png
14,240,1,1444331834614,1444331835742,924,459,0,0,0,2,1,1,21,0002-00-0002-16.png,0004-00-0005-01.png
14,241,0,1444331835762,1444331836059,939,372,0,0,0,1,2,1,12,0004-00-0000-51.png,0002-00-0000-87.png
14,242,1,1444331836104,1444331836960,904,480,0,0,0,3,2,1,32,0003-00-0005-16.png,0002-00-0000-99.png
14,243,0,1444331836986,1444331837543,895,498,0,0,0,4,3,1,43,0005-00-0009-09.png,0003-00-0008-40.png
14,244,1,1444331837570,1444331837968,325,423,0,0,0,2,3,1,23,0002-00-0003-42.png,0003-00-0000-00.png
14,245,0,1444331838001,1444331838471,299,449,0,0,0,2,1,1,21,0002-00-0003-60.png,0004-00-0008-07.png
14,246,1,1444331838499,1444331838771,858,390,0,0,0,3,4,1,34,0003-00-0001-74.png,0005-00-0001-80.png
14,247,0,1444331838805,1444331839442,907,456,0,0,0,5,4,1,54,0001-00-0002-99.png,0005-00-0005-66.png
14,248,0,1444331839477,1444331839768,933,392,0,0,0,5,4,1,54,0001-00-0002-93.png,0005-00-0005-64.png
14,249,0,1444331839797,1444331840010,912,489,0,0,0,3,2,1,32,0003-00-0007-82.png,0002-00-0008-11.png
14,250,0,1444331840041,1444331840673,928,464,0,0,0,3,4,1,34,0003-00-0006-07.png,0005-00-0001-57.png
14,251,1,1444331840707,1444331841484,392,410,0,0,0,2,1,1,21,0002-00-0007-88.png,0004-00-0007-15.png
14,252,0,1444331841512,1444331841912,901,410,0,0,0,5,4,1,54,0001-00-0001-53.png,0005-00-0000-34.png
14,253,1,1444331841945,1444331842797,302,414,0,0,0,2,3,1,23,0002-00-0004-59.png,0003-00-0005-39.png
14,254,0,1444331842833,1444331843052,930,375,0,0,0,1,2,1,12,0004-00-0007-71.png,0002-00-0005-05.png
14,255,0,1444331843083,1444331843348,350,410,0,0,0,4,3,1,43,0005-00-0007-76.png,0003-00-0005-72.png
14,256,0,1444331843385,1444331843612,453,450,0,0,0,5,4,1,54,0001-00-0008-50.png,0005-00-0009-14.png
14,257,1,1444331843637,1444331844039,336,390,0,0,0,2,3,1,23,0002-00-0004-17.png,0003-00-0005-27.png
14,258,0,1444331844055,1444331844651,298,423,0,0,0,3,4,1,34,0003-00-0005-37.png,0005-00-0001-53.png
14,259,1,1444331844681,1444331844841,927,372,0,0,0,2,1,1,21,0002-00-0007-35.png,0004-00-0005-44.png
14,260,0,1444331844859,1444331846633,939,423,0,0,0,3,2,1,32,0003-00-0008-05.png,0002-00-0005-87.png
14,261,0,1444331846659,1444331847422,944,419,0,0,0,4,3,1,43,0005-00-0003-21.png,0003-00-0008-91.png
14,262,1,1444331847454,1444331847996,952,391,0,0,0,5,4,1,54,0001-00-0007-34.png,0005-00-0008-78.png
14,263,1,1444331848027,1444331848250,376,384,0,0,0,1,2,1,12,0004-00-0009-38.png,0002-00-0007-07.png
14,264,1,1444331848300,1444331848912,299,403,0,0,0,5,4,1,54,0001-00-0006-65.png,0005-00-0009-64.png
14,265,0,1444331848943,1444331849672,952,358,0,0,0,5,4,1,54,0001-00-0008-54.png,0005-00-0002-27.png
14,266,1,1444331849712,1444331850116,384,494,0,0,0,2,1,1,21,0002-00-0002-51.png,0004-00-0004-28.png
14,267,1,1444331850147,1444331850486,917,393,0,0,0,5,4,1,54,0001-00-0004-15.png,0005-00-0005-74.png
14,268,0,1444331850512,1444331851002,903,395,0,0,0,3,4,1,34,0003-00-0007-81.png,0005-00-0005-42.png
14,269,1,1444331851027,1444331851966,289,366,0,0,0,2,3,1,23,0002-00-0001-68.png,0003-00-0003-28.png
14,270,1,1444331851986,1444331852831,942,391,0,0,0,3,2,1,32,0003-00-0006-82.png,0002-00-0005-47.png
14,271,1,1444331852856,1444331853013,928,465,0,0,0,4,3,1,43,0005-00-0001-74.png,0003-00-0004-02.png
14,272,0,1444331853034,1444331853313,294,426,0,0,0,1,2,1,12,0004-00-0005-37.png,0002-00-0009-88.png
14,273,1,1444331853336,1444331853689,401,410,0,0,0,3,2,1,32,0003-00-0009-79.png,0002-00-0002-87.png
14,274,1,1444331853712,1444331854258,900,488,0,0,0,2,3,1,23,0002-00-0000-90.png,0003-00-0003-47.png
14,275,1,1444331854279,1444331854561,331,412,0,0,0,2,1,1,21,0002-00-0000-82.png,0004-00-0004-66.png
14,276,1,1444331854583,1444331855493,376,358,0,0,0,4,3,1,43,0005-00-0001-15.png,0003-00-0009-68.png
14,277,1,1444331855517,1444331856155,933,441,0,0,0,5,4,1,54,0001-00-0007-00.png,0005-00-0005-25.png
14,278,1,1444331856190,1444331856492,936,398,0,0,0,3,4,1,34,0003-00-0005-49.png,0005-00-0001-86.png
14,279,1,1444331856521,1444331856914,922,445,0,0,0,5,4,1,54,0001-00-0004-63.png,0005-00-0000-74.png
14,280,1,1444331856948,1444331857191,955,428,0,0,0,1,2,1,12,0004-00-0008-43.png,0002-00-0007-01.png
14,281,1,1444331857242,1444331857914,392,467,0,0,0,3,2,1,32,0003-00-0000-04.png,0002-00-0008-38.png
14,282,1,1444331857937,1444331858345,334,369,0,0,0,3,4,1,34,0003-00-0007-51.png,0005-00-0009-39.png
14,283,1,1444331858369,1444331858872,326,412,0,0,0,1,2,1,12,0004-00-0002-26.png,0002-00-0007-76.png
14,284,1,1444331858904,1444331859290,952,384,0,0,0,4,3,1,43,0005-00-0003-01.png,0003-00-0004-99.png
14,285,0,1444331859329,1444331860263,295,439,0,0,0,2,3,1,23,0002-00-0005-17.png,0003-00-0001-80.png
14,286,1,1444331860293,1444331860531,951,383,0,0,0,2,1,1,21,0002-00-0005-44.png,0004-00-0009-85.png
14,287,0,1444331860565,1444331861458,938,450,0,0,0,5,4,1,54,0001-00-0008-23.png,0005-00-0006-95.png
14,288,0,1444331861490,1444331861696,363,378,0,0,0,5,4,1,54,0001-00-0004-55.png,0005-00-0007-70.png
14,289,1,1444331861729,1444331862396,954,451,0,0,0,1,2,1,12,0004-00-0006-53.png,0002-00-0005-48.png
14,290,1,1444331862429,1444331862748,337,438,0,0,0,5,4,1,54,0001-00-0008-90.png,0005-00-0002-36.png
14,291,0,1444331862779,1444331863381,930,389,0,0,0,5,4,1,54,0001-00-0009-11.png,0005-00-0002-07.png
14,292,0,1444331863416,1444331863972,353,436,0,0,0,2,1,1,21,0002-00-0009-41.png,0004-00-0006-62.png
14,293,1,1444331864005,1444331864420,958,390,0,0,0,3,4,1,34,0003-00-0006-90.png,0005-00-0004-25.png
14,294,1,1444331864454,1444331864863,319,426,0,0,0,2,3,1,23,0002-00-0002-42.png,0003-00-0007-01.png
14,295,0,1444331864905,1444331865941,926,409,0,0,0,3,2,1,32,0003-00-0001-23.png,0002-00-0009-44.png
14,296,0,1444331865965,1444331866134,909,466,0,0,0,4,3,1,43,0005-00-0007-86.png,0003-00-0000-23.png
14,297,1,1444331866159,1444331866573,294,419,0,0,0,1,2,1,12,0004-00-0009-50.png,0002-00-0007-06.png
14,298,1,1444331866607,1444331867539,350,436,0,0,0,5,4,1,54,0001-00-0001-57.png,0005-00-0007-32.png
14,299,1,1444331867567,1444331867858,287,406,0,0,0,4,3,1,43,0005-00-0006-51.png,0003-00-0007-00.png
14,300,1,1444331867890,1444331868157,355,424,0,0,0,2,3,1,23,0002-00-0006-54.png,0003-00-0007-12.png
14,301,0,1444331868191,1444331870153,376,501,0,0,0,3,2,1,32,0003-00-0002-02.png,0002-00-0001-32.png
14,302,1,1444331870181,1444331870575,928,414,0,0,0,2,1,1,21,0002-00-0005-62.png,0004-00-0001-22.png
14,303,0,1444331870598,1444331870814,924,490,0,0,0,3,4,1,34,0003-00-0003-37.png,0005-00-0003-50.png
14,304,0,1444331870844,1444331871928,358,383,0,0,0,5,4,1,54,0001-00-0007-25.png,0005-00-0009-41.png
14,305,0,1444331871945,1444331873922,867,413,0,0,0,5,4,1,54,0001-00-0001-46.png,0005-00-0003-91.png
14,306,1,1444331873955,1444331874799,339,400,0,0,0,2,3,1,23,0002-00-0006-50.png,0003-00-0009-59.png
14,307,0,1444331874825,1444331875730,324,423,0,0,0,3,2,1,32,0003-00-0003-67.png,0002-00-0004-90.png
14,308,1,1444331875764,1444331875967,900,476,0,0,0,4,3,1,43,0005-00-0008-19.png,0003-00-0004-55.png
14,309,1,1444331875990,1444331876381,861,377,0,0,0,2,1,1,21,0002-00-0006-73.png,0004-00-0005-26.png
14,310,0,1444331876403,1444331876579,939,397,0,0,0,5,4,1,54,0001-00-0007-55.png,0005-00-0006-42.png
14,311,0,1444331876613,1444331877161,942,391,0,0,0,3,4,1,34,0003-00-0006-53.png,0005-00-0003-80.png
14,312,0,1444331877186,1444331877677,520,462,0,0,0,1,2,1,12,0004-00-0006-31.png,0002-00-0002-34.png
14,313,1,1444331877707,1444331878105,378,517,0,0,0,3,4,1,34,0003-00-0003-95.png,0005-00-0009-89.png
14,314,1,1444331878137,1444331878449,409,366,0,0,0,2,1,1,21,0002-00-0006-45.png,0004-00-0008-91.png
14,315,0,1444331878478,1444331878869,294,400,0,0,0,2,3,1,23,0002-00-0004-21.png,0003-00-0004-63.png
14,316,1,1444331878904,1444331879785,337,407,0,0,0,1,2,1,12,0004-00-0004-81.png,0002-00-0000-22.png
14,317,1,1444331879828,1444331880730,344,425,0,0,0,4,3,1,43,0005-00-0003-14.png,0003-00-0009-28.png
14,318,1,1444331880750,1444331881345,971,413,0,0,0,5,4,1,54,0001-00-0000-46.png,0005-00-0006-25.png
14,319,0,1444331881378,1444331882345,979,392,0,0,0,3,2,1,32,0003-00-0008-21.png,0002-00-0008-64.png
14,320,0,1444331882363,1444331883366,390,496,0,0,0,5,4,1,54,0001-00-0004-19.png,0005-00-0001-42.png
14,321,1,1444331883399,1444331883865,966,388,0,0,0,3,4,1,34,0003-00-0004-18.png,0005-00-0007-58.png
14,322,0,1444331883898,1444331884202,376,384,0,0,0,1,2,1,12,0004-00-0000-31.png,0002-00-0000-51.png
14,323,1,1444331884230,1444331884419,952,385,0,0,0,5,4,1,54,0001-00-0005-96.png,0005-00-0009-45.png
14,324,1,1444331884448,1444331885004,878,375,0,0,0,4,3,1,43,0005-00-0009-47.png,0003-00-0004-86.png
14,325,1,1444331885029,1444331885422,900,411,0,0,0,2,1,1,21,0002-00-0008-79.png,0004-00-0005-73.png
14,326,1,1444331885445,1444331886095,382,463,0,0,0,5,4,1,54,0001-00-0007-14.png,0005-00-0006-69.png
14,327,1,1444331886115,1444331887113,337,417,0,0,0,3,2,1,32,0003-00-0003-36.png,0002-00-0008-21.png
14,328,0,1444331887155,1444331887445,926,488,0,0,0,2,3,1,23,0002-00-0002-23.png,0003-00-0001-52.png
14,329,0,1444331887479,1444331887997,936,398,0,0,0,2,1,1,21,0002-00-0002-43.png,0004-00-0007-08.png
14,330,1,1444331888043,1444331888756,925,489,0,0,0,5,4,1,54,0001-00-0004-99.png,0005-00-0005-57.png
14,331,1,1444331888777,1444331889611,490,418,0,0,0,4,3,1,43,0005-00-0002-14.png,0003-00-0001-18.png
14,332,1,1444331889633,1444331890237,401,384,0,0,0,3,4,1,34,0003-00-0000-74.png,0005-00-0001-37.png
14,333,1,1444331890269,1444331890585,473,417,0,0,0,3,2,1,32,0003-00-0001-45.png,0002-00-0000-74.png
14,334,0,1444331890610,1444331890939,344,398,0,0,0,5,4,1,54,0001-00-0007-39.png,0005-00-0009-77.png
14,335,1,1444331890959,1444331891156,248,451,0,0,0,2,3,1,23,0002-00-0002-84.png,0003-00-0009-43.png
14,336,1,1444331891185,1444331891510,948,480,0,0,0,1,2,1,12,0004-00-0001-26.png,0002-00-0009-27.png
14,337,0,1444331891535,1444331892169,337,436,0,0,0,5,4,1,54,0001-00-0008-47.png,0005-00-0002-57.png
14,338,1,1444331892191,1444331892378,338,419,0,0,0,2,3,1,23,0002-00-0004-27.png,0003-00-0008-58.png
14,339,1,1444331892404,1444331893057,360,429,0,0,0,2,1,1,21,0002-00-0008-45.png,0004-00-0003-40.png
14,340,1,1444331893087,1444331893958,957,403,0,0,0,1,2,1,12,0004-00-0003-87.png,0002-00-0004-06.png
14,341,1,1444331893990,1444331894471,323,399,0,0,0,5,4,1,54,0001-00-0006-71.png,0005-00-0009-90.png
14,342,0,1444331894491,1444331895136,944,440,0,0,0,3,2,1,32,0003-00-0008-71.png,0002-00-0006-65.png
14,343,1,1444331895171,1444331895924,898,506,0,0,0,4,3,1,43,0005-00-0004-51.png,0003-00-0006-15.png
14,344,1,1444331895956,1444331896510,345,415,0,0,0,3,4,1,34,0003-00-0006-83.png,0005-00-0000-04.png
14,345,0,1444331896547,1444331896840,859,360,0,0,0,2,3,1,23,0002-00-0007-98.png,0003-00-0005-95.png
14,346,0,1444331896863,1444331897551,298,423,0,0,0,5,4,1,54,0001-00-0000-69.png,0005-00-0004-75.png
14,347,1,1444331897590,1444331898128,925,482,0,0,0,5,4,1,54,0001-00-0009-84.png,0005-00-0008-98.png
14,348,1,1444331898148,1444331898599,318,394,0,0,0,4,3,1,43,0005-00-0009-67.png,0003-00-0003-60.png
14,349,1,1444331898634,1444331899748,926,410,0,0,0,1,2,1,12,0004-00-0009-40.png,0002-00-0007-22.png
14,350,0,1444331899766,1444331900013,912,477,0,0,0,2,1,1,21,0002-00-0000-94.png,0004-00-0001-03.png
14,351,1,1444331900038,1444331900366,503,484,0,0,0,3,4,1,34,0003-00-0003-59.png,0005-00-0000-16.png
14,352,1,1444331900391,1444331900947,391,539,0,0,0,3,2,1,32,0003-00-0006-57.png,0002-00-0005-03.png
14,353,1,1444331900981,1444331901309,866,388,0,0,0,2,1,1,21,0002-00-0005-24.png,0004-00-0006-89.png
14,354,0,1444331901334,1444331901841,923,392,0,0,0,2,3,1,23,0002-00-0000-47.png,0003-00-0009-73.png
14,355,1,1444331901869,1444331902253,900,449,0,0,0,5,4,1,54,0001-00-0008-21.png,0005-00-0002-07.png
14,356,1,1444331902291,1444331902819,319,394,0,0,0,5,4,1,54,0001-00-0006-36.png,0005-00-0008-34.png
14,357,1,1444331902853,1444331903551,863,364,0,0,0,3,2,1,32,0003-00-0002-70.png,0002-00-0001-49.png
14,358,0,1444331903580,1444331903962,952,384,0,0,0,4,3,1,43,0005-00-0000-93.png,0003-00-0009-58.png
14,359,0,1444331904006,1444331904461,376,358,0,0,0,1,2,1,12,0004-00-0002-83.png,0002-00-0008-67.png
14,360,1,1444331904489,1444331904863,320,395,0,0,0,3,4,1,34,0003-00-0005-48.png,0005-00-0006-14.png
14,361,1,1444331904905,1444331905360,900,489,0,0,0,1,2,1,12,0004-00-0009-90.png,0002-00-0000-13.png
14,362,0,1444331905403,1444331906155,926,397,0,0,0,2,3,1,23,0002-00-0000-12.png,0003-00-0003-91.png
14,363,1,1444331906179,1444331906602,905,402,0,0,0,3,2,1,32,0003-00-0009-06.png,0002-00-0009-49.png
14,364,1,1444331906628,1444331907024,511,388,0,0,0,5,4,1,54,0001-00-0004-68.png,0005-00-0009-63.png
14,365,1,1444331907065,1444331907333,300,356,0,0,0,2,1,1,21,0002-00-0001-43.png,0004-00-0000-42.png
14,366,0,1444331907355,1444331907954,919,442,0,0,0,4,3,1,43,0005-00-0004-53.png,0003-00-0008-45.png
14,367,0,1444331907995,1444331908389,869,342,0,0,0,5,4,1,54,0001-00-0009-61.png,0005-00-0005-08.png
14,368,0,1444331908414,1444331908935,364,420,0,0,0,3,4,1,34,0003-00-0005-42.png,0005-00-0003-42.png
14,369,1,1444331908976,1444331909416,964,358,0,0,0,4,3,1,43,0005-00-0000-03.png,0003-00-0006-92.png
14,370,0,1444331909445,1444331910482,946,427,0,0,0,1,2,1,12,0004-00-0005-91.png,0002-00-0000-45.png
14,371,1,1444331910507,1444331910854,952,384,0,0,0,3,4,1,34,0003-00-0000-71.png,0005-00-0000-08.png
14,372,1,1444331910881,1444331911395,352,421,0,0,0,5,4,1,54,0001-00-0008-63.png,0005-00-0005-69.png
14,373,1,1444331911415,1444331911640,389,384,0,0,0,5,4,1,54,0001-00-0004-70.png,0005-00-0005-81.png
14,374,0,1444331911670,1444331912304,329,400,0,0,0,2,1,1,21,0002-00-0001-15.png,0004-00-0003-26.png
14,375,0,1444331912328,1444331912645,906,483,0,0,0,2,3,1,23,0002-00-0003-48.png,0003-00-0007-93.png
14,376,1,1444331912677,1444331913300,345,422,0,0,0,3,2,1,32,0003-00-0005-86.png,0002-00-0004-59.png
14,377,0,1444331913334,1444331913615,929,401,0,0,0,5,4,1,54,0001-00-0003-54.png,0005-00-0007-36.png
14,378,0,1444331913641,1444331914074,354,399,0,0,0,5,4,1,54,0001-00-0009-88.png,0005-00-0001-66.png
14,379,1,1444331914107,1444331914491,457,437,0,0,0,2,3,1,23,0002-00-0007-91.png,0003-00-0007-48.png
14,380,1,1444331914512,1444331914960,388,436,0,0,0,2,1,1,21,0002-00-0007-77.png,0004-00-0000-24.png
14,381,0,1444331914994,1444331915458,913,397,0,0,0,4,3,1,43,0005-00-0006-94.png,0003-00-0003-13.png
14,382,1,1444331915486,1444331916195,351,515,0,0,0,3,2,1,32,0003-00-0000-34.png,0002-00-0009-95.png
14,383,1,1444331916229,1444331917081,903,390,0,0,0,3,4,1,34,0003-00-0005-36.png,0005-00-0006-70.png
14,384,0,1444331917119,1444331917392,902,453,0,0,0,1,2,1,12,0004-00-0005-68.png,0002-00-0001-49.png
14,385,0,1444331917425,1444331917726,305,400,0,0,0,3,4,1,34,0003-00-0008-64.png,0005-00-0002-24.png
14,386,1,1444331917761,1444331918427,955,375,0,0,0,4,3,1,43,0005-00-0003-97.png,0003-00-0009-45.png
14,387,1,1444331918454,1444331919016,317,425,0,0,0,5,4,1,54,0001-00-0007-67.png,0005-00-0008-62.png
14,388,0,1444331919053,1444331920416,928,387,0,0,0,2,3,1,23,0002-00-0000-12.png,0003-00-0002-39.png
14,389,1,1444331920434,1444331921033,376,358,0,0,0,5,4,1,54,0001-00-0000-14.png,0005-00-0004-30.png
14,390,0,1444331921052,1444331921580,875,361,0,0,0,1,2,1,12,0004-00-0003-21.png,0002-00-0005-28.png
14,391,1,1444331921606,1444331922199,926,410,0,0,0,3,2,1,32,0003-00-0009-95.png,0002-00-0007-59.png
14,392,1,1444331922224,1444331922666,329,399,0,0,0,2,1,1,21,0002-00-0000-68.png,0004-00-0002-88.png
14,393,1,1444331922691,1444331923146,327,426,0,0,0,5,4,1,54,0001-00-0001-58.png,0005-00-0000-81.png
14,394,1,1444331923183,1444331924532,869,341,0,0,0,3,4,1,34,0003-00-0001-77.png,0005-00-0007-97.png
14,395,0,1444331924565,1444331924708,931,404,0,0,0,3,2,1,32,0003-00-0001-71.png,0002-00-0008-00.png
14,396,1,1444331924739,1444331925236,927,410,0,0,0,2,1,1,21,0002-00-0004-99.png,0004-00-0001-35.png
14,397,1,1444331925280,1444331925446,350,455,0,0,0,1,2,1,12,0004-00-0006-57.png,0002-00-0006-66.png
14,398,0,1444331925477,1444331926634,343,405,0,0,0,2,3,1,23,0002-00-0002-22.png,0003-00-0002-94.png
14,399,0,1444331926654,1444331926840,350,410,0,0,0,4,3,1,43,0005-00-0009-25.png,0003-00-0003-12.png
14,400,1,1444331926863,1444331927329,952,403,0,0,0,5,4,1,54,0001-00-0003-98.png,0005-00-0004-12.png
14,401,0,1444331927361,1444331927886,411,556,0,0,0,3,4,1,34,0003-00-0001-80.png,0005-00-0003-78.png
14,402,1,1444331927925,1444331928324,900,449,0,0,0,1,2,1,12,0004-00-0006-47.png,0002-00-0007-50.png
14,403,0,1444331928360,1444331929753,401,384,0,0,0,5,4,1,54,0001-00-0007-45.png,0005-00-0005-39.png
14,404,0,1444331929785,1444331930348,901,409,0,0,0,2,3,1,23,0002-00-0000-56.png,0003-00-0002-64.png
14,405,0,1444331930377,1444331930783,900,449,0,0,0,4,3,1,43,0005-00-0008-22.png,0003-00-0004-03.png
14,406,1,1444331930810,1444331931140,884,343,0,0,0,5,4,1,54,0001-00-0007-29.png,0005-00-0007-02.png
14,407,1,1444331931171,1444331931743,921,368,0,0,0,2,1,1,21,0002-00-0007-28.png,0004-00-0006-15.png
14,408,1,1444331931785,1444331932322,926,435,0,0,0,3,2,1,32,0003-00-0008-29.png,0002-00-0004-39.png
14,409,0,1444331932351,1444331933001,903,392,0,0,0,2,3,1,23,0002-00-0002-15.png,0003-00-0002-28.png
14,410,0,1444331933029,1444331933328,875,488,0,0,0,3,4,1,34,0003-00-0002-83.png,0005-00-0008-72.png
14,411,1,1444331933360,1444331934038,926,371,0,0,0,5,4,1,54,0001-00-0002-68.png,0005-00-0005-24.png
14,412,0,1444331934066,1444331934340,409,444,0,0,0,2,1,1,21,0002-00-0001-21.png,0004-00-0007-39.png
14,413,1,1444331934383,1444331935349,303,349,0,0,0,1,2,1,12,0004-00-0002-25.png,0002-00-0005-08.png
14,414,1,1444331935367,1444331935767,298,397,0,0,0,3,2,1,32,0003-00-0009-14.png,0002-00-0006-46.png
14,415,1,1444331935799,1444331936177,313,397,0,0,0,4,3,1,43,0005-00-0000-98.png,0003-00-0004-64.png
14,416,0,1444331936226,1444331936566,875,502,0,0,0,5,4,1,54,0001-00-0004-76.png,0005-00-0009-11.png
14,417,0,1444331936598,1444331936988,494,453,0,0,0,1,2,1,12,0004-00-0005-43.png,0002-00-0001-93.png
14,418,0,1444331937007,1444331937447,907,475,0,0,0,2,3,1,23,0002-00-0003-59.png,0003-00-0007-04.png
14,419,1,1444331937476,1444331937971,393,521,0,0,0,2,1,1,21,0002-00-0007-73.png,0004-00-0007-62.png
14,420,1,1444331938007,1444331938359,928,412,0,0,0,3,2,1,32,0003-00-0008-62.png,0002-00-0009-18.png
14,421,1,1444331938383,1444331938599,325,384,0,0,0,5,4,1,54,0001-00-0005-22.png,0005-00-0008-30.png
14,422,1,1444331938623,1444331939153,485,493,0,0,0,4,3,1,43,0005-00-0009-95.png,0003-00-0001-70.png
14,423,0,1444331939171,1444331939486,323,397,0,0,0,5,4,1,54,0001-00-0005-69.png,0005-00-0005-61.png
14,424,1,1444331939539,1444331939985,334,430,0,0,0,3,4,1,34,0003-00-0007-78.png,0005-00-0002-38.png
14,425,1,1444331940011,1444331940542,926,412,0,0,0,5,4,1,54,0001-00-0005-42.png,0005-00-0004-95.png
14,426,0,1444331940585,1444331940826,929,402,0,0,0,1,2,1,12,0004-00-0007-35.png,0002-00-0005-76.png
14,427,0,1444331940863,1444331941033,380,459,0,0,0,3,4,1,34,0003-00-0005-55.png,0005-00-0009-24.png
14,428,1,1444331941066,1444331941387,928,390,0,0,0,3,2,1,32,0003-00-0004-57.png,0002-00-0004-84.png
14,429,0,1444331941421,1444331941838,350,397,0,0,0,5,4,1,54,0001-00-0006-39.png,0005-00-0005-94.png
14,430,0,1444331941873,1444331942593,299,423,0,0,0,2,1,1,21,0002-00-0003-78.png,0004-00-0001-12.png
14,431,0,1444331942626,1444331943193,899,489,0,0,0,4,3,1,43,0005-00-0001-11.png,0003-00-0006-34.png
14,432,1,1444331943228,1444331944195,919,429,0,0,0,2,3,1,23,0002-00-0001-19.png,0003-00-0004-95.png
14,433,1,1444331944219,1444331944802,395,390,0,0,0,2,3,1,23,0002-00-0005-59.png,0003-00-0009-33.png
14,434,0,1444331944826,1444331945384,325,410,0,0,0,3,2,1,32,0003-00-0002-77.png,0002-00-0006-57.png
14,435,0,1444331945432,1444331945958,921,440,0,0,0,1,2,1,12,0004-00-0009-54.png,0002-00-0002-80.png
14,436,0,1444331945980,1444331946362,376,436,0,0,0,5,4,1,54,0001-00-0002-46.png,0005-00-0004-81.png
14,437,0,1444331946394,1444331946740,415,529,0,0,0,4,3,1,43,0005-00-0007-73.png,0003-00-0009-78.png
14,438,0,1444331946768,1444331947151,952,384,0,0,0,3,4,1,34,0003-00-0001-40.png,0005-00-0003-43.png
14,439,1,1444331947191,1444331947856,888,488,0,0,0,2,1,1,21,0002-00-0008-01.png,0004-00-0007-55.png
14,440,1,1444331947896,1444331949046,381,464,0,0,0,5,4,1,54,0001-00-0004-54.png,0005-00-0006-54.png
14,441,0,1444331949086,1444331949632,926,476,0,0,0,3,2,1,32,0003-00-0002-61.png,0002-00-0002-38.png
14,442,1,1444331949670,1444331950492,319,368,0,0,0,5,4,1,54,0001-00-0004-63.png,0005-00-0006-42.png
14,443,1,1444331950524,1444331951167,401,384,0,0,0,2,3,1,23,0002-00-0002-64.png,0003-00-0009-49.png
14,444,1,1444331951193,1444331951824,462,410,0,0,0,4,3,1,43,0005-00-0005-84.png,0003-00-0004-32.png
14,445,1,1444331951858,1444331952197,314,418,0,0,0,2,1,1,21,0002-00-0001-38.png,0004-00-0001-20.png
14,446,1,1444331952224,1444331952485,345,432,0,0,0,3,4,1,34,0003-00-0002-23.png,0005-00-0003-22.png
14,447,1,1444331952518,1444331953083,902,337,0,0,0,1,2,1,12,0004-00-0000-16.png,0002-00-0002-04.png
14,448,1,1444331953110,1444331953240,325,394,0,0,0,5,4,1,54,0001-00-0004-85.png,0005-00-0007-47.png
14,449,0,1444331953263,1444331953934,925,319,0,0,0,4,3,1,43,0005-00-0008-71.png,0003-00-0001-16.png
14,450,1,1444331953973,1444331954313,952,384,0,0,0,5,4,1,54,0001-00-0003-30.png,0005-00-0001-25.png
14,451,1,1444331954341,1444331954965,876,486,0,0,0,2,1,1,21,0002-00-0008-66.png,0004-00-0008-38.png
14,452,0,1444331954992,1444331955327,334,361,0,0,0,2,3,1,23,0002-00-0000-65.png,0003-00-0000-91.png
14,453,1,1444331955355,1444331955678,951,397,0,0,0,1,2,1,12,0004-00-0008-15.png,0002-00-0003-68.png
14,454,0,1444331955702,1444331956103,401,384,0,0,0,5,4,1,54,0001-00-0008-16.png,0005-00-0002-46.png
14,455,1,1444331956133,1444331956707,376,358,0,0,0,3,4,1,34,0003-00-0008-91.png,0005-00-0004-86.png
14,456,0,1444331956737,1444331957244,233,488,0,0,0,3,2,1,32,0003-00-0003-71.png,0002-00-0007-93.png
14,457,0,1444331957268,1444331957843,912,476,0,0,0,5,4,1,54,0001-00-0009-05.png,0005-00-0003-33.png
14,458,1,1444331957873,1444331958257,904,480,0,0,0,3,4,1,34,0003-00-0009-52.png,0005-00-0004-83.png
14,459,0,1444331958288,1444331958684,310,399,0,0,0,3,2,1,32,0003-00-0006-21.png,0002-00-0005-05.png
14,460,0,1444331958718,1444331959894,313,462,0,0,0,2,3,1,23,0002-00-0003-78.png,0003-00-0001-35.png
14,461,1,1444331959926,1444331960632,340,441,0,0,0,4,3,1,43,0005-00-0000-30.png,0003-00-0001-54.png
14,462,0,1444331960663,1444331960971,951,411,0,0,0,5,4,1,54,0001-00-0005-45.png,0005-00-0006-44.png
14,463,1,1444331960995,1444331961686,343,439,0,0,0,2,1,1,21,0002-00-0003-53.png,0004-00-0006-84.png
14,464,1,1444331961717,1444331962210,939,410,0,0,0,1,2,1,12,0004-00-0001-12.png,0002-00-0009-22.png
14,465,1,1444331962255,1444331962813,364,436,0,0,0,3,2,1,32,0003-00-0002-76.png,0002-00-0001-37.png
14,466,0,1444331962848,1444331963421,864,361,0,0,0,5,4,1,54,0001-00-0001-87.png,0005-00-0008-44.png
14,467,0,1444331963443,1444331963951,325,436,0,0,0,4,3,1,43,0005-00-0005-72.png,0003-00-0000-47.png
14,468,1,1444331963983,1444331964409,891,477,0,0,0,1,2,1,12,0004-00-0009-52.png,0002-00-0002-36.png
14,469,0,1444331964442,1444331964685,342,376,0,0,0,2,3,1,23,0002-00-0005-91.png,0003-00-0002-26.png
14,470,1,1444331964715,1444331965067,903,413,0,0,0,3,4,1,34,0003-00-0005-53.png,0005-00-0007-42.png
14,471,0,1444331965098,1444331965480,468,513,0,0,0,2,1,1,21,0002-00-0004-00.png,0004-00-0006-03.png
14,472,0,1444331965503,1444331965865,391,409,0,0,0,5,4,1,54,0001-00-0008-47.png,0005-00-0006-76.png
14,473,0,1444331965894,1444331966249,894,362,0,0,0,3,4,1,34,0003-00-0003-45.png,0005-00-0005-27.png
14,474,0,1444331966289,1444331966466,926,449,0,0,0,5,4,1,54,0001-00-0001-73.png,0005-00-0004-30.png
14,475,1,1444331966487,1444331966730,353,383,0,0,0,4,3,1,43,0005-00-0008-59.png,0003-00-0001-03.png
14,476,0,1444331966759,1444331967110,317,401,0,0,0,5,4,1,54,0001-00-0003-45.png,0005-00-0006-10.png
14,477,0,1444331967133,1444331967247,921,446,0,0,0,2,3,1,23,0002-00-0009-51.png,0003-00-0004-17.png
14,478,0,1444331967271,1444331967912,926,412,0,0,0,3,2,1,32,0003-00-0002-62.png,0002-00-0005-88.png
14,479,1,1444331967946,1444331969189,911,493,0,0,0,2,1,1,21,0002-00-0001-91.png,0004-00-0002-81.png
14,480,0,1444331969208,1444331970078,341,393,0,0,0,1,2,1,12,0004-00-0004-00.png,0002-00-0009-75.png
14,481,0,1444331970104,1444331970699,925,404,0,0,0,4,3,1,43,0005-00-0008-82.png,0003-00-0007-60.png
14,482,1,1444331970717,1444331971428,366,442,0,0,0,2,3,1,23,0002-00-0008-32.png,0003-00-0007-36.png
14,483,1,1444331971454,1444331971947,315,394,0,0,0,3,4,1,34,0003-00-0004-04.png,0005-00-0003-62.png
14,484,1,1444331971976,1444331972504,506,537,0,0,0,5,4,1,54,0001-00-0005-42.png,0005-00-0000-94.png
14,485,0,1444331972550,1444331972889,932,384,0,0,0,2,1,1,21,0002-00-0001-61.png,0004-00-0008-08.png
14,486,1,1444331972926,1444331973286,361,425,0,0,0,5,4,1,54,0001-00-0008-52.png,0005-00-0007-89.png
14,487,1,1444331973326,1444331973774,926,385,0,0,0,1,2,1,12,0004-00-0005-37.png,0002-00-0009-19.png
14,488,0,1444331973791,1444331974429,408,546,0,0,0,3,2,1,32,0003-00-0000-13.png,0002-00-0003-25.png
14,489,0,1444331974464,1444331974780,325,423,0,0,0,2,3,1,23,0002-00-0003-72.png,0003-00-0000-46.png
14,490,0,1444331974805,1444331975669,376,384,0,0,0,5,4,1,54,0001-00-0002-81.png,0005-00-0009-63.png
14,491,1,1444331975704,1444331976054,926,410,0,0,0,3,2,1,32,0003-00-0001-93.png,0002-00-0007-93.png
14,492,0,1444331976079,1444331976273,858,381,0,0,0,3,4,1,34,0003-00-0005-71.png,0005-00-0002-68.png
14,493,1,1444331976305,1444331977308,317,417,0,0,0,5,4,1,54,0001-00-0004-91.png,0005-00-0000-36.png
14,494,0,1444331977349,1444331977831,875,424,0,0,0,4,3,1,43,0005-00-0003-48.png,0003-00-0007-39.png
14,495,1,1444331977850,1444331978277,913,475,0,0,0,1,2,1,12,0004-00-0009-45.png,0002-00-0000-48.png
14,496,1,1444331978294,1444331978501,943,418,0,0,0,2,1,1,21,0002-00-0008-40.png,0004-00-0006-13.png
14,497,1,1444331978537,1444331978713,350,423,0,0,0,3,4,1,34,0003-00-0004-83.png,0005-00-0001-46.png
14,498,0,1444331978743,1444331979092,931,416,0,0,0,2,1,1,21,0002-00-0008-74.png,0004-00-0006-10.png
14,499,1,1444331979122,1444331979886,930,401,0,0,0,2,3,1,23,0002-00-0000-91.png,0003-00-0007-10.png
14,500,1,1444331979924,1444331980740,392,454,0,0,0,5,4,1,54,0001-00-0008-62.png,0005-00-0007-48.png
14,501,0,1444331980773,1444331981169,397,415,0,0,0,5,4,1,54,0001-00-0002-35.png,0005-00-0009-87.png
14,502,1,1444331981214,1444331982201,391,532,0,0,0,1,2,1,12,0004-00-0002-48.png,0002-00-0002-06.png
14,503,0,1444331982239,1444331982811,874,502,0,0,0,3,2,1,32,0003-00-0000-36.png,0002-00-0009-68.png
14,504,1,1444331982855,1444331983504,893,428,0,0,0,4,3,1,43,0005-00-0002-43.png,0003-00-0006-38.png
14,505,1,1444331983528,1444331983782,912,398,0,0,0,3,2,1,32,0003-00-0008-36.png,0002-00-0002-91.png
14,506,1,1444331983809,1444331984266,927,434,0,0,0,5,4,1,54,0001-00-0009-87.png,0005-00-0004-36.png
14,507,1,1444331984301,1444331984507,889,402,0,0,0,4,3,1,43,0005-00-0006-45.png,0003-00-0000-58.png
14,508,1,1444331984538,1444331985673,921,497,0,0,0,3,4,1,34,0003-00-0009-52.png,0005-00-0004-77.png
14,509,1,1444331985701,1444331986289,345,394,0,0,0,2,3,1,23,0002-00-0007-98.png,0003-00-0007-68.png
14,510,1,1444331986319,1444331986818,929,375,0,0,0,5,4,1,54,0001-00-0008-85.png,0005-00-0007-81.png
14,511,1,1444331986840,1444331987232,924,456,0,0,0,1,2,1,12,0004-00-0002-23.png,0002-00-0008-11.png
14,512,0,1444331987290,1444331987796,333,413,0,0,0,2,1,1,21,0002-00-0003-74.png,0004-00-0000-36.png
14,513,0,1444331987845,1444331989474,920,389,0,0,0,2,1,1,21,0002-00-0007-53.png,0004-00-0000-71.png
14,514,0,1444331989507,1444331990529,926,449,0,0,0,3,4,1,34,0003-00-0005-96.png,0005-00-0000-86.png
14,515,1,1444331990562,1444331990920,320,374,0,0,0,1,2,1,12,0004-00-0001-99.png,0002-00-0001-54.png
14,516,0,1444331990971,1444331991140,904,376,0,0,0,5,4,1,54,0001-00-0007-88.png,0005-00-0008-33.png
14,517,0,1444331991176,1444331991612,929,402,0,0,0,2,3,1,23,0002-00-0002-40.png,0003-00-0004-70.png
14,518,0,1444331991636,1444331992082,876,501,0,0,0,4,3,1,43,0005-00-0006-04.png,0003-00-0002-58.png
14,519,0,1444331992115,1444331992481,952,410,0,0,0,3,2,1,32,0003-00-0004-61.png,0002-00-0003-88.png
14,520,0,1444331992507,1444331992738,925,516,0,0,0,5,4,1,54,0001-00-0003-48.png,0005-00-0006-11.png
14,521,0,1444331992761,1444331992934,946,467,0,0,0,3,2,1,32,0003-00-0009-88.png,0002-00-0005-08.png
14,522,1,1444331992958,1444331993220,287,405,0,0,0,4,3,1,43,0005-00-0002-61.png,0003-00-0001-34.png
14,523,0,1444331993256,1444331993770,324,436,0,0,0,1,2,1,12,0004-00-0000-33.png,0002-00-0002-67.png
14,524,0,1444331993804,1444331994051,926,358,0,0,0,5,4,1,54,0001-00-0006-02.png,0005-00-0007-07.png
14,525,0,1444331994079,1444331995023,326,425,0,0,0,3,4,1,34,0003-00-0009-11.png,0005-00-0007-71.png
14,526,0,1444331995042,1444331995305,938,372,0,0,0,2,1,1,21,0002-00-0007-93.png,0004-00-0000-22.png
14,527,0,1444331995329,1444331995631,347,442,0,0,0,5,4,1,54,0001-00-0002-71.png,0005-00-0005-56.png
14,528,1,1444331995664,1444331996098,900,397,0,0,0,2,3,1,23,0002-00-0000-27.png,0003-00-0003-69.png
14,529,1,1444331996130,1444331996502,926,371,0,0,0,5,4,1,54,0001-00-0007-66.png,0005-00-0003-17.png
14,530,0,1444331996533,1444331997111,315,366,0,0,0,4,3,1,43,0005-00-0001-48.png,0003-00-0006-64.png
14,531,0,1444331997152,1444331998022,928,416,0,0,0,3,2,1,32,0003-00-0005-48.png,0002-00-0004-83.png
14,532,0,1444331998049,1444331998454,310,406,0,0,0,3,4,1,34,0003-00-0000-31.png,0005-00-0002-04.png
14,533,0,1444331998487,1444331998702,897,480,0,0,0,5,4,1,54,0001-00-0001-30.png,0005-00-0002-33.png
14,534,1,1444331998723,1444331999343,925,475,0,0,0,2,1,1,21,0002-00-0000-23.png,0004-00-0000-35.png
14,535,0,1444331999370,1444331999800,963,359,0,0,0,1,2,1,12,0004-00-0001-71.png,0002-00-0008-04.png
14,536,1,1444331999838,1444332000062,925,410,0,0,0,2,3,1,23,0002-00-0009-57.png,0003-00-0004-45.png
14,537,1,1444332000096,1444332000525,338,421,0,0,0,3,4,1,34,0003-00-0007-31.png,0005-00-0003-34.png
14,538,1,1444332000556,1444332001389,905,387,0,0,0,3,2,1,32,0003-00-0004-69.png,0002-00-0005-04.png
14,539,0,1444332001445,1444332002061,427,384,0,0,0,4,3,1,43,0005-00-0001-51.png,0003-00-0003-76.png
14,540,1,1444332002095,1444332002484,401,410,0,0,0,1,2,1,12,0004-00-0003-73.png,0002-00-0001-93.png
14,541,0,1444332002507,1444332003118,931,474,0,0,0,5,4,1,54,0001-00-0006-59.png,0005-00-0001-75.png
14,542,0,1444332003148,1444332004078,345,443,0,0,0,2,3,1,23,0002-00-0009-17.png,0003-00-0001-46.png
14,543,1,1444332004109,1444332004676,376,527,0,0,0,2,1,1,21,0002-00-0007-64.png,0004-00-0009-09.png
14,544,0,1444332004709,1444332005105,874,489,0,0,0,5,4,1,54,0001-00-0002-78.png,0005-00-0007-44.png
14,545,0,1444332005138,1444332005596,912,372,0,0,0,5,4,1,54,0001-00-0007-38.png,0005-00-0003-74.png
14,546,0,1444332005630,1444332006164,354,404,0,0,0,2,1,1,21,0002-00-0002-65.png,0004-00-0007-33.png
14,547,0,1444332006188,1444332006521,334,403,0,0,0,3,4,1,34,0003-00-0007-55.png,0005-00-0006-83.png
14,548,0,1444332006540,1444332006952,880,355,0,0,0,2,3,1,23,0002-00-0000-26.png,0003-00-0003-65.png
14,549,1,1444332006975,1444332008299,360,436,0,0,0,4,3,1,43,0005-00-0000-33.png,0003-00-0001-54.png
14,550,1,1444332008319,1444332008952,376,410,0,0,0,5,4,1,54,0001-00-0006-11.png,0005-00-0009-12.png
14,551,1,1444332008975,1444332009248,334,398,0,0,0,3,2,1,32,0003-00-0009-11.png,0002-00-0007-42.png
14,552,1,1444332009279,1444332010282,886,493,0,0,0,1,2,1,12,0004-00-0007-94.png,0002-00-0008-68.png
14,553,1,1444332010310,1444332010779,350,397,0,0,0,3,2,1,32,0003-00-0009-36.png,0002-00-0006-73.png
14,554,0,1444332010800,1444332011121,878,286,0,0,0,5,4,1,54,0001-00-0003-15.png,0005-00-0004-99.png
14,555,1,1444332011148,1444332011563,918,378,0,0,0,2,1,1,21,0002-00-0002-50.png,0004-00-0004-03.png
14,556,1,1444332011590,1444332011920,351,400,0,0,0,5,4,1,54,0001-00-0005-00.png,0005-00-0009-77.png
14,557,0,1444332011941,1444332012530,400,521,0,0,0,3,4,1,34,0003-00-0007-18.png,0005-00-0006-90.png
14,558,1,1444332012557,1444332013091,387,346,0,0,0,2,3,1,23,0002-00-0002-84.png,0003-00-0002-57.png
14,559,0,1444332013112,1444332013675,389,519,0,0,0,4,3,1,43,0005-00-0007-24.png,0003-00-0006-45.png
14,560,0,1444332013698,1444332014155,951,400,0,0,0,1,2,1,12,0004-00-0006-15.png,0002-00-0002-14.png
14,561,1,1444332014181,1444332015049,361,403,0,0,0,3,4,1,34,0003-00-0002-00.png,0005-00-0002-05.png
14,562,0,1444332015068,1444332015995,415,563,0,0,0,4,3,1,43,0005-00-0009-69.png,0003-00-0004-46.png
14,563,0,1444332016032,1444332016377,422,536,0,0,0,5,4,1,54,0001-00-0004-91.png,0005-00-0003-16.png
14,564,0,1444332016407,1444332017408,938,468,0,0,0,1,2,1,12,0004-00-0005-52.png,0002-00-0000-22.png
14,565,0,1444332017442,1444332017796,928,364,0,0,0,2,3,1,23,0002-00-0005-81.png,0003-00-0009-19.png
14,566,0,1444332017835,1444332018446,897,468,0,0,0,3,2,1,32,0003-00-0007-22.png,0002-00-0007-96.png
14,567,1,1444332018465,1444332018872,480,418,0,0,0,5,4,1,54,0001-00-0007-41.png,0005-00-0002-67.png
14,568,0,1444332018893,1444332019318,947,472,0,0,0,2,1,1,21,0002-00-0003-17.png,0004-00-0003-31.png
14,569,1,1444332019352,1444332019808,321,432,0,0,0,5,4,1,54,0001-00-0003-02.png,0005-00-0000-18.png
14,570,1,1444332019837,1444332020256,375,426,0,0,0,2,1,1,21,0002-00-0006-48.png,0004-00-0001-37.png
14,571,1,1444332020304,1444332020471,941,436,0,0,0,2,3,1,23,0002-00-0003-02.png,0003-00-0002-22.png
14,572,1,1444332020489,1444332021047,876,383,0,0,0,4,3,1,43,0005-00-0005-75.png,0003-00-0006-47.png
14,573,1,1444332021086,1444332021309,423,510,0,0,0,5,4,1,54,0001-00-0008-60.png,0005-00-0007-64.png
14,574,1,1444332021332,1444332022063,947,367,0,0,0,3,4,1,34,0003-00-0003-92.png,0005-00-0006-73.png
14,575,0,1444332022107,1444332022780,922,360,0,0,0,3,2,1,32,0003-00-0009-18.png,0002-00-0002-00.png
14,576,1,1444332022807,1444332022950,319,395,0,0,0,1,2,1,12,0004-00-0008-80.png,0002-00-0007-95.png
14,577,1,1444332022970,1444332023324,904,376,0,0,0,5,4,1,54,0001-00-0001-86.png,0005-00-0002-65.png
14,578,0,1444332023347,1444332024854,945,487,0,0,0,4,3,1,43,0005-00-0000-57.png,0003-00-0005-83.png
14,579,0,1444332024881,1444332025404,358,428,0,0,0,1,2,1,12,0004-00-0002-22.png,0002-00-0002-82.png
14,580,0,1444332025434,1444332025645,907,423,0,0,0,3,2,1,32,0003-00-0000-87.png,0002-00-0007-28.png
14,581,1,1444332025700,1444332026429,395,516,0,0,0,3,4,1,34,0003-00-0000-53.png,0005-00-0005-38.png
14,582,0,1444332026452,1444332026956,927,398,0,0,0,2,1,1,21,0002-00-0005-88.png,0004-00-0009-94.png
14,583,1,1444332026978,1444332027287,925,422,0,0,0,5,4,1,54,0001-00-0000-86.png,0005-00-0005-06.png
14,584,1,1444332027322,1444332027784,916,463,0,0,0,2,3,1,23,0002-00-0002-38.png,0003-00-0006-07.png
14,585,0,1444332027813,1444332028493,452,489,0,0,0,5,4,1,54,0001-00-0001-97.png,0005-00-0002-26.png
14,586,0,1444332028513,1444332028847,348,402,0,0,0,1,2,1,12,0004-00-0000-24.png,0002-00-0007-93.png
14,587,1,1444332028879,1444332029308,926,462,0,0,0,3,2,1,32,0003-00-0002-51.png,0002-00-0007-67.png
14,588,0,1444332029337,1444332029951,390,501,0,0,0,5,4,1,54,0001-00-0008-08.png,0005-00-0001-06.png
14,589,1,1444332029970,1444332030514,410,428,0,0,0,4,3,1,43,0005-00-0009-83.png,0003-00-0002-64.png
14,590,1,1444332030544,1444332030954,939,384,0,0,0,3,4,1,34,0003-00-0001-34.png,0005-00-0008-00.png
14,591,1,1444332030977,1444332031620,889,480,0,0,0,2,1,1,21,0002-00-0005-76.png,0004-00-0007-39.png
14,592,1,1444332031654,1444332032087,339,406,0,0,0,2,3,1,23,0002-00-0009-32.png,0003-00-0001-42.png
14,593,1,1444332032111,1444332032374,337,439,0,0,0,2,1,1,21,0002-00-0000-57.png,0004-00-0009-57.png
14,594,0,1444332032403,1444332032683,896,498,0,0,0,4,3,1,43,0005-00-0009-91.png,0003-00-0005-58.png
14,595,1,1444332032701,1444332032831,899,482,0,0,0,5,4,1,54,0001-00-0001-97.png,0005-00-0002-43.png
14,596,0,1444332032868,1444332033497,942,392,0,0,0,2,3,1,23,0002-00-0000-19.png,0003-00-0001-06.png
14,597,0,1444332033530,1444332033978,358,416,0,0,0,5,4,1,54,0001-00-0009-07.png,0005-00-0008-39.png
14,598,0,1444332034001,1444332034311,927,425,0,0,0,1,2,1,12,0004-00-0006-45.png,0002-00-0009-07.png
14,599,1,1444332034347,1444332034456,391,502,0,0,0,3,2,1,32,0003-00-0003-71.png,0002-00-0004-65.png
14,600,1,1444332034490,1444332034948,948,417,0,0,0,3,4,1,34,0003-00-0000-91.png,0005-00-0008-80.png
14,601,1,1444332034979,1444332035737,388,448,0,0,0,1,2,1,12,0004-00-0003-95.png,0002-00-0003-16.png
14,602,0,1444332035768,1444332036216,945,390,0,0,0,3,2,1,32,0003-00-0005-73.png,0002-00-0002-28.png
14,603,1,1444332036258,1444332036751,926,423,0,0,0,5,4,1,54,0001-00-0006-51.png,0005-00-0001-03.png
14,604,1,1444332036803,1444332037118,396,439,0,0,0,5,4,1,54,0001-00-0008-63.png,0005-00-0003-05.png
14,605,1,1444332037163,1444332038282,939,422,0,0,0,4,3,1,43,0005-00-0007-87.png,0003-00-0001-07.png
14,606,1,1444332038306,1444332038563,326,417,0,0,0,3,4,1,34,0003-00-0004-20.png,0005-00-0005-31.png
14,607,1,1444332038580,1444332038687,327,409,0,0,0,2,3,1,23,0002-00-0008-43.png,0003-00-0007-53.png
14,608,1,1444332038735,1444332039446,317,417,0,0,0,2,1,1,21,0002-00-0008-20.png,0004-00-0007-52.png
14,609,0,1444332039467,1444332039818,365,418,0,0,0,5,4,1,54,0001-00-0001-16.png,0005-00-0002-93.png
14,610,1,1444332039841,1444332040219,389,464,0,0,0,3,2,1,32,0003-00-0001-67.png,0002-00-0001-45.png
14,611,1,1444332040262,1444332040634,924,482,0,0,0,1,2,1,12,0004-00-0001-09.png,0002-00-0006-22.png
14,612,1,1444332040649,1444332041110,323,401,0,0,0,2,1,1,21,0002-00-0009-45.png,0004-00-0001-04.png
14,613,0,1444332041131,1444332041549,926,384,0,0,0,3,4,1,34,0003-00-0008-05.png,0005-00-0007-77.png
14,614,0,1444332041568,1444332041929,350,384,0,0,0,4,3,1,43,0005-00-0001-67.png,0003-00-0004-33.png
14,615,1,1444332041952,1444332042342,927,399,0,0,0,2,3,1,23,0002-00-0004-45.png,0003-00-0002-36.png
14,616,1,1444332042371,1444332042653,861,345,0,0,0,5,4,1,54,0001-00-0001-04.png,0005-00-0006-05.png
14,617,1,1444332042682,1444332044112,365,502,0,0,0,2,1,1,21,0002-00-0007-31.png,0004-00-0004-29.png
14,618,0,1444332044141,1444332044462,376,397,0,0,0,3,2,1,32,0003-00-0005-95.png,0002-00-0004-50.png
14,619,0,1444332044487,1444332044940,368,400,0,0,0,1,2,1,12,0004-00-0005-96.png,0002-00-0008-94.png
14,620,0,1444332044975,1444332045225,319,398,0,0,0,5,4,1,54,0001-00-0001-54.png,0005-00-0003-87.png
14,621,1,1444332045272,1444332045830,910,471,0,0,0,5,4,1,54,0001-00-0002-91.png,0005-00-0000-43.png
14,622,1,1444332045853,1444332046503,901,384,0,0,0,2,3,1,23,0002-00-0008-65.png,0003-00-0001-21.png
14,623,0,1444332046529,1444332047320,391,481,0,0,0,4,3,1,43,0005-00-0007-07.png,0003-00-0008-61.png
14,624,1,1444332047342,1444332047771,901,382,0,0,0,3,4,1,34,0003-00-0001-71.png,0005-00-0007-03.png
14,625,1,1444332047802,1444332048266,921,414,0,0,0,2,3,1,23,0002-00-0006-06.png,0003-00-0006-38.png
14,626,0,1444332048294,1444332049002,358,403,0,0,0,3,4,1,34,0003-00-0008-10.png,0005-00-0001-93.png
14,627,0,1444332049026,1444332049679,348,397,0,0,0,2,1,1,21,0002-00-0002-53.png,0004-00-0008-91.png
14,628,1,1444332049706,1444332050643,929,375,0,0,0,5,4,1,54,0001-00-0005-10.png,0005-00-0001-74.png
14,629,0,1444332050669,1444332050857,939,371,0,0,0,3,2,1,32,0003-00-0001-92.png,0002-00-0006-12.png
14,630,1,1444332050880,1444332051205,913,384,0,0,0,5,4,1,54,0001-00-0002-78.png,0005-00-0006-65.png
14,631,1,1444332051228,1444332051711,436,510,0,0,0,1,2,1,12,0004-00-0003-54.png,0002-00-0000-00.png
14,632,0,1444332051742,1444332052378,331,411,0,0,0,4,3,1,43,0005-00-0002-84.png,0003-00-0006-59.png
14,633,1,1444332052403,1444332052747,346,412,0,0,0,5,4,1,54,0001-00-0004-92.png,0005-00-0008-86.png
14,634,0,1444332052779,1444332053467,931,375,0,0,0,5,4,1,54,0001-00-0000-90.png,0005-00-0000-11.png
14,635,1,1444332053486,1444332053721,901,384,0,0,0,3,2,1,32,0003-00-0009-47.png,0002-00-0006-16.png
14,636,0,1444332053743,1444332054036,945,482,0,0,0,1,2,1,12,0004-00-0003-53.png,0002-00-0000-71.png
14,637,0,1444332054055,1444332054264,969,432,0,0,0,2,1,1,21,0002-00-0001-93.png,0004-00-0008-61.png
14,638,0,1444332054291,1444332054582,939,438,0,0,0,3,4,1,34,0003-00-0007-08.png,0005-00-0003-33.png
14,639,0,1444332054607,1444332055043,951,423,0,0,0,4,3,1,43,0005-00-0009-71.png,0003-00-0003-11.png
14,640,0,1444332055062,1444332055315,913,456,0,0,0,2,3,1,23,0002-00-0006-65.png,0003-00-0008-83.png
14,641,1,1444332055337,1444332056320,935,459,0,0,0,5,4,1,54,0001-00-0002-38.png,0005-00-0006-03.png
14,642,1,1444332056344,1444332056553,901,449,0,0,0,3,4,1,34,0003-00-0006-40.png,0005-00-0000-84.png
14,643,0,1444332056591,1444332057238,874,359,0,0,0,3,2,1,32,0003-00-0005-13.png,0002-00-0001-91.png
14,644,0,1444332057265,1444332057710,239,499,0,0,0,2,1,1,21,0002-00-0008-43.png,0004-00-0002-96.png
14,645,0,1444332057738,1444332057981,294,421,0,0,0,5,4,1,54,0001-00-0006-72.png,0005-00-0005-80.png
14,646,1,1444332058008,1444332058344,891,403,0,0,0,1,2,1,12,0004-00-0004-80.png,0002-00-0004-36.png
14,647,1,1444332058365,1444332059131,883,332,0,0,0,4,3,1,43,0005-00-0009-99.png,0003-00-0001-15.png
14,648,1,1444332059167,1444332059578,356,417,0,0,0,2,3,1,23,0002-00-0007-62.png,0003-00-0006-71.png
14,649,0,1444332059610,1444332060038,903,493,0,0,0,1,2,1,12,0004-00-0006-83.png,0002-00-0000-32.png
14,650,0,1444332060068,1444332060901,376,384,0,0,0,2,3,1,23,0002-00-0000-08.png,0003-00-0009-01.png
14,651,1,1444332060952,1444332061283,340,444,0,0,0,2,1,1,21,0002-00-0003-66.png,0004-00-0005-23.png
14,652,0,1444332061307,1444332061740,319,394,0,0,0,5,4,1,54,0001-00-0001-27.png,0005-00-0001-37.png
14,653,1,1444332061766,1444332061946,904,418,0,0,0,3,2,1,32,0003-00-0000-80.png,0002-00-0008-54.png
14,654,1,1444332061982,1444332062376,339,421,0,0,0,4,3,1,43,0005-00-0000-36.png,0003-00-0009-87.png
14,655,1,1444332062397,1444332062911,906,437,0,0,0,3,4,1,34,0003-00-0007-43.png,0005-00-0009-38.png
14,656,0,1444332062935,1444332063451,925,450,0,0,0,5,4,1,54,0001-00-0004-71.png,0005-00-0005-94.png
14,657,1,1444332063489,1444332063674,939,423,0,0,0,3,2,1,32,0003-00-0003-33.png,0002-00-0000-87.png
14,658,1,1444332063703,1444332064693,404,373,0,0,0,3,4,1,34,0003-00-0008-66.png,0005-00-0003-02.png
14,659,1,1444332064714,1444332064846,320,421,0,0,0,4,3,1,43,0005-00-0000-65.png,0003-00-0005-20.png
14,660,0,1444332064871,1444332065221,930,390,0,0,0,2,1,1,21,0002-00-0001-72.png,0004-00-0003-38.png
14,661,1,1444332065245,1444332066442,879,334,0,0,0,2,3,1,23,0002-00-0005-44.png,0003-00-0008-55.png
14,662,1,1444332066482,1444332067017,888,475,0,0,0,5,4,1,54,0001-00-0007-10.png,0005-00-0001-57.png
14,663,1,1444332067043,1444332067526,286,475,0,0,0,5,4,1,54,0001-00-0002-91.png,0005-00-0008-33.png
14,664,0,1444332067555,1444332067750,926,397,0,0,0,1,2,1,12,0004-00-0002-45.png,0002-00-0007-25.png
14,665,1,1444332067782,1444332068151,929,455,0,0,0,5,4,1,54,0001-00-0007-88.png,0005-00-0006-92.png
14,666,1,1444332068173,1444332069132,930,375,0,0,0,1,2,1,12,0004-00-0002-19.png,0002-00-0004-24.png
14,667,1,1444332069158,1444332069876,311,391,0,0,0,5,4,1,54,0001-00-0001-90.png,0005-00-0005-66.png
14,668,0,1444332069922,1444332070303,913,487,0,0,0,2,3,1,23,0002-00-0004-06.png,0003-00-0001-94.png
14,669,1,1444332070329,1444332070613,332,407,0,0,0,2,1,1,21,0002-00-0002-33.png,0004-00-0001-27.png
14,670,1,1444332070646,1444332070972,358,404,0,0,0,3,4,1,34,0003-00-0002-12.png,0005-00-0007-90.png
14,671,0,1444332071007,1444332071502,957,389,0,0,0,4,3,1,43,0005-00-0003-06.png,0003-00-0005-54.png
14,672,0,1444332071520,1444332071714,881,505,0,0,0,3,2,1,32,0003-00-0005-34.png,0002-00-0009-81.png
14,673,0,1444332071752,1444332072175,313,387,0,0,0,3,4,1,34,0003-00-0002-67.png,0005-00-0009-83.png
14,674,1,1444332072201,1444332072646,362,412,0,0,0,4,3,1,43,0005-00-0002-42.png,0003-00-0009-29.png
14,675,1,1444332072669,1444332073382,374,404,0,0,0,5,4,1,54,0001-00-0000-29.png,0005-00-0001-73.png
14,676,1,1444332073408,1444332074220,911,489,0,0,0,5,4,1,54,0001-00-0009-44.png,0005-00-0005-46.png
14,677,0,1444332074242,1444332074747,907,415,0,0,0,2,1,1,21,0002-00-0000-69.png,0004-00-0000-18.png
14,678,0,1444332074786,1444332076367,927,449,0,0,0,1,2,1,12,0004-00-0008-34.png,0002-00-0005-31.png
14,679,0,1444332076418,1444332076773,315,441,0,0,0,2,3,1,23,0002-00-0009-96.png,0003-00-0002-49.png
14,680,1,1444332076805,1444332077536,898,474,0,0,0,3,2,1,32,0003-00-0006-35.png,0002-00-0007-02.png
14,681,0,1444332077561,1444332078288,248,499,0,0,0,2,1,1,21,0002-00-0003-25.png,0004-00-0001-60.png
14,682,0,1444332078323,1444332079986,389,407,0,0,0,1,2,1,12,0004-00-0008-46.png,0002-00-0002-34.png
14,683,0,1444332080012,1444332080242,335,402,0,0,0,5,4,1,54,0001-00-0009-10.png,0005-00-0005-06.png
14,684,1,1444332080280,1444332081507,888,476,0,0,0,2,3,1,23,0002-00-0003-74.png,0003-00-0000-72.png
14,685,1,1444332081548,1444332081944,358,402,0,0,0,3,4,1,34,0003-00-0006-39.png,0005-00-0003-62.png
14,686,1,1444332081972,1444332082688,344,463,0,0,0,5,4,1,54,0001-00-0007-43.png,0005-00-0007-63.png
14,687,0,1444332082723,1444332083452,955,384,0,0,0,4,3,1,43,0005-00-0007-00.png,0003-00-0001-67.png
14,688,1,1444332083491,1444332084261,401,449,0,0,0,3,2,1,32,0003-00-0005-20.png,0002-00-0002-93.png
14,689,1,1444332084295,1444332084757,957,402,0,0,0,5,4,1,54,0001-00-0005-77.png,0005-00-0002-57.png
14,690,1,1444332084774,1444332085429,374,450,0,0,0,2,1,1,21,0002-00-0000-87.png,0004-00-0004-33.png
14,691,0,1444332085469,1444332086339,374,452,0,0,0,3,2,1,32,0003-00-0005-87.png,0002-00-0001-62.png
14,692,1,1444332086378,1444332086729,435,477,0,0,0,2,3,1,23,0002-00-0000-63.png,0003-00-0004-30.png
14,693,1,1444332086762,1444332086924,237,488,0,0,0,5,4,1,54,0001-00-0000-00.png,0005-00-0001-01.png
14,694,1,1444332086948,1444332087058,896,472,0,0,0,4,3,1,43,0005-00-0001-85.png,0003-00-0007-86.png
14,695,0,1444332087093,1444332087452,293,522,0,0,0,3,4,1,34,0003-00-0008-28.png,0005-00-0003-23.png
14,696,0,1444332087480,1444332087831,926,371,0,0,0,1,2,1,12,0004-00-0004-13.png,0002-00-0001-25.png
14,697,0,1444332087854,1444332088236,964,332,0,0,0,2,1,1,21,0002-00-0002-97.png,0004-00-0005-94.png
14,698,1,1444332088261,1444332088751,935,440,0,0,0,1,2,1,12,0004-00-0008-04.png,0002-00-0003-65.png
14,699,1,1444332088774,1444332089383,334,404,0,0,0,3,2,1,32,0003-00-0004-42.png,0002-00-0008-51.png
14,700,1,1444332089417,1444332089891,453,410,0,0,0,5,4,1,54,0001-00-0002-51.png,0005-00-0007-48.png
14,701,1,1444332089911,1444332090311,508,414,0,0,0,2,3,1,23,0002-00-0005-43.png,0003-00-0007-75.png
14,702,0,1444332090339,1444332091117,934,394,0,0,0,4,3,1,43,0005-00-0009-42.png,0003-00-0004-95.png
14,703,1,1444332091145,1444332092229,384,404,0,0,0,3,4,1,34,0003-00-0007-02.png,0005-00-0009-20.png
14,704,0,1444332092264,1444332092837,336,413,0,0,0,5,4,1,54,0001-00-0003-29.png,0005-00-0006-28.png
14,705,0,1444332092857,1444332093361,375,439,0,0,0,3,2,1,32,0003-00-0006-18.png,0002-00-0002-26.png
14,706,1,1444332093388,1444332093616,905,412,0,0,0,3,4,1,34,0003-00-0009-84.png,0005-00-0009-94.png
14,707,1,1444332093642,1444332093865,331,457,0,0,0,2,1,1,21,0002-00-0009-45.png,0004-00-0007-16.png
14,708,0,1444332093894,1444332094428,511,419,0,0,0,2,3,1,23,0002-00-0007-54.png,0003-00-0002-47.png
14,709,1,1444332094487,1444332095131,376,397,0,0,0,1,2,1,12,0004-00-0000-90.png,0002-00-0008-00.png
14,710,1,1444332095162,1444332095599,931,375,0,0,0,4,3,1,43,0005-00-0004-18.png,0003-00-0005-12.png
14,711,1,1444332095630,1444332096239,930,400,0,0,0,5,4,1,54,0001-00-0004-19.png,0005-00-0005-46.png
14,712,0,1444332096277,1444332096556,390,502,0,0,0,5,4,1,54,0001-00-0001-17.png,0005-00-0006-37.png
14,713,1,1444332096590,1444332097137,910,474,0,0,0,2,3,1,23,0002-00-0008-85.png,0003-00-0008-44.png
14,714,0,1444332097163,1444332097719,336,425,0,0,0,5,4,1,54,0001-00-0006-60.png,0005-00-0004-54.png
14,715,1,1444332097734,1444332098340,371,397,0,0,0,3,2,1,32,0003-00-0001-70.png,0002-00-0009-23.png
14,716,1,1444332098381,1444332098954,957,375,0,0,0,1,2,1,12,0004-00-0001-07.png,0002-00-0002-47.png
14,717,1,1444332098990,1444332099223,931,376,0,0,0,2,1,1,21,0002-00-0004-86.png,0004-00-0002-10.png
14,718,0,1444332099253,1444332099574,319,421,0,0,0,3,4,1,34,0003-00-0002-94.png,0005-00-0009-43.png
14,719,0,1444332099608,1444332099960,319,421,0,0,0,4,3,1,43,0005-00-0008-78.png,0003-00-0008-72.png
14,720,1,1444332099979,1444332100672,366,521,0,0,0,5,4,1,54,0001-00-0007-00.png,0005-00-0004-19.png
14,721,0,1444332100708,1444332101072,332,396,0,0,0,1,2,1,12,0004-00-0005-18.png,0002-00-0000-39.png
14,722,1,1444332101102,1444332101994,913,347,0,0,0,3,4,1,34,0003-00-0007-81.png,0005-00-0005-15.png
14,723,1,1444332102024,1444332103568,932,389,0,0,0,4,3,1,43,0005-00-0006-84.png,0003-00-0004-15.png
14,724,0,1444332103591,1444332104670,383,533,0,0,0,2,1,1,21,0002-00-0009-81.png,0004-00-0003-46.png
14,725,0,1444332104702,1444332105157,926,384,0,0,0,5,4,1,54,0001-00-0006-41.png,0005-00-0001-37.png
14,726,1,1444332105181,1444332105481,388,502,0,0,0,3,2,1,32,0003-00-0004-37.png,0002-00-0006-35.png
14,727,1,1444332105510,1444332105898,872,482,0,0,0,5,4,1,54,0001-00-0003-64.png,0005-00-0007-11.png
14,728,0,1444332105928,1444332106299,480,405,0,0,0,2,3,1,23,0002-00-0009-53.png,0003-00-0000-84.png
14,729,0,1444332106337,1444332106577,263,441,0,0,0,5,4,1,54,0001-00-0004-44.png,0005-00-0002-50.png
14,730,1,1444332106597,1444332106935,890,482,0,0,0,3,4,1,34,0003-00-0003-06.png,0005-00-0000-52.png
14,731,1,1444332106951,1444332107300,881,390,0,0,0,4,3,1,43,0005-00-0000-99.png,0003-00-0003-59.png
14,732,0,1444332107319,1444332107620,931,421,0,0,0,1,2,1,12,0004-00-0000-50.png,0002-00-0003-33.png
14,733,0,1444332107657,1444332108304,885,414,0,0,0,2,3,1,23,0002-00-0009-03.png,0003-00-0009-14.png
14,734,1,1444332108334,1444332108722,925,449,0,0,0,5,4,1,54,0001-00-0000-07.png,0005-00-0008-72.png
14,735,0,1444332108758,1444332109054,222,506,0,0,0,2,1,1,21,0002-00-0007-77.png,0004-00-0007-55.png
14,736,1,1444332109082,1444332109416,495,475,0,0,0,3,2,1,32,0003-00-0005-28.png,0002-00-0002-60.png
14,737,0,1444332109456,1444332109873,329,433,0,0,0,5,4,1,54,0001-00-0000-98.png,0005-00-0005-84.png
14,738,1,1444332109903,1444332110250,376,410,0,0,0,4,3,1,43,0005-00-0003-25.png,0003-00-0002-12.png
14,739,1,1444332110290,1444332110713,325,385,0,0,0,2,3,1,23,0002-00-0005-18.png,0003-00-0005-35.png
14,740,1,1444332110740,1444332111468,903,491,0,0,0,3,2,1,32,0003-00-0001-51.png,0002-00-0000-20.png
14,741,1,1444332111506,1444332111934,926,383,0,0,0,2,1,1,21,0002-00-0009-60.png,0004-00-0008-50.png
14,742,1,1444332111968,1444332112493,951,377,0,0,0,5,4,1,54,0001-00-0001-85.png,0005-00-0009-12.png
14,743,0,1444332112521,1444332112779,441,476,0,0,0,3,4,1,34,0003-00-0000-25.png,0005-00-0007-87.png
14,744,1,1444332112801,1444332112927,949,383,0,0,0,1,2,1,12,0004-00-0004-82.png,0002-00-0004-79.png
14,745,1,1444332112950,1444332113284,907,490,0,0,0,1,2,1,12,0004-00-0006-59.png,0002-00-0000-21.png
14,746,1,1444332113307,1444332113997,391,556,0,0,0,3,4,1,34,0003-00-0002-81.png,0005-00-0000-31.png
14,747,1,1444332114029,1444332114346,877,469,0,0,0,4,3,1,43,0005-00-0009-25.png,0003-00-0001-58.png
14,748,1,1444332114373,1444332115275,905,401,0,0,0,3,2,1,32,0003-00-0009-15.png,0002-00-0001-17.png
14,749,1,1444332115309,1444332115488,324,410,0,0,0,2,1,1,21,0002-00-0005-56.png,0004-00-0001-36.png
14,750,0,1444332115520,1444332115986,379,449,0,0,0,5,4,1,54,0001-00-0009-04.png,0005-00-0006-18.png
14,751,0,1444332116011,1444332116513,901,514,0,0,0,2,3,1,23,0002-00-0006-11.png,0003-00-0009-96.png
14,752,1,1444332116553,1444332117154,393,506,0,0,0,5,4,1,54,0001-00-0004-37.png,0005-00-0000-70.png
14,753,1,1444332117184,1444332117474,926,410,0,0,0,2,1,1,21,0002-00-0008-99.png,0004-00-0006-31.png
14,754,1,1444332117499,1444332118312,337,419,0,0,0,5,4,1,54,0001-00-0005-46.png,0005-00-0007-78.png
14,755,0,1444332118333,1444332118821,934,370,0,0,0,4,3,1,43,0005-00-0005-21.png,0003-00-0000-28.png
14,756,1,1444332118846,1444332119123,325,423,0,0,0,5,4,1,54,0001-00-0005-76.png,0005-00-0003-44.png
14,757,1,1444332119155,1444332119435,401,423,0,0,0,3,2,1,32,0003-00-0003-66.png,0002-00-0005-87.png
14,758,1,1444332119468,1444332120154,913,371,0,0,0,3,4,1,34,0003-00-0001-17.png,0005-00-0000-93.png
14,759,0,1444332120183,1444332120651,919,403,0,0,0,2,3,1,23,0002-00-0005-41.png,0003-00-0002-05.png
14,760,1,1444332120681,1444332121009,982,362,0,0,0,1,2,1,12,0004-00-0001-82.png,0002-00-0008-05.png
14,761,0,1444332121036,1444332121237,906,487,0,0,0,4,3,1,43,0005-00-0003-68.png,0003-00-0004-16.png
14,762,1,1444332121274,1444332121834,353,445,0,0,0,3,2,1,32,0003-00-0006-99.png,0002-00-0006-56.png
14,763,0,1444332121855,1444332122152,878,495,0,0,0,5,4,1,54,0001-00-0000-57.png,0005-00-0003-40.png
14,764,1,1444332122175,1444332122371,881,393,0,0,0,2,3,1,23,0002-00-0003-65.png,0003-00-0001-21.png
14,765,0,1444332122406,1444332123148,361,425,0,0,0,1,2,1,12,0004-00-0006-69.png,0002-00-0006-99.png
14,766,0,1444332123178,1444332123657,879,453,0,0,0,3,4,1,34,0003-00-0003-74.png,0005-00-0002-80.png
14,767,0,1444332123685,1444332124990,862,332,0,0,0,2,1,1,21,0002-00-0003-88.png,0004-00-0000-77.png
14,768,1,1444332125017,1444332125347,342,337,0,0,0,5,4,1,54,0001-00-0006-58.png,0005-00-0003-79.png
14,769,0,1444332125388,1444332125761,389,501,0,0,0,5,4,1,54,0001-00-0004-14.png,0005-00-0008-60.png
14,770,1,1444332125792,1444332126311,938,399,0,0,0,3,4,1,34,0003-00-0001-25.png,0005-00-0007-30.png
14,771,0,1444332126346,1444332126635,358,401,0,0,0,5,4,1,54,0001-00-0002-50.png,0005-00-0006-29.png
14,772,1,1444332126662,1444332127145,898,482,0,0,0,4,3,1,43,0005-00-0003-28.png,0003-00-0003-88.png
14,773,1,1444332127169,1444332127769,875,397,0,0,0,3,2,1,32,0003-00-0003-75.png,0002-00-0009-03.png
14,774,0,1444332127799,1444332128737,952,371,0,0,0,2,3,1,23,0002-00-0001-96.png,0003-00-0008-89.png
14,775,0,1444332128760,1444332129069,389,540,0,0,0,1,2,1,12,0004-00-0008-63.png,0002-00-0005-57.png
14,776,1,1444332129103,1444332129353,936,425,0,0,0,2,1,1,21,0002-00-0007-08.png,0004-00-0007-01.png
14,777,1,1444332129372,1444332129542,348,438,0,0,0,5,4,1,54,0001-00-0001-42.png,0005-00-0001-73.png
14,778,1,1444332129567,1444332130064,888,449,0,0,0,3,4,1,34,0003-00-0008-12.png,0005-00-0007-93.png
14,779,1,1444332130083,1444332130360,401,345,0,0,0,4,3,1,43,0005-00-0009-82.png,0003-00-0005-78.png
14,780,0,1444332130396,1444332131008,401,513,0,0,0,1,2,1,12,0004-00-0002-53.png,0002-00-0009-59.png
14,781,1,1444332131041,1444332131278,407,464,0,0,0,2,1,1,21,0002-00-0004-32.png,0004-00-0002-35.png
14,782,1,1444332131315,1444332131526,952,410,0,0,0,2,3,1,23,0002-00-0002-09.png,0003-00-0005-83.png
14,783,1,1444332131548,1444332131942,874,358,0,0,0,5,4,1,54,0001-00-0006-27.png,0005-00-0008-07.png
14,784,0,1444332131970,1444332132294,342,426,0,0,0,3,2,1,32,0003-00-0008-73.png,0002-00-0003-88.png
14,785,1,1444332132335,1444332132732,945,491,0,0,0,3,2,1,32,0003-00-0004-07.png,0002-00-0004-66.png
14,786,0,1444332132765,1444332133603,913,345,0,0,0,2,3,1,23,0002-00-0000-16.png,0003-00-0004-35.png
14,787,1,1444332133659,1444332133765,316,397,0,0,0,2,1,1,21,0002-00-0006-10.png,0004-00-0008-40.png
14,788,1,1444332133799,1444332134329,879,350,0,0,0,1,2,1,12,0004-00-0009-74.png,0002-00-0004-77.png
14,789,1,1444332134361,1444332135067,952,397,0,0,0,5,4,1,54,0001-00-0001-24.png,0005-00-0001-43.png
14,790,1,1444332135094,1444332135495,885,472,0,0,0,5,4,1,54,0001-00-0008-87.png,0005-00-0004-33.png
14,791,0,1444332135529,1444332135955,401,384,0,0,0,4,3,1,43,0005-00-0004-17.png,0003-00-0000-81.png
14,792,1,1444332135982,1444332136638,877,338,0,0,0,3,4,1,34,0003-00-0005-54.png,0005-00-0000-31.png
14,793,1,1444332136681,1444332137171,923,481,0,0,0,2,3,1,23,0002-00-0004-20.png,0003-00-0004-63.png
14,794,1,1444332137212,1444332137492,359,419,0,0,0,4,3,1,43,0005-00-0008-40.png,0003-00-0000-91.png
14,795,0,1444332137525,1444332137937,351,408,0,0,0,2,1,1,21,0002-00-0007-21.png,0004-00-0006-37.png
14,796,1,1444332137957,1444332138335,334,426,0,0,0,1,2,1,12,0004-00-0006-36.png,0002-00-0007-72.png
14,797,0,1444332138369,1444332139083,899,473,0,0,0,3,2,1,32,0003-00-0001-39.png,0002-00-0001-96.png
14,798,0,1444332139112,1444332139575,354,426,0,0,0,5,4,1,54,0001-00-0004-34.png,0005-00-0005-89.png
14,799,0,1444332139603,1444332140002,338,421,0,0,0,5,4,1,54,0001-00-0006-97.png,0005-00-0008-65.png
14,800,0,1444332140039,1444332140431,901,460,0,0,0,3,4,1,34,0003-00-0002-73.png,0005-00-0000-51.png
14,801,1,1444332140467,1444332140767,369,437,0,0,0,4,3,1,43,0005-00-0005-38.png,0003-00-0007-96.png
14,802,1,1444332140800,1444332141110,871,483,0,0,0,3,4,1,34,0003-00-0002-08.png,0005-00-0005-38.png
14,803,0,1444332141135,1444332141415,888,410,0,0,0,3,2,1,32,0003-00-0003-08.png,0002-00-0009-58.png
14,804,1,1444332141446,1444332141986,922,468,0,0,0,2,3,1,23,0002-00-0001-63.png,0003-00-0006-22.png
14,805,1,1444332142011,1444332142417,899,484,0,0,0,2,1,1,21,0002-00-0005-69.png,0004-00-0000-23.png
14,806,0,1444332142445,1444332143436,388,539,0,0,0,5,4,1,54,0001-00-0008-87.png,0005-00-0004-32.png
14,807,1,1444332143467,1444332144165,371,408,0,0,0,5,4,1,54,0001-00-0002-80.png,0005-00-0006-47.png
14,808,0,1444332144204,1444332144996,956,375,0,0,0,1,2,1,12,0004-00-0001-61.png,0002-00-0005-82.png
14,809,0,1444332145024,1444332146078,351,428,0,0,0,3,4,1,34,0003-00-0003-19.png,0005-00-0002-52.png
14,810,1,1444332146102,1444332146726,913,424,0,0,0,1,2,1,12,0004-00-0009-58.png,0002-00-0001-59.png
14,811,1,1444332146766,1444332147268,401,436,0,0,0,5,4,1,54,0001-00-0006-30.png,0005-00-0005-27.png
14,812,1,1444332147294,1444332147740,922,368,0,0,0,4,3,1,43,0005-00-0007-67.png,0003-00-0005-04.png
14,813,1,1444332147773,1444332148265,928,413,0,0,0,2,3,1,23,0002-00-0003-56.png,0003-00-0002-21.png
14,814,1,1444332148315,1444332148611,914,461,0,0,0,2,1,1,21,0002-00-0005-42.png,0004-00-0005-07.png
14,815,1,1444332148639,1444332149011,472,402,0,0,0,5,4,1,54,0001-00-0003-32.png,0005-00-0001-58.png
14,816,0,1444332149027,1444332149374,953,389,0,0,0,3,2,1,32,0003-00-0002-03.png,0002-00-0008-00.png
14,817,1,1444332149396,1444332150104,332,406,0,0,0,1,2,1,12,0004-00-0003-52.png,0002-00-0005-96.png
14,818,1,1444332150133,1444332150464,919,460,0,0,0,3,4,1,34,0003-00-0009-08.png,0005-00-0006-89.png
14,819,1,1444332150490,1444332151012,928,413,0,0,0,5,4,1,54,0001-00-0002-11.png,0005-00-0003-64.png
14,820,0,1444332151046,1444332151727,929,484,0,0,0,2,3,1,23,0002-00-0009-96.png,0003-00-0008-96.png
14,821,0,1444332151749,1444332152062,318,396,0,0,0,5,4,1,54,0001-00-0001-18.png,0005-00-0008-10.png
14,822,0,1444332152093,1444332152390,340,414,0,0,0,4,3,1,43,0005-00-0000-85.png,0003-00-0000-28.png
14,823,0,1444332152415,1444332153058,934,391,0,0,0,2,1,1,21,0002-00-0005-42.png,0004-00-0009-44.png
14,824,1,1444332153096,1444332153604,899,458,0,0,0,3,2,1,32,0003-00-0008-93.png,0002-00-0004-96.png
14,825,0,1444332153625,1444332154112,948,393,0,0,0,2,3,1,23,0002-00-0000-50.png,0003-00-0008-80.png
14,826,1,1444332154138,1444332154335,321,420,0,0,0,2,1,1,21,0002-00-0003-05.png,0004-00-0003-99.png
14,827,1,1444332154363,1444332155142,369,488,0,0,0,5,4,1,54,0001-00-0008-77.png,0005-00-0007-07.png
14,828,1,1444332155163,1444332155478,906,420,0,0,0,1,2,1,12,0004-00-0009-80.png,0002-00-0006-15.png
14,829,1,1444332155511,1444332156848,888,397,0,0,0,4,3,1,43,0005-00-0005-85.png,0003-00-0006-18.png
14,830,0,1444332156876,1444332157842,356,464,0,0,0,5,4,1,54,0001-00-0003-81.png,0005-00-0008-55.png
14,831,1,1444332157866,1444332158227,926,384,0,0,0,3,4,1,34,0003-00-0002-35.png,0005-00-0002-47.png
14,832,0,1444332158253,1444332158435,381,487,0,0,0,3,2,1,32,0003-00-0000-85.png,0002-00-0002-96.png
14,833,1,1444332158459,1444332159688,902,443,0,0,0,4,3,1,43,0005-00-0000-10.png,0003-00-0009-12.png
14,834,1,1444332159729,1444332160350,901,547,0,0,0,5,4,1,54,0001-00-0008-98.png,0005-00-0004-06.png
14,835,0,1444332160382,1444332160680,386,428,0,0,0,2,1,1,21,0002-00-0001-94.png,0004-00-0007-79.png
14,836,1,1444332160709,1444332161594,349,418,0,0,0,3,4,1,34,0003-00-0006-05.png,0005-00-0003-79.png
14,837,0,1444332161629,1444332162899,337,398,0,0,0,3,2,1,32,0003-00-0004-49.png,0002-00-0000-53.png
14,838,1,1444332162920,1444332163052,862,410,0,0,0,1,2,1,12,0004-00-0005-36.png,0002-00-0008-26.png
14,839,1,1444332163076,1444332163758,925,480,0,0,0,2,3,1,23,0002-00-0002-42.png,0003-00-0002-69.png
14,840,1,1444332163780,1444332164041,440,565,0,0,0,5,4,1,54,0001-00-0009-39.png,0005-00-0008-46.png
14,841,0,1444332164081,1444332164716,332,361,0,0,0,5,4,1,54,0001-00-0006-98.png,0005-00-0006-70.png
14,842,0,1444332164735,1444332164990,925,447,0,0,0,2,1,1,21,0002-00-0006-18.png,0004-00-0005-07.png
14,843,0,1444332165023,1444332165751,980,361,0,0,0,3,2,1,32,0003-00-0006-56.png,0002-00-0001-45.png
14,844,1,1444332165770,1444332166730,945,351,0,0,0,5,4,1,54,0001-00-0002-96.png,0005-00-0006-51.png
14,845,0,1444332166751,1444332167009,338,385,0,0,0,1,2,1,12,0004-00-0007-88.png,0002-00-0000-79.png
14,846,0,1444332167028,1444332167334,347,405,0,0,0,4,3,1,43,0005-00-0007-58.png,0003-00-0006-69.png
14,847,1,1444332167361,1444332167798,893,483,0,0,0,2,3,1,23,0002-00-0007-49.png,0003-00-0003-13.png
14,848,1,1444332167833,1444332169250,349,409,0,0,0,3,4,1,34,0003-00-0001-32.png,0005-00-0006-74.png
14,849,0,1444332169272,1444332169418,899,465,0,0,0,3,4,1,34,0003-00-0008-51.png,0005-00-0007-45.png
14,850,0,1444332169452,1444332169741,948,367,0,0,0,2,3,1,23,0002-00-0003-80.png,0003-00-0002-25.png
14,851,1,1444332169762,1444332170004,345,447,0,0,0,3,2,1,32,0003-00-0006-37.png,0002-00-0003-61.png
14,852,0,1444332170033,1444332170539,924,412,0,0,0,5,4,1,54,0001-00-0006-50.png,0005-00-0002-17.png
14,853,0,1444332170571,1444332171003,427,501,0,0,0,2,1,1,21,0002-00-0002-09.png,0004-00-0005-77.png
14,854,0,1444332171023,1444332171721,900,488,0,0,0,4,3,1,43,0005-00-0007-47.png,0003-00-0003-21.png
14,855,1,1444332171747,1444332172628,955,402,0,0,0,5,4,1,54,0001-00-0003-76.png,0005-00-0004-01.png
14,856,0,1444332172672,1444332173672,372,427,0,0,0,1,2,1,12,0004-00-0002-98.png,0002-00-0003-72.png
14,857,0,1444332173697,1444332173970,248,488,0,0,0,5,4,1,54,0001-00-0004-69.png,0005-00-0002-24.png
14,858,1,1444332173995,1444332174447,914,449,0,0,0,4,3,1,43,0005-00-0000-63.png,0003-00-0006-00.png
14,859,1,1444332174468,1444332174968,931,408,0,0,0,2,3,1,23,0002-00-0001-86.png,0003-00-0004-60.png
14,860,1,1444332175008,1444332175269,923,343,0,0,0,3,2,1,32,0003-00-0000-41.png,0002-00-0005-68.png
14,861,1,1444332175293,1444332175600,374,424,0,0,0,2,1,1,21,0002-00-0008-77.png,0004-00-0004-30.png
14,862,0,1444332175636,1444332176001,928,363,0,0,0,1,2,1,12,0004-00-0000-27.png,0002-00-0002-34.png
14,863,1,1444332176021,1444332176252,349,415,0,0,0,3,4,1,34,0003-00-0004-80.png,0005-00-0007-14.png
14,864,1,1444332176287,1444332176979,929,363,0,0,0,5,4,1,54,0001-00-0007-06.png,0005-00-0007-25.png
14,865,0,1444332177010,1444332177258,903,414,0,0,0,5,4,1,54,0001-00-0009-99.png,0005-00-0007-53.png
14,866,1,1444332177299,1444332177796,926,358,0,0,0,3,2,1,32,0003-00-0007-13.png,0002-00-0000-85.png
14,867,0,1444332177818,1444332178590,340,416,0,0,0,4,3,1,43,0005-00-0000-68.png,0003-00-0009-86.png
14,868,0,1444332178639,1444332179081,877,362,0,0,0,2,3,1,23,0002-00-0001-17.png,0003-00-0008-07.png
14,869,0,1444332179107,1444332179453,935,333,0,0,0,2,1,1,21,0002-00-0008-68.png,0004-00-0000-71.png
14,870,1,1444332179485,1444332180270,360,430,0,0,0,1,2,1,12,0004-00-0006-05.png,0002-00-0004-03.png
14,871,1,1444332180292,1444332181468,920,469,0,0,0,5,4,1,54,0001-00-0008-91.png,0005-00-0004-36.png
14,872,1,1444332181493,1444332182085,298,326,0,0,0,3,4,1,34,0003-00-0009-18.png,0005-00-0004-84.png
14,873,1,1444332182121,1444332182370,864,470,0,0,0,3,4,1,34,0003-00-0007-51.png,0005-00-0008-35.png
14,874,1,1444332182418,1444332182983,350,384,0,0,0,2,3,1,23,0002-00-0005-65.png,0003-00-0008-33.png
14,875,1,1444332183003,1444332183394,324,450,0,0,0,5,4,1,54,0001-00-0003-05.png,0005-00-0006-09.png
14,876,0,1444332183432,1444332184021,315,388,0,0,0,1,2,1,12,0004-00-0006-75.png,0002-00-0001-02.png
14,877,1,1444332184046,1444332184427,911,372,0,0,0,4,3,1,43,0005-00-0008-59.png,0003-00-0007-79.png
14,878,1,1444332184462,1444332184766,365,463,0,0,0,5,4,1,54,0001-00-0008-89.png,0005-00-0008-46.png
14,879,1,1444332184787,1444332185187,319,420,0,0,0,3,2,1,32,0003-00-0001-01.png,0002-00-0005-91.png
14,880,1,1444332185228,1444332185992,329,399,0,0,0,2,1,1,21,0002-00-0004-10.png,0004-00-0005-11.png
14,881,1,1444332186017,1444332186739,397,525,0,0,0,2,3,1,23,0002-00-0004-71.png,0003-00-0000-55.png
14,882,1,1444332186765,1444332187745,381,488,0,0,0,4,3,1,43,0005-00-0002-65.png,0003-00-0000-56.png
14,883,0,1444332187771,1444332188164,900,437,0,0,0,1,2,1,12,0004-00-0006-36.png,0002-00-0005-45.png
14,884,0,1444332188200,1444332188569,926,449,0,0,0,5,4,1,54,0001-00-0005-42.png,0005-00-0002-03.png
14,885,0,1444332188603,1444332188821,363,469,0,0,0,3,2,1,32,0003-00-0008-28.png,0002-00-0003-13.png
14,886,1,1444332188855,1444332189343,350,449,0,0,0,5,4,1,54,0001-00-0001-62.png,0005-00-0008-61.png
14,887,1,1444332189367,1444332189583,388,502,0,0,0,2,1,1,21,0002-00-0006-55.png,0004-00-0005-76.png
14,888,1,1444332189620,1444332189823,273,462,0,0,0,3,4,1,34,0003-00-0000-83.png,0005-00-0008-26.png
14,889,0,1444332189858,1444332190292,342,417,0,0,0,2,1,1,21,0002-00-0004-88.png,0004-00-0007-92.png
14,890,1,1444332190309,1444332190717,307,415,0,0,0,3,2,1,32,0003-00-0009-31.png,0002-00-0001-13.png
14,891,1,1444332190752,1444332190933,308,388,0,0,0,1,2,1,12,0004-00-0002-17.png,0002-00-0003-36.png
14,892,0,1444332190981,1444332191791,931,389,0,0,0,5,4,1,54,0001-00-0007-23.png,0005-00-0005-52.png
14,893,1,1444332191824,1444332192468,921,446,0,0,0,4,3,1,43,0005-00-0002-61.png,0003-00-0009-55.png
14,894,0,1444332192503,1444332193071,874,370,0,0,0,2,3,1,23,0002-00-0006-61.png,0003-00-0009-81.png
14,895,0,1444332193109,1444332193416,388,413,0,0,0,3,4,1,34,0003-00-0009-84.png,0005-00-0001-59.png
14,896,1,1444332193441,1444332193851,959,447,0,0,0,5,4,1,54,0001-00-0002-06.png,0005-00-0007-40.png
14,897,1,1444332193878,1444332194671,990,397,0,0,0,3,2,1,32,0003-00-0002-24.png,0002-00-0002-34.png
14,898,0,1444332194699,1444332194905,349,385,0,0,0,2,3,1,23,0002-00-0005-00.png,0003-00-0002-30.png
14,899,1,1444332194936,1444332195354,899,384,0,0,0,5,4,1,54,0001-00-0001-35.png,0005-00-0006-37.png
14,900,1,1444332195388,1444332195721,356,371,0,0,0,3,4,1,34,0003-00-0003-14.png,0005-00-0003-49.png
14,901,1,1444332195748,1444332196181,920,444,0,0,0,5,4,1,54,0001-00-0004-01.png,0005-00-0006-20.png
14,902,1,1444332196219,1444332196493,374,436,0,0,0,2,1,1,21,0002-00-0008-96.png,0004-00-0009-86.png
14,903,0,1444332196513,1444332196983,351,421,0,0,0,1,2,1,12,0004-00-0004-19.png,0002-00-0006-83.png
14,904,1,1444332197014,1444332197444,953,390,0,0,0,4,3,1,43,0005-00-0005-84.png,0003-00-0004-27.png
14,905,0,1444332197466,1444332197960,942,403,0,0,0,5,4,1,54,0001-00-0002-71.png,0005-00-0006-20.png
14,906,1,1444332197985,1444332198396,900,410,0,0,0,3,4,1,34,0003-00-0004-70.png,0005-00-0009-76.png
14,907,1,1444332198416,1444332198909,340,408,0,0,0,3,2,1,32,0003-00-0005-75.png,0002-00-0005-53.png
14,908,0,1444332198942,1444332199372,427,410,0,0,0,4,3,1,43,0005-00-0002-09.png,0003-00-0005-57.png
14,909,1,1444332199409,1444332200118,931,392,0,0,0,5,4,1,54,0001-00-0008-02.png,0005-00-0009-67.png
14,910,0,1444332200160,1444332200674,376,476,0,0,0,2,3,1,23,0002-00-0005-01.png,0003-00-0001-37.png
14,911,1,1444332200708,1444332201063,317,367,0,0,0,2,1,1,21,0002-00-0006-96.png,0004-00-0000-06.png
14,912,0,1444332201089,1444332201605,364,446,0,0,0,1,2,1,12,0004-00-0002-96.png,0002-00-0005-43.png
14,913,1,1444332201645,1444332202437,917,440,0,0,0,2,3,1,23,0002-00-0002-66.png,0003-00-0006-46.png
14,914,0,1444332202460,1444332202687,364,419,0,0,0,5,4,1,54,0001-00-0003-11.png,0005-00-0002-26.png
14,915,0,1444332202725,1444332202941,336,458,0,0,0,3,4,1,34,0003-00-0005-27.png,0005-00-0000-63.png
14,916,0,1444332202975,1444332203321,427,386,0,0,0,2,1,1,21,0002-00-0008-76.png,0004-00-0003-68.png
14,917,0,1444332203353,1444332203699,312,398,0,0,0,5,4,1,54,0001-00-0002-88.png,0005-00-0001-51.png
14,918,0,1444332203727,1444332204130,370,427,0,0,0,4,3,1,43,0005-00-0008-78.png,0003-00-0000-38.png
14,919,1,1444332204167,1444332204404,922,413,0,0,0,1,2,1,12,0004-00-0000-76.png,0002-00-0004-86.png
14,920,1,1444332204437,1444332205874,926,371,0,0,0,3,2,1,32,0003-00-0009-44.png,0002-00-0007-04.png
14,921,0,1444332205910,1444332206353,901,399,0,0,0,2,3,1,23,0002-00-0004-92.png,0003-00-0002-56.png
14,922,1,1444332206397,1444332206578,904,393,0,0,0,3,2,1,32,0003-00-0000-74.png,0002-00-0004-40.png
14,923,1,1444332206608,1444332207511,416,528,0,0,0,5,4,1,54,0001-00-0008-40.png,0005-00-0002-20.png
14,924,1,1444332207543,1444332208236,906,446,0,0,0,5,4,1,54,0001-00-0002-76.png,0005-00-0004-58.png
14,925,0,1444332208263,1444332209277,320,421,0,0,0,1,2,1,12,0004-00-0006-53.png,0002-00-0002-31.png
14,926,0,1444332209324,1444332210245,866,484,0,0,0,4,3,1,43,0005-00-0003-07.png,0003-00-0007-91.png
14,927,0,1444332210282,1444332210705,304,398,0,0,0,2,1,1,21,0002-00-0009-27.png,0004-00-0003-04.png
14,928,1,1444332210727,1444332211381,362,425,0,0,0,3,4,1,34,0003-00-0003-68.png,0005-00-0004-64.png
14,929,1,1444332211404,1444332211865,870,382,0,0,0,5,4,1,54,0001-00-0006-48.png,0005-00-0004-54.png
14,930,1,1444332211899,1444332212221,393,502,0,0,0,3,4,1,34,0003-00-0000-36.png,0005-00-0007-24.png
14,931,0,1444332212246,1444332212590,926,449,0,0,0,4,3,1,43,0005-00-0003-29.png,0003-00-0009-92.png
14,932,1,1444332212616,1444332212959,335,457,0,0,0,3,2,1,32,0003-00-0008-85.png,0002-00-0001-36.png
14,933,0,1444332212990,1444332213676,397,518,0,0,0,2,3,1,23,0002-00-0001-61.png,0003-00-0002-47.png
14,934,0,1444332213716,1444332214047,891,413,0,0,0,5,4,1,54,0001-00-0003-61.png,0005-00-0004-28.png
14,935,1,1444332214073,1444332215331,387,527,0,0,0,2,1,1,21,0002-00-0004-71.png,0004-00-0007-38.png
14,936,1,1444332215360,1444332215747,925,464,0,0,0,1,2,1,12,0004-00-0000-66.png,0002-00-0004-59.png
14,937,1,1444332215784,1444332215960,365,426,0,0,0,3,4,1,34,0003-00-0005-62.png,0005-00-0002-52.png
14,938,0,1444332215992,1444332216286,344,421,0,0,0,5,4,1,54,0001-00-0009-43.png,0005-00-0007-87.png
14,939,0,1444332216319,1444332216735,388,502,0,0,0,2,1,1,21,0002-00-0000-75.png,0004-00-0006-60.png
14,940,0,1444332216764,1444332217513,877,502,0,0,0,2,3,1,23,0002-00-0000-36.png,0003-00-0005-35.png
14,941,1,1444332217558,1444332218133,414,501,0,0,0,5,4,1,54,0001-00-0000-52.png,0005-00-0003-22.png
14,942,1,1444332218159,1444332218901,514,479,0,0,0,3,2,1,32,0003-00-0008-50.png,0002-00-0005-74.png
14,943,0,1444332218923,1444332219591,325,415,0,0,0,4,3,1,43,0005-00-0008-18.png,0003-00-0001-60.png
14,944,1,1444332219626,1444332220021,920,345,0,0,0,1,2,1,12,0004-00-0003-28.png,0002-00-0004-16.png
14,945,0,1444332220062,1444332220551,361,424,0,0,0,2,3,1,23,0002-00-0007-45.png,0003-00-0009-20.png
14,946,0,1444332220585,1444332221189,889,470,0,0,0,5,4,1,54,0001-00-0000-80.png,0005-00-0005-36.png
14,947,0,1444332221209,1444332222427,873,343,0,0,0,4,3,1,43,0005-00-0006-53.png,0003-00-0007-45.png
14,948,1,1444332222459,1444332223600,902,451,0,0,0,5,4,1,54,0001-00-0007-19.png,0005-00-0001-15.png
14,949,0,1444332223634,1444332224144,393,435,0,0,0,3,2,1,32,0003-00-0009-01.png,0002-00-0001-07.png
14,950,1,1444332224171,1444332224475,369,409,0,0,0,3,4,1,34,0003-00-0002-15.png,0005-00-0000-55.png
14,951,1,1444332224501,1444332224877,390,502,0,0,0,1,2,1,12,0004-00-0006-24.png,0002-00-0009-69.png
14,952,1,1444332224907,1444332225628,354,448,0,0,0,2,1,1,21,0002-00-0008-35.png,0004-00-0003-26.png
14,953,1,1444332225665,1444332226024,406,530,0,0,0,4,3,1,43,0005-00-0006-94.png,0003-00-0002-63.png
14,954,0,1444332226055,1444332226772,427,517,0,0,0,2,1,1,21,0002-00-0002-41.png,0004-00-0002-71.png
14,955,1,1444332226799,1444332227175,889,464,0,0,0,2,3,1,23,0002-00-0006-49.png,0003-00-0002-46.png
14,956,1,1444332227200,1444332227564,875,390,0,0,0,5,4,1,54,0001-00-0008-74.png,0005-00-0005-85.png
14,957,1,1444332227599,1444332228008,958,488,0,0,0,3,4,1,34,0003-00-0005-79.png,0005-00-0003-24.png
14,958,1,1444332228035,1444332229261,404,362,0,0,0,5,4,1,54,0001-00-0001-94.png,0005-00-0006-84.png
14,959,1,1444332229293,1444332229974,309,417,0,0,0,1,2,1,12,0004-00-0004-90.png,0002-00-0001-46.png
14,960,1,1444332230017,1444332230330,391,509,0,0,0,3,2,1,32,0003-00-0006-07.png,0002-00-0005-44.png
14,961,0,1444332230350,1444332230846,369,402,0,0,0,2,1,1,21,0002-00-0002-33.png,0004-00-0006-87.png
14,962,0,1444332230888,1444332231672,353,416,0,0,0,3,4,1,34,0003-00-0006-71.png,0005-00-0008-20.png
14,963,0,1444332231708,1444332232154,401,410,0,0,0,3,2,1,32,0003-00-0003-25.png,0002-00-0009-52.png
14,964,1,1444332232178,1444332232544,423,536,0,0,0,1,2,1,12,0004-00-0008-59.png,0002-00-0000-58.png
14,965,1,1444332232576,1444332232807,350,450,0,0,0,5,4,1,54,0001-00-0007-08.png,0005-00-0007-12.png
14,966,0,1444332232831,1444332233213,900,461,0,0,0,2,3,1,23,0002-00-0005-35.png,0003-00-0007-26.png
14,967,0,1444332233242,1444332233733,907,391,0,0,0,5,4,1,54,0001-00-0008-25.png,0005-00-0000-13.png
14,968,1,1444332233752,1444332234847,925,464,0,0,0,4,3,1,43,0005-00-0008-10.png,0003-00-0009-16.png
14,969,0,1444332234869,1444332235138,400,549,0,0,0,1,2,1,12,0004-00-0009-10.png,0002-00-0009-59.png
14,970,0,1444332235180,1444332235519,362,428,0,0,0,3,4,1,34,0003-00-0009-92.png,0005-00-0002-93.png
14,971,1,1444332235540,1444332235930,339,445,0,0,0,2,1,1,21,0002-00-0004-60.png,0004-00-0001-22.png
14,972,1,1444332235959,1444332236335,355,396,0,0,0,2,3,1,23,0002-00-0008-93.png,0003-00-0001-99.png
14,973,1,1444332236367,1444332236788,401,423,0,0,0,5,4,1,54,0001-00-0000-55.png,0005-00-0008-29.png
14,974,1,1444332236814,1444332237787,878,363,0,0,0,4,3,1,43,0005-00-0001-18.png,0003-00-0004-53.png
14,975,1,1444332237815,1444332238441,431,546,0,0,0,3,2,1,32,0003-00-0004-75.png,0002-00-0002-08.png
14,976,1,1444332238500,1444332238805,899,298,0,0,0,5,4,1,54,0001-00-0007-59.png,0005-00-0007-50.png
14,977,0,1444332238833,1444332239238,948,426,0,0,0,4,3,1,43,0005-00-0005-89.png,0003-00-0003-28.png
14,978,0,1444332239265,1444332239510,344,427,0,0,0,5,4,1,54,0001-00-0003-06.png,0005-00-0001-12.png
14,979,0,1444332239541,1444332239999,903,428,0,0,0,1,2,1,12,0004-00-0006-56.png,0002-00-0000-78.png
14,980,1,1444332240025,1444332241045,869,340,0,0,0,2,1,1,21,0002-00-0009-76.png,0004-00-0006-85.png
14,981,1,1444332241086,1444332242048,410,393,0,0,0,3,4,1,34,0003-00-0005-90.png,0005-00-0009-86.png
14,982,0,1444332242074,1444332242247,871,368,0,0,0,3,2,1,32,0003-00-0000-04.png,0002-00-0007-04.png
14,983,1,1444332242278,1444332243180,426,411,0,0,0,5,4,1,54,0001-00-0008-94.png,0005-00-0000-25.png
14,984,0,1444332243204,1444332243629,862,358,0,0,0,2,3,1,23,0002-00-0006-84.png,0003-00-0000-26.png
14,985,1,1444332243661,1444332243994,918,404,0,0,0,3,4,1,34,0003-00-0007-37.png,0005-00-0001-90.png
14,986,1,1444332244028,1444332244460,915,401,0,0,0,2,1,1,21,0002-00-0004-46.png,0004-00-0005-32.png
14,987,0,1444332244476,1444332244733,930,480,0,0,0,3,2,1,32,0003-00-0008-02.png,0002-00-0007-21.png
14,988,0,1444332244782,1444332245283,921,445,0,0,0,5,4,1,54,0001-00-0004-08.png,0005-00-0004-41.png
14,989,0,1444332245313,1444332245865,326,378,0,0,0,4,3,1,43,0005-00-0007-76.png,0003-00-0009-83.png
