subject_id,trial,correct_response,stim_time,response_time,x_coord,y_coord,trial_timeout,timeout_time,interTrial_timeout,left_rank,right_rank,distance,joint_rank,left_image,right_image
14,1,0,1443629520023,1443629520422,391,368,0,0,0,4,3,2,13,0005-00-0009-00.png,0003-00-0006-23.png
14,2,1,1443629520452,1443629521157,952,437,0,0,0,1,2,3,41,0004-00-0009-49.png,0002-00-0009-99.png
14,3,0,1443629521187,1443629521452,956,428,0,0,0,3,4,1,32,0003-00-0008-18.png,0005-00-0008-73.png
14,4,1,1443629521492,1443629522455,874,371,0,0,0,5,4,3,14,0001-00-0009-76.png,0005-00-0001-83.png
14,5,0,1443629522483,1443629522841,867,377,0,0,0,3,2,3,25,0003-00-0006-80.png,0002-00-0000-67.png
14,6,1,1443629522875,1443629523889,862,371,0,0,0,5,4,3,52,0001-00-0000-05.png,0005-00-0001-39.png
14,7,0,1443629523920,1443629524376,939,476,0,0,0,2,3,1,23,0002-00-0008-49.png,0003-00-0006-02.png
14,8,0,1443629524399,1443629525053,311,372,0,0,0,2,1,2,31,0002-00-0000-21.png,0004-00-0005-51.png
14,9,1,1443629525086,1443629525576,191,439,0,0,0,2,3,1,23,0002-00-0005-63.png,0003-00-0006-87.png
14,10,1,1443629525601,1443629526157,950,449,0,0,0,2,1,3,41,0002-00-0005-23.png,0004-00-0003-13.png
14,11,1,1443629526186,1443629526481,929,417,0,0,0,3,2,2,13,0003-00-0002-07.png,0002-00-0005-72.png
14,12,0,1443629526513,1443629527449,908,491,0,0,0,5,4,1,32,0001-00-0009-85.png,0005-00-0009-76.png
14,13,0,1443629527488,1443629528187,348,361,0,0,0,1,2,3,14,0004-00-0005-55.png,0002-00-0007-08.png
14,14,1,1443629528219,1443629528901,958,463,0,0,0,3,4,3,25,0003-00-0009-60.png,0005-00-0001-54.png
14,15,1,1443629528931,1443629529261,925,449,0,0,0,4,3,2,31,0005-00-0004-69.png,0003-00-0002-61.png
14,16,0,1443629529284,1443629529905,930,453,0,0,0,5,4,3,52,0001-00-0006-91.png,0005-00-0004-99.png
14,17,0,1443629529935,1443629530497,965,410,0,0,0,5,4,1,32,0001-00-0003-64.png,0005-00-0001-23.png
14,18,1,1443629530520,1443629530972,891,340,0,0,0,4,3,3,52,0005-00-0007-79.png,0003-00-0003-28.png
14,19,0,1443629530998,1443629531878,951,397,0,0,0,3,4,2,31,0003-00-0003-58.png,0005-00-0003-75.png
14,20,0,1443629531901,1443629532229,871,364,0,0,0,3,2,3,25,0003-00-0001-59.png,0002-00-0004-05.png
14,21,1,1443629532255,1443629532846,230,478,0,0,0,1,2,3,14,0004-00-0005-50.png,0002-00-0008-15.png
14,22,0,1443629532865,1443629533210,930,389,0,0,0,2,3,3,41,0002-00-0008-05.png,0003-00-0001-45.png
14,23,0,1443629533232,1443629533462,248,371,0,0,0,5,4,1,23,0001-00-0004-75.png,0005-00-0001-84.png
14,24,1,1443629533492,1443629533813,350,370,0,0,0,2,1,2,13,0002-00-0001-46.png,0004-00-0007-70.png
14,25,0,1443629533854,1443629534355,900,373,0,0,0,5,4,3,41,0001-00-0000-32.png,0005-00-0000-32.png
14,26,1,1443629534381,1443629535009,478,436,0,0,0,5,4,2,31,0001-00-0006-95.png,0005-00-0004-52.png
14,27,0,1443629535051,1443629535655,904,466,0,0,0,2,3,3,52,0002-00-0008-17.png,0003-00-0003-00.png
14,28,0,1443629535686,1443629536055,871,348,0,0,0,2,1,3,14,0002-00-0009-79.png,0004-00-0005-43.png
14,29,1,1443629536079,1443629536472,504,488,0,0,0,4,3,1,32,0005-00-0000-34.png,0003-00-0002-00.png
14,30,1,1443629536508,1443629537128,286,359,0,0,0,3,4,3,25,0003-00-0002-96.png,0005-00-0003-68.png
14,31,0,1443629537163,1443629537849,928,444,0,0,0,1,2,1,23,0004-00-0001-93.png,0002-00-0006-73.png
14,32,1,1443629537886,1443629538282,932,434,0,0,0,3,2,2,13,0003-00-0001-30.png,0002-00-0002-54.png
14,33,0,1443629538306,1443629538767,883,317,0,0,0,5,4,2,31,0001-00-0000-51.png,0005-00-0009-19.png
14,34,0,1443629538791,1443629539347,348,347,0,0,0,2,1,2,13,0002-00-0000-31.png,0004-00-0003-16.png
14,35,1,1443629539380,1443629540001,342,386,0,0,0,3,4,1,23,0003-00-0004-38.png,0005-00-0008-54.png
14,36,1,1443629540023,1443629540647,899,329,0,0,0,5,4,1,32,0001-00-0007-69.png,0005-00-0001-55.png
14,37,1,1443629540688,1443629541135,369,453,0,0,0,3,2,3,25,0003-00-0004-36.png,0002-00-0006-69.png
14,38,1,1443629541162,1443629542533,376,345,0,0,0,1,2,3,41,0004-00-0003-94.png,0002-00-0009-41.png
14,39,0,1443629542569,1443629542916,874,371,0,0,0,4,3,3,14,0005-00-0005-59.png,0003-00-0004-66.png
14,40,1,1443629542954,1443629543892,934,473,0,0,0,2,3,3,52,0002-00-0006-93.png,0003-00-0006-91.png
14,41,0,1443629543923,1443629544499,339,397,0,0,0,2,1,3,52,0002-00-0008-73.png,0004-00-0001-85.png
14,42,0,1443629544540,1443629545297,416,466,0,0,0,1,2,3,14,0004-00-0007-71.png,0002-00-0000-82.png
14,43,1,1443629545340,1443629546118,438,482,0,0,0,5,4,3,25,0001-00-0006-18.png,0005-00-0006-27.png
14,44,0,1443629546144,1443629546305,975,484,0,0,0,2,3,2,31,0002-00-0001-86.png,0003-00-0003-95.png
14,45,0,1443629546350,1443629546544,913,371,0,0,0,3,2,2,13,0003-00-0001-40.png,0002-00-0000-11.png
14,46,0,1443629546573,1443629546853,337,417,0,0,0,4,3,1,23,0005-00-0006-78.png,0003-00-0004-45.png
14,47,1,1443629546890,1443629547665,964,345,0,0,0,3,4,3,41,0003-00-0006-48.png,0005-00-0002-90.png
14,48,1,1443629547693,1443629547923,893,332,0,0,0,5,4,1,32,0001-00-0000-87.png,0005-00-0007-02.png
14,49,1,1443629547949,1443629548258,347,386,0,0,0,3,4,1,23,0003-00-0001-14.png,0005-00-0008-28.png
14,50,1,1443629548308,1443629548744,939,372,0,0,0,3,2,3,14,0003-00-0003-87.png,0002-00-0009-88.png
14,51,0,1443629548802,1443629549085,957,393,0,0,0,5,4,1,32,0001-00-0009-54.png,0005-00-0005-91.png
14,52,1,1443629549107,1443629550407,873,358,0,0,0,5,4,3,41,0001-00-0006-93.png,0005-00-0005-65.png
14,53,0,1443629550445,1443629550742,924,413,0,0,0,2,3,2,13,0002-00-0009-15.png,0003-00-0002-64.png
14,54,0,1443629550770,1443629551480,938,442,0,0,0,2,1,3,52,0002-00-0004-95.png,0004-00-0007-51.png
14,55,0,1443629551510,1443629551703,401,332,0,0,0,4,3,3,25,0005-00-0002-74.png,0003-00-0003-18.png
14,56,0,1443629551729,1443629552665,945,371,0,0,0,1,2,2,31,0004-00-0009-11.png,0002-00-0009-02.png
14,57,0,1443629552693,1443629553049,339,379,0,0,0,3,2,1,23,0003-00-0001-02.png,0002-00-0001-94.png
14,58,1,1443629553075,1443629553565,874,358,0,0,0,2,3,2,31,0002-00-0000-36.png,0003-00-0001-29.png
14,59,1,1443629553596,1443629554111,499,442,0,0,0,5,4,3,14,0001-00-0004-18.png,0005-00-0006-19.png
14,60,0,1443629554136,1443629554561,325,332,0,0,0,2,1,3,25,0002-00-0005-78.png,0004-00-0005-73.png
14,61,0,1443629554593,1443629554889,861,341,0,0,0,1,2,3,52,0004-00-0001-10.png,0002-00-0005-41.png
14,62,0,1443629554925,1443629555756,314,384,0,0,0,5,4,2,13,0001-00-0002-83.png,0005-00-0000-72.png
14,63,0,1443629555786,1443629556888,347,385,0,0,0,4,3,3,41,0005-00-0008-10.png,0003-00-0008-26.png
14,64,0,1443629556915,1443629558013,391,409,0,0,0,3,4,1,32,0003-00-0004-89.png,0005-00-0009-19.png
14,65,1,1443629558036,1443629558743,919,417,0,0,0,3,4,2,31,0003-00-0002-76.png,0005-00-0009-75.png
14,66,1,1443629558771,1443629559674,478,472,0,0,0,2,3,3,41,0002-00-0008-51.png,0003-00-0009-24.png
14,67,1,1443629559704,1443629559833,401,306,0,0,0,1,2,1,23,0004-00-0000-68.png,0002-00-0000-59.png
14,68,1,1443629559877,1443629560333,921,445,0,0,0,3,2,3,52,0003-00-0006-36.png,0002-00-0000-69.png
14,69,1,1443629560359,1443629560498,293,373,0,0,0,5,4,3,25,0001-00-0001-53.png,0005-00-0001-03.png
14,70,1,1443629560530,1443629560796,320,363,0,0,0,4,3,2,13,0005-00-0003-73.png,0003-00-0001-40.png
14,71,1,1443629560816,1443629561160,289,364,0,0,0,5,4,3,14,0001-00-0007-91.png,0005-00-0004-82.png
14,72,0,1443629561186,1443629561403,919,390,0,0,0,2,1,1,32,0002-00-0004-64.png,0004-00-0009-34.png
14,73,0,1443629561433,1443629561902,316,418,0,0,0,3,4,3,14,0003-00-0009-41.png,0005-00-0005-06.png
14,74,1,1443629561930,1443629562423,376,358,0,0,0,2,3,1,23,0002-00-0009-14.png,0003-00-0002-44.png
14,75,1,1443629562447,1443629562853,902,479,0,0,0,5,4,3,41,0001-00-0003-32.png,0005-00-0004-15.png
14,76,1,1443629562877,1443629563257,926,371,0,0,0,4,3,2,13,0005-00-0001-58.png,0003-00-0009-16.png
14,77,0,1443629563281,1443629563620,966,422,0,0,0,3,2,1,32,0003-00-0008-17.png,0002-00-0003-70.png
14,78,1,1443629563645,1443629564229,288,384,0,0,0,5,4,3,25,0001-00-0004-87.png,0005-00-0001-32.png
14,79,1,1443629564255,1443629564561,898,456,0,0,0,2,1,3,52,0002-00-0005-78.png,0004-00-0001-67.png
14,80,1,1443629564589,1443629564963,939,372,0,0,0,1,2,2,31,0004-00-0008-25.png,0002-00-0009-94.png
14,81,1,1443629565000,1443629566033,891,387,0,0,0,3,4,2,31,0003-00-0004-83.png,0005-00-0006-70.png
14,82,0,1443629566062,1443629566370,376,358,0,0,0,5,4,2,13,0001-00-0004-20.png,0005-00-0008-95.png
14,83,0,1443629566395,1443629566622,914,464,0,0,0,3,2,1,32,0003-00-0008-83.png,0002-00-0006-42.png
14,84,1,1443629566662,1443629567275,350,359,0,0,0,2,3,3,14,0002-00-0009-17.png,0003-00-0005-62.png
14,85,1,1443629567314,1443629567571,311,371,0,0,0,4,3,1,23,0005-00-0004-91.png,0003-00-0005-32.png
14,86,1,1443629567599,1443629567809,318,399,0,0,0,2,1,3,52,0002-00-0004-46.png,0004-00-0002-14.png
14,87,0,1443629567843,1443629568340,943,392,0,0,0,5,4,3,25,0001-00-0003-12.png,0005-00-0006-04.png
14,88,1,1443629568372,1443629568861,920,345,0,0,0,1,2,3,41,0004-00-0007-16.png,0002-00-0008-65.png
14,89,0,1443629568890,1443629569221,949,462,0,0,0,2,3,1,32,0002-00-0008-21.png,0003-00-0003-92.png
14,90,1,1443629569250,1443629570353,875,476,0,0,0,4,3,3,25,0005-00-0000-71.png,0003-00-0007-23.png
14,91,1,1443629570391,1443629570621,949,340,0,0,0,5,4,3,52,0001-00-0001-26.png,0005-00-0001-03.png
14,92,0,1443629570641,1443629572091,963,370,0,0,0,2,1,2,31,0002-00-0004-47.png,0004-00-0001-68.png
14,93,0,1443629572117,1443629573167,319,370,0,0,0,5,4,2,13,0001-00-0007-30.png,0005-00-0006-67.png
14,94,1,1443629573197,1443629573704,926,351,0,0,0,1,2,1,23,0004-00-0004-51.png,0002-00-0004-25.png
14,95,1,1443629573725,1443629573982,322,319,0,0,0,3,4,3,14,0003-00-0005-13.png,0005-00-0004-26.png
14,96,1,1443629574006,1443629574437,914,449,0,0,0,3,2,3,41,0003-00-0009-85.png,0002-00-0004-91.png
14,97,0,1443629574461,1443629574905,952,384,0,0,0,3,2,2,13,0003-00-0003-57.png,0002-00-0004-92.png
14,98,0,1443629574928,1443629575139,411,439,0,0,0,2,1,3,25,0002-00-0006-34.png,0004-00-0004-43.png
14,99,1,1443629575169,1443629575521,323,376,0,0,0,2,3,1,23,0002-00-0001-08.png,0003-00-0000-60.png
14,100,1,1443629575551,1443629575822,912,488,0,0,0,1,2,3,41,0004-00-0004-71.png,0002-00-0000-22.png
14,101,1,1443629575859,1443629576174,870,315,0,0,0,5,4,1,32,0001-00-0003-86.png,0005-00-0008-81.png
14,102,0,1443629576205,1443629576814,324,384,0,0,0,5,4,3,52,0001-00-0005-26.png,0005-00-0000-19.png
14,103,0,1443629576853,1443629577339,909,487,0,0,0,3,4,3,14,0003-00-0008-26.png,0005-00-0003-92.png
14,104,0,1443629577373,1443629578052,368,443,0,0,0,4,3,2,31,0005-00-0004-80.png,0003-00-0000-10.png
14,105,1,1443629578077,1443629578241,911,424,0,0,0,5,4,3,25,0001-00-0007-21.png,0005-00-0000-05.png
14,106,1,1443629578264,1443629578798,958,313,0,0,0,1,2,1,32,0004-00-0006-78.png,0002-00-0002-68.png
14,107,0,1443629578814,1443629579406,331,372,0,0,0,5,4,2,13,0001-00-0006-60.png,0005-00-0007-34.png
14,108,1,1443629579427,1443629579887,948,460,0,0,0,4,3,3,41,0005-00-0001-31.png,0003-00-0004-69.png
14,109,1,1443629579916,1443629580421,915,435,0,0,0,2,1,3,14,0002-00-0003-92.png,0004-00-0007-93.png
14,110,0,1443629580464,1443629580979,863,382,0,0,0,3,4,3,52,0003-00-0008-88.png,0005-00-0001-59.png
14,111,1,1443629581014,1443629581868,895,360,0,0,0,3,2,2,31,0003-00-0007-40.png,0002-00-0009-15.png
14,112,0,1443629581900,1443629582128,394,453,0,0,0,2,3,1,23,0002-00-0004-40.png,0003-00-0001-89.png
14,113,1,1443629582150,1443629582457,948,454,0,0,0,2,1,3,41,0002-00-0007-40.png,0004-00-0005-63.png
14,114,1,1443629582483,1443629582771,412,480,0,0,0,5,4,3,14,0001-00-0009-00.png,0005-00-0002-57.png
14,115,0,1443629582806,1443629583240,338,372,0,0,0,3,4,3,25,0003-00-0009-61.png,0005-00-0006-60.png
14,116,0,1443629583267,1443629583507,899,306,0,0,0,3,2,3,52,0003-00-0001-23.png,0002-00-0007-42.png
14,117,1,1443629583542,1443629583750,409,393,0,0,0,2,3,2,31,0002-00-0002-44.png,0003-00-0006-90.png
14,118,1,1443629583788,1443629584220,273,383,0,0,0,1,2,1,23,0004-00-0002-82.png,0002-00-0004-70.png
14,119,1,1443629584272,1443629584852,375,460,0,0,0,4,3,2,13,0005-00-0000-09.png,0003-00-0001-83.png
14,120,0,1443629584879,1443629585357,947,472,0,0,0,5,4,1,32,0001-00-0002-40.png,0005-00-0000-94.png
14,121,1,1443629585377,1443629585669,289,363,0,0,0,2,1,1,23,0002-00-0007-54.png,0004-00-0001-89.png
14,122,1,1443629585696,1443629586272,292,394,0,0,0,3,2,3,25,0003-00-0008-00.png,0002-00-0002-15.png
14,123,1,1443629586304,1443629586523,937,347,0,0,0,5,4,2,13,0001-00-0004-41.png,0005-00-0000-13.png
14,124,0,1443629586550,1443629588045,346,445,0,0,0,5,4,2,31,0001-00-0008-00.png,0005-00-0009-49.png
14,125,1,1443629588090,1443629588538,917,429,0,0,0,2,3,3,14,0002-00-0003-80.png,0003-00-0006-40.png
14,126,1,1443629588561,1443629588842,310,395,0,0,0,4,3,3,41,0005-00-0007-48.png,0003-00-0005-62.png
14,127,1,1443629588874,1443629589443,920,513,0,0,0,3,4,1,32,0003-00-0009-52.png,0005-00-0009-97.png
14,128,0,1443629589477,1443629589916,939,449,0,0,0,1,2,3,52,0004-00-0002-92.png,0002-00-0005-23.png
14,129,1,1443629589950,1443629590263,296,376,0,0,0,2,1,1,23,0002-00-0001-09.png,0004-00-0001-49.png
14,130,1,1443629590313,1443629591632,921,470,0,0,0,3,2,2,13,0003-00-0008-05.png,0002-00-0004-31.png
14,131,1,1443629591674,1443629592305,407,364,0,0,0,5,4,2,31,0001-00-0000-10.png,0005-00-0004-81.png
14,132,1,1443629592336,1443629592622,867,388,0,0,0,4,3,3,14,0005-00-0003-20.png,0003-00-0003-93.png
14,133,1,1443629592639,1443629593675,971,345,0,0,0,5,4,3,52,0001-00-0009-70.png,0005-00-0006-90.png
14,134,1,1443629593711,1443629594203,390,462,0,0,0,1,2,3,25,0004-00-0004-79.png,0002-00-0000-61.png
14,135,0,1443629594224,1443629594556,931,472,0,0,0,3,4,1,32,0003-00-0005-35.png,0005-00-0005-85.png
14,136,0,1443629594575,1443629595000,343,372,0,0,0,2,3,3,41,0002-00-0005-85.png,0003-00-0006-16.png
14,137,1,1443629595047,1443629596063,967,365,0,0,0,4,3,1,32,0005-00-0003-77.png,0003-00-0005-12.png
14,138,0,1443629596093,1443629596505,318,365,0,0,0,3,2,2,13,0003-00-0003-47.png,0002-00-0007-43.png
14,139,1,1443629596523,1443629597147,973,420,0,0,0,3,4,3,14,0003-00-0001-84.png,0005-00-0005-34.png
14,140,1,1443629597187,1443629598038,313,357,0,0,0,1,2,3,41,0004-00-0006-09.png,0002-00-0008-28.png
14,141,1,1443629598074,1443629598704,382,447,0,0,0,5,4,1,23,0001-00-0005-74.png,0005-00-0001-89.png
14,142,0,1443629598724,1443629599987,929,391,0,0,0,2,1,3,52,0002-00-0004-95.png,0004-00-0003-74.png
14,143,0,1443629600037,1443629601432,951,360,0,0,0,5,4,2,31,0001-00-0007-61.png,0005-00-0009-98.png
14,144,1,1443629601454,1443629601996,337,371,0,0,0,2,3,3,25,0002-00-0004-33.png,0003-00-0005-41.png
14,145,0,1443629602019,1443629602349,401,396,0,0,0,1,2,2,13,0004-00-0006-60.png,0002-00-0001-76.png
14,146,1,1443629602378,1443629602916,913,398,0,0,0,2,1,2,31,0002-00-0001-95.png,0004-00-0006-61.png
14,147,0,1443629602939,1443629603539,344,378,0,0,0,4,3,3,25,0005-00-0000-35.png,0003-00-0002-89.png
14,148,0,1443629603564,1443629604307,866,355,0,0,0,5,4,3,14,0001-00-0008-34.png,0005-00-0006-88.png
14,149,0,1443629604346,1443629605195,965,429,0,0,0,5,4,3,41,0001-00-0002-01.png,0005-00-0006-42.png
14,150,0,1443629605228,1443629606750,370,401,0,0,0,3,2,1,23,0003-00-0009-75.png,0002-00-0003-78.png
14,151,1,1443629606770,1443629606920,926,383,0,0,0,2,3,1,32,0002-00-0005-91.png,0003-00-0002-90.png
14,152,0,1443629606942,1443629607369,881,296,0,0,0,3,4,3,52,0003-00-0007-34.png,0005-00-0001-38.png
14,153,0,1443629607398,1443629607750,335,355,0,0,0,5,4,3,25,0001-00-0007-46.png,0005-00-0006-24.png
14,154,0,1443629607792,1443629607993,959,334,0,0,0,2,1,1,32,0002-00-0006-44.png,0004-00-0000-22.png
14,155,1,1443629608028,1443629608711,308,345,0,0,0,2,3,3,14,0002-00-0002-52.png,0003-00-0000-30.png
14,156,0,1443629608740,1443629609073,350,358,0,0,0,3,2,1,23,0003-00-0008-76.png,0002-00-0001-37.png
14,157,1,1443629609106,1443629609706,419,459,0,0,0,5,4,3,41,0001-00-0008-07.png,0005-00-0002-95.png
14,158,1,1443629609732,1443629611309,518,257,0,0,0,4,3,3,52,0005-00-0009-60.png,0003-00-0001-70.png
14,159,0,1443629611343,1443629611836,458,388,0,0,0,3,4,2,31,0003-00-0000-38.png,0005-00-0003-91.png
14,160,1,1443629611863,1443629612268,499,389,0,0,0,1,2,2,13,0004-00-0009-64.png,0002-00-0007-73.png
14,161,1,1443629612297,1443629613010,500,411,0,0,0,2,3,3,14,0002-00-0008-69.png,0003-00-0004-03.png
14,162,1,1443629613034,1443629613559,516,436,0,0,0,5,4,3,41,0001-00-0001-75.png,0005-00-0005-89.png
14,163,1,1443629613608,1443629614012,376,397,0,0,0,2,1,3,25,0002-00-0001-05.png,0004-00-0003-56.png
14,164,1,1443629614034,1443629615388,519,421,0,0,0,1,2,1,23,0004-00-0007-90.png,0002-00-0007-35.png
14,165,1,1443629615418,1443629616019,347,459,0,0,0,4,3,2,31,0005-00-0001-89.png,0003-00-0000-05.png
14,166,1,1443629616059,1443629616419,958,378,0,0,0,5,4,1,32,0001-00-0009-64.png,0005-00-0006-55.png
14,167,1,1443629616452,1443629616704,908,355,0,0,0,3,2,2,13,0003-00-0007-48.png,0002-00-0006-58.png
14,168,1,1443629616736,1443629617047,364,308,0,0,0,3,4,3,52,0003-00-0008-93.png,0005-00-0008-15.png
14,169,1,1443629617085,1443629618002,341,416,0,0,0,1,2,1,23,0004-00-0003-23.png,0002-00-0009-04.png
14,170,0,1443629618043,1443629618350,314,386,0,0,0,5,4,3,25,0001-00-0003-21.png,0005-00-0009-70.png
14,171,1,1443629618374,1443629618780,951,410,0,0,0,3,4,3,41,0003-00-0003-84.png,0005-00-0005-05.png
14,172,1,1443629618807,1443629619479,380,457,0,0,0,5,4,2,13,0001-00-0001-04.png,0005-00-0009-85.png
14,173,1,1443629619501,1443629620581,926,461,0,0,0,3,2,1,32,0003-00-0005-11.png,0002-00-0001-92.png
14,174,0,1443629620608,1443629621055,521,455,0,0,0,2,3,3,52,0002-00-0001-54.png,0003-00-0001-26.png
14,175,0,1443629621080,1443629621297,314,363,0,0,0,2,1,3,14,0002-00-0009-30.png,0004-00-0008-19.png
14,176,0,1443629621321,1443629621635,921,458,0,0,0,4,3,2,31,0005-00-0003-88.png,0003-00-0005-87.png
14,177,1,1443629621661,1443629622040,355,377,0,0,0,3,4,1,23,0003-00-0007-42.png,0005-00-0003-89.png
14,178,0,1443629622064,1443629622654,390,475,0,0,0,5,4,3,41,0001-00-0006-04.png,0005-00-0001-68.png
14,179,0,1443629622672,1443629623442,205,437,0,0,0,4,3,3,14,0005-00-0007-96.png,0003-00-0004-99.png
14,180,1,1443629623468,1443629624404,319,368,0,0,0,3,2,3,52,0003-00-0009-64.png,0002-00-0008-68.png
14,181,0,1443629624428,1443629625203,488,449,0,0,0,2,1,1,32,0002-00-0004-50.png,0004-00-0005-51.png
14,182,1,1443629625225,1443629625907,977,397,0,0,0,1,2,2,31,0004-00-0007-48.png,0002-00-0009-53.png
14,183,0,1443629625946,1443629626718,266,347,0,0,0,5,4,3,25,0001-00-0004-96.png,0005-00-0008-27.png
14,184,0,1443629626753,1443629627455,901,411,0,0,0,2,3,2,13,0002-00-0008-34.png,0003-00-0000-58.png
14,185,1,1443629627493,1443629628126,506,384,0,0,0,3,4,3,41,0003-00-0002-71.png,0005-00-0006-40.png
14,186,1,1443629628153,1443629628994,964,434,0,0,0,1,2,3,52,0004-00-0006-79.png,0002-00-0005-14.png
14,187,0,1443629629025,1443629629409,376,384,0,0,0,5,4,2,13,0001-00-0004-21.png,0005-00-0006-88.png
14,188,0,1443629629445,1443629630098,881,328,0,0,0,3,2,1,32,0003-00-0002-18.png,0002-00-0001-73.png
14,189,1,1443629630135,1443629630466,376,371,0,0,0,5,4,3,14,0001-00-0006-90.png,0005-00-0000-42.png
14,190,0,1443629630486,1443629630772,346,363,0,0,0,2,1,1,23,0002-00-0003-72.png,0004-00-0004-24.png
14,191,1,1443629630803,1443629631475,926,345,0,0,0,4,3,2,31,0005-00-0003-18.png,0003-00-0001-74.png
14,192,0,1443629631511,1443629632254,268,363,0,0,0,2,3,3,25,0002-00-0005-87.png,0003-00-0003-37.png
14,193,1,1443629632288,1443629632812,922,475,0,0,0,2,1,3,52,0002-00-0004-99.png,0004-00-0002-58.png
14,194,0,1443629632845,1443629633122,504,462,0,0,0,1,2,3,25,0004-00-0007-49.png,0002-00-0005-78.png
14,195,0,1443629633155,1443629633564,292,376,0,0,0,3,2,1,23,0003-00-0009-88.png,0002-00-0006-79.png
14,196,1,1443629633582,1443629633998,902,385,0,0,0,3,4,2,31,0003-00-0001-57.png,0005-00-0008-76.png
14,197,0,1443629634017,1443629634622,924,383,0,0,0,4,3,1,32,0005-00-0004-02.png,0003-00-0008-99.png
14,198,0,1443629634653,1443629634913,376,390,0,0,0,5,4,2,13,0001-00-0000-69.png,0005-00-0001-97.png
14,199,1,1443629634944,1443629635239,898,475,0,0,0,2,3,3,41,0002-00-0003-98.png,0003-00-0005-29.png
14,200,1,1443629635265,1443629635429,894,408,0,0,0,5,4,3,14,0001-00-0002-80.png,0005-00-0004-95.png
14,201,1,1443629635452,1443629636033,925,447,0,0,0,2,3,2,13,0002-00-0009-41.png,0003-00-0000-70.png
14,202,1,1443629636080,1443629636379,259,348,0,0,0,5,4,1,23,0001-00-0003-38.png,0005-00-0008-61.png
14,203,0,1443629636401,1443629637118,890,289,0,0,0,1,2,3,14,0004-00-0006-26.png,0002-00-0008-50.png
14,204,1,1443629637144,1443629638226,517,550,0,0,0,2,1,3,52,0002-00-0003-01.png,0004-00-0008-71.png
14,205,0,1443629638261,1443629638852,513,522,0,0,0,5,4,3,25,0001-00-0003-93.png,0005-00-0003-74.png
14,206,1,1443629638875,1443629639458,897,336,0,0,0,3,4,2,31,0003-00-0008-34.png,0005-00-0006-17.png
14,207,1,1443629639477,1443629639724,961,368,0,0,0,4,3,1,32,0005-00-0003-82.png,0003-00-0002-78.png
14,208,1,1443629639751,1443629640224,877,351,0,0,0,3,2,3,41,0003-00-0004-77.png,0002-00-0000-30.png
14,209,1,1443629640263,1443629640820,319,373,0,0,0,5,4,3,52,0001-00-0008-40.png,0005-00-0002-50.png
14,210,0,1443629640839,1443629641296,520,409,0,0,0,3,4,3,25,0003-00-0001-18.png,0005-00-0009-68.png
14,211,0,1443629641321,1443629641659,891,427,0,0,0,5,4,3,41,0001-00-0007-56.png,0005-00-0002-42.png
14,212,1,1443629641684,1443629642255,376,358,0,0,0,4,3,3,14,0005-00-0006-19.png,0003-00-0009-62.png
14,213,0,1443629642277,1443629642962,387,358,0,0,0,2,3,1,23,0002-00-0006-55.png,0003-00-0001-98.png
14,214,0,1443629642999,1443629643295,921,420,0,0,0,1,2,1,32,0004-00-0003-13.png,0002-00-0002-68.png
14,215,1,1443629643321,1443629643881,968,458,0,0,0,3,2,2,31,0003-00-0006-98.png,0002-00-0001-22.png
14,216,0,1443629643898,1443629644569,305,350,0,0,0,2,1,2,13,0002-00-0008-58.png,0004-00-0008-21.png
14,217,1,1443629644599,1443629645080,310,374,0,0,0,5,4,1,23,0001-00-0001-40.png,0005-00-0006-40.png
14,218,0,1443629645098,1443629645401,893,404,0,0,0,2,1,3,25,0002-00-0008-91.png,0004-00-0008-31.png
14,219,0,1443629645436,1443629645905,870,297,0,0,0,3,4,2,31,0003-00-0000-27.png,0005-00-0004-03.png
14,220,1,1443629645957,1443629646230,364,490,0,0,0,2,3,2,13,0002-00-0003-44.png,0003-00-0006-46.png
14,221,0,1443629646261,1443629646402,299,358,0,0,0,4,3,3,41,0005-00-0005-46.png,0003-00-0005-94.png
14,222,1,1443629646432,1443629646660,327,353,0,0,0,5,4,3,14,0001-00-0004-38.png,0005-00-0000-62.png
14,223,1,1443629646692,1443629647027,903,350,0,0,0,1,2,3,52,0004-00-0001-55.png,0002-00-0007-03.png
14,224,0,1443629647056,1443629647315,944,430,0,0,0,3,2,1,32,0003-00-0002-68.png,0002-00-0000-96.png
14,225,1,1443629647345,1443629647969,947,367,0,0,0,5,4,1,32,0001-00-0000-96.png,0005-00-0003-45.png
14,226,1,1443629648002,1443629648881,319,348,0,0,0,3,2,3,25,0003-00-0002-70.png,0002-00-0005-71.png
14,227,1,1443629648920,1443629649207,303,350,0,0,0,1,2,3,14,0004-00-0002-01.png,0002-00-0008-47.png
14,228,1,1443629649253,1443629649745,298,398,0,0,0,4,3,3,52,0005-00-0000-45.png,0003-00-0001-33.png
14,229,1,1443629649762,1443629650422,436,473,0,0,0,2,3,2,31,0002-00-0008-87.png,0003-00-0007-31.png
14,230,1,1443629650466,1443629650812,315,388,0,0,0,5,4,3,41,0001-00-0007-56.png,0005-00-0006-57.png
14,231,0,1443629650841,1443629651233,345,467,0,0,0,2,1,2,13,0002-00-0005-03.png,0004-00-0001-87.png
14,232,1,1443629651264,1443629651617,331,359,0,0,0,3,4,1,23,0003-00-0004-16.png,0005-00-0007-87.png
14,233,1,1443629651643,1443629652210,930,349,0,0,0,2,3,3,52,0002-00-0005-25.png,0003-00-0001-61.png
14,234,1,1443629652244,1443629652833,939,346,0,0,0,2,1,2,31,0002-00-0003-58.png,0004-00-0006-20.png
14,235,1,1443629652882,1443629653182,344,356,0,0,0,1,2,2,13,0004-00-0001-56.png,0002-00-0003-94.png
14,236,1,1443629653240,1443629653696,912,346,0,0,0,5,4,3,41,0001-00-0003-16.png,0005-00-0003-57.png
14,237,0,1443629653727,1443629654074,376,358,0,0,0,3,4,3,25,0003-00-0009-10.png,0005-00-0004-71.png
14,238,0,1443629654100,1443629654784,361,314,0,0,0,4,3,1,23,0005-00-0007-94.png,0003-00-0009-92.png
14,239,1,1443629654818,1443629655128,918,440,0,0,0,5,4,1,32,0001-00-0008-90.png,0005-00-0009-99.png
14,240,0,1443629655164,1443629655455,401,350,0,0,0,3,2,3,14,0003-00-0006-70.png,0002-00-0009-23.png
14,241,0,1443629655476,1443629656266,953,452,0,0,0,3,4,1,32,0003-00-0002-43.png,0005-00-0007-19.png
14,242,0,1443629656309,1443629657910,301,374,0,0,0,5,4,3,52,0001-00-0001-99.png,0005-00-0009-25.png
14,243,0,1443629657933,1443629658274,293,347,0,0,0,3,2,3,25,0003-00-0001-65.png,0002-00-0008-76.png
14,244,0,1443629658308,1443629658642,891,404,0,0,0,5,4,3,41,0001-00-0004-96.png,0005-00-0003-59.png
14,245,0,1443629658674,1443629659334,926,429,0,0,0,2,1,2,31,0002-00-0005-52.png,0004-00-0008-43.png
14,246,1,1443629659361,1443629659775,376,359,0,0,0,4,3,3,14,0005-00-0007-14.png,0003-00-0005-87.png
14,247,0,1443629659826,1443629660397,319,373,0,0,0,1,2,1,23,0004-00-0000-59.png,0002-00-0001-78.png
14,248,1,1443629660425,1443629661021,913,476,0,0,0,2,3,2,13,0002-00-0006-14.png,0003-00-0006-53.png
14,249,1,1443629661063,1443629661942,511,480,0,0,0,3,4,2,13,0003-00-0004-07.png,0005-00-0002-64.png
14,250,1,1443629661968,1443629662183,945,449,0,0,0,4,3,1,32,0005-00-0000-29.png,0003-00-0004-65.png
14,251,1,1443629662230,1443629662773,318,347,0,0,0,1,2,3,25,0004-00-0005-12.png,0002-00-0001-11.png
14,252,0,1443629662798,1443629663113,334,440,0,0,0,2,3,2,31,0002-00-0009-48.png,0003-00-0004-31.png
14,253,0,1443629663139,1443629663581,919,451,0,0,0,5,4,3,41,0001-00-0004-63.png,0005-00-0006-38.png
14,254,1,1443629663608,1443629664006,920,391,0,0,0,3,2,3,52,0003-00-0009-51.png,0002-00-0008-49.png
14,255,1,1443629664037,1443629664570,297,397,0,0,0,5,4,1,23,0001-00-0003-60.png,0005-00-0008-77.png
14,256,1,1443629664599,1443629665208,929,349,0,0,0,2,1,3,14,0002-00-0008-53.png,0004-00-0007-70.png
14,257,0,1443629665247,1443629665814,948,419,0,0,0,2,3,3,14,0002-00-0001-87.png,0003-00-0005-24.png
14,258,1,1443629665864,1443629666855,365,429,0,0,0,3,2,1,23,0003-00-0003-28.png,0002-00-0001-18.png
14,259,1,1443629666902,1443629667073,937,346,0,0,0,1,2,3,41,0004-00-0008-84.png,0002-00-0005-68.png
14,260,1,1443629667093,1443629667718,915,455,0,0,0,4,3,2,13,0005-00-0006-02.png,0003-00-0004-47.png
14,261,1,1443629667744,1443629668268,868,389,0,0,0,5,4,3,25,0001-00-0003-78.png,0005-00-0009-75.png
14,262,1,1443629668310,1443629668892,904,400,0,0,0,3,4,2,31,0003-00-0002-83.png,0005-00-0006-47.png
14,263,1,1443629668911,1443629669357,936,455,0,0,0,2,1,1,32,0002-00-0009-40.png,0004-00-0008-56.png
14,264,1,1443629669385,1443629669878,925,381,0,0,0,5,4,3,52,0001-00-0006-03.png,0005-00-0006-48.png
14,265,0,1443629669902,1443629670374,345,359,0,0,0,3,2,1,23,0003-00-0009-87.png,0002-00-0002-60.png
14,266,0,1443629670403,1443629670577,943,369,0,0,0,2,1,2,31,0002-00-0003-67.png,0004-00-0008-02.png
14,267,1,1443629670603,1443629670932,874,318,0,0,0,5,4,3,52,0001-00-0000-04.png,0005-00-0001-49.png
14,268,0,1443629670974,1443629671499,976,411,0,0,0,1,2,3,41,0004-00-0006-01.png,0002-00-0006-25.png
14,269,1,1443629671529,1443629671743,390,438,0,0,0,3,4,2,13,0003-00-0007-30.png,0005-00-0008-99.png
14,270,1,1443629671771,1443629672164,368,392,0,0,0,5,4,1,32,0001-00-0003-63.png,0005-00-0008-79.png
14,271,1,1443629672191,1443629672473,351,413,0,0,0,4,3,3,14,0005-00-0000-52.png,0003-00-0004-43.png
14,272,0,1443629672497,1443629673032,925,449,0,0,0,2,3,3,25,0002-00-0002-68.png,0003-00-0002-94.png
14,273,0,1443629673057,1443629673543,313,322,0,0,0,4,3,1,23,0005-00-0008-14.png,0003-00-0007-82.png
14,274,1,1443629673567,1443629673951,925,495,0,0,0,3,2,3,52,0003-00-0006-09.png,0002-00-0001-59.png
14,275,1,1443629673976,1443629674603,319,395,0,0,0,2,3,2,13,0002-00-0008-44.png,0003-00-0000-80.png
14,276,0,1443629674627,1443629674887,875,344,0,0,0,2,1,3,41,0002-00-0002-13.png,0004-00-0005-97.png
14,277,0,1443629674906,1443629675704,926,384,0,0,0,3,4,2,31,0003-00-0007-67.png,0005-00-0001-37.png
14,278,0,1443629675736,1443629676297,914,476,0,0,0,5,4,1,32,0001-00-0009-98.png,0005-00-0004-13.png
14,279,0,1443629676347,1443629677243,917,402,0,0,0,1,2,3,14,0004-00-0009-65.png,0002-00-0000-77.png
14,280,0,1443629677270,1443629678045,381,363,0,0,0,5,4,3,25,0001-00-0008-15.png,0005-00-0008-51.png
14,281,1,1443629678074,1443629678463,311,384,0,0,0,3,4,2,13,0003-00-0003-69.png,0005-00-0002-35.png
14,282,0,1443629678488,1443629678772,917,378,0,0,0,4,3,2,31,0005-00-0001-25.png,0003-00-0006-23.png
14,283,1,1443629678809,1443629679473,878,480,0,0,0,2,3,3,14,0002-00-0009-75.png,0003-00-0001-01.png
14,284,0,1443629679499,1443629680059,376,332,0,0,0,3,2,1,23,0003-00-0007-42.png,0002-00-0004-05.png
14,285,1,1443629680095,1443629680745,414,473,0,0,0,2,1,1,32,0002-00-0008-77.png,0004-00-0004-02.png
14,286,0,1443629680771,1443629681519,366,457,0,0,0,5,4,3,25,0001-00-0009-01.png,0005-00-0006-26.png
14,287,0,1443629681537,1443629682031,357,338,0,0,0,1,2,3,41,0004-00-0004-11.png,0002-00-0008-50.png
14,288,1,1443629682059,1443629683283,936,473,0,0,0,5,4,3,52,0001-00-0000-13.png,0005-00-0000-33.png
14,289,1,1443629683320,1443629684323,375,332,0,0,0,1,2,3,14,0004-00-0008-43.png,0002-00-0000-69.png
14,290,1,1443629684348,1443629684826,367,440,0,0,0,2,1,2,31,0002-00-0006-33.png,0004-00-0006-52.png
14,291,1,1443629684846,1443629687502,273,345,0,0,0,3,4,3,25,0003-00-0001-47.png,0005-00-0006-36.png
14,292,0,1443629687535,1443629688046,952,472,0,0,0,3,2,1,32,0003-00-0007-31.png,0002-00-0005-52.png
14,293,0,1443629688077,1443629688680,921,407,0,0,0,5,4,3,41,0001-00-0007-30.png,0005-00-0006-74.png
14,294,1,1443629688711,1443629689137,904,368,0,0,0,4,3,2,13,0005-00-0001-65.png,0003-00-0001-06.png
14,295,1,1443629689167,1443629690248,907,390,0,0,0,2,3,3,52,0002-00-0005-03.png,0003-00-0005-16.png
14,296,1,1443629690281,1443629690623,915,337,0,0,0,5,4,1,23,0001-00-0007-37.png,0005-00-0002-97.png
14,297,0,1443629690663,1443629691193,369,479,0,0,0,2,3,3,14,0002-00-0004-81.png,0003-00-0006-85.png
14,298,0,1443629691236,1443629691501,977,385,0,0,0,3,2,3,41,0003-00-0000-64.png,0002-00-0000-33.png
14,299,0,1443629691525,1443629692038,917,413,0,0,0,5,4,1,32,0001-00-0000-05.png,0005-00-0004-17.png
14,300,1,1443629692072,1443629692715,358,361,0,0,0,3,4,3,52,0003-00-0008-61.png,0005-00-0002-02.png
14,301,1,1443629692744,1443629693073,958,364,0,0,0,5,4,3,25,0001-00-0007-70.png,0005-00-0008-04.png
14,302,0,1443629693092,1443629693686,350,345,0,0,0,4,3,1,23,0005-00-0004-06.png,0003-00-0002-24.png
14,303,0,1443629693726,1443629693823,920,400,0,0,0,2,1,2,13,0002-00-0001-62.png,0004-00-0005-63.png
14,304,1,1443629693862,1443629694321,474,406,0,0,0,1,2,2,31,0004-00-0000-30.png,0002-00-0007-73.png
14,305,1,1443629694349,1443629694715,932,363,0,0,0,1,2,2,13,0004-00-0002-73.png,0002-00-0006-26.png
14,306,0,1443629694733,1443629695464,935,363,0,0,0,5,4,3,25,0001-00-0004-46.png,0005-00-0003-29.png
14,307,0,1443629695490,1443629695653,288,341,0,0,0,3,2,3,52,0003-00-0008-00.png,0002-00-0007-43.png
14,308,1,1443629695681,1443629696212,951,457,0,0,0,3,4,3,41,0003-00-0000-69.png,0005-00-0000-37.png
14,309,1,1443629696254,1443629697040,327,375,0,0,0,5,4,3,14,0001-00-0006-85.png,0005-00-0002-53.png
14,310,1,1443629697067,1443629697775,388,390,0,0,0,2,3,2,31,0002-00-0008-41.png,0003-00-0008-92.png
14,311,0,1443629697805,1443629698435,965,429,0,0,0,4,3,1,32,0005-00-0007-97.png,0003-00-0000-40.png
14,312,1,1443629698457,1443629698855,500,438,0,0,0,2,1,1,23,0002-00-0009-32.png,0004-00-0006-14.png
14,313,1,1443629698883,1443629699117,944,484,0,0,0,4,3,3,52,0005-00-0001-77.png,0003-00-0004-26.png
14,314,1,1443629699150,1443629699966,401,358,0,0,0,1,2,2,13,0004-00-0002-50.png,0002-00-0006-17.png
14,315,1,1443629699985,1443629700372,925,482,0,0,0,2,1,1,32,0002-00-0006-48.png,0004-00-0005-16.png
14,316,0,1443629700404,1443629700857,925,412,0,0,0,5,4,3,25,0001-00-0006-03.png,0005-00-0008-36.png
14,317,1,1443629700887,1443629702405,391,444,0,0,0,5,4,2,31,0001-00-0000-12.png,0005-00-0009-41.png
14,318,0,1443629702431,1443629704292,349,371,0,0,0,3,4,3,41,0003-00-0009-29.png,0005-00-0006-65.png
14,319,1,1443629704314,1443629704971,291,358,0,0,0,3,2,3,14,0003-00-0004-45.png,0002-00-0003-48.png
14,320,0,1443629704992,1443629705321,343,355,0,0,0,2,3,1,23,0002-00-0006-64.png,0003-00-0007-26.png
14,321,1,1443629705347,1443629705665,944,472,0,0,0,3,2,3,52,0003-00-0002-88.png,0002-00-0004-25.png
14,322,1,1443629705694,1443629706141,942,467,0,0,0,5,4,1,32,0001-00-0005-05.png,0005-00-0004-49.png
14,323,0,1443629706176,1443629706523,926,423,0,0,0,1,2,3,41,0004-00-0005-68.png,0002-00-0008-00.png
14,324,0,1443629706560,1443629707647,299,397,0,0,0,5,4,1,23,0001-00-0005-39.png,0005-00-0004-45.png
14,325,1,1443629707670,1443629708467,888,475,0,0,0,4,3,2,13,0005-00-0005-79.png,0003-00-0003-34.png
14,326,1,1443629708504,1443629708744,201,466,0,0,0,2,1,3,25,0002-00-0008-13.png,0004-00-0000-66.png
14,327,0,1443629708770,1443629709681,326,380,0,0,0,3,4,3,14,0003-00-0004-79.png,0005-00-0008-61.png
14,328,0,1443629709706,1443629709839,350,394,0,0,0,2,3,2,31,0002-00-0001-80.png,0003-00-0002-27.png
14,329,1,1443629709894,1443629710206,494,422,0,0,0,4,3,3,25,0005-00-0002-10.png,0003-00-0009-75.png
14,330,1,1443629710235,1443629710779,948,464,0,0,0,1,2,1,32,0004-00-0003-42.png,0002-00-0002-57.png
14,331,0,1443629710826,1443629711195,320,394,0,0,0,5,4,3,41,0001-00-0005-34.png,0005-00-0002-60.png
14,332,1,1443629711235,1443629711724,339,371,0,0,0,3,2,1,23,0003-00-0001-36.png,0002-00-0004-92.png
14,333,0,1443629711753,1443629712077,350,333,0,0,0,2,1,3,14,0002-00-0003-04.png,0004-00-0008-35.png
14,334,1,1443629712106,1443629712730,875,332,0,0,0,3,4,3,52,0003-00-0002-73.png,0005-00-0007-25.png
14,335,0,1443629712755,1443629713156,318,391,0,0,0,5,4,2,13,0001-00-0000-11.png,0005-00-0004-99.png
14,336,1,1443629713210,1443629713685,958,473,0,0,0,2,3,2,31,0002-00-0008-41.png,0003-00-0003-65.png
14,337,1,1443629713721,1443629714374,896,480,0,0,0,5,4,1,23,0001-00-0009-58.png,0005-00-0007-09.png
14,338,1,1443629714396,1443629714831,350,306,0,0,0,2,3,3,14,0002-00-0009-95.png,0003-00-0009-08.png
14,339,1,1443629714870,1443629715128,916,402,0,0,0,1,2,3,52,0004-00-0008-43.png,0002-00-0007-47.png
14,340,0,1443629715160,1443629715761,419,404,0,0,0,3,2,3,41,0003-00-0008-06.png,0002-00-0001-62.png
14,341,1,1443629715790,1443629715975,296,393,0,0,0,2,1,3,25,0002-00-0007-20.png,0004-00-0002-41.png
14,342,1,1443629715999,1443629716303,285,424,0,0,0,4,3,2,31,0005-00-0008-81.png,0003-00-0007-76.png
14,343,1,1443629716325,1443629716562,380,467,0,0,0,3,4,1,32,0003-00-0003-66.png,0005-00-0008-69.png
14,344,0,1443629716597,1443629716954,275,390,0,0,0,5,4,2,13,0001-00-0001-58.png,0005-00-0005-41.png
14,345,1,1443629716983,1443629717222,909,413,0,0,0,5,4,3,14,0001-00-0000-79.png,0005-00-0008-01.png
14,346,1,1443629717262,1443629717770,399,382,0,0,0,2,1,3,41,0002-00-0005-61.png,0004-00-0007-71.png
14,347,0,1443629717800,1443629718433,903,492,0,0,0,2,3,2,31,0002-00-0009-41.png,0003-00-0007-91.png
14,348,1,1443629718457,1443629719070,353,382,0,0,0,5,4,1,23,0001-00-0002-27.png,0005-00-0009-06.png
14,349,0,1443629719100,1443629719638,953,470,0,0,0,3,4,3,25,0003-00-0004-99.png,0005-00-0009-66.png
14,350,0,1443629719668,1443629720058,956,426,0,0,0,4,3,2,13,0005-00-0009-93.png,0003-00-0007-04.png
14,351,1,1443629720084,1443629720374,946,438,0,0,0,1,2,3,52,0004-00-0001-46.png,0002-00-0008-19.png
14,352,0,1443629720417,1443629720987,958,459,0,0,0,3,2,1,32,0003-00-0008-86.png,0002-00-0009-87.png
14,353,0,1443629721018,1443629721350,320,385,0,0,0,4,3,3,25,0005-00-0007-69.png,0003-00-0008-93.png
14,354,1,1443629721388,1443629722689,324,377,0,0,0,3,2,2,13,0003-00-0005-58.png,0002-00-0004-82.png
14,355,0,1443629722725,1443629723352,936,347,0,0,0,3,4,3,41,0003-00-0003-56.png,0005-00-0005-32.png
14,356,0,1443629723386,1443629724096,924,437,0,0,0,5,4,3,52,0001-00-0007-32.png,0005-00-0000-37.png
14,357,0,1443629724118,1443629724398,875,345,0,0,0,2,3,1,23,0002-00-0002-50.png,0003-00-0001-10.png
14,358,1,1443629724423,1443629724772,928,453,0,0,0,5,4,1,32,0001-00-0007-27.png,0005-00-0002-83.png
14,359,1,1443629724799,1443629725182,939,475,0,0,0,2,1,3,14,0002-00-0001-89.png,0004-00-0003-81.png
14,360,1,1443629725234,1443629725475,973,419,0,0,0,1,2,2,31,0004-00-0009-60.png,0002-00-0008-27.png
14,361,0,1443629725503,1443629725651,900,514,0,0,0,5,4,2,31,0001-00-0000-29.png,0005-00-0002-57.png
14,362,1,1443629725686,1443629726054,863,305,0,0,0,5,4,3,41,0001-00-0001-70.png,0005-00-0009-70.png
14,363,0,1443629726084,1443629726278,875,346,0,0,0,1,2,1,32,0004-00-0008-73.png,0002-00-0006-14.png
14,364,1,1443629726294,1443629726695,318,373,0,0,0,4,3,2,13,0005-00-0004-64.png,0003-00-0002-60.png
14,365,0,1443629726730,1443629726961,926,384,0,0,0,2,3,3,52,0002-00-0005-21.png,0003-00-0005-76.png
14,366,0,1443629727004,1443629727347,941,460,0,0,0,3,2,3,14,0003-00-0007-31.png,0002-00-0003-05.png
14,367,1,1443629727361,1443629727855,926,449,0,0,0,2,1,3,25,0002-00-0003-19.png,0004-00-0000-39.png
14,368,1,1443629727879,1443629728500,898,410,0,0,0,3,4,1,23,0003-00-0001-96.png,0005-00-0003-13.png
14,369,1,1443629728530,1443629728925,975,457,0,0,0,3,4,3,41,0003-00-0006-93.png,0005-00-0008-64.png
14,370,0,1443629728966,1443629729441,951,345,0,0,0,5,4,3,52,0001-00-0008-06.png,0005-00-0008-77.png
14,371,0,1443629729461,1443629729794,197,465,0,0,0,2,1,2,13,0002-00-0005-03.png,0004-00-0001-28.png
14,372,1,1443629729823,1443629730584,877,415,0,0,0,2,3,3,14,0002-00-0006-20.png,0003-00-0003-88.png
14,373,0,1443629730615,1443629731355,920,492,0,0,0,1,2,3,25,0004-00-0005-75.png,0002-00-0006-61.png
14,374,1,1443629731379,1443629731711,935,464,0,0,0,5,4,2,31,0001-00-0009-13.png,0005-00-0007-73.png
14,375,0,1443629731726,1443629732203,307,366,0,0,0,3,2,1,23,0003-00-0008-03.png,0002-00-0003-46.png
14,376,0,1443629732227,1443629732871,898,486,0,0,0,4,3,1,32,0005-00-0000-93.png,0003-00-0008-63.png
14,377,1,1443629732895,1443629733383,418,468,0,0,0,5,4,2,31,0001-00-0009-71.png,0005-00-0004-34.png
14,378,1,1443629733416,1443629733997,904,413,0,0,0,5,4,3,52,0001-00-0000-58.png,0005-00-0004-51.png
14,379,0,1443629734025,1443629734398,427,358,0,0,0,1,2,2,13,0004-00-0001-63.png,0002-00-0009-77.png
14,380,1,1443629734440,1443629735284,925,470,0,0,0,3,2,3,41,0003-00-0000-19.png,0002-00-0007-40.png
14,381,0,1443629735311,1443629735827,411,484,0,0,0,3,4,3,14,0003-00-0007-23.png,0005-00-0003-66.png
14,382,1,1443629735870,1443629736690,333,418,0,0,0,2,3,1,23,0002-00-0009-11.png,0003-00-0007-26.png
14,383,0,1443629736724,1443629737007,898,482,0,0,0,2,1,3,25,0002-00-0009-75.png,0004-00-0003-47.png
14,384,1,1443629737037,1443629737194,925,449,0,0,0,4,3,1,32,0005-00-0007-67.png,0003-00-0008-26.png
14,385,1,1443629737219,1443629737599,379,348,0,0,0,2,1,1,23,0002-00-0001-43.png,0004-00-0002-57.png
14,386,1,1443629737624,1443629738696,387,398,0,0,0,3,2,3,25,0003-00-0001-89.png,0002-00-0003-55.png
14,387,0,1443629738729,1443629738979,925,387,0,0,0,4,3,1,32,0005-00-0006-85.png,0003-00-0000-41.png
14,388,1,1443629739011,1443629739382,296,391,0,0,0,2,3,2,13,0002-00-0005-52.png,0003-00-0003-10.png
14,389,0,1443629739408,1443629740250,900,406,0,0,0,5,4,3,41,0001-00-0000-28.png,0005-00-0003-21.png
14,390,1,1443629740279,1443629740665,370,414,0,0,0,3,4,3,52,0003-00-0009-85.png,0005-00-0001-87.png
14,391,0,1443629740693,1443629741353,905,455,0,0,0,5,4,3,14,0001-00-0007-28.png,0005-00-0005-47.png
14,392,0,1443629741379,1443629742317,496,454,0,0,0,1,2,2,31,0004-00-0009-56.png,0002-00-0007-69.png
14,393,1,1443629742360,1443629743379,363,446,0,0,0,5,4,3,14,0001-00-0003-79.png,0005-00-0005-33.png
14,394,1,1443629743406,1443629743934,956,453,0,0,0,3,2,1,32,0003-00-0004-09.png,0002-00-0000-61.png
14,395,1,1443629743974,1443629744898,345,393,0,0,0,4,3,3,25,0005-00-0009-26.png,0003-00-0006-63.png
14,396,1,1443629744942,1443629745213,349,363,0,0,0,1,2,2,13,0004-00-0003-14.png,0002-00-0005-02.png
14,397,0,1443629745255,1443629746510,350,332,0,0,0,3,4,2,31,0003-00-0009-55.png,0005-00-0003-93.png
14,398,0,1443629746534,1443629747204,922,420,0,0,0,2,3,3,52,0002-00-0001-40.png,0003-00-0004-37.png
14,399,0,1443629747230,1443629747928,350,373,0,0,0,5,4,1,23,0001-00-0003-24.png,0005-00-0005-96.png
14,400,1,1443629747948,1443629749320,903,434,0,0,0,2,1,3,41,0002-00-0000-67.png,0004-00-0009-26.png
14,401,1,1443629749359,1443629749720,942,447,0,0,0,5,4,3,41,0001-00-0003-92.png,0005-00-0000-87.png
14,402,1,1443629749755,1443629750224,903,454,0,0,0,2,1,3,52,0002-00-0005-84.png,0004-00-0002-97.png
14,403,1,1443629750255,1443629750602,918,403,0,0,0,5,4,1,32,0001-00-0007-57.png,0005-00-0002-82.png
14,404,1,1443629750627,1443629750925,345,410,0,0,0,3,2,3,25,0003-00-0009-64.png,0002-00-0007-71.png
14,405,1,1443629750944,1443629751588,388,494,0,0,0,4,3,1,23,0005-00-0002-22.png,0003-00-0002-82.png
14,406,0,1443629751609,1443629751728,315,413,0,0,0,1,2,3,14,0004-00-0003-91.png,0002-00-0001-20.png
14,407,0,1443629751748,1443629752008,334,375,0,0,0,2,3,2,31,0002-00-0000-54.png,0003-00-0007-63.png
14,408,0,1443629752046,1443629752788,206,469,0,0,0,3,4,2,13,0003-00-0003-56.png,0005-00-0006-20.png
14,409,1,1443629752813,1443629753441,915,449,0,0,0,3,2,2,31,0003-00-0006-16.png,0002-00-0009-58.png
14,410,1,1443629753465,1443629753781,376,358,0,0,0,3,4,2,13,0003-00-0001-50.png,0005-00-0006-03.png
14,411,1,1443629753819,1443629754244,376,358,0,0,0,4,3,3,14,0005-00-0001-67.png,0003-00-0000-92.png
14,412,1,1443629754278,1443629754771,916,417,0,0,0,2,1,1,32,0002-00-0007-23.png,0004-00-0003-57.png
14,413,1,1443629754799,1443629755164,912,373,0,0,0,1,2,3,41,0004-00-0006-36.png,0002-00-0004-67.png
14,414,1,1443629755194,1443629755601,395,479,0,0,0,5,4,1,23,0001-00-0007-87.png,0005-00-0007-49.png
14,415,1,1443629755644,1443629755950,897,443,0,0,0,2,3,3,25,0002-00-0004-71.png,0003-00-0001-77.png
14,416,0,1443629755968,1443629757155,936,474,0,0,0,5,4,3,52,0001-00-0001-52.png,0005-00-0000-94.png
14,417,1,1443629757179,1443629757766,504,451,0,0,0,3,4,2,31,0003-00-0002-55.png,0005-00-0000-53.png
14,418,0,1443629757803,1443629758317,926,402,0,0,0,1,2,3,41,0004-00-0003-85.png,0002-00-0008-86.png
14,419,0,1443629758348,1443629759059,350,384,0,0,0,3,2,1,23,0003-00-0003-71.png,0002-00-0003-22.png
14,420,1,1443629759083,1443629760034,941,443,0,0,0,5,4,1,32,0001-00-0006-92.png,0005-00-0002-23.png
14,421,0,1443629760065,1443629760892,340,469,0,0,0,2,3,3,25,0002-00-0008-66.png,0003-00-0009-08.png
14,422,1,1443629760917,1443629761350,924,456,0,0,0,2,1,3,52,0002-00-0007-80.png,0004-00-0004-87.png
14,423,0,1443629761376,1443629761806,325,358,0,0,0,4,3,3,14,0005-00-0001-24.png,0003-00-0000-81.png
14,424,0,1443629761835,1443629762526,301,350,0,0,0,5,4,2,13,0001-00-0004-91.png,0005-00-0009-28.png
14,425,0,1443629762552,1443629763268,908,416,0,0,0,4,3,3,52,0005-00-0007-01.png,0003-00-0005-52.png
14,426,0,1443629763288,1443629764437,875,397,0,0,0,3,2,3,14,0003-00-0004-90.png,0002-00-0008-62.png
14,427,0,1443629764466,1443629765068,900,449,0,0,0,3,4,1,32,0003-00-0006-26.png,0005-00-0006-13.png
14,428,1,1443629765086,1443629765726,376,358,0,0,0,5,4,2,13,0001-00-0004-37.png,0005-00-0005-89.png
14,429,1,1443629765758,1443629766333,901,490,0,0,0,2,1,2,31,0002-00-0009-05.png,0004-00-0008-60.png
14,430,0,1443629766362,1443629767046,900,397,0,0,0,5,4,3,41,0001-00-0000-09.png,0005-00-0007-49.png
14,431,1,1443629767085,1443629767441,314,388,0,0,0,1,2,3,25,0004-00-0002-78.png,0002-00-0005-36.png
14,432,0,1443629767478,1443629767777,290,402,0,0,0,2,3,1,23,0002-00-0003-23.png,0003-00-0000-13.png
14,433,1,1443629767799,1443629769534,338,426,0,0,0,5,4,3,14,0001-00-0005-89.png,0005-00-0001-02.png
14,434,1,1443629769559,1443629769941,901,461,0,0,0,2,1,1,23,0002-00-0009-76.png,0004-00-0007-82.png
14,435,0,1443629769982,1443629770296,913,463,0,0,0,4,3,3,52,0005-00-0005-37.png,0003-00-0008-16.png
14,436,0,1443629770324,1443629771078,911,399,0,0,0,3,4,3,41,0003-00-0000-12.png,0005-00-0000-02.png
14,437,0,1443629771109,1443629771464,345,369,0,0,0,5,4,2,31,0001-00-0006-82.png,0005-00-0002-62.png
14,438,1,1443629771493,1443629771983,315,392,0,0,0,2,3,2,13,0002-00-0003-58.png,0003-00-0000-67.png
14,439,1,1443629772018,1443629772265,913,476,0,0,0,3,2,1,32,0003-00-0007-40.png,0002-00-0003-87.png
14,440,0,1443629772300,1443629773124,404,483,0,0,0,1,2,3,25,0004-00-0006-70.png,0002-00-0002-74.png
14,441,0,1443629773153,1443629773667,914,489,0,0,0,2,1,3,25,0002-00-0007-07.png,0004-00-0001-92.png
14,442,0,1443629773694,1443629774188,925,360,0,0,0,4,3,2,13,0005-00-0007-27.png,0003-00-0000-60.png
14,443,1,1443629774213,1443629774798,909,455,0,0,0,5,4,2,31,0001-00-0005-58.png,0005-00-0005-08.png
14,444,1,1443629774824,1443629775105,376,375,0,0,0,3,4,1,23,0003-00-0007-03.png,0005-00-0001-75.png
14,445,0,1443629775134,1443629775604,879,453,0,0,0,3,2,3,14,0003-00-0000-74.png,0002-00-0006-03.png
14,446,0,1443629775634,1443629776966,187,456,0,0,0,2,3,3,41,0002-00-0000-71.png,0003-00-0005-22.png
14,447,0,1443629777008,1443629777585,943,439,0,0,0,5,4,1,32,0001-00-0009-58.png,0005-00-0005-30.png
14,448,0,1443629777622,1443629778095,323,440,0,0,0,1,2,3,52,0004-00-0000-60.png,0002-00-0009-77.png
14,449,0,1443629778140,1443629778289,952,332,0,0,0,5,4,1,32,0001-00-0008-31.png,0005-00-0002-74.png
14,450,1,1443629778332,1443629779305,415,476,0,0,0,5,4,2,13,0001-00-0004-58.png,0005-00-0003-94.png
14,451,1,1443629779330,1443629780209,349,399,0,0,0,1,2,3,25,0004-00-0005-81.png,0002-00-0006-90.png
14,452,0,1443629780249,1443629780885,905,402,0,0,0,2,1,2,31,0002-00-0001-06.png,0004-00-0007-12.png
14,453,0,1443629780908,1443629781566,899,463,0,0,0,3,4,3,52,0003-00-0008-71.png,0005-00-0006-27.png
14,454,0,1443629781609,1443629781842,319,368,0,0,0,3,2,1,23,0003-00-0007-40.png,0002-00-0003-53.png
14,455,0,1443629781878,1443629782088,390,490,0,0,0,4,3,3,41,0005-00-0000-79.png,0003-00-0002-74.png
14,456,1,1443629782110,1443629783376,876,443,0,0,0,2,3,3,14,0002-00-0008-66.png,0003-00-0008-12.png
14,457,1,1443629783411,1443629784085,514,379,0,0,0,5,4,1,32,0001-00-0005-04.png,0005-00-0003-37.png
14,458,1,1443629784120,1443629784502,314,342,0,0,0,5,4,3,41,0001-00-0007-61.png,0005-00-0008-15.png
14,459,0,1443629784526,1443629784835,320,416,0,0,0,3,4,2,31,0003-00-0001-04.png,0005-00-0007-76.png
14,460,1,1443629784863,1443629785230,368,428,0,0,0,1,2,3,25,0004-00-0005-68.png,0002-00-0000-53.png
14,461,0,1443629785255,1443629785487,926,358,0,0,0,3,2,3,52,0003-00-0008-68.png,0002-00-0006-68.png
14,462,0,1443629785503,1443629785876,504,451,0,0,0,4,3,3,14,0005-00-0005-97.png,0003-00-0004-60.png
14,463,0,1443629785908,1443629786298,292,366,0,0,0,2,1,1,23,0002-00-0006-17.png,0004-00-0005-06.png
14,464,0,1443629786316,1443629786742,356,375,0,0,0,2,3,2,13,0002-00-0009-19.png,0003-00-0004-64.png
14,465,1,1443629786767,1443629787327,344,373,0,0,0,3,2,3,14,0003-00-0006-07.png,0002-00-0004-23.png
14,466,0,1443629787351,1443629788364,900,449,0,0,0,2,1,3,41,0002-00-0005-07.png,0004-00-0008-62.png
14,467,1,1443629788394,1443629788786,297,396,0,0,0,5,4,3,25,0001-00-0000-77.png,0005-00-0001-24.png
14,468,1,1443629788810,1443629789228,397,486,0,0,0,5,4,2,13,0001-00-0000-41.png,0005-00-0007-59.png
14,469,1,1443629789267,1443629789573,922,484,0,0,0,4,3,1,32,0005-00-0001-28.png,0003-00-0002-95.png
14,470,0,1443629789596,1443629790065,911,493,0,0,0,2,3,2,31,0002-00-0008-06.png,0003-00-0008-21.png
14,471,0,1443629790092,1443629790383,392,467,0,0,0,3,4,1,23,0003-00-0009-95.png,0005-00-0005-01.png
14,472,1,1443629790431,1443629790796,926,488,0,0,0,1,2,3,52,0004-00-0000-49.png,0002-00-0006-10.png
14,473,1,1443629790834,1443629791193,401,503,0,0,0,2,3,2,13,0002-00-0007-13.png,0003-00-0003-33.png
14,474,0,1443629791227,1443629791415,913,408,0,0,0,3,4,2,31,0003-00-0008-31.png,0005-00-0001-58.png
14,475,0,1443629791450,1443629791940,894,456,0,0,0,5,4,1,23,0001-00-0005-42.png,0005-00-0001-62.png
14,476,1,1443629791961,1443629792242,504,410,0,0,0,3,2,3,52,0003-00-0003-00.png,0002-00-0003-77.png
14,477,0,1443629792260,1443629792885,339,394,0,0,0,5,4,3,25,0001-00-0008-66.png,0005-00-0004-79.png
14,478,0,1443629792927,1443629793265,401,358,0,0,0,4,3,3,41,0005-00-0009-17.png,0003-00-0000-79.png
14,479,0,1443629793278,1443629794315,458,446,0,0,0,2,1,1,32,0002-00-0003-87.png,0004-00-0001-50.png
14,480,0,1443629794339,1443629794996,924,431,0,0,0,1,2,3,14,0004-00-0003-86.png,0002-00-0008-06.png
14,481,0,1443629795027,1443629795744,943,415,0,0,0,4,3,3,14,0005-00-0001-22.png,0003-00-0006-67.png
14,482,1,1443629795772,1443629795999,203,417,0,0,0,2,1,3,25,0002-00-0002-61.png,0004-00-0006-13.png
14,483,0,1443629796027,1443629796417,905,460,0,0,0,2,3,2,13,0002-00-0009-72.png,0003-00-0003-13.png
14,484,0,1443629796448,1443629796711,881,461,0,0,0,5,4,2,31,0001-00-0007-49.png,0005-00-0004-57.png
14,485,1,1443629796743,1443629797108,902,385,0,0,0,3,4,3,41,0003-00-0003-42.png,0005-00-0002-43.png
14,486,0,1443629797134,1443629797595,868,487,0,0,0,3,2,1,23,0003-00-0004-82.png,0002-00-0005-56.png
14,487,1,1443629797622,1443629797923,913,441,0,0,0,5,4,1,32,0001-00-0003-56.png,0005-00-0007-21.png
14,488,0,1443629797942,1443629798362,922,445,0,0,0,1,2,3,52,0004-00-0003-47.png,0002-00-0000-20.png
14,489,1,1443629798386,1443629798815,924,509,0,0,0,3,4,2,31,0003-00-0008-55.png,0005-00-0004-02.png
14,490,1,1443629798865,1443629799218,951,346,0,0,0,1,2,3,41,0004-00-0002-39.png,0002-00-0009-81.png
14,491,0,1443629799235,1443629799743,274,393,0,0,0,2,1,1,23,0002-00-0000-99.png,0004-00-0006-17.png
14,492,0,1443629799760,1443629800279,931,386,0,0,0,5,4,1,32,0001-00-0008-18.png,0005-00-0003-10.png
14,493,1,1443629800299,1443629800521,376,477,0,0,0,5,4,3,52,0001-00-0008-83.png,0005-00-0004-27.png
14,494,1,1443629800553,1443629801089,937,372,0,0,0,4,3,2,13,0005-00-0005-03.png,0003-00-0003-33.png
14,495,0,1443629801124,1443629801990,342,323,0,0,0,3,2,3,25,0003-00-0004-76.png,0002-00-0008-50.png
14,496,0,1443629802014,1443629802479,314,385,0,0,0,2,3,3,14,0002-00-0007-02.png,0003-00-0007-99.png
14,497,0,1443629802520,1443629803464,350,344,0,0,0,1,2,2,13,0004-00-0006-05.png,0002-00-0000-24.png
14,498,1,1443629803485,1443629803780,363,449,0,0,0,5,4,3,14,0001-00-0000-64.png,0005-00-0002-97.png
14,499,1,1443629803809,1443629804225,875,416,0,0,0,2,1,3,41,0002-00-0000-99.png,0004-00-0005-11.png
14,500,1,1443629804270,1443629804826,921,400,0,0,0,4,3,3,52,0005-00-0007-34.png,0003-00-0008-17.png
14,501,1,1443629804866,1443629805073,915,449,0,0,0,3,2,2,31,0003-00-0002-47.png,0002-00-0001-31.png
14,502,1,1443629805109,1443629805948,888,424,0,0,0,2,3,1,32,0002-00-0005-73.png,0003-00-0008-67.png
14,503,0,1443629805985,1443629806579,905,366,0,0,0,3,4,3,25,0003-00-0002-36.png,0005-00-0003-80.png
14,504,1,1443629806607,1443629807279,896,413,0,0,0,5,4,1,23,0001-00-0002-79.png,0005-00-0001-01.png
14,505,0,1443629807306,1443629807462,925,424,0,0,0,2,1,1,32,0002-00-0008-87.png,0004-00-0003-70.png
14,506,1,1443629807489,1443629807954,873,474,0,0,0,4,3,1,23,0005-00-0008-78.png,0003-00-0000-04.png
14,507,0,1443629807978,1443629808206,885,438,0,0,0,5,4,3,52,0001-00-0007-57.png,0005-00-0003-20.png
14,508,0,1443629808233,1443629808582,216,491,0,0,0,2,3,3,41,0002-00-0001-70.png,0003-00-0005-84.png
14,509,1,1443629808611,1443629808901,306,374,0,0,0,3,2,3,14,0003-00-0008-58.png,0002-00-0001-10.png
14,510,1,1443629808921,1443629809191,364,407,0,0,0,5,4,3,25,0001-00-0001-51.png,0005-00-0008-99.png
14,511,1,1443629809220,1443629809550,379,377,0,0,0,3,4,2,13,0003-00-0007-57.png,0005-00-0005-92.png
14,512,0,1443629809580,1443629810566,401,358,0,0,0,1,2,2,31,0004-00-0008-77.png,0002-00-0004-19.png
14,513,1,1443629810590,1443629811636,183,514,0,0,0,4,3,2,13,0005-00-0002-67.png,0003-00-0006-15.png
14,514,1,1443629811659,1443629811997,929,429,0,0,0,2,1,1,23,0002-00-0009-64.png,0004-00-0004-63.png
14,515,0,1443629812022,1443629812250,939,397,0,0,0,1,2,3,52,0004-00-0001-24.png,0002-00-0004-20.png
14,516,1,1443629812283,1443629812779,896,446,0,0,0,3,2,3,41,0003-00-0009-17.png,0002-00-0001-90.png
14,517,0,1443629812815,1443629813325,401,358,0,0,0,5,4,3,14,0001-00-0000-77.png,0005-00-0009-34.png
14,518,1,1443629813352,1443629813915,902,361,0,0,0,3,4,1,32,0003-00-0006-95.png,0005-00-0001-12.png
14,519,1,1443629813951,1443629814678,350,358,0,0,0,5,4,2,31,0001-00-0004-75.png,0005-00-0007-62.png
14,520,1,1443629814707,1443629815124,489,399,0,0,0,2,3,3,25,0002-00-0008-20.png,0003-00-0002-00.png
14,521,1,1443629815158,1443629815454,886,508,0,0,0,2,3,1,23,0002-00-0001-95.png,0003-00-0009-11.png
14,522,1,1443629815480,1443629815967,977,359,0,0,0,3,4,3,25,0003-00-0008-30.png,0005-00-0008-53.png
14,523,0,1443629815989,1443629816487,926,385,0,0,0,4,3,2,13,0005-00-0004-36.png,0003-00-0002-26.png
14,524,0,1443629816517,1443629816935,935,368,0,0,0,2,1,3,41,0002-00-0007-47.png,0004-00-0007-57.png
14,525,1,1443629816966,1443629817422,902,400,0,0,0,5,4,3,52,0001-00-0008-61.png,0005-00-0008-54.png
14,526,1,1443629817452,1443629818163,925,463,0,0,0,1,2,1,32,0004-00-0006-17.png,0002-00-0006-48.png
14,527,0,1443629818195,1443629818850,878,439,0,0,0,3,2,2,31,0003-00-0004-16.png,0002-00-0002-09.png
14,528,1,1443629818880,1443629819296,977,371,0,0,0,5,4,3,14,0001-00-0009-29.png,0005-00-0000-83.png
14,529,1,1443629819333,1443629819730,332,378,0,0,0,2,3,2,13,0002-00-0007-38.png,0003-00-0002-00.png
14,530,1,1443629819780,1443629820280,313,416,0,0,0,5,4,3,14,0001-00-0000-49.png,0005-00-0009-81.png
14,531,1,1443629820299,1443629820984,900,384,0,0,0,5,4,3,41,0001-00-0008-72.png,0005-00-0008-07.png
14,532,0,1443629821010,1443629821397,926,397,0,0,0,2,1,1,32,0002-00-0005-51.png,0004-00-0002-95.png
14,533,0,1443629821421,1443629821679,350,370,0,0,0,4,3,1,23,0005-00-0001-69.png,0003-00-0001-30.png
14,534,1,1443629821713,1443629822212,881,401,0,0,0,3,4,2,31,0003-00-0002-09.png,0005-00-0000-76.png
14,535,0,1443629822248,1443629822479,301,384,0,0,0,3,2,3,25,0003-00-0003-62.png,0002-00-0001-76.png
14,536,1,1443629822499,1443629823388,898,457,0,0,0,1,2,3,52,0004-00-0007-94.png,0002-00-0001-60.png
14,537,0,1443629823430,1443629823713,907,379,0,0,0,5,4,3,52,0001-00-0008-11.png,0005-00-0005-89.png
14,538,0,1443629823743,1443629824148,338,377,0,0,0,2,1,1,23,0002-00-0006-15.png,0004-00-0003-88.png
14,539,0,1443629824194,1443629825735,401,358,0,0,0,3,2,3,14,0003-00-0009-55.png,0002-00-0006-60.png
14,540,1,1443629825775,1443629827119,913,397,0,0,0,5,4,2,31,0001-00-0009-49.png,0005-00-0001-24.png
14,541,1,1443629827157,1443629827587,318,373,0,0,0,1,2,3,25,0004-00-0008-03.png,0002-00-0007-21.png
14,542,1,1443629827610,1443629827852,901,423,0,0,0,4,3,2,13,0005-00-0003-86.png,0003-00-0009-11.png
14,543,0,1443629827879,1443629828346,504,448,0,0,0,3,4,1,32,0003-00-0001-15.png,0005-00-0009-23.png
14,544,1,1443629828379,1443629829277,924,409,0,0,0,2,3,3,41,0002-00-0007-37.png,0003-00-0006-09.png
14,545,1,1443629829303,1443629829755,921,446,0,0,0,3,4,1,32,0003-00-0009-83.png,0005-00-0001-51.png
14,546,0,1443629829785,1443629830155,350,384,0,0,0,5,4,1,23,0001-00-0006-99.png,0005-00-0009-82.png
14,547,0,1443629830178,1443629830586,289,384,0,0,0,3,2,3,25,0003-00-0005-77.png,0002-00-0003-99.png
14,548,0,1443629830636,1443629831037,926,450,0,0,0,1,2,3,52,0004-00-0009-67.png,0002-00-0001-79.png
14,549,0,1443629831067,1443629831534,920,397,0,0,0,4,3,2,31,0005-00-0009-59.png,0003-00-0002-30.png
14,550,1,1443629831578,1443629832109,900,411,0,0,0,2,3,3,14,0002-00-0007-06.png,0003-00-0009-12.png
14,551,1,1443629832132,1443629832454,926,461,0,0,0,2,1,3,41,0002-00-0005-68.png,0004-00-0005-28.png
14,552,0,1443629832487,1443629832915,871,391,0,0,0,5,4,2,13,0001-00-0008-40.png,0005-00-0007-71.png
14,553,0,1443629832938,1443629833816,946,389,0,0,0,1,2,1,32,0004-00-0008-58.png,0002-00-0001-46.png
14,554,1,1443629833844,1443629834225,317,395,0,0,0,3,2,3,14,0003-00-0001-49.png,0002-00-0000-99.png
14,555,0,1443629834254,1443629834585,350,384,0,0,0,4,3,2,13,0005-00-0001-89.png,0003-00-0003-49.png
14,556,0,1443629834616,1443629835331,902,390,0,0,0,5,4,3,25,0001-00-0000-18.png,0005-00-0002-23.png
14,557,1,1443629835357,1443629837345,873,300,0,0,0,5,4,3,52,0001-00-0008-59.png,0005-00-0001-40.png
14,558,0,1443629837369,1443629838113,943,391,0,0,0,3,4,2,31,0003-00-0000-16.png,0005-00-0009-95.png
14,559,0,1443629838136,1443629838761,348,386,0,0,0,2,1,1,23,0002-00-0009-30.png,0004-00-0008-26.png
14,560,1,1443629838792,1443629839451,910,458,0,0,0,2,3,3,41,0002-00-0006-73.png,0003-00-0001-71.png
14,561,0,1443629839479,1443629839867,291,419,0,0,0,5,4,2,13,0001-00-0009-11.png,0005-00-0001-39.png
14,562,1,1443629839893,1443629840667,925,462,0,0,0,1,2,1,32,0004-00-0004-91.png,0002-00-0001-74.png
14,563,1,1443629840690,1443629841069,352,411,0,0,0,2,3,3,41,0002-00-0002-01.png,0003-00-0003-22.png
14,564,0,1443629841101,1443629841284,498,444,0,0,0,3,2,1,23,0003-00-0005-76.png,0002-00-0001-70.png
14,565,0,1443629841321,1443629841471,929,376,0,0,0,4,3,3,52,0005-00-0008-52.png,0003-00-0002-75.png
14,566,0,1443629841505,1443629842407,900,488,0,0,0,5,4,3,25,0001-00-0008-96.png,0005-00-0003-40.png
14,567,0,1443629842442,1443629843308,931,459,0,0,0,2,1,3,14,0002-00-0006-22.png,0004-00-0000-57.png
14,568,1,1443629843334,1443629843628,943,444,0,0,0,3,4,2,31,0003-00-0005-47.png,0005-00-0000-88.png
14,569,0,1443629843652,1443629844248,357,405,0,0,0,3,2,3,25,0003-00-0006-87.png,0002-00-0002-79.png
14,570,1,1443629844277,1443629844647,292,410,0,0,0,2,3,1,23,0002-00-0005-91.png,0003-00-0005-31.png
14,571,0,1443629844687,1443629845557,941,373,0,0,0,1,2,3,41,0004-00-0002-99.png,0002-00-0007-09.png
14,572,1,1443629845585,1443629846060,879,428,0,0,0,5,4,3,14,0001-00-0006-09.png,0005-00-0006-00.png
14,573,1,1443629846092,1443629846496,933,457,0,0,0,3,4,1,32,0003-00-0008-72.png,0005-00-0003-53.png
14,574,0,1443629846519,1443629846804,874,318,0,0,0,4,3,3,52,0005-00-0001-29.png,0003-00-0005-67.png
14,575,0,1443629846842,1443629847422,954,390,0,0,0,2,1,2,31,0002-00-0000-65.png,0004-00-0003-15.png
14,576,1,1443629847472,1443629848530,504,410,0,0,0,5,4,2,13,0001-00-0006-83.png,0005-00-0008-79.png
14,577,1,1443629848564,1443629848767,901,461,0,0,0,3,4,1,32,0003-00-0008-79.png,0005-00-0008-18.png
14,578,1,1443629848817,1443629849380,313,362,0,0,0,4,3,3,41,0005-00-0002-06.png,0003-00-0003-47.png
14,579,1,1443629849417,1443629849531,521,417,0,0,0,2,1,2,31,0002-00-0007-68.png,0004-00-0007-11.png
14,580,0,1443629849552,1443629849883,352,347,0,0,0,5,4,3,25,0001-00-0009-07.png,0005-00-0003-33.png
14,581,1,1443629849913,1443629851617,327,403,0,0,0,2,3,2,13,0002-00-0000-04.png,0003-00-0008-16.png
14,582,0,1443629851646,1443629852002,322,403,0,0,0,1,2,1,23,0004-00-0006-91.png,0002-00-0002-81.png
14,583,1,1443629852028,1443629852188,926,385,0,0,0,3,2,3,52,0003-00-0002-22.png,0002-00-0005-49.png
14,584,1,1443629852214,1443629853034,374,461,0,0,0,5,4,3,14,0001-00-0006-11.png,0005-00-0004-43.png
14,585,0,1443629853070,1443629853503,341,375,0,0,0,3,2,3,14,0003-00-0000-62.png,0002-00-0008-02.png
14,586,1,1443629853544,1443629853838,924,438,0,0,0,3,4,3,52,0003-00-0008-80.png,0005-00-0002-29.png
14,587,0,1443629853872,1443629854356,338,415,0,0,0,2,1,2,31,0002-00-0004-20.png,0004-00-0001-21.png
14,588,1,1443629854392,1443629854831,902,388,0,0,0,5,4,1,32,0001-00-0002-78.png,0005-00-0004-14.png
14,589,1,1443629854875,1443629855347,866,506,0,0,0,2,3,1,23,0002-00-0008-69.png,0003-00-0008-90.png
14,590,0,1443629855406,1443629856023,870,315,0,0,0,4,3,3,25,0005-00-0001-29.png,0003-00-0002-97.png
14,591,1,1443629856050,1443629856854,911,353,0,0,0,1,2,3,41,0004-00-0005-75.png,0002-00-0006-31.png
14,592,1,1443629856885,1443629857172,319,395,0,0,0,5,4,2,13,0001-00-0001-89.png,0005-00-0003-53.png
14,593,0,1443629857207,1443629857772,877,407,0,0,0,2,3,3,41,0002-00-0004-83.png,0003-00-0007-70.png
14,594,1,1443629857811,1443629858051,355,405,0,0,0,5,4,3,14,0001-00-0002-50.png,0005-00-0008-50.png
14,595,0,1443629858076,1443629858545,923,379,0,0,0,3,2,2,31,0003-00-0001-76.png,0002-00-0001-48.png
14,596,0,1443629858581,1443629859067,379,403,0,0,0,2,1,2,13,0002-00-0003-16.png,0004-00-0009-69.png
14,597,1,1443629859093,1443629859417,360,380,0,0,0,5,4,3,52,0001-00-0008-25.png,0005-00-0008-89.png
14,598,1,1443629859447,1443629859803,352,386,0,0,0,1,2,1,32,0004-00-0000-21.png,0002-00-0009-28.png
14,599,0,1443629859835,1443629861114,365,462,0,0,0,4,3,3,25,0005-00-0001-48.png,0003-00-0000-28.png
14,600,1,1443629861134,1443629862213,372,388,0,0,0,3,4,1,23,0003-00-0003-16.png,0005-00-0002-41.png
14,601,0,1443629862238,1443629862450,299,366,0,0,0,5,4,3,25,0001-00-0003-84.png,0005-00-0004-71.png
14,602,1,1443629862477,1443629863440,363,404,0,0,0,2,3,3,41,0002-00-0003-65.png,0003-00-0000-79.png
14,603,0,1443629863478,1443629863971,891,462,0,0,0,2,1,3,14,0002-00-0005-24.png,0004-00-0003-22.png
14,604,1,1443629864005,1443629864515,318,371,0,0,0,5,4,3,52,0001-00-0005-86.png,0005-00-0002-64.png
14,605,1,1443629864538,1443629865153,917,438,0,0,0,3,2,2,31,0003-00-0002-65.png,0002-00-0005-40.png
14,606,0,1443629865195,1443629865921,233,531,0,0,0,4,3,1,23,0005-00-0004-86.png,0003-00-0009-68.png
14,607,0,1443629865943,1443629866590,323,370,0,0,0,3,4,2,13,0003-00-0008-31.png,0005-00-0004-63.png
14,608,1,1443629866619,1443629867436,293,368,0,0,0,1,2,1,32,0004-00-0003-83.png,0002-00-0001-95.png
14,609,0,1443629867458,1443629868037,518,424,0,0,0,2,3,3,52,0002-00-0002-50.png,0003-00-0007-45.png
14,610,1,1443629868059,1443629869120,299,332,0,0,0,5,4,1,23,0001-00-0002-02.png,0005-00-0005-27.png
14,611,1,1443629869146,1443629869409,873,491,0,0,0,4,3,3,41,0005-00-0008-78.png,0003-00-0000-94.png
14,612,0,1443629869445,1443629869679,907,462,0,0,0,3,2,3,25,0003-00-0006-47.png,0002-00-0005-15.png
14,613,0,1443629869723,1443629870302,889,493,0,0,0,3,4,2,13,0003-00-0008-75.png,0005-00-0001-46.png
14,614,1,1443629870325,1443629870663,921,445,0,0,0,2,1,3,14,0002-00-0006-97.png,0004-00-0008-53.png
14,615,0,1443629870696,1443629870978,878,442,0,0,0,5,4,2,31,0001-00-0008-76.png,0005-00-0007-30.png
14,616,0,1443629871016,1443629871290,899,474,0,0,0,1,2,1,32,0004-00-0003-28.png,0002-00-0008-00.png
14,617,1,1443629871310,1443629871670,350,358,0,0,0,5,4,2,31,0001-00-0000-85.png,0005-00-0008-67.png
14,618,1,1443629871692,1443629872547,302,370,0,0,0,2,3,3,25,0002-00-0008-43.png,0003-00-0009-32.png
14,619,0,1443629872584,1443629873431,339,416,0,0,0,2,1,3,14,0002-00-0001-45.png,0004-00-0003-53.png
14,620,0,1443629873459,1443629874161,350,358,0,0,0,3,2,1,23,0003-00-0000-95.png,0002-00-0002-35.png
14,621,0,1443629874195,1443629874905,335,398,0,0,0,5,4,3,52,0001-00-0003-52.png,0005-00-0001-66.png
14,622,1,1443629874938,1443629875390,893,320,0,0,0,1,2,1,32,0004-00-0007-15.png,0002-00-0002-29.png
14,623,0,1443629875415,1443629875671,925,411,0,0,0,3,4,3,41,0003-00-0004-36.png,0005-00-0007-12.png
14,624,0,1443629875705,1443629876233,341,397,0,0,0,4,3,2,13,0005-00-0001-25.png,0003-00-0009-49.png
14,625,1,1443629876264,1443629876504,901,384,0,0,0,4,3,3,52,0005-00-0004-79.png,0003-00-0008-33.png
14,626,0,1443629876539,1443629877632,341,363,0,0,0,3,2,1,23,0003-00-0003-32.png,0002-00-0003-59.png
14,627,0,1443629877670,1443629878428,929,402,0,0,0,1,2,1,32,0004-00-0000-99.png,0002-00-0008-02.png
14,628,0,1443629878453,1443629878691,943,483,0,0,0,5,4,2,31,0001-00-0007-05.png,0005-00-0009-18.png
14,629,1,1443629878730,1443629879181,285,441,0,0,0,3,4,3,25,0003-00-0005-40.png,0005-00-0004-03.png
14,630,1,1443629879214,1443629879863,891,509,0,0,0,5,4,3,41,0001-00-0003-44.png,0005-00-0008-66.png
14,631,0,1443629879886,1443629880169,313,389,0,0,0,2,3,3,14,0002-00-0008-04.png,0003-00-0000-14.png
14,632,1,1443629880184,1443629880316,372,366,0,0,0,2,1,2,13,0002-00-0001-49.png,0004-00-0008-51.png
14,633,1,1443629880341,1443629880835,902,390,0,0,0,2,1,3,52,0002-00-0002-06.png,0004-00-0003-16.png
14,634,1,1443629880855,1443629881216,889,477,0,0,0,1,2,3,41,0004-00-0002-86.png,0002-00-0009-25.png
14,635,1,1443629881239,1443629881858,340,396,0,0,0,2,3,1,23,0002-00-0008-69.png,0003-00-0002-03.png
14,636,0,1443629881881,1443629882634,348,379,0,0,0,5,4,3,25,0001-00-0004-01.png,0005-00-0008-39.png
14,637,0,1443629882662,1443629882976,197,462,0,0,0,5,4,2,13,0001-00-0003-18.png,0005-00-0005-25.png
14,638,0,1443629883006,1443629883387,427,410,0,0,0,3,4,3,14,0003-00-0006-36.png,0005-00-0000-01.png
14,639,1,1443629883430,1443629884383,900,397,0,0,0,4,3,2,31,0005-00-0000-77.png,0003-00-0004-16.png
14,640,0,1443629884416,1443629884693,885,500,0,0,0,3,2,1,32,0003-00-0006-59.png,0002-00-0002-71.png
14,641,1,1443629884718,1443629885505,913,441,0,0,0,4,3,3,52,0005-00-0004-13.png,0003-00-0003-45.png
14,642,0,1443629885533,1443629886069,861,508,0,0,0,5,4,3,14,0001-00-0003-34.png,0005-00-0007-69.png
14,643,0,1443629886099,1443629886352,920,378,0,0,0,3,4,2,31,0003-00-0007-95.png,0005-00-0009-24.png
14,644,1,1443629886374,1443629886730,926,462,0,0,0,2,3,1,32,0002-00-0006-24.png,0003-00-0001-44.png
14,645,0,1443629886754,1443629887159,866,363,0,0,0,1,2,2,13,0004-00-0008-47.png,0002-00-0009-91.png
14,646,1,1443629887200,1443629887688,295,368,0,0,0,2,1,3,25,0002-00-0006-60.png,0004-00-0006-16.png
14,647,1,1443629887711,1443629888120,376,471,0,0,0,3,2,1,23,0003-00-0005-34.png,0002-00-0007-00.png
14,648,0,1443629888160,1443629888594,911,382,0,0,0,5,4,3,41,0001-00-0004-16.png,0005-00-0007-52.png
14,649,0,1443629888635,1443629888958,922,453,0,0,0,2,3,1,32,0002-00-0001-17.png,0003-00-0005-40.png
14,650,1,1443629888988,1443629889329,929,366,0,0,0,3,2,1,23,0003-00-0008-44.png,0002-00-0003-74.png
14,651,0,1443629889361,1443629889983,316,356,0,0,0,3,4,2,13,0003-00-0009-64.png,0005-00-0006-24.png
14,652,1,1443629890022,1443629890371,890,429,0,0,0,4,3,3,52,0005-00-0002-55.png,0003-00-0001-88.png
14,653,1,1443629890401,1443629890603,340,441,0,0,0,2,1,3,41,0002-00-0005-90.png,0004-00-0002-05.png
14,654,0,1443629890635,1443629891149,514,505,0,0,0,5,4,3,14,0001-00-0006-87.png,0005-00-0001-69.png
14,655,1,1443629891174,1443629891608,273,416,0,0,0,1,2,3,25,0004-00-0005-73.png,0002-00-0003-95.png
14,656,1,1443629891630,1443629892488,900,489,0,0,0,5,4,2,31,0001-00-0005-10.png,0005-00-0007-20.png
14,657,0,1443629892502,1443629892686,302,422,0,0,0,1,2,3,14,0004-00-0003-69.png,0002-00-0004-88.png
14,658,0,1443629892715,1443629893631,292,410,0,0,0,2,3,1,23,0002-00-0000-83.png,0003-00-0008-58.png
14,659,1,1443629893651,1443629894412,926,397,0,0,0,5,4,1,32,0001-00-0001-24.png,0005-00-0005-68.png
14,660,1,1443629894441,1443629894905,926,435,0,0,0,3,2,3,52,0003-00-0006-09.png,0002-00-0000-09.png
14,661,1,1443629894924,1443629895050,894,389,0,0,0,4,3,2,31,0005-00-0000-76.png,0003-00-0004-81.png
14,662,0,1443629895074,1443629895407,904,392,0,0,0,5,4,3,41,0001-00-0001-06.png,0005-00-0005-86.png
14,663,1,1443629895433,1443629896175,313,414,0,0,0,2,1,2,13,0002-00-0001-96.png,0004-00-0001-84.png
14,664,1,1443629896211,1443629896628,376,358,0,0,0,3,4,3,25,0003-00-0000-94.png,0005-00-0008-77.png
14,665,1,1443629896644,1443629897670,376,384,0,0,0,5,4,3,25,0001-00-0008-21.png,0005-00-0001-84.png
14,666,0,1443629897705,1443629898341,413,400,0,0,0,5,4,2,31,0001-00-0007-99.png,0005-00-0009-97.png
14,667,0,1443629898364,1443629898878,925,449,0,0,0,2,3,3,41,0002-00-0008-26.png,0003-00-0001-71.png
14,668,0,1443629898908,1443629899224,372,365,0,0,0,3,4,1,23,0003-00-0002-85.png,0005-00-0000-49.png
14,669,1,1443629899268,1443629899632,876,460,0,0,0,3,2,3,52,0003-00-0004-25.png,0002-00-0003-83.png
14,670,0,1443629899659,1443629900162,926,409,0,0,0,4,3,1,32,0005-00-0007-87.png,0003-00-0004-23.png
14,671,0,1443629900194,1443629900599,335,422,0,0,0,2,1,2,13,0002-00-0004-41.png,0004-00-0006-19.png
14,672,0,1443629900645,1443629900957,324,410,0,0,0,1,2,3,14,0004-00-0008-91.png,0002-00-0002-55.png
14,673,1,1443629900985,1443629901323,905,350,0,0,0,2,1,3,25,0002-00-0000-47.png,0004-00-0008-53.png
14,674,1,1443629901352,1443629902016,913,326,0,0,0,5,4,2,31,0001-00-0001-40.png,0005-00-0005-65.png
14,675,1,1443629902049,1443629903029,922,408,0,0,0,3,2,3,41,0003-00-0007-82.png,0002-00-0001-27.png
14,676,0,1443629903052,1443629903626,382,462,0,0,0,4,3,3,52,0005-00-0006-52.png,0003-00-0009-92.png
14,677,1,1443629903648,1443629904077,376,375,0,0,0,3,4,3,14,0003-00-0009-67.png,0005-00-0006-59.png
14,678,1,1443629904098,1443629904401,361,403,0,0,0,5,4,1,23,0001-00-0000-13.png,0005-00-0009-66.png
14,679,0,1443629904431,1443629904667,926,398,0,0,0,1,2,1,32,0004-00-0005-79.png,0002-00-0006-11.png
14,680,1,1443629904694,1443629905768,381,520,0,0,0,2,3,2,13,0002-00-0001-94.png,0003-00-0000-58.png
14,681,0,1443629905797,1443629906103,342,415,0,0,0,4,3,3,52,0005-00-0005-65.png,0003-00-0009-63.png
14,682,0,1443629906134,1443629906863,350,358,0,0,0,1,2,3,25,0004-00-0002-01.png,0002-00-0006-70.png
14,683,1,1443629906889,1443629907380,913,384,0,0,0,5,4,1,32,0001-00-0001-97.png,0005-00-0008-01.png
14,684,1,1443629907408,1443629907652,390,465,0,0,0,3,2,1,23,0003-00-0005-72.png,0002-00-0006-83.png
14,685,0,1443629907697,1443629907928,900,375,0,0,0,2,1,3,41,0002-00-0000-47.png,0004-00-0003-06.png
14,686,0,1443629907956,1443629908461,357,353,0,0,0,3,4,2,31,0003-00-0000-55.png,0005-00-0007-95.png
14,687,1,1443629908489,1443629908817,862,342,0,0,0,2,3,3,14,0002-00-0008-26.png,0003-00-0002-06.png
14,688,1,1443629908849,1443629909076,870,390,0,0,0,5,4,2,13,0001-00-0006-72.png,0005-00-0006-82.png
14,689,0,1443629909096,1443629909903,289,344,0,0,0,5,4,1,23,0001-00-0001-43.png,0005-00-0004-42.png
14,690,1,1443629909950,1443629910398,878,337,0,0,0,3,4,3,41,0003-00-0008-33.png,0005-00-0005-39.png
14,691,0,1443629910421,1443629910752,917,401,0,0,0,1,2,2,31,0004-00-0009-34.png,0002-00-0001-89.png
14,692,1,1443629910794,1443629911250,890,428,0,0,0,2,1,1,32,0002-00-0001-39.png,0004-00-0007-10.png
14,693,0,1443629911276,1443629911466,917,403,0,0,0,2,3,2,13,0002-00-0001-17.png,0003-00-0000-97.png
14,694,1,1443629911498,1443629911934,916,430,0,0,0,5,4,3,52,0001-00-0006-28.png,0005-00-0005-16.png
14,695,1,1443629911965,1443629912197,323,371,0,0,0,3,2,3,25,0003-00-0008-20.png,0002-00-0008-35.png
14,696,1,1443629912221,1443629912645,375,401,0,0,0,4,3,3,14,0005-00-0008-49.png,0003-00-0001-21.png
14,697,1,1443629912683,1443629913939,910,420,0,0,0,1,2,3,14,0004-00-0007-59.png,0002-00-0004-22.png
14,698,1,1443629913976,1443629914209,952,359,0,0,0,3,2,2,13,0003-00-0007-66.png,0002-00-0001-96.png
14,699,0,1443629914234,1443629914950,957,361,0,0,0,5,4,3,52,0001-00-0004-00.png,0005-00-0007-80.png
14,700,0,1443629914975,1443629915160,324,390,0,0,0,2,1,3,25,0002-00-0004-95.png,0004-00-0005-16.png
14,701,0,1443629915184,1443629915370,913,398,0,0,0,5,4,1,32,0001-00-0001-52.png,0005-00-0005-54.png
14,702,1,1443629915394,1443629916156,390,488,0,0,0,4,3,1,23,0005-00-0001-20.png,0003-00-0003-77.png
14,703,0,1443629916201,1443629916689,328,411,0,0,0,2,3,2,31,0002-00-0009-02.png,0003-00-0007-08.png
14,704,0,1443629916722,1443629917426,515,370,0,0,0,3,4,3,41,0003-00-0004-99.png,0005-00-0008-16.png
14,705,0,1443629917456,1443629917656,965,371,0,0,0,5,4,1,32,0001-00-0009-51.png,0005-00-0005-10.png
14,706,1,1443629917688,1443629917871,294,386,0,0,0,3,4,3,14,0003-00-0009-62.png,0005-00-0002-63.png
14,707,0,1443629917906,1443629918300,316,445,0,0,0,2,1,2,31,0002-00-0004-72.png,0004-00-0002-27.png
14,708,0,1443629918332,1443629918897,500,393,0,0,0,3,2,3,52,0003-00-0000-51.png,0002-00-0005-50.png
14,709,0,1443629918931,1443629919244,914,409,0,0,0,1,2,3,25,0004-00-0009-10.png,0002-00-0001-47.png
14,710,0,1443629919269,1443629919780,284,373,0,0,0,4,3,1,23,0005-00-0008-18.png,0003-00-0000-73.png
14,711,1,1443629919806,1443629920185,901,450,0,0,0,5,4,3,41,0001-00-0008-93.png,0005-00-0002-81.png
14,712,1,1443629920213,1443629920472,923,379,0,0,0,2,3,2,13,0002-00-0009-47.png,0003-00-0006-30.png
14,713,0,1443629920496,1443629921106,347,361,0,0,0,2,3,2,13,0002-00-0002-55.png,0003-00-0007-86.png
14,714,0,1443629921125,1443629921711,447,513,0,0,0,5,4,2,31,0001-00-0005-58.png,0005-00-0007-80.png
14,715,1,1443629921759,1443629922310,349,373,0,0,0,5,4,3,41,0001-00-0006-45.png,0005-00-0007-64.png
14,716,1,1443629922335,1443629922692,519,483,0,0,0,3,4,1,23,0003-00-0000-77.png,0005-00-0001-29.png
14,717,1,1443629922724,1443629923290,904,478,0,0,0,1,2,3,52,0004-00-0000-77.png,0002-00-0003-14.png
14,718,0,1443629923323,1443629923748,952,467,0,0,0,2,1,3,25,0002-00-0008-28.png,0004-00-0004-83.png
14,719,1,1443629923774,1443629924562,491,401,0,0,0,4,3,3,14,0005-00-0008-48.png,0003-00-0006-70.png
14,720,0,1443629924591,1443629925102,504,462,0,0,0,3,2,1,32,0003-00-0008-44.png,0002-00-0001-21.png
14,721,0,1443629925133,1443629925600,350,370,0,0,0,5,4,1,23,0001-00-0003-63.png,0005-00-0006-97.png
14,722,1,1443629925630,1443629926047,324,373,0,0,0,5,4,3,14,0001-00-0002-54.png,0005-00-0004-20.png
14,723,0,1443629926085,1443629926314,915,371,0,0,0,3,4,2,13,0003-00-0002-60.png,0005-00-0009-15.png
14,724,1,1443629926338,1443629926875,319,347,0,0,0,2,3,2,31,0002-00-0001-54.png,0003-00-0003-16.png
14,725,0,1443629926904,1443629927256,376,370,0,0,0,3,2,3,25,0003-00-0007-61.png,0002-00-0005-71.png
14,726,0,1443629927283,1443629927680,388,468,0,0,0,4,3,3,52,0005-00-0007-96.png,0003-00-0006-59.png
14,727,0,1443629927698,1443629928379,922,445,0,0,0,2,1,3,41,0002-00-0007-72.png,0004-00-0002-17.png
14,728,1,1443629928406,1443629928576,380,372,0,0,0,1,2,1,32,0004-00-0007-74.png,0002-00-0003-50.png
14,729,1,1443629928610,1443629929041,334,383,0,0,0,3,4,3,14,0003-00-0004-75.png,0005-00-0006-70.png
14,730,1,1443629929075,1443629930320,926,478,0,0,0,2,1,3,52,0002-00-0002-29.png,0004-00-0007-82.png
14,731,0,1443629930340,1443629930652,332,403,0,0,0,3,2,3,25,0003-00-0005-62.png,0002-00-0000-87.png
14,732,1,1443629930681,1443629931977,898,456,0,0,0,1,2,1,32,0004-00-0003-52.png,0002-00-0008-09.png
14,733,1,1443629932001,1443629932569,898,435,0,0,0,4,3,2,13,0005-00-0003-54.png,0003-00-0000-00.png
14,734,1,1443629932593,1443629932861,300,365,0,0,0,5,4,2,31,0001-00-0004-36.png,0005-00-0000-67.png
14,735,1,1443629932887,1443629933198,348,371,0,0,0,5,4,1,23,0001-00-0009-97.png,0005-00-0002-26.png
14,736,0,1443629933235,1443629933823,952,384,0,0,0,2,3,3,41,0002-00-0006-95.png,0003-00-0007-55.png
14,737,1,1443629933849,1443629934723,340,442,0,0,0,2,1,3,14,0002-00-0002-29.png,0004-00-0003-32.png
14,738,0,1443629934763,1443629935299,894,479,0,0,0,3,2,2,13,0003-00-0002-55.png,0002-00-0009-57.png
14,739,1,1443629935322,1443629936129,376,306,0,0,0,1,2,3,25,0004-00-0004-26.png,0002-00-0002-17.png
14,740,1,1443629936161,1443629936475,395,513,0,0,0,3,4,2,31,0003-00-0005-69.png,0005-00-0005-60.png
14,741,0,1443629936501,1443629936738,942,477,0,0,0,5,4,1,32,0001-00-0009-92.png,0005-00-0006-37.png
14,742,1,1443629936765,1443629937342,926,449,0,0,0,2,3,3,41,0002-00-0008-60.png,0003-00-0000-36.png
14,743,1,1443629937383,1443629937656,401,383,0,0,0,5,4,3,52,0001-00-0000-09.png,0005-00-0009-66.png
14,744,0,1443629937695,1443629937815,350,306,0,0,0,4,3,1,23,0005-00-0001-60.png,0003-00-0003-50.png
14,745,0,1443629937860,1443629938387,932,405,0,0,0,1,2,1,32,0004-00-0001-36.png,0002-00-0004-40.png
14,746,1,1443629938421,1443629939048,920,429,0,0,0,5,4,2,31,0001-00-0000-17.png,0005-00-0008-99.png
14,747,1,1443629939070,1443629939312,875,476,0,0,0,3,4,3,52,0003-00-0009-75.png,0005-00-0008-11.png
14,748,1,1443629939345,1443629940152,325,468,0,0,0,3,2,3,14,0003-00-0009-77.png,0002-00-0004-91.png
14,749,1,1443629940191,1443629940382,903,402,0,0,0,2,1,3,41,0002-00-0003-51.png,0004-00-0001-51.png
14,750,0,1443629940408,1443629940824,380,403,0,0,0,2,3,2,13,0002-00-0004-57.png,0003-00-0003-08.png
14,751,0,1443629940854,1443629941734,888,446,0,0,0,5,4,3,25,0001-00-0000-50.png,0005-00-0002-32.png
14,752,1,1443629941772,1443629942108,313,374,0,0,0,4,3,1,23,0005-00-0000-63.png,0003-00-0007-18.png
14,753,1,1443629942131,1443629942320,392,494,0,0,0,5,4,1,23,0001-00-0005-12.png,0005-00-0002-37.png
14,754,0,1443629942343,1443629942498,930,376,0,0,0,4,3,3,41,0005-00-0003-26.png,0003-00-0008-78.png
14,755,1,1443629942530,1443629942627,899,464,0,0,0,5,4,2,13,0001-00-0005-13.png,0005-00-0008-10.png
14,756,0,1443629942669,1443629943198,343,365,0,0,0,2,1,3,14,0002-00-0002-80.png,0004-00-0001-75.png
14,757,1,1443629943221,1443629943788,904,402,0,0,0,3,2,3,52,0003-00-0000-26.png,0002-00-0000-60.png
14,758,0,1443629943832,1443629944270,888,410,0,0,0,2,3,2,31,0002-00-0001-90.png,0003-00-0001-12.png
14,759,0,1443629944301,1443629944581,898,483,0,0,0,1,2,1,32,0004-00-0004-21.png,0002-00-0000-74.png
14,760,0,1443629944615,1443629944989,375,385,0,0,0,3,4,3,25,0003-00-0006-76.png,0005-00-0005-02.png
14,761,1,1443629945007,1443629946011,876,436,0,0,0,2,3,2,31,0002-00-0009-98.png,0003-00-0008-29.png
14,762,1,1443629946036,1443629946449,917,457,0,0,0,1,2,3,41,0004-00-0008-22.png,0002-00-0009-08.png
14,763,1,1443629946476,1443629946898,875,476,0,0,0,4,3,3,52,0005-00-0000-21.png,0003-00-0007-63.png
14,764,0,1443629946930,1443629948111,902,492,0,0,0,3,4,1,32,0003-00-0009-99.png,0005-00-0000-54.png
14,765,0,1443629948145,1443629948859,342,444,0,0,0,5,4,3,14,0001-00-0008-99.png,0005-00-0001-42.png
14,766,1,1443629948903,1443629949419,344,395,0,0,0,5,4,2,13,0001-00-0001-98.png,0005-00-0004-89.png
14,767,0,1443629949450,1443629950245,356,437,0,0,0,3,2,3,25,0003-00-0005-07.png,0002-00-0007-12.png
14,768,0,1443629950275,1443629950504,875,462,0,0,0,2,1,1,23,0002-00-0000-25.png,0004-00-0006-39.png
14,769,0,1443629950533,1443629950777,376,411,0,0,0,3,4,1,32,0003-00-0002-69.png,0005-00-0007-28.png
14,770,1,1443629950800,1443629951604,325,332,0,0,0,5,4,3,14,0001-00-0008-40.png,0005-00-0001-30.png
14,771,1,1443629951637,1443629951851,389,517,0,0,0,2,1,3,41,0002-00-0007-53.png,0004-00-0006-35.png
14,772,0,1443629951879,1443629952705,376,332,0,0,0,1,2,3,25,0004-00-0002-96.png,0002-00-0007-55.png
14,773,0,1443629952725,1443629953307,888,384,0,0,0,5,4,1,23,0001-00-0002-18.png,0005-00-0004-31.png
14,774,0,1443629953347,1443629953917,896,392,0,0,0,2,3,3,52,0002-00-0006-21.png,0003-00-0008-61.png
14,775,0,1443629953965,1443629954454,922,460,0,0,0,3,2,2,31,0003-00-0007-13.png,0002-00-0007-85.png
14,776,1,1443629954477,1443629954819,332,445,0,0,0,4,3,2,13,0005-00-0008-46.png,0003-00-0002-87.png
14,777,0,1443629954858,1443629955178,414,528,0,0,0,2,1,1,23,0002-00-0004-38.png,0004-00-0006-24.png
14,778,0,1443629955204,1443629955430,394,509,0,0,0,1,2,2,31,0004-00-0004-29.png,0002-00-0000-88.png
14,779,1,1443629955455,1443629955787,341,341,0,0,0,3,2,3,14,0003-00-0003-38.png,0002-00-0005-52.png
14,780,0,1443629955816,1443629956417,472,453,0,0,0,3,4,2,13,0003-00-0003-17.png,0005-00-0001-97.png
14,781,0,1443629956439,1443629957507,376,371,0,0,0,5,4,3,25,0001-00-0006-42.png,0005-00-0009-18.png
14,782,1,1443629957526,1443629957717,383,472,0,0,0,2,3,3,41,0002-00-0007-51.png,0003-00-0000-16.png
14,783,0,1443629957751,1443629958047,903,391,0,0,0,5,4,3,52,0001-00-0008-68.png,0005-00-0004-08.png
14,784,0,1443629958074,1443629958776,930,401,0,0,0,4,3,1,32,0005-00-0002-28.png,0003-00-0004-97.png
14,785,0,1443629958815,1443629959254,392,520,0,0,0,5,4,1,23,0001-00-0003-96.png,0005-00-0004-89.png
14,786,0,1443629959281,1443629959464,352,421,0,0,0,2,3,3,14,0002-00-0005-83.png,0003-00-0003-82.png
14,787,1,1443629959493,1443629960034,443,482,0,0,0,5,4,2,13,0001-00-0006-60.png,0005-00-0001-98.png
14,788,0,1443629960061,1443629960384,875,488,0,0,0,3,4,1,32,0003-00-0004-09.png,0005-00-0007-28.png
14,789,1,1443629960408,1443629960635,904,427,0,0,0,4,3,3,41,0005-00-0000-55.png,0003-00-0008-77.png
14,790,1,1443629960669,1443629961071,874,385,0,0,0,1,2,2,31,0004-00-0004-13.png,0002-00-0005-90.png
14,791,0,1443629961103,1443629961657,866,429,0,0,0,3,2,3,52,0003-00-0006-84.png,0002-00-0001-35.png
14,792,0,1443629961689,1443629962145,881,446,0,0,0,2,1,3,25,0002-00-0000-32.png,0004-00-0006-72.png
14,793,0,1443629962175,1443629964253,877,414,0,0,0,5,4,2,13,0001-00-0004-08.png,0005-00-0004-63.png
14,794,1,1443629964285,1443629964828,355,430,0,0,0,3,2,3,41,0003-00-0003-85.png,0002-00-0006-90.png
14,795,0,1443629964864,1443629965318,948,462,0,0,0,4,3,3,52,0005-00-0001-14.png,0003-00-0006-87.png
14,796,1,1443629965340,1443629965532,928,478,0,0,0,3,4,2,31,0003-00-0006-64.png,0005-00-0001-27.png
14,797,1,1443629965565,1443629965970,908,451,0,0,0,5,4,1,32,0001-00-0008-76.png,0005-00-0001-39.png
14,798,1,1443629966010,1443629966315,890,477,0,0,0,1,2,3,25,0004-00-0008-75.png,0002-00-0003-38.png
14,799,0,1443629966337,1443629966587,335,400,0,0,0,2,3,1,23,0002-00-0000-27.png,0003-00-0000-20.png
14,800,1,1443629966621,1443629967021,388,502,0,0,0,2,1,3,14,0002-00-0005-60.png,0004-00-0003-04.png
14,801,1,1443629967055,1443629967613,911,373,0,0,0,5,4,3,41,0001-00-0009-24.png,0005-00-0004-91.png
14,802,0,1443629967648,1443629968473,481,457,0,0,0,3,4,3,52,0003-00-0000-06.png,0005-00-0006-66.png
14,803,0,1443629968511,1443629969349,951,409,0,0,0,5,4,3,14,0001-00-0007-24.png,0005-00-0007-27.png
14,804,1,1443629969377,1443629969722,514,393,0,0,0,2,1,2,13,0002-00-0005-23.png,0004-00-0006-19.png
14,805,0,1443629969757,1443629970063,922,378,0,0,0,4,3,2,31,0005-00-0006-51.png,0003-00-0001-61.png
14,806,0,1443629970096,1443629970740,340,394,0,0,0,1,2,1,32,0004-00-0004-75.png,0002-00-0002-75.png
14,807,0,1443629970772,1443629971169,511,447,0,0,0,2,3,3,25,0002-00-0007-11.png,0003-00-0004-31.png
14,808,1,1443629971203,1443629971497,332,448,0,0,0,3,2,1,23,0003-00-0008-83.png,0002-00-0005-58.png
14,809,0,1443629971545,1443629972276,927,383,0,0,0,2,3,1,32,0002-00-0009-11.png,0003-00-0003-92.png
14,810,1,1443629972310,1443629972492,349,394,0,0,0,3,2,3,41,0003-00-0000-48.png,0002-00-0006-36.png
14,811,1,1443629972529,1443629973071,344,405,0,0,0,2,1,2,31,0002-00-0006-04.png,0004-00-0005-75.png
14,812,0,1443629973106,1443629973686,926,449,0,0,0,4,3,3,52,0005-00-0008-00.png,0003-00-0001-77.png
14,813,1,1443629973722,1443629974210,414,500,0,0,0,1,2,1,23,0004-00-0006-14.png,0002-00-0003-33.png
14,814,0,1443629974252,1443629975087,292,395,0,0,0,5,4,3,25,0001-00-0001-71.png,0005-00-0000-95.png
14,815,1,1443629975120,1443629975830,391,546,0,0,0,3,4,2,13,0003-00-0004-42.png,0005-00-0003-32.png
14,816,1,1443629975868,1443629976334,362,398,0,0,0,5,4,3,14,0001-00-0001-21.png,0005-00-0002-08.png
14,817,0,1443629976386,1443629976963,376,384,0,0,0,2,3,3,52,0002-00-0002-55.png,0003-00-0006-79.png
14,818,1,1443629977005,1443629977773,401,346,0,0,0,1,2,1,23,0004-00-0003-31.png,0002-00-0006-15.png
14,819,1,1443629977799,1443629977985,918,374,0,0,0,3,2,2,31,0003-00-0000-44.png,0002-00-0007-01.png
14,820,1,1443629978017,1443629978651,504,473,0,0,0,4,3,1,32,0005-00-0006-91.png,0003-00-0003-73.png
14,821,1,1443629978683,1443629979016,902,468,0,0,0,5,4,3,14,0001-00-0001-63.png,0005-00-0007-75.png
14,822,0,1443629979044,1443629979579,951,438,0,0,0,5,4,3,41,0001-00-0001-10.png,0005-00-0009-42.png
14,823,1,1443629979617,1443629980381,323,373,0,0,0,3,4,3,25,0003-00-0003-38.png,0005-00-0008-32.png
14,824,0,1443629980412,1443629980868,401,384,0,0,0,2,1,2,13,0002-00-0001-43.png,0004-00-0006-36.png
14,825,1,1443629980893,1443629981343,389,467,0,0,0,3,2,1,23,0003-00-0000-08.png,0002-00-0009-23.png
14,826,1,1443629981374,1443629982277,376,410,0,0,0,4,3,3,14,0005-00-0006-26.png,0003-00-0009-87.png
14,827,1,1443629982309,1443629983006,343,377,0,0,0,5,4,2,13,0001-00-0003-81.png,0005-00-0002-13.png
14,828,1,1443629983040,1443629983358,907,458,0,0,0,2,1,3,41,0002-00-0000-97.png,0004-00-0000-39.png
14,829,0,1443629983383,1443629984458,369,378,0,0,0,3,4,2,31,0003-00-0000-17.png,0005-00-0004-08.png
14,830,1,1443629984487,1443629985528,899,449,0,0,0,5,4,3,52,0001-00-0001-07.png,0005-00-0002-96.png
14,831,1,1443629985557,1443629986412,900,463,0,0,0,2,3,1,32,0002-00-0001-05.png,0003-00-0000-45.png
14,832,0,1443629986440,1443629987174,879,455,0,0,0,1,2,3,25,0004-00-0007-48.png,0002-00-0005-75.png
14,833,1,1443629987244,1443629987623,513,384,0,0,0,2,3,1,32,0002-00-0006-36.png,0003-00-0006-41.png
14,834,0,1443629987651,1443629988800,374,383,0,0,0,1,2,2,13,0004-00-0008-94.png,0002-00-0000-02.png
14,835,0,1443629988824,1443629989881,907,459,0,0,0,3,2,3,52,0003-00-0001-78.png,0002-00-0009-87.png
14,836,1,1443629989908,1443629990546,910,474,0,0,0,3,4,3,14,0003-00-0006-00.png,0005-00-0006-88.png
14,837,0,1443629990570,1443629991080,923,462,0,0,0,5,4,3,25,0001-00-0009-09.png,0005-00-0003-53.png
14,838,0,1443629991111,1443629991394,366,443,0,0,0,2,1,1,23,0002-00-0000-37.png,0004-00-0007-23.png
14,839,0,1443629991425,1443629992056,900,397,0,0,0,5,4,2,31,0001-00-0007-39.png,0005-00-0009-07.png
14,840,1,1443629992086,1443629992626,900,489,0,0,0,4,3,3,41,0005-00-0001-65.png,0003-00-0003-11.png
14,841,0,1443629992650,1443629992879,863,501,0,0,0,5,4,2,13,0001-00-0008-28.png,0005-00-0003-81.png
14,842,0,1443629992905,1443629993192,387,489,0,0,0,5,4,3,14,0001-00-0003-20.png,0005-00-0001-30.png
14,843,0,1443629993226,1443629993724,898,456,0,0,0,2,3,1,23,0002-00-0008-67.png,0003-00-0008-04.png
14,844,1,1443629993743,1443629994284,879,352,0,0,0,1,2,2,31,0004-00-0003-19.png,0002-00-0000-12.png
14,845,0,1443629994318,1443629995135,369,365,0,0,0,3,4,3,41,0003-00-0004-61.png,0005-00-0009-63.png
14,846,0,1443629995168,1443629995563,342,493,0,0,0,3,2,3,52,0003-00-0003-81.png,0002-00-0001-54.png
14,847,1,1443629995608,1443629996050,478,541,0,0,0,4,3,3,25,0005-00-0001-46.png,0003-00-0004-47.png
14,848,1,1443629996088,1443629996394,877,442,0,0,0,2,1,1,32,0002-00-0008-01.png,0004-00-0001-22.png
14,849,0,1443629996416,1443629997020,406,462,0,0,0,4,3,1,23,0005-00-0007-13.png,0003-00-0009-12.png
14,850,1,1443629997044,1443629998089,875,423,0,0,0,1,2,3,52,0004-00-0001-29.png,0002-00-0002-03.png
14,851,0,1443629998120,1443629998820,350,414,0,0,0,2,1,2,31,0002-00-0001-79.png,0004-00-0009-88.png
14,852,0,1443629998855,1443629999470,509,368,0,0,0,5,4,1,32,0001-00-0009-33.png,0005-00-0009-36.png
14,853,1,1443629999505,1443630000130,910,499,0,0,0,3,4,3,14,0003-00-0003-47.png,0005-00-0009-57.png
14,854,1,1443630000151,1443630000392,920,391,0,0,0,2,3,3,25,0002-00-0000-28.png,0003-00-0008-45.png
14,855,1,1443630000422,1443630000820,930,402,0,0,0,3,2,3,41,0003-00-0002-93.png,0002-00-0008-74.png
14,856,1,1443630000858,1443630001756,888,384,0,0,0,5,4,2,13,0001-00-0006-30.png,0005-00-0000-50.png
14,857,0,1443630001795,1443630002260,472,373,0,0,0,3,4,1,23,0003-00-0009-85.png,0005-00-0003-49.png
14,858,0,1443630002282,1443630002752,913,384,0,0,0,3,2,1,32,0003-00-0000-59.png,0002-00-0004-74.png
14,859,1,1443630002774,1443630003287,375,413,0,0,0,5,4,3,14,0001-00-0002-15.png,0005-00-0007-36.png
14,860,1,1443630003310,1443630003747,918,439,0,0,0,2,1,3,41,0002-00-0001-53.png,0004-00-0000-06.png
14,861,1,1443630003767,1443630004148,359,383,0,0,0,1,2,3,25,0004-00-0009-55.png,0002-00-0003-44.png
14,862,0,1443630004181,1443630004857,391,497,0,0,0,2,3,2,13,0002-00-0002-37.png,0003-00-0007-39.png
14,863,1,1443630004894,1443630005478,900,383,0,0,0,4,3,2,31,0005-00-0004-43.png,0003-00-0000-50.png
14,864,0,1443630005520,1443630005681,936,393,0,0,0,5,4,3,52,0001-00-0003-85.png,0005-00-0000-69.png
14,865,0,1443630005700,1443630006282,924,382,0,0,0,5,4,1,32,0001-00-0001-78.png,0005-00-0003-61.png
14,866,0,1443630006309,1443630006970,362,386,0,0,0,3,2,1,23,0003-00-0003-02.png,0002-00-0002-57.png
14,867,0,1443630006996,1443630007566,875,449,0,0,0,2,1,3,41,0002-00-0008-78.png,0004-00-0005-72.png
14,868,0,1443630007588,1443630008870,334,402,0,0,0,4,3,3,25,0005-00-0004-93.png,0003-00-0001-92.png
14,869,1,1443630008908,1443630009179,349,486,0,0,0,5,4,2,13,0001-00-0003-63.png,0005-00-0000-22.png
14,870,1,1443630009197,1443630010167,875,397,0,0,0,2,3,3,14,0002-00-0008-97.png,0003-00-0008-07.png
14,871,1,1443630010193,1443630010863,922,445,0,0,0,3,4,3,52,0003-00-0004-98.png,0005-00-0000-20.png
14,872,0,1443630010902,1443630011160,893,494,0,0,0,1,2,2,31,0004-00-0005-67.png,0002-00-0009-09.png
14,873,0,1443630011203,1443630011550,879,444,0,0,0,5,4,3,52,0001-00-0004-19.png,0005-00-0000-31.png
14,874,1,1443630011580,1443630012245,359,414,0,0,0,2,3,1,23,0002-00-0001-38.png,0003-00-0006-06.png
14,875,0,1443630012271,1443630012722,360,437,0,0,0,3,2,3,14,0003-00-0007-47.png,0002-00-0001-34.png
14,876,0,1443630012745,1443630013051,338,410,0,0,0,1,2,2,13,0004-00-0003-27.png,0002-00-0001-97.png
14,877,0,1443630013081,1443630013942,376,358,0,0,0,4,3,3,41,0005-00-0003-71.png,0003-00-0007-19.png
14,878,1,1443630013990,1443630014499,409,495,0,0,0,2,1,2,31,0002-00-0000-87.png,0004-00-0005-98.png
14,879,1,1443630014529,1443630014908,519,407,0,0,0,3,4,1,32,0003-00-0008-47.png,0005-00-0009-37.png
14,880,1,1443630014950,1443630015351,514,315,0,0,0,5,4,3,25,0001-00-0005-31.png,0005-00-0009-77.png
14,881,1,1443630015367,1443630015677,932,371,0,0,0,5,4,3,52,0001-00-0000-80.png,0005-00-0000-97.png
14,882,1,1443630015696,1443630015907,900,436,0,0,0,1,2,3,25,0004-00-0009-94.png,0002-00-0009-07.png
14,883,1,1443630015924,1443630016839,917,417,0,0,0,2,3,1,32,0002-00-0001-63.png,0003-00-0006-93.png
14,884,0,1443630016885,1443630017230,313,388,0,0,0,3,2,3,14,0003-00-0002-96.png,0002-00-0002-52.png
14,885,0,1443630017265,1443630017568,953,444,0,0,0,3,4,3,41,0003-00-0003-28.png,0005-00-0000-39.png
14,886,1,1443630017598,1443630017788,344,384,0,0,0,4,3,2,13,0005-00-0009-13.png,0003-00-0009-93.png
14,887,1,1443630017822,1443630018665,873,483,0,0,0,2,1,2,31,0002-00-0004-21.png,0004-00-0007-43.png
14,888,0,1443630018686,1443630018975,314,371,0,0,0,5,4,1,23,0001-00-0003-23.png,0005-00-0009-36.png
14,889,1,1443630018994,1443630019421,379,389,0,0,0,5,4,3,41,0001-00-0009-83.png,0005-00-0009-85.png
14,890,1,1443630019457,1443630019882,336,372,0,0,0,1,2,1,23,0004-00-0001-77.png,0002-00-0005-48.png
14,891,1,1443630019901,1443630020577,366,432,0,0,0,3,2,3,14,0003-00-0008-65.png,0002-00-0004-15.png
14,892,1,1443630020603,1443630021564,926,449,0,0,0,2,3,1,32,0002-00-0005-13.png,0003-00-0009-79.png
14,893,1,1443630021588,1443630021965,329,418,0,0,0,5,4,2,13,0001-00-0002-83.png,0005-00-0001-28.png
14,894,0,1443630021984,1443630023613,478,450,0,0,0,4,3,2,31,0005-00-0006-90.png,0003-00-0005-42.png
14,895,1,1443630023638,1443630023978,350,372,0,0,0,2,1,3,25,0002-00-0000-99.png,0004-00-0003-61.png
14,896,1,1443630024013,1443630024433,376,412,0,0,0,3,4,3,52,0003-00-0001-78.png,0005-00-0008-27.png
14,897,1,1443630024460,1443630024986,322,396,0,0,0,5,4,3,14,0001-00-0003-71.png,0005-00-0002-93.png
14,898,1,1443630025016,1443630025713,427,502,0,0,0,3,2,2,31,0003-00-0002-74.png,0002-00-0000-94.png
14,899,1,1443630025742,1443630026310,927,358,0,0,0,3,4,3,41,0003-00-0002-93.png,0005-00-0004-78.png
14,900,0,1443630026340,1443630026815,900,386,0,0,0,5,4,1,32,0001-00-0003-39.png,0005-00-0000-00.png
14,901,0,1443630026836,1443630027556,286,381,0,0,0,4,3,1,23,0005-00-0006-07.png,0003-00-0002-90.png
14,902,1,1443630027585,1443630028044,868,455,0,0,0,2,1,2,13,0002-00-0004-74.png,0004-00-0007-45.png
14,903,1,1443630028071,1443630029068,294,395,0,0,0,2,3,3,25,0002-00-0000-51.png,0003-00-0006-79.png
14,904,1,1443630029094,1443630029509,376,391,0,0,0,1,2,3,52,0004-00-0001-05.png,0002-00-0001-87.png
14,905,1,1443630029537,1443630029662,517,447,0,0,0,3,4,3,25,0003-00-0007-81.png,0005-00-0009-31.png
14,906,0,1443630029684,1443630029958,899,483,0,0,0,2,3,1,32,0002-00-0006-27.png,0003-00-0000-36.png
14,907,1,1443630029984,1443630030554,367,547,0,0,0,5,4,1,23,0001-00-0003-66.png,0005-00-0005-02.png
14,908,0,1443630030575,1443630031259,352,407,0,0,0,1,2,2,13,0004-00-0005-64.png,0002-00-0000-33.png
14,909,0,1443630031278,1443630031653,309,422,0,0,0,3,2,3,14,0003-00-0004-66.png,0002-00-0005-51.png
14,910,1,1443630031677,1443630031870,369,377,0,0,0,4,3,2,31,0005-00-0004-11.png,0003-00-0004-24.png
14,911,1,1443630031887,1443630032862,916,448,0,0,0,2,1,3,52,0002-00-0003-53.png,0004-00-0002-80.png
14,912,0,1443630032881,1443630033342,350,396,0,0,0,5,4,3,41,0001-00-0006-48.png,0005-00-0008-15.png
14,913,1,1443630033370,1443630033927,952,385,0,0,0,2,1,3,52,0002-00-0008-37.png,0004-00-0009-62.png
14,914,0,1443630033963,1443630034637,326,396,0,0,0,4,3,3,14,0005-00-0004-00.png,0003-00-0006-49.png
14,915,0,1443630034665,1443630035307,335,404,0,0,0,3,4,1,23,0003-00-0005-23.png,0005-00-0003-99.png
14,916,0,1443630035359,1443630036501,900,411,0,0,0,2,3,3,41,0002-00-0002-44.png,0003-00-0006-56.png
14,917,1,1443630036528,1443630037062,866,494,0,0,0,3,2,2,31,0003-00-0003-39.png,0002-00-0006-05.png
14,918,0,1443630037078,1443630037341,359,382,0,0,0,5,4,1,32,0001-00-0002-42.png,0005-00-0008-44.png
14,919,0,1443630037375,1443630037749,367,443,0,0,0,5,4,3,25,0001-00-0003-77.png,0005-00-0004-93.png
14,920,1,1443630037766,1443630038295,397,499,0,0,0,1,2,2,13,0004-00-0000-92.png,0002-00-0000-27.png
14,921,1,1443630038327,1443630039282,324,438,0,0,0,5,4,2,13,0001-00-0004-59.png,0005-00-0001-18.png
14,922,1,1443630039321,1443630040176,314,414,0,0,0,3,2,3,25,0003-00-0001-75.png,0002-00-0001-21.png
14,923,1,1443630040208,1443630041174,344,401,0,0,0,3,4,2,31,0003-00-0009-81.png,0005-00-0002-24.png
14,924,0,1443630041209,1443630041760,902,442,0,0,0,2,1,3,52,0002-00-0002-88.png,0004-00-0002-66.png
14,925,1,1443630041779,1443630042075,919,401,0,0,0,5,4,3,41,0001-00-0001-58.png,0005-00-0003-25.png
14,926,1,1443630042100,1443630042237,385,426,0,0,0,4,3,1,23,0005-00-0009-30.png,0003-00-0001-51.png
14,927,1,1443630042256,1443630042998,921,400,0,0,0,1,2,1,32,0004-00-0004-54.png,0002-00-0006-74.png
14,928,0,1443630043024,1443630043371,323,404,0,0,0,2,3,3,14,0002-00-0007-78.png,0003-00-0001-80.png
14,929,0,1443630043403,1443630044004,319,395,0,0,0,2,3,3,25,0002-00-0000-07.png,0003-00-0007-09.png
14,930,1,1443630044036,1443630044387,504,451,0,0,0,5,4,2,31,0001-00-0002-96.png,0005-00-0000-90.png
14,931,0,1443630044415,1443630044782,930,440,0,0,0,3,2,1,32,0003-00-0005-56.png,0002-00-0001-45.png
14,932,1,1443630044801,1443630045353,298,406,0,0,0,3,4,3,52,0003-00-0003-00.png,0005-00-0008-69.png
14,933,0,1443630045395,1443630046004,889,396,0,0,0,4,3,3,14,0005-00-0004-94.png,0003-00-0007-27.png
14,934,0,1443630046028,1443630046382,869,340,0,0,0,2,1,3,41,0002-00-0004-99.png,0004-00-0002-51.png
14,935,0,1443630046412,1443630047325,894,469,0,0,0,5,4,2,13,0001-00-0002-08.png,0005-00-0002-40.png
14,936,1,1443630047352,1443630047623,327,361,0,0,0,1,2,1,23,0004-00-0000-61.png,0002-00-0008-77.png
14,937,1,1443630047652,1443630048039,356,351,0,0,0,5,4,3,14,0001-00-0001-94.png,0005-00-0000-50.png
14,938,0,1443630048074,1443630048811,415,555,0,0,0,1,2,2,31,0004-00-0008-88.png,0002-00-0007-52.png
14,939,1,1443630048834,1443630049287,922,471,0,0,0,2,3,3,41,0002-00-0000-80.png,0003-00-0005-44.png
14,940,1,1443630049319,1443630049692,896,445,0,0,0,5,4,3,52,0001-00-0003-84.png,0005-00-0005-79.png
14,941,1,1443630049738,1443630050551,303,391,0,0,0,3,2,1,23,0003-00-0003-07.png,0002-00-0004-03.png
14,942,0,1443630050571,1443630051625,923,482,0,0,0,3,4,1,32,0003-00-0007-48.png,0005-00-0007-65.png
14,943,0,1443630051652,1443630052307,281,393,0,0,0,4,3,3,25,0005-00-0005-78.png,0003-00-0001-25.png
14,944,1,1443630052335,1443630052981,329,402,0,0,0,2,1,2,13,0002-00-0007-96.png,0004-00-0008-09.png
14,945,0,1443630053003,1443630053561,320,388,0,0,0,3,2,3,14,0003-00-0000-70.png,0002-00-0006-17.png
14,946,1,1443630053587,1443630054590,376,358,0,0,0,4,3,1,32,0005-00-0004-36.png,0003-00-0008-94.png
14,947,1,1443630054622,1443630055075,350,332,0,0,0,1,2,1,23,0004-00-0008-53.png,0002-00-0002-63.png
14,948,1,1443630055097,1443630055524,888,486,0,0,0,5,4,3,25,0001-00-0009-68.png,0005-00-0002-71.png
14,949,1,1443630055561,1443630056488,507,388,0,0,0,3,4,3,52,0003-00-0002-59.png,0005-00-0000-93.png
14,950,0,1443630056516,1443630056936,498,399,0,0,0,5,4,2,13,0001-00-0002-05.png,0005-00-0003-44.png
14,951,0,1443630056963,1443630057520,299,407,0,0,0,2,1,3,41,0002-00-0000-26.png,0004-00-0003-93.png
14,952,1,1443630057552,1443630057899,901,424,0,0,0,2,3,2,31,0002-00-0003-07.png,0003-00-0005-84.png
14,953,1,1443630057925,1443630058243,900,470,0,0,0,2,3,3,52,0002-00-0006-95.png,0003-00-0002-69.png
14,954,0,1443630058277,1443630058792,900,410,0,0,0,2,1,3,41,0002-00-0001-67.png,0004-00-0004-57.png
14,955,0,1443630058812,1443630059374,865,442,0,0,0,5,4,1,23,0001-00-0009-59.png,0005-00-0006-64.png
14,956,0,1443630059414,1443630059812,325,409,0,0,0,3,2,3,25,0003-00-0004-55.png,0002-00-0003-98.png
14,957,0,1443630059838,1443630060360,289,483,0,0,0,5,4,3,14,0001-00-0009-17.png,0005-00-0006-83.png
14,958,0,1443630060393,1443630061472,913,410,0,0,0,3,4,2,13,0003-00-0002-78.png,0005-00-0005-40.png
14,959,0,1443630061500,1443630061978,932,516,0,0,0,4,3,1,32,0005-00-0006-09.png,0003-00-0000-34.png
14,960,1,1443630062011,1443630062220,898,410,0,0,0,1,2,2,31,0004-00-0001-36.png,0002-00-0002-02.png
14,961,1,1443630062240,1443630062475,331,422,0,0,0,2,1,2,13,0002-00-0006-25.png,0004-00-0005-66.png
14,962,0,1443630062497,1443630063571,880,489,0,0,0,2,3,3,25,0002-00-0008-34.png,0003-00-0001-92.png
14,963,1,1443630063594,1443630064107,339,369,0,0,0,4,3,1,23,0005-00-0002-90.png,0003-00-0004-76.png
14,964,0,1443630064126,1443630064471,358,394,0,0,0,1,2,3,14,0004-00-0000-73.png,0002-00-0002-29.png
14,965,1,1443630064498,1443630065038,931,428,0,0,0,3,4,1,32,0003-00-0009-09.png,0005-00-0005-03.png
14,966,1,1443630065077,1443630065507,495,481,0,0,0,3,2,2,31,0003-00-0000-90.png,0002-00-0002-25.png
14,967,1,1443630065552,1443630065857,930,376,0,0,0,5,4,3,52,0001-00-0001-00.png,0005-00-0001-84.png
14,968,0,1443630065891,1443630066221,918,495,0,0,0,5,4,3,41,0001-00-0001-61.png,0005-00-0006-54.png
14,969,1,1443630066255,1443630066490,928,491,0,0,0,3,2,3,52,0003-00-0002-27.png,0002-00-0003-39.png
14,970,1,1443630066512,1443630067583,894,409,0,0,0,3,4,2,13,0003-00-0001-13.png,0005-00-0008-27.png
14,971,1,1443630067607,1443630067928,364,380,0,0,0,5,4,3,14,0001-00-0008-07.png,0005-00-0007-00.png
14,972,0,1443630067964,1443630068223,310,394,0,0,0,1,2,2,31,0004-00-0005-47.png,0002-00-0003-45.png
14,973,0,1443630068269,1443630069550,409,481,0,0,0,4,3,1,23,0005-00-0007-27.png,0003-00-0005-61.png
14,974,0,1443630069573,1443630070184,923,455,0,0,0,5,4,3,25,0001-00-0008-36.png,0005-00-0004-60.png
14,975,0,1443630070224,1443630071019,949,389,0,0,0,2,1,3,41,0002-00-0008-38.png,0004-00-0003-51.png
14,976,0,1443630071046,1443630071405,401,553,0,0,0,2,3,1,32,0002-00-0002-26.png,0003-00-0008-92.png
14,977,0,1443630071422,1443630071940,984,416,0,0,0,1,2,3,52,0004-00-0004-30.png,0002-00-0006-24.png
14,978,0,1443630071967,1443630072272,939,410,0,0,0,5,4,1,32,0001-00-0001-30.png,0005-00-0003-12.png
14,979,0,1443630072290,1443630072729,335,402,0,0,0,3,4,1,23,0003-00-0003-65.png,0005-00-0005-41.png
14,980,1,1443630072750,1443630073206,875,438,0,0,0,2,3,2,13,0002-00-0002-73.png,0003-00-0000-15.png
14,981,0,1443630073231,1443630073535,905,402,0,0,0,2,1,3,41,0002-00-0005-13.png,0004-00-0003-08.png
14,982,0,1443630073564,1443630074013,878,441,0,0,0,3,2,3,25,0003-00-0008-73.png,0002-00-0004-09.png
14,983,1,1443630074039,1443630074800,932,403,0,0,0,4,3,2,31,0005-00-0006-78.png,0003-00-0000-70.png
14,984,0,1443630074833,1443630075149,392,432,0,0,0,5,4,3,14,0001-00-0004-63.png,0005-00-0008-77.png
14,985,0,1443630075181,1443630075474,293,447,0,0,0,5,4,1,23,0001-00-0002-97.png,0005-00-0001-59.png
14,986,1,1443630075507,1443630076063,361,452,0,0,0,2,3,3,25,0002-00-0009-19.png,0003-00-0008-79.png
14,987,1,1443630076097,1443630076631,324,397,0,0,0,2,1,3,14,0002-00-0009-71.png,0004-00-0003-11.png
14,988,1,1443630076655,1443630077206,343,429,0,0,0,4,3,2,13,0005-00-0002-45.png,0003-00-0006-71.png
14,989,1,1443630077238,1443630077543,894,463,0,0,0,3,4,3,41,0003-00-0007-71.png,0005-00-0002-72.png
