subject_id,trial,correct_response,stim_time,response_time,x_coord,y_coord,trial_timeout,timeout_time,interTrial_timeout,left_rank,right_rank,distance,joint_rank,left_image,right_image
14,1,1,1444234140029,1444234140511,934,428,0,0,0,5,4,1,54,0001-00-0002-79.png,0005-00-0004-64.png
14,2,1,1444234140543,1444234141679,401,474,0,0,0,2,1,1,21,0002-00-0004-79.png,0004-00-0003-01.png
14,3,0,1444234141704,1444234142184,913,449,0,0,0,4,3,1,43,0005-00-0001-38.png,0003-00-0003-84.png
14,4,0,1444234142223,1444234142597,317,367,0,0,0,1,2,1,12,0004-00-0003-30.png,0002-00-0007-81.png
14,5,0,1444234142625,1444234143206,928,387,0,0,0,2,3,1,23,0002-00-0004-87.png,0003-00-0004-81.png
14,6,0,1444234143241,1444234143490,872,366,0,0,0,3,2,1,32,0003-00-0004-69.png,0002-00-0000-86.png
14,7,0,1444234143512,1444234144027,285,369,0,0,0,5,4,1,54,0001-00-0004-23.png,0005-00-0009-15.png
14,8,0,1444234144055,1444234144401,903,470,0,0,0,3,4,1,34,0003-00-0005-11.png,0005-00-0003-14.png
14,9,1,1444234144431,1444234144928,331,461,0,0,0,2,1,1,21,0002-00-0008-61.png,0004-00-0001-16.png
14,10,0,1444234144954,1444234145255,340,389,0,0,0,5,4,1,54,0001-00-0004-72.png,0005-00-0001-92.png
14,11,1,1444234145290,1444234145636,926,410,0,0,0,1,2,1,12,0004-00-0001-07.png,0002-00-0000-66.png
14,12,0,1444234145656,1444234145867,197,436,0,0,0,2,3,1,23,0002-00-0005-11.png,0003-00-0001-87.png
14,13,0,1444234145908,1444234146187,953,388,0,0,0,4,3,1,43,0005-00-0008-41.png,0003-00-0001-63.png
14,14,0,1444234146221,1444234146562,914,431,0,0,0,3,2,1,32,0003-00-0007-61.png,0002-00-0004-85.png
14,15,0,1444234146589,1444234147444,903,492,0,0,0,5,4,1,54,0001-00-0009-68.png,0005-00-0002-83.png
14,16,0,1444234147465,1444234147803,943,391,0,0,0,3,4,1,34,0003-00-0008-96.png,0005-00-0006-24.png
14,17,1,1444234147835,1444234148405,921,415,0,0,0,2,3,1,23,0002-00-0005-23.png,0003-00-0001-96.png
14,18,1,1444234148429,1444234148912,490,275,0,0,0,2,1,1,21,0002-00-0006-40.png,0004-00-0004-31.png
14,19,1,1444234148933,1444234149500,873,483,0,0,0,5,4,1,54,0001-00-0002-59.png,0005-00-0004-39.png
14,20,1,1444234149523,1444234150131,349,461,0,0,0,1,2,1,12,0004-00-0006-83.png,0002-00-0001-76.png
14,21,0,1444234150160,1444234151126,925,464,0,0,0,3,4,1,34,0003-00-0006-64.png,0005-00-0007-47.png
14,22,1,1444234151158,1444234151789,350,436,0,0,0,4,3,1,43,0005-00-0003-13.png,0003-00-0007-04.png
14,23,0,1444234151817,1444234152397,926,384,0,0,0,5,4,1,54,0001-00-0008-29.png,0005-00-0002-09.png
14,24,1,1444234152430,1444234152899,925,480,0,0,0,3,2,1,32,0003-00-0003-34.png,0002-00-0006-10.png
14,25,1,1444234152923,1444234153248,368,375,0,0,0,2,1,1,21,0002-00-0003-17.png,0004-00-0008-07.png
14,26,0,1444234153274,1444234153622,313,411,0,0,0,5,4,1,54,0001-00-0005-22.png,0005-00-0009-76.png
14,27,1,1444234153647,1444234154458,453,425,0,0,0,3,4,1,34,0003-00-0003-44.png,0005-00-0000-95.png
14,28,0,1444234154488,1444234154731,950,359,0,0,0,1,2,1,12,0004-00-0009-60.png,0002-00-0009-74.png
14,29,1,1444234154751,1444234155088,866,326,0,0,0,4,3,1,43,0005-00-0007-54.png,0003-00-0000-69.png
14,30,0,1444234155114,1444234155464,945,389,0,0,0,2,3,1,23,0002-00-0008-47.png,0003-00-0001-44.png
14,31,1,1444234155494,1444234156008,340,376,0,0,0,5,4,1,54,0001-00-0001-56.png,0005-00-0000-54.png
14,32,1,1444234156041,1444234156635,887,372,0,0,0,3,2,1,32,0003-00-0007-27.png,0002-00-0002-43.png
14,33,0,1444234156671,1444234157393,926,450,0,0,0,5,4,1,54,0001-00-0005-37.png,0005-00-0005-70.png
14,34,0,1444234157416,1444234158497,905,453,0,0,0,1,2,1,12,0004-00-0004-84.png,0002-00-0006-80.png
14,35,1,1444234158527,1444234159270,329,387,0,0,0,2,1,1,21,0002-00-0004-63.png,0004-00-0007-09.png
14,36,1,1444234159301,1444234159598,322,467,0,0,0,2,3,1,23,0002-00-0002-66.png,0003-00-0007-66.png
14,37,0,1444234159637,1444234160112,332,393,0,0,0,3,4,1,34,0003-00-0005-75.png,0005-00-0005-86.png
14,38,0,1444234160158,1444234160379,926,359,0,0,0,4,3,1,43,0005-00-0007-28.png,0003-00-0001-53.png
14,39,1,1444234160400,1444234160733,926,384,0,0,0,5,4,1,54,0001-00-0000-01.png,0005-00-0006-56.png
14,40,0,1444234160758,1444234161260,286,358,0,0,0,3,2,1,32,0003-00-0008-28.png,0002-00-0007-34.png
14,41,0,1444234161280,1444234161540,504,357,0,0,0,5,4,1,54,0001-00-0004-97.png,0005-00-0008-64.png
14,42,1,1444234161578,1444234162256,913,397,0,0,0,2,3,1,23,0002-00-0005-91.png,0003-00-0005-53.png
14,43,0,1444234162289,1444234162818,908,433,0,0,0,3,2,1,32,0003-00-0007-78.png,0002-00-0007-75.png
14,44,0,1444234162859,1444234163107,325,371,0,0,0,2,1,1,21,0002-00-0006-52.png,0004-00-0004-25.png
14,45,1,1444234163137,1444234163839,264,415,0,0,0,1,2,1,12,0004-00-0008-75.png,0002-00-0009-78.png
14,46,1,1444234163873,1444234164247,922,375,0,0,0,5,4,1,54,0001-00-0007-70.png,0005-00-0008-27.png
14,47,1,1444234164275,1444234164876,325,385,0,0,0,3,4,1,34,0003-00-0001-53.png,0005-00-0007-46.png
14,48,0,1444234164895,1444234165686,928,373,0,0,0,4,3,1,43,0005-00-0003-12.png,0003-00-0002-80.png
14,49,1,1444234165716,1444234166418,325,384,0,0,0,5,4,1,54,0001-00-0001-90.png,0005-00-0007-08.png
14,50,1,1444234166446,1444234166689,292,384,0,0,0,3,2,1,32,0003-00-0005-67.png,0002-00-0004-18.png
14,51,1,1444234166714,1444234167124,879,479,0,0,0,2,3,1,23,0002-00-0006-71.png,0003-00-0007-76.png
14,52,0,1444234167149,1444234167585,332,391,0,0,0,1,2,1,12,0004-00-0005-55.png,0002-00-0007-42.png
14,53,1,1444234167600,1444234168347,320,458,0,0,0,3,4,1,34,0003-00-0003-70.png,0005-00-0005-26.png
14,54,1,1444234168367,1444234168980,929,375,0,0,0,5,4,1,54,0001-00-0003-98.png,0005-00-0008-33.png
14,55,0,1444234169000,1444234169180,276,387,0,0,0,4,3,1,43,0005-00-0008-97.png,0003-00-0001-62.png
14,56,0,1444234169197,1444234169564,904,427,0,0,0,2,1,1,21,0002-00-0008-97.png,0004-00-0000-10.png
14,57,1,1444234169584,1444234169970,362,410,0,0,0,1,2,1,12,0004-00-0005-66.png,0002-00-0005-81.png
14,58,0,1444234169996,1444234170468,299,386,0,0,0,5,4,1,54,0001-00-0006-61.png,0005-00-0008-39.png
14,59,1,1444234170505,1444234170887,877,469,0,0,0,2,3,1,23,0002-00-0001-53.png,0003-00-0000-14.png
14,60,1,1444234170919,1444234171509,316,392,0,0,0,5,4,1,54,0001-00-0007-83.png,0005-00-0006-25.png
14,61,1,1444234171547,1444234171916,335,494,0,0,0,4,3,1,43,0005-00-0001-39.png,0003-00-0002-38.png
14,62,1,1444234171948,1444234172434,927,384,0,0,0,2,1,1,21,0002-00-0002-70.png,0004-00-0001-51.png
14,63,0,1444234172456,1444234172748,915,463,0,0,0,3,4,1,34,0003-00-0009-89.png,0005-00-0008-64.png
14,64,1,1444234172779,1444234173461,321,382,0,0,0,3,2,1,32,0003-00-0009-18.png,0002-00-0004-58.png
14,65,1,1444234173488,1444234174262,376,511,0,0,0,1,2,1,12,0004-00-0002-53.png,0002-00-0003-70.png
14,66,1,1444234174287,1444234174775,325,397,0,0,0,3,4,1,34,0003-00-0002-70.png,0005-00-0001-83.png
14,67,0,1444234174813,1444234175384,875,371,0,0,0,5,4,1,54,0001-00-0003-09.png,0005-00-0002-57.png
14,68,1,1444234175412,1444234175672,929,402,0,0,0,4,3,1,43,0005-00-0000-72.png,0003-00-0001-98.png
14,69,1,1444234175712,1444234176117,401,524,0,0,0,5,4,1,54,0001-00-0001-66.png,0005-00-0008-58.png
14,70,1,1444234176145,1444234176525,512,393,0,0,0,2,3,1,23,0002-00-0004-35.png,0003-00-0005-23.png
14,71,1,1444234176551,1444234177271,341,403,0,0,0,3,2,1,32,0003-00-0007-58.png,0002-00-0001-78.png
14,72,1,1444234177298,1444234177878,369,463,0,0,0,2,1,1,21,0002-00-0007-94.png,0004-00-0001-23.png
14,73,1,1444234177917,1444234178378,928,364,0,0,0,4,3,1,43,0005-00-0001-69.png,0003-00-0007-01.png
14,74,1,1444234178409,1444234179143,926,384,0,0,0,3,2,1,32,0003-00-0009-27.png,0002-00-0002-11.png
14,75,0,1444234179178,1444234179540,315,389,0,0,0,3,4,1,34,0003-00-0007-42.png,0005-00-0003-48.png
14,76,1,1444234179570,1444234179979,369,494,0,0,0,5,4,1,54,0001-00-0003-74.png,0005-00-0003-91.png
14,77,1,1444234180018,1444234180343,927,408,0,0,0,2,3,1,23,0002-00-0005-16.png,0003-00-0003-45.png
14,78,0,1444234180367,1444234180620,929,375,0,0,0,5,4,1,54,0001-00-0002-10.png,0005-00-0005-91.png
14,79,1,1444234180645,1444234181080,284,388,0,0,0,1,2,1,12,0004-00-0004-92.png,0002-00-0003-41.png
14,80,1,1444234181102,1444234181731,375,384,0,0,0,2,1,1,21,0002-00-0004-60.png,0004-00-0006-73.png
14,81,1,1444234181763,1444234182269,401,410,0,0,0,3,2,1,32,0003-00-0005-22.png,0002-00-0009-28.png
14,82,0,1444234182301,1444234182797,888,332,0,0,0,2,1,1,21,0002-00-0004-85.png,0004-00-0009-73.png
14,83,1,1444234182822,1444234183360,306,394,0,0,0,1,2,1,12,0004-00-0004-58.png,0002-00-0002-46.png
14,84,0,1444234183386,1444234183520,350,422,0,0,0,5,4,1,54,0001-00-0002-62.png,0005-00-0000-63.png
14,85,1,1444234183553,1444234184297,902,469,0,0,0,2,3,1,23,0002-00-0008-30.png,0003-00-0008-29.png
14,86,0,1444234184319,1444234187198,289,397,0,0,0,4,3,1,43,0005-00-0004-44.png,0003-00-0005-39.png
14,87,1,1444234187221,1444234188105,898,388,0,0,0,5,4,1,54,0001-00-0006-16.png,0005-00-0000-12.png
14,88,1,1444234188128,1444234188622,899,457,0,0,0,3,4,1,34,0003-00-0000-73.png,0005-00-0002-26.png
14,89,1,1444234188647,1444234189697,307,366,0,0,0,5,4,1,54,0001-00-0003-83.png,0005-00-0004-83.png
14,90,1,1444234189725,1444234189973,376,384,0,0,0,1,2,1,12,0004-00-0000-38.png,0002-00-0009-60.png
14,91,1,1444234190017,1444234191002,361,325,0,0,0,3,4,1,34,0003-00-0006-35.png,0005-00-0009-71.png
14,92,0,1444234191029,1444234191333,319,394,0,0,0,3,2,1,32,0003-00-0006-82.png,0002-00-0002-98.png
14,93,0,1444234191365,1444234192190,899,487,0,0,0,5,4,1,54,0001-00-0001-60.png,0005-00-0002-07.png
14,94,0,1444234192213,1444234192546,902,268,0,0,0,2,1,1,21,0002-00-0006-94.png,0004-00-0009-95.png
14,95,1,1444234192581,1444234193286,911,451,0,0,0,4,3,1,43,0005-00-0008-61.png,0003-00-0000-26.png
14,96,0,1444234193315,1444234194005,285,448,0,0,0,2,3,1,23,0002-00-0004-25.png,0003-00-0005-90.png
14,97,1,1444234194032,1444234194436,862,358,0,0,0,3,2,1,32,0003-00-0002-26.png,0002-00-0004-95.png
14,98,1,1444234194471,1444234194811,267,360,0,0,0,1,2,1,12,0004-00-0008-75.png,0002-00-0001-24.png
14,99,1,1444234194838,1444234194950,325,410,0,0,0,3,4,1,34,0003-00-0005-22.png,0005-00-0002-75.png
14,100,0,1444234194977,1444234195369,324,370,0,0,0,2,1,1,21,0002-00-0005-44.png,0004-00-0000-74.png
14,101,1,1444234195402,1444234195800,394,406,0,0,0,2,3,1,23,0002-00-0002-75.png,0003-00-0001-06.png
14,102,1,1444234195832,1444234196404,325,312,0,0,0,4,3,1,43,0005-00-0003-70.png,0003-00-0008-14.png
14,103,1,1444234196437,1444234196876,859,330,0,0,0,5,4,1,54,0001-00-0007-25.png,0005-00-0007-62.png
14,104,1,1444234196925,1444234197359,920,458,0,0,0,5,4,1,54,0001-00-0005-93.png,0005-00-0009-53.png
14,105,1,1444234197378,1444234197909,946,362,0,0,0,5,4,1,54,0001-00-0009-63.png,0005-00-0006-41.png
14,106,1,1444234197934,1444234198678,911,398,0,0,0,3,4,1,34,0003-00-0009-38.png,0005-00-0008-87.png
14,107,1,1444234198703,1444234199536,911,437,0,0,0,1,2,1,12,0004-00-0007-66.png,0002-00-0005-41.png
14,108,0,1444234199568,1444234199853,329,413,0,0,0,3,2,1,32,0003-00-0009-19.png,0002-00-0003-30.png
14,109,1,1444234199890,1444234200711,397,386,0,0,0,5,4,1,54,0001-00-0009-30.png,0005-00-0007-10.png
14,110,0,1444234200740,1444234201155,289,418,0,0,0,2,3,1,23,0002-00-0001-87.png,0003-00-0006-41.png
14,111,0,1444234201182,1444234201504,288,393,0,0,0,2,1,1,21,0002-00-0006-25.png,0004-00-0001-96.png
14,112,0,1444234201527,1444234201954,857,344,0,0,0,4,3,1,43,0005-00-0002-14.png,0003-00-0007-30.png
14,113,0,1444234201976,1444234202426,325,387,0,0,0,1,2,1,12,0004-00-0000-74.png,0002-00-0006-46.png
14,114,1,1444234202451,1444234202947,921,472,0,0,0,3,2,1,32,0003-00-0002-41.png,0002-00-0009-30.png
14,115,1,1444234202995,1444234203462,317,388,0,0,0,5,4,1,54,0001-00-0006-31.png,0005-00-0004-20.png
14,116,1,1444234203484,1444234204755,924,456,0,0,0,4,3,1,43,0005-00-0000-10.png,0003-00-0002-80.png
14,117,1,1444234204794,1444234205250,912,455,0,0,0,5,4,1,54,0001-00-0001-95.png,0005-00-0004-09.png
14,118,0,1444234205272,1444234205712,880,480,0,0,0,2,1,1,21,0002-00-0005-28.png,0004-00-0004-42.png
14,119,1,1444234205746,1444234205935,900,437,0,0,0,2,3,1,23,0002-00-0002-30.png,0003-00-0002-77.png
14,120,1,1444234205961,1444234207116,884,317,0,0,0,3,4,1,34,0003-00-0006-78.png,0005-00-0006-33.png
14,121,0,1444234207146,1444234207639,900,385,0,0,0,2,1,1,21,0002-00-0004-60.png,0004-00-0009-04.png
14,122,1,1444234207680,1444234207920,981,375,0,0,0,3,4,1,34,0003-00-0004-60.png,0005-00-0008-61.png
14,123,1,1444234207953,1444234208530,951,385,0,0,0,5,4,1,54,0001-00-0000-98.png,0005-00-0005-36.png
14,124,1,1444234208555,1444234208848,363,372,0,0,0,3,2,1,32,0003-00-0005-76.png,0002-00-0003-04.png
14,125,0,1444234208888,1444234210130,310,398,0,0,0,4,3,1,43,0005-00-0002-95.png,0003-00-0007-09.png
14,126,0,1444234210158,1444234210482,331,315,0,0,0,5,4,1,54,0001-00-0007-52.png,0005-00-0000-00.png
14,127,1,1444234210517,1444234210959,945,389,0,0,0,2,3,1,23,0002-00-0005-12.png,0003-00-0002-00.png
14,128,0,1444234210991,1444234211302,335,397,0,0,0,1,2,1,12,0004-00-0009-64.png,0002-00-0008-94.png
14,129,1,1444234211321,1444234211726,944,363,0,0,0,3,2,1,32,0003-00-0004-40.png,0002-00-0000-98.png
14,130,1,1444234211754,1444234212144,951,384,0,0,0,1,2,1,12,0004-00-0000-45.png,0002-00-0006-01.png
14,131,0,1444234212182,1444234212471,907,487,0,0,0,5,4,1,54,0001-00-0005-94.png,0005-00-0005-18.png
14,132,1,1444234212520,1444234213297,938,398,0,0,0,4,3,1,43,0005-00-0006-68.png,0003-00-0002-02.png
14,133,1,1444234213320,1444234213692,353,410,0,0,0,5,4,1,54,0001-00-0009-76.png,0005-00-0008-79.png
14,134,1,1444234213730,1444234214064,345,487,0,0,0,3,4,1,34,0003-00-0007-80.png,0005-00-0008-69.png
14,135,0,1444234214098,1444234214477,286,414,0,0,0,2,1,1,21,0002-00-0004-53.png,0004-00-0007-63.png
14,136,0,1444234214505,1444234215224,325,398,0,0,0,2,3,1,23,0002-00-0000-36.png,0003-00-0001-19.png
14,137,1,1444234215253,1444234215653,905,375,0,0,0,4,3,1,43,0005-00-0009-70.png,0003-00-0001-70.png
14,138,1,1444234215675,1444234216263,410,416,0,0,0,5,4,1,54,0001-00-0002-64.png,0005-00-0008-94.png
14,139,1,1444234216288,1444234217110,350,397,0,0,0,1,2,1,12,0004-00-0009-93.png,0002-00-0004-20.png
14,140,1,1444234217142,1444234217897,899,489,0,0,0,2,3,1,23,0002-00-0005-77.png,0003-00-0002-14.png
14,141,1,1444234217927,1444234218393,864,484,0,0,0,3,2,1,32,0003-00-0009-80.png,0002-00-0008-77.png
14,142,1,1444234218439,1444234218893,356,395,0,0,0,5,4,1,54,0001-00-0007-20.png,0005-00-0000-28.png
14,143,1,1444234218917,1444234219351,294,387,0,0,0,3,4,1,34,0003-00-0002-32.png,0005-00-0006-90.png
14,144,1,1444234219366,1444234220142,904,401,0,0,0,2,1,1,21,0002-00-0007-09.png,0004-00-0006-10.png
14,145,0,1444234220179,1444234221690,285,431,0,0,0,4,3,1,43,0005-00-0000-38.png,0003-00-0008-69.png
14,146,0,1444234221712,1444234222406,897,381,0,0,0,2,3,1,23,0002-00-0002-60.png,0003-00-0006-15.png
14,147,0,1444234222429,1444234223760,901,460,0,0,0,5,4,1,54,0001-00-0009-46.png,0005-00-0004-88.png
14,148,0,1444234223784,1444234224797,350,423,0,0,0,1,2,1,12,0004-00-0000-58.png,0002-00-0006-72.png
14,149,1,1444234224826,1444234225304,882,466,0,0,0,3,4,1,34,0003-00-0002-43.png,0005-00-0002-88.png
14,150,1,1444234225350,1444234225506,340,408,0,0,0,2,1,1,21,0002-00-0001-86.png,0004-00-0005-46.png
14,151,0,1444234225539,1444234225885,280,403,0,0,0,3,2,1,32,0003-00-0002-81.png,0002-00-0006-39.png
14,152,1,1444234225914,1444234226252,307,388,0,0,0,5,4,1,54,0001-00-0005-77.png,0005-00-0001-72.png
14,153,1,1444234226277,1444234227187,923,457,0,0,0,1,2,1,12,0004-00-0007-65.png,0002-00-0005-26.png
14,154,1,1444234227231,1444234227578,265,393,0,0,0,5,4,1,54,0001-00-0004-53.png,0005-00-0001-57.png
14,155,0,1444234227613,1444234228175,350,503,0,0,0,3,4,1,34,0003-00-0006-22.png,0005-00-0004-15.png
14,156,0,1444234228201,1444234228620,297,398,0,0,0,5,4,1,54,0001-00-0009-27.png,0005-00-0002-30.png
14,157,1,1444234228653,1444234229131,900,384,0,0,0,3,2,1,32,0003-00-0008-57.png,0002-00-0009-93.png
14,158,0,1444234229169,1444234229609,901,477,0,0,0,2,1,1,21,0002-00-0003-58.png,0004-00-0007-60.png
14,159,1,1444234229632,1444234229923,376,407,0,0,0,4,3,1,43,0005-00-0002-18.png,0003-00-0000-61.png
14,160,1,1444234229950,1444234230657,922,368,0,0,0,2,3,1,23,0002-00-0000-88.png,0003-00-0009-13.png
14,161,0,1444234230684,1444234231023,912,398,0,0,0,5,4,1,54,0001-00-0004-03.png,0005-00-0004-21.png
14,162,1,1444234231050,1444234231517,297,396,0,0,0,5,4,1,54,0001-00-0007-85.png,0005-00-0008-92.png
14,163,0,1444234231547,1444234231878,901,450,0,0,0,3,4,1,34,0003-00-0004-15.png,0005-00-0004-42.png
14,164,0,1444234231915,1444234232180,910,388,0,0,0,4,3,1,43,0005-00-0009-89.png,0003-00-0004-75.png
14,165,1,1444234232208,1444234232545,350,397,0,0,0,2,1,1,21,0002-00-0009-70.png,0004-00-0001-90.png
14,166,1,1444234232593,1444234233087,897,394,0,0,0,2,3,1,23,0002-00-0007-75.png,0003-00-0000-03.png
14,167,0,1444234233106,1444234233416,299,397,0,0,0,1,2,1,12,0004-00-0007-26.png,0002-00-0004-99.png
14,168,0,1444234233447,1444234233905,332,367,0,0,0,3,2,1,32,0003-00-0001-99.png,0002-00-0009-24.png
14,169,1,1444234233920,1444234234692,932,411,0,0,0,3,2,1,32,0003-00-0005-99.png,0002-00-0006-19.png
14,170,0,1444234234717,1444234235155,315,397,0,0,0,1,2,1,12,0004-00-0008-57.png,0002-00-0003-05.png
14,171,1,1444234235184,1444234235483,900,410,0,0,0,4,3,1,43,0005-00-0000-44.png,0003-00-0005-34.png
14,172,1,1444234235524,1444234236054,952,410,0,0,0,3,4,1,34,0003-00-0006-32.png,0005-00-0000-68.png
14,173,1,1444234236088,1444234236735,323,422,0,0,0,5,4,1,54,0001-00-0009-89.png,0005-00-0002-31.png
14,174,1,1444234236770,1444234237100,312,412,0,0,0,2,3,1,23,0002-00-0003-47.png,0003-00-0000-74.png
14,175,1,1444234237141,1444234237768,929,403,0,0,0,5,4,1,54,0001-00-0002-90.png,0005-00-0000-45.png
14,176,1,1444234237824,1444234239057,325,391,0,0,0,2,1,1,21,0002-00-0002-88.png,0004-00-0003-20.png
14,177,0,1444234239104,1444234239836,914,407,0,0,0,5,4,1,54,0001-00-0001-12.png,0005-00-0009-34.png
14,178,0,1444234239868,1444234240079,360,398,0,0,0,3,4,1,34,0003-00-0001-17.png,0005-00-0009-33.png
14,179,1,1444234240114,1444234240811,315,416,0,0,0,3,2,1,32,0003-00-0002-09.png,0002-00-0002-97.png
14,180,1,1444234240838,1444234241259,878,402,0,0,0,4,3,1,43,0005-00-0003-49.png,0003-00-0009-72.png
14,181,1,1444234241292,1444234241611,958,392,0,0,0,5,4,1,54,0001-00-0000-15.png,0005-00-0008-38.png
14,182,0,1444234241640,1444234242458,299,358,0,0,0,2,1,1,21,0002-00-0006-98.png,0004-00-0003-23.png
14,183,1,1444234242483,1444234242824,926,383,0,0,0,1,2,1,12,0004-00-0003-25.png,0002-00-0008-44.png
14,184,0,1444234242863,1444234243777,882,488,0,0,0,2,3,1,23,0002-00-0001-68.png,0003-00-0004-79.png
14,185,0,1444234243801,1444234244093,875,502,0,0,0,3,4,1,34,0003-00-0003-27.png,0005-00-0004-75.png
14,186,1,1444234244124,1444234244860,276,358,0,0,0,4,3,1,43,0005-00-0003-84.png,0003-00-0000-04.png
14,187,0,1444234244878,1444234245308,359,533,0,0,0,5,4,1,54,0001-00-0001-35.png,0005-00-0006-20.png
14,188,1,1444234245351,1444234245822,874,346,0,0,0,2,3,1,23,0002-00-0006-53.png,0003-00-0003-50.png
14,189,0,1444234245854,1444234246140,886,483,0,0,0,1,2,1,12,0004-00-0009-33.png,0002-00-0001-94.png
14,190,0,1444234246161,1444234246435,905,401,0,0,0,5,4,1,54,0001-00-0007-65.png,0005-00-0004-42.png
14,191,0,1444234246464,1444234246684,303,412,0,0,0,2,1,1,21,0002-00-0009-59.png,0004-00-0000-76.png
14,192,1,1444234246710,1444234247234,292,381,0,0,0,3,2,1,32,0003-00-0009-08.png,0002-00-0008-07.png
14,193,1,1444234247259,1444234247790,376,373,0,0,0,3,2,1,32,0003-00-0000-55.png,0002-00-0008-74.png
14,194,0,1444234247824,1444234248241,926,384,0,0,0,1,2,1,12,0004-00-0006-63.png,0002-00-0004-49.png
14,195,0,1444234248272,1444234248795,858,473,0,0,0,5,4,1,54,0001-00-0007-10.png,0005-00-0006-62.png
14,196,1,1444234248817,1444234249352,310,413,0,0,0,2,1,1,21,0002-00-0002-33.png,0004-00-0004-67.png
14,197,1,1444234249374,1444234249499,952,398,0,0,0,3,4,1,34,0003-00-0001-60.png,0005-00-0003-02.png
14,198,1,1444234249519,1444234250368,926,408,0,0,0,2,3,1,23,0002-00-0002-66.png,0003-00-0009-27.png
14,199,1,1444234250391,1444234250710,917,401,0,0,0,4,3,1,43,0005-00-0001-70.png,0003-00-0005-32.png
14,200,0,1444234250741,1444234251243,925,385,0,0,0,5,4,1,54,0001-00-0005-76.png,0005-00-0007-59.png
14,201,1,1444234251277,1444234252231,955,350,0,0,0,1,2,1,12,0004-00-0003-06.png,0002-00-0007-05.png
14,202,0,1444234252251,1444234252892,323,397,0,0,0,5,4,1,54,0001-00-0006-03.png,0005-00-0004-67.png
14,203,0,1444234252919,1444234253205,368,412,0,0,0,2,1,1,21,0002-00-0006-66.png,0004-00-0000-35.png
14,204,1,1444234253233,1444234254473,895,498,0,0,0,5,4,1,54,0001-00-0001-18.png,0005-00-0003-69.png
14,205,0,1444234254500,1444234254905,329,367,0,0,0,4,3,1,43,0005-00-0000-59.png,0003-00-0003-47.png
14,206,0,1444234254931,1444234255408,284,411,0,0,0,2,3,1,23,0002-00-0002-94.png,0003-00-0003-31.png
14,207,0,1444234255435,1444234256041,876,408,0,0,0,3,4,1,34,0003-00-0007-27.png,0005-00-0001-01.png
14,208,0,1444234256066,1444234256522,873,359,0,0,0,3,2,1,32,0003-00-0001-05.png,0002-00-0000-80.png
14,209,1,1444234256567,1444234257136,869,381,0,0,0,2,1,1,21,0002-00-0000-07.png,0004-00-0006-51.png
14,210,1,1444234257192,1444234257462,305,409,0,0,0,3,4,1,34,0003-00-0000-34.png,0005-00-0001-95.png
14,211,1,1444234257495,1444234257638,310,406,0,0,0,3,2,1,32,0003-00-0001-11.png,0002-00-0008-46.png
14,212,1,1444234257666,1444234258564,880,537,0,0,0,5,4,1,54,0001-00-0005-91.png,0005-00-0002-37.png
14,213,0,1444234258592,1444234258930,325,410,0,0,0,5,4,1,54,0001-00-0004-04.png,0005-00-0008-70.png
14,214,0,1444234258962,1444234259243,325,436,0,0,0,1,2,1,12,0004-00-0004-40.png,0002-00-0009-09.png
14,215,1,1444234259293,1444234259865,381,490,0,0,0,2,3,1,23,0002-00-0002-87.png,0003-00-0007-11.png
14,216,1,1444234259898,1444234260327,879,401,0,0,0,4,3,1,43,0005-00-0008-16.png,0003-00-0008-86.png
14,217,0,1444234260351,1444234260719,314,427,0,0,0,2,3,1,23,0002-00-0004-88.png,0003-00-0006-14.png
14,218,1,1444234260765,1444234261989,896,367,0,0,0,3,2,1,32,0003-00-0001-60.png,0002-00-0005-07.png
14,219,0,1444234262013,1444234262638,307,398,0,0,0,2,1,1,21,0002-00-0005-46.png,0004-00-0004-24.png
14,220,0,1444234262663,1444234263126,905,480,0,0,0,5,4,1,54,0001-00-0009-77.png,0005-00-0005-74.png
14,221,1,1444234263153,1444234263430,326,399,0,0,0,4,3,1,43,0005-00-0006-02.png,0003-00-0004-95.png
14,222,1,1444234263455,1444234263958,946,391,0,0,0,3,4,1,34,0003-00-0000-72.png,0005-00-0008-98.png
14,223,0,1444234263992,1444234264443,926,411,0,0,0,1,2,1,12,0004-00-0004-31.png,0002-00-0007-35.png
14,224,0,1444234264468,1444234265180,900,515,0,0,0,5,4,1,54,0001-00-0004-82.png,0005-00-0004-39.png
14,225,0,1444234265223,1444234265790,339,401,0,0,0,2,3,1,23,0002-00-0001-46.png,0003-00-0000-93.png
14,226,1,1444234265817,1444234267730,325,392,0,0,0,3,4,1,34,0003-00-0002-98.png,0005-00-0002-99.png
14,227,0,1444234267768,1444234268291,922,420,0,0,0,3,2,1,32,0003-00-0009-67.png,0002-00-0000-82.png
14,228,1,1444234268318,1444234268793,316,395,0,0,0,5,4,1,54,0001-00-0007-13.png,0005-00-0003-68.png
14,229,0,1444234268819,1444234269421,914,397,0,0,0,5,4,1,54,0001-00-0002-80.png,0005-00-0002-92.png
14,230,1,1444234269452,1444234269694,401,491,0,0,0,4,3,1,43,0005-00-0007-53.png,0003-00-0000-55.png
14,231,1,1444234269726,1444234269938,342,488,0,0,0,2,1,1,21,0002-00-0007-58.png,0004-00-0008-72.png
14,232,0,1444234269965,1444234270434,892,485,0,0,0,1,2,1,12,0004-00-0003-43.png,0002-00-0007-32.png
14,233,1,1444234270463,1444234271109,350,398,0,0,0,4,3,1,43,0005-00-0001-95.png,0003-00-0007-50.png
14,234,1,1444234271143,1444234271551,903,391,0,0,0,5,4,1,54,0001-00-0007-45.png,0005-00-0009-71.png
14,235,1,1444234271583,1444234272349,926,436,0,0,0,3,4,1,34,0003-00-0004-47.png,0005-00-0006-27.png
14,236,1,1444234272387,1444234273191,917,366,0,0,0,5,4,1,54,0001-00-0006-72.png,0005-00-0000-18.png
14,237,1,1444234273215,1444234274383,336,404,0,0,0,1,2,1,12,0004-00-0006-07.png,0002-00-0009-47.png
14,238,0,1444234274407,1444234274795,921,418,0,0,0,2,3,1,23,0002-00-0007-06.png,0003-00-0000-92.png
14,239,0,1444234274818,1444234275134,325,384,0,0,0,2,1,1,21,0002-00-0004-45.png,0004-00-0002-98.png
14,240,1,1444234275160,1444234275547,357,468,0,0,0,3,2,1,32,0003-00-0000-30.png,0002-00-0006-98.png
14,241,1,1444234275578,1444234276502,925,412,0,0,0,5,4,1,54,0001-00-0001-17.png,0005-00-0003-99.png
14,242,1,1444234276529,1444234276912,923,367,0,0,0,2,3,1,23,0002-00-0005-42.png,0003-00-0007-17.png
14,243,0,1444234276944,1444234277543,324,423,0,0,0,4,3,1,43,0005-00-0004-47.png,0003-00-0007-42.png
14,244,1,1444234277567,1444234277883,924,362,0,0,0,1,2,1,12,0004-00-0004-22.png,0002-00-0006-32.png
14,245,1,1444234277908,1444234278400,375,361,0,0,0,3,2,1,32,0003-00-0007-78.png,0002-00-0005-54.png
14,246,1,1444234278426,1444234279016,318,401,0,0,0,2,1,1,21,0002-00-0005-76.png,0004-00-0003-89.png
14,247,0,1444234279042,1444234279399,344,387,0,0,0,5,4,1,54,0001-00-0006-14.png,0005-00-0007-39.png
14,248,1,1444234279422,1444234280317,325,358,0,0,0,3,4,1,34,0003-00-0007-45.png,0005-00-0007-81.png
14,249,0,1444234280347,1444234280642,904,403,0,0,0,1,2,1,12,0004-00-0009-54.png,0002-00-0009-01.png
14,250,1,1444234280668,1444234281095,900,462,0,0,0,5,4,1,54,0001-00-0000-48.png,0005-00-0007-64.png
14,251,1,1444234281127,1444234281715,888,449,0,0,0,5,4,1,54,0001-00-0001-52.png,0005-00-0004-02.png
14,252,1,1444234281742,1444234282081,869,342,0,0,0,3,2,1,32,0003-00-0001-32.png,0002-00-0006-93.png
14,253,1,1444234282107,1444234282595,343,368,0,0,0,2,3,1,23,0002-00-0006-20.png,0003-00-0008-89.png
14,254,1,1444234282631,1444234282833,930,402,0,0,0,2,1,1,21,0002-00-0004-08.png,0004-00-0002-60.png
14,255,1,1444234282852,1444234283545,356,385,0,0,0,4,3,1,43,0005-00-0008-57.png,0003-00-0002-97.png
14,256,1,1444234283565,1444234285092,325,397,0,0,0,3,4,1,34,0003-00-0008-41.png,0005-00-0009-51.png
14,257,1,1444234285112,1444234285459,318,410,0,0,0,2,3,1,23,0002-00-0008-11.png,0003-00-0007-58.png
14,258,0,1444234285499,1444234285980,319,426,0,0,0,5,4,1,54,0001-00-0008-43.png,0005-00-0003-94.png
14,259,0,1444234286045,1444234286492,298,403,0,0,0,3,4,1,34,0003-00-0004-84.png,0005-00-0007-02.png
14,260,0,1444234286510,1444234287824,926,397,0,0,0,2,1,1,21,0002-00-0006-99.png,0004-00-0001-89.png
14,261,1,1444234287850,1444234288354,926,437,0,0,0,3,2,1,32,0003-00-0006-01.png,0002-00-0002-56.png
14,262,0,1444234288396,1444234288761,880,506,0,0,0,5,4,1,54,0001-00-0005-73.png,0005-00-0008-96.png
14,263,1,1444234288784,1444234289965,898,506,0,0,0,1,2,1,12,0004-00-0009-27.png,0002-00-0002-85.png
14,264,0,1444234289985,1444234290514,401,498,0,0,0,4,3,1,43,0005-00-0005-39.png,0003-00-0006-11.png
14,265,1,1444234290545,1444234291040,333,407,0,0,0,5,4,1,54,0001-00-0004-62.png,0005-00-0007-12.png
14,266,0,1444234291072,1444234291931,897,393,0,0,0,2,1,1,21,0002-00-0008-12.png,0004-00-0007-69.png
14,267,0,1444234291960,1444234292091,878,427,0,0,0,3,2,1,32,0003-00-0002-18.png,0002-00-0007-29.png
14,268,1,1444234292112,1444234292338,340,403,0,0,0,3,4,1,34,0003-00-0000-29.png,0005-00-0009-02.png
14,269,0,1444234292372,1444234293489,341,457,0,0,0,1,2,1,12,0004-00-0007-27.png,0002-00-0006-58.png
14,270,1,1444234293518,1444234293940,905,416,0,0,0,4,3,1,43,0005-00-0000-07.png,0003-00-0007-96.png
14,271,1,1444234293975,1444234294769,293,358,0,0,0,5,4,1,54,0001-00-0005-76.png,0005-00-0003-04.png
14,272,0,1444234294795,1444234295219,938,371,0,0,0,2,3,1,23,0002-00-0007-11.png,0003-00-0003-38.png
14,273,1,1444234295242,1444234295465,922,375,0,0,0,3,2,1,32,0003-00-0002-11.png,0002-00-0005-42.png
14,274,0,1444234295504,1444234295846,933,384,0,0,0,3,4,1,34,0003-00-0001-27.png,0005-00-0008-39.png
14,275,0,1444234295875,1444234296232,319,409,0,0,0,2,3,1,23,0002-00-0007-73.png,0003-00-0007-76.png
14,276,0,1444234296258,1444234296477,926,488,0,0,0,2,1,1,21,0002-00-0005-72.png,0004-00-0005-44.png
14,277,1,1444234296517,1444234297264,889,501,0,0,0,5,4,1,54,0001-00-0001-92.png,0005-00-0003-23.png
14,278,1,1444234297308,1444234297481,931,427,0,0,0,5,4,1,54,0001-00-0006-10.png,0005-00-0001-67.png
14,279,1,1444234297499,1444234298137,350,398,0,0,0,4,3,1,43,0005-00-0004-48.png,0003-00-0006-84.png
14,280,0,1444234298165,1444234298613,945,492,0,0,0,1,2,1,12,0004-00-0001-08.png,0002-00-0000-00.png
14,281,1,1444234298652,1444234299381,350,423,0,0,0,1,2,1,12,0004-00-0004-55.png,0002-00-0001-25.png
14,282,1,1444234299402,1444234299843,898,346,0,0,0,5,4,1,54,0001-00-0000-08.png,0005-00-0007-83.png
14,283,1,1444234299861,1444234300227,356,412,0,0,0,2,1,1,21,0002-00-0009-46.png,0004-00-0009-51.png
14,284,0,1444234300252,1444234300632,911,473,0,0,0,3,4,1,34,0003-00-0004-60.png,0005-00-0004-71.png
14,285,1,1444234300650,1444234300974,900,507,0,0,0,2,3,1,23,0002-00-0002-09.png,0003-00-0002-46.png
14,286,0,1444234301009,1444234301706,307,400,0,0,0,4,3,1,43,0005-00-0001-73.png,0003-00-0004-61.png
14,287,0,1444234301735,1444234302566,293,390,0,0,0,5,4,1,54,0001-00-0000-63.png,0005-00-0001-91.png
14,288,1,1444234302592,1444234303351,314,395,0,0,0,3,2,1,32,0003-00-0009-26.png,0002-00-0002-26.png
14,289,1,1444234303377,1444234303941,937,398,0,0,0,5,4,1,54,0001-00-0001-95.png,0005-00-0002-50.png
14,290,0,1444234303976,1444234304310,352,384,0,0,0,3,2,1,32,0003-00-0004-32.png,0002-00-0009-55.png
14,291,1,1444234304342,1444234304850,401,410,0,0,0,4,3,1,43,0005-00-0008-17.png,0003-00-0004-73.png
14,292,1,1444234304874,1444234305236,370,390,0,0,0,2,3,1,23,0002-00-0007-65.png,0003-00-0009-29.png
14,293,0,1444234305258,1444234305704,930,402,0,0,0,5,4,1,54,0001-00-0002-83.png,0005-00-0008-43.png
14,294,0,1444234305738,1444234306051,927,392,0,0,0,1,2,1,12,0004-00-0009-32.png,0002-00-0001-61.png
14,295,0,1444234306080,1444234306563,899,360,0,0,0,3,4,1,34,0003-00-0001-30.png,0005-00-0003-10.png
14,296,1,1444234306596,1444234306840,270,335,0,0,0,2,1,1,21,0002-00-0005-68.png,0004-00-0007-66.png
14,297,1,1444234306868,1444234307865,886,398,0,0,0,4,3,1,43,0005-00-0003-49.png,0003-00-0000-72.png
14,298,0,1444234307892,1444234308183,307,401,0,0,0,5,4,1,54,0001-00-0003-99.png,0005-00-0001-81.png
14,299,0,1444234308210,1444234308961,365,481,0,0,0,2,1,1,21,0002-00-0004-20.png,0004-00-0006-65.png
14,300,1,1444234308989,1444234309336,297,398,0,0,0,1,2,1,12,0004-00-0007-22.png,0002-00-0002-28.png
14,301,1,1444234309355,1444234310552,902,466,0,0,0,2,3,1,23,0002-00-0005-10.png,0003-00-0007-62.png
14,302,1,1444234310589,1444234311228,918,399,0,0,0,5,4,1,54,0001-00-0008-38.png,0005-00-0005-93.png
14,303,0,1444234311264,1444234311824,322,417,0,0,0,3,4,1,34,0003-00-0003-25.png,0005-00-0009-02.png
14,304,0,1444234311861,1444234312282,291,413,0,0,0,3,2,1,32,0003-00-0004-84.png,0002-00-0006-09.png
14,305,1,1444234312303,1444234312811,939,476,0,0,0,1,2,1,12,0004-00-0008-43.png,0002-00-0005-68.png
14,306,1,1444234312844,1444234313319,937,424,0,0,0,5,4,1,54,0001-00-0009-09.png,0005-00-0006-68.png
14,307,0,1444234313341,1444234313579,374,410,0,0,0,2,1,1,21,0002-00-0009-82.png,0004-00-0007-63.png
14,308,1,1444234313608,1444234314662,330,359,0,0,0,3,4,1,34,0003-00-0009-93.png,0005-00-0007-69.png
14,309,1,1444234314695,1444234314933,319,374,0,0,0,3,2,1,32,0003-00-0003-79.png,0002-00-0002-61.png
14,310,0,1444234314957,1444234315335,894,484,0,0,0,2,3,1,23,0002-00-0005-95.png,0003-00-0002-90.png
14,311,1,1444234315365,1444234315958,330,398,0,0,0,5,4,1,54,0001-00-0001-02.png,0005-00-0005-82.png
14,312,1,1444234315985,1444234316750,296,384,0,0,0,4,3,1,43,0005-00-0003-13.png,0003-00-0009-22.png
14,313,1,1444234316781,1444234317320,932,389,0,0,0,5,4,1,54,0001-00-0000-98.png,0005-00-0003-64.png
14,314,0,1444234317349,1444234317884,329,390,0,0,0,2,1,1,21,0002-00-0003-40.png,0004-00-0008-73.png
14,315,1,1444234317903,1444234318420,362,410,0,0,0,3,2,1,32,0003-00-0009-88.png,0002-00-0009-51.png
14,316,1,1444234318458,1444234319039,925,385,0,0,0,5,4,1,54,0001-00-0008-37.png,0005-00-0009-22.png
14,317,1,1444234319084,1444234319323,318,405,0,0,0,1,2,1,12,0004-00-0000-92.png,0002-00-0003-03.png
14,318,1,1444234319341,1444234319631,912,399,0,0,0,4,3,1,43,0005-00-0003-39.png,0003-00-0005-23.png
14,319,1,1444234319669,1444234320127,320,395,0,0,0,3,4,1,34,0003-00-0005-57.png,0005-00-0001-59.png
14,320,1,1444234320162,1444234320398,925,416,0,0,0,2,3,1,23,0002-00-0006-95.png,0003-00-0002-66.png
14,321,1,1444234320447,1444234321001,944,413,0,0,0,5,4,1,54,0001-00-0006-05.png,0005-00-0001-32.png
14,322,1,1444234321028,1444234321836,350,398,0,0,0,1,2,1,12,0004-00-0007-92.png,0002-00-0004-01.png
14,323,0,1444234321871,1444234322253,935,407,0,0,0,4,3,1,43,0005-00-0001-27.png,0003-00-0007-88.png
14,324,0,1444234322272,1444234322747,863,504,0,0,0,2,1,1,21,0002-00-0002-09.png,0004-00-0000-90.png
14,325,0,1444234322794,1444234324600,308,398,0,0,0,3,2,1,32,0003-00-0007-12.png,0002-00-0005-52.png
14,326,0,1444234324627,1444234324900,319,405,0,0,0,3,4,1,34,0003-00-0002-02.png,0005-00-0005-42.png
14,327,1,1444234324926,1444234325737,924,417,0,0,0,5,4,1,54,0001-00-0007-88.png,0005-00-0000-42.png
14,328,0,1444234325778,1444234326457,342,417,0,0,0,2,3,1,23,0002-00-0006-49.png,0003-00-0000-52.png
14,329,1,1444234326482,1444234327608,891,520,0,0,0,3,2,1,32,0003-00-0004-27.png,0002-00-0005-89.png
14,330,1,1444234327650,1444234328019,939,398,0,0,0,5,4,1,54,0001-00-0000-36.png,0005-00-0006-19.png
14,331,0,1444234328047,1444234328901,375,384,0,0,0,2,3,1,23,0002-00-0003-56.png,0003-00-0006-32.png
14,332,0,1444234328931,1444234329377,286,397,0,0,0,5,4,1,54,0001-00-0006-59.png,0005-00-0001-98.png
14,333,1,1444234329410,1444234329841,367,519,0,0,0,3,4,1,34,0003-00-0005-13.png,0005-00-0002-32.png
14,334,1,1444234329881,1444234330683,914,424,0,0,0,2,1,1,21,0002-00-0008-25.png,0004-00-0001-17.png
14,335,1,1444234330713,1444234332616,932,411,0,0,0,1,2,1,12,0004-00-0009-49.png,0002-00-0006-17.png
14,336,0,1444234332633,1444234333470,312,398,0,0,0,4,3,1,43,0005-00-0001-14.png,0003-00-0006-28.png
14,337,0,1444234333494,1444234334311,918,374,0,0,0,2,3,1,23,0002-00-0003-73.png,0003-00-0004-84.png
14,338,1,1444234334332,1444234334920,931,411,0,0,0,5,4,1,54,0001-00-0000-46.png,0005-00-0003-63.png
14,339,0,1444234334943,1444234335122,952,409,0,0,0,1,2,1,12,0004-00-0009-63.png,0002-00-0000-69.png
14,340,1,1444234335153,1444234335626,328,394,0,0,0,3,2,1,32,0003-00-0007-44.png,0002-00-0001-41.png
14,341,1,1444234335656,1444234336083,901,408,0,0,0,4,3,1,43,0005-00-0004-39.png,0003-00-0006-30.png
14,342,0,1444234336109,1444234336674,319,400,0,0,0,2,1,1,21,0002-00-0000-90.png,0004-00-0004-29.png
14,343,1,1444234336703,1444234336826,312,410,0,0,0,3,4,1,34,0003-00-0006-13.png,0005-00-0000-43.png
14,344,0,1444234336854,1444234337111,929,427,0,0,0,5,4,1,54,0001-00-0004-74.png,0005-00-0005-38.png
14,345,0,1444234337145,1444234337403,343,399,0,0,0,5,4,1,54,0001-00-0007-88.png,0005-00-0005-31.png
14,346,1,1444234337428,1444234337783,294,421,0,0,0,1,2,1,12,0004-00-0006-82.png,0002-00-0009-54.png
14,347,0,1444234337829,1444234338184,929,375,0,0,0,2,1,1,21,0002-00-0009-10.png,0004-00-0009-56.png
14,348,1,1444234338208,1444234338869,296,394,0,0,0,4,3,1,43,0005-00-0001-74.png,0003-00-0007-66.png
14,349,0,1444234338904,1444234339600,953,418,0,0,0,5,4,1,54,0001-00-0008-74.png,0005-00-0002-66.png
14,350,0,1444234339632,1444234339970,901,408,0,0,0,3,2,1,32,0003-00-0005-40.png,0002-00-0006-93.png
14,351,1,1444234339998,1444234340459,905,480,0,0,0,2,3,1,23,0002-00-0002-61.png,0003-00-0003-72.png
14,352,0,1444234340481,1444234341043,376,384,0,0,0,3,4,1,34,0003-00-0004-96.png,0005-00-0005-73.png
14,353,0,1444234341071,1444234341873,927,408,0,0,0,5,4,1,54,0001-00-0005-32.png,0005-00-0003-94.png
14,354,1,1444234341912,1444234342040,366,402,0,0,0,3,4,1,34,0003-00-0009-85.png,0005-00-0009-49.png
14,355,0,1444234342066,1444234342598,943,399,0,0,0,2,1,1,21,0002-00-0004-44.png,0004-00-0000-41.png
14,356,1,1444234342633,1444234343233,298,397,0,0,0,3,2,1,32,0003-00-0001-19.png,0002-00-0001-10.png
14,357,0,1444234343285,1444234343730,930,401,0,0,0,1,2,1,12,0004-00-0007-54.png,0002-00-0002-97.png
14,358,1,1444234343753,1444234344137,335,423,0,0,0,2,3,1,23,0002-00-0006-72.png,0003-00-0008-29.png
14,359,1,1444234344163,1444234344663,370,462,0,0,0,4,3,1,43,0005-00-0000-41.png,0003-00-0003-02.png
14,360,0,1444234344700,1444234345114,900,410,0,0,0,5,4,1,54,0001-00-0009-46.png,0005-00-0002-02.png
14,361,0,1444234345158,1444234345578,307,375,0,0,0,3,2,1,32,0003-00-0004-79.png,0002-00-0000-10.png
14,362,1,1444234345592,1444234346332,900,409,0,0,0,2,1,1,21,0002-00-0006-43.png,0004-00-0004-89.png
14,363,0,1444234346370,1444234346920,892,354,0,0,0,3,4,1,34,0003-00-0004-57.png,0005-00-0003-97.png
14,364,1,1444234346945,1444234347527,931,388,0,0,0,5,4,1,54,0001-00-0007-38.png,0005-00-0009-90.png
14,365,0,1444234347557,1444234348089,295,410,0,0,0,5,4,1,54,0001-00-0008-38.png,0005-00-0008-70.png
14,366,1,1444234348125,1444234348778,877,525,0,0,0,4,3,1,43,0005-00-0005-36.png,0003-00-0009-18.png
14,367,1,1444234348803,1444234349161,926,423,0,0,0,1,2,1,12,0004-00-0001-97.png,0002-00-0001-74.png
14,368,1,1444234349193,1444234349730,938,422,0,0,0,2,3,1,23,0002-00-0004-55.png,0003-00-0005-18.png
14,369,1,1444234349754,1444234350441,313,423,0,0,0,5,4,1,54,0001-00-0008-26.png,0005-00-0005-80.png
14,370,0,1444234350464,1444234351029,922,393,0,0,0,2,3,1,23,0002-00-0009-97.png,0003-00-0004-75.png
14,371,0,1444234351064,1444234351287,362,398,0,0,0,3,2,1,32,0003-00-0008-00.png,0002-00-0000-88.png
14,372,0,1444234351313,1444234351734,930,402,0,0,0,1,2,1,12,0004-00-0004-86.png,0002-00-0009-48.png
14,373,1,1444234351756,1444234352093,912,398,0,0,0,2,1,1,21,0002-00-0004-19.png,0004-00-0006-74.png
14,374,0,1444234352119,1444234352665,894,414,0,0,0,5,4,1,54,0001-00-0004-16.png,0005-00-0005-30.png
14,375,1,1444234352686,1444234353032,285,398,0,0,0,4,3,1,43,0005-00-0009-12.png,0003-00-0007-71.png
14,376,1,1444234353067,1444234353951,317,435,0,0,0,3,4,1,34,0003-00-0000-94.png,0005-00-0001-21.png
14,377,1,1444234353977,1444234354215,316,401,0,0,0,4,3,1,43,0005-00-0005-46.png,0003-00-0001-58.png
14,378,1,1444234354239,1444234354500,901,410,0,0,0,1,2,1,12,0004-00-0000-47.png,0002-00-0001-96.png
14,379,1,1444234354521,1444234355109,930,427,0,0,0,3,2,1,32,0003-00-0002-21.png,0002-00-0006-12.png
14,380,1,1444234355136,1444234355291,873,377,0,0,0,2,1,1,21,0002-00-0001-95.png,0004-00-0004-18.png
14,381,0,1444234355326,1444234355870,925,411,0,0,0,3,4,1,34,0003-00-0005-15.png,0005-00-0006-19.png
14,382,1,1444234355893,1444234357492,381,434,0,0,0,5,4,1,54,0001-00-0009-09.png,0005-00-0001-81.png
14,383,1,1444234357536,1444234357816,901,435,0,0,0,5,4,1,54,0001-00-0000-73.png,0005-00-0009-12.png
14,384,0,1444234357852,1444234358470,314,422,0,0,0,2,3,1,23,0002-00-0004-36.png,0003-00-0000-35.png
14,385,1,1444234358497,1444234359036,290,424,0,0,0,1,2,1,12,0004-00-0000-49.png,0002-00-0002-93.png
14,386,0,1444234359068,1444234359894,303,413,0,0,0,3,4,1,34,0003-00-0001-39.png,0005-00-0005-21.png
14,387,0,1444234359920,1444234360819,296,390,0,0,0,5,4,1,54,0001-00-0002-38.png,0005-00-0007-08.png
14,388,0,1444234360865,1444234361460,350,358,0,0,0,4,3,1,43,0005-00-0003-77.png,0003-00-0003-89.png
14,389,1,1444234361476,1444234361933,385,528,0,0,0,2,3,1,23,0002-00-0005-96.png,0003-00-0008-01.png
14,390,0,1444234361963,1444234362204,873,386,0,0,0,5,4,1,54,0001-00-0001-93.png,0005-00-0002-76.png
14,391,0,1444234362239,1444234362604,926,409,0,0,0,2,1,1,21,0002-00-0007-83.png,0004-00-0009-04.png
14,392,1,1444234362637,1444234363053,391,501,0,0,0,3,2,1,32,0003-00-0006-20.png,0002-00-0008-02.png
14,393,1,1444234363076,1444234363598,887,424,0,0,0,2,3,1,23,0002-00-0000-10.png,0003-00-0003-95.png
14,394,0,1444234363624,1444234363974,382,487,0,0,0,5,4,1,54,0001-00-0001-67.png,0005-00-0007-22.png
14,395,0,1444234364010,1444234364396,350,425,0,0,0,4,3,1,43,0005-00-0007-94.png,0003-00-0009-23.png
14,396,1,1444234364415,1444234364875,875,502,0,0,0,2,1,1,21,0002-00-0004-59.png,0004-00-0000-89.png
14,397,1,1444234364901,1444234365548,376,409,0,0,0,5,4,1,54,0001-00-0004-40.png,0005-00-0008-10.png
14,398,1,1444234365576,1444234366130,877,495,0,0,0,3,2,1,32,0003-00-0004-31.png,0002-00-0005-71.png
14,399,0,1444234366166,1444234366879,387,423,0,0,0,1,2,1,12,0004-00-0009-38.png,0002-00-0006-78.png
14,400,0,1444234366909,1444234367253,895,441,0,0,0,3,4,1,34,0003-00-0007-10.png,0005-00-0005-29.png
14,401,1,1444234367294,1444234367588,889,501,0,0,0,5,4,1,54,0001-00-0000-66.png,0005-00-0002-61.png
14,402,1,1444234367622,1444234368124,928,417,0,0,0,3,4,1,34,0003-00-0003-79.png,0005-00-0009-71.png
14,403,0,1444234368147,1444234368323,338,403,0,0,0,5,4,1,54,0001-00-0003-18.png,0005-00-0001-20.png
14,404,1,1444234368365,1444234369072,354,427,0,0,0,4,3,1,43,0005-00-0004-25.png,0003-00-0000-88.png
14,405,0,1444234369095,1444234369770,493,393,0,0,0,2,1,1,21,0002-00-0008-60.png,0004-00-0000-70.png
14,406,1,1444234369807,1444234370769,350,410,0,0,0,1,2,1,12,0004-00-0008-62.png,0002-00-0007-44.png
14,407,1,1444234370796,1444234371235,903,414,0,0,0,3,2,1,32,0003-00-0006-74.png,0002-00-0008-57.png
14,408,1,1444234371257,1444234372004,931,402,0,0,0,2,3,1,23,0002-00-0000-47.png,0003-00-0006-98.png
14,409,0,1444234372030,1444234372588,350,410,0,0,0,3,4,1,34,0003-00-0007-88.png,0005-00-0009-00.png
14,410,1,1444234372603,1444234373290,365,506,0,0,0,2,3,1,23,0002-00-0000-79.png,0003-00-0003-52.png
14,411,1,1444234373322,1444234374315,368,376,0,0,0,4,3,1,43,0005-00-0003-38.png,0003-00-0009-66.png
14,412,1,1444234374339,1444234375029,945,398,0,0,0,2,1,1,21,0002-00-0002-83.png,0004-00-0009-47.png
14,413,0,1444234375056,1444234375437,334,418,0,0,0,5,4,1,54,0001-00-0001-65.png,0005-00-0002-03.png
14,414,1,1444234375468,1444234376754,363,371,0,0,0,1,2,1,12,0004-00-0007-07.png,0002-00-0003-05.png
14,415,1,1444234376780,1444234377081,319,421,0,0,0,5,4,1,54,0001-00-0006-12.png,0005-00-0008-40.png
14,416,1,1444234377101,1444234377414,358,428,0,0,0,3,2,1,32,0003-00-0001-19.png,0002-00-0006-01.png
14,417,1,1444234377444,1444234378073,350,423,0,0,0,2,1,1,21,0002-00-0001-29.png,0004-00-0005-06.png
14,418,0,1444234378098,1444234378453,926,410,0,0,0,1,2,1,12,0004-00-0004-10.png,0002-00-0001-45.png
14,419,0,1444234378487,1444234378847,940,389,0,0,0,3,4,1,34,0003-00-0001-46.png,0005-00-0005-49.png
14,420,1,1444234378881,1444234379636,365,418,0,0,0,4,3,1,43,0005-00-0007-36.png,0003-00-0007-92.png
14,421,1,1444234379670,1444234380200,921,414,0,0,0,3,2,1,32,0003-00-0006-98.png,0002-00-0002-47.png
14,422,0,1444234380233,1444234380909,931,407,0,0,0,2,3,1,23,0002-00-0003-35.png,0003-00-0002-90.png
14,423,1,1444234380934,1444234382057,874,385,0,0,0,5,4,1,54,0001-00-0003-80.png,0005-00-0004-03.png
14,424,0,1444234382087,1444234382428,901,410,0,0,0,5,4,1,54,0001-00-0005-39.png,0005-00-0009-37.png
14,425,0,1444234382455,1444234382859,933,410,0,0,0,3,4,1,34,0003-00-0004-06.png,0005-00-0004-07.png
14,426,0,1444234382884,1444234383160,350,384,0,0,0,3,2,1,32,0003-00-0000-17.png,0002-00-0001-56.png
14,427,0,1444234383180,1444234383464,883,501,0,0,0,5,4,1,54,0001-00-0004-95.png,0005-00-0006-46.png
14,428,0,1444234383481,1444234383835,325,384,0,0,0,4,3,1,43,0005-00-0006-19.png,0003-00-0009-15.png
14,429,0,1444234383870,1444234384139,951,385,0,0,0,2,1,1,21,0002-00-0005-86.png,0004-00-0004-79.png
14,430,0,1444234384179,1444234384673,376,410,0,0,0,2,3,1,23,0002-00-0003-12.png,0003-00-0007-81.png
14,431,0,1444234384707,1444234385124,926,435,0,0,0,5,4,1,54,0001-00-0005-16.png,0005-00-0003-38.png
14,432,0,1444234385148,1444234385664,350,384,0,0,0,1,2,1,12,0004-00-0003-99.png,0002-00-0007-97.png
14,433,1,1444234385695,1444234386152,325,397,0,0,0,1,2,1,12,0004-00-0001-44.png,0002-00-0009-95.png
14,434,0,1444234386171,1444234386904,376,434,0,0,0,3,2,1,32,0003-00-0009-29.png,0002-00-0005-19.png
14,435,0,1444234386932,1444234387287,952,424,0,0,0,5,4,1,54,0001-00-0005-32.png,0005-00-0002-97.png
14,436,1,1444234387321,1444234387550,350,436,0,0,0,2,1,1,21,0002-00-0008-93.png,0004-00-0001-84.png
14,437,0,1444234387582,1444234388836,349,403,0,0,0,4,3,1,43,0005-00-0000-80.png,0003-00-0009-62.png
14,438,0,1444234388860,1444234389351,906,475,0,0,0,2,3,1,23,0002-00-0007-76.png,0003-00-0000-26.png
14,439,1,1444234389380,1444234389770,342,383,0,0,0,5,4,1,54,0001-00-0006-36.png,0005-00-0005-30.png
14,440,0,1444234389803,1444234390146,926,402,0,0,0,3,4,1,34,0003-00-0008-28.png,0005-00-0002-07.png
14,441,1,1444234390184,1444234390570,943,390,0,0,0,4,3,1,43,0005-00-0004-29.png,0003-00-0001-29.png
14,442,1,1444234390604,1444234391380,896,498,0,0,0,2,3,1,23,0002-00-0009-72.png,0003-00-0004-48.png
14,443,1,1444234391416,1444234391982,916,471,0,0,0,1,2,1,12,0004-00-0007-72.png,0002-00-0004-10.png
14,444,1,1444234392026,1444234392960,931,401,0,0,0,5,4,1,54,0001-00-0006-75.png,0005-00-0006-37.png
14,445,0,1444234392992,1444234393503,401,384,0,0,0,2,1,1,21,0002-00-0003-41.png,0004-00-0005-44.png
14,446,0,1444234393544,1444234393833,898,508,0,0,0,3,4,1,34,0003-00-0009-28.png,0005-00-0002-76.png
14,447,1,1444234393859,1444234394780,376,397,0,0,0,5,4,1,54,0001-00-0000-79.png,0005-00-0004-99.png
14,448,0,1444234394807,1444234395198,898,537,0,0,0,3,2,1,32,0003-00-0003-98.png,0002-00-0008-84.png
14,449,1,1444234395226,1444234395668,299,358,0,0,0,2,3,1,23,0002-00-0002-80.png,0003-00-0007-28.png
14,450,0,1444234395689,1444234395939,896,471,0,0,0,4,3,1,43,0005-00-0001-97.png,0003-00-0008-42.png
14,451,1,1444234395979,1444234396153,299,449,0,0,0,3,4,1,34,0003-00-0004-56.png,0005-00-0003-19.png
14,452,0,1444234396179,1444234397486,376,410,0,0,0,2,1,1,21,0002-00-0008-35.png,0004-00-0007-74.png
14,453,1,1444234397526,1444234397799,349,363,0,0,0,5,4,1,54,0001-00-0007-31.png,0005-00-0001-86.png
14,454,1,1444234397822,1444234398207,365,399,0,0,0,3,2,1,32,0003-00-0009-31.png,0002-00-0008-93.png
14,455,1,1444234398237,1444234398550,389,528,0,0,0,5,4,1,54,0001-00-0004-75.png,0005-00-0008-51.png
14,456,1,1444234398586,1444234399009,913,424,0,0,0,1,2,1,12,0004-00-0005-26.png,0002-00-0005-68.png
14,457,0,1444234399045,1444234399525,390,501,0,0,0,3,4,1,34,0003-00-0001-29.png,0005-00-0007-87.png
14,458,1,1444234399557,1444234399956,363,474,0,0,0,2,1,1,21,0002-00-0002-77.png,0004-00-0000-60.png
14,459,0,1444234399989,1444234400378,950,380,0,0,0,2,3,1,23,0002-00-0006-58.png,0003-00-0002-14.png
14,460,1,1444234400403,1444234400936,312,399,0,0,0,5,4,1,54,0001-00-0002-16.png,0005-00-0001-80.png
14,461,1,1444234400966,1444234401341,375,429,0,0,0,1,2,1,12,0004-00-0006-40.png,0002-00-0006-52.png
14,462,1,1444234401371,1444234401595,401,497,0,0,0,4,3,1,43,0005-00-0003-46.png,0003-00-0001-62.png
14,463,0,1444234401623,1444234401937,320,391,0,0,0,5,4,1,54,0001-00-0001-47.png,0005-00-0005-15.png
14,464,0,1444234401987,1444234402558,919,529,0,0,0,3,2,1,32,0003-00-0004-83.png,0002-00-0001-86.png
14,465,1,1444234402585,1444234402910,858,380,0,0,0,2,3,1,23,0002-00-0001-64.png,0003-00-0001-28.png
14,466,1,1444234402945,1444234404037,358,397,0,0,0,1,2,1,12,0004-00-0001-08.png,0002-00-0000-56.png
14,467,0,1444234404073,1444234404343,913,488,0,0,0,3,4,1,34,0003-00-0006-23.png,0005-00-0009-37.png
14,468,1,1444234404370,1444234404637,940,482,0,0,0,4,3,1,43,0005-00-0000-34.png,0003-00-0000-95.png
14,469,1,1444234404658,1444234404798,926,384,0,0,0,2,1,1,21,0002-00-0001-11.png,0004-00-0003-82.png
14,470,0,1444234404831,1444234405819,950,464,0,0,0,3,2,1,32,0003-00-0009-36.png,0002-00-0008-64.png
14,471,1,1444234405850,1444234406892,911,424,0,0,0,5,4,1,54,0001-00-0002-57.png,0005-00-0000-26.png
14,472,1,1444234406913,1444234407572,906,447,0,0,0,5,4,1,54,0001-00-0003-67.png,0005-00-0005-98.png
14,473,1,1444234407605,1444234408692,940,466,0,0,0,3,2,1,32,0003-00-0008-14.png,0002-00-0006-90.png
14,474,0,1444234408721,1444234409518,930,412,0,0,0,3,4,1,34,0003-00-0001-84.png,0005-00-0006-28.png
14,475,1,1444234409545,1444234409843,876,420,0,0,0,5,4,1,54,0001-00-0009-01.png,0005-00-0002-77.png
14,476,0,1444234409868,1444234410623,339,376,0,0,0,2,1,1,21,0002-00-0007-45.png,0004-00-0005-25.png
14,477,0,1444234410665,1444234411140,350,398,0,0,0,2,3,1,23,0002-00-0009-20.png,0003-00-0008-48.png
14,478,0,1444234411169,1444234411394,917,409,0,0,0,1,2,1,12,0004-00-0000-72.png,0002-00-0007-30.png
14,479,0,1444234411429,1444234411641,299,415,0,0,0,5,4,1,54,0001-00-0000-28.png,0005-00-0004-13.png
14,480,1,1444234411668,1444234412139,350,436,0,0,0,4,3,1,43,0005-00-0006-17.png,0003-00-0007-07.png
14,481,0,1444234412177,1444234412663,213,430,0,0,0,2,1,1,21,0002-00-0007-86.png,0004-00-0006-42.png
14,482,1,1444234412694,1444234413449,925,377,0,0,0,4,3,1,43,0005-00-0006-99.png,0003-00-0000-51.png
14,483,1,1444234413482,1444234414598,358,404,0,0,0,5,4,1,54,0001-00-0007-84.png,0005-00-0004-29.png
14,484,0,1444234414619,1444234415047,889,397,0,0,0,5,4,1,54,0001-00-0002-10.png,0005-00-0000-61.png
14,485,1,1444234415062,1444234415776,926,440,0,0,0,1,2,1,12,0004-00-0006-26.png,0002-00-0007-24.png
14,486,0,1444234415797,1444234416552,282,393,0,0,0,3,2,1,32,0003-00-0006-80.png,0002-00-0009-01.png
14,487,1,1444234416580,1444234417418,905,458,0,0,0,2,3,1,23,0002-00-0004-12.png,0003-00-0000-26.png
14,488,0,1444234417464,1444234417742,894,510,0,0,0,3,4,1,34,0003-00-0001-52.png,0005-00-0007-28.png
14,489,0,1444234417770,1444234418494,493,375,0,0,0,3,2,1,32,0003-00-0009-03.png,0002-00-0003-20.png
14,490,1,1444234418516,1444234418701,343,442,0,0,0,2,3,1,23,0002-00-0009-52.png,0003-00-0001-52.png
14,491,1,1444234418728,1444234419729,925,488,0,0,0,4,3,1,43,0005-00-0009-25.png,0003-00-0005-54.png
14,492,0,1444234419774,1444234419986,340,430,0,0,0,3,4,1,34,0003-00-0002-58.png,0005-00-0001-33.png
14,493,1,1444234420014,1444234420389,927,408,0,0,0,2,1,1,21,0002-00-0000-82.png,0004-00-0005-19.png
14,494,0,1444234420420,1444234421113,325,397,0,0,0,1,2,1,12,0004-00-0008-80.png,0002-00-0005-48.png
14,495,0,1444234421140,1444234421412,918,414,0,0,0,5,4,1,54,0001-00-0000-54.png,0005-00-0003-83.png
14,496,0,1444234421434,1444234421730,365,431,0,0,0,5,4,1,54,0001-00-0003-81.png,0005-00-0004-24.png
14,497,0,1444234421753,1444234422286,912,424,0,0,0,5,4,1,54,0001-00-0004-31.png,0005-00-0003-07.png
14,498,1,1444234422328,1444234422511,324,368,0,0,0,3,2,1,32,0003-00-0002-67.png,0002-00-0009-78.png
14,499,1,1444234422541,1444234422950,345,446,0,0,0,5,4,1,54,0001-00-0006-85.png,0005-00-0009-83.png
14,500,1,1444234422979,1444234423330,416,501,0,0,0,2,1,1,21,0002-00-0005-65.png,0004-00-0002-74.png
14,501,0,1444234423356,1444234424121,510,403,0,0,0,2,3,1,23,0002-00-0001-28.png,0003-00-0007-24.png
14,502,0,1444234424143,1444234424647,386,476,0,0,0,3,4,1,34,0003-00-0004-68.png,0005-00-0002-71.png
14,503,0,1444234424687,1444234425391,915,413,0,0,0,4,3,1,43,0005-00-0008-61.png,0003-00-0007-22.png
14,504,1,1444234425417,1444234426282,386,533,0,0,0,1,2,1,12,0004-00-0003-34.png,0002-00-0000-01.png
14,505,1,1444234426322,1444234427033,324,404,0,0,0,5,4,1,54,0001-00-0005-76.png,0005-00-0006-67.png
14,506,0,1444234427065,1444234427608,926,426,0,0,0,2,3,1,23,0002-00-0008-31.png,0003-00-0000-28.png
14,507,0,1444234427631,1444234428102,937,398,0,0,0,1,2,1,12,0004-00-0003-77.png,0002-00-0006-64.png
14,508,1,1444234428129,1444234429189,951,383,0,0,0,3,2,1,32,0003-00-0003-61.png,0002-00-0003-11.png
14,509,1,1444234429217,1444234429585,318,436,0,0,0,4,3,1,43,0005-00-0002-06.png,0003-00-0007-87.png
14,510,1,1444234429605,1444234430191,905,427,0,0,0,3,4,1,34,0003-00-0001-13.png,0005-00-0007-49.png
14,511,1,1444234430215,1444234430554,261,398,0,0,0,5,4,1,54,0001-00-0008-17.png,0005-00-0003-33.png
14,512,1,1444234430584,1444234431056,369,369,0,0,0,2,1,1,21,0002-00-0006-82.png,0004-00-0008-42.png
14,513,0,1444234431078,1444234432398,283,406,0,0,0,2,1,1,21,0002-00-0003-26.png,0004-00-0001-53.png
14,514,1,1444234432431,1444234432940,935,417,0,0,0,5,4,1,54,0001-00-0000-91.png,0005-00-0007-59.png
14,515,0,1444234432966,1444234433383,370,487,0,0,0,4,3,1,43,0005-00-0006-54.png,0003-00-0005-57.png
14,516,1,1444234433413,1444234433914,875,436,0,0,0,1,2,1,12,0004-00-0006-32.png,0002-00-0007-59.png
14,517,1,1444234433942,1444234434356,859,526,0,0,0,3,2,1,32,0003-00-0006-55.png,0002-00-0000-75.png
14,518,0,1444234434386,1444234434605,307,426,0,0,0,2,3,1,23,0002-00-0000-88.png,0003-00-0005-68.png
14,519,0,1444234434641,1444234435377,383,428,0,0,0,3,4,1,34,0003-00-0003-09.png,0005-00-0009-23.png
14,520,1,1444234435421,1444234435808,285,397,0,0,0,5,4,1,54,0001-00-0005-73.png,0005-00-0007-69.png
14,521,1,1444234435845,1444234436267,875,502,0,0,0,4,3,1,43,0005-00-0009-31.png,0003-00-0001-16.png
14,522,0,1444234436299,1444234437394,926,397,0,0,0,3,2,1,32,0003-00-0004-35.png,0002-00-0002-63.png
14,523,0,1444234437423,1444234438090,921,440,0,0,0,3,4,1,34,0003-00-0004-15.png,0005-00-0006-07.png
14,524,1,1444234438118,1444234438724,393,428,0,0,0,1,2,1,12,0004-00-0003-28.png,0002-00-0003-92.png
14,525,1,1444234438765,1444234439595,401,439,0,0,0,5,4,1,54,0001-00-0007-71.png,0005-00-0000-56.png
14,526,1,1444234439623,1444234439737,909,407,0,0,0,2,3,1,23,0002-00-0009-76.png,0003-00-0006-94.png
14,527,1,1444234439773,1444234440080,389,490,0,0,0,5,4,1,54,0001-00-0007-66.png,0005-00-0009-61.png
14,528,1,1444234440118,1444234440539,889,527,0,0,0,2,1,1,21,0002-00-0002-11.png,0004-00-0004-28.png
14,529,1,1444234440563,1444234440955,926,410,0,0,0,2,1,1,21,0002-00-0000-26.png,0004-00-0001-14.png
14,530,1,1444234440970,1444234441629,926,423,0,0,0,5,4,1,54,0001-00-0005-16.png,0005-00-0005-15.png
14,531,0,1444234441650,1444234442471,316,402,0,0,0,3,4,1,34,0003-00-0009-59.png,0005-00-0008-45.png
14,532,1,1444234442492,1444234442830,503,484,0,0,0,3,2,1,32,0003-00-0007-48.png,0002-00-0008-33.png
14,533,0,1444234442855,1444234443556,917,418,0,0,0,5,4,1,54,0001-00-0002-01.png,0005-00-0008-85.png
14,534,1,1444234443575,1444234443846,331,420,0,0,0,4,3,1,43,0005-00-0001-96.png,0003-00-0008-31.png
14,535,1,1444234443868,1444234444216,876,425,0,0,0,1,2,1,12,0004-00-0008-36.png,0002-00-0006-34.png
14,536,1,1444234444248,1444234444753,358,401,0,0,0,2,3,1,23,0002-00-0005-51.png,0003-00-0003-93.png
14,537,1,1444234444785,1444234445666,341,420,0,0,0,3,4,1,34,0003-00-0006-93.png,0005-00-0006-49.png
14,538,1,1444234445700,1444234445903,334,399,0,0,0,2,3,1,23,0002-00-0008-00.png,0003-00-0001-04.png
14,539,1,1444234445937,1444234446587,901,424,0,0,0,1,2,1,12,0004-00-0009-95.png,0002-00-0009-19.png
14,540,0,1444234446621,1444234447322,926,411,0,0,0,5,4,1,54,0001-00-0007-98.png,0005-00-0001-68.png
14,541,1,1444234447344,1444234448358,326,418,0,0,0,4,3,1,43,0005-00-0008-47.png,0003-00-0008-20.png
14,542,0,1444234448389,1444234448822,367,402,0,0,0,3,2,1,32,0003-00-0000-20.png,0002-00-0003-63.png
14,543,1,1444234448856,1444234449731,913,424,0,0,0,2,1,1,21,0002-00-0009-21.png,0004-00-0007-91.png
14,544,1,1444234449766,1444234450029,921,419,0,0,0,5,4,1,54,0001-00-0003-33.png,0005-00-0000-24.png
14,545,1,1444234450059,1444234450650,967,423,0,0,0,5,4,1,54,0001-00-0002-37.png,0005-00-0005-48.png
14,546,1,1444234450682,1444234451060,930,401,0,0,0,5,4,1,54,0001-00-0009-68.png,0005-00-0005-67.png
14,547,0,1444234451102,1444234451486,391,402,0,0,0,2,3,1,23,0002-00-0005-87.png,0003-00-0009-38.png
14,548,1,1444234451516,1444234451890,873,485,0,0,0,4,3,1,43,0005-00-0002-72.png,0003-00-0007-60.png
14,549,1,1444234451919,1444234452438,920,513,0,0,0,2,1,1,21,0002-00-0009-83.png,0004-00-0007-52.png
14,550,0,1444234452460,1444234453038,402,405,0,0,0,1,2,1,12,0004-00-0009-89.png,0002-00-0002-27.png
14,551,0,1444234453069,1444234453514,928,441,0,0,0,3,2,1,32,0003-00-0006-83.png,0002-00-0006-57.png
14,552,1,1444234453540,1444234454127,342,470,0,0,0,3,4,1,34,0003-00-0001-11.png,0005-00-0008-84.png
14,553,1,1444234454173,1444234454660,901,423,0,0,0,2,1,1,21,0002-00-0009-86.png,0004-00-0007-53.png
14,554,0,1444234454693,1444234455532,504,410,0,0,0,4,3,1,43,0005-00-0006-47.png,0003-00-0009-79.png
14,555,0,1444234455550,1444234456056,323,347,0,0,0,3,4,1,34,0003-00-0001-83.png,0005-00-0005-42.png
14,556,0,1444234456081,1444234456923,926,423,0,0,0,5,4,1,54,0001-00-0004-08.png,0005-00-0005-92.png
14,557,1,1444234456954,1444234457676,314,410,0,0,0,5,4,1,54,0001-00-0003-56.png,0005-00-0003-23.png
14,558,0,1444234457713,1444234458543,903,419,0,0,0,3,2,1,32,0003-00-0003-57.png,0002-00-0008-52.png
14,559,1,1444234458571,1444234459091,917,450,0,0,0,2,3,1,23,0002-00-0004-93.png,0003-00-0009-65.png
14,560,1,1444234459126,1444234459337,338,420,0,0,0,1,2,1,12,0004-00-0004-19.png,0002-00-0009-22.png
14,561,1,1444234459367,1444234460274,930,401,0,0,0,5,4,1,54,0001-00-0006-27.png,0005-00-0004-78.png
14,562,1,1444234460307,1444234460771,877,443,0,0,0,3,2,1,32,0003-00-0008-46.png,0002-00-0009-49.png
14,563,0,1444234460809,1444234461312,338,403,0,0,0,3,4,1,34,0003-00-0006-54.png,0005-00-0007-19.png
14,564,1,1444234461342,1444234461846,248,532,0,0,0,4,3,1,43,0005-00-0009-29.png,0003-00-0002-79.png
14,565,1,1444234461876,1444234462526,376,410,0,0,0,5,4,1,54,0001-00-0000-74.png,0005-00-0007-10.png
14,566,0,1444234462559,1444234462702,875,383,0,0,0,2,1,1,21,0002-00-0001-38.png,0004-00-0005-90.png
14,567,0,1444234462729,1444234463548,376,462,0,0,0,1,2,1,12,0004-00-0001-43.png,0002-00-0007-87.png
14,568,1,1444234463586,1444234463982,387,491,0,0,0,2,3,1,23,0002-00-0007-29.png,0003-00-0002-55.png
14,569,1,1444234464013,1444234464756,917,546,0,0,0,2,3,1,23,0002-00-0001-01.png,0003-00-0002-81.png
14,570,1,1444234464780,1444234465481,925,435,0,0,0,3,4,1,34,0003-00-0001-37.png,0005-00-0004-58.png
14,571,0,1444234465502,1444234465971,860,395,0,0,0,3,2,1,32,0003-00-0008-62.png,0002-00-0004-33.png
14,572,1,1444234466008,1444234466989,349,448,0,0,0,1,2,1,12,0004-00-0001-70.png,0002-00-0005-97.png
14,573,1,1444234467014,1444234467645,376,539,0,0,0,5,4,1,54,0001-00-0000-35.png,0005-00-0009-11.png
14,574,1,1444234467672,1444234468201,926,429,0,0,0,5,4,1,54,0001-00-0004-49.png,0005-00-0006-94.png
14,575,1,1444234468231,1444234468936,329,398,0,0,0,4,3,1,43,0005-00-0004-23.png,0003-00-0005-34.png
14,576,1,1444234468969,1444234469285,863,396,0,0,0,2,1,1,21,0002-00-0005-25.png,0004-00-0000-17.png
14,577,1,1444234469317,1444234469887,343,416,0,0,0,3,2,1,32,0003-00-0007-29.png,0002-00-0005-59.png
14,578,1,1444234469921,1444234470432,365,437,0,0,0,5,4,1,54,0001-00-0006-35.png,0005-00-0004-61.png
14,579,1,1444234470458,1444234470896,927,427,0,0,0,2,3,1,23,0002-00-0007-62.png,0003-00-0003-71.png
14,580,0,1444234470921,1444234471783,376,358,0,0,0,1,2,1,12,0004-00-0005-47.png,0002-00-0007-13.png
14,581,0,1444234471803,1444234472471,338,397,0,0,0,3,4,1,34,0003-00-0005-01.png,0005-00-0008-07.png
14,582,1,1444234472496,1444234472982,903,468,0,0,0,5,4,1,54,0001-00-0000-56.png,0005-00-0005-76.png
14,583,1,1444234473020,1444234473710,389,502,0,0,0,2,1,1,21,0002-00-0007-43.png,0004-00-0009-36.png
14,584,1,1444234473742,1444234474284,910,413,0,0,0,4,3,1,43,0005-00-0007-16.png,0003-00-0006-46.png
14,585,1,1444234474309,1444234474868,930,427,0,0,0,5,4,1,54,0001-00-0000-56.png,0005-00-0008-59.png
14,586,0,1444234474893,1444234475246,291,428,0,0,0,2,1,1,21,0002-00-0004-87.png,0004-00-0005-52.png
14,587,1,1444234475271,1444234475822,322,439,0,0,0,4,3,1,43,0005-00-0003-79.png,0003-00-0006-70.png
14,588,1,1444234475850,1444234476068,926,423,0,0,0,3,4,1,34,0003-00-0003-16.png,0005-00-0002-72.png
14,589,1,1444234476111,1444234476642,911,477,0,0,0,5,4,1,54,0001-00-0008-63.png,0005-00-0002-77.png
14,590,1,1444234476672,1444234477077,898,508,0,0,0,1,2,1,12,0004-00-0009-57.png,0002-00-0002-70.png
14,591,0,1444234477112,1444234477473,361,420,0,0,0,3,2,1,32,0003-00-0006-94.png,0002-00-0006-09.png
14,592,1,1444234477499,1444234478395,341,403,0,0,0,2,3,1,23,0002-00-0007-69.png,0003-00-0005-32.png
14,593,0,1444234478411,1444234479162,920,440,0,0,0,5,4,1,54,0001-00-0002-02.png,0005-00-0006-52.png
14,594,1,1444234479180,1444234479879,376,436,0,0,0,3,2,1,32,0003-00-0000-86.png,0002-00-0000-38.png
14,595,0,1444234479907,1444234480295,350,398,0,0,0,2,3,1,23,0002-00-0004-49.png,0003-00-0006-22.png
14,596,0,1444234480321,1444234480925,912,450,0,0,0,4,3,1,43,0005-00-0001-74.png,0003-00-0007-21.png
14,597,0,1444234480954,1444234481482,308,414,0,0,0,3,4,1,34,0003-00-0005-72.png,0005-00-0009-91.png
14,598,1,1444234481517,1444234481990,891,521,0,0,0,2,1,1,21,0002-00-0007-58.png,0004-00-0006-69.png
14,599,1,1444234482032,1444234482672,870,498,0,0,0,1,2,1,12,0004-00-0005-36.png,0002-00-0008-22.png
14,600,0,1444234482705,1444234483068,401,514,0,0,0,5,4,1,54,0001-00-0002-78.png,0005-00-0000-95.png
14,601,1,1444234483094,1444234483662,319,426,0,0,0,3,4,1,34,0003-00-0003-52.png,0005-00-0006-56.png
14,602,1,1444234483701,1444234484128,376,529,0,0,0,2,1,1,21,0002-00-0009-21.png,0004-00-0005-29.png
14,603,0,1444234484168,1444234484843,337,450,0,0,0,2,3,1,23,0002-00-0007-15.png,0003-00-0001-59.png
14,604,1,1444234484869,1444234485707,922,471,0,0,0,4,3,1,43,0005-00-0007-93.png,0003-00-0006-62.png
14,605,0,1444234485744,1444234486222,911,474,0,0,0,5,4,1,54,0001-00-0004-84.png,0005-00-0008-87.png
14,606,0,1444234486252,1444234486851,877,376,0,0,0,1,2,1,12,0004-00-0003-81.png,0002-00-0007-13.png
14,607,0,1444234486874,1444234487665,292,420,0,0,0,3,2,1,32,0003-00-0001-69.png,0002-00-0009-91.png
14,608,1,1444234487698,1444234488002,897,473,0,0,0,5,4,1,54,0001-00-0002-70.png,0005-00-0007-83.png
14,609,1,1444234488043,1444234488598,901,424,0,0,0,2,3,1,23,0002-00-0005-88.png,0003-00-0000-96.png
14,610,1,1444234488621,1444234488878,322,347,0,0,0,5,4,1,54,0001-00-0003-03.png,0005-00-0001-16.png
14,611,1,1444234488900,1444234489249,299,410,0,0,0,2,1,1,21,0002-00-0008-21.png,0004-00-0004-72.png
14,612,0,1444234489274,1444234489619,905,427,0,0,0,1,2,1,12,0004-00-0005-98.png,0002-00-0007-48.png
14,613,1,1444234489649,1444234489906,881,441,0,0,0,4,3,1,43,0005-00-0000-37.png,0003-00-0006-53.png
14,614,0,1444234489935,1444234490311,447,411,0,0,0,3,4,1,34,0003-00-0005-01.png,0005-00-0000-16.png
14,615,1,1444234490335,1444234490977,863,397,0,0,0,5,4,1,54,0001-00-0007-26.png,0005-00-0004-47.png
14,616,1,1444234491023,1444234491539,862,372,0,0,0,3,2,1,32,0003-00-0003-56.png,0002-00-0002-03.png
14,617,0,1444234491581,1444234492431,416,549,0,0,0,3,2,1,32,0003-00-0009-15.png,0002-00-0006-29.png
14,618,0,1444234492462,1444234492699,871,418,0,0,0,3,4,1,34,0003-00-0005-24.png,0005-00-0004-72.png
14,619,1,1444234492745,1444234492916,942,402,0,0,0,2,1,1,21,0002-00-0008-75.png,0004-00-0005-80.png
14,620,1,1444234492938,1444234493302,919,433,0,0,0,4,3,1,43,0005-00-0000-03.png,0003-00-0004-55.png
14,621,0,1444234493322,1444234493811,307,439,0,0,0,1,2,1,12,0004-00-0005-85.png,0002-00-0005-77.png
14,622,0,1444234493844,1444234494244,912,438,0,0,0,5,4,1,54,0001-00-0009-77.png,0005-00-0000-16.png
14,623,1,1444234494283,1444234494584,340,438,0,0,0,5,4,1,54,0001-00-0002-97.png,0005-00-0003-45.png
14,624,1,1444234494636,1444234494967,917,441,0,0,0,2,3,1,23,0002-00-0006-68.png,0003-00-0004-53.png
14,625,0,1444234494983,1444234495176,925,410,0,0,0,5,4,1,54,0001-00-0008-86.png,0005-00-0006-40.png
14,626,1,1444234495203,1444234495754,343,442,0,0,0,1,2,1,12,0004-00-0009-96.png,0002-00-0007-48.png
14,627,1,1444234495775,1444234496785,325,384,0,0,0,3,4,1,34,0003-00-0009-39.png,0005-00-0005-01.png
14,628,0,1444234496827,1444234497411,902,545,0,0,0,4,3,1,43,0005-00-0006-20.png,0003-00-0006-85.png
14,629,0,1444234497449,1444234497869,350,436,0,0,0,2,3,1,23,0002-00-0000-46.png,0003-00-0008-04.png
14,630,1,1444234497895,1444234498286,375,358,0,0,0,3,2,1,32,0003-00-0002-23.png,0002-00-0009-63.png
14,631,1,1444234498314,1444234499631,913,494,0,0,0,5,4,1,54,0001-00-0005-32.png,0005-00-0004-32.png
14,632,1,1444234499667,1444234500134,901,423,0,0,0,2,1,1,21,0002-00-0006-17.png,0004-00-0000-70.png
14,633,1,1444234500163,1444234500739,334,434,0,0,0,3,4,1,34,0003-00-0004-16.png,0005-00-0009-60.png
14,634,1,1444234500758,1444234501403,494,397,0,0,0,5,4,1,54,0001-00-0004-25.png,0005-00-0004-41.png
14,635,0,1444234501435,1444234501837,926,423,0,0,0,2,1,1,21,0002-00-0001-18.png,0004-00-0009-07.png
14,636,1,1444234501875,1444234502405,374,437,0,0,0,1,2,1,12,0004-00-0006-16.png,0002-00-0007-45.png
14,637,1,1444234502439,1444234503741,899,430,0,0,0,2,3,1,23,0002-00-0007-40.png,0003-00-0004-24.png
14,638,1,1444234503763,1444234504260,928,416,0,0,0,3,2,1,32,0003-00-0009-04.png,0002-00-0007-29.png
14,639,1,1444234504290,1444234504786,243,489,0,0,0,4,3,1,43,0005-00-0009-66.png,0003-00-0002-36.png
14,640,0,1444234504824,1444234505257,510,390,0,0,0,5,4,1,54,0001-00-0007-94.png,0005-00-0005-36.png
14,641,1,1444234505288,1444234505966,900,427,0,0,0,3,4,1,34,0003-00-0007-25.png,0005-00-0002-57.png
14,642,1,1444234505998,1444234506602,332,411,0,0,0,5,4,1,54,0001-00-0003-63.png,0005-00-0006-44.png
14,643,1,1444234506622,1444234507012,883,512,0,0,0,5,4,1,54,0001-00-0009-36.png,0005-00-0006-07.png
14,644,1,1444234507058,1444234507336,400,411,0,0,0,1,2,1,12,0004-00-0006-28.png,0002-00-0004-25.png
14,645,1,1444234507365,1444234508407,341,409,0,0,0,2,3,1,23,0002-00-0005-64.png,0003-00-0005-34.png
14,646,1,1444234508442,1444234508867,521,455,0,0,0,2,1,1,21,0002-00-0005-05.png,0004-00-0008-11.png
14,647,1,1444234508896,1444234509295,322,413,0,0,0,3,2,1,32,0003-00-0007-95.png,0002-00-0008-72.png
14,648,1,1444234509326,1444234509831,918,513,0,0,0,4,3,1,43,0005-00-0001-02.png,0003-00-0006-65.png
14,649,0,1444234509859,1444234510529,898,539,0,0,0,1,2,1,12,0004-00-0006-83.png,0002-00-0001-51.png
14,650,1,1444234510565,1444234511523,876,514,0,0,0,5,4,1,54,0001-00-0003-25.png,0005-00-0004-12.png
14,651,0,1444234511555,1444234512120,334,401,0,0,0,3,2,1,32,0003-00-0007-90.png,0002-00-0008-37.png
14,652,0,1444234512147,1444234512498,873,386,0,0,0,2,3,1,23,0002-00-0007-96.png,0003-00-0008-33.png
14,653,1,1444234512519,1444234512839,308,423,0,0,0,3,4,1,34,0003-00-0009-53.png,0005-00-0003-88.png
14,654,0,1444234512880,1444234513356,297,398,0,0,0,4,3,1,43,0005-00-0007-66.png,0003-00-0002-58.png
14,655,1,1444234513388,1444234513729,337,443,0,0,0,5,4,1,54,0001-00-0009-72.png,0005-00-0008-70.png
14,656,1,1444234513765,1444234513970,325,358,0,0,0,2,1,1,21,0002-00-0008-33.png,0004-00-0004-68.png
14,657,0,1444234514001,1444234514672,350,410,0,0,0,2,1,1,21,0002-00-0003-24.png,0004-00-0009-54.png
14,658,1,1444234514698,1444234515089,932,384,0,0,0,3,2,1,32,0003-00-0009-99.png,0002-00-0008-92.png
14,659,0,1444234515113,1444234515748,376,384,0,0,0,5,4,1,54,0001-00-0008-56.png,0005-00-0009-08.png
14,660,1,1444234515774,1444234515970,382,420,0,0,0,3,4,1,34,0003-00-0003-82.png,0005-00-0004-12.png
14,661,1,1444234515997,1444234516429,876,424,0,0,0,1,2,1,12,0004-00-0005-10.png,0002-00-0001-95.png
14,662,1,1444234516456,1444234516825,435,543,0,0,0,4,3,1,43,0005-00-0002-55.png,0003-00-0002-07.png
14,663,0,1444234516850,1444234517258,422,400,0,0,0,5,4,1,54,0001-00-0005-40.png,0005-00-0009-04.png
14,664,0,1444234517283,1444234517613,317,403,0,0,0,2,3,1,23,0002-00-0007-05.png,0003-00-0006-39.png
14,665,0,1444234517657,1444234517979,886,451,0,0,0,2,1,1,21,0002-00-0004-46.png,0004-00-0000-68.png
14,666,1,1444234518001,1444234518654,921,420,0,0,0,4,3,1,43,0005-00-0004-23.png,0003-00-0000-00.png
14,667,1,1444234518686,1444234518919,323,411,0,0,0,3,2,1,32,0003-00-0008-05.png,0002-00-0003-90.png
14,668,0,1444234518943,1444234519689,917,517,0,0,0,5,4,1,54,0001-00-0001-16.png,0005-00-0005-97.png
14,669,1,1444234519729,1444234520346,904,454,0,0,0,5,4,1,54,0001-00-0007-48.png,0005-00-0000-99.png
14,670,0,1444234520376,1444234520959,362,459,0,0,0,3,4,1,34,0003-00-0006-46.png,0005-00-0004-24.png
14,671,0,1444234521007,1444234522028,344,420,0,0,0,1,2,1,12,0004-00-0008-58.png,0002-00-0009-50.png
14,672,1,1444234522054,1444234522842,919,466,0,0,0,2,3,1,23,0002-00-0009-70.png,0003-00-0009-41.png
14,673,1,1444234522881,1444234523453,350,371,0,0,0,2,1,1,21,0002-00-0007-07.png,0004-00-0003-59.png
14,674,1,1444234523477,1444234523901,901,450,0,0,0,3,2,1,32,0003-00-0007-80.png,0002-00-0003-70.png
14,675,1,1444234523925,1444234525108,401,462,0,0,0,4,3,1,43,0005-00-0005-21.png,0003-00-0007-86.png
14,676,0,1444234525139,1444234525444,905,454,0,0,0,1,2,1,12,0004-00-0005-23.png,0002-00-0008-58.png
14,677,0,1444234525477,1444234525724,364,449,0,0,0,3,4,1,34,0003-00-0001-11.png,0005-00-0005-12.png
14,678,1,1444234525752,1444234526167,911,450,0,0,0,2,3,1,23,0002-00-0007-11.png,0003-00-0000-40.png
14,679,0,1444234526207,1444234526646,901,462,0,0,0,5,4,1,54,0001-00-0002-18.png,0005-00-0004-03.png
14,680,1,1444234526678,1444234527040,930,428,0,0,0,5,4,1,54,0001-00-0003-86.png,0005-00-0000-30.png
14,681,0,1444234527071,1444234528232,900,449,0,0,0,2,1,1,21,0002-00-0007-17.png,0004-00-0004-65.png
14,682,1,1444234528268,1444234528742,392,480,0,0,0,3,2,1,32,0003-00-0001-32.png,0002-00-0002-46.png
14,683,1,1444234528770,1444234529070,895,441,0,0,0,1,2,1,12,0004-00-0009-58.png,0002-00-0009-34.png
14,684,1,1444234529111,1444234529527,924,408,0,0,0,3,4,1,34,0003-00-0003-84.png,0005-00-0006-77.png
14,685,0,1444234529559,1444234530479,363,501,0,0,0,2,3,1,23,0002-00-0002-83.png,0003-00-0007-03.png
14,686,0,1444234530521,1444234531010,908,431,0,0,0,5,4,1,54,0001-00-0004-43.png,0005-00-0006-86.png
14,687,0,1444234531036,1444234531453,414,554,0,0,0,4,3,1,43,0005-00-0009-46.png,0003-00-0009-59.png
14,688,1,1444234531489,1444234531826,912,433,0,0,0,5,4,1,54,0001-00-0003-64.png,0005-00-0004-32.png
14,689,1,1444234531878,1444234532348,920,391,0,0,0,5,4,1,54,0001-00-0006-73.png,0005-00-0004-05.png
14,690,0,1444234532396,1444234532845,887,500,0,0,0,1,2,1,12,0004-00-0009-52.png,0002-00-0001-32.png
14,691,1,1444234532878,1444234533222,329,392,0,0,0,5,4,1,54,0001-00-0002-49.png,0005-00-0002-59.png
14,692,1,1444234533244,1444234533585,375,410,0,0,0,3,2,1,32,0003-00-0001-77.png,0002-00-0007-17.png
14,693,1,1444234533624,1444234534193,916,426,0,0,0,2,1,1,21,0002-00-0003-24.png,0004-00-0005-17.png
14,694,0,1444234534227,1444234535134,918,443,0,0,0,2,3,1,23,0002-00-0003-91.png,0003-00-0007-28.png
14,695,1,1444234535167,1444234535960,517,488,0,0,0,4,3,1,43,0005-00-0007-62.png,0003-00-0003-71.png
14,696,1,1444234535993,1444234536228,325,396,0,0,0,3,4,1,34,0003-00-0009-37.png,0005-00-0004-38.png
14,697,1,1444234536261,1444234536679,325,423,0,0,0,2,3,1,23,0002-00-0000-20.png,0003-00-0001-57.png
14,698,1,1444234536701,1444234537207,319,415,0,0,0,1,2,1,12,0004-00-0000-33.png,0002-00-0001-46.png
14,699,1,1444234537239,1444234537592,874,397,0,0,0,5,4,1,54,0001-00-0008-30.png,0005-00-0003-84.png
14,700,0,1444234537621,1444234538016,349,412,0,0,0,4,3,1,43,0005-00-0001-99.png,0003-00-0005-27.png
14,701,1,1444234538041,1444234538386,928,410,0,0,0,3,4,1,34,0003-00-0000-67.png,0005-00-0004-25.png
14,702,0,1444234538415,1444234538921,927,433,0,0,0,5,4,1,54,0001-00-0007-33.png,0005-00-0002-38.png
14,703,1,1444234538945,1444234539409,248,504,0,0,0,2,1,1,21,0002-00-0004-33.png,0004-00-0006-32.png
14,704,1,1444234539440,1444234539891,339,424,0,0,0,3,2,1,32,0003-00-0001-93.png,0002-00-0004-07.png
14,705,1,1444234539912,1444234540228,881,512,0,0,0,2,1,1,21,0002-00-0004-36.png,0004-00-0000-85.png
14,706,1,1444234540255,1444234540954,927,424,0,0,0,2,3,1,23,0002-00-0002-53.png,0003-00-0007-08.png
14,707,1,1444234540978,1444234541517,937,463,0,0,0,3,4,1,34,0003-00-0002-66.png,0005-00-0005-62.png
14,708,1,1444234541554,1444234541878,930,403,0,0,0,5,4,1,54,0001-00-0001-48.png,0005-00-0002-57.png
14,709,1,1444234541911,1444234542287,920,415,0,0,0,1,2,1,12,0004-00-0007-06.png,0002-00-0008-00.png
14,710,0,1444234542317,1444234543133,953,412,0,0,0,4,3,1,43,0005-00-0007-90.png,0003-00-0008-87.png
14,711,0,1444234543164,1444234543758,349,424,0,0,0,5,4,1,54,0001-00-0007-34.png,0005-00-0003-41.png
14,712,0,1444234543786,1444234544178,392,509,0,0,0,3,2,1,32,0003-00-0009-45.png,0002-00-0006-67.png
14,713,1,1444234544226,1444234544896,874,396,0,0,0,5,4,1,54,0001-00-0007-41.png,0005-00-0002-16.png
14,714,0,1444234544924,1444234545540,376,462,0,0,0,3,2,1,32,0003-00-0008-71.png,0002-00-0001-93.png
14,715,1,1444234545575,1444234545739,896,393,0,0,0,2,1,1,21,0002-00-0003-50.png,0004-00-0001-66.png
14,716,1,1444234545756,1444234546688,917,418,0,0,0,1,2,1,12,0004-00-0006-38.png,0002-00-0002-74.png
14,717,1,1444234546715,1444234547146,316,397,0,0,0,2,3,1,23,0002-00-0004-75.png,0003-00-0009-16.png
14,718,1,1444234547184,1444234547786,350,436,0,0,0,4,3,1,43,0005-00-0007-38.png,0003-00-0009-59.png
14,719,0,1444234547829,1444234548084,410,546,0,0,0,5,4,1,54,0001-00-0000-18.png,0005-00-0006-94.png
14,720,0,1444234548108,1444234548416,316,430,0,0,0,3,4,1,34,0003-00-0004-01.png,0005-00-0007-18.png
14,721,1,1444234548455,1444234548812,392,535,0,0,0,1,2,1,12,0004-00-0004-44.png,0002-00-0007-91.png
14,722,1,1444234548857,1444234549623,378,438,0,0,0,5,4,1,54,0001-00-0004-38.png,0005-00-0009-59.png
14,723,1,1444234549645,1444234550026,447,415,0,0,0,3,2,1,32,0003-00-0009-37.png,0002-00-0008-06.png
14,724,1,1444234550051,1444234552897,905,428,0,0,0,5,4,1,54,0001-00-0002-08.png,0005-00-0009-97.png
14,725,0,1444234552915,1444234553093,908,448,0,0,0,2,1,1,21,0002-00-0002-10.png,0004-00-0000-23.png
14,726,1,1444234553133,1444234553373,350,397,0,0,0,3,4,1,34,0003-00-0002-05.png,0005-00-0004-60.png
14,727,1,1444234553410,1444234553630,930,403,0,0,0,2,3,1,23,0002-00-0001-22.png,0003-00-0001-62.png
14,728,1,1444234553665,1444234554061,401,410,0,0,0,4,3,1,43,0005-00-0005-18.png,0003-00-0000-31.png
14,729,1,1444234554101,1444234554607,288,395,0,0,0,2,1,1,21,0002-00-0009-86.png,0004-00-0000-99.png
14,730,1,1444234554648,1444234554882,390,455,0,0,0,1,2,1,12,0004-00-0008-57.png,0002-00-0008-33.png
14,731,0,1444234554905,1444234555104,901,496,0,0,0,3,2,1,32,0003-00-0003-76.png,0002-00-0004-62.png
14,732,0,1444234555158,1444234555651,926,423,0,0,0,5,4,1,54,0001-00-0007-47.png,0005-00-0000-32.png
14,733,0,1444234555675,1444234556566,397,454,0,0,0,2,3,1,23,0002-00-0003-20.png,0003-00-0007-05.png
14,734,0,1444234556595,1444234556855,900,475,0,0,0,3,4,1,34,0003-00-0006-74.png,0005-00-0003-01.png
14,735,0,1444234556880,1444234557494,312,423,0,0,0,5,4,1,54,0001-00-0007-45.png,0005-00-0003-60.png
14,736,1,1444234557516,1444234557794,376,401,0,0,0,4,3,1,43,0005-00-0002-14.png,0003-00-0009-76.png
14,737,0,1444234557817,1444234558577,900,437,0,0,0,3,2,1,32,0003-00-0002-24.png,0002-00-0001-90.png
14,738,1,1444234558610,1444234559168,408,506,0,0,0,1,2,1,12,0004-00-0009-62.png,0002-00-0005-92.png
14,739,1,1444234559206,1444234559644,906,388,0,0,0,2,1,1,21,0002-00-0002-14.png,0004-00-0001-24.png
14,740,1,1444234559682,1444234559979,350,410,0,0,0,5,4,1,54,0001-00-0000-46.png,0005-00-0000-43.png
14,741,1,1444234560004,1444234560426,340,429,0,0,0,3,4,1,34,0003-00-0005-32.png,0005-00-0003-72.png
14,742,0,1444234560455,1444234561557,894,415,0,0,0,2,3,1,23,0002-00-0009-86.png,0003-00-0008-76.png
14,743,1,1444234561580,1444234562319,266,481,0,0,0,4,3,1,43,0005-00-0002-40.png,0003-00-0007-83.png
14,744,1,1444234562359,1444234562850,887,486,0,0,0,5,4,1,54,0001-00-0000-55.png,0005-00-0007-24.png
14,745,1,1444234562882,1444234563084,906,389,0,0,0,3,4,1,34,0003-00-0002-17.png,0005-00-0005-05.png
14,746,0,1444234563108,1444234563399,900,413,0,0,0,2,1,1,21,0002-00-0009-03.png,0004-00-0005-56.png
14,747,0,1444234563424,1444234563673,905,415,0,0,0,2,3,1,23,0002-00-0004-91.png,0003-00-0009-45.png
14,748,1,1444234563701,1444234564161,875,435,0,0,0,1,2,1,12,0004-00-0000-26.png,0002-00-0004-61.png
14,749,0,1444234564187,1444234564867,391,518,0,0,0,5,4,1,54,0001-00-0007-12.png,0005-00-0006-15.png
14,750,1,1444234564891,1444234566043,415,424,0,0,0,5,4,1,54,0001-00-0002-25.png,0005-00-0003-00.png
14,751,1,1444234566091,1444234566332,391,418,0,0,0,4,3,1,43,0005-00-0007-38.png,0003-00-0002-05.png
14,752,1,1444234566389,1444234566606,383,393,0,0,0,3,2,1,32,0003-00-0000-77.png,0002-00-0002-14.png
14,753,0,1444234566637,1444234566966,926,420,0,0,0,3,4,1,34,0003-00-0008-26.png,0005-00-0000-26.png
14,754,1,1444234566996,1444234567372,871,420,0,0,0,1,2,1,12,0004-00-0000-24.png,0002-00-0008-45.png
14,755,1,1444234567407,1444234567940,902,390,0,0,0,4,3,1,43,0005-00-0006-05.png,0003-00-0003-02.png
14,756,1,1444234567963,1444234568745,342,429,0,0,0,5,4,1,54,0001-00-0007-16.png,0005-00-0003-94.png
14,757,0,1444234568776,1444234568964,874,533,0,0,0,2,1,1,21,0002-00-0001-81.png,0004-00-0006-37.png
14,758,1,1444234569000,1444234569188,906,432,0,0,0,3,2,1,32,0003-00-0007-36.png,0002-00-0005-47.png
14,759,1,1444234569223,1444234569970,875,423,0,0,0,5,4,1,54,0001-00-0003-52.png,0005-00-0008-99.png
14,760,0,1444234569992,1444234570471,292,545,0,0,0,2,3,1,23,0002-00-0007-28.png,0003-00-0001-23.png
14,761,1,1444234570491,1444234571032,374,441,0,0,0,1,2,1,12,0004-00-0005-87.png,0002-00-0003-86.png
14,762,1,1444234571056,1444234571509,372,419,0,0,0,4,3,1,43,0005-00-0003-25.png,0003-00-0006-55.png
14,763,0,1444234571532,1444234572959,875,385,0,0,0,3,2,1,32,0003-00-0009-06.png,0002-00-0009-51.png
14,764,1,1444234572984,1444234573973,391,387,0,0,0,2,1,1,21,0002-00-0009-97.png,0004-00-0001-71.png
14,765,0,1444234573999,1444234574213,937,424,0,0,0,5,4,1,54,0001-00-0007-97.png,0005-00-0007-38.png
14,766,1,1444234574244,1444234574754,385,455,0,0,0,3,4,1,34,0003-00-0009-08.png,0005-00-0009-54.png
14,767,0,1444234574794,1444234575031,930,403,0,0,0,2,3,1,23,0002-00-0001-28.png,0003-00-0003-06.png
14,768,1,1444234575063,1444234575482,306,393,0,0,0,5,4,1,54,0001-00-0000-85.png,0005-00-0008-94.png
14,769,0,1444234575515,1444234576044,453,450,0,0,0,2,1,1,21,0002-00-0001-30.png,0004-00-0008-35.png
14,770,0,1444234576065,1444234576425,389,537,0,0,0,1,2,1,12,0004-00-0001-27.png,0002-00-0009-90.png
14,771,0,1444234576458,1444234576791,898,437,0,0,0,5,4,1,54,0001-00-0009-20.png,0005-00-0000-74.png
14,772,0,1444234576823,1444234577669,409,376,0,0,0,2,3,1,23,0002-00-0008-08.png,0003-00-0001-67.png
14,773,1,1444234577692,1444234578572,376,410,0,0,0,3,4,1,34,0003-00-0003-79.png,0005-00-0000-48.png
14,774,0,1444234578600,1444234578871,420,505,0,0,0,5,4,1,54,0001-00-0001-97.png,0005-00-0006-60.png
14,775,0,1444234578896,1444234579862,891,509,0,0,0,3,2,1,32,0003-00-0006-55.png,0002-00-0003-23.png
14,776,0,1444234579894,1444234580215,392,373,0,0,0,4,3,1,43,0005-00-0008-91.png,0003-00-0008-38.png
14,777,1,1444234580244,1444234580580,917,455,0,0,0,4,3,1,43,0005-00-0000-74.png,0003-00-0002-55.png
14,778,1,1444234580607,1444234580848,899,501,0,0,0,2,1,1,21,0002-00-0008-07.png,0004-00-0005-12.png
14,779,1,1444234580869,1444234581162,901,441,0,0,0,5,4,1,54,0001-00-0009-30.png,0005-00-0006-47.png
14,780,1,1444234581186,1444234581540,964,398,0,0,0,1,2,1,12,0004-00-0006-61.png,0002-00-0001-81.png
14,781,0,1444234581561,1444234581848,927,390,0,0,0,2,3,1,23,0002-00-0008-15.png,0003-00-0005-75.png
14,782,1,1444234581879,1444234582218,407,412,0,0,0,3,4,1,34,0003-00-0002-60.png,0005-00-0008-90.png
14,783,0,1444234582244,1444234582965,311,390,0,0,0,3,2,1,32,0003-00-0001-48.png,0002-00-0005-26.png
14,784,0,1444234582989,1444234583179,926,410,0,0,0,5,4,1,54,0001-00-0004-15.png,0005-00-0005-17.png
14,785,0,1444234583203,1444234583468,364,424,0,0,0,1,2,1,12,0004-00-0004-60.png,0002-00-0000-26.png
14,786,1,1444234583523,1444234584012,920,491,0,0,0,2,3,1,23,0002-00-0004-89.png,0003-00-0009-37.png
14,787,0,1444234584049,1444234584396,308,409,0,0,0,4,3,1,43,0005-00-0004-58.png,0003-00-0009-12.png
14,788,1,1444234584422,1444234585114,927,409,0,0,0,2,1,1,21,0002-00-0008-29.png,0004-00-0007-04.png
14,789,1,1444234585145,1444234585856,325,396,0,0,0,3,2,1,32,0003-00-0002-24.png,0002-00-0009-08.png
14,790,1,1444234585892,1444234586430,400,461,0,0,0,5,4,1,54,0001-00-0006-31.png,0005-00-0002-75.png
14,791,1,1444234586472,1444234586843,403,430,0,0,0,5,4,1,54,0001-00-0002-85.png,0005-00-0002-84.png
14,792,1,1444234586868,1444234587296,414,454,0,0,0,3,4,1,34,0003-00-0004-88.png,0005-00-0005-94.png
14,793,1,1444234587328,1444234587525,895,497,0,0,0,5,4,1,54,0001-00-0000-19.png,0005-00-0007-65.png
14,794,1,1444234587562,1444234587981,929,402,0,0,0,3,4,1,34,0003-00-0004-19.png,0005-00-0007-47.png
14,795,0,1444234588012,1444234588297,310,417,0,0,0,4,3,1,43,0005-00-0002-14.png,0003-00-0003-38.png
14,796,0,1444234588334,1444234588953,914,501,0,0,0,2,3,1,23,0002-00-0001-96.png,0003-00-0007-85.png
14,797,0,1444234588988,1444234589502,901,396,0,0,0,1,2,1,12,0004-00-0000-41.png,0002-00-0008-66.png
14,798,0,1444234589550,1444234589813,928,409,0,0,0,5,4,1,54,0001-00-0008-79.png,0005-00-0004-96.png
14,799,1,1444234589857,1444234590359,931,416,0,0,0,2,1,1,21,0002-00-0006-62.png,0004-00-0001-84.png
14,800,1,1444234590382,1444234591623,358,419,0,0,0,3,2,1,32,0003-00-0006-74.png,0002-00-0007-60.png
14,801,0,1444234591644,1444234592057,911,424,0,0,0,2,1,1,21,0002-00-0009-01.png,0004-00-0001-32.png
14,802,1,1444234592079,1444234592221,900,396,0,0,0,1,2,1,12,0004-00-0001-57.png,0002-00-0008-17.png
14,803,1,1444234592263,1444234593130,919,415,0,0,0,3,4,1,34,0003-00-0007-68.png,0005-00-0005-95.png
14,804,0,1444234593164,1444234593927,372,413,0,0,0,5,4,1,54,0001-00-0003-31.png,0005-00-0007-44.png
14,805,0,1444234593960,1444234594441,325,422,0,0,0,3,2,1,32,0003-00-0003-86.png,0002-00-0002-93.png
14,806,1,1444234594473,1444234595202,903,443,0,0,0,2,3,1,23,0002-00-0000-11.png,0003-00-0009-51.png
14,807,0,1444234595228,1444234596655,877,528,0,0,0,4,3,1,43,0005-00-0007-51.png,0003-00-0001-25.png
14,808,0,1444234596683,1444234596791,941,418,0,0,0,5,4,1,54,0001-00-0004-12.png,0005-00-0002-37.png
14,809,0,1444234596817,1444234597478,927,400,0,0,0,1,2,1,12,0004-00-0004-94.png,0002-00-0004-20.png
14,810,1,1444234597508,1444234598150,317,402,0,0,0,3,2,1,32,0003-00-0003-24.png,0002-00-0004-09.png
14,811,1,1444234598182,1444234598612,313,398,0,0,0,2,3,1,23,0002-00-0007-29.png,0003-00-0006-88.png
14,812,1,1444234598675,1444234599413,941,396,0,0,0,5,4,1,54,0001-00-0007-23.png,0005-00-0002-55.png
14,813,1,1444234599449,1444234599799,939,423,0,0,0,3,4,1,34,0003-00-0005-43.png,0005-00-0004-48.png
14,814,1,1444234599841,1444234600239,367,401,0,0,0,5,4,1,54,0001-00-0003-07.png,0005-00-0002-47.png
14,815,0,1444234600265,1444234600680,928,418,0,0,0,4,3,1,43,0005-00-0008-50.png,0003-00-0002-76.png
14,816,1,1444234600707,1444234601077,413,436,0,0,0,2,1,1,21,0002-00-0003-39.png,0004-00-0004-25.png
14,817,1,1444234601104,1444234601518,900,423,0,0,0,3,2,1,32,0003-00-0005-42.png,0002-00-0005-74.png
14,818,0,1444234601543,1444234602056,395,438,0,0,0,1,2,1,12,0004-00-0003-80.png,0002-00-0002-73.png
14,819,1,1444234602092,1444234602824,376,384,0,0,0,3,4,1,34,0003-00-0003-25.png,0005-00-0001-79.png
14,820,1,1444234602851,1444234603093,386,528,0,0,0,5,4,1,54,0001-00-0007-70.png,0005-00-0000-53.png
14,821,1,1444234603131,1444234603420,925,410,0,0,0,2,1,1,21,0002-00-0002-18.png,0004-00-0000-48.png
14,822,0,1444234603445,1444234604036,335,401,0,0,0,5,4,1,54,0001-00-0000-49.png,0005-00-0001-00.png
14,823,1,1444234604065,1444234604633,346,459,0,0,0,2,3,1,23,0002-00-0003-23.png,0003-00-0003-20.png
14,824,1,1444234604667,1444234605045,937,420,0,0,0,4,3,1,43,0005-00-0000-74.png,0003-00-0002-59.png
14,825,1,1444234605066,1444234605599,308,397,0,0,0,5,4,1,54,0001-00-0004-76.png,0005-00-0001-26.png
14,826,0,1444234605620,1444234605820,878,468,0,0,0,2,3,1,23,0002-00-0006-53.png,0003-00-0008-31.png
14,827,0,1444234605861,1444234606183,924,432,0,0,0,1,2,1,12,0004-00-0001-97.png,0002-00-0000-77.png
14,828,1,1444234606210,1444234606553,928,390,0,0,0,3,2,1,32,0003-00-0001-34.png,0002-00-0007-59.png
14,829,1,1444234606583,1444234607511,926,423,0,0,0,4,3,1,43,0005-00-0001-38.png,0003-00-0006-58.png
14,830,0,1444234607532,1444234608304,400,420,0,0,0,2,1,1,21,0002-00-0006-76.png,0004-00-0006-70.png
14,831,1,1444234608335,1444234608926,372,433,0,0,0,3,4,1,34,0003-00-0009-12.png,0005-00-0008-59.png
14,832,0,1444234608959,1444234609534,921,394,0,0,0,5,4,1,54,0001-00-0003-68.png,0005-00-0006-24.png
14,833,1,1444234609554,1444234610113,330,412,0,0,0,2,3,1,23,0002-00-0003-90.png,0003-00-0009-54.png
14,834,1,1444234610153,1444234611166,900,437,0,0,0,3,2,1,32,0003-00-0007-74.png,0002-00-0005-12.png
14,835,1,1444234611202,1444234611601,407,524,0,0,0,1,2,1,12,0004-00-0007-15.png,0002-00-0001-95.png
14,836,1,1444234611636,1444234612507,400,464,0,0,0,3,4,1,34,0003-00-0006-14.png,0005-00-0001-24.png
14,837,1,1444234612535,1444234612869,333,366,0,0,0,5,4,1,54,0001-00-0004-03.png,0005-00-0001-98.png
14,838,1,1444234612888,1444234613380,376,423,0,0,0,4,3,1,43,0005-00-0009-76.png,0003-00-0001-56.png
14,839,1,1444234613410,1444234613842,273,506,0,0,0,2,1,1,21,0002-00-0005-02.png,0004-00-0003-29.png
14,840,0,1444234613863,1444234614242,858,391,0,0,0,5,4,1,54,0001-00-0002-40.png,0005-00-0007-58.png
14,841,1,1444234614259,1444234614936,866,383,0,0,0,4,3,1,43,0005-00-0009-05.png,0003-00-0005-04.png
14,842,1,1444234614962,1444234615306,376,436,0,0,0,5,4,1,54,0001-00-0002-49.png,0005-00-0003-71.png
14,843,0,1444234615337,1444234615812,888,508,0,0,0,2,3,1,23,0002-00-0001-83.png,0003-00-0009-06.png
14,844,1,1444234615836,1444234616386,912,424,0,0,0,3,2,1,32,0003-00-0007-10.png,0002-00-0004-19.png
14,845,0,1444234616416,1444234617011,902,546,0,0,0,2,1,1,21,0002-00-0008-35.png,0004-00-0008-39.png
14,846,0,1444234617029,1444234617156,899,516,0,0,0,3,4,1,34,0003-00-0006-89.png,0005-00-0007-59.png
14,847,0,1444234617182,1444234617496,393,388,0,0,0,5,4,1,54,0001-00-0007-12.png,0005-00-0004-39.png
14,848,1,1444234617526,1444234618422,335,428,0,0,0,1,2,1,12,0004-00-0000-95.png,0002-00-0007-09.png
14,849,1,1444234618445,1444234618626,351,433,0,0,0,3,4,1,34,0003-00-0001-38.png,0005-00-0009-75.png
14,850,1,1444234618680,1444234619061,901,409,0,0,0,5,4,1,54,0001-00-0005-87.png,0005-00-0009-32.png
14,851,1,1444234619105,1444234619427,376,410,0,0,0,4,3,1,43,0005-00-0006-24.png,0003-00-0004-67.png
14,852,0,1444234619461,1444234619979,877,518,0,0,0,2,1,1,21,0002-00-0007-86.png,0004-00-0002-68.png
14,853,0,1444234620007,1444234620514,401,462,0,0,0,3,2,1,32,0003-00-0000-29.png,0002-00-0000-78.png
14,854,1,1444234620540,1444234621380,939,436,0,0,0,5,4,1,54,0001-00-0001-02.png,0005-00-0007-77.png
14,855,0,1444234621410,1444234621982,862,402,0,0,0,1,2,1,12,0004-00-0004-18.png,0002-00-0007-61.png
14,856,1,1444234622008,1444234622355,901,434,0,0,0,2,3,1,23,0002-00-0008-77.png,0003-00-0006-71.png
14,857,0,1444234622383,1444234622991,401,410,0,0,0,1,2,1,12,0004-00-0000-88.png,0002-00-0001-51.png
14,858,1,1444234623032,1444234623793,901,422,0,0,0,3,4,1,34,0003-00-0006-04.png,0005-00-0006-22.png
14,859,0,1444234623831,1444234624149,898,481,0,0,0,2,3,1,23,0002-00-0003-97.png,0003-00-0001-18.png
14,860,0,1444234624176,1444234625117,350,384,0,0,0,5,4,1,54,0001-00-0005-52.png,0005-00-0009-55.png
14,861,0,1444234625140,1444234625512,925,410,0,0,0,3,2,1,32,0003-00-0002-29.png,0002-00-0008-37.png
14,862,1,1444234625533,1444234626801,936,384,0,0,0,5,4,1,54,0001-00-0007-71.png,0005-00-0002-19.png
14,863,0,1444234626823,1444234627027,376,422,0,0,0,2,1,1,21,0002-00-0004-84.png,0004-00-0009-52.png
14,864,0,1444234627052,1444234627877,921,420,0,0,0,4,3,1,43,0005-00-0005-71.png,0003-00-0002-48.png
14,865,1,1444234627926,1444234628372,290,508,0,0,0,4,3,1,43,0005-00-0000-31.png,0003-00-0009-11.png
14,866,1,1444234628407,1444234628960,914,494,0,0,0,5,4,1,54,0001-00-0006-44.png,0005-00-0000-33.png
14,867,1,1444234628986,1444234629327,396,540,0,0,0,1,2,1,12,0004-00-0002-08.png,0002-00-0002-26.png
14,868,1,1444234629352,1444234629570,401,436,0,0,0,3,2,1,32,0003-00-0009-29.png,0002-00-0003-00.png
14,869,1,1444234629611,1444234629913,927,494,0,0,0,2,3,1,23,0002-00-0003-72.png,0003-00-0007-88.png
14,870,1,1444234629941,1444234630631,927,383,0,0,0,5,4,1,54,0001-00-0001-82.png,0005-00-0002-49.png
14,871,1,1444234630653,1444234631196,335,387,0,0,0,3,4,1,34,0003-00-0004-35.png,0005-00-0007-82.png
14,872,0,1444234631219,1444234631713,339,430,0,0,0,2,1,1,21,0002-00-0004-85.png,0004-00-0009-63.png
14,873,1,1444234631750,1444234632656,948,419,0,0,0,2,3,1,23,0002-00-0001-68.png,0003-00-0004-73.png
14,874,1,1444234632685,1444234633380,925,438,0,0,0,5,4,1,54,0001-00-0007-25.png,0005-00-0004-88.png
14,875,0,1444234633401,1444234633711,410,546,0,0,0,3,2,1,32,0003-00-0000-85.png,0002-00-0003-55.png
14,876,0,1444234633745,1444234634213,410,548,0,0,0,2,1,1,21,0002-00-0006-18.png,0004-00-0001-06.png
14,877,1,1444234634250,1444234634636,368,461,0,0,0,5,4,1,54,0001-00-0003-48.png,0005-00-0005-60.png
14,878,1,1444234634670,1444234635119,347,413,0,0,0,3,4,1,34,0003-00-0003-75.png,0005-00-0003-07.png
14,879,1,1444234635153,1444234635508,907,508,0,0,0,4,3,1,43,0005-00-0003-72.png,0003-00-0009-63.png
14,880,1,1444234635526,1444234635695,424,466,0,0,0,1,2,1,12,0004-00-0005-54.png,0002-00-0005-81.png
14,881,1,1444234635743,1444234635898,891,509,0,0,0,3,4,1,34,0003-00-0000-90.png,0005-00-0007-55.png
14,882,1,1444234635927,1444234636547,363,453,0,0,0,5,4,1,54,0001-00-0005-44.png,0005-00-0001-14.png
14,883,0,1444234636576,1444234637487,892,438,0,0,0,4,3,1,43,0005-00-0001-82.png,0003-00-0005-32.png
14,884,1,1444234637517,1444234638012,376,455,0,0,0,5,4,1,54,0001-00-0008-84.png,0005-00-0006-35.png
14,885,1,1444234638042,1444234638508,903,411,0,0,0,2,3,1,23,0002-00-0004-63.png,0003-00-0009-80.png
14,886,1,1444234638551,1444234638979,890,422,0,0,0,3,2,1,32,0003-00-0001-97.png,0002-00-0007-04.png
14,887,0,1444234639007,1444234639420,914,440,0,0,0,2,1,1,21,0002-00-0007-53.png,0004-00-0008-45.png
14,888,1,1444234639450,1444234639904,248,506,0,0,0,1,2,1,12,0004-00-0007-82.png,0002-00-0002-26.png
14,889,1,1444234639943,1444234640292,225,525,0,0,0,2,1,1,21,0002-00-0005-27.png,0004-00-0003-32.png
14,890,1,1444234640317,1444234640715,318,437,0,0,0,3,2,1,32,0003-00-0003-00.png,0002-00-0004-81.png
14,891,1,1444234640735,1444234641546,401,460,0,0,0,3,4,1,34,0003-00-0002-44.png,0005-00-0006-76.png
14,892,1,1444234641576,1444234641770,339,407,0,0,0,2,3,1,23,0002-00-0002-48.png,0003-00-0001-96.png
14,893,1,1444234641791,1444234642202,521,494,0,0,0,4,3,1,43,0005-00-0005-81.png,0003-00-0005-64.png
14,894,1,1444234642226,1444234642998,521,480,0,0,0,1,2,1,12,0004-00-0007-34.png,0002-00-0002-63.png
14,895,0,1444234643034,1444234643396,998,441,0,0,0,5,4,1,54,0001-00-0008-00.png,0005-00-0003-96.png
14,896,1,1444234643434,1444234643735,356,406,0,0,0,5,4,1,54,0001-00-0006-66.png,0005-00-0009-42.png
14,897,1,1444234643765,1444234644113,376,462,0,0,0,3,4,1,34,0003-00-0007-30.png,0005-00-0005-36.png
14,898,0,1444234644142,1444234644601,318,436,0,0,0,1,2,1,12,0004-00-0005-40.png,0002-00-0006-62.png
14,899,1,1444234644635,1444234645512,359,445,0,0,0,5,4,1,54,0001-00-0008-73.png,0005-00-0009-17.png
14,900,1,1444234645539,1444234645783,371,392,0,0,0,4,3,1,43,0005-00-0007-32.png,0003-00-0005-14.png
14,901,1,1444234645824,1444234646476,938,413,0,0,0,2,1,1,21,0002-00-0007-84.png,0004-00-0003-62.png
14,902,0,1444234646509,1444234647319,861,424,0,0,0,2,3,1,23,0002-00-0000-39.png,0003-00-0005-04.png
14,903,1,1444234647349,1444234647797,376,424,0,0,0,3,2,1,32,0003-00-0003-05.png,0002-00-0007-95.png
14,904,0,1444234647819,1444234648016,920,379,0,0,0,5,4,1,54,0001-00-0007-25.png,0005-00-0002-19.png
14,905,1,1444234648051,1444234648268,421,389,0,0,0,5,4,1,54,0001-00-0007-48.png,0005-00-0009-86.png
14,906,0,1444234648291,1444234649130,925,411,0,0,0,2,1,1,21,0002-00-0007-51.png,0004-00-0002-45.png
14,907,0,1444234649171,1444234649474,903,442,0,0,0,1,2,1,12,0004-00-0005-57.png,0002-00-0004-11.png
14,908,1,1444234649505,1444234650851,894,441,0,0,0,5,4,1,54,0001-00-0008-14.png,0005-00-0007-62.png
14,909,1,1444234650876,1444234651262,916,508,0,0,0,3,2,1,32,0003-00-0009-80.png,0002-00-0008-41.png
14,910,1,1444234651296,1444234651916,926,410,0,0,0,4,3,1,43,0005-00-0009-15.png,0003-00-0009-85.png
14,911,1,1444234651944,1444234652797,319,404,0,0,0,2,3,1,23,0002-00-0003-99.png,0003-00-0001-39.png
14,912,1,1444234652829,1444234653095,401,465,0,0,0,3,4,1,34,0003-00-0009-90.png,0005-00-0009-34.png
14,913,0,1444234653129,1444234653563,401,398,0,0,0,3,2,1,32,0003-00-0005-41.png,0002-00-0002-43.png
14,914,1,1444234653587,1444234654470,921,498,0,0,0,5,4,1,54,0001-00-0008-33.png,0005-00-0007-97.png
14,915,1,1444234654492,1444234654992,905,429,0,0,0,5,4,1,54,0001-00-0008-43.png,0005-00-0009-63.png
14,916,1,1444234655026,1444234656071,376,424,0,0,0,4,3,1,43,0005-00-0008-59.png,0003-00-0004-35.png
14,917,1,1444234656099,1444234656486,921,419,0,0,0,1,2,1,12,0004-00-0003-32.png,0002-00-0006-89.png
14,918,1,1444234656511,1444234656967,504,504,0,0,0,2,1,1,21,0002-00-0003-56.png,0004-00-0006-31.png
14,919,1,1444234657001,1444234657501,318,419,0,0,0,3,4,1,34,0003-00-0005-77.png,0005-00-0006-51.png
14,920,0,1444234657538,1444234658435,951,436,0,0,0,2,3,1,23,0002-00-0003-11.png,0003-00-0006-81.png
14,921,1,1444234658470,1444234658653,874,438,0,0,0,3,2,1,32,0003-00-0001-30.png,0002-00-0008-88.png
14,922,0,1444234658691,1444234659391,373,467,0,0,0,3,4,1,34,0003-00-0005-53.png,0005-00-0005-84.png
14,923,0,1444234659433,1444234659980,914,451,0,0,0,5,4,1,54,0001-00-0009-54.png,0005-00-0007-08.png
14,924,1,1444234660011,1444234660588,364,476,0,0,0,4,3,1,43,0005-00-0005-55.png,0003-00-0002-64.png
14,925,0,1444234660616,1444234661356,938,420,0,0,0,2,3,1,23,0002-00-0009-41.png,0003-00-0009-85.png
14,926,0,1444234661377,1444234662425,349,514,0,0,0,5,4,1,54,0001-00-0001-61.png,0005-00-0000-42.png
14,927,1,1444234662464,1444234662756,895,397,0,0,0,1,2,1,12,0004-00-0007-79.png,0002-00-0004-33.png
14,928,0,1444234662778,1444234663243,339,469,0,0,0,2,1,1,21,0002-00-0001-32.png,0004-00-0002-44.png
14,929,0,1444234663267,1444234663697,364,462,0,0,0,5,4,1,54,0001-00-0002-19.png,0005-00-0005-80.png
14,930,1,1444234663726,1444234663986,896,446,0,0,0,4,3,1,43,0005-00-0008-57.png,0003-00-0000-78.png
14,931,1,1444234664016,1444234664719,929,413,0,0,0,1,2,1,12,0004-00-0001-70.png,0002-00-0002-04.png
14,932,0,1444234664735,1444234664835,927,410,0,0,0,3,4,1,34,0003-00-0006-37.png,0005-00-0003-05.png
14,933,1,1444234664877,1444234665358,917,533,0,0,0,5,4,1,54,0001-00-0003-19.png,0005-00-0008-30.png
14,934,0,1444234665390,1444234665628,929,427,0,0,0,3,2,1,32,0003-00-0007-24.png,0002-00-0005-72.png
14,935,0,1444234665646,1444234666387,401,449,0,0,0,2,3,1,23,0002-00-0008-92.png,0003-00-0001-19.png
14,936,0,1444234666410,1444234667006,371,445,0,0,0,2,1,1,21,0002-00-0004-40.png,0004-00-0006-13.png
14,937,0,1444234667047,1444234667562,340,400,0,0,0,3,2,1,32,0003-00-0004-64.png,0002-00-0008-57.png
14,938,1,1444234667577,1444234667801,875,387,0,0,0,3,4,1,34,0003-00-0006-75.png,0005-00-0003-60.png
14,939,1,1444234667821,1444234668060,922,387,0,0,0,5,4,1,54,0001-00-0003-76.png,0005-00-0007-86.png
14,940,0,1444234668091,1444234669575,365,476,0,0,0,2,1,1,21,0002-00-0009-17.png,0004-00-0002-44.png
14,941,1,1444234669601,1444234670300,944,443,0,0,0,4,3,1,43,0005-00-0006-68.png,0003-00-0008-57.png
14,942,0,1444234670318,1444234671221,923,445,0,0,0,1,2,1,12,0004-00-0006-28.png,0002-00-0003-51.png
14,943,0,1444234671247,1444234671483,351,475,0,0,0,5,4,1,54,0001-00-0003-64.png,0005-00-0008-75.png
14,944,1,1444234671515,1444234672138,912,503,0,0,0,2,3,1,23,0002-00-0000-99.png,0003-00-0001-96.png
14,945,0,1444234672164,1444234672617,913,424,0,0,0,2,1,1,21,0002-00-0004-36.png,0004-00-0006-46.png
14,946,1,1444234672651,1444234673224,937,438,0,0,0,5,4,1,54,0001-00-0002-34.png,0005-00-0002-30.png
14,947,1,1444234673256,1444234674068,365,444,0,0,0,3,2,1,32,0003-00-0002-40.png,0002-00-0005-84.png
14,948,0,1444234674094,1444234674748,338,449,0,0,0,3,4,1,34,0003-00-0001-39.png,0005-00-0007-63.png
14,949,1,1444234674789,1444234675232,888,488,0,0,0,1,2,1,12,0004-00-0009-86.png,0002-00-0000-29.png
14,950,0,1444234675282,1444234675580,242,519,0,0,0,4,3,1,43,0005-00-0003-19.png,0003-00-0002-43.png
14,951,1,1444234675602,1444234676539,913,450,0,0,0,2,3,1,23,0002-00-0004-53.png,0003-00-0003-02.png
14,952,0,1444234676566,1444234677066,362,443,0,0,0,5,4,1,54,0001-00-0000-36.png,0005-00-0001-47.png
14,953,0,1444234677099,1444234677364,324,462,0,0,0,1,2,1,12,0004-00-0009-20.png,0002-00-0006-43.png
14,954,0,1444234677392,1444234678436,494,407,0,0,0,5,4,1,54,0001-00-0001-10.png,0005-00-0006-42.png
14,955,1,1444234678465,1444234678804,871,393,0,0,0,3,4,1,34,0003-00-0005-36.png,0005-00-0005-58.png
14,956,0,1444234678834,1444234679246,401,410,0,0,0,4,3,1,43,0005-00-0006-57.png,0003-00-0006-62.png
14,957,0,1444234679288,1444234679572,418,558,0,0,0,3,2,1,32,0003-00-0006-77.png,0002-00-0005-74.png
14,958,1,1444234679592,1444234679912,889,515,0,0,0,2,1,1,21,0002-00-0003-80.png,0004-00-0000-27.png
14,959,0,1444234679925,1444234680157,924,460,0,0,0,2,3,1,23,0002-00-0007-69.png,0003-00-0008-67.png
14,960,1,1444234680181,1444234680427,248,514,0,0,0,5,4,1,54,0001-00-0008-04.png,0005-00-0004-91.png
14,961,1,1444234680453,1444234681295,899,543,0,0,0,2,3,1,23,0002-00-0007-36.png,0003-00-0000-45.png
14,962,1,1444234681320,1444234681957,335,452,0,0,0,1,2,1,12,0004-00-0002-97.png,0002-00-0008-62.png
14,963,0,1444234681980,1444234682891,926,455,0,0,0,3,2,1,32,0003-00-0007-52.png,0002-00-0007-59.png
14,964,0,1444234682919,1444234683363,927,398,0,0,0,5,4,1,54,0001-00-0000-67.png,0005-00-0003-13.png
14,965,0,1444234683406,1444234684042,898,534,0,0,0,2,1,1,21,0002-00-0008-28.png,0004-00-0001-33.png
14,966,0,1444234684075,1444234684811,326,410,0,0,0,3,4,1,34,0003-00-0002-06.png,0005-00-0009-18.png
14,967,1,1444234684831,1444234685622,866,415,0,0,0,4,3,1,43,0005-00-0005-99.png,0003-00-0005-98.png
14,968,0,1444234685654,1444234686040,878,443,0,0,0,5,4,1,54,0001-00-0006-09.png,0005-00-0001-03.png
14,969,0,1444234686080,1444234686424,361,410,0,0,0,5,4,1,54,0001-00-0009-09.png,0005-00-0005-96.png
14,970,1,1444234686448,1444234686910,934,429,0,0,0,4,3,1,43,0005-00-0009-41.png,0003-00-0008-01.png
14,971,1,1444234686934,1444234687178,931,427,0,0,0,2,3,1,23,0002-00-0001-04.png,0003-00-0006-37.png
14,972,1,1444234687203,1444234687787,356,386,0,0,0,1,2,1,12,0004-00-0002-90.png,0002-00-0004-01.png
14,973,1,1444234687815,1444234688218,347,420,0,0,0,2,1,1,21,0002-00-0004-15.png,0004-00-0002-47.png
14,974,1,1444234688264,1444234688660,401,436,0,0,0,5,4,1,54,0001-00-0001-99.png,0005-00-0007-94.png
14,975,1,1444234688689,1444234689359,875,423,0,0,0,3,4,1,34,0003-00-0004-15.png,0005-00-0001-37.png
14,976,0,1444234689393,1444234689682,901,434,0,0,0,3,2,1,32,0003-00-0008-66.png,0002-00-0003-90.png
14,977,0,1444234689718,1444234690985,401,410,0,0,0,1,2,1,12,0004-00-0005-83.png,0002-00-0006-29.png
14,978,0,1444234691015,1444234691329,894,536,0,0,0,5,4,1,54,0001-00-0006-31.png,0005-00-0000-14.png
14,979,1,1444234691377,1444234691490,876,520,0,0,0,4,3,1,43,0005-00-0000-00.png,0003-00-0004-54.png
14,980,1,1444234691518,1444234692399,898,430,0,0,0,2,3,1,23,0002-00-0006-40.png,0003-00-0000-59.png
14,981,1,1444234692426,1444234692867,336,465,0,0,0,3,2,1,32,0003-00-0000-82.png,0002-00-0007-82.png
14,982,1,1444234692893,1444234693925,904,534,0,0,0,3,4,1,34,0003-00-0002-43.png,0005-00-0001-79.png
14,983,0,1444234693961,1444234694813,352,454,0,0,0,2,1,1,21,0002-00-0006-27.png,0004-00-0006-74.png
14,984,1,1444234694851,1444234695138,380,428,0,0,0,5,4,1,54,0001-00-0000-49.png,0005-00-0003-54.png
14,985,1,1444234695176,1444234697526,877,443,0,0,0,5,4,1,54,0001-00-0006-13.png,0005-00-0005-90.png
14,986,1,1444234697549,1444234698011,350,410,0,0,0,3,4,1,34,0003-00-0001-89.png,0005-00-0008-33.png
14,987,1,1444234698044,1444234698359,871,382,0,0,0,1,2,1,12,0004-00-0001-81.png,0002-00-0008-75.png
14,988,1,1444234698390,1444234698945,895,480,0,0,0,2,1,1,21,0002-00-0007-77.png,0004-00-0001-86.png
14,989,1,1444234698970,1444234699357,953,475,0,0,0,2,3,1,23,0002-00-0000-71.png,0003-00-0007-31.png
