subject_id,trial,correct_response,stim_time,response_time,x_coord,y_coord,trial_timeout,timeout_time,interTrial_timeout,left_rank,right_rank,distance,joint_rank,left_image,right_image
14,1,0,1443454320021,1443454320448,389,408,0,0,0,5,4,1,54,0001-00-0006-38.png,0005-00-0003-45.png
14,2,0,1443454320474,1443454320739,951,541,0,0,0,3,4,1,34,0003-00-0000-51.png,0005-00-0008-12.png
14,3,0,1443454320775,1443454321235,926,502,0,0,0,4,3,1,43,0005-00-0008-42.png,0003-00-0003-62.png
14,4,0,1443454321260,1443454321955,1002,396,0,0,0,1,2,1,12,0004-00-0007-99.png,0002-00-0002-02.png
14,5,1,1443454321984,1443454322489,899,491,0,0,0,3,2,1,32,0003-00-0002-42.png,0002-00-0001-74.png
14,6,1,1443454322520,1443454322786,359,389,0,0,0,2,1,1,21,0002-00-0005-95.png,0004-00-0003-78.png
14,7,0,1443454322821,1443454323471,427,449,0,0,0,5,4,1,54,0001-00-0001-82.png,0005-00-0004-44.png
14,8,0,1443454323511,1443454323892,1001,403,0,0,0,2,3,1,23,0002-00-0000-82.png,0003-00-0005-45.png
14,9,0,1443454323925,1443454324968,947,498,0,0,0,3,4,1,34,0003-00-0003-75.png,0005-00-0003-22.png
14,10,0,1443454324991,1443454325183,940,422,0,0,0,3,2,1,32,0003-00-0001-27.png,0002-00-0000-33.png
14,11,1,1443454325208,1443454325749,931,506,0,0,0,2,1,1,21,0002-00-0000-99.png,0004-00-0009-58.png
14,12,0,1443454325775,1443454326989,922,524,0,0,0,4,3,1,43,0005-00-0006-92.png,0003-00-0005-52.png
14,13,0,1443454327019,1443454327201,951,475,0,0,0,1,2,1,12,0004-00-0008-56.png,0002-00-0006-83.png
14,14,0,1443454327218,1443454327577,926,400,0,0,0,2,3,1,23,0002-00-0003-57.png,0003-00-0004-60.png
14,15,0,1443454327611,1443454328055,861,476,0,0,0,5,4,1,54,0001-00-0001-40.png,0005-00-0008-51.png
14,16,0,1443454328079,1443454328466,963,424,0,0,0,5,4,1,54,0001-00-0000-92.png,0005-00-0004-45.png
14,17,0,1443454328493,1443454328781,929,480,0,0,0,4,3,1,43,0005-00-0005-20.png,0003-00-0007-16.png
14,18,0,1443454328824,1443454329284,878,508,0,0,0,2,3,1,23,0002-00-0004-42.png,0003-00-0001-12.png
14,19,0,1443454329310,1443454329552,360,469,0,0,0,3,2,1,32,0003-00-0001-47.png,0002-00-0004-19.png
14,20,1,1443454329581,1443454329921,952,449,0,0,0,3,4,1,34,0003-00-0004-84.png,0005-00-0007-27.png
14,21,1,1443454329947,1443454331185,394,531,0,0,0,5,4,1,54,0001-00-0008-97.png,0005-00-0003-31.png
14,22,1,1443454331215,1443454331542,940,396,0,0,0,5,4,1,54,0001-00-0001-87.png,0005-00-0001-80.png
14,23,1,1443454331564,1443454332138,927,486,0,0,0,2,1,1,21,0002-00-0007-55.png,0004-00-0008-16.png
14,24,0,1443454332169,1443454332483,390,381,0,0,0,1,2,1,12,0004-00-0005-66.png,0002-00-0005-71.png
14,25,1,1443454332534,1443454333101,925,410,0,0,0,2,1,1,21,0002-00-0006-17.png,0004-00-0008-13.png
14,26,1,1443454333124,1443454334513,862,476,0,0,0,3,4,1,34,0003-00-0009-22.png,0005-00-0009-14.png
14,27,0,1443454334539,1443454335332,434,445,0,0,0,5,4,1,54,0001-00-0004-83.png,0005-00-0004-68.png
14,28,0,1443454335358,1443454335640,927,397,0,0,0,4,3,1,43,0005-00-0008-40.png,0003-00-0009-43.png
14,29,1,1443454335684,1443454336129,976,431,0,0,0,2,3,1,23,0002-00-0005-62.png,0003-00-0008-91.png
14,30,0,1443454336149,1443454336485,971,425,0,0,0,1,2,1,12,0004-00-0009-64.png,0002-00-0008-98.png
14,31,0,1443454336524,1443454337085,248,374,0,0,0,5,4,1,54,0001-00-0008-09.png,0005-00-0001-20.png
14,32,1,1443454337110,1443454337222,926,481,0,0,0,3,2,1,32,0003-00-0005-72.png,0002-00-0000-88.png
14,33,1,1443454337248,1443454338797,376,399,0,0,0,4,3,1,43,0005-00-0007-39.png,0003-00-0002-66.png
14,34,0,1443454338815,1443454339179,414,422,0,0,0,2,3,1,23,0002-00-0006-34.png,0003-00-0000-12.png
14,35,1,1443454339204,1443454339518,921,497,0,0,0,2,1,1,21,0002-00-0006-44.png,0004-00-0007-13.png
14,36,0,1443454339540,1443454339922,959,470,0,0,0,5,4,1,54,0001-00-0009-83.png,0005-00-0008-92.png
14,37,0,1443454339941,1443454340153,947,403,0,0,0,1,2,1,12,0004-00-0002-95.png,0002-00-0002-86.png
14,38,0,1443454340173,1443454340299,875,475,0,0,0,5,4,1,54,0001-00-0005-93.png,0005-00-0009-68.png
14,39,0,1443454340327,1443454340888,898,352,0,0,0,3,2,1,32,0003-00-0006-41.png,0002-00-0005-66.png
14,40,0,1443454340914,1443454341513,901,475,0,0,0,3,4,1,34,0003-00-0006-93.png,0005-00-0000-60.png
14,41,1,1443454341540,1443454342808,343,349,0,0,0,4,3,1,43,0005-00-0007-10.png,0003-00-0007-52.png
14,42,1,1443454342833,1443454343562,319,399,0,0,0,5,4,1,54,0001-00-0003-93.png,0005-00-0003-19.png
14,43,0,1443454343595,1443454344239,392,427,0,0,0,2,1,1,21,0002-00-0009-77.png,0004-00-0008-39.png
14,44,1,1443454344263,1443454344513,926,448,0,0,0,1,2,1,12,0004-00-0009-46.png,0002-00-0007-24.png
14,45,0,1443454344539,1443454346486,361,553,0,0,0,3,2,1,32,0003-00-0000-69.png,0002-00-0001-66.png
14,46,0,1443454346528,1443454346800,973,418,0,0,0,5,4,1,54,0001-00-0004-55.png,0005-00-0006-91.png
14,47,0,1443454346838,1443454347477,487,391,0,0,0,2,3,1,23,0002-00-0008-74.png,0003-00-0003-03.png
14,48,1,1443454347507,1443454348082,414,450,0,0,0,3,4,1,34,0003-00-0005-97.png,0005-00-0003-02.png
14,49,0,1443454348128,1443454348613,336,399,0,0,0,5,4,1,54,0001-00-0003-44.png,0005-00-0009-08.png
14,50,1,1443454348650,1443454348960,313,403,0,0,0,2,3,1,23,0002-00-0003-90.png,0003-00-0001-87.png
14,51,1,1443454348986,1443454349278,266,477,0,0,0,3,4,1,34,0003-00-0007-08.png,0005-00-0006-99.png
14,52,1,1443454349310,1443454349595,401,386,0,0,0,1,2,1,12,0004-00-0006-80.png,0002-00-0008-81.png
14,53,1,1443454349623,1443454350011,363,410,0,0,0,3,2,1,32,0003-00-0009-58.png,0002-00-0001-38.png
14,54,1,1443454350035,1443454350780,325,368,0,0,0,5,4,1,54,0001-00-0000-93.png,0005-00-0004-02.png
14,55,0,1443454350812,1443454351506,411,418,0,0,0,2,1,1,21,0002-00-0007-25.png,0004-00-0005-25.png
14,56,0,1443454351542,1443454351875,337,436,0,0,0,4,3,1,43,0005-00-0008-79.png,0003-00-0006-69.png
14,57,0,1443454351904,1443454353118,325,371,0,0,0,4,3,1,43,0005-00-0002-73.png,0003-00-0007-34.png
14,58,0,1443454353146,1443454353577,360,417,0,0,0,5,4,1,54,0001-00-0001-00.png,0005-00-0002-12.png
14,59,1,1443454353593,1443454354138,335,410,0,0,0,2,3,1,23,0002-00-0005-46.png,0003-00-0001-36.png
14,60,1,1443454354169,1443454354850,417,523,0,0,0,1,2,1,12,0004-00-0000-13.png,0002-00-0008-10.png
14,61,1,1443454354898,1443454355110,925,362,0,0,0,5,4,1,54,0001-00-0004-57.png,0005-00-0005-94.png
14,62,1,1443454355143,1443454355240,933,438,0,0,0,3,2,1,32,0003-00-0001-76.png,0002-00-0007-24.png
14,63,1,1443454355264,1443454355737,376,458,0,0,0,2,1,1,21,0002-00-0000-53.png,0004-00-0006-21.png
14,64,1,1443454355770,1443454356462,368,427,0,0,0,3,4,1,34,0003-00-0000-10.png,0005-00-0003-01.png
14,65,1,1443454356488,1443454356811,339,364,0,0,0,1,2,1,12,0004-00-0000-37.png,0002-00-0004-62.png
14,66,0,1443454356839,1443454357366,925,371,0,0,0,2,1,1,21,0002-00-0000-13.png,0004-00-0005-01.png
14,67,0,1443454357396,1443454357907,897,445,0,0,0,5,4,1,54,0001-00-0005-08.png,0005-00-0001-65.png
14,68,0,1443454357929,1443454358558,325,410,0,0,0,4,3,1,43,0005-00-0001-86.png,0003-00-0000-84.png
14,69,1,1443454358609,1443454358794,286,383,0,0,0,3,4,1,34,0003-00-0007-77.png,0005-00-0004-22.png
14,70,0,1443454358825,1443454359582,343,498,0,0,0,5,4,1,54,0001-00-0000-51.png,0005-00-0008-41.png
14,71,0,1443454359602,1443454360231,376,452,0,0,0,2,3,1,23,0002-00-0001-35.png,0003-00-0004-66.png
14,72,0,1443454360283,1443454361039,965,454,0,0,0,3,2,1,32,0003-00-0004-74.png,0002-00-0001-63.png
14,73,1,1443454361064,1443454361608,339,385,0,0,0,2,3,1,23,0002-00-0007-37.png,0003-00-0008-09.png
14,74,0,1443454361656,1443454362162,337,371,0,0,0,3,4,1,34,0003-00-0000-04.png,0005-00-0008-50.png
14,75,1,1443454362192,1443454362792,907,392,0,0,0,4,3,1,43,0005-00-0002-53.png,0003-00-0008-11.png
14,76,0,1443454362822,1443454363110,962,400,0,0,0,1,2,1,12,0004-00-0006-87.png,0002-00-0005-16.png
14,77,1,1443454363134,1443454363888,909,279,0,0,0,3,2,1,32,0003-00-0009-00.png,0002-00-0001-28.png
14,78,0,1443454363924,1443454364543,931,376,0,0,0,5,4,1,54,0001-00-0000-46.png,0005-00-0005-76.png
14,79,1,1443454364577,1443454365387,862,291,0,0,0,5,4,1,54,0001-00-0002-04.png,0005-00-0002-26.png
14,80,1,1443454365434,1443454365730,388,291,0,0,0,2,1,1,21,0002-00-0009-77.png,0004-00-0002-80.png
14,81,1,1443454365767,1443454366134,412,430,0,0,0,3,2,1,32,0003-00-0005-70.png,0002-00-0007-16.png
14,82,0,1443454366165,1443454366622,312,371,0,0,0,4,3,1,43,0005-00-0004-13.png,0003-00-0007-44.png
14,83,1,1443454366651,1443454367085,290,441,0,0,0,2,1,1,21,0002-00-0006-08.png,0004-00-0006-94.png
14,84,1,1443454367103,1443454367217,379,522,0,0,0,5,4,1,54,0001-00-0003-26.png,0005-00-0004-25.png
14,85,1,1443454367242,1443454367486,932,391,0,0,0,2,3,1,23,0002-00-0009-12.png,0003-00-0006-93.png
14,86,1,1443454367537,1443454367764,333,378,0,0,0,1,2,1,12,0004-00-0000-58.png,0002-00-0009-87.png
14,87,1,1443454367794,1443454368284,388,476,0,0,0,3,4,1,34,0003-00-0000-21.png,0005-00-0003-37.png
14,88,1,1443454368308,1443454368932,874,490,0,0,0,5,4,1,54,0001-00-0002-84.png,0005-00-0008-35.png
14,89,1,1443454368957,1443454369438,400,506,0,0,0,4,3,1,43,0005-00-0001-35.png,0003-00-0002-46.png
14,90,0,1443454369465,1443454369922,350,358,0,0,0,1,2,1,12,0004-00-0000-87.png,0002-00-0004-36.png
14,91,0,1443454369949,1443454370145,936,372,0,0,0,2,3,1,23,0002-00-0009-40.png,0003-00-0005-15.png
14,92,1,1443454370177,1443454370656,330,377,0,0,0,3,2,1,32,0003-00-0009-68.png,0002-00-0002-17.png
14,93,1,1443454370690,1443454371701,921,393,0,0,0,5,4,1,54,0001-00-0007-61.png,0005-00-0001-88.png
14,94,1,1443454371726,1443454372076,916,448,0,0,0,2,1,1,21,0002-00-0005-56.png,0004-00-0007-40.png
14,95,0,1443454372106,1443454372510,376,434,0,0,0,5,4,1,54,0001-00-0001-24.png,0005-00-0009-27.png
14,96,0,1443454372545,1443454372956,955,361,0,0,0,3,4,1,34,0003-00-0009-36.png,0005-00-0002-42.png
14,97,1,1443454372984,1443454373365,310,363,0,0,0,3,2,1,32,0003-00-0007-67.png,0002-00-0007-53.png
14,98,0,1443454373395,1443454373907,376,372,0,0,0,2,1,1,21,0002-00-0005-07.png,0004-00-0000-34.png
14,99,1,1443454373940,1443454374798,337,371,0,0,0,3,4,1,34,0003-00-0006-26.png,0005-00-0004-89.png
14,100,0,1443454374825,1443454375388,312,411,0,0,0,4,3,1,43,0005-00-0003-44.png,0003-00-0005-52.png
14,101,1,1443454375419,1443454375840,901,383,0,0,0,5,4,1,54,0001-00-0008-49.png,0005-00-0009-23.png
14,102,0,1443454375866,1443454376092,290,375,0,0,0,5,4,1,54,0001-00-0008-71.png,0005-00-0000-66.png
14,103,1,1443454376113,1443454376819,901,383,0,0,0,2,3,1,23,0002-00-0001-42.png,0003-00-0002-17.png
14,104,0,1443454376849,1443454378670,306,420,0,0,0,1,2,1,12,0004-00-0000-78.png,0002-00-0006-31.png
14,105,0,1443454378693,1443454379234,370,413,0,0,0,3,2,1,32,0003-00-0009-35.png,0002-00-0008-58.png
14,106,0,1443454379277,1443454379957,874,514,0,0,0,4,3,1,43,0005-00-0000-24.png,0003-00-0000-92.png
14,107,1,1443454379981,1443454380475,926,384,0,0,0,2,3,1,23,0002-00-0004-23.png,0003-00-0004-67.png
14,108,1,1443454380502,1443454380840,874,359,0,0,0,5,4,1,54,0001-00-0002-76.png,0005-00-0008-54.png
14,109,1,1443454380876,1443454381242,904,441,0,0,0,5,4,1,54,0001-00-0009-73.png,0005-00-0007-64.png
14,110,0,1443454381275,1443454381929,913,372,0,0,0,2,1,1,21,0002-00-0005-68.png,0004-00-0006-16.png
14,111,1,1443454381967,1443454382488,261,384,0,0,0,3,4,1,34,0003-00-0001-72.png,0005-00-0008-38.png
14,112,0,1443454382517,1443454383092,953,390,0,0,0,1,2,1,12,0004-00-0002-43.png,0002-00-0002-78.png
14,113,0,1443454383135,1443454383511,299,396,0,0,0,5,4,1,54,0001-00-0006-25.png,0005-00-0008-50.png
14,114,0,1443454383543,1443454384706,356,384,0,0,0,1,2,1,12,0004-00-0004-68.png,0002-00-0008-70.png
14,115,1,1443454384740,1443454385018,391,409,0,0,0,3,2,1,32,0003-00-0007-37.png,0002-00-0002-01.png
14,116,1,1443454385047,1443454386281,350,370,0,0,0,2,1,1,21,0002-00-0008-97.png,0004-00-0003-46.png
14,117,1,1443454386315,1443454386784,313,500,0,0,0,3,4,1,34,0003-00-0001-97.png,0005-00-0006-32.png
14,118,0,1443454386815,1443454388530,286,436,0,0,0,4,3,1,43,0005-00-0003-83.png,0003-00-0003-38.png
14,119,1,1443454388559,1443454389220,265,366,0,0,0,5,4,1,54,0001-00-0006-59.png,0005-00-0000-95.png
14,120,0,1443454389249,1443454389580,343,484,0,0,0,2,3,1,23,0002-00-0007-24.png,0003-00-0008-74.png
14,121,0,1443454389619,1443454390588,389,451,0,0,0,5,4,1,54,0001-00-0004-24.png,0005-00-0001-84.png
14,122,1,1443454390626,1443454391413,922,458,0,0,0,3,2,1,32,0003-00-0003-59.png,0002-00-0008-62.png
14,123,1,1443454391443,1443454391724,336,396,0,0,0,3,4,1,34,0003-00-0008-52.png,0005-00-0001-75.png
14,124,0,1443454391753,1443454392424,299,382,0,0,0,1,2,1,12,0004-00-0000-76.png,0002-00-0002-35.png
14,125,0,1443454392447,1443454393274,902,413,0,0,0,5,4,1,54,0001-00-0008-97.png,0005-00-0007-28.png
14,126,0,1443454393300,1443454394110,376,410,0,0,0,2,1,1,21,0002-00-0005-41.png,0004-00-0005-05.png
14,127,1,1443454394134,1443454394487,400,319,0,0,0,2,3,1,23,0002-00-0003-29.png,0003-00-0002-87.png
14,128,1,1443454394519,1443454395029,210,318,0,0,0,4,3,1,43,0005-00-0007-59.png,0003-00-0000-58.png
14,129,1,1443454395063,1443454395482,1000,304,0,0,0,3,4,1,34,0003-00-0005-83.png,0005-00-0000-17.png
14,130,1,1443454395514,1443454395804,366,389,0,0,0,5,4,1,54,0001-00-0001-83.png,0005-00-0008-36.png
14,131,1,1443454395843,1443454396768,376,480,0,0,0,5,4,1,54,0001-00-0002-94.png,0005-00-0006-40.png
14,132,1,1443454396806,1443454397303,365,491,0,0,0,1,2,1,12,0004-00-0000-16.png,0002-00-0008-53.png
14,133,0,1443454397337,1443454397629,401,396,0,0,0,2,1,1,21,0002-00-0007-41.png,0004-00-0000-19.png
14,134,0,1443454397651,1443454398259,337,351,0,0,0,4,3,1,43,0005-00-0004-44.png,0003-00-0000-10.png
14,135,1,1443454398292,1443454398630,376,358,0,0,0,2,3,1,23,0002-00-0006-32.png,0003-00-0001-57.png
14,136,0,1443454398657,1443454399658,969,319,0,0,0,3,2,1,32,0003-00-0003-82.png,0002-00-0006-93.png
14,137,1,1443454399683,1443454400540,235,408,0,0,0,5,4,1,54,0001-00-0008-80.png,0005-00-0002-42.png
14,138,1,1443454400591,1443454402574,940,371,0,0,0,1,2,1,12,0004-00-0004-43.png,0002-00-0007-57.png
14,139,0,1443454402599,1443454403028,342,349,0,0,0,2,1,1,21,0002-00-0004-69.png,0004-00-0004-20.png
14,140,1,1443454403074,1443454403560,905,427,0,0,0,3,2,1,32,0003-00-0004-23.png,0002-00-0007-85.png
14,141,0,1443454403594,1443454403886,862,332,0,0,0,3,4,1,34,0003-00-0009-69.png,0005-00-0001-37.png
14,142,1,1443454403919,1443454404738,875,410,0,0,0,2,3,1,23,0002-00-0002-92.png,0003-00-0006-57.png
14,143,1,1443454404773,1443454404957,376,358,0,0,0,5,4,1,54,0001-00-0006-47.png,0005-00-0001-13.png
14,144,1,1443454404978,1443454405264,951,308,0,0,0,4,3,1,43,0005-00-0003-41.png,0003-00-0005-58.png
14,145,1,1443454405300,1443454405668,913,370,0,0,0,5,4,1,54,0001-00-0003-93.png,0005-00-0006-80.png
14,146,0,1443454405695,1443454406148,312,319,0,0,0,3,2,1,32,0003-00-0007-23.png,0002-00-0006-09.png
14,147,0,1443454406183,1443454406611,376,410,0,0,0,4,3,1,43,0005-00-0007-89.png,0003-00-0009-27.png
14,148,0,1443454406645,1443454407005,339,357,0,0,0,2,1,1,21,0002-00-0005-63.png,0004-00-0004-06.png
14,149,1,1443454407050,1443454407348,248,370,0,0,0,1,2,1,12,0004-00-0007-31.png,0002-00-0005-55.png
14,150,0,1443454407378,1443454407590,350,292,0,0,0,5,4,1,54,0001-00-0004-53.png,0005-00-0001-73.png
14,151,0,1443454407620,1443454408193,325,332,0,0,0,2,3,1,23,0002-00-0000-68.png,0003-00-0004-98.png
14,152,0,1443454408219,1443454408867,185,457,0,0,0,3,4,1,34,0003-00-0005-95.png,0005-00-0003-86.png
14,153,1,1443454408900,1443454409078,977,384,0,0,0,4,3,1,43,0005-00-0001-22.png,0003-00-0003-94.png
14,154,0,1443454409103,1443454409294,385,389,0,0,0,3,4,1,34,0003-00-0003-29.png,0005-00-0001-08.png
14,155,0,1443454409324,1443454409723,414,503,0,0,0,2,1,1,21,0002-00-0002-81.png,0004-00-0000-08.png
14,156,1,1443454409748,1443454410069,934,396,0,0,0,3,2,1,32,0003-00-0009-79.png,0002-00-0000-56.png
14,157,0,1443454410124,1443454410821,389,408,0,0,0,5,4,1,54,0001-00-0004-91.png,0005-00-0002-63.png
14,158,0,1443454410841,1443454411344,906,367,0,0,0,2,3,1,23,0002-00-0008-10.png,0003-00-0009-59.png
14,159,0,1443454411380,1443454411706,942,386,0,0,0,5,4,1,54,0001-00-0006-82.png,0005-00-0009-90.png
14,160,0,1443454411736,1443454412642,365,476,0,0,0,1,2,1,12,0004-00-0000-41.png,0002-00-0002-35.png
14,161,0,1443454412677,1443454413215,240,373,0,0,0,2,1,1,21,0002-00-0006-43.png,0004-00-0006-57.png
14,162,0,1443454413240,1443454413795,338,352,0,0,0,4,3,1,43,0005-00-0002-98.png,0003-00-0007-48.png
14,163,1,1443454413821,1443454414041,260,384,0,0,0,2,3,1,23,0002-00-0003-92.png,0003-00-0007-88.png
14,164,0,1443454414063,1443454414323,931,349,0,0,0,5,4,1,54,0001-00-0002-75.png,0005-00-0002-01.png
14,165,0,1443454414350,1443454414544,273,372,0,0,0,5,4,1,54,0001-00-0000-41.png,0005-00-0003-94.png
14,166,1,1443454414573,1443454415109,930,349,0,0,0,3,4,1,34,0003-00-0007-48.png,0005-00-0005-57.png
14,167,1,1443454415139,1443454415575,918,358,0,0,0,1,2,1,12,0004-00-0001-09.png,0002-00-0008-78.png
14,168,1,1443454415612,1443454416022,857,431,0,0,0,3,2,1,32,0003-00-0005-51.png,0002-00-0006-54.png
14,169,1,1443454416055,1443454416416,952,403,0,0,0,3,4,1,34,0003-00-0003-62.png,0005-00-0009-30.png
14,170,1,1443454416447,1443454416648,320,384,0,0,0,2,1,1,21,0002-00-0008-42.png,0004-00-0004-24.png
14,171,0,1443454416690,1443454416994,916,440,0,0,0,4,3,1,43,0005-00-0002-56.png,0003-00-0006-56.png
14,172,1,1443454417019,1443454417520,365,435,0,0,0,3,2,1,32,0003-00-0008-34.png,0002-00-0000-49.png
14,173,1,1443454417546,1443454417884,338,371,0,0,0,5,4,1,54,0001-00-0004-74.png,0005-00-0001-13.png
14,174,0,1443454417916,1443454418518,392,458,0,0,0,2,3,1,23,0002-00-0007-83.png,0003-00-0002-94.png
14,175,0,1443454418562,1443454419316,271,374,0,0,0,1,2,1,12,0004-00-0004-57.png,0002-00-0000-79.png
14,176,1,1443454419357,1443454419855,258,364,0,0,0,5,4,1,54,0001-00-0000-80.png,0005-00-0002-62.png
14,177,0,1443454419883,1443454420635,964,384,0,0,0,2,3,1,23,0002-00-0007-44.png,0003-00-0005-77.png
14,178,0,1443454420663,1443454421357,979,284,0,0,0,3,4,1,34,0003-00-0003-80.png,0005-00-0002-71.png
14,179,1,1443454421389,1443454421719,900,450,0,0,0,4,3,1,43,0005-00-0004-99.png,0003-00-0007-30.png
14,180,0,1443454421768,1443454422491,285,309,0,0,0,2,1,1,21,0002-00-0001-85.png,0004-00-0004-00.png
14,181,0,1443454422532,1443454422919,325,370,0,0,0,3,2,1,32,0003-00-0001-25.png,0002-00-0009-14.png
14,182,0,1443454422943,1443454423255,320,394,0,0,0,5,4,1,54,0001-00-0009-81.png,0005-00-0009-58.png
14,183,1,1443454423281,1443454423580,325,383,0,0,0,1,2,1,12,0004-00-0004-93.png,0002-00-0006-58.png
14,184,0,1443454423631,1443454424517,318,434,0,0,0,5,4,1,54,0001-00-0007-01.png,0005-00-0002-75.png
14,185,1,1443454424545,1443454425256,325,318,0,0,0,2,1,1,21,0002-00-0007-07.png,0004-00-0007-28.png
14,186,1,1443454425293,1443454425543,995,326,0,0,0,4,3,1,43,0005-00-0006-84.png,0003-00-0003-96.png
14,187,1,1443454425563,1443454426064,315,352,0,0,0,5,4,1,54,0001-00-0008-28.png,0005-00-0003-10.png
14,188,1,1443454426094,1443454426662,325,397,0,0,0,3,4,1,34,0003-00-0000-77.png,0005-00-0005-80.png
14,189,1,1443454426689,1443454427332,913,449,0,0,0,5,4,1,54,0001-00-0009-40.png,0005-00-0003-78.png
14,190,1,1443454427362,1443454428575,439,361,0,0,0,3,2,1,32,0003-00-0002-26.png,0002-00-0004-58.png
14,191,1,1443454428597,1443454428977,350,449,0,0,0,2,3,1,23,0002-00-0008-84.png,0003-00-0003-97.png
14,192,1,1443454429006,1443454429495,294,426,0,0,0,1,2,1,12,0004-00-0003-75.png,0002-00-0008-80.png
14,193,1,1443454429537,1443454430001,228,357,0,0,0,4,3,1,43,0005-00-0001-10.png,0003-00-0008-70.png
14,194,1,1443454430031,1443454430384,376,358,0,0,0,2,1,1,21,0002-00-0006-75.png,0004-00-0005-64.png
14,195,0,1443454430421,1443454430811,222,291,0,0,0,1,2,1,12,0004-00-0007-58.png,0002-00-0007-09.png
14,196,0,1443454430853,1443454431109,1003,332,0,0,0,3,2,1,32,0003-00-0004-51.png,0002-00-0001-16.png
14,197,0,1443454431127,1443454431772,334,314,0,0,0,2,3,1,23,0002-00-0003-47.png,0003-00-0004-21.png
14,198,0,1443454431804,1443454432699,284,463,0,0,0,5,4,1,54,0001-00-0002-69.png,0005-00-0000-90.png
14,199,1,1443454432731,1443454432987,376,462,0,0,0,5,4,1,54,0001-00-0002-14.png,0005-00-0002-80.png
14,200,1,1443454433003,1443454433414,337,513,0,0,0,3,4,1,34,0003-00-0002-14.png,0005-00-0008-45.png
14,201,0,1443454433438,1443454434584,913,410,0,0,0,3,4,1,34,0003-00-0003-60.png,0005-00-0007-29.png
14,202,1,1443454434614,1443454434930,977,423,0,0,0,1,2,1,12,0004-00-0007-27.png,0002-00-0002-68.png
14,203,0,1443454434960,1443454435711,941,341,0,0,0,2,1,1,21,0002-00-0005-19.png,0004-00-0004-13.png
14,204,1,1443454435741,1443454436042,222,423,0,0,0,2,3,1,23,0002-00-0005-62.png,0003-00-0009-60.png
14,205,1,1443454436078,1443454436442,350,357,0,0,0,4,3,1,43,0005-00-0006-45.png,0003-00-0006-63.png
14,206,0,1443454436464,1443454436823,317,404,0,0,0,3,2,1,32,0003-00-0002-85.png,0002-00-0004-37.png
14,207,0,1443454436846,1443454437990,202,306,0,0,0,5,4,1,54,0001-00-0005-24.png,0005-00-0004-05.png
14,208,1,1443454438018,1443454438243,900,449,0,0,0,5,4,1,54,0001-00-0002-18.png,0005-00-0004-47.png
14,209,1,1443454438274,1443454438824,928,416,0,0,0,5,4,1,54,0001-00-0001-43.png,0005-00-0007-02.png
14,210,1,1443454438871,1443454439434,359,325,0,0,0,2,3,1,23,0002-00-0006-50.png,0003-00-0004-18.png
14,211,1,1443454439466,1443454439875,905,375,0,0,0,3,2,1,32,0003-00-0004-82.png,0002-00-0003-96.png
14,212,0,1443454439915,1443454440173,927,277,0,0,0,2,1,1,21,0002-00-0000-48.png,0004-00-0000-60.png
14,213,1,1443454440197,1443454440785,272,368,0,0,0,3,4,1,34,0003-00-0005-90.png,0005-00-0006-45.png
14,214,1,1443454440807,1443454441292,375,462,0,0,0,5,4,1,54,0001-00-0006-71.png,0005-00-0006-18.png
14,215,0,1443454441326,1443454441898,863,272,0,0,0,1,2,1,12,0004-00-0000-75.png,0002-00-0005-67.png
14,216,0,1443454441924,1443454442488,911,367,0,0,0,4,3,1,43,0005-00-0009-82.png,0003-00-0001-12.png
14,217,1,1443454442533,1443454442790,306,345,0,0,0,2,1,1,21,0002-00-0004-65.png,0004-00-0000-66.png
14,218,1,1443454442825,1443454443551,939,268,0,0,0,3,4,1,34,0003-00-0006-02.png,0005-00-0007-70.png
14,219,1,1443454443571,1443454444271,940,345,0,0,0,2,3,1,23,0002-00-0002-81.png,0003-00-0002-87.png
14,220,0,1443454444305,1443454444565,959,343,0,0,0,3,2,1,32,0003-00-0004-62.png,0002-00-0004-27.png
14,221,1,1443454444594,1443454444871,287,344,0,0,0,5,4,1,54,0001-00-0009-57.png,0005-00-0007-85.png
14,222,1,1443454444904,1443454445554,981,363,0,0,0,1,2,1,12,0004-00-0000-91.png,0002-00-0007-11.png
14,223,1,1443454445584,1443454446045,313,366,0,0,0,5,4,1,54,0001-00-0001-60.png,0005-00-0009-71.png
14,224,0,1443454446063,1443454446722,236,371,0,0,0,4,3,1,43,0005-00-0002-58.png,0003-00-0009-61.png
14,225,0,1443454446759,1443454447305,350,346,0,0,0,2,1,1,21,0002-00-0005-87.png,0004-00-0007-13.png
14,226,1,1443454447355,1443454448151,929,373,0,0,0,4,3,1,43,0005-00-0009-18.png,0003-00-0001-39.png
14,227,0,1443454448183,1443454448762,1002,326,0,0,0,5,4,1,54,0001-00-0002-86.png,0005-00-0000-15.png
14,228,1,1443454448797,1443454449205,305,305,0,0,0,3,2,1,32,0003-00-0002-51.png,0002-00-0008-06.png
14,229,1,1443454449254,1443454449577,228,331,0,0,0,3,4,1,34,0003-00-0007-41.png,0005-00-0000-97.png
14,230,1,1443454449603,1443454449953,908,339,0,0,0,1,2,1,12,0004-00-0009-52.png,0002-00-0001-49.png
14,231,1,1443454449996,1443454450339,990,279,0,0,0,5,4,1,54,0001-00-0005-29.png,0005-00-0005-20.png
14,232,1,1443454450371,1443454450838,299,306,0,0,0,2,3,1,23,0002-00-0001-23.png,0003-00-0007-16.png
14,233,0,1443454450872,1443454451359,340,388,0,0,0,2,1,1,21,0002-00-0006-35.png,0004-00-0003-39.png
14,234,1,1443454451382,1443454452179,350,384,0,0,0,3,2,1,32,0003-00-0000-84.png,0002-00-0008-61.png
14,235,0,1443454452216,1443454452888,947,342,0,0,0,5,4,1,54,0001-00-0005-88.png,0005-00-0003-92.png
14,236,0,1443454452924,1443454453474,332,391,0,0,0,1,2,1,12,0004-00-0008-32.png,0002-00-0009-22.png
14,237,1,1443454453507,1443454453896,270,376,0,0,0,4,3,1,43,0005-00-0007-72.png,0003-00-0002-49.png
14,238,1,1443454453936,1443454455105,938,372,0,0,0,2,3,1,23,0002-00-0009-79.png,0003-00-0004-44.png
14,239,0,1443454455135,1443454455350,902,391,0,0,0,5,4,1,54,0001-00-0008-29.png,0005-00-0006-81.png
14,240,1,1443454455370,1443454455691,925,387,0,0,0,3,4,1,34,0003-00-0000-33.png,0005-00-0006-41.png
14,241,1,1443454455721,1443454456044,195,374,0,0,0,5,4,1,54,0001-00-0005-61.png,0005-00-0009-95.png
14,242,1,1443454456082,1443454456356,976,350,0,0,0,2,3,1,23,0002-00-0005-14.png,0003-00-0004-94.png
14,243,1,1443454456388,1443454456747,899,406,0,0,0,3,2,1,32,0003-00-0008-97.png,0002-00-0008-87.png
14,244,0,1443454456783,1443454458668,255,545,0,0,0,3,4,1,34,0003-00-0004-52.png,0005-00-0003-18.png
14,245,1,1443454458692,1443454459362,261,346,0,0,0,2,1,1,21,0002-00-0006-54.png,0004-00-0009-13.png
14,246,1,1443454459393,1443454459765,928,391,0,0,0,4,3,1,43,0005-00-0003-06.png,0003-00-0000-03.png
14,247,0,1443454459786,1443454460173,262,422,0,0,0,5,4,1,54,0001-00-0000-44.png,0005-00-0009-46.png
14,248,1,1443454460203,1443454460414,345,383,0,0,0,1,2,1,12,0004-00-0005-00.png,0002-00-0008-55.png
14,249,1,1443454460453,1443454460996,284,310,0,0,0,3,4,1,34,0003-00-0000-28.png,0005-00-0002-01.png
14,250,0,1443454461021,1443454461274,332,369,0,0,0,2,3,1,23,0002-00-0004-99.png,0003-00-0000-95.png
14,251,1,1443454461301,1443454461646,950,354,0,0,0,5,4,1,54,0001-00-0006-49.png,0005-00-0000-48.png
14,252,1,1443454461665,1443454462724,943,353,0,0,0,3,2,1,32,0003-00-0009-75.png,0002-00-0001-01.png
14,253,1,1443454462752,1443454463004,363,461,0,0,0,2,1,1,21,0002-00-0001-57.png,0004-00-0000-64.png
14,254,0,1443454463040,1443454463498,870,289,0,0,0,4,3,1,43,0005-00-0005-62.png,0003-00-0008-59.png
14,255,0,1443454463528,1443454463859,299,279,0,0,0,5,4,1,54,0001-00-0006-36.png,0005-00-0000-81.png
14,256,0,1443454463880,1443454464178,945,366,0,0,0,1,2,1,12,0004-00-0005-95.png,0002-00-0001-77.png
14,257,0,1443454464224,1443454465288,272,378,0,0,0,2,3,1,23,0002-00-0002-54.png,0003-00-0007-44.png
14,258,0,1443454465313,1443454465668,443,455,0,0,0,2,1,1,21,0002-00-0008-10.png,0004-00-0009-99.png
14,259,0,1443454465701,1443454465983,978,332,0,0,0,3,4,1,34,0003-00-0009-94.png,0005-00-0005-20.png
14,260,0,1443454466016,1443454466479,415,397,0,0,0,5,4,1,54,0001-00-0009-25.png,0005-00-0009-27.png
14,261,0,1443454466509,1443454466986,221,370,0,0,0,5,4,1,54,0001-00-0000-66.png,0005-00-0000-91.png
14,262,1,1443454467025,1443454467668,273,267,0,0,0,3,2,1,32,0003-00-0008-94.png,0002-00-0000-77.png
14,263,1,1443454467708,1443454469464,261,397,0,0,0,4,3,1,43,0005-00-0000-70.png,0003-00-0006-73.png
14,264,0,1443454469490,1443454469809,867,336,0,0,0,1,2,1,12,0004-00-0002-32.png,0002-00-0001-31.png
14,265,0,1443454469842,1443454470256,242,395,0,0,0,4,3,1,43,0005-00-0002-79.png,0003-00-0006-35.png
14,266,1,1443454470274,1443454470590,952,358,0,0,0,3,4,1,34,0003-00-0008-07.png,0005-00-0002-81.png
14,267,1,1443454470615,1443454470911,365,434,0,0,0,3,2,1,32,0003-00-0001-01.png,0002-00-0009-56.png
14,268,0,1443454470952,1443454471321,366,496,0,0,0,2,1,1,21,0002-00-0005-94.png,0004-00-0006-88.png
14,269,1,1443454471350,1443454471762,261,398,0,0,0,5,4,1,54,0001-00-0004-38.png,0005-00-0009-68.png
14,270,1,1443454471794,1443454472731,299,266,0,0,0,5,4,1,54,0001-00-0001-59.png,0005-00-0006-32.png
14,271,0,1443454472768,1443454473142,366,429,0,0,0,1,2,1,12,0004-00-0004-58.png,0002-00-0002-06.png
14,272,0,1443454473186,1443454473773,931,393,0,0,0,2,3,1,23,0002-00-0005-26.png,0003-00-0000-52.png
14,273,1,1443454473798,1443454474076,925,421,0,0,0,3,4,1,34,0003-00-0009-72.png,0005-00-0008-60.png
14,274,1,1443454474108,1443454474416,337,342,0,0,0,2,3,1,23,0002-00-0008-72.png,0003-00-0006-81.png
14,275,0,1443454474445,1443454475036,256,349,0,0,0,4,3,1,43,0005-00-0002-06.png,0003-00-0000-73.png
14,276,1,1443454475070,1443454475396,263,377,0,0,0,2,1,1,21,0002-00-0005-64.png,0004-00-0005-15.png
14,277,0,1443454475420,1443454476372,350,358,0,0,0,5,4,1,54,0001-00-0004-80.png,0005-00-0007-73.png
14,278,1,1443454476402,1443454476931,206,555,0,0,0,1,2,1,12,0004-00-0002-82.png,0002-00-0006-81.png
14,279,1,1443454476965,1443454477228,325,344,0,0,0,3,2,1,32,0003-00-0006-99.png,0002-00-0005-27.png
14,280,1,1443454477268,1443454477789,285,371,0,0,0,5,4,1,54,0001-00-0003-24.png,0005-00-0004-30.png
14,281,1,1443454477820,1443454478289,222,436,0,0,0,5,4,1,54,0001-00-0001-29.png,0005-00-0004-78.png
14,282,1,1443454478319,1443454478707,287,334,0,0,0,5,4,1,54,0001-00-0001-17.png,0005-00-0008-27.png
14,283,1,1443454478745,1443454479370,973,367,0,0,0,2,1,1,21,0002-00-0004-23.png,0004-00-0001-15.png
14,284,1,1443454479392,1443454479788,947,342,0,0,0,3,4,1,34,0003-00-0008-76.png,0005-00-0003-57.png
14,285,0,1443454479807,1443454480556,337,358,0,0,0,2,3,1,23,0002-00-0005-94.png,0003-00-0002-55.png
14,286,1,1443454480583,1443454481205,325,332,0,0,0,4,3,1,43,0005-00-0009-68.png,0003-00-0009-20.png
14,287,1,1443454481233,1443454482342,325,356,0,0,0,1,2,1,12,0004-00-0004-55.png,0002-00-0006-96.png
14,288,0,1443454482361,1443454483012,283,352,0,0,0,3,2,1,32,0003-00-0005-80.png,0002-00-0005-73.png
14,289,0,1443454483050,1443454483277,913,306,0,0,0,1,2,1,12,0004-00-0006-58.png,0002-00-0004-13.png
14,290,1,1443454483309,1443454483543,234,345,0,0,0,2,1,1,21,0002-00-0009-49.png,0004-00-0002-65.png
14,291,1,1443454483565,1443454484438,884,531,0,0,0,3,2,1,32,0003-00-0008-38.png,0002-00-0009-94.png
14,292,1,1443454484472,1443454484697,313,390,0,0,0,4,3,1,43,0005-00-0003-04.png,0003-00-0006-50.png
14,293,1,1443454484728,1443454485264,350,253,0,0,0,3,4,1,34,0003-00-0001-39.png,0005-00-0009-21.png
14,294,1,1443454485295,1443454485604,344,394,0,0,0,5,4,1,54,0001-00-0005-27.png,0005-00-0004-88.png
14,295,1,1443454485627,1443454485922,976,360,0,0,0,5,4,1,54,0001-00-0003-42.png,0005-00-0002-34.png
14,296,1,1443454485946,1443454486171,286,367,0,0,0,2,3,1,23,0002-00-0001-46.png,0003-00-0002-28.png
14,297,0,1443454486195,1443454486708,904,402,0,0,0,3,4,1,34,0003-00-0002-26.png,0005-00-0007-26.png
14,298,0,1443454486735,1443454487221,222,333,0,0,0,2,3,1,23,0002-00-0002-47.png,0003-00-0004-35.png
14,299,1,1443454487249,1443454487431,870,342,0,0,0,5,4,1,54,0001-00-0003-85.png,0005-00-0008-27.png
14,300,0,1443454487457,1443454488406,248,355,0,0,0,3,2,1,32,0003-00-0007-40.png,0002-00-0001-21.png
14,301,0,1443454488444,1443454488734,376,411,0,0,0,2,1,1,21,0002-00-0007-14.png,0004-00-0002-71.png
14,302,0,1443454488768,1443454488886,238,286,0,0,0,4,3,1,43,0005-00-0001-84.png,0003-00-0005-91.png
14,303,0,1443454488908,1443454489540,888,554,0,0,0,1,2,1,12,0004-00-0006-24.png,0002-00-0008-76.png
14,304,1,1443454489590,1443454490242,350,355,0,0,0,5,4,1,54,0001-00-0002-78.png,0005-00-0003-30.png
14,305,1,1443454490270,1443454491162,939,346,0,0,0,5,4,1,54,0001-00-0000-52.png,0005-00-0005-70.png
14,306,0,1443454491190,1443454491756,930,375,0,0,0,1,2,1,12,0004-00-0009-46.png,0002-00-0001-59.png
14,307,1,1443454491788,1443454492760,952,351,0,0,0,3,2,1,32,0003-00-0008-97.png,0002-00-0002-68.png
14,308,1,1443454492785,1443454493254,906,366,0,0,0,2,1,1,21,0002-00-0004-84.png,0004-00-0004-39.png
14,309,0,1443454493289,1443454493564,310,345,0,0,0,2,3,1,23,0002-00-0009-37.png,0003-00-0005-57.png
14,310,0,1443454493599,1443454494813,222,436,0,0,0,4,3,1,43,0005-00-0002-43.png,0003-00-0009-76.png
14,311,0,1443454494834,1443454495212,284,403,0,0,0,3,4,1,34,0003-00-0003-48.png,0005-00-0002-38.png
14,312,1,1443454495241,1443454495559,241,356,0,0,0,5,4,1,54,0001-00-0006-15.png,0005-00-0004-63.png
14,313,1,1443454495583,1443454496013,352,381,0,0,0,5,4,1,54,0001-00-0007-94.png,0005-00-0002-79.png
14,314,1,1443454496041,1443454496595,235,319,0,0,0,3,2,1,32,0003-00-0000-78.png,0002-00-0008-35.png
14,315,1,1443454496632,1443454496710,896,445,0,0,0,3,4,1,34,0003-00-0008-87.png,0005-00-0001-02.png
14,316,1,1443454496746,1443454497182,930,375,0,0,0,4,3,1,43,0005-00-0009-21.png,0003-00-0007-41.png
14,317,1,1443454497208,1443454497548,352,402,0,0,0,2,1,1,21,0002-00-0009-31.png,0004-00-0009-04.png
14,318,1,1443454497579,1443454497909,262,299,0,0,0,2,3,1,23,0002-00-0003-30.png,0003-00-0004-05.png
14,319,0,1443454497929,1443454498532,963,320,0,0,0,5,4,1,54,0001-00-0007-11.png,0005-00-0009-30.png
14,320,0,1443454498565,1443454499318,876,488,0,0,0,1,2,1,12,0004-00-0003-64.png,0002-00-0002-04.png
14,321,1,1443454499370,1443454499816,922,468,0,0,0,5,4,1,54,0001-00-0006-54.png,0005-00-0005-76.png
14,322,1,1443454499852,1443454500071,314,392,0,0,0,4,3,1,43,0005-00-0002-07.png,0003-00-0006-18.png
14,323,0,1443454500105,1443454500289,340,353,0,0,0,5,4,1,54,0001-00-0005-92.png,0005-00-0007-32.png
14,324,1,1443454500324,1443454501302,940,250,0,0,0,2,1,1,21,0002-00-0003-73.png,0004-00-0008-37.png
14,325,0,1443454501319,1443454501785,931,349,0,0,0,3,2,1,32,0003-00-0003-03.png,0002-00-0004-68.png
14,326,0,1443454501812,1443454502118,929,279,0,0,0,2,3,1,23,0002-00-0003-41.png,0003-00-0009-30.png
14,327,1,1443454502148,1443454502641,287,380,0,0,0,3,4,1,34,0003-00-0008-50.png,0005-00-0008-48.png
14,328,0,1443454502676,1443454502976,315,436,0,0,0,1,2,1,12,0004-00-0003-03.png,0002-00-0004-35.png
14,329,1,1443454503014,1443454503498,299,279,0,0,0,2,1,1,21,0002-00-0001-19.png,0004-00-0000-64.png
14,330,0,1443454503519,1443454503844,279,330,0,0,0,3,4,1,34,0003-00-0002-75.png,0005-00-0005-57.png
14,331,0,1443454503860,1443454504298,325,292,0,0,0,5,4,1,54,0001-00-0003-95.png,0005-00-0007-67.png
14,332,1,1443454504336,1443454504826,947,315,0,0,0,5,4,1,54,0001-00-0002-33.png,0005-00-0003-84.png
14,333,1,1443454504854,1443454505106,319,486,0,0,0,3,2,1,32,0003-00-0002-13.png,0002-00-0006-42.png
14,334,0,1443454505136,1443454505430,325,332,0,0,0,4,3,1,43,0005-00-0005-34.png,0003-00-0005-72.png
14,335,0,1443454505468,1443454506148,261,383,0,0,0,1,2,1,12,0004-00-0001-41.png,0002-00-0005-00.png
14,336,1,1443454506188,1443454506779,939,241,0,0,0,2,3,1,23,0002-00-0002-71.png,0003-00-0009-37.png
14,337,0,1443454506835,1443454507563,369,405,0,0,0,3,2,1,32,0003-00-0009-33.png,0002-00-0005-86.png
14,338,0,1443454507583,1443454507904,952,422,0,0,0,5,4,1,54,0001-00-0002-04.png,0005-00-0008-84.png
14,339,1,1443454507930,1443454508385,236,319,0,0,0,2,1,1,21,0002-00-0009-83.png,0004-00-0006-50.png
14,340,0,1443454508421,1443454508679,318,395,0,0,0,1,2,1,12,0004-00-0008-04.png,0002-00-0006-76.png
14,341,1,1443454508707,1443454509318,337,385,0,0,0,4,3,1,43,0005-00-0002-97.png,0003-00-0008-15.png
14,342,1,1443454509355,1443454509519,484,374,0,0,0,2,3,1,23,0002-00-0006-34.png,0003-00-0005-80.png
14,343,0,1443454509564,1443454510083,294,369,0,0,0,5,4,1,54,0001-00-0006-45.png,0005-00-0002-28.png
14,344,0,1443454510121,1443454510391,261,398,0,0,0,3,4,1,34,0003-00-0009-21.png,0005-00-0008-95.png
14,345,1,1443454510419,1443454510677,943,366,0,0,0,5,4,1,54,0001-00-0006-39.png,0005-00-0000-30.png
14,346,0,1443454510696,1443454511175,355,328,0,0,0,1,2,1,12,0004-00-0003-87.png,0002-00-0004-57.png
14,347,1,1443454511210,1443454511675,899,489,0,0,0,4,3,1,43,0005-00-0004-08.png,0003-00-0007-63.png
14,348,0,1443454511732,1443454511984,982,375,0,0,0,3,2,1,32,0003-00-0002-35.png,0002-00-0000-56.png
14,349,1,1443454512011,1443454512352,894,431,0,0,0,2,1,1,21,0002-00-0000-64.png,0004-00-0006-23.png
14,350,0,1443454512385,1443454512508,291,363,0,0,0,5,4,1,54,0001-00-0006-09.png,0005-00-0000-70.png
14,351,1,1443454512528,1443454512871,256,367,0,0,0,3,4,1,34,0003-00-0001-23.png,0005-00-0005-30.png
14,352,1,1443454512889,1443454513180,927,345,0,0,0,2,3,1,23,0002-00-0005-60.png,0003-00-0005-54.png
14,353,1,1443454513202,1443454513526,299,396,0,0,0,2,1,1,21,0002-00-0004-26.png,0004-00-0006-34.png
14,354,1,1443454513553,1443454513755,374,431,0,0,0,3,4,1,34,0003-00-0000-70.png,0005-00-0001-17.png
14,355,1,1443454513794,1443454514875,222,498,0,0,0,5,4,1,54,0001-00-0007-80.png,0005-00-0003-93.png
14,356,1,1443454514908,1443454515281,248,371,0,0,0,4,3,1,43,0005-00-0007-02.png,0003-00-0005-45.png
14,357,1,1443454515310,1443454515515,931,297,0,0,0,1,2,1,12,0004-00-0000-68.png,0002-00-0007-71.png
14,358,0,1443454515537,1443454516204,262,367,0,0,0,3,2,1,32,0003-00-0002-61.png,0002-00-0007-55.png
14,359,1,1443454516225,1443454516789,367,482,0,0,0,5,4,1,54,0001-00-0003-37.png,0005-00-0009-24.png
14,360,0,1443454516819,1443454517578,899,438,0,0,0,2,3,1,23,0002-00-0000-64.png,0003-00-0003-37.png
14,361,1,1443454517616,1443454517918,358,375,0,0,0,1,2,1,12,0004-00-0003-55.png,0002-00-0000-25.png
14,362,1,1443454517937,1443454518258,240,349,0,0,0,2,3,1,23,0002-00-0009-99.png,0003-00-0005-09.png
14,363,0,1443454518287,1443454518931,376,306,0,0,0,4,3,1,43,0005-00-0007-42.png,0003-00-0007-51.png
14,364,0,1443454518950,1443454519383,211,462,0,0,0,5,4,1,54,0001-00-0004-15.png,0005-00-0001-53.png
14,365,1,1443454519407,1443454520212,250,350,0,0,0,5,4,1,54,0001-00-0007-08.png,0005-00-0000-79.png
14,366,0,1443454520247,1443454521071,325,332,0,0,0,2,1,1,21,0002-00-0007-32.png,0004-00-0009-73.png
14,367,0,1443454521099,1443454521779,273,397,0,0,0,3,2,1,32,0003-00-0009-90.png,0002-00-0006-54.png
14,368,0,1443454521822,1443454522555,930,427,0,0,0,3,4,1,34,0003-00-0007-24.png,0005-00-0008-98.png
14,369,0,1443454522580,1443454523454,293,368,0,0,0,5,4,1,54,0001-00-0000-40.png,0005-00-0003-41.png
14,370,1,1443454523487,1443454524224,310,286,0,0,0,1,2,1,12,0004-00-0000-61.png,0002-00-0006-07.png
14,371,0,1443454524251,1443454524978,316,418,0,0,0,3,4,1,34,0003-00-0009-56.png,0005-00-0005-28.png
14,372,1,1443454525015,1443454525524,184,421,0,0,0,2,1,1,21,0002-00-0009-84.png,0004-00-0008-29.png
14,373,1,1443454525562,1443454525937,930,532,0,0,0,5,4,1,54,0001-00-0001-43.png,0005-00-0003-32.png
14,374,1,1443454525965,1443454526495,343,443,0,0,0,3,2,1,32,0003-00-0006-11.png,0002-00-0004-12.png
14,375,1,1443454526522,1443454527175,926,306,0,0,0,4,3,1,43,0005-00-0002-87.png,0003-00-0008-94.png
14,376,1,1443454527202,1443454527637,248,344,0,0,0,2,3,1,23,0002-00-0002-23.png,0003-00-0005-84.png
14,377,0,1443454527672,1443454528158,1002,342,0,0,0,2,1,1,21,0002-00-0006-58.png,0004-00-0005-26.png
14,378,0,1443454528200,1443454528703,324,374,0,0,0,3,2,1,32,0003-00-0008-45.png,0002-00-0000-43.png
14,379,1,1443454528735,1443454529594,978,358,0,0,0,2,3,1,23,0002-00-0008-84.png,0003-00-0002-39.png
14,380,1,1443454529623,1443454530025,977,371,0,0,0,3,4,1,34,0003-00-0009-09.png,0005-00-0004-57.png
14,381,0,1443454530052,1443454531016,325,412,0,0,0,5,4,1,54,0001-00-0004-60.png,0005-00-0006-13.png
14,382,1,1443454531046,1443454531297,285,372,0,0,0,5,4,1,54,0001-00-0005-20.png,0005-00-0006-84.png
14,383,0,1443454531320,1443454532846,419,509,0,0,0,4,3,1,43,0005-00-0003-17.png,0003-00-0008-83.png
14,384,1,1443454532869,1443454533515,268,357,0,0,0,1,2,1,12,0004-00-0001-60.png,0002-00-0000-86.png
14,385,0,1443454533536,1443454533877,973,315,0,0,0,1,2,1,12,0004-00-0005-79.png,0002-00-0005-20.png
14,386,0,1443454533913,1443454534561,401,332,0,0,0,5,4,1,54,0001-00-0002-89.png,0005-00-0004-66.png
14,387,0,1443454534591,1443454535288,400,358,0,0,0,5,4,1,54,0001-00-0009-66.png,0005-00-0007-32.png
14,388,0,1443454535321,1443454535556,913,343,0,0,0,3,4,1,34,0003-00-0008-88.png,0005-00-0006-71.png
14,389,1,1443454535586,1443454536041,956,323,0,0,0,2,1,1,21,0002-00-0007-02.png,0004-00-0009-28.png
14,390,0,1443454536065,1443454536924,248,306,0,0,0,2,3,1,23,0002-00-0004-15.png,0003-00-0006-32.png
14,391,1,1443454536956,1443454538067,204,323,0,0,0,3,2,1,32,0003-00-0008-26.png,0002-00-0007-13.png
14,392,0,1443454538097,1443454539041,242,325,0,0,0,4,3,1,43,0005-00-0009-48.png,0003-00-0008-88.png
14,393,1,1443454539068,1443454539430,1055,345,0,0,0,5,4,1,54,0001-00-0009-77.png,0005-00-0008-46.png
14,394,1,1443454539453,1443454539929,265,398,0,0,0,1,2,1,12,0004-00-0003-11.png,0002-00-0004-82.png
14,395,1,1443454539986,1443454540647,265,367,0,0,0,2,1,1,21,0002-00-0003-62.png,0004-00-0002-22.png
14,396,1,1443454540679,1443454541098,956,289,0,0,0,5,4,1,54,0001-00-0001-84.png,0005-00-0005-17.png
14,397,1,1443454541135,1443454541609,951,309,0,0,0,4,3,1,43,0005-00-0008-85.png,0003-00-0008-38.png
14,398,0,1443454541644,1443454541947,947,419,0,0,0,2,3,1,23,0002-00-0002-20.png,0003-00-0007-12.png
14,399,1,1443454541982,1443454542457,350,266,0,0,0,3,2,1,32,0003-00-0006-24.png,0002-00-0002-37.png
14,400,0,1443454542492,1443454542897,900,417,0,0,0,3,4,1,34,0003-00-0008-68.png,0005-00-0002-00.png
14,401,1,1443454542926,1443454543088,273,318,0,0,0,1,2,1,12,0004-00-0006-11.png,0002-00-0008-74.png
14,402,1,1443454543135,1443454543447,956,323,0,0,0,2,1,1,21,0002-00-0003-92.png,0004-00-0008-13.png
14,403,0,1443454543472,1443454544470,939,346,0,0,0,4,3,1,43,0005-00-0009-70.png,0003-00-0006-88.png
14,404,1,1443454544493,1443454544659,350,267,0,0,0,3,4,1,34,0003-00-0002-42.png,0005-00-0006-50.png
14,405,0,1443454544687,1443454545101,416,490,0,0,0,3,2,1,32,0003-00-0008-33.png,0002-00-0004-21.png
14,406,0,1443454545131,1443454545332,360,484,0,0,0,5,4,1,54,0001-00-0008-74.png,0005-00-0008-37.png
14,407,1,1443454545366,1443454545925,289,374,0,0,0,5,4,1,54,0001-00-0004-04.png,0005-00-0003-06.png
14,408,1,1443454545948,1443454546182,325,292,0,0,0,2,3,1,23,0002-00-0001-97.png,0003-00-0006-04.png
14,409,1,1443454546215,1443454546402,1000,462,0,0,0,2,3,1,23,0002-00-0005-59.png,0003-00-0008-64.png
14,410,0,1443454546447,1443454546913,294,426,0,0,0,3,4,1,34,0003-00-0006-22.png,0005-00-0004-98.png
14,411,0,1443454546937,1443454547353,937,398,0,0,0,2,1,1,21,0002-00-0003-27.png,0004-00-0009-80.png
14,412,1,1443454547377,1443454548625,366,339,0,0,0,3,2,1,32,0003-00-0003-90.png,0002-00-0009-97.png
14,413,0,1443454548651,1443454548821,900,429,0,0,0,5,4,1,54,0001-00-0001-82.png,0005-00-0001-56.png
14,414,1,1443454548847,1443454550315,953,366,0,0,0,5,4,1,54,0001-00-0003-15.png,0005-00-0000-03.png
14,415,0,1443454550348,1443454550828,350,306,0,0,0,1,2,1,12,0004-00-0002-59.png,0002-00-0009-18.png
14,416,0,1443454550852,1443454551596,857,317,0,0,0,4,3,1,43,0005-00-0004-18.png,0003-00-0009-77.png
14,417,0,1443454551631,1443454551820,349,396,0,0,0,5,4,1,54,0001-00-0002-79.png,0005-00-0006-88.png
14,418,0,1443454551857,1443454552074,320,343,0,0,0,2,3,1,23,0002-00-0008-21.png,0003-00-0003-03.png
14,419,1,1443454552102,1443454552430,1055,416,0,0,0,3,2,1,32,0003-00-0004-64.png,0002-00-0001-07.png
14,420,1,1443454552466,1443454552726,364,493,0,0,0,5,4,1,54,0001-00-0009-01.png,0005-00-0002-86.png
14,421,1,1443454552755,1443454553123,209,279,0,0,0,4,3,1,43,0005-00-0007-42.png,0003-00-0001-23.png
14,422,1,1443454553144,1443454554173,248,372,0,0,0,2,1,1,21,0002-00-0007-81.png,0004-00-0002-73.png
14,423,1,1443454554203,1443454554356,1028,345,0,0,0,1,2,1,12,0004-00-0003-76.png,0002-00-0000-56.png
14,424,1,1443454554389,1443454555166,312,388,0,0,0,3,4,1,34,0003-00-0004-26.png,0005-00-0000-80.png
14,425,1,1443454555199,1443454555740,248,332,0,0,0,3,2,1,32,0003-00-0006-36.png,0002-00-0008-90.png
14,426,0,1443454555764,1443454555999,195,494,0,0,0,4,3,1,43,0005-00-0008-69.png,0003-00-0003-47.png
14,427,0,1443454556031,1443454556515,963,294,0,0,0,2,1,1,21,0002-00-0009-13.png,0004-00-0002-30.png
14,428,0,1443454556544,1443454557225,937,373,0,0,0,1,2,1,12,0004-00-0000-04.png,0002-00-0002-77.png
14,429,0,1443454557249,1443454557835,310,361,0,0,0,5,4,1,54,0001-00-0006-19.png,0005-00-0008-45.png
14,430,0,1443454557855,1443454558227,299,266,0,0,0,2,3,1,23,0002-00-0000-18.png,0003-00-0006-09.png
14,431,0,1443454558262,1443454558718,320,363,0,0,0,5,4,1,54,0001-00-0001-63.png,0005-00-0000-56.png
14,432,0,1443454558743,1443454559192,887,424,0,0,0,3,4,1,34,0003-00-0005-29.png,0005-00-0001-71.png
14,433,0,1443454559223,1443454559620,238,409,0,0,0,5,4,1,54,0001-00-0008-26.png,0005-00-0007-69.png
14,434,0,1443454559656,1443454560597,952,364,0,0,0,2,3,1,23,0002-00-0009-61.png,0003-00-0009-00.png
14,435,0,1443454560629,1443454560998,298,371,0,0,0,3,2,1,32,0003-00-0002-84.png,0002-00-0007-87.png
14,436,1,1443454561023,1443454561551,363,292,0,0,0,1,2,1,12,0004-00-0008-90.png,0002-00-0002-26.png
14,437,1,1443454561581,1443454562457,350,358,0,0,0,2,1,1,21,0002-00-0001-19.png,0004-00-0006-30.png
14,438,1,1443454562479,1443454563088,191,454,0,0,0,5,4,1,54,0001-00-0000-93.png,0005-00-0003-65.png
14,439,0,1443454563121,1443454563475,325,253,0,0,0,3,4,1,34,0003-00-0002-61.png,0005-00-0004-14.png
14,440,0,1443454563499,1443454563782,418,496,0,0,0,4,3,1,43,0005-00-0000-42.png,0003-00-0007-91.png
14,441,1,1443454563806,1443454564230,919,364,0,0,0,5,4,1,54,0001-00-0001-57.png,0005-00-0005-85.png
14,442,1,1443454564251,1443454564663,875,266,0,0,0,3,4,1,34,0003-00-0009-94.png,0005-00-0002-26.png
14,443,1,1443454564713,1443454565117,222,502,0,0,0,2,3,1,23,0002-00-0009-42.png,0003-00-0003-84.png
14,444,1,1443454565142,1443454565448,323,397,0,0,0,2,1,1,21,0002-00-0001-79.png,0004-00-0003-58.png
14,445,1,1443454565481,1443454565846,339,393,0,0,0,1,2,1,12,0004-00-0007-67.png,0002-00-0006-82.png
14,446,1,1443454565867,1443454566959,938,366,0,0,0,3,2,1,32,0003-00-0001-63.png,0002-00-0002-94.png
14,447,0,1443454566990,1443454567547,343,394,0,0,0,5,4,1,54,0001-00-0003-15.png,0005-00-0009-27.png
14,448,1,1443454567567,1443454568020,469,478,0,0,0,4,3,1,43,0005-00-0004-10.png,0003-00-0006-18.png
14,449,1,1443454568037,1443454568394,293,384,0,0,0,5,4,1,54,0001-00-0008-46.png,0005-00-0002-99.png
14,450,0,1443454568418,1443454569027,1096,348,0,0,0,2,3,1,23,0002-00-0003-39.png,0003-00-0005-49.png
14,451,0,1443454569050,1443454569534,401,306,0,0,0,1,2,1,12,0004-00-0001-73.png,0002-00-0004-59.png
14,452,0,1443454569569,1443454569941,206,310,0,0,0,3,4,1,34,0003-00-0004-68.png,0005-00-0005-21.png
14,453,0,1443454569972,1443454570226,360,456,0,0,0,4,3,1,43,0005-00-0007-81.png,0003-00-0001-35.png
14,454,0,1443454570258,1443454570653,899,385,0,0,0,5,4,1,54,0001-00-0002-84.png,0005-00-0004-62.png
14,455,0,1443454570678,1443454570934,952,425,0,0,0,3,2,1,32,0003-00-0008-28.png,0002-00-0009-43.png
14,456,0,1443454570951,1443454571454,928,389,0,0,0,2,1,1,21,0002-00-0006-27.png,0004-00-0006-65.png
14,457,1,1443454571493,1443454572011,341,443,0,0,0,2,1,1,21,0002-00-0008-44.png,0004-00-0005-32.png
14,458,1,1443454572030,1443454572819,287,307,0,0,0,3,2,1,32,0003-00-0005-67.png,0002-00-0004-78.png
14,459,1,1443454572846,1443454573268,371,383,0,0,0,5,4,1,54,0001-00-0005-20.png,0005-00-0009-04.png
14,460,0,1443454573289,1443454574102,928,399,0,0,0,2,3,1,23,0002-00-0003-03.png,0003-00-0005-55.png
14,461,0,1443454574123,1443454574655,325,319,0,0,0,5,4,1,54,0001-00-0007-52.png,0005-00-0006-19.png
14,462,1,1443454574685,1443454575002,931,349,0,0,0,1,2,1,12,0004-00-0004-94.png,0002-00-0004-82.png
14,463,1,1443454575038,1443454575298,952,423,0,0,0,4,3,1,43,0005-00-0005-19.png,0003-00-0004-29.png
14,464,1,1443454575329,1443454575670,264,327,0,0,0,3,4,1,34,0003-00-0006-32.png,0005-00-0006-92.png
14,465,0,1443454575691,1443454576078,1075,341,0,0,0,5,4,1,54,0001-00-0005-04.png,0005-00-0008-97.png
14,466,0,1443454576103,1443454576645,325,266,0,0,0,2,1,1,21,0002-00-0006-71.png,0004-00-0006-27.png
14,467,1,1443454576685,1443454577139,990,334,0,0,0,3,4,1,34,0003-00-0008-37.png,0005-00-0001-59.png
14,468,0,1443454577164,1443454577493,930,401,0,0,0,5,4,1,54,0001-00-0001-98.png,0005-00-0009-83.png
14,469,0,1443454577512,1443454577947,273,424,0,0,0,2,3,1,23,0002-00-0006-05.png,0003-00-0001-49.png
14,470,0,1443454577974,1443454578608,870,342,0,0,0,1,2,1,12,0004-00-0007-14.png,0002-00-0001-47.png
14,471,1,1443454578633,1443454579135,390,470,0,0,0,4,3,1,43,0005-00-0008-97.png,0003-00-0003-19.png
14,472,1,1443454579166,1443454579805,982,324,0,0,0,3,2,1,32,0003-00-0008-78.png,0002-00-0009-13.png
14,473,1,1443454579846,1443454580687,359,414,0,0,0,2,1,1,21,0002-00-0004-66.png,0004-00-0006-40.png
14,474,1,1443454580717,1443454581160,324,309,0,0,0,4,3,1,43,0005-00-0008-03.png,0003-00-0003-68.png
14,475,1,1443454581179,1443454581410,1027,333,0,0,0,2,3,1,23,0002-00-0002-98.png,0003-00-0004-51.png
14,476,0,1443454581433,1443454581683,937,346,0,0,0,5,4,1,54,0001-00-0000-71.png,0005-00-0007-10.png
14,477,0,1443454581735,1443454581982,990,332,0,0,0,3,2,1,32,0003-00-0000-73.png,0002-00-0007-95.png
14,478,0,1443454582011,1443454582264,325,348,0,0,0,1,2,1,12,0004-00-0007-49.png,0002-00-0007-89.png
14,479,1,1443454582295,1443454582882,946,446,0,0,0,5,4,1,54,0001-00-0001-10.png,0005-00-0002-18.png
14,480,0,1443454582920,1443454583154,918,365,0,0,0,3,4,1,34,0003-00-0000-60.png,0005-00-0002-05.png
14,481,1,1443454583189,1443454583647,904,402,0,0,0,4,3,1,43,0005-00-0002-04.png,0003-00-0003-74.png
14,482,1,1443454583677,1443454584720,488,509,0,0,0,5,4,1,54,0001-00-0005-84.png,0005-00-0007-39.png
14,483,1,1443454584745,1443454585169,248,512,0,0,0,2,3,1,23,0002-00-0000-00.png,0003-00-0002-04.png
14,484,0,1443454585187,1443454585520,350,384,0,0,0,5,4,1,54,0001-00-0000-69.png,0005-00-0004-56.png
14,485,1,1443454585551,1443454585989,325,332,0,0,0,3,2,1,32,0003-00-0007-01.png,0002-00-0005-54.png
14,486,0,1443454586029,1443454586787,285,333,0,0,0,1,2,1,12,0004-00-0000-07.png,0002-00-0000-60.png
14,487,0,1443454586816,1443454587436,312,345,0,0,0,3,4,1,34,0003-00-0005-07.png,0005-00-0009-44.png
14,488,1,1443454587467,1443454588477,408,505,0,0,0,2,1,1,21,0002-00-0000-09.png,0004-00-0006-27.png
14,489,1,1443454588502,1443454589319,964,358,0,0,0,1,2,1,12,0004-00-0005-44.png,0002-00-0002-33.png
14,490,1,1443454589345,1443454590076,273,344,0,0,0,5,4,1,54,0001-00-0007-80.png,0005-00-0003-20.png
14,491,0,1443454590101,1443454590694,287,430,0,0,0,3,4,1,34,0003-00-0000-62.png,0005-00-0005-87.png
14,492,1,1443454590725,1443454591109,216,551,0,0,0,4,3,1,43,0005-00-0002-44.png,0003-00-0004-90.png
14,493,0,1443454591134,1443454591367,232,482,0,0,0,5,4,1,54,0001-00-0009-30.png,0005-00-0002-53.png
14,494,0,1443454591390,1443454591940,315,327,0,0,0,2,3,1,23,0002-00-0003-81.png,0003-00-0009-61.png
14,495,0,1443454591968,1443454592437,388,435,0,0,0,2,1,1,21,0002-00-0006-58.png,0004-00-0004-38.png
14,496,1,1443454592460,1443454592880,390,398,0,0,0,3,2,1,32,0003-00-0001-37.png,0002-00-0003-19.png
14,497,1,1443454592897,1443454593307,376,382,0,0,0,2,1,1,21,0002-00-0004-72.png,0004-00-0008-58.png
14,498,0,1443454593326,1443454593946,945,361,0,0,0,3,4,1,34,0003-00-0007-43.png,0005-00-0009-75.png
14,499,0,1443454593979,1443454594798,358,453,0,0,0,1,2,1,12,0004-00-0003-13.png,0002-00-0008-19.png
14,500,1,1443454594832,1443454595251,875,319,0,0,0,3,2,1,32,0003-00-0007-50.png,0002-00-0006-65.png
14,501,0,1443454595278,1443454595505,354,493,0,0,0,5,4,1,54,0001-00-0004-14.png,0005-00-0000-20.png
14,502,1,1443454595544,1443454595899,364,410,0,0,0,5,4,1,54,0001-00-0004-36.png,0005-00-0005-73.png
14,503,1,1443454595932,1443454596398,360,388,0,0,0,4,3,1,43,0005-00-0003-38.png,0003-00-0002-83.png
14,504,1,1443454596418,1443454596924,1117,412,0,0,0,2,3,1,23,0002-00-0007-42.png,0003-00-0003-26.png
14,505,0,1443454596944,1443454597494,295,388,0,0,0,5,4,1,54,0001-00-0005-07.png,0005-00-0001-23.png
14,506,1,1443454597523,1443454597978,939,245,0,0,0,5,4,1,54,0001-00-0008-78.png,0005-00-0002-34.png
14,507,1,1443454597999,1443454598581,335,363,0,0,0,4,3,1,43,0005-00-0003-35.png,0003-00-0000-23.png
14,508,0,1443454598608,1443454598955,320,415,0,0,0,1,2,1,12,0004-00-0005-27.png,0002-00-0001-32.png
14,509,1,1443454598974,1443454599433,273,280,0,0,0,3,2,1,32,0003-00-0003-71.png,0002-00-0004-11.png
14,510,1,1443454599466,1443454599957,325,370,0,0,0,3,4,1,34,0003-00-0003-34.png,0005-00-0009-10.png
14,511,1,1443454599995,1443454600546,294,347,0,0,0,2,1,1,21,0002-00-0005-68.png,0004-00-0008-17.png
14,512,1,1443454600580,1443454601000,376,359,0,0,0,2,3,1,23,0002-00-0004-56.png,0003-00-0001-23.png
14,513,0,1443454601028,1443454601291,282,368,0,0,0,3,4,1,34,0003-00-0001-44.png,0005-00-0007-19.png
14,514,0,1443454601330,1443454601642,372,353,0,0,0,2,1,1,21,0002-00-0003-51.png,0004-00-0001-10.png
14,515,0,1443454601663,1443454602329,390,370,0,0,0,5,4,1,54,0001-00-0004-93.png,0005-00-0008-23.png
14,516,1,1443454602355,1443454602996,951,437,0,0,0,5,4,1,54,0001-00-0009-30.png,0005-00-0007-58.png
14,517,0,1443454603034,1443454603379,312,346,0,0,0,1,2,1,12,0004-00-0000-50.png,0002-00-0006-74.png
14,518,0,1443454603411,1443454603998,390,512,0,0,0,2,3,1,23,0002-00-0005-19.png,0003-00-0009-56.png
14,519,0,1443454604030,1443454604236,925,430,0,0,0,4,3,1,43,0005-00-0006-52.png,0003-00-0004-20.png
14,520,1,1443454604273,1443454604986,299,397,0,0,0,3,2,1,32,0003-00-0005-98.png,0002-00-0001-53.png
14,521,0,1443454605009,1443454605682,338,394,0,0,0,3,2,1,32,0003-00-0002-68.png,0002-00-0002-20.png
14,522,1,1443454605707,1443454606417,385,443,0,0,0,5,4,1,54,0001-00-0003-12.png,0005-00-0003-79.png
14,523,1,1443454606453,1443454606965,222,476,0,0,0,2,3,1,23,0002-00-0005-98.png,0003-00-0007-71.png
14,524,1,1443454606993,1443454607752,1030,364,0,0,0,4,3,1,43,0005-00-0001-35.png,0003-00-0004-87.png
14,525,1,1443454607775,1443454607979,953,361,0,0,0,3,4,1,34,0003-00-0005-91.png,0005-00-0005-17.png
14,526,1,1443454608013,1443454608965,952,345,0,0,0,5,4,1,54,0001-00-0008-95.png,0005-00-0001-25.png
14,527,1,1443454609016,1443454609663,945,342,0,0,0,2,1,1,21,0002-00-0002-13.png,0004-00-0003-99.png
14,528,1,1443454609686,1443454610456,281,359,0,0,0,1,2,1,12,0004-00-0004-62.png,0002-00-0000-58.png
14,529,1,1443454610481,1443454610943,360,441,0,0,0,1,2,1,12,0004-00-0006-33.png,0002-00-0008-26.png
14,530,1,1443454610965,1443454611464,990,384,0,0,0,3,2,1,32,0003-00-0009-37.png,0002-00-0009-82.png
14,531,1,1443454611487,1443454612044,335,518,0,0,0,2,3,1,23,0002-00-0007-40.png,0003-00-0000-34.png
14,532,1,1443454612070,1443454612630,925,360,0,0,0,5,4,1,54,0001-00-0002-12.png,0005-00-0008-44.png
14,533,1,1443454612657,1443454613609,331,414,0,0,0,3,4,1,34,0003-00-0000-00.png,0005-00-0009-84.png
14,534,1,1443454613638,1443454614548,222,334,0,0,0,5,4,1,54,0001-00-0008-55.png,0005-00-0009-30.png
14,535,0,1443454614570,1443454614875,305,385,0,0,0,4,3,1,43,0005-00-0003-83.png,0003-00-0004-71.png
14,536,0,1443454614901,1443454615765,1060,314,0,0,0,2,1,1,21,0002-00-0000-35.png,0004-00-0001-36.png
14,537,0,1443454615791,1443454616483,972,342,0,0,0,1,2,1,12,0004-00-0006-41.png,0002-00-0006-18.png
14,538,0,1443454616509,1443454617019,1007,375,0,0,0,4,3,1,43,0005-00-0006-71.png,0003-00-0001-93.png
14,539,0,1443454617047,1443454617227,320,350,0,0,0,2,3,1,23,0002-00-0000-27.png,0003-00-0009-03.png
14,540,0,1443454617254,1443454617607,346,358,0,0,0,5,4,1,54,0001-00-0003-48.png,0005-00-0004-86.png
14,541,1,1443454617630,1443454617845,963,294,0,0,0,3,4,1,34,0003-00-0001-31.png,0005-00-0001-06.png
14,542,1,1443454617875,1443454618580,1118,344,0,0,0,5,4,1,54,0001-00-0007-24.png,0005-00-0007-06.png
14,543,0,1443454618606,1443454619074,907,527,0,0,0,3,2,1,32,0003-00-0001-86.png,0002-00-0000-05.png
14,544,1,1443454619106,1443454619285,233,388,0,0,0,2,1,1,21,0002-00-0006-19.png,0004-00-0008-46.png
14,545,1,1443454619317,1443454619849,299,372,0,0,0,3,2,1,32,0003-00-0001-21.png,0002-00-0008-97.png
14,546,1,1443454619875,1443454620297,335,364,0,0,0,4,3,1,43,0005-00-0005-62.png,0003-00-0007-06.png
14,547,1,1443454620327,1443454621652,926,364,0,0,0,5,4,1,54,0001-00-0003-51.png,0005-00-0009-22.png
14,548,1,1443454621674,1443454622206,367,429,0,0,0,5,4,1,54,0001-00-0000-06.png,0005-00-0004-74.png
14,549,0,1443454622229,1443454622774,362,397,0,0,0,1,2,1,12,0004-00-0001-73.png,0002-00-0005-05.png
14,550,1,1443454622797,1443454623059,325,305,0,0,0,3,4,1,34,0003-00-0001-69.png,0005-00-0001-41.png
14,551,1,1443454623104,1443454623738,264,337,0,0,0,2,1,1,21,0002-00-0000-32.png,0004-00-0004-42.png
14,552,0,1443454623756,1443454624266,398,409,0,0,0,2,3,1,23,0002-00-0002-98.png,0003-00-0008-19.png
14,553,0,1443454624286,1443454624527,222,452,0,0,0,3,2,1,32,0003-00-0004-62.png,0002-00-0005-12.png
14,554,1,1443454624565,1443454624987,238,300,0,0,0,2,1,1,21,0002-00-0000-10.png,0004-00-0000-22.png
14,555,0,1443454625012,1443454625246,345,411,0,0,0,5,4,1,54,0001-00-0006-33.png,0005-00-0005-07.png
14,556,0,1443454625276,1443454625662,983,296,0,0,0,2,3,1,23,0002-00-0002-29.png,0003-00-0001-51.png
14,557,0,1443454625694,1443454626474,297,354,0,0,0,1,2,1,12,0004-00-0005-42.png,0002-00-0008-42.png
14,558,0,1443454626508,1443454626775,878,469,0,0,0,3,4,1,34,0003-00-0004-49.png,0005-00-0005-60.png
14,559,1,1443454626808,1443454627892,285,420,0,0,0,4,3,1,43,0005-00-0001-50.png,0003-00-0001-92.png
14,560,1,1443454627934,1443454628346,235,253,0,0,0,5,4,1,54,0001-00-0001-45.png,0005-00-0003-45.png
14,561,1,1443454628384,1443454628956,876,318,0,0,0,2,3,1,23,0002-00-0005-98.png,0003-00-0008-92.png
14,562,0,1443454628972,1443454629587,386,443,0,0,0,5,4,1,54,0001-00-0008-80.png,0005-00-0000-43.png
14,563,1,1443454629610,1443454630382,385,415,0,0,0,4,3,1,43,0005-00-0009-79.png,0003-00-0007-59.png
14,564,1,1443454630421,1443454630892,331,324,0,0,0,2,1,1,21,0002-00-0009-91.png,0004-00-0007-65.png
14,565,1,1443454630923,1443454631261,237,464,0,0,0,5,4,1,54,0001-00-0001-97.png,0005-00-0005-26.png
14,566,1,1443454631290,1443454632384,299,378,0,0,0,1,2,1,12,0004-00-0008-24.png,0002-00-0002-73.png
14,567,0,1443454632410,1443454632972,401,371,0,0,0,3,4,1,34,0003-00-0000-82.png,0005-00-0008-19.png
14,568,1,1443454633027,1443454633331,325,328,0,0,0,3,2,1,32,0003-00-0005-29.png,0002-00-0004-11.png
14,569,1,1443454633366,1443454633831,273,397,0,0,0,3,4,1,34,0003-00-0006-27.png,0005-00-0000-37.png
14,570,1,1443454633858,1443454634242,995,314,0,0,0,4,3,1,43,0005-00-0001-71.png,0003-00-0007-77.png
14,571,0,1443454634267,1443454635098,928,391,0,0,0,2,3,1,23,0002-00-0002-22.png,0003-00-0005-47.png
14,572,1,1443454635131,1443454635621,954,361,0,0,0,3,2,1,32,0003-00-0008-53.png,0002-00-0006-72.png
14,573,0,1443454635658,1443454636567,333,341,0,0,0,5,4,1,54,0001-00-0006-13.png,0005-00-0007-60.png
14,574,0,1443454636605,1443454637122,238,301,0,0,0,2,1,1,21,0002-00-0001-77.png,0004-00-0006-37.png
14,575,1,1443454637156,1443454638002,924,353,0,0,0,1,2,1,12,0004-00-0002-18.png,0002-00-0006-71.png
14,576,0,1443454638037,1443454638288,342,367,0,0,0,5,4,1,54,0001-00-0001-63.png,0005-00-0005-87.png
14,577,1,1443454638315,1443454638534,377,489,0,0,0,2,3,1,23,0002-00-0006-47.png,0003-00-0009-20.png
14,578,0,1443454638559,1443454639005,273,345,0,0,0,5,4,1,54,0001-00-0004-78.png,0005-00-0008-56.png
14,579,1,1443454639031,1443454639768,366,429,0,0,0,2,1,1,21,0002-00-0000-15.png,0004-00-0001-86.png
14,580,1,1443454639797,1443454640376,186,390,0,0,0,1,2,1,12,0004-00-0007-82.png,0002-00-0005-77.png
14,581,0,1443454640400,1443454640806,1055,337,0,0,0,4,3,1,43,0005-00-0002-18.png,0003-00-0005-22.png
14,582,1,1443454640830,1443454641208,416,392,0,0,0,5,4,1,54,0001-00-0007-91.png,0005-00-0004-14.png
14,583,1,1443454641242,1443454641645,413,451,0,0,0,3,2,1,32,0003-00-0003-89.png,0002-00-0001-17.png
14,584,1,1443454641678,1443454642158,946,345,0,0,0,3,4,1,34,0003-00-0006-74.png,0005-00-0001-56.png
14,585,1,1443454642195,1443454642470,392,376,0,0,0,4,3,1,43,0005-00-0006-30.png,0003-00-0001-85.png
14,586,1,1443454642501,1443454642816,286,372,0,0,0,3,2,1,32,0003-00-0002-48.png,0002-00-0003-63.png
14,587,1,1443454642841,1443454643463,876,408,0,0,0,5,4,1,54,0001-00-0009-17.png,0005-00-0009-59.png
14,588,0,1443454643494,1443454643807,318,386,0,0,0,2,1,1,21,0002-00-0009-35.png,0004-00-0002-39.png
14,589,1,1443454643836,1443454644657,955,364,0,0,0,1,2,1,12,0004-00-0008-79.png,0002-00-0007-58.png
14,590,1,1443454644685,1443454645292,184,343,0,0,0,2,3,1,23,0002-00-0002-94.png,0003-00-0003-14.png
14,591,0,1443454645330,1443454646055,980,347,0,0,0,5,4,1,54,0001-00-0003-07.png,0005-00-0006-17.png
14,592,0,1443454646079,1443454646758,384,261,0,0,0,3,4,1,34,0003-00-0005-14.png,0005-00-0004-56.png
14,593,1,1443454646777,1443454647207,314,363,0,0,0,5,4,1,54,0001-00-0009-83.png,0005-00-0009-58.png
14,594,0,1443454647229,1443454647550,416,397,0,0,0,2,1,1,21,0002-00-0000-94.png,0004-00-0001-10.png
14,595,1,1443454647586,1443454647887,905,402,0,0,0,3,2,1,32,0003-00-0001-50.png,0002-00-0002-15.png
14,596,1,1443454647915,1443454648173,325,398,0,0,0,5,4,1,54,0001-00-0007-11.png,0005-00-0004-24.png
14,597,1,1443454648213,1443454648845,1002,423,0,0,0,2,3,1,23,0002-00-0006-27.png,0003-00-0004-79.png
14,598,1,1443454648874,1443454649273,951,357,0,0,0,1,2,1,12,0004-00-0001-78.png,0002-00-0001-25.png
14,599,0,1443454649307,1443454649618,386,338,0,0,0,3,4,1,34,0003-00-0000-58.png,0005-00-0003-96.png
14,600,1,1443454649648,1443454649926,1054,240,0,0,0,4,3,1,43,0005-00-0002-91.png,0003-00-0003-43.png
14,601,0,1443454649954,1443454650415,361,402,0,0,0,2,1,1,21,0002-00-0002-33.png,0004-00-0005-63.png
14,602,0,1443454650464,1443454650592,393,431,0,0,0,3,2,1,32,0003-00-0002-29.png,0002-00-0000-30.png
14,603,0,1443454650620,1443454651068,900,247,0,0,0,4,3,1,43,0005-00-0002-44.png,0003-00-0002-09.png
14,604,1,1443454651094,1443454652383,979,361,0,0,0,5,4,1,54,0001-00-0008-00.png,0005-00-0008-47.png
14,605,1,1443454652428,1443454652838,401,306,0,0,0,5,4,1,54,0001-00-0000-93.png,0005-00-0009-27.png
14,606,0,1443454652857,1443454653065,325,352,0,0,0,1,2,1,12,0004-00-0003-02.png,0002-00-0006-11.png
14,607,0,1443454653091,1443454653833,395,420,0,0,0,3,4,1,34,0003-00-0006-67.png,0005-00-0008-06.png
14,608,1,1443454653871,1443454654418,440,360,0,0,0,2,3,1,23,0002-00-0007-81.png,0003-00-0006-64.png
14,609,0,1443454654447,1443454654679,371,372,0,0,0,2,1,1,21,0002-00-0008-24.png,0004-00-0006-64.png
14,610,0,1443454654721,1443454655448,299,384,0,0,0,3,2,1,32,0003-00-0002-48.png,0002-00-0006-64.png
14,611,0,1443454655475,1443454656170,368,405,0,0,0,2,3,1,23,0002-00-0007-94.png,0003-00-0001-85.png
14,612,1,1443454656198,1443454656458,366,391,0,0,0,4,3,1,43,0005-00-0004-24.png,0003-00-0001-08.png
14,613,0,1443454656478,1443454656772,311,437,0,0,0,5,4,1,54,0001-00-0005-59.png,0005-00-0008-38.png
14,614,1,1443454656799,1443454657869,269,343,0,0,0,5,4,1,54,0001-00-0007-79.png,0005-00-0000-99.png
14,615,1,1443454657899,1443454658723,1038,343,0,0,0,3,4,1,34,0003-00-0003-72.png,0005-00-0004-92.png
14,616,1,1443454658762,1443454659285,248,358,0,0,0,1,2,1,12,0004-00-0000-56.png,0002-00-0001-36.png
14,617,1,1443454659313,1443454659770,928,400,0,0,0,5,4,1,54,0001-00-0001-17.png,0005-00-0007-68.png
14,618,0,1443454659800,1443454660409,416,370,0,0,0,1,2,1,12,0004-00-0001-61.png,0002-00-0002-44.png
14,619,1,1443454660431,1443454660853,1033,375,0,0,0,2,1,1,21,0002-00-0000-98.png,0004-00-0004-14.png
14,620,1,1443454660898,1443454661359,926,410,0,0,0,3,2,1,32,0003-00-0006-85.png,0002-00-0006-10.png
14,621,1,1443454661396,1443454661893,317,337,0,0,0,4,3,1,43,0005-00-0004-45.png,0003-00-0006-87.png
14,622,1,1443454661928,1443454662626,956,348,0,0,0,3,4,1,34,0003-00-0009-79.png,0005-00-0003-36.png
14,623,1,1443454662678,1443454663330,360,379,0,0,0,5,4,1,54,0001-00-0006-28.png,0005-00-0006-53.png
14,624,1,1443454663353,1443454663569,287,371,0,0,0,2,3,1,23,0002-00-0003-61.png,0003-00-0000-77.png
14,625,1,1443454663598,1443454663899,942,333,0,0,0,2,1,1,21,0002-00-0003-35.png,0004-00-0009-62.png
14,626,1,1443454663937,1443454664095,299,293,0,0,0,2,3,1,23,0002-00-0007-16.png,0003-00-0005-92.png
14,627,1,1443454664110,1443454664707,361,363,0,0,0,4,3,1,43,0005-00-0006-51.png,0003-00-0001-88.png
14,628,0,1443454664741,1443454665138,368,390,0,0,0,3,2,1,32,0003-00-0008-90.png,0002-00-0001-33.png
14,629,1,1443454665159,1443454665737,1195,253,0,0,0,5,4,1,54,0001-00-0000-97.png,0005-00-0001-50.png
14,630,0,1443454665773,1443454666231,322,368,0,0,0,5,4,1,54,0001-00-0004-88.png,0005-00-0006-73.png
14,631,0,1443454666259,1443454666808,888,312,0,0,0,3,4,1,34,0003-00-0008-87.png,0005-00-0005-15.png
14,632,1,1443454666834,1443454667048,958,366,0,0,0,1,2,1,12,0004-00-0006-93.png,0002-00-0006-84.png
14,633,0,1443454667076,1443454668180,949,282,0,0,0,5,4,1,54,0001-00-0007-43.png,0005-00-0001-34.png
14,634,1,1443454668205,1443454668649,427,384,0,0,0,3,2,1,32,0003-00-0005-03.png,0002-00-0001-76.png
14,635,1,1443454668676,1443454668962,1080,358,0,0,0,3,4,1,34,0003-00-0003-52.png,0005-00-0001-11.png
14,636,1,1443454669002,1443454669677,385,417,0,0,0,4,3,1,43,0005-00-0006-14.png,0003-00-0006-58.png
14,637,1,1443454669706,1443454669904,340,384,0,0,0,2,1,1,21,0002-00-0006-22.png,0004-00-0000-15.png
14,638,0,1443454669945,1443454670326,421,401,0,0,0,2,3,1,23,0002-00-0006-14.png,0003-00-0002-10.png
14,639,0,1443454670345,1443454670797,440,356,0,0,0,1,2,1,12,0004-00-0002-07.png,0002-00-0002-69.png
14,640,0,1443454670827,1443454671286,292,342,0,0,0,5,4,1,54,0001-00-0009-08.png,0005-00-0008-97.png
14,641,1,1443454671311,1443454671793,921,289,0,0,0,2,1,1,21,0002-00-0001-24.png,0004-00-0000-33.png
14,642,1,1443454671827,1443454672465,990,279,0,0,0,5,4,1,54,0001-00-0008-84.png,0005-00-0007-59.png
14,643,1,1443454672487,1443454672811,325,291,0,0,0,1,2,1,12,0004-00-0009-07.png,0002-00-0001-19.png
14,644,1,1443454672839,1443454673190,401,383,0,0,0,3,4,1,34,0003-00-0000-08.png,0005-00-0009-56.png
14,645,0,1443454673214,1443454673707,999,367,0,0,0,5,4,1,54,0001-00-0009-11.png,0005-00-0003-14.png
14,646,1,1443454673738,1443454674384,315,276,0,0,0,2,3,1,23,0002-00-0002-58.png,0003-00-0000-58.png
14,647,0,1443454674404,1443454674733,884,307,0,0,0,3,2,1,32,0003-00-0008-18.png,0002-00-0001-55.png
14,648,0,1443454674754,1443454675375,384,248,0,0,0,4,3,1,43,0005-00-0003-83.png,0003-00-0002-32.png
14,649,1,1443454675407,1443454676614,981,311,0,0,0,5,4,1,54,0001-00-0006-82.png,0005-00-0005-16.png
14,650,1,1443454676655,1443454677172,277,371,0,0,0,2,1,1,21,0002-00-0006-17.png,0004-00-0009-86.png
14,651,1,1443454677201,1443454677698,350,383,0,0,0,5,4,1,54,0001-00-0002-95.png,0005-00-0007-53.png
14,652,0,1443454677724,1443454678080,919,430,0,0,0,3,4,1,34,0003-00-0001-94.png,0005-00-0001-15.png
14,653,1,1443454678115,1443454678365,926,384,0,0,0,3,2,1,32,0003-00-0003-24.png,0002-00-0003-67.png
14,654,0,1443454678391,1443454678655,924,430,0,0,0,4,3,1,43,0005-00-0007-56.png,0003-00-0003-73.png
14,655,1,1443454678679,1443454679126,986,383,0,0,0,2,3,1,23,0002-00-0005-91.png,0003-00-0002-89.png
14,656,1,1443454679165,1443454679442,335,442,0,0,0,1,2,1,12,0004-00-0009-58.png,0002-00-0002-91.png
14,657,1,1443454679469,1443454680207,313,341,0,0,0,2,1,1,21,0002-00-0008-58.png,0004-00-0008-45.png
14,658,1,1443454680236,1443454680725,907,430,0,0,0,5,4,1,54,0001-00-0008-22.png,0005-00-0000-98.png
14,659,1,1443454680756,1443454681376,940,423,0,0,0,3,2,1,32,0003-00-0009-17.png,0002-00-0003-66.png
14,660,1,1443454681412,1443454681865,350,344,0,0,0,5,4,1,54,0001-00-0009-43.png,0005-00-0000-96.png
14,661,1,1443454681891,1443454682022,453,282,0,0,0,3,4,1,34,0003-00-0009-99.png,0005-00-0007-14.png
14,662,1,1443454682052,1443454682339,325,344,0,0,0,1,2,1,12,0004-00-0005-73.png,0002-00-0009-40.png
14,663,1,1443454682372,1443454683287,953,260,0,0,0,2,3,1,23,0002-00-0006-08.png,0003-00-0004-73.png
14,664,1,1443454683313,1443454683993,1059,265,0,0,0,4,3,1,43,0005-00-0003-64.png,0003-00-0002-98.png
14,665,1,1443454684024,1443454684250,350,306,0,0,0,2,3,1,23,0002-00-0009-06.png,0003-00-0003-16.png
14,666,0,1443454684275,1443454684787,969,388,0,0,0,4,3,1,43,0005-00-0002-21.png,0003-00-0002-22.png
14,667,1,1443454684818,1443454685219,319,344,0,0,0,3,4,1,34,0003-00-0006-14.png,0005-00-0002-84.png
14,668,0,1443454685245,1443454685676,906,364,0,0,0,5,4,1,54,0001-00-0008-49.png,0005-00-0004-06.png
14,669,0,1443454685710,1443454686343,928,442,0,0,0,3,2,1,32,0003-00-0004-43.png,0002-00-0004-54.png
14,670,0,1443454686375,1443454687046,1031,347,0,0,0,1,2,1,12,0004-00-0002-00.png,0002-00-0003-60.png
14,671,0,1443454687074,1443454687326,382,409,0,0,0,5,4,1,54,0001-00-0008-82.png,0005-00-0006-56.png
14,672,1,1443454687355,1443454687945,345,316,0,0,0,2,1,1,21,0002-00-0004-05.png,0004-00-0003-89.png
14,673,0,1443454687977,1443454688485,921,298,0,0,0,3,2,1,32,0003-00-0006-84.png,0002-00-0002-70.png
14,674,1,1443454688505,1443454688963,185,490,0,0,0,5,4,1,54,0001-00-0006-12.png,0005-00-0005-20.png
14,675,1,1443454688993,1443454689784,917,424,0,0,0,4,3,1,43,0005-00-0000-53.png,0003-00-0008-70.png
14,676,1,1443454689799,1443454690433,981,428,0,0,0,5,4,1,54,0001-00-0008-88.png,0005-00-0004-18.png
14,677,0,1443454690454,1443454690992,352,381,0,0,0,2,3,1,23,0002-00-0000-34.png,0003-00-0003-80.png
14,678,0,1443454691023,1443454691515,401,306,0,0,0,2,1,1,21,0002-00-0000-49.png,0004-00-0001-85.png
14,679,1,1443454691538,1443454692218,415,423,0,0,0,1,2,1,12,0004-00-0003-83.png,0002-00-0008-75.png
14,680,0,1443454692249,1443454692361,977,345,0,0,0,3,4,1,34,0003-00-0004-55.png,0005-00-0009-43.png
14,681,1,1443454692381,1443454693091,335,279,0,0,0,5,4,1,54,0001-00-0004-87.png,0005-00-0002-12.png
14,682,0,1443454693128,1443454693695,389,425,0,0,0,3,4,1,34,0003-00-0004-78.png,0005-00-0008-53.png
14,683,0,1443454693732,1443454694947,988,241,0,0,0,4,3,1,43,0005-00-0000-29.png,0003-00-0008-63.png
14,684,1,1443454694988,1443454695245,997,367,0,0,0,3,2,1,32,0003-00-0001-41.png,0002-00-0004-96.png
14,685,0,1443454695269,1443454695715,875,332,0,0,0,5,4,1,54,0001-00-0004-51.png,0005-00-0005-62.png
14,686,0,1443454695756,1443454696333,410,392,0,0,0,1,2,1,12,0004-00-0009-69.png,0002-00-0006-74.png
14,687,1,1443454696358,1443454696755,925,265,0,0,0,2,3,1,23,0002-00-0006-80.png,0003-00-0004-05.png
14,688,0,1443454696780,1443454697116,877,319,0,0,0,2,1,1,21,0002-00-0004-01.png,0004-00-0002-65.png
14,689,1,1443454697138,1443454697809,427,344,0,0,0,4,3,1,43,0005-00-0007-66.png,0003-00-0008-86.png
14,690,0,1443454697839,1443454698547,1020,348,0,0,0,3,2,1,32,0003-00-0002-51.png,0002-00-0006-37.png
14,691,1,1443454698581,1443454698723,401,344,0,0,0,2,3,1,23,0002-00-0003-18.png,0003-00-0005-04.png
14,692,0,1443454698744,1443454699094,412,267,0,0,0,3,4,1,34,0003-00-0004-71.png,0005-00-0006-34.png
14,693,1,1443454699121,1443454699630,932,392,0,0,0,1,2,1,12,0004-00-0005-46.png,0002-00-0000-02.png
14,694,1,1443454699664,1443454700192,364,384,0,0,0,5,4,1,54,0001-00-0004-15.png,0005-00-0001-30.png
14,695,1,1443454700217,1443454700630,998,263,0,0,0,2,1,1,21,0002-00-0002-25.png,0004-00-0008-03.png
14,696,1,1443454700680,1443454701192,922,393,0,0,0,5,4,1,54,0001-00-0000-33.png,0005-00-0008-62.png
14,697,1,1443454701207,1443454701390,312,439,0,0,0,1,2,1,12,0004-00-0002-60.png,0002-00-0009-98.png
14,698,1,1443454701421,1443454701800,1028,358,0,0,0,4,3,1,43,0005-00-0000-41.png,0003-00-0001-20.png
14,699,0,1443454701833,1443454703221,350,306,0,0,0,5,4,1,54,0001-00-0003-38.png,0005-00-0003-29.png
14,700,1,1443454703247,1443454703845,977,371,0,0,0,3,2,1,32,0003-00-0007-87.png,0002-00-0003-23.png
14,701,0,1443454703879,1443454704321,939,370,0,0,0,2,3,1,23,0002-00-0000-87.png,0003-00-0005-10.png
14,702,1,1443454704351,1443454704751,439,332,0,0,0,2,1,1,21,0002-00-0007-72.png,0004-00-0004-44.png
14,703,1,1443454704777,1443454705594,921,419,0,0,0,5,4,1,54,0001-00-0000-46.png,0005-00-0005-79.png
14,704,1,1443454705610,1443454706080,982,372,0,0,0,3,4,1,34,0003-00-0005-00.png,0005-00-0000-64.png
14,705,0,1443454706121,1443454706760,416,366,0,0,0,4,3,1,43,0005-00-0001-51.png,0003-00-0004-69.png
14,706,0,1443454706780,1443454706976,902,267,0,0,0,1,2,1,12,0004-00-0009-51.png,0002-00-0007-90.png
14,707,1,1443454707000,1443454707580,896,315,0,0,0,3,2,1,32,0003-00-0009-40.png,0002-00-0008-09.png
14,708,0,1443454707609,1443454708063,328,377,0,0,0,2,1,1,21,0002-00-0007-39.png,0004-00-0003-18.png
14,709,1,1443454708107,1443454708422,922,419,0,0,0,5,4,1,54,0001-00-0007-78.png,0005-00-0008-40.png
14,710,1,1443454708448,1443454709232,925,412,0,0,0,3,4,1,34,0003-00-0006-53.png,0005-00-0006-43.png
14,711,1,1443454709264,1443454709762,913,346,0,0,0,5,4,1,54,0001-00-0003-71.png,0005-00-0009-85.png
14,712,0,1443454709800,1443454710167,926,424,0,0,0,2,3,1,23,0002-00-0009-17.png,0003-00-0001-36.png
14,713,1,1443454710195,1443454711363,954,349,0,0,0,2,1,1,21,0002-00-0003-99.png,0004-00-0001-00.png
14,714,1,1443454711385,1443454712304,273,385,0,0,0,5,4,1,54,0001-00-0008-96.png,0005-00-0007-76.png
14,715,1,1443454712347,1443454712703,248,319,0,0,0,4,3,1,43,0005-00-0007-36.png,0003-00-0000-78.png
14,716,0,1443454712731,1443454713366,465,387,0,0,0,5,4,1,54,0001-00-0001-89.png,0005-00-0009-48.png
14,717,0,1443454713386,1443454713686,939,384,0,0,0,1,2,1,12,0004-00-0006-60.png,0002-00-0005-15.png
14,718,0,1443454713717,1443454713979,932,431,0,0,0,3,2,1,32,0003-00-0005-52.png,0002-00-0004-20.png
14,719,0,1443454714011,1443454714396,862,351,0,0,0,3,4,1,34,0003-00-0000-48.png,0005-00-0004-90.png
14,720,1,1443454714421,1443454715045,353,367,0,0,0,2,3,1,23,0002-00-0000-14.png,0003-00-0006-21.png
14,721,0,1443454715079,1443454717178,877,324,0,0,0,5,4,1,54,0001-00-0005-71.png,0005-00-0006-85.png
14,722,1,1443454717220,1443454717620,958,376,0,0,0,5,4,1,54,0001-00-0007-54.png,0005-00-0001-14.png
14,723,1,1443454717642,1443454717954,948,390,0,0,0,3,2,1,32,0003-00-0009-23.png,0002-00-0000-28.png
14,724,1,1443454717987,1443454719111,977,398,0,0,0,4,3,1,43,0005-00-0007-04.png,0003-00-0008-08.png
14,725,0,1443454719133,1443454719879,392,332,0,0,0,3,4,1,34,0003-00-0009-06.png,0005-00-0000-40.png
14,726,0,1443454719903,1443454720275,1003,319,0,0,0,1,2,1,12,0004-00-0000-30.png,0002-00-0002-48.png
14,727,1,1443454720320,1443454721401,1041,397,0,0,0,2,1,1,21,0002-00-0007-27.png,0004-00-0002-42.png
14,728,0,1443454721422,1443454722216,954,405,0,0,0,2,3,1,23,0002-00-0005-10.png,0003-00-0001-81.png
14,729,1,1443454722246,1443454722477,416,371,0,0,0,2,3,1,23,0002-00-0009-10.png,0003-00-0005-41.png
14,730,1,1443454722510,1443454723651,397,440,0,0,0,5,4,1,54,0001-00-0000-54.png,0005-00-0001-87.png
14,731,1,1443454723665,1443454724982,401,332,0,0,0,5,4,1,54,0001-00-0006-11.png,0005-00-0008-37.png
14,732,1,1443454725023,1443454725485,972,393,0,0,0,2,1,1,21,0002-00-0000-53.png,0004-00-0005-71.png
14,733,0,1443454725519,1443454726516,1086,369,0,0,0,3,4,1,34,0003-00-0007-38.png,0005-00-0000-72.png
14,734,1,1443454726543,1443454727087,929,363,0,0,0,4,3,1,43,0005-00-0003-50.png,0003-00-0000-56.png
14,735,0,1443454727116,1443454727431,952,365,0,0,0,1,2,1,12,0004-00-0007-95.png,0002-00-0002-90.png
14,736,1,1443454727455,1443454727832,364,366,0,0,0,3,2,1,32,0003-00-0005-21.png,0002-00-0000-56.png
14,737,0,1443454727856,1443454728433,325,318,0,0,0,3,2,1,32,0003-00-0005-05.png,0002-00-0001-44.png
14,738,0,1443454728450,1443454729012,350,332,0,0,0,2,1,1,21,0002-00-0001-89.png,0004-00-0003-54.png
14,739,0,1443454729036,1443454729336,312,397,0,0,0,5,4,1,54,0001-00-0007-80.png,0005-00-0009-43.png
14,740,0,1443454729367,1443454730046,318,499,0,0,0,3,4,1,34,0003-00-0005-38.png,0005-00-0000-84.png
14,741,1,1443454730077,1443454730601,315,363,0,0,0,5,4,1,54,0001-00-0003-54.png,0005-00-0000-70.png
14,742,1,1443454730623,1443454731643,928,427,0,0,0,2,3,1,23,0002-00-0006-60.png,0003-00-0006-95.png
14,743,0,1443454731669,1443454732099,937,398,0,0,0,4,3,1,43,0005-00-0003-05.png,0003-00-0008-64.png
14,744,0,1443454732124,1443454732410,1085,371,0,0,0,1,2,1,12,0004-00-0007-08.png,0002-00-0002-02.png
14,745,0,1443454732446,1443454732798,291,376,0,0,0,2,3,1,23,0002-00-0008-48.png,0003-00-0007-67.png
14,746,1,1443454732832,1443454733824,927,408,0,0,0,3,2,1,32,0003-00-0002-45.png,0002-00-0008-00.png
14,747,0,1443454733856,1443454734776,397,441,0,0,0,2,1,1,21,0002-00-0002-71.png,0004-00-0002-62.png
14,748,1,1443454734806,1443454735615,1057,349,0,0,0,5,4,1,54,0001-00-0004-34.png,0005-00-0001-53.png
14,749,1,1443454735649,1443454736026,319,395,0,0,0,4,3,1,43,0005-00-0007-68.png,0003-00-0002-08.png
14,750,0,1443454736066,1443454736580,937,347,0,0,0,5,4,1,54,0001-00-0002-26.png,0005-00-0006-44.png
14,751,1,1443454736607,1443454737134,1008,349,0,0,0,1,2,1,12,0004-00-0003-62.png,0002-00-0000-73.png
14,752,0,1443454737164,1443454737535,336,253,0,0,0,3,4,1,34,0003-00-0002-82.png,0005-00-0006-53.png
14,753,1,1443454737559,1443454738387,1008,227,0,0,0,4,3,1,43,0005-00-0000-24.png,0003-00-0003-66.png
14,754,0,1443454738412,1443454738776,365,339,0,0,0,2,3,1,23,0002-00-0002-74.png,0003-00-0002-87.png
14,755,1,1443454738802,1443454740217,293,290,0,0,0,1,2,1,12,0004-00-0004-91.png,0002-00-0004-94.png
14,756,1,1443454740243,1443454740614,309,344,0,0,0,5,4,1,54,0001-00-0005-86.png,0005-00-0000-04.png
14,757,0,1443454740636,1443454741230,951,462,0,0,0,5,4,1,54,0001-00-0006-67.png,0005-00-0001-34.png
14,758,0,1443454741259,1443454741904,1049,392,0,0,0,3,4,1,34,0003-00-0009-80.png,0005-00-0009-08.png
14,759,1,1443454741941,1443454742359,416,447,0,0,0,3,2,1,32,0003-00-0006-60.png,0002-00-0009-65.png
14,760,0,1443454742380,1443454743473,379,433,0,0,0,2,1,1,21,0002-00-0000-02.png,0004-00-0009-99.png
14,761,1,1443454743503,1443454743746,925,437,0,0,0,3,4,1,34,0003-00-0000-70.png,0005-00-0003-66.png
14,762,1,1443454743770,1443454744119,319,395,0,0,0,1,2,1,12,0004-00-0003-34.png,0002-00-0002-24.png
14,763,0,1443454744164,1443454744333,376,344,0,0,0,2,3,1,23,0002-00-0006-75.png,0003-00-0005-01.png
14,764,1,1443454744368,1443454744759,299,293,0,0,0,2,1,1,21,0002-00-0008-98.png,0004-00-0003-23.png
14,765,1,1443454744801,1443454745480,1002,332,0,0,0,5,4,1,54,0001-00-0006-56.png,0005-00-0007-80.png
14,766,1,1443454745505,1443454746069,178,480,0,0,0,3,2,1,32,0003-00-0000-06.png,0002-00-0008-90.png
14,767,1,1443454746115,1443454746487,875,504,0,0,0,5,4,1,54,0001-00-0005-02.png,0005-00-0000-48.png
14,768,1,1443454746508,1443454747133,393,403,0,0,0,4,3,1,43,0005-00-0000-35.png,0003-00-0002-79.png
14,769,1,1443454747167,1443454747384,926,384,0,0,0,4,3,1,43,0005-00-0007-66.png,0003-00-0003-76.png
14,770,1,1443454747416,1443454747801,376,345,0,0,0,3,2,1,32,0003-00-0009-13.png,0002-00-0000-50.png
14,771,1,1443454747833,1443454748209,350,344,0,0,0,2,1,1,21,0002-00-0002-87.png,0004-00-0008-25.png
14,772,1,1443454748246,1443454749390,952,345,0,0,0,5,4,1,54,0001-00-0006-97.png,0005-00-0003-18.png
14,773,1,1443454749418,1443454749718,954,365,0,0,0,1,2,1,12,0004-00-0007-78.png,0002-00-0006-88.png
14,774,0,1443454749746,1443454750033,292,354,0,0,0,3,4,1,34,0003-00-0003-62.png,0005-00-0007-58.png
14,775,0,1443454750070,1443454750675,325,391,0,0,0,2,3,1,23,0002-00-0000-77.png,0003-00-0004-41.png
14,776,1,1443454750718,1443454751393,957,488,0,0,0,5,4,1,54,0001-00-0002-53.png,0005-00-0004-04.png
14,777,0,1443454751427,1443454752053,922,366,0,0,0,2,1,1,21,0002-00-0003-35.png,0004-00-0004-16.png
14,778,1,1443454752089,1443454752495,184,423,0,0,0,1,2,1,12,0004-00-0002-38.png,0002-00-0005-46.png
14,779,0,1443454752523,1443454752916,953,293,0,0,0,3,4,1,34,0003-00-0006-36.png,0005-00-0007-52.png
14,780,0,1443454752946,1443454753547,928,427,0,0,0,5,4,1,54,0001-00-0002-09.png,0005-00-0004-75.png
14,781,1,1443454753572,1443454754003,1029,345,0,0,0,4,3,1,43,0005-00-0007-68.png,0003-00-0007-57.png
14,782,1,1443454754026,1443454754296,1058,331,0,0,0,5,4,1,54,0001-00-0004-82.png,0005-00-0001-51.png
14,783,0,1443454754328,1443454754836,300,391,0,0,0,3,2,1,32,0003-00-0003-81.png,0002-00-0002-47.png
14,784,0,1443454754867,1443454755685,309,379,0,0,0,2,3,1,23,0002-00-0006-07.png,0003-00-0001-76.png
14,785,1,1443454755715,1443454756282,927,442,0,0,0,1,2,1,12,0004-00-0007-79.png,0002-00-0002-14.png
14,786,1,1443454756313,1443454756767,990,319,0,0,0,5,4,1,54,0001-00-0002-72.png,0005-00-0006-65.png
14,787,0,1443454756800,1443454757295,1002,397,0,0,0,3,2,1,32,0003-00-0002-09.png,0002-00-0006-95.png
14,788,0,1443454757320,1443454757992,1010,264,0,0,0,2,1,1,21,0002-00-0003-15.png,0004-00-0002-55.png
14,789,0,1443454758025,1443454758301,1067,333,0,0,0,3,4,1,34,0003-00-0008-58.png,0005-00-0005-05.png
14,790,0,1443454758331,1443454758814,298,371,0,0,0,5,4,1,54,0001-00-0002-79.png,0005-00-0009-72.png
14,791,0,1443454758833,1443454759273,337,393,0,0,0,4,3,1,43,0005-00-0003-45.png,0003-00-0002-43.png
14,792,1,1443454759302,1443454760004,913,306,0,0,0,2,3,1,23,0002-00-0003-39.png,0003-00-0004-43.png
14,793,1,1443454760027,1443454760513,419,392,0,0,0,5,4,1,54,0001-00-0009-66.png,0005-00-0002-54.png
14,794,1,1443454760542,1443454760863,895,289,0,0,0,2,3,1,23,0002-00-0003-22.png,0003-00-0003-69.png
14,795,1,1443454760907,1443454761330,389,312,0,0,0,3,4,1,34,0003-00-0009-03.png,0005-00-0009-69.png
14,796,1,1443454761359,1443454762145,956,237,0,0,0,1,2,1,12,0004-00-0009-34.png,0002-00-0006-77.png
14,797,1,1443454762168,1443454764277,924,403,0,0,0,4,3,1,43,0005-00-0008-92.png,0003-00-0004-02.png
14,798,0,1443454764300,1443454764570,354,440,0,0,0,5,4,1,54,0001-00-0007-66.png,0005-00-0003-22.png
14,799,1,1443454764598,1443454764831,401,486,0,0,0,3,2,1,32,0003-00-0000-60.png,0002-00-0003-87.png
14,800,0,1443454764866,1443454765052,1003,359,0,0,0,2,1,1,21,0002-00-0003-37.png,0004-00-0007-27.png
14,801,0,1443454765074,1443454765411,338,370,0,0,0,2,1,1,21,0002-00-0000-36.png,0004-00-0000-26.png
14,802,1,1443454765439,1443454766056,264,339,0,0,0,5,4,1,54,0001-00-0002-37.png,0005-00-0003-96.png
14,803,1,1443454766082,1443454766455,953,279,0,0,0,2,3,1,23,0002-00-0005-71.png,0003-00-0009-23.png
14,804,1,1443454766488,1443454766891,921,419,0,0,0,1,2,1,12,0004-00-0006-31.png,0002-00-0005-13.png
14,805,1,1443454766923,1443454767198,952,293,0,0,0,3,4,1,34,0003-00-0008-81.png,0005-00-0008-67.png
14,806,1,1443454767229,1443454767447,340,431,0,0,0,5,4,1,54,0001-00-0002-90.png,0005-00-0006-08.png
14,807,1,1443454767476,1443454767578,977,384,0,0,0,4,3,1,43,0005-00-0004-03.png,0003-00-0008-51.png
14,808,0,1443454767619,1443454767993,964,358,0,0,0,3,2,1,32,0003-00-0002-20.png,0002-00-0005-23.png
14,809,1,1443454768029,1443454768199,409,383,0,0,0,3,4,1,34,0003-00-0003-27.png,0005-00-0000-57.png
14,810,1,1443454768223,1443454768590,440,278,0,0,0,2,3,1,23,0002-00-0002-66.png,0003-00-0009-02.png
14,811,1,1443454768610,1443454769180,956,401,0,0,0,5,4,1,54,0001-00-0003-73.png,0005-00-0007-02.png
14,812,1,1443454769210,1443454769518,414,476,0,0,0,2,1,1,21,0002-00-0008-37.png,0004-00-0009-75.png
14,813,0,1443454769546,1443454770170,937,372,0,0,0,4,3,1,43,0005-00-0007-21.png,0003-00-0007-82.png
14,814,0,1443454770195,1443454770546,925,437,0,0,0,3,2,1,32,0003-00-0004-55.png,0002-00-0002-97.png
14,815,1,1443454770580,1443454771535,950,335,0,0,0,1,2,1,12,0004-00-0003-28.png,0002-00-0007-43.png
14,816,1,1443454771570,1443454771948,416,449,0,0,0,5,4,1,54,0001-00-0005-73.png,0005-00-0007-79.png
14,817,0,1443454771973,1443454772446,414,371,0,0,0,4,3,1,43,0005-00-0001-94.png,0003-00-0001-79.png
14,818,0,1443454772467,1443454773534,271,342,0,0,0,5,4,1,54,0001-00-0000-34.png,0005-00-0001-22.png
14,819,1,1443454773562,1443454773869,957,349,0,0,0,2,1,1,21,0002-00-0005-80.png,0004-00-0009-55.png
14,820,0,1443454773911,1443454774553,963,401,0,0,0,3,4,1,34,0003-00-0002-51.png,0005-00-0002-61.png
14,821,1,1443454774579,1443454774887,1069,336,0,0,0,1,2,1,12,0004-00-0003-02.png,0002-00-0004-26.png
14,822,1,1443454774916,1443454775205,414,371,0,0,0,3,2,1,32,0003-00-0005-67.png,0002-00-0008-95.png
14,823,0,1443454775235,1443454776033,1061,421,0,0,0,5,4,1,54,0001-00-0005-77.png,0005-00-0002-06.png
14,824,1,1443454776061,1443454777238,929,356,0,0,0,2,3,1,23,0002-00-0008-55.png,0003-00-0000-44.png
14,825,1,1443454777264,1443454777738,308,350,0,0,0,3,4,1,34,0003-00-0007-29.png,0005-00-0004-89.png
14,826,1,1443454777773,1443454778092,954,415,0,0,0,1,2,1,12,0004-00-0007-69.png,0002-00-0009-26.png
14,827,0,1443454778125,1443454778643,965,345,0,0,0,2,1,1,21,0002-00-0005-54.png,0004-00-0001-58.png
14,828,1,1443454778676,1443454780610,308,359,0,0,0,5,4,1,54,0001-00-0001-06.png,0005-00-0007-84.png
14,829,1,1443454780632,1443454780827,1080,241,0,0,0,4,3,1,43,0005-00-0003-72.png,0003-00-0006-80.png
14,830,0,1443454780848,1443454781114,328,336,0,0,0,3,2,1,32,0003-00-0002-37.png,0002-00-0006-14.png
14,831,0,1443454781140,1443454781685,370,435,0,0,0,5,4,1,54,0001-00-0007-06.png,0005-00-0003-97.png
14,832,0,1443454781704,1443454782367,350,279,0,0,0,2,3,1,23,0002-00-0005-30.png,0003-00-0004-29.png
14,833,1,1443454782390,1443454782818,947,393,0,0,0,5,4,1,54,0001-00-0007-06.png,0005-00-0006-88.png
14,834,0,1443454782845,1443454784384,318,264,0,0,0,2,1,1,21,0002-00-0009-02.png,0004-00-0003-41.png
14,835,1,1443454784416,1443454785133,1105,266,0,0,0,1,2,1,12,0004-00-0002-71.png,0002-00-0008-37.png
14,836,0,1443454785168,1443454785703,319,328,0,0,0,5,4,1,54,0001-00-0003-91.png,0005-00-0007-47.png
14,837,0,1443454785734,1443454786281,1005,322,0,0,0,2,3,1,23,0002-00-0004-68.png,0003-00-0003-48.png
14,838,0,1443454786298,1443454786665,388,403,0,0,0,3,2,1,32,0003-00-0000-13.png,0002-00-0009-68.png
14,839,0,1443454786695,1443454786972,878,375,0,0,0,3,4,1,34,0003-00-0009-01.png,0005-00-0009-62.png
14,840,0,1443454786999,1443454787405,1048,222,0,0,0,4,3,1,43,0005-00-0001-44.png,0003-00-0008-87.png
14,841,1,1443454787434,1443454787972,1086,395,0,0,0,2,3,1,23,0002-00-0005-10.png,0003-00-0003-25.png
14,842,0,1443454788007,1443454788328,389,411,0,0,0,4,3,1,43,0005-00-0006-97.png,0003-00-0006-85.png
14,843,1,1443454788368,1443454788837,362,332,0,0,0,5,4,1,54,0001-00-0005-96.png,0005-00-0007-51.png
14,844,1,1443454788868,1443454789124,991,369,0,0,0,3,4,1,34,0003-00-0006-58.png,0005-00-0003-12.png
14,845,0,1443454789149,1443454789368,341,377,0,0,0,5,4,1,54,0001-00-0004-08.png,0005-00-0001-75.png
14,846,0,1443454789392,1443454789689,1035,343,0,0,0,1,2,1,12,0004-00-0002-71.png,0002-00-0006-04.png
14,847,1,1443454789725,1443454790203,1032,349,0,0,0,2,1,1,21,0002-00-0007-37.png,0004-00-0004-88.png
14,848,0,1443454790224,1443454790560,319,355,0,0,0,3,2,1,32,0003-00-0007-30.png,0002-00-0007-08.png
14,849,0,1443454790589,1443454791033,998,367,0,0,0,1,2,1,12,0004-00-0004-55.png,0002-00-0001-24.png
14,850,1,1443454791078,1443454791634,928,375,0,0,0,2,3,1,23,0002-00-0007-57.png,0003-00-0006-55.png
14,851,1,1443454791659,1443454792013,222,384,0,0,0,3,4,1,34,0003-00-0004-88.png,0005-00-0003-74.png
14,852,0,1443454792036,1443454792613,453,555,0,0,0,5,4,1,54,0001-00-0009-07.png,0005-00-0001-79.png
14,853,0,1443454792644,1443454793387,956,323,0,0,0,3,2,1,32,0003-00-0005-21.png,0002-00-0000-82.png
14,854,0,1443454793417,1443454793731,269,369,0,0,0,2,1,1,21,0002-00-0007-40.png,0004-00-0001-60.png
14,855,0,1443454793761,1443454794351,386,404,0,0,0,4,3,1,43,0005-00-0004-19.png,0003-00-0004-57.png
14,856,0,1443454794388,1443454795015,337,347,0,0,0,5,4,1,54,0001-00-0008-77.png,0005-00-0005-24.png
14,857,0,1443454795053,1443454795347,898,250,0,0,0,4,3,1,43,0005-00-0004-84.png,0003-00-0005-20.png
14,858,0,1443454795371,1443454795778,953,311,0,0,0,2,1,1,21,0002-00-0004-15.png,0004-00-0008-56.png
14,859,0,1443454795815,1443454796209,355,467,0,0,0,1,2,1,12,0004-00-0004-35.png,0002-00-0009-00.png
14,860,1,1443454796235,1443454797079,1058,366,0,0,0,3,4,1,34,0003-00-0005-33.png,0005-00-0000-41.png
14,861,1,1443454797097,1443454797651,947,394,0,0,0,2,3,1,23,0002-00-0004-46.png,0003-00-0004-18.png
14,862,1,1443454797680,1443454798169,929,402,0,0,0,3,2,1,32,0003-00-0006-98.png,0002-00-0004-69.png
14,863,0,1443454798192,1443454798994,962,372,0,0,0,5,4,1,54,0001-00-0001-17.png,0005-00-0004-48.png
14,864,1,1443454799025,1443454800200,396,380,0,0,0,5,4,1,54,0001-00-0005-20.png,0005-00-0001-30.png
14,865,0,1443454800230,1443454800788,1041,305,0,0,0,2,3,1,23,0002-00-0009-40.png,0003-00-0004-26.png
14,866,0,1443454800817,1443454801380,279,384,0,0,0,2,1,1,21,0002-00-0001-25.png,0004-00-0007-51.png
14,867,0,1443454801405,1443454802088,351,385,0,0,0,1,2,1,12,0004-00-0000-94.png,0002-00-0005-27.png
14,868,0,1443454802105,1443454802972,1092,332,0,0,0,5,4,1,54,0001-00-0006-00.png,0005-00-0005-63.png
14,869,1,1443454803016,1443454803557,179,390,0,0,0,3,2,1,32,0003-00-0001-51.png,0002-00-0005-19.png
14,870,1,1443454803588,1443454804040,356,405,0,0,0,5,4,1,54,0001-00-0008-22.png,0005-00-0005-34.png
14,871,0,1443454804064,1443454804545,978,331,0,0,0,3,4,1,34,0003-00-0009-15.png,0005-00-0001-04.png
14,872,0,1443454804588,1443454804920,928,400,0,0,0,4,3,1,43,0005-00-0003-94.png,0003-00-0001-36.png
14,873,1,1443454804940,1443454805315,947,394,0,0,0,2,3,1,23,0002-00-0005-44.png,0003-00-0007-28.png
14,874,0,1443454805346,1443454805644,343,348,0,0,0,2,1,1,21,0002-00-0000-21.png,0004-00-0006-45.png
14,875,1,1443454805670,1443454806180,375,351,0,0,0,3,2,1,32,0003-00-0000-96.png,0002-00-0000-72.png
14,876,0,1443454806214,1443454806798,308,344,0,0,0,5,4,1,54,0001-00-0003-13.png,0005-00-0008-73.png
14,877,1,1443454806830,1443454807312,294,351,0,0,0,4,3,1,43,0005-00-0008-01.png,0003-00-0008-25.png
14,878,1,1443454807338,1443454807714,451,385,0,0,0,5,4,1,54,0001-00-0005-78.png,0005-00-0009-50.png
14,879,0,1443454807747,1443454808136,337,393,0,0,0,1,2,1,12,0004-00-0002-42.png,0002-00-0009-25.png
14,880,1,1443454808173,1443454809416,316,345,0,0,0,3,4,1,34,0003-00-0003-66.png,0005-00-0007-43.png
14,881,1,1443454809455,1443454809964,930,348,0,0,0,5,4,1,54,0001-00-0000-88.png,0005-00-0006-80.png
14,882,1,1443454809990,1443454810382,902,285,0,0,0,1,2,1,12,0004-00-0005-80.png,0002-00-0008-75.png
14,883,0,1443454810404,1443454810651,308,413,0,0,0,3,4,1,34,0003-00-0005-60.png,0005-00-0007-89.png
14,884,0,1443454810689,1443454811817,947,393,0,0,0,2,3,1,23,0002-00-0008-19.png,0003-00-0007-83.png
14,885,1,1443454811855,1443454812208,953,427,0,0,0,2,1,1,21,0002-00-0001-98.png,0004-00-0004-35.png
14,886,0,1443454812250,1443454812799,925,436,0,0,0,4,3,1,43,0005-00-0006-90.png,0003-00-0009-11.png
14,887,1,1443454812826,1443454813151,313,527,0,0,0,3,2,1,32,0003-00-0009-87.png,0002-00-0000-39.png
14,888,0,1443454813187,1443454813682,297,345,0,0,0,5,4,1,54,0001-00-0005-33.png,0005-00-0005-56.png
14,889,0,1443454813714,1443454814184,318,395,0,0,0,2,3,1,23,0002-00-0000-95.png,0003-00-0004-06.png
14,890,1,1443454814216,1443454814569,866,234,0,0,0,3,2,1,32,0003-00-0005-60.png,0002-00-0003-28.png
14,891,0,1443454814602,1443454815067,464,266,0,0,0,5,4,1,54,0001-00-0000-03.png,0005-00-0005-01.png
14,892,1,1443454815094,1443454815963,361,403,0,0,0,4,3,1,43,0005-00-0007-04.png,0003-00-0007-00.png
14,893,1,1443454815992,1443454816288,383,419,0,0,0,5,4,1,54,0001-00-0004-35.png,0005-00-0003-00.png
14,894,1,1443454816330,1443454816479,954,415,0,0,0,2,1,1,21,0002-00-0006-99.png,0004-00-0004-02.png
14,895,1,1443454816506,1443454816988,419,387,0,0,0,1,2,1,12,0004-00-0000-90.png,0002-00-0006-56.png
14,896,1,1443454817014,1443454817299,371,410,0,0,0,3,4,1,34,0003-00-0002-07.png,0005-00-0008-54.png
14,897,0,1443454817330,1443454817655,912,424,0,0,0,5,4,1,54,0001-00-0008-93.png,0005-00-0000-82.png
14,898,0,1443454817707,1443454818009,1113,342,0,0,0,5,4,1,54,0001-00-0001-37.png,0005-00-0005-42.png
14,899,0,1443454818037,1443454818387,259,410,0,0,0,4,3,1,43,0005-00-0008-48.png,0003-00-0009-49.png
14,900,0,1443454818432,1443454819341,320,362,0,0,0,2,3,1,23,0002-00-0004-88.png,0003-00-0002-30.png
14,901,1,1443454819383,1443454819733,954,297,0,0,0,1,2,1,12,0004-00-0001-55.png,0002-00-0002-83.png
14,902,0,1443454819756,1443454820429,939,397,0,0,0,3,4,1,34,0003-00-0006-92.png,0005-00-0000-19.png
14,903,1,1443454820458,1443454820679,1058,375,0,0,0,3,2,1,32,0003-00-0006-20.png,0002-00-0009-83.png
14,904,1,1443454820707,1443454821080,858,436,0,0,0,2,1,1,21,0002-00-0001-74.png,0004-00-0005-80.png
14,905,0,1443454821103,1443454821610,389,424,0,0,0,5,4,1,54,0001-00-0002-43.png,0005-00-0005-28.png
14,906,0,1443454821635,1443454821874,1148,346,0,0,0,1,2,1,12,0004-00-0007-40.png,0002-00-0008-01.png
14,907,1,1443454821899,1443454822391,338,385,0,0,0,3,2,1,32,0003-00-0005-54.png,0002-00-0004-35.png
14,908,1,1443454822412,1443454822968,332,351,0,0,0,2,3,1,23,0002-00-0007-52.png,0003-00-0005-63.png
14,909,1,1443454822991,1443454823972,183,431,0,0,0,4,3,1,43,0005-00-0006-78.png,0003-00-0004-66.png
14,910,0,1443454824006,1443454824977,964,319,0,0,0,5,4,1,54,0001-00-0007-45.png,0005-00-0003-30.png
14,911,1,1443454825002,1443454825288,964,332,0,0,0,3,4,1,34,0003-00-0009-13.png,0005-00-0001-81.png
14,912,1,1443454825322,1443454825536,1067,280,0,0,0,2,1,1,21,0002-00-0009-83.png,0004-00-0002-43.png
14,913,1,1443454825563,1443454826635,952,318,0,0,0,5,4,1,54,0001-00-0000-30.png,0005-00-0009-12.png
14,914,1,1443454826686,1443454827415,946,413,0,0,0,2,1,1,21,0002-00-0001-10.png,0004-00-0009-24.png
14,915,0,1443454827443,1443454827954,299,371,0,0,0,1,2,1,12,0004-00-0001-58.png,0002-00-0007-81.png
14,916,0,1443454827984,1443454828300,297,318,0,0,0,5,4,1,54,0001-00-0005-36.png,0005-00-0005-06.png
14,917,1,1443454828333,1443454828953,1175,477,0,0,0,3,2,1,32,0003-00-0001-78.png,0002-00-0001-07.png
14,918,1,1443454828982,1443454829628,362,375,0,0,0,3,4,1,34,0003-00-0005-43.png,0005-00-0008-12.png
14,919,1,1443454829649,1443454830144,299,391,0,0,0,2,3,1,23,0002-00-0003-19.png,0003-00-0007-86.png
14,920,0,1443454830171,1443454830434,520,544,0,0,0,4,3,1,43,0005-00-0001-27.png,0003-00-0009-56.png
14,921,1,1443454830460,1443454830855,899,438,0,0,0,5,4,1,54,0001-00-0005-63.png,0005-00-0007-96.png
14,922,0,1443454830878,1443454830989,259,363,0,0,0,2,1,1,21,0002-00-0008-30.png,0004-00-0002-69.png
14,923,1,1443454831016,1443454831668,268,353,0,0,0,2,3,1,23,0002-00-0001-81.png,0003-00-0008-69.png
14,924,1,1443454831693,1443454832103,363,409,0,0,0,3,4,1,34,0003-00-0009-45.png,0005-00-0004-98.png
14,925,1,1443454832130,1443454832343,485,446,0,0,0,5,4,1,54,0001-00-0007-94.png,0005-00-0007-28.png
14,926,1,1443454832368,1443454833250,981,381,0,0,0,1,2,1,12,0004-00-0003-36.png,0002-00-0008-57.png
14,927,1,1443454833269,1443454833612,376,306,0,0,0,3,2,1,32,0003-00-0006-29.png,0002-00-0001-23.png
14,928,1,1443454833653,1443454833989,984,421,0,0,0,4,3,1,43,0005-00-0004-62.png,0003-00-0006-26.png
14,929,1,1443454834032,1443454834455,939,500,0,0,0,5,4,1,54,0001-00-0008-35.png,0005-00-0006-19.png
14,930,0,1443454834505,1443454835227,359,522,0,0,0,3,2,1,32,0003-00-0005-31.png,0002-00-0009-16.png
14,931,1,1443454835258,1443454835684,363,451,0,0,0,5,4,1,54,0001-00-0001-99.png,0005-00-0002-01.png
14,932,1,1443454835728,1443454835994,973,367,0,0,0,2,3,1,23,0002-00-0003-88.png,0003-00-0005-30.png
14,933,1,1443454836030,1443454836802,967,370,0,0,0,3,4,1,34,0003-00-0001-67.png,0005-00-0001-50.png
14,934,1,1443454836842,1443454837580,325,332,0,0,0,1,2,1,12,0004-00-0002-66.png,0002-00-0004-57.png
14,935,0,1443454837600,1443454838113,376,332,0,0,0,4,3,1,43,0005-00-0005-23.png,0003-00-0004-97.png
14,936,0,1443454838134,1443454838460,948,401,0,0,0,2,1,1,21,0002-00-0003-68.png,0004-00-0006-25.png
14,937,1,1443454838489,1443454838790,376,279,0,0,0,3,4,1,34,0003-00-0003-23.png,0005-00-0002-86.png
14,938,1,1443454838825,1443454839847,391,384,0,0,0,3,2,1,32,0003-00-0006-40.png,0002-00-0005-92.png
14,939,0,1443454839891,1443454840742,294,421,0,0,0,5,4,1,54,0001-00-0003-38.png,0005-00-0003-66.png
14,940,0,1443454840767,1443454841024,1115,334,0,0,0,5,4,1,54,0001-00-0007-00.png,0005-00-0002-01.png
14,941,1,1443454841049,1443454841295,1081,410,0,0,0,2,1,1,21,0002-00-0008-51.png,0004-00-0001-99.png
14,942,0,1443454841320,1443454842259,349,372,0,0,0,4,3,1,43,0005-00-0005-97.png,0003-00-0009-82.png
14,943,1,1443454842308,1443454843117,376,461,0,0,0,2,3,1,23,0002-00-0001-29.png,0003-00-0008-27.png
14,944,0,1443454843164,1443454843471,966,371,0,0,0,1,2,1,12,0004-00-0009-45.png,0002-00-0001-70.png
14,945,0,1443454843498,1443454844171,369,385,0,0,0,4,3,1,43,0005-00-0000-34.png,0003-00-0002-59.png
14,946,1,1443454844201,1443454844507,350,332,0,0,0,1,2,1,12,0004-00-0009-95.png,0002-00-0001-41.png
14,947,1,1443454844550,1443454845151,222,462,0,0,0,2,1,1,21,0002-00-0003-72.png,0004-00-0008-07.png
14,948,1,1443454845183,1443454845767,372,338,0,0,0,5,4,1,54,0001-00-0003-96.png,0005-00-0002-95.png
14,949,1,1443454845794,1443454846493,347,318,0,0,0,5,4,1,54,0001-00-0005-20.png,0005-00-0006-98.png
14,950,1,1443454846521,1443454846963,281,342,0,0,0,3,4,1,34,0003-00-0007-11.png,0005-00-0007-35.png
14,951,0,1443454846987,1443454847536,351,462,0,0,0,2,3,1,23,0002-00-0003-98.png,0003-00-0000-19.png
14,952,1,1443454847567,1443454848169,894,314,0,0,0,3,2,1,32,0003-00-0007-49.png,0002-00-0003-55.png
14,953,0,1443454848196,1443454848839,373,391,0,0,0,1,2,1,12,0004-00-0001-87.png,0002-00-0006-04.png
14,954,1,1443454848880,1443454849687,374,319,0,0,0,5,4,1,54,0001-00-0008-12.png,0005-00-0008-22.png
14,955,1,1443454849715,1443454850762,366,415,0,0,0,2,3,1,23,0002-00-0001-87.png,0003-00-0003-94.png
14,956,1,1443454850791,1443454851134,1130,369,0,0,0,3,2,1,32,0003-00-0000-40.png,0002-00-0001-77.png
14,957,1,1443454851161,1443454851701,414,540,0,0,0,5,4,1,54,0001-00-0000-05.png,0005-00-0001-21.png
14,958,0,1443454851729,1443454852058,363,450,0,0,0,3,4,1,34,0003-00-0000-89.png,0005-00-0002-21.png
14,959,1,1443454852088,1443454852718,1031,322,0,0,0,2,1,1,21,0002-00-0002-19.png,0004-00-0003-45.png
14,960,0,1443454852746,1443454853052,1016,371,0,0,0,4,3,1,43,0005-00-0003-50.png,0003-00-0005-49.png
14,961,1,1443454853094,1443454853696,427,358,0,0,0,3,4,1,34,0003-00-0007-16.png,0005-00-0006-53.png
14,962,1,1443454853720,1443454854090,1061,317,0,0,0,3,2,1,32,0003-00-0004-24.png,0002-00-0003-23.png
14,963,1,1443454854117,1443454854596,999,366,0,0,0,2,3,1,23,0002-00-0005-59.png,0003-00-0001-55.png
14,964,1,1443454854630,1443454854863,1080,304,0,0,0,2,1,1,21,0002-00-0007-59.png,0004-00-0005-63.png
14,965,1,1443454854913,1443454855681,453,253,0,0,0,1,2,1,12,0004-00-0005-92.png,0002-00-0002-64.png
14,966,1,1443454855726,1443454856114,949,352,0,0,0,5,4,1,54,0001-00-0002-50.png,0005-00-0009-50.png
14,967,1,1443454856142,1443454856572,964,345,0,0,0,5,4,1,54,0001-00-0001-88.png,0005-00-0004-27.png
14,968,1,1443454856598,1443454857402,337,321,0,0,0,4,3,1,43,0005-00-0003-86.png,0003-00-0005-32.png
14,969,0,1443454857449,1443454857819,376,279,0,0,0,2,3,1,23,0002-00-0001-68.png,0003-00-0000-01.png
14,970,1,1443454857848,1443454858301,376,384,0,0,0,2,1,1,21,0002-00-0009-57.png,0004-00-0003-75.png
14,971,1,1443454858337,1443454858565,897,329,0,0,0,5,4,1,54,0001-00-0003-07.png,0005-00-0006-37.png
14,972,0,1443454858603,1443454858880,362,330,0,0,0,1,2,1,12,0004-00-0005-79.png,0002-00-0001-35.png
14,973,1,1443454858906,1443454859530,927,331,0,0,0,3,2,1,32,0003-00-0002-41.png,0002-00-0007-90.png
14,974,0,1443454859553,1443454859910,376,253,0,0,0,4,3,1,43,0005-00-0000-11.png,0003-00-0002-12.png
14,975,0,1443454859930,1443454860227,953,397,0,0,0,3,4,1,34,0003-00-0003-87.png,0005-00-0000-77.png
14,976,0,1443454860263,1443454860735,1105,358,0,0,0,5,4,1,54,0001-00-0004-94.png,0005-00-0000-93.png
14,977,1,1443454860765,1443454861293,1104,253,0,0,0,2,3,1,23,0002-00-0003-54.png,0003-00-0000-66.png
14,978,1,1443454861317,1443454862693,988,328,0,0,0,3,4,1,34,0003-00-0003-43.png,0005-00-0003-95.png
14,979,1,1443454862727,1443454863650,299,331,0,0,0,3,2,1,32,0003-00-0007-26.png,0002-00-0007-78.png
14,980,1,1443454863675,1443454863916,1080,398,0,0,0,5,4,1,54,0001-00-0007-25.png,0005-00-0007-12.png
14,981,1,1443454863953,1443454864487,925,281,0,0,0,5,4,1,54,0001-00-0007-17.png,0005-00-0001-29.png
14,982,1,1443454864536,1443454864710,1023,237,0,0,0,2,1,1,21,0002-00-0000-63.png,0004-00-0001-39.png
14,983,0,1443454864754,1443454865185,337,319,0,0,0,1,2,1,12,0004-00-0002-83.png,0002-00-0009-48.png
14,984,0,1443454865212,1443454865355,479,371,0,0,0,4,3,1,43,0005-00-0004-16.png,0003-00-0001-28.png
14,985,1,1443454865392,1443454865886,1060,337,0,0,0,3,4,1,34,0003-00-0001-66.png,0005-00-0003-09.png
14,986,0,1443454865912,1443454866414,282,344,0,0,0,2,3,1,23,0002-00-0008-30.png,0003-00-0002-84.png
14,987,1,1443454866445,1443454866878,197,424,0,0,0,2,1,1,21,0002-00-0007-80.png,0004-00-0008-82.png
14,988,1,1443454866906,1443454867312,1014,227,0,0,0,4,3,1,43,0005-00-0000-17.png,0003-00-0001-80.png
