subject_id,trial,correct_response,stim_time,response_time,x_coord,y_coord,trial_timeout,timeout_time,interTrial_timeout,left_rank,right_rank,distance,joint_rank,left_image,right_image
14,1,1,1444417800024,1444417800714,365,387,0,0,0,1,2,1,12,0004-00-0000-55.png,0002-00-0001-94.png
14,2,1,1444417800756,1444417800989,356,362,0,0,0,2,3,1,23,0002-00-0008-12.png,0003-00-0004-52.png
14,3,0,1444417801011,1444417801493,912,493,0,0,0,2,1,1,21,0002-00-0008-11.png,0004-00-0001-82.png
14,4,0,1444417801509,1444417802270,383,419,0,0,0,4,3,1,43,0005-00-0006-62.png,0003-00-0008-07.png
14,5,1,1444417802296,1444417803095,317,379,0,0,0,3,2,1,32,0003-00-0005-85.png,0002-00-0007-74.png
14,6,1,1444417803124,1444417803518,906,387,0,0,0,3,4,1,34,0003-00-0001-07.png,0005-00-0001-82.png
14,7,0,1444417803555,1444417804071,977,397,0,0,0,5,4,1,54,0001-00-0003-78.png,0005-00-0006-58.png
14,8,0,1444417804095,1444417804620,409,494,0,0,0,5,4,1,54,0001-00-0009-32.png,0005-00-0004-89.png
14,9,0,1444417804648,1444417805315,318,389,0,0,0,3,4,1,34,0003-00-0000-44.png,0005-00-0009-42.png
14,10,1,1444417805350,1444417806066,939,502,0,0,0,2,3,1,23,0002-00-0009-80.png,0003-00-0005-77.png
14,11,0,1444417806087,1444417806395,903,284,0,0,0,1,2,1,12,0004-00-0001-11.png,0002-00-0006-59.png
14,12,1,1444417806428,1444417806615,303,378,0,0,0,5,4,1,54,0001-00-0008-56.png,0005-00-0003-53.png
14,13,1,1444417806635,1444417806947,951,490,0,0,0,3,2,1,32,0003-00-0003-28.png,0002-00-0007-66.png
14,14,1,1444417806977,1444417807284,976,385,0,0,0,5,4,1,54,0001-00-0006-03.png,0005-00-0005-47.png
14,15,1,1444417807322,1444417807656,906,458,0,0,0,4,3,1,43,0005-00-0004-01.png,0003-00-0007-12.png
14,16,1,1444417807674,1444417807921,926,461,0,0,0,2,1,1,21,0002-00-0002-20.png,0004-00-0003-04.png
14,17,0,1444417807947,1444417808903,376,384,0,0,0,2,3,1,23,0002-00-0005-81.png,0003-00-0002-78.png
14,18,1,1444417808932,1444417809311,350,500,0,0,0,2,1,1,21,0002-00-0001-20.png,0004-00-0006-36.png
14,19,1,1444417809342,1444417809557,378,387,0,0,0,3,4,1,34,0003-00-0003-62.png,0005-00-0008-90.png
14,20,1,1444417809587,1444417809865,916,470,0,0,0,3,2,1,32,0003-00-0005-10.png,0002-00-0002-53.png
14,21,1,1444417809895,1444417810377,887,375,0,0,0,5,4,1,54,0001-00-0009-93.png,0005-00-0004-40.png
14,22,0,1444417810412,1444417811219,939,409,0,0,0,4,3,1,43,0005-00-0003-96.png,0003-00-0004-30.png
14,23,1,1444417811247,1444417811404,299,396,0,0,0,5,4,1,54,0001-00-0009-71.png,0005-00-0009-90.png
14,24,1,1444417811427,1444417811713,318,426,0,0,0,1,2,1,12,0004-00-0001-45.png,0002-00-0007-49.png
14,25,0,1444417811743,1444417812650,967,375,0,0,0,1,2,1,12,0004-00-0000-29.png,0002-00-0007-25.png
14,26,0,1444417812686,1444417813351,325,423,0,0,0,3,2,1,32,0003-00-0005-64.png,0002-00-0002-44.png
14,27,1,1444417813373,1444417813800,312,423,0,0,0,5,4,1,54,0001-00-0000-96.png,0005-00-0009-91.png
14,28,1,1444417813831,1444417814257,882,362,0,0,0,2,3,1,23,0002-00-0009-19.png,0003-00-0004-35.png
14,29,1,1444417814295,1444417814684,952,371,0,0,0,3,4,1,34,0003-00-0003-72.png,0005-00-0006-60.png
14,30,1,1444417814709,1444417815060,349,384,0,0,0,4,3,1,43,0005-00-0000-14.png,0003-00-0005-85.png
14,31,1,1444417815093,1444417815529,372,406,0,0,0,5,4,1,54,0001-00-0009-86.png,0005-00-0000-36.png
14,32,0,1444417815548,1444417815837,914,464,0,0,0,2,1,1,21,0002-00-0001-71.png,0004-00-0000-46.png
14,33,0,1444417815869,1444417816193,350,410,0,0,0,5,4,1,54,0001-00-0008-88.png,0005-00-0007-71.png
14,34,1,1444417816218,1444417816560,353,426,0,0,0,3,2,1,32,0003-00-0006-16.png,0002-00-0009-47.png
14,35,0,1444417816597,1444417817296,325,423,0,0,0,3,4,1,34,0003-00-0001-34.png,0005-00-0009-76.png
14,36,0,1444417817317,1444417818413,392,401,0,0,0,2,3,1,23,0002-00-0002-00.png,0003-00-0008-98.png
14,37,1,1444417818436,1444417818622,347,448,0,0,0,2,1,1,21,0002-00-0001-26.png,0004-00-0008-72.png
14,38,1,1444417818652,1444417819260,325,358,0,0,0,4,3,1,43,0005-00-0007-75.png,0003-00-0003-28.png
14,39,0,1444417819279,1444417819829,919,464,0,0,0,1,2,1,12,0004-00-0008-48.png,0002-00-0002-82.png
14,40,0,1444417819854,1444417820893,876,416,0,0,0,5,4,1,54,0001-00-0001-17.png,0005-00-0009-29.png
14,41,1,1444417820918,1444417821077,977,475,0,0,0,1,2,1,12,0004-00-0009-43.png,0002-00-0008-96.png
14,42,1,1444417821106,1444417821322,312,424,0,0,0,2,3,1,23,0002-00-0000-95.png,0003-00-0007-51.png
14,43,0,1444417821347,1444417821751,966,359,0,0,0,5,4,1,54,0001-00-0009-52.png,0005-00-0002-70.png
14,44,1,1444417821786,1444417822065,875,317,0,0,0,3,4,1,34,0003-00-0009-19.png,0005-00-0001-00.png
14,45,1,1444417822099,1444417822667,939,398,0,0,0,4,3,1,43,0005-00-0003-46.png,0003-00-0005-22.png
14,46,1,1444417822691,1444417823011,345,406,0,0,0,5,4,1,54,0001-00-0006-93.png,0005-00-0005-92.png
14,47,1,1444417823038,1444417823359,319,375,0,0,0,2,1,1,21,0002-00-0003-14.png,0004-00-0002-87.png
14,48,1,1444417823386,1444417823747,364,496,0,0,0,3,2,1,32,0003-00-0002-17.png,0002-00-0003-72.png
14,49,0,1444417823792,1444417824152,981,352,0,0,0,5,4,1,54,0001-00-0003-87.png,0005-00-0004-26.png
14,50,1,1444417824183,1444417824875,870,365,0,0,0,2,3,1,23,0002-00-0005-64.png,0003-00-0004-23.png
14,51,0,1444417824908,1444417825174,350,448,0,0,0,1,2,1,12,0004-00-0000-34.png,0002-00-0006-81.png
14,52,0,1444417825200,1444417825398,354,424,0,0,0,2,1,1,21,0002-00-0002-36.png,0004-00-0006-24.png
14,53,0,1444417825425,1444417825898,927,370,0,0,0,3,4,1,34,0003-00-0004-62.png,0005-00-0007-19.png
14,54,0,1444417825927,1444417826373,307,401,0,0,0,5,4,1,54,0001-00-0009-37.png,0005-00-0002-62.png
14,55,1,1444417826405,1444417826982,401,423,0,0,0,3,2,1,32,0003-00-0005-30.png,0002-00-0009-91.png
14,56,0,1444417827006,1444417827644,463,519,0,0,0,4,3,1,43,0005-00-0007-12.png,0003-00-0004-78.png
14,57,0,1444417827681,1444417828145,967,386,0,0,0,2,3,1,23,0002-00-0000-33.png,0003-00-0007-85.png
14,58,0,1444417828175,1444417828681,954,387,0,0,0,5,4,1,54,0001-00-0007-24.png,0005-00-0008-02.png
14,59,1,1444417828718,1444417829277,414,449,0,0,0,5,4,1,54,0001-00-0008-66.png,0005-00-0002-27.png
14,60,1,1444417829299,1444417829944,343,374,0,0,0,3,4,1,34,0003-00-0001-31.png,0005-00-0001-98.png
14,61,1,1444417829970,1444417830273,926,450,0,0,0,3,2,1,32,0003-00-0008-55.png,0002-00-0005-35.png
14,62,0,1444417830343,1444417830871,870,342,0,0,0,1,2,1,12,0004-00-0006-49.png,0002-00-0009-37.png
14,63,0,1444417830916,1444417831497,512,470,0,0,0,4,3,1,43,0005-00-0000-24.png,0003-00-0007-61.png
14,64,0,1444417831538,1444417831821,364,523,0,0,0,2,1,1,21,0002-00-0005-66.png,0004-00-0007-93.png
14,65,0,1444417831846,1444417832345,905,375,0,0,0,3,4,1,34,0003-00-0009-63.png,0005-00-0005-00.png
14,66,1,1444417832372,1444417833123,922,367,0,0,0,1,2,1,12,0004-00-0004-40.png,0002-00-0004-88.png
14,67,0,1444417833158,1444417833419,922,375,0,0,0,2,3,1,23,0002-00-0003-70.png,0003-00-0003-10.png
14,68,1,1444417833441,1444417834163,374,359,0,0,0,3,2,1,32,0003-00-0003-39.png,0002-00-0004-35.png
14,69,0,1444417834201,1444417834660,901,487,0,0,0,5,4,1,54,0001-00-0004-18.png,0005-00-0006-90.png
14,70,0,1444417834708,1444417835289,354,402,0,0,0,2,1,1,21,0002-00-0004-71.png,0004-00-0003-12.png
14,71,0,1444417835332,1444417836130,336,393,0,0,0,4,3,1,43,0005-00-0007-84.png,0003-00-0001-56.png
14,72,1,1444417836159,1444417837027,881,334,0,0,0,5,4,1,54,0001-00-0003-02.png,0005-00-0007-73.png
14,73,1,1444417837059,1444417837368,876,361,0,0,0,2,3,1,23,0002-00-0008-95.png,0003-00-0004-91.png
14,74,1,1444417837393,1444417837978,876,343,0,0,0,4,3,1,43,0005-00-0004-14.png,0003-00-0006-51.png
14,75,0,1444417838008,1444417838574,884,365,0,0,0,1,2,1,12,0004-00-0006-70.png,0002-00-0000-41.png
14,76,1,1444417838602,1444417838894,320,394,0,0,0,3,2,1,32,0003-00-0007-26.png,0002-00-0001-81.png
14,77,1,1444417838922,1444417839436,312,412,0,0,0,3,4,1,34,0003-00-0007-11.png,0005-00-0002-26.png
14,78,1,1444417839459,1444417839775,973,341,0,0,0,2,1,1,21,0002-00-0006-50.png,0004-00-0005-67.png
14,79,1,1444417839810,1444417840606,284,405,0,0,0,5,4,1,54,0001-00-0008-83.png,0005-00-0006-20.png
14,80,1,1444417840651,1444417840836,376,497,0,0,0,5,4,1,54,0001-00-0007-21.png,0005-00-0004-35.png
14,81,1,1444417840868,1444417841486,955,349,0,0,0,3,4,1,34,0003-00-0006-64.png,0005-00-0002-75.png
14,82,1,1444417841514,1444417842167,386,397,0,0,0,2,1,1,21,0002-00-0002-51.png,0004-00-0008-32.png
14,83,1,1444417842191,1444417842551,904,458,0,0,0,5,4,1,54,0001-00-0003-94.png,0005-00-0002-62.png
14,84,1,1444417842577,1444417842907,952,384,0,0,0,5,4,1,54,0001-00-0005-10.png,0005-00-0003-63.png
14,85,1,1444417842937,1444417843630,339,410,0,0,0,4,3,1,43,0005-00-0009-47.png,0003-00-0007-70.png
14,86,1,1444417843653,1444417844470,375,480,0,0,0,1,2,1,12,0004-00-0002-47.png,0002-00-0006-34.png
14,87,1,1444417844501,1444417845060,867,399,0,0,0,3,2,1,32,0003-00-0003-32.png,0002-00-0007-93.png
14,88,0,1444417845084,1444417845809,362,436,0,0,0,2,3,1,23,0002-00-0006-71.png,0003-00-0001-24.png
14,89,1,1444417845846,1444417846334,329,402,0,0,0,5,4,1,54,0001-00-0001-74.png,0005-00-0004-84.png
14,90,0,1444417846368,1444417847123,299,397,0,0,0,3,4,1,34,0003-00-0009-90.png,0005-00-0007-80.png
14,91,1,1444417847158,1444417848386,357,392,0,0,0,3,2,1,32,0003-00-0008-39.png,0002-00-0009-76.png
14,92,1,1444417848412,1444417848942,279,385,0,0,0,2,3,1,23,0002-00-0004-42.png,0003-00-0007-83.png
14,93,0,1444417848982,1444417849804,400,385,0,0,0,1,2,1,12,0004-00-0009-49.png,0002-00-0008-30.png
14,94,1,1444417849836,1444417850594,361,412,0,0,0,5,4,1,54,0001-00-0002-10.png,0005-00-0000-07.png
14,95,0,1444417850617,1444417851021,271,438,0,0,0,2,1,1,21,0002-00-0000-18.png,0004-00-0009-23.png
14,96,1,1444417851042,1444417851371,887,364,0,0,0,4,3,1,43,0005-00-0004-63.png,0003-00-0003-29.png
14,97,0,1444417851411,1444417851853,328,398,0,0,0,2,3,1,23,0002-00-0004-70.png,0003-00-0002-33.png
14,98,0,1444417851882,1444417852199,325,410,0,0,0,3,4,1,34,0003-00-0001-40.png,0005-00-0006-11.png
14,99,1,1444417852223,1444417852957,881,353,0,0,0,4,3,1,43,0005-00-0004-33.png,0003-00-0003-53.png
14,100,1,1444417852983,1444417853397,293,406,0,0,0,1,2,1,12,0004-00-0004-94.png,0002-00-0006-95.png
14,101,0,1444417853431,1444417854582,300,396,0,0,0,5,4,1,54,0001-00-0003-49.png,0005-00-0000-67.png
14,102,1,1444417854606,1444417854899,883,344,0,0,0,5,4,1,54,0001-00-0005-73.png,0005-00-0002-48.png
14,103,0,1444417854925,1444417855225,940,423,0,0,0,3,2,1,32,0003-00-0005-80.png,0002-00-0001-79.png
14,104,1,1444417855265,1444417855795,977,397,0,0,0,2,1,1,21,0002-00-0001-13.png,0004-00-0004-76.png
14,105,1,1444417855820,1444417856213,922,394,0,0,0,5,4,1,54,0001-00-0004-41.png,0005-00-0000-66.png
14,106,1,1444417856236,1444417856700,336,371,0,0,0,3,4,1,34,0003-00-0002-18.png,0005-00-0003-36.png
14,107,0,1444417856726,1444417857057,342,405,0,0,0,5,4,1,54,0001-00-0001-75.png,0005-00-0007-25.png
14,108,0,1444417857083,1444417857817,925,482,0,0,0,4,3,1,43,0005-00-0008-56.png,0003-00-0002-19.png
14,109,1,1444417857844,1444417858675,868,350,0,0,0,3,2,1,32,0003-00-0007-55.png,0002-00-0005-72.png
14,110,1,1444417858699,1444417859437,440,492,0,0,0,2,1,1,21,0002-00-0002-46.png,0004-00-0009-62.png
14,111,1,1444417859472,1444417860269,971,449,0,0,0,1,2,1,12,0004-00-0005-58.png,0002-00-0000-15.png
14,112,1,1444417860295,1444417860491,952,358,0,0,0,2,3,1,23,0002-00-0008-19.png,0003-00-0003-61.png
14,113,1,1444417860523,1444417860887,350,371,0,0,0,3,4,1,34,0003-00-0006-08.png,0005-00-0008-23.png
14,114,1,1444417860921,1444417861171,350,410,0,0,0,3,2,1,32,0003-00-0004-98.png,0002-00-0008-23.png
14,115,1,1444417861204,1444417861800,385,459,0,0,0,2,3,1,23,0002-00-0007-46.png,0003-00-0008-73.png
14,116,0,1444417861840,1444417861995,874,346,0,0,0,5,4,1,54,0001-00-0009-50.png,0005-00-0003-27.png
14,117,0,1444417862032,1444417862383,900,305,0,0,0,4,3,1,43,0005-00-0006-54.png,0003-00-0006-58.png
14,118,0,1444417862402,1444417862959,925,358,0,0,0,1,2,1,12,0004-00-0005-20.png,0002-00-0003-08.png
14,119,0,1444417862982,1444417864049,904,427,0,0,0,2,1,1,21,0002-00-0007-46.png,0004-00-0002-17.png
14,120,0,1444417864078,1444417864305,305,383,0,0,0,5,4,1,54,0001-00-0001-61.png,0005-00-0009-40.png
14,121,1,1444417864348,1444417864967,951,449,0,0,0,5,4,1,54,0001-00-0000-74.png,0005-00-0006-75.png
14,122,0,1444417864996,1444417865209,956,358,0,0,0,1,2,1,12,0004-00-0006-53.png,0002-00-0006-03.png
14,123,0,1444417865246,1444417865798,934,447,0,0,0,3,4,1,34,0003-00-0007-66.png,0005-00-0008-10.png
14,124,0,1444417865833,1444417866241,393,428,0,0,0,2,3,1,23,0002-00-0004-46.png,0003-00-0008-21.png
14,125,0,1444417866282,1444417867023,299,385,0,0,0,3,2,1,32,0003-00-0001-50.png,0002-00-0005-84.png
14,126,0,1444417867050,1444417867440,951,462,0,0,0,4,3,1,43,0005-00-0009-74.png,0003-00-0008-29.png
14,127,0,1444417867478,1444417867858,389,421,0,0,0,2,1,1,21,0002-00-0005-44.png,0004-00-0000-51.png
14,128,0,1444417867889,1444417868427,318,436,0,0,0,5,4,1,54,0001-00-0007-17.png,0005-00-0007-58.png
14,129,0,1444417868452,1444417869060,954,471,0,0,0,3,4,1,34,0003-00-0000-45.png,0005-00-0008-44.png
14,130,1,1444417869105,1444417869627,879,386,0,0,0,4,3,1,43,0005-00-0002-81.png,0003-00-0001-82.png
14,131,1,1444417869644,1444417870823,344,410,0,0,0,5,4,1,54,0001-00-0001-68.png,0005-00-0000-95.png
14,132,0,1444417870852,1444417871135,401,370,0,0,0,2,3,1,23,0002-00-0004-53.png,0003-00-0004-59.png
14,133,0,1444417871164,1444417871685,307,393,0,0,0,3,2,1,32,0003-00-0006-38.png,0002-00-0006-20.png
14,134,0,1444417871710,1444417872443,311,417,0,0,0,2,1,1,21,0002-00-0005-61.png,0004-00-0007-50.png
14,135,1,1444417872469,1444417872873,948,375,0,0,0,5,4,1,54,0001-00-0003-19.png,0005-00-0000-66.png
14,136,1,1444417872898,1444417873909,345,406,0,0,0,1,2,1,12,0004-00-0002-77.png,0002-00-0008-36.png
14,137,1,1444417873946,1444417874273,369,445,0,0,0,3,2,1,32,0003-00-0006-54.png,0002-00-0005-43.png
14,138,1,1444417874296,1444417874781,912,450,0,0,0,3,4,1,34,0003-00-0007-87.png,0005-00-0003-57.png
14,139,1,1444417874806,1444417875356,349,429,0,0,0,5,4,1,54,0001-00-0003-02.png,0005-00-0009-94.png
14,140,0,1444417875389,1444417875709,939,475,0,0,0,2,1,1,21,0002-00-0009-03.png,0004-00-0004-30.png
14,141,0,1444417875732,1444417876411,320,400,0,0,0,1,2,1,12,0004-00-0000-09.png,0002-00-0008-18.png
14,142,0,1444417876446,1444417876881,935,453,0,0,0,5,4,1,54,0001-00-0007-75.png,0005-00-0000-80.png
14,143,1,1444417876907,1444417878241,401,397,0,0,0,4,3,1,43,0005-00-0002-65.png,0003-00-0003-53.png
14,144,0,1444417878284,1444417878691,412,554,0,0,0,2,3,1,23,0002-00-0006-99.png,0003-00-0003-53.png
14,145,1,1444417878708,1444417879217,919,416,0,0,0,1,2,1,12,0004-00-0003-29.png,0002-00-0002-84.png
14,146,0,1444417879255,1444417879522,382,450,0,0,0,4,3,1,43,0005-00-0009-95.png,0003-00-0001-61.png
14,147,1,1444417879561,1444417880026,401,410,0,0,0,5,4,1,54,0001-00-0002-38.png,0005-00-0009-69.png
14,148,1,1444417880049,1444417880744,395,415,0,0,0,5,4,1,54,0001-00-0008-87.png,0005-00-0001-13.png
14,149,1,1444417880772,1444417881623,901,345,0,0,0,2,3,1,23,0002-00-0005-81.png,0003-00-0005-31.png
14,150,0,1444417881646,1444417881870,408,419,0,0,0,2,1,1,21,0002-00-0000-77.png,0004-00-0008-98.png
14,151,0,1444417881891,1444417882237,501,443,0,0,0,3,4,1,34,0003-00-0001-58.png,0005-00-0003-20.png
14,152,0,1444417882259,1444417882968,504,410,0,0,0,3,2,1,32,0003-00-0001-68.png,0002-00-0007-92.png
14,153,0,1444417882996,1444417883895,504,436,0,0,0,3,4,1,34,0003-00-0002-67.png,0005-00-0008-27.png
14,154,0,1444417883923,1444417884080,954,364,0,0,0,1,2,1,12,0004-00-0008-18.png,0002-00-0008-28.png
14,155,0,1444417884107,1444417884551,951,368,0,0,0,3,2,1,32,0003-00-0007-55.png,0002-00-0005-92.png
14,156,1,1444417884582,1444417885450,313,410,0,0,0,5,4,1,54,0001-00-0003-67.png,0005-00-0004-82.png
14,157,1,1444417885482,1444417886054,922,490,0,0,0,2,1,1,21,0002-00-0003-84.png,0004-00-0001-48.png
14,158,1,1444417886084,1444417886341,304,388,0,0,0,2,3,1,23,0002-00-0003-83.png,0003-00-0000-62.png
14,159,1,1444417886364,1444417887276,311,409,0,0,0,5,4,1,54,0001-00-0004-71.png,0005-00-0009-46.png
14,160,0,1444417887308,1444417887882,342,453,0,0,0,4,3,1,43,0005-00-0009-00.png,0003-00-0003-20.png
14,161,0,1444417887924,1444417888486,397,392,0,0,0,1,2,1,12,0004-00-0002-14.png,0002-00-0003-92.png
14,162,0,1444417888521,1444417888659,981,341,0,0,0,5,4,1,54,0001-00-0004-86.png,0005-00-0003-03.png
14,163,0,1444417888688,1444417889196,952,358,0,0,0,2,1,1,21,0002-00-0009-27.png,0004-00-0001-75.png
14,164,0,1444417889217,1444417889655,952,371,0,0,0,5,4,1,54,0001-00-0000-35.png,0005-00-0009-44.png
14,165,1,1444417889679,1444417890165,400,506,0,0,0,3,4,1,34,0003-00-0000-45.png,0005-00-0001-19.png
14,166,0,1444417890189,1444417890852,320,401,0,0,0,2,3,1,23,0002-00-0008-41.png,0003-00-0002-62.png
14,167,0,1444417890878,1444417891551,929,453,0,0,0,4,3,1,43,0005-00-0009-57.png,0003-00-0005-72.png
14,168,1,1444417891582,1444417892032,342,441,0,0,0,3,2,1,32,0003-00-0002-62.png,0002-00-0002-30.png
14,169,1,1444417892057,1444417892983,325,384,0,0,0,3,4,1,34,0003-00-0009-95.png,0005-00-0006-88.png
14,170,0,1444417893009,1444417893568,376,410,0,0,0,2,3,1,23,0002-00-0008-11.png,0003-00-0007-28.png
14,171,1,1444417893613,1444417894781,333,384,0,0,0,4,3,1,43,0005-00-0001-32.png,0003-00-0006-06.png
14,172,1,1444417894809,1444417895172,900,474,0,0,0,3,2,1,32,0003-00-0008-90.png,0002-00-0001-36.png
14,173,1,1444417895201,1444417895494,868,411,0,0,0,1,2,1,12,0004-00-0005-18.png,0002-00-0009-24.png
14,174,0,1444417895522,1444417896470,955,383,0,0,0,5,4,1,54,0001-00-0002-46.png,0005-00-0003-50.png
14,175,1,1444417896495,1444417896990,319,421,0,0,0,2,1,1,21,0002-00-0003-94.png,0004-00-0004-17.png
14,176,1,1444417897019,1444417897605,925,463,0,0,0,5,4,1,54,0001-00-0000-79.png,0005-00-0007-20.png
14,177,0,1444417897626,1444417898118,932,404,0,0,0,2,1,1,21,0002-00-0001-21.png,0004-00-0007-72.png
14,178,0,1444417898152,1444417898609,915,475,0,0,0,3,4,1,34,0003-00-0001-25.png,0005-00-0001-28.png
14,179,1,1444417898638,1444417899197,401,397,0,0,0,4,3,1,43,0005-00-0009-13.png,0003-00-0005-77.png
14,180,0,1444417899232,1444417899656,361,457,0,0,0,3,2,1,32,0003-00-0007-77.png,0002-00-0007-01.png
14,181,1,1444417899686,1444417901240,395,533,0,0,0,1,2,1,12,0004-00-0006-54.png,0002-00-0006-41.png
14,182,0,1444417901271,1444417901616,951,384,0,0,0,5,4,1,54,0001-00-0001-27.png,0005-00-0001-28.png
14,183,0,1444417901654,1444417901872,934,419,0,0,0,5,4,1,54,0001-00-0001-18.png,0005-00-0002-78.png
14,184,1,1444417901888,1444417902354,299,423,0,0,0,2,3,1,23,0002-00-0004-80.png,0003-00-0003-10.png
14,185,1,1444417902397,1444417902861,293,409,0,0,0,4,3,1,43,0005-00-0001-82.png,0003-00-0004-99.png
14,186,1,1444417902888,1444417903235,862,372,0,0,0,5,4,1,54,0001-00-0005-53.png,0005-00-0005-63.png
14,187,1,1444417903268,1444417904135,952,371,0,0,0,2,3,1,23,0002-00-0005-73.png,0003-00-0008-09.png
14,188,0,1444417904160,1444417905215,375,448,0,0,0,3,4,1,34,0003-00-0009-56.png,0005-00-0003-93.png
14,189,0,1444417905253,1444417905703,951,386,0,0,0,3,2,1,32,0003-00-0007-86.png,0002-00-0003-20.png
14,190,1,1444417905748,1444417906561,904,491,0,0,0,5,4,1,54,0001-00-0000-57.png,0005-00-0005-62.png
14,191,0,1444417906585,1444417907327,298,403,0,0,0,2,1,1,21,0002-00-0002-16.png,0004-00-0003-32.png
14,192,1,1444417907360,1444417907649,403,414,0,0,0,1,2,1,12,0004-00-0001-75.png,0002-00-0007-48.png
14,193,0,1444417907679,1444417908532,902,382,0,0,0,2,1,1,21,0002-00-0007-40.png,0004-00-0001-62.png
14,194,0,1444417908553,1444417908854,875,487,0,0,0,1,2,1,12,0004-00-0002-54.png,0002-00-0009-01.png
14,195,0,1444417908906,1444417909488,921,418,0,0,0,2,3,1,23,0002-00-0002-55.png,0003-00-0004-43.png
14,196,1,1444417909518,1444417910415,388,385,0,0,0,3,2,1,32,0003-00-0001-54.png,0002-00-0008-21.png
14,197,0,1444417910454,1444417911078,374,416,0,0,0,5,4,1,54,0001-00-0009-92.png,0005-00-0007-35.png
14,198,1,1444417911105,1444417911511,518,443,0,0,0,5,4,1,54,0001-00-0005-77.png,0005-00-0004-53.png
14,199,0,1444417911556,1444417912355,312,383,0,0,0,4,3,1,43,0005-00-0001-77.png,0003-00-0009-61.png
14,200,1,1444417912394,1444417912885,905,454,0,0,0,3,4,1,34,0003-00-0005-90.png,0005-00-0004-24.png
14,201,1,1444417912917,1444417913413,343,416,0,0,0,5,4,1,54,0001-00-0001-01.png,0005-00-0009-15.png
14,202,0,1444417913442,1444417913788,929,401,0,0,0,3,2,1,32,0003-00-0005-31.png,0002-00-0001-52.png
14,203,1,1444417913828,1444417914543,345,395,0,0,0,2,3,1,23,0002-00-0002-30.png,0003-00-0001-38.png
14,204,1,1444417914584,1444417915130,367,418,0,0,0,2,1,1,21,0002-00-0001-08.png,0004-00-0004-17.png
14,205,0,1444417915159,1444417916187,951,410,0,0,0,3,4,1,34,0003-00-0005-97.png,0005-00-0005-83.png
14,206,1,1444417916223,1444417916970,952,397,0,0,0,1,2,1,12,0004-00-0006-45.png,0002-00-0005-55.png
14,207,1,1444417916993,1444417917581,350,397,0,0,0,5,4,1,54,0001-00-0009-01.png,0005-00-0006-68.png
14,208,1,1444417917609,1444417918322,955,402,0,0,0,4,3,1,43,0005-00-0008-46.png,0003-00-0008-64.png
14,209,0,1444417918353,1444417918840,314,390,0,0,0,2,1,1,21,0002-00-0003-75.png,0004-00-0009-50.png
14,210,1,1444417918882,1444417919291,925,463,0,0,0,3,2,1,32,0003-00-0004-87.png,0002-00-0009-92.png
14,211,1,1444417919321,1444417920238,323,394,0,0,0,4,3,1,43,0005-00-0005-57.png,0003-00-0006-21.png
14,212,0,1444417920258,1444417920593,928,479,0,0,0,3,4,1,34,0003-00-0002-64.png,0005-00-0002-55.png
14,213,0,1444417920616,1444417921034,952,383,0,0,0,1,2,1,12,0004-00-0000-38.png,0002-00-0009-00.png
14,214,0,1444417921064,1444417921557,313,436,0,0,0,5,4,1,54,0001-00-0003-72.png,0005-00-0009-78.png
14,215,0,1444417921585,1444417922288,317,390,0,0,0,5,4,1,54,0001-00-0006-69.png,0005-00-0004-07.png
14,216,1,1444417922309,1444417922994,415,410,0,0,0,2,3,1,23,0002-00-0001-74.png,0003-00-0004-56.png
14,217,0,1444417923037,1444417923408,376,424,0,0,0,2,3,1,23,0002-00-0003-98.png,0003-00-0007-08.png
14,218,1,1444417923437,1444417924255,305,414,0,0,0,3,4,1,34,0003-00-0006-60.png,0005-00-0005-47.png
14,219,1,1444417924277,1444417924545,900,410,0,0,0,2,1,1,21,0002-00-0006-49.png,0004-00-0007-33.png
14,220,1,1444417924572,1444417925972,930,428,0,0,0,4,3,1,43,0005-00-0009-35.png,0003-00-0000-81.png
14,221,0,1444417925998,1444417927050,913,398,0,0,0,5,4,1,54,0001-00-0003-66.png,0005-00-0002-87.png
14,222,0,1444417927074,1444417927628,340,410,0,0,0,1,2,1,12,0004-00-0004-87.png,0002-00-0002-55.png
14,223,0,1444417927650,1444417928248,871,471,0,0,0,3,2,1,32,0003-00-0005-72.png,0002-00-0009-77.png
14,224,0,1444417928277,1444417929164,325,441,0,0,0,5,4,1,54,0001-00-0002-11.png,0005-00-0002-74.png
14,225,1,1444417929185,1444417929521,350,398,0,0,0,5,4,1,54,0001-00-0004-75.png,0005-00-0000-30.png
14,226,0,1444417929538,1444417929765,901,450,0,0,0,3,4,1,34,0003-00-0001-97.png,0005-00-0004-13.png
14,227,1,1444417929790,1444417930133,401,446,0,0,0,4,3,1,43,0005-00-0000-45.png,0003-00-0003-27.png
14,228,0,1444417930168,1444417930667,325,384,0,0,0,5,4,1,54,0001-00-0003-37.png,0005-00-0004-43.png
14,229,1,1444417930698,1444417931077,328,409,0,0,0,2,3,1,23,0002-00-0009-27.png,0003-00-0008-97.png
14,230,1,1444417931099,1444417931435,325,358,0,0,0,1,2,1,12,0004-00-0005-29.png,0002-00-0004-36.png
14,231,1,1444417931463,1444417931858,868,374,0,0,0,3,2,1,32,0003-00-0001-64.png,0002-00-0000-43.png
14,232,0,1444417931887,1444417932029,952,409,0,0,0,2,1,1,21,0002-00-0000-76.png,0004-00-0001-48.png
14,233,0,1444417932049,1444417932269,909,460,0,0,0,5,4,1,54,0001-00-0003-26.png,0005-00-0000-07.png
14,234,1,1444417932304,1444417932582,920,472,0,0,0,2,1,1,21,0002-00-0007-80.png,0004-00-0000-31.png
14,235,0,1444417932617,1444417932855,376,450,0,0,0,3,2,1,32,0003-00-0006-35.png,0002-00-0009-45.png
14,236,0,1444417932885,1444417933284,929,402,0,0,0,4,3,1,43,0005-00-0003-99.png,0003-00-0006-76.png
14,237,1,1444417933314,1444417933560,266,408,0,0,0,2,3,1,23,0002-00-0007-24.png,0003-00-0009-80.png
14,238,0,1444417933593,1444417933927,949,410,0,0,0,5,4,1,54,0001-00-0008-51.png,0005-00-0005-32.png
14,239,0,1444417933950,1444417934423,952,384,0,0,0,3,4,1,34,0003-00-0006-86.png,0005-00-0009-37.png
14,240,0,1444417934449,1444417934925,375,401,0,0,0,1,2,1,12,0004-00-0000-89.png,0002-00-0000-68.png
14,241,1,1444417934946,1444417935272,443,492,0,0,0,2,1,1,21,0002-00-0000-73.png,0004-00-0005-86.png
14,242,1,1444417935290,1444417936679,897,349,0,0,0,4,3,1,43,0005-00-0002-47.png,0003-00-0009-19.png
14,243,1,1444417936714,1444417937504,366,402,0,0,0,5,4,1,54,0001-00-0002-46.png,0005-00-0001-58.png
14,244,1,1444417937534,1444417937735,905,402,0,0,0,1,2,1,12,0004-00-0007-31.png,0002-00-0009-69.png
14,245,1,1444417937770,1444417938251,926,397,0,0,0,3,4,1,34,0003-00-0004-19.png,0005-00-0004-67.png
14,246,0,1444417938294,1444417938898,879,324,0,0,0,2,3,1,23,0002-00-0008-31.png,0003-00-0007-90.png
14,247,1,1444417938922,1444417939700,956,480,0,0,0,3,2,1,32,0003-00-0002-72.png,0002-00-0007-41.png
14,248,1,1444417939724,1444417940761,376,425,0,0,0,5,4,1,54,0001-00-0005-28.png,0005-00-0002-47.png
14,249,0,1444417940787,1444417941587,350,397,0,0,0,2,1,1,21,0002-00-0001-90.png,0004-00-0006-13.png
14,250,0,1444417941610,1444417942188,881,479,0,0,0,4,3,1,43,0005-00-0000-33.png,0003-00-0008-89.png
14,251,1,1444417942244,1444417942411,890,497,0,0,0,5,4,1,54,0001-00-0002-94.png,0005-00-0003-19.png
14,252,1,1444417942443,1444417942768,913,450,0,0,0,5,4,1,54,0001-00-0003-41.png,0005-00-0008-31.png
14,253,0,1444417942793,1444417943273,354,421,0,0,0,2,3,1,23,0002-00-0006-46.png,0003-00-0008-33.png
14,254,1,1444417943310,1444417944056,248,462,0,0,0,1,2,1,12,0004-00-0003-84.png,0002-00-0005-90.png
14,255,0,1444417944098,1444417944829,344,435,0,0,0,3,4,1,34,0003-00-0008-35.png,0005-00-0001-69.png
14,256,0,1444417944863,1444417945439,924,384,0,0,0,3,2,1,32,0003-00-0007-11.png,0002-00-0005-46.png
14,257,1,1444417945478,1444417945921,348,436,0,0,0,4,3,1,43,0005-00-0004-57.png,0003-00-0003-66.png
14,258,1,1444417945947,1444417946149,919,440,0,0,0,3,2,1,32,0003-00-0006-03.png,0002-00-0002-66.png
14,259,1,1444417946184,1444417946705,406,566,0,0,0,5,4,1,54,0001-00-0002-50.png,0005-00-0006-36.png
14,260,1,1444417946729,1444417947203,427,527,0,0,0,3,4,1,34,0003-00-0008-31.png,0005-00-0005-58.png
14,261,1,1444417947226,1444417947738,367,455,0,0,0,2,3,1,23,0002-00-0000-27.png,0003-00-0009-16.png
14,262,0,1444417947768,1444417948257,952,398,0,0,0,1,2,1,12,0004-00-0009-88.png,0002-00-0000-09.png
14,263,1,1444417948289,1444417948883,946,400,0,0,0,2,1,1,21,0002-00-0008-91.png,0004-00-0004-03.png
14,264,0,1444417948918,1444417949430,901,502,0,0,0,5,4,1,54,0001-00-0002-16.png,0005-00-0003-82.png
14,265,0,1444417949465,1444417950511,925,411,0,0,0,5,4,1,54,0001-00-0002-73.png,0005-00-0001-08.png
14,266,1,1444417950553,1444417951045,414,449,0,0,0,4,3,1,43,0005-00-0003-32.png,0003-00-0006-13.png
14,267,0,1444417951074,1444417951418,926,403,0,0,0,3,2,1,32,0003-00-0004-28.png,0002-00-0003-90.png
14,268,1,1444417951437,1444417952056,388,424,0,0,0,1,2,1,12,0004-00-0003-69.png,0002-00-0006-85.png
14,269,0,1444417952083,1444417952508,460,472,0,0,0,5,4,1,54,0001-00-0001-50.png,0005-00-0006-37.png
14,270,1,1444417952531,1444417953217,319,409,0,0,0,2,1,1,21,0002-00-0007-80.png,0004-00-0000-24.png
14,271,0,1444417953238,1444417953860,926,413,0,0,0,3,4,1,34,0003-00-0009-55.png,0005-00-0005-58.png
14,272,1,1444417953885,1444417954188,896,472,0,0,0,2,3,1,23,0002-00-0003-66.png,0003-00-0001-67.png
14,273,1,1444417954220,1444417955155,925,515,0,0,0,3,4,1,34,0003-00-0007-55.png,0005-00-0007-65.png
14,274,1,1444417955186,1444417955625,435,530,0,0,0,1,2,1,12,0004-00-0000-63.png,0002-00-0003-07.png
14,275,1,1444417955643,1444417956005,902,493,0,0,0,2,3,1,23,0002-00-0009-14.png,0003-00-0009-95.png
14,276,0,1444417956036,1444417956445,925,385,0,0,0,5,4,1,54,0001-00-0002-47.png,0005-00-0004-39.png
14,277,1,1444417956477,1444417956730,365,494,0,0,0,4,3,1,43,0005-00-0002-57.png,0003-00-0004-58.png
14,278,0,1444417956767,1444417957292,330,407,0,0,0,5,4,1,54,0001-00-0001-02.png,0005-00-0001-25.png
14,279,0,1444417957323,1444417958372,345,373,0,0,0,3,2,1,32,0003-00-0006-16.png,0002-00-0006-06.png
14,280,0,1444417958391,1444417958692,924,409,0,0,0,2,1,1,21,0002-00-0005-66.png,0004-00-0005-68.png
14,281,1,1444417958742,1444417959462,910,459,0,0,0,1,2,1,12,0004-00-0004-19.png,0002-00-0001-47.png
14,282,1,1444417959495,1444417959766,937,411,0,0,0,2,3,1,23,0002-00-0008-60.png,0003-00-0009-31.png
14,283,1,1444417959793,1444417960534,376,410,0,0,0,3,4,1,34,0003-00-0004-30.png,0005-00-0005-85.png
14,284,0,1444417960573,1444417960850,905,506,0,0,0,5,4,1,54,0001-00-0005-47.png,0005-00-0007-99.png
14,285,1,1444417960876,1444417961285,951,411,0,0,0,5,4,1,54,0001-00-0004-68.png,0005-00-0000-43.png
14,286,0,1444417961322,1444417961858,359,432,0,0,0,3,2,1,32,0003-00-0004-77.png,0002-00-0000-06.png
14,287,0,1444417961879,1444417962257,339,440,0,0,0,2,1,1,21,0002-00-0000-47.png,0004-00-0009-89.png
14,288,1,1444417962308,1444417962900,393,506,0,0,0,4,3,1,43,0005-00-0002-89.png,0003-00-0004-16.png
14,289,1,1444417962937,1444417963426,366,391,0,0,0,1,2,1,12,0004-00-0002-97.png,0002-00-0000-36.png
14,290,1,1444417963456,1444417963768,393,408,0,0,0,2,1,1,21,0002-00-0001-91.png,0004-00-0006-40.png
14,291,1,1444417963795,1444417964343,951,385,0,0,0,3,2,1,32,0003-00-0002-34.png,0002-00-0004-53.png
14,292,1,1444417964359,1444417964981,375,443,0,0,0,3,4,1,34,0003-00-0000-49.png,0005-00-0003-80.png
14,293,0,1444417965016,1444417965475,355,510,0,0,0,4,3,1,43,0005-00-0008-59.png,0003-00-0007-70.png
14,294,0,1444417965490,1444417965812,926,461,0,0,0,5,4,1,54,0001-00-0006-79.png,0005-00-0008-70.png
14,295,0,1444417965854,1444417966140,920,457,0,0,0,5,4,1,54,0001-00-0007-27.png,0005-00-0000-03.png
14,296,0,1444417966171,1444417966549,922,417,0,0,0,2,3,1,23,0002-00-0003-55.png,0003-00-0001-78.png
14,297,0,1444417966592,1444417967114,350,384,0,0,0,2,1,1,21,0002-00-0000-04.png,0004-00-0001-41.png
14,298,1,1444417967139,1444417967823,333,419,0,0,0,5,4,1,54,0001-00-0007-14.png,0005-00-0000-86.png
14,299,0,1444417967855,1444417968277,385,397,0,0,0,4,3,1,43,0005-00-0002-67.png,0003-00-0005-91.png
14,300,1,1444417968306,1444417968919,900,488,0,0,0,2,3,1,23,0002-00-0008-45.png,0003-00-0001-06.png
14,301,0,1444417968942,1444417970318,926,384,0,0,0,1,2,1,12,0004-00-0008-97.png,0002-00-0005-33.png
14,302,1,1444417970349,1444417970554,874,351,0,0,0,3,2,1,32,0003-00-0006-95.png,0002-00-0004-79.png
14,303,0,1444417970577,1444417970936,363,477,0,0,0,5,4,1,54,0001-00-0009-82.png,0005-00-0002-35.png
14,304,0,1444417970961,1444417971356,925,466,0,0,0,3,4,1,34,0003-00-0000-64.png,0005-00-0000-44.png
14,305,1,1444417971391,1444417971824,325,414,0,0,0,2,3,1,23,0002-00-0007-49.png,0003-00-0002-09.png
14,306,1,1444417971849,1444417972408,925,490,0,0,0,4,3,1,43,0005-00-0006-89.png,0003-00-0005-10.png
14,307,1,1444417972437,1444417972654,935,489,0,0,0,5,4,1,54,0001-00-0005-25.png,0005-00-0000-76.png
14,308,0,1444417972674,1444417973402,364,441,0,0,0,3,2,1,32,0003-00-0000-34.png,0002-00-0005-06.png
14,309,0,1444417973435,1444417974053,343,425,0,0,0,2,1,1,21,0002-00-0000-52.png,0004-00-0000-48.png
14,310,0,1444417974075,1444417974276,376,410,0,0,0,3,4,1,34,0003-00-0001-76.png,0005-00-0000-46.png
14,311,1,1444417974312,1444417974977,954,402,0,0,0,1,2,1,12,0004-00-0000-64.png,0002-00-0008-81.png
14,312,1,1444417975022,1444417975496,928,400,0,0,0,5,4,1,54,0001-00-0002-28.png,0005-00-0000-73.png
14,313,0,1444417975529,1444417975819,881,356,0,0,0,5,4,1,54,0001-00-0009-65.png,0005-00-0004-41.png
14,314,1,1444417975846,1444417976180,374,404,0,0,0,5,4,1,54,0001-00-0004-66.png,0005-00-0009-50.png
14,315,1,1444417976203,1444417976724,932,384,0,0,0,3,2,1,32,0003-00-0004-45.png,0002-00-0000-62.png
14,316,0,1444417976759,1444417977190,905,480,0,0,0,2,3,1,23,0002-00-0004-32.png,0003-00-0003-31.png
14,317,0,1444417977212,1444417978232,396,389,0,0,0,2,1,1,21,0002-00-0002-38.png,0004-00-0003-50.png
14,318,1,1444417978251,1444417978559,332,444,0,0,0,3,4,1,34,0003-00-0003-97.png,0005-00-0005-33.png
14,319,0,1444417978595,1444417978943,388,449,0,0,0,1,2,1,12,0004-00-0000-34.png,0002-00-0001-56.png
14,320,1,1444417978983,1444417979297,952,376,0,0,0,4,3,1,43,0005-00-0006-60.png,0003-00-0004-43.png
14,321,0,1444417979327,1444417979742,952,385,0,0,0,4,3,1,43,0005-00-0001-36.png,0003-00-0002-48.png
14,322,0,1444417979781,1444417980432,381,464,0,0,0,2,3,1,23,0002-00-0008-70.png,0003-00-0008-71.png
14,323,1,1444417980472,1444417980963,416,518,0,0,0,5,4,1,54,0001-00-0002-04.png,0005-00-0003-19.png
14,324,1,1444417981003,1444417981808,958,487,0,0,0,5,4,1,54,0001-00-0002-46.png,0005-00-0001-15.png
14,325,1,1444417981833,1444417982135,264,488,0,0,0,1,2,1,12,0004-00-0001-09.png,0002-00-0002-33.png
14,326,1,1444417982174,1444417982549,280,384,0,0,0,2,1,1,21,0002-00-0009-50.png,0004-00-0009-08.png
14,327,1,1444417982575,1444417983300,948,472,0,0,0,3,2,1,32,0003-00-0004-86.png,0002-00-0007-80.png
14,328,1,1444417983338,1444417983844,930,401,0,0,0,3,4,1,34,0003-00-0008-51.png,0005-00-0007-97.png
14,329,1,1444417983874,1444417984646,319,410,0,0,0,1,2,1,12,0004-00-0005-18.png,0002-00-0004-07.png
14,330,1,1444417984683,1444417984930,316,415,0,0,0,4,3,1,43,0005-00-0001-97.png,0003-00-0003-16.png
14,331,0,1444417984964,1444417985477,318,419,0,0,0,2,1,1,21,0002-00-0006-34.png,0004-00-0006-29.png
14,332,1,1444417985499,1444417986011,324,394,0,0,0,3,4,1,34,0003-00-0003-77.png,0005-00-0006-71.png
14,333,1,1444417986044,1444417986542,951,384,0,0,0,3,2,1,32,0003-00-0009-55.png,0002-00-0009-11.png
14,334,0,1444417986572,1444417986765,895,343,0,0,0,5,4,1,54,0001-00-0006-50.png,0005-00-0002-39.png
14,335,1,1444417986793,1444417987743,902,497,0,0,0,5,4,1,54,0001-00-0008-91.png,0005-00-0004-15.png
14,336,0,1444417987772,1444417988268,273,436,0,0,0,2,3,1,23,0002-00-0005-61.png,0003-00-0001-78.png
14,337,1,1444417988308,1444417989055,914,371,0,0,0,2,1,1,21,0002-00-0001-93.png,0004-00-0005-70.png
14,338,0,1444417989082,1444417989765,924,481,0,0,0,4,3,1,43,0005-00-0003-76.png,0003-00-0005-74.png
14,339,1,1444417989782,1444417990096,952,409,0,0,0,3,4,1,34,0003-00-0000-28.png,0005-00-0006-94.png
14,340,1,1444417990127,1444417990710,324,392,0,0,0,5,4,1,54,0001-00-0007-96.png,0005-00-0005-93.png
14,341,1,1444417990730,1444417991045,860,396,0,0,0,3,2,1,32,0003-00-0001-79.png,0002-00-0006-31.png
14,342,1,1444417991085,1444417992096,955,450,0,0,0,5,4,1,54,0001-00-0005-33.png,0005-00-0004-52.png
14,343,1,1444417992124,1444417992701,926,461,0,0,0,2,3,1,23,0002-00-0008-92.png,0003-00-0004-78.png
14,344,0,1444417992735,1444417993297,387,524,0,0,0,1,2,1,12,0004-00-0009-88.png,0002-00-0002-30.png
14,345,1,1444417993338,1444417995292,951,384,0,0,0,4,3,1,43,0005-00-0008-54.png,0003-00-0000-90.png
14,346,1,1444417995321,1444417995993,934,386,0,0,0,1,2,1,12,0004-00-0005-67.png,0002-00-0001-32.png
14,347,1,1444417996016,1444417996529,292,405,0,0,0,5,4,1,54,0001-00-0007-01.png,0005-00-0004-10.png
14,348,1,1444417996557,1444417997371,392,492,0,0,0,2,1,1,21,0002-00-0007-11.png,0004-00-0009-42.png
14,349,0,1444417997401,1444417997746,376,384,0,0,0,5,4,1,54,0001-00-0000-69.png,0005-00-0004-40.png
14,350,1,1444417997781,1444417997985,922,419,0,0,0,3,2,1,32,0003-00-0005-37.png,0002-00-0003-47.png
14,351,0,1444417998026,1444417998302,392,469,0,0,0,2,3,1,23,0002-00-0004-06.png,0003-00-0004-18.png
14,352,1,1444417998328,1444417999135,862,346,0,0,0,3,4,1,34,0003-00-0009-28.png,0005-00-0000-83.png
14,353,0,1444417999165,1444417999318,312,416,0,0,0,3,4,1,34,0003-00-0009-44.png,0005-00-0007-38.png
14,354,0,1444417999348,1444417999660,315,410,0,0,0,2,1,1,21,0002-00-0005-30.png,0004-00-0004-71.png
14,355,1,1444417999682,1444418000039,928,413,0,0,0,5,4,1,54,0001-00-0005-79.png,0005-00-0009-35.png
14,356,0,1444418000070,1444418000277,344,419,0,0,0,1,2,1,12,0004-00-0001-95.png,0002-00-0005-52.png
14,357,1,1444418000316,1444418001169,927,523,0,0,0,3,2,1,32,0003-00-0002-18.png,0002-00-0007-95.png
14,358,0,1444418001191,1444418001528,350,384,0,0,0,5,4,1,54,0001-00-0003-49.png,0005-00-0004-16.png
14,359,0,1444418001555,1444418002089,927,495,0,0,0,4,3,1,43,0005-00-0003-44.png,0003-00-0009-72.png
14,360,1,1444418002108,1444418002641,376,410,0,0,0,2,3,1,23,0002-00-0009-13.png,0003-00-0002-15.png
14,361,1,1444418002667,1444418003372,344,452,0,0,0,5,4,1,54,0001-00-0003-52.png,0005-00-0000-51.png
14,362,0,1444418003407,1444418003908,931,432,0,0,0,3,2,1,32,0003-00-0002-09.png,0002-00-0005-15.png
14,363,1,1444418003943,1444418004389,273,479,0,0,0,3,4,1,34,0003-00-0006-28.png,0005-00-0009-00.png
14,364,1,1444418004424,1444418004810,953,391,0,0,0,4,3,1,43,0005-00-0008-64.png,0003-00-0002-05.png
14,365,0,1444418004847,1444418005970,925,499,0,0,0,2,1,1,21,0002-00-0003-31.png,0004-00-0005-74.png
14,366,1,1444418005989,1444418006687,401,384,0,0,0,1,2,1,12,0004-00-0003-22.png,0002-00-0007-32.png
14,367,0,1444418006716,1444418007036,952,385,0,0,0,5,4,1,54,0001-00-0005-58.png,0005-00-0002-67.png
14,368,1,1444418007071,1444418007580,338,410,0,0,0,2,3,1,23,0002-00-0008-21.png,0003-00-0005-03.png
14,369,1,1444418007607,1444418007819,912,424,0,0,0,3,2,1,32,0003-00-0001-90.png,0002-00-0007-63.png
14,370,1,1444418007847,1444418008540,394,418,0,0,0,1,2,1,12,0004-00-0001-05.png,0002-00-0001-70.png
14,371,1,1444418008565,1444418009496,334,434,0,0,0,2,1,1,21,0002-00-0006-39.png,0004-00-0009-45.png
14,372,1,1444418009533,1444418010031,407,429,0,0,0,4,3,1,43,0005-00-0007-95.png,0003-00-0002-11.png
14,373,0,1444418010063,1444418010468,926,410,0,0,0,5,4,1,54,0001-00-0004-21.png,0005-00-0004-19.png
14,374,0,1444418010503,1444418011262,376,462,0,0,0,5,4,1,54,0001-00-0004-42.png,0005-00-0000-63.png
14,375,1,1444418011297,1444418011622,504,425,0,0,0,3,4,1,34,0003-00-0008-69.png,0005-00-0001-11.png
14,376,0,1444418011655,1444418011776,337,397,0,0,0,2,3,1,23,0002-00-0008-90.png,0003-00-0007-33.png
14,377,1,1444418011803,1444418012450,926,435,0,0,0,5,4,1,54,0001-00-0002-88.png,0005-00-0003-29.png
14,378,0,1444418012474,1444418012983,912,482,0,0,0,1,2,1,12,0004-00-0008-10.png,0002-00-0003-38.png
14,379,0,1444418013006,1444418013746,867,365,0,0,0,2,3,1,23,0002-00-0006-16.png,0003-00-0009-72.png
14,380,0,1444418013780,1444418014235,331,424,0,0,0,4,3,1,43,0005-00-0006-76.png,0003-00-0008-48.png
14,381,0,1444418014258,1444418014791,328,398,0,0,0,3,2,1,32,0003-00-0002-56.png,0002-00-0002-37.png
14,382,0,1444418014822,1444418015522,926,461,0,0,0,3,4,1,34,0003-00-0007-40.png,0005-00-0000-74.png
14,383,1,1444418015554,1444418015998,885,347,0,0,0,5,4,1,54,0001-00-0005-77.png,0005-00-0006-42.png
14,384,1,1444418016024,1444418016413,370,537,0,0,0,2,1,1,21,0002-00-0008-81.png,0004-00-0003-56.png
14,385,1,1444418016450,1444418016800,389,514,0,0,0,5,4,1,54,0001-00-0007-13.png,0005-00-0008-83.png
14,386,1,1444418016819,1444418017523,377,550,0,0,0,4,3,1,43,0005-00-0004-93.png,0003-00-0005-03.png
14,387,1,1444418017540,1444418018343,248,462,0,0,0,1,2,1,12,0004-00-0002-03.png,0002-00-0005-26.png
14,388,0,1444418018364,1444418018606,401,436,0,0,0,2,3,1,23,0002-00-0004-61.png,0003-00-0003-98.png
14,389,1,1444418018639,1444418019296,908,500,0,0,0,5,4,1,54,0001-00-0007-30.png,0005-00-0004-07.png
14,390,0,1444418019327,1444418019557,427,448,0,0,0,3,4,1,34,0003-00-0001-67.png,0005-00-0002-85.png
14,391,0,1444418019587,1444418019988,939,384,0,0,0,3,2,1,32,0003-00-0004-44.png,0002-00-0000-48.png
14,392,0,1444418020017,1444418020502,951,488,0,0,0,2,1,1,21,0002-00-0001-93.png,0004-00-0007-57.png
14,393,1,1444418020524,1444418020745,900,410,0,0,0,4,3,1,43,0005-00-0006-71.png,0003-00-0006-44.png
14,394,1,1444418020783,1444418021465,869,393,0,0,0,3,2,1,32,0003-00-0008-41.png,0002-00-0006-67.png
14,395,0,1444418021488,1444418022038,899,512,0,0,0,2,3,1,23,0002-00-0005-37.png,0003-00-0002-78.png
14,396,1,1444418022063,1444418022624,922,393,0,0,0,5,4,1,54,0001-00-0003-67.png,0005-00-0003-16.png
14,397,0,1444418022648,1444418023371,926,411,0,0,0,1,2,1,12,0004-00-0008-36.png,0002-00-0005-89.png
14,398,0,1444418023402,1444418023850,350,397,0,0,0,5,4,1,54,0001-00-0009-99.png,0005-00-0007-38.png
14,399,1,1444418023892,1444418024542,379,407,0,0,0,3,4,1,34,0003-00-0009-83.png,0005-00-0001-17.png
14,400,0,1444418024586,1444418025045,312,423,0,0,0,2,1,1,21,0002-00-0009-01.png,0004-00-0006-27.png
14,401,1,1444418025064,1444418025457,925,489,0,0,0,2,3,1,23,0002-00-0004-41.png,0003-00-0004-32.png
14,402,1,1444418025478,1444418026598,342,415,0,0,0,1,2,1,12,0004-00-0006-75.png,0002-00-0007-37.png
14,403,1,1444418026639,1444418027152,334,445,0,0,0,3,4,1,34,0003-00-0008-77.png,0005-00-0006-50.png
14,404,0,1444418027195,1444418027598,939,398,0,0,0,4,3,1,43,0005-00-0008-25.png,0003-00-0007-43.png
14,405,1,1444418027630,1444418028074,401,423,0,0,0,2,1,1,21,0002-00-0003-57.png,0004-00-0000-93.png
14,406,1,1444418028114,1444418028758,925,484,0,0,0,3,2,1,32,0003-00-0006-94.png,0002-00-0005-40.png
14,407,0,1444418028782,1444418029206,901,424,0,0,0,5,4,1,54,0001-00-0007-99.png,0005-00-0004-65.png
14,408,0,1444418029233,1444418030073,388,397,0,0,0,5,4,1,54,0001-00-0008-15.png,0005-00-0004-54.png
14,409,0,1444418030118,1444418031015,317,447,0,0,0,5,4,1,54,0001-00-0005-90.png,0005-00-0007-10.png
14,410,1,1444418031039,1444418031809,937,372,0,0,0,3,4,1,34,0003-00-0009-46.png,0005-00-0000-48.png
14,411,0,1444418031847,1444418032162,939,398,0,0,0,1,2,1,12,0004-00-0002-70.png,0002-00-0001-21.png
14,412,1,1444418032194,1444418032523,930,401,0,0,0,2,3,1,23,0002-00-0002-83.png,0003-00-0006-40.png
14,413,0,1444418032557,1444418033070,293,409,0,0,0,3,2,1,32,0003-00-0004-18.png,0002-00-0008-81.png
14,414,1,1444418033095,1444418033485,376,453,0,0,0,5,4,1,54,0001-00-0009-04.png,0005-00-0008-63.png
14,415,0,1444418033509,1444418034072,923,431,0,0,0,2,1,1,21,0002-00-0002-39.png,0004-00-0004-23.png
14,416,1,1444418034104,1444418034914,334,396,0,0,0,4,3,1,43,0005-00-0006-87.png,0003-00-0003-80.png
14,417,0,1444418034945,1444418035438,964,398,0,0,0,4,3,1,43,0005-00-0003-50.png,0003-00-0007-58.png
14,418,0,1444418035471,1444418036230,893,514,0,0,0,1,2,1,12,0004-00-0002-83.png,0002-00-0009-27.png
14,419,1,1444418036254,1444418037284,952,397,0,0,0,5,4,1,54,0001-00-0008-11.png,0005-00-0006-36.png
14,420,1,1444418037324,1444418037881,290,428,0,0,0,5,4,1,54,0001-00-0008-53.png,0005-00-0005-36.png
14,421,0,1444418037916,1444418038097,397,540,0,0,0,2,1,1,21,0002-00-0009-65.png,0004-00-0002-54.png
14,422,0,1444418038125,1444418038471,938,468,0,0,0,3,2,1,32,0003-00-0001-45.png,0002-00-0007-96.png
14,423,1,1444418038516,1444418039162,376,436,0,0,0,2,3,1,23,0002-00-0006-93.png,0003-00-0001-10.png
14,424,1,1444418039184,1444418040129,921,472,0,0,0,3,4,1,34,0003-00-0006-44.png,0005-00-0007-36.png
14,425,1,1444418040163,1444418040411,366,495,0,0,0,5,4,1,54,0001-00-0002-47.png,0005-00-0004-57.png
14,426,0,1444418040446,1444418041048,306,417,0,0,0,4,3,1,43,0005-00-0005-32.png,0003-00-0008-36.png
14,427,1,1444418041083,1444418042118,899,515,0,0,0,1,2,1,12,0004-00-0006-17.png,0002-00-0009-50.png
14,428,0,1444418042144,1444418043015,951,385,0,0,0,2,1,1,21,0002-00-0002-83.png,0004-00-0008-44.png
14,429,0,1444418043042,1444418044167,913,450,0,0,0,3,4,1,34,0003-00-0000-69.png,0005-00-0004-85.png
14,430,0,1444418044199,1444418044724,419,427,0,0,0,5,4,1,54,0001-00-0008-13.png,0005-00-0009-90.png
14,431,1,1444418044754,1444418045037,974,390,0,0,0,2,3,1,23,0002-00-0000-76.png,0003-00-0003-92.png
14,432,1,1444418045082,1444418045519,916,373,0,0,0,3,2,1,32,0003-00-0002-55.png,0002-00-0005-78.png
14,433,1,1444418045534,1444418045723,879,506,0,0,0,5,4,1,54,0001-00-0007-43.png,0005-00-0000-20.png
14,434,1,1444418045749,1444418046340,299,449,0,0,0,1,2,1,12,0004-00-0002-38.png,0002-00-0009-44.png
14,435,0,1444418046381,1444418047152,930,427,0,0,0,3,4,1,34,0003-00-0000-51.png,0005-00-0009-85.png
14,436,1,1444418047170,1444418047650,875,346,0,0,0,3,2,1,32,0003-00-0008-84.png,0002-00-0004-77.png
14,437,1,1444418047670,1444418047952,929,376,0,0,0,5,4,1,54,0001-00-0009-68.png,0005-00-0000-06.png
14,438,1,1444418047988,1444418048218,937,398,0,0,0,2,3,1,23,0002-00-0005-01.png,0003-00-0002-74.png
14,439,1,1444418048251,1444418048934,907,487,0,0,0,4,3,1,43,0005-00-0006-30.png,0003-00-0003-57.png
14,440,0,1444418048968,1444418049581,298,412,0,0,0,2,1,1,21,0002-00-0002-53.png,0004-00-0008-46.png
14,441,0,1444418049621,1444418050075,446,429,0,0,0,3,2,1,32,0003-00-0008-47.png,0002-00-0005-90.png
14,442,0,1444418050107,1444418051015,336,398,0,0,0,5,4,1,54,0001-00-0004-07.png,0005-00-0007-01.png
14,443,0,1444418051042,1444418052086,319,408,0,0,0,5,4,1,54,0001-00-0005-03.png,0005-00-0005-51.png
14,444,0,1444418052121,1444418052859,927,412,0,0,0,1,2,1,12,0004-00-0006-32.png,0002-00-0000-85.png
14,445,1,1444418052900,1444418053061,876,338,0,0,0,2,3,1,23,0002-00-0000-71.png,0003-00-0006-56.png
14,446,0,1444418053089,1444418053252,344,405,0,0,0,3,4,1,34,0003-00-0005-96.png,0005-00-0008-26.png
14,447,1,1444418053288,1444418054103,389,397,0,0,0,4,3,1,43,0005-00-0006-79.png,0003-00-0003-19.png
14,448,0,1444418054122,1444418054695,928,444,0,0,0,2,1,1,21,0002-00-0007-00.png,0004-00-0002-07.png
14,449,1,1444418054732,1444418054881,375,436,0,0,0,1,2,1,12,0004-00-0001-87.png,0002-00-0000-16.png
14,450,1,1444418054903,1444418055290,870,367,0,0,0,5,4,1,54,0001-00-0009-65.png,0005-00-0002-65.png
14,451,1,1444418055308,1444418055534,894,460,0,0,0,2,1,1,21,0002-00-0006-50.png,0004-00-0006-45.png
14,452,1,1444418055587,1444418056268,367,449,0,0,0,2,3,1,23,0002-00-0008-93.png,0003-00-0007-17.png
14,453,0,1444418056300,1444418057228,921,415,0,0,0,3,4,1,34,0003-00-0002-98.png,0005-00-0004-19.png
14,454,1,1444418057265,1444418057798,891,483,0,0,0,4,3,1,43,0005-00-0000-93.png,0003-00-0001-45.png
14,455,0,1444418057826,1444418058264,309,422,0,0,0,3,2,1,32,0003-00-0008-03.png,0002-00-0005-32.png
14,456,0,1444418058296,1444418058680,291,452,0,0,0,5,4,1,54,0001-00-0003-99.png,0005-00-0001-65.png
14,457,0,1444418058706,1444418059331,926,345,0,0,0,3,2,1,32,0003-00-0007-84.png,0002-00-0001-84.png
14,458,1,1444418059379,1444418060341,900,475,0,0,0,2,1,1,21,0002-00-0002-99.png,0004-00-0001-61.png
14,459,0,1444418060381,1444418060804,389,511,0,0,0,5,4,1,54,0001-00-0004-58.png,0005-00-0002-06.png
14,460,1,1444418060840,1444418061583,955,400,0,0,0,1,2,1,12,0004-00-0009-49.png,0002-00-0002-67.png
14,461,0,1444418061628,1444418061844,964,371,0,0,0,4,3,1,43,0005-00-0002-01.png,0003-00-0003-78.png
14,462,1,1444418061877,1444418062406,332,401,0,0,0,3,4,1,34,0003-00-0005-72.png,0005-00-0007-89.png
14,463,1,1444418062426,1444418062867,901,430,0,0,0,5,4,1,54,0001-00-0009-41.png,0005-00-0004-81.png
14,464,0,1444418062888,1444418063188,926,429,0,0,0,2,3,1,23,0002-00-0008-82.png,0003-00-0006-99.png
14,465,0,1444418063212,1444418063587,897,497,0,0,0,3,4,1,34,0003-00-0000-74.png,0005-00-0006-06.png
14,466,1,1444418063621,1444418064125,952,411,0,0,0,4,3,1,43,0005-00-0003-43.png,0003-00-0003-21.png
14,467,0,1444418064162,1444418064498,316,402,0,0,0,2,3,1,23,0002-00-0005-50.png,0003-00-0008-56.png
14,468,1,1444418064543,1444418064992,322,423,0,0,0,1,2,1,12,0004-00-0004-32.png,0002-00-0003-37.png
14,469,1,1444418065020,1444418065246,926,409,0,0,0,3,2,1,32,0003-00-0001-86.png,0002-00-0009-09.png
14,470,1,1444418065282,1444418065816,929,479,0,0,0,5,4,1,54,0001-00-0005-62.png,0005-00-0003-03.png
14,471,1,1444418065838,1444418066073,320,442,0,0,0,5,4,1,54,0001-00-0004-81.png,0005-00-0000-63.png
14,472,0,1444418066108,1444418066557,945,492,0,0,0,2,1,1,21,0002-00-0005-45.png,0004-00-0009-34.png
14,473,1,1444418066585,1444418067014,354,444,0,0,0,5,4,1,54,0001-00-0007-64.png,0005-00-0003-60.png
14,474,0,1444418067051,1444418067564,368,430,0,0,0,2,1,1,21,0002-00-0001-19.png,0004-00-0001-30.png
14,475,1,1444418067590,1444418067833,349,418,0,0,0,1,2,1,12,0004-00-0002-11.png,0002-00-0008-74.png
14,476,0,1444418067868,1444418068145,951,386,0,0,0,3,2,1,32,0003-00-0001-09.png,0002-00-0006-71.png
14,477,0,1444418068170,1444418068579,313,449,0,0,0,3,4,1,34,0003-00-0000-88.png,0005-00-0004-06.png
14,478,1,1444418068613,1444418069450,289,440,0,0,0,5,4,1,54,0001-00-0009-08.png,0005-00-0009-56.png
14,479,0,1444418069483,1444418070009,900,371,0,0,0,2,3,1,23,0002-00-0001-28.png,0003-00-0005-07.png
14,480,0,1444418070042,1444418070294,895,394,0,0,0,4,3,1,43,0005-00-0009-48.png,0003-00-0003-03.png
14,481,1,1444418070314,1444418070759,868,364,0,0,0,4,3,1,43,0005-00-0001-64.png,0003-00-0007-64.png
14,482,1,1444418070795,1444418072033,222,462,0,0,0,3,4,1,34,0003-00-0002-43.png,0005-00-0001-08.png
14,483,0,1444418072068,1444418072519,914,506,0,0,0,5,4,1,54,0001-00-0003-91.png,0005-00-0002-22.png
14,484,0,1444418072554,1444418072924,362,478,0,0,0,2,3,1,23,0002-00-0008-86.png,0003-00-0003-88.png
14,485,0,1444418072960,1444418073650,350,384,0,0,0,1,2,1,12,0004-00-0002-32.png,0002-00-0002-67.png
14,486,1,1444418073678,1444418074355,926,386,0,0,0,5,4,1,54,0001-00-0009-51.png,0005-00-0001-90.png
14,487,0,1444418074378,1444418074736,401,399,0,0,0,2,1,1,21,0002-00-0005-76.png,0004-00-0005-77.png
14,488,0,1444418074759,1444418075747,306,441,0,0,0,3,2,1,32,0003-00-0001-68.png,0002-00-0009-63.png
14,489,0,1444418075778,1444418076088,350,397,0,0,0,2,1,1,21,0002-00-0001-43.png,0004-00-0009-87.png
14,490,1,1444418076113,1444418076442,429,547,0,0,0,2,3,1,23,0002-00-0006-13.png,0003-00-0000-99.png
14,491,1,1444418076482,1444418077288,926,411,0,0,0,5,4,1,54,0001-00-0007-60.png,0005-00-0008-57.png
14,492,0,1444418077328,1444418077838,884,358,0,0,0,4,3,1,43,0005-00-0007-27.png,0003-00-0004-59.png
14,493,0,1444418077868,1444418078738,926,410,0,0,0,1,2,1,12,0004-00-0006-87.png,0002-00-0002-78.png
14,494,0,1444418078767,1444418079129,901,410,0,0,0,5,4,1,54,0001-00-0003-76.png,0005-00-0009-60.png
14,495,0,1444418079176,1444418079548,311,394,0,0,0,3,2,1,32,0003-00-0007-13.png,0002-00-0002-11.png
14,496,0,1444418079578,1444418080100,934,399,0,0,0,3,4,1,34,0003-00-0007-97.png,0005-00-0003-28.png
14,497,0,1444418080143,1444418080581,939,424,0,0,0,2,1,1,21,0002-00-0002-39.png,0004-00-0004-04.png
14,498,1,1444418080619,1444418081444,926,488,0,0,0,5,4,1,54,0001-00-0007-32.png,0005-00-0003-25.png
14,499,0,1444418081480,1444418082552,339,440,0,0,0,2,3,1,23,0002-00-0002-77.png,0003-00-0008-76.png
14,500,0,1444418082582,1444418082887,926,411,0,0,0,5,4,1,54,0001-00-0007-81.png,0005-00-0003-42.png
14,501,0,1444418082904,1444418084093,311,441,0,0,0,1,2,1,12,0004-00-0003-28.png,0002-00-0005-28.png
14,502,0,1444418084137,1444418084729,401,369,0,0,0,4,3,1,43,0005-00-0002-27.png,0003-00-0006-93.png
14,503,1,1444418084766,1444418085061,858,390,0,0,0,3,2,1,32,0003-00-0008-77.png,0002-00-0007-81.png
14,504,1,1444418085104,1444418085290,336,444,0,0,0,3,4,1,34,0003-00-0005-78.png,0005-00-0009-52.png
14,505,1,1444418085325,1444418086321,943,425,0,0,0,5,4,1,54,0001-00-0007-75.png,0005-00-0005-54.png
14,506,1,1444418086350,1444418087428,901,424,0,0,0,5,4,1,54,0001-00-0009-41.png,0005-00-0002-27.png
14,507,0,1444418087456,1444418088377,366,403,0,0,0,2,3,1,23,0002-00-0005-66.png,0003-00-0004-60.png
14,508,1,1444418088412,1444418089342,925,384,0,0,0,4,3,1,43,0005-00-0001-41.png,0003-00-0001-31.png
14,509,1,1444418089375,1444418089566,307,419,0,0,0,3,2,1,32,0003-00-0003-23.png,0002-00-0007-51.png
14,510,0,1444418089602,1444418090420,901,409,0,0,0,2,1,1,21,0002-00-0002-15.png,0004-00-0005-80.png
14,511,0,1444418090438,1444418090785,344,426,0,0,0,3,4,1,34,0003-00-0006-22.png,0005-00-0005-15.png
14,512,1,1444418090818,1444418091048,952,385,0,0,0,1,2,1,12,0004-00-0002-19.png,0002-00-0003-44.png
14,513,1,1444418091074,1444418091875,339,444,0,0,0,2,1,1,21,0002-00-0002-10.png,0004-00-0008-71.png
14,514,1,1444418091894,1444418092153,401,410,0,0,0,5,4,1,54,0001-00-0008-69.png,0005-00-0001-14.png
14,515,0,1444418092171,1444418092754,349,423,0,0,0,3,2,1,32,0003-00-0009-94.png,0002-00-0000-46.png
14,516,0,1444418092781,1444418093180,908,429,0,0,0,2,3,1,23,0002-00-0005-34.png,0003-00-0009-39.png
14,517,1,1444418093203,1444418093414,906,437,0,0,0,1,2,1,12,0004-00-0007-64.png,0002-00-0007-55.png
14,518,1,1444418093442,1444418093709,930,401,0,0,0,5,4,1,54,0001-00-0000-19.png,0005-00-0005-44.png
14,519,1,1444418093743,1444418094046,389,449,0,0,0,3,4,1,34,0003-00-0008-54.png,0005-00-0006-80.png
14,520,0,1444418094083,1444418094484,931,500,0,0,0,4,3,1,43,0005-00-0001-26.png,0003-00-0003-50.png
14,521,1,1444418094511,1444418095278,924,507,0,0,0,3,4,1,34,0003-00-0005-98.png,0005-00-0002-07.png
14,522,0,1444418095312,1444418095733,880,349,0,0,0,2,3,1,23,0002-00-0004-26.png,0003-00-0005-53.png
14,523,0,1444418095762,1444418096319,293,436,0,0,0,1,2,1,12,0004-00-0007-33.png,0002-00-0004-10.png
14,524,1,1444418096353,1444418096810,946,417,0,0,0,2,1,1,21,0002-00-0008-55.png,0004-00-0002-33.png
14,525,0,1444418096842,1444418097091,925,357,0,0,0,4,3,1,43,0005-00-0006-13.png,0003-00-0007-05.png
14,526,0,1444418097132,1444418097449,925,489,0,0,0,5,4,1,54,0001-00-0001-64.png,0005-00-0003-36.png
14,527,1,1444418097484,1444418098562,925,383,0,0,0,5,4,1,54,0001-00-0008-92.png,0005-00-0007-28.png
14,528,1,1444418098591,1444418099556,929,427,0,0,0,3,2,1,32,0003-00-0009-15.png,0002-00-0008-72.png
14,529,1,1444418099584,1444418100307,436,502,0,0,0,1,2,1,12,0004-00-0004-86.png,0002-00-0000-45.png
14,530,1,1444418100347,1444418100605,912,398,0,0,0,5,4,1,54,0001-00-0007-57.png,0005-00-0007-35.png
14,531,1,1444418100640,1444418100974,875,346,0,0,0,5,4,1,54,0001-00-0008-09.png,0005-00-0004-40.png
14,532,0,1444418101000,1444418101802,926,437,0,0,0,4,3,1,43,0005-00-0009-67.png,0003-00-0005-96.png
14,533,0,1444418101835,1444418102373,930,401,0,0,0,3,2,1,32,0003-00-0007-75.png,0002-00-0002-06.png
14,534,1,1444418102406,1444418103194,926,410,0,0,0,2,1,1,21,0002-00-0006-83.png,0004-00-0001-22.png
14,535,1,1444418103229,1444418104239,376,332,0,0,0,3,4,1,34,0003-00-0006-77.png,0005-00-0004-26.png
14,536,0,1444418104280,1444418104478,943,461,0,0,0,2,3,1,23,0002-00-0008-72.png,0003-00-0008-18.png
14,537,0,1444418104505,1444418105038,294,435,0,0,0,2,3,1,23,0002-00-0003-90.png,0003-00-0007-50.png
14,538,0,1444418105079,1444418105690,504,436,0,0,0,5,4,1,54,0001-00-0009-31.png,0005-00-0003-92.png
14,539,1,1444418105722,1444418105930,519,455,0,0,0,3,2,1,32,0003-00-0009-05.png,0002-00-0008-18.png
14,540,0,1444418105949,1444418106340,376,384,0,0,0,2,1,1,21,0002-00-0009-97.png,0004-00-0007-90.png
14,541,1,1444418106371,1444418106784,914,398,0,0,0,3,4,1,34,0003-00-0002-59.png,0005-00-0004-01.png
14,542,1,1444418106813,1444418107153,926,384,0,0,0,5,4,1,54,0001-00-0001-95.png,0005-00-0006-91.png
14,543,1,1444418107185,1444418107492,408,477,0,0,0,1,2,1,12,0004-00-0002-78.png,0002-00-0005-52.png
14,544,1,1444418107525,1444418108226,320,406,0,0,0,4,3,1,43,0005-00-0001-23.png,0003-00-0001-03.png
14,545,1,1444418108272,1444418108841,391,415,0,0,0,3,2,1,32,0003-00-0000-46.png,0002-00-0009-41.png
14,546,1,1444418108868,1444418109388,924,464,0,0,0,4,3,1,43,0005-00-0000-89.png,0003-00-0001-39.png
14,547,1,1444418109422,1444418109810,948,464,0,0,0,2,1,1,21,0002-00-0004-77.png,0004-00-0004-59.png
14,548,0,1444418109842,1444418110811,952,382,0,0,0,5,4,1,54,0001-00-0005-25.png,0005-00-0002-68.png
14,549,0,1444418110839,1444418111527,950,490,0,0,0,3,4,1,34,0003-00-0006-72.png,0005-00-0003-71.png
14,550,1,1444418111565,1444418111870,873,410,0,0,0,5,4,1,54,0001-00-0008-64.png,0005-00-0002-52.png
14,551,1,1444418111918,1444418112270,504,449,0,0,0,2,3,1,23,0002-00-0006-85.png,0003-00-0006-37.png
14,552,1,1444418112303,1444418113270,376,410,0,0,0,1,2,1,12,0004-00-0002-32.png,0002-00-0008-09.png
14,553,1,1444418113316,1444418113664,376,453,0,0,0,5,4,1,54,0001-00-0004-36.png,0005-00-0006-52.png
14,554,1,1444418113683,1444418114133,931,377,0,0,0,5,4,1,54,0001-00-0000-12.png,0005-00-0001-16.png
14,555,0,1444418114161,1444418114341,913,476,0,0,0,4,3,1,43,0005-00-0004-01.png,0003-00-0003-38.png
14,556,1,1444418114373,1444418114767,343,400,0,0,0,2,1,1,21,0002-00-0007-27.png,0004-00-0002-34.png
14,557,1,1444418114790,1444418115377,916,413,0,0,0,3,2,1,32,0003-00-0009-57.png,0002-00-0007-30.png
14,558,1,1444418115399,1444418115822,904,505,0,0,0,2,3,1,23,0002-00-0006-41.png,0003-00-0004-36.png
14,559,0,1444418115850,1444418116249,504,436,0,0,0,3,4,1,34,0003-00-0001-12.png,0005-00-0005-99.png
14,560,1,1444418116273,1444418116645,952,397,0,0,0,1,2,1,12,0004-00-0003-97.png,0002-00-0004-43.png
14,561,1,1444418116668,1444418117262,393,427,0,0,0,2,1,1,21,0002-00-0000-30.png,0004-00-0001-63.png
14,562,1,1444418117295,1444418117545,874,411,0,0,0,2,3,1,23,0002-00-0000-71.png,0003-00-0000-18.png
14,563,1,1444418117574,1444418117895,932,415,0,0,0,1,2,1,12,0004-00-0002-24.png,0002-00-0001-93.png
14,564,0,1444418117924,1444418118155,924,407,0,0,0,5,4,1,54,0001-00-0003-21.png,0005-00-0006-14.png
14,565,0,1444418118196,1444418119037,337,416,0,0,0,3,4,1,34,0003-00-0008-16.png,0005-00-0002-97.png
14,566,0,1444418119069,1444418119325,401,410,0,0,0,4,3,1,43,0005-00-0002-62.png,0003-00-0001-49.png
14,567,0,1444418119356,1444418119951,903,501,0,0,0,3,2,1,32,0003-00-0000-06.png,0002-00-0001-32.png
14,568,1,1444418119970,1444418120408,901,502,0,0,0,5,4,1,54,0001-00-0002-99.png,0005-00-0004-79.png
14,569,0,1444418120431,1444418120988,878,427,0,0,0,5,4,1,54,0001-00-0006-39.png,0005-00-0009-66.png
14,570,1,1444418121022,1444418121386,337,398,0,0,0,4,3,1,43,0005-00-0002-23.png,0003-00-0005-22.png
14,571,0,1444418121418,1444418121973,903,433,0,0,0,1,2,1,12,0004-00-0005-93.png,0002-00-0002-90.png
14,572,1,1444418122005,1444418122709,330,410,0,0,0,5,4,1,54,0001-00-0007-67.png,0005-00-0004-29.png
14,573,1,1444418122731,1444418123152,875,502,0,0,0,3,4,1,34,0003-00-0002-91.png,0005-00-0003-62.png
14,574,1,1444418123174,1444418124394,952,398,0,0,0,2,3,1,23,0002-00-0005-44.png,0003-00-0008-28.png
14,575,0,1444418124424,1444418124824,350,423,0,0,0,3,2,1,32,0003-00-0007-08.png,0002-00-0004-76.png
14,576,1,1444418124853,1444418125472,407,421,0,0,0,2,1,1,21,0002-00-0006-15.png,0004-00-0009-53.png
14,577,1,1444418125502,1444418125611,873,482,0,0,0,3,2,1,32,0003-00-0001-38.png,0002-00-0008-14.png
14,578,1,1444418125647,1444418126057,892,403,0,0,0,4,3,1,43,0005-00-0007-07.png,0003-00-0003-27.png
14,579,0,1444418126079,1444418126571,919,491,0,0,0,1,2,1,12,0004-00-0000-78.png,0002-00-0006-96.png
14,580,1,1444418126601,1444418126984,357,420,0,0,0,2,3,1,23,0002-00-0008-16.png,0003-00-0004-95.png
14,581,0,1444418127012,1444418127986,951,411,0,0,0,3,4,1,34,0003-00-0002-37.png,0005-00-0002-56.png
14,582,1,1444418128026,1444418128907,320,452,0,0,0,5,4,1,54,0001-00-0002-97.png,0005-00-0006-23.png
14,583,1,1444418128942,1444418129685,930,401,0,0,0,5,4,1,54,0001-00-0003-96.png,0005-00-0009-46.png
14,584,1,1444418129710,1444418130179,865,378,0,0,0,2,1,1,21,0002-00-0005-48.png,0004-00-0000-32.png
14,585,1,1444418130208,1444418131109,938,398,0,0,0,4,3,1,43,0005-00-0004-39.png,0003-00-0004-71.png
14,586,0,1444418131127,1444418131561,954,415,0,0,0,2,1,1,21,0002-00-0008-21.png,0004-00-0000-48.png
14,587,1,1444418131583,1444418132029,336,424,0,0,0,5,4,1,54,0001-00-0000-44.png,0005-00-0002-99.png
14,588,0,1444418132048,1444418132387,911,477,0,0,0,2,3,1,23,0002-00-0002-39.png,0003-00-0002-30.png
14,589,0,1444418132426,1444418133187,927,461,0,0,0,3,4,1,34,0003-00-0002-12.png,0005-00-0002-42.png
14,590,1,1444418133213,1444418133523,237,388,0,0,0,3,2,1,32,0003-00-0006-92.png,0002-00-0000-06.png
14,591,1,1444418133553,1444418133850,957,399,0,0,0,5,4,1,54,0001-00-0004-41.png,0005-00-0005-04.png
14,592,1,1444418133882,1444418134287,1003,512,0,0,0,1,2,1,12,0004-00-0007-19.png,0002-00-0006-72.png
14,593,1,1444418134320,1444418135099,400,446,0,0,0,5,4,1,54,0001-00-0002-46.png,0005-00-0008-89.png
14,594,0,1444418135132,1444418135533,950,482,0,0,0,1,2,1,12,0004-00-0005-80.png,0002-00-0000-55.png
14,595,0,1444418135555,1444418136153,913,345,0,0,0,3,2,1,32,0003-00-0006-75.png,0002-00-0005-86.png
14,596,0,1444418136199,1444418136593,903,441,0,0,0,4,3,1,43,0005-00-0006-35.png,0003-00-0006-14.png
14,597,0,1444418136615,1444418137148,946,366,0,0,0,2,3,1,23,0002-00-0004-67.png,0003-00-0006-46.png
14,598,0,1444418137171,1444418137559,311,410,0,0,0,3,4,1,34,0003-00-0009-57.png,0005-00-0007-52.png
14,599,0,1444418137591,1444418137918,426,538,0,0,0,2,1,1,21,0002-00-0001-03.png,0004-00-0004-69.png
14,600,0,1444418137946,1444418138325,926,463,0,0,0,5,4,1,54,0001-00-0001-22.png,0005-00-0004-33.png
14,601,1,1444418138351,1444418138494,882,471,0,0,0,1,2,1,12,0004-00-0006-71.png,0002-00-0000-67.png
14,602,1,1444418138528,1444418139237,899,384,0,0,0,3,4,1,34,0003-00-0000-19.png,0005-00-0004-52.png
14,603,1,1444418139278,1444418139622,963,527,0,0,0,5,4,1,54,0001-00-0004-20.png,0005-00-0009-88.png
14,604,1,1444418139659,1444418139973,316,411,0,0,0,2,3,1,23,0002-00-0002-37.png,0003-00-0002-99.png
14,605,0,1444418140010,1444418140552,260,474,0,0,0,3,2,1,32,0003-00-0006-57.png,0002-00-0002-17.png
14,606,1,1444418140590,1444418141188,913,449,0,0,0,4,3,1,43,0005-00-0007-96.png,0003-00-0006-57.png
14,607,1,1444418141211,1444418142078,911,438,0,0,0,5,4,1,54,0001-00-0003-16.png,0005-00-0003-78.png
14,608,1,1444418142118,1444418142628,331,405,0,0,0,2,1,1,21,0002-00-0002-87.png,0004-00-0004-55.png
14,609,1,1444418142674,1444418143097,478,488,0,0,0,1,2,1,12,0004-00-0005-69.png,0002-00-0001-20.png
14,610,0,1444418143130,1444418144202,389,443,0,0,0,5,4,1,54,0001-00-0006-33.png,0005-00-0001-40.png
14,611,0,1444418144218,1444418144511,878,345,0,0,0,3,2,1,32,0003-00-0002-92.png,0002-00-0008-94.png
14,612,1,1444418144536,1444418145106,877,470,0,0,0,2,3,1,23,0002-00-0007-76.png,0003-00-0005-96.png
14,613,1,1444418145133,1444418145572,325,501,0,0,0,3,4,1,34,0003-00-0008-80.png,0005-00-0001-53.png
14,614,0,1444418145615,1444418145853,912,429,0,0,0,5,4,1,54,0001-00-0006-22.png,0005-00-0001-14.png
14,615,1,1444418145881,1444418146348,391,444,0,0,0,2,1,1,21,0002-00-0007-18.png,0004-00-0006-13.png
14,616,1,1444418146378,1444418146803,416,481,0,0,0,4,3,1,43,0005-00-0008-06.png,0003-00-0007-28.png
14,617,1,1444418146834,1444418147096,925,398,0,0,0,2,1,1,21,0002-00-0008-45.png,0004-00-0002-11.png
14,618,0,1444418147122,1444418148448,962,557,0,0,0,5,4,1,54,0001-00-0004-04.png,0005-00-0006-39.png
14,619,0,1444418148480,1444418148866,958,408,0,0,0,4,3,1,43,0005-00-0000-92.png,0003-00-0004-59.png
14,620,1,1444418148887,1444418149053,939,398,0,0,0,1,2,1,12,0004-00-0001-88.png,0002-00-0009-73.png
14,621,0,1444418149072,1444418149742,329,398,0,0,0,2,3,1,23,0002-00-0007-46.png,0003-00-0000-77.png
14,622,0,1444418149767,1444418150995,412,506,0,0,0,5,4,1,54,0001-00-0006-25.png,0005-00-0008-79.png
14,623,1,1444418151020,1444418151614,947,443,0,0,0,3,2,1,32,0003-00-0000-02.png,0002-00-0009-62.png
14,624,1,1444418151643,1444418151958,406,442,0,0,0,3,4,1,34,0003-00-0007-11.png,0005-00-0001-69.png
14,625,1,1444418151990,1444418152545,920,423,0,0,0,3,4,1,34,0003-00-0003-05.png,0005-00-0000-22.png
14,626,1,1444418152573,1444418152884,416,523,0,0,0,4,3,1,43,0005-00-0008-24.png,0003-00-0006-55.png
14,627,0,1444418152911,1444418153070,878,479,0,0,0,2,1,1,21,0002-00-0009-13.png,0004-00-0003-27.png
14,628,1,1444418153101,1444418153380,381,424,0,0,0,2,3,1,23,0002-00-0003-22.png,0003-00-0008-71.png
14,629,1,1444418153404,1444418153764,434,492,0,0,0,1,2,1,12,0004-00-0002-58.png,0002-00-0004-39.png
14,630,0,1444418153792,1444418154230,381,432,0,0,0,3,2,1,32,0003-00-0001-28.png,0002-00-0007-80.png
14,631,0,1444418154265,1444418155696,403,539,0,0,0,5,4,1,54,0001-00-0003-36.png,0005-00-0002-74.png
14,632,0,1444418155728,1444418156132,974,484,0,0,0,5,4,1,54,0001-00-0008-07.png,0005-00-0000-68.png
14,633,0,1444418156163,1444418156904,930,402,0,0,0,1,2,1,12,0004-00-0004-93.png,0002-00-0005-24.png
14,634,1,1444418156923,1444418157296,340,414,0,0,0,2,3,1,23,0002-00-0005-67.png,0003-00-0007-03.png
14,635,0,1444418157331,1444418157636,291,395,0,0,0,2,1,1,21,0002-00-0003-57.png,0004-00-0003-88.png
14,636,1,1444418157676,1444418157845,862,384,0,0,0,3,2,1,32,0003-00-0007-81.png,0002-00-0003-67.png
14,637,0,1444418157878,1444418158909,463,513,0,0,0,5,4,1,54,0001-00-0002-60.png,0005-00-0009-84.png
14,638,1,1444418158937,1444418159193,401,358,0,0,0,5,4,1,54,0001-00-0000-12.png,0005-00-0009-45.png
14,639,0,1444418159228,1444418159780,927,517,0,0,0,3,4,1,34,0003-00-0002-88.png,0005-00-0000-18.png
14,640,0,1444418159806,1444418160442,937,503,0,0,0,4,3,1,43,0005-00-0008-22.png,0003-00-0008-14.png
14,641,1,1444418160477,1444418160773,925,387,0,0,0,3,2,1,32,0003-00-0008-94.png,0002-00-0005-38.png
14,642,0,1444418160803,1444418162116,360,399,0,0,0,5,4,1,54,0001-00-0008-83.png,0005-00-0007-32.png
14,643,0,1444418162159,1444418162684,909,470,0,0,0,2,1,1,21,0002-00-0004-41.png,0004-00-0009-21.png
14,644,0,1444418162708,1444418163618,379,456,0,0,0,5,4,1,54,0001-00-0008-62.png,0005-00-0002-57.png
14,645,1,1444418163647,1444418164178,340,390,0,0,0,3,4,1,34,0003-00-0006-28.png,0005-00-0003-99.png
14,646,1,1444418164208,1444418164496,435,446,0,0,0,1,2,1,12,0004-00-0004-64.png,0002-00-0006-87.png
14,647,0,1444418164516,1444418164943,867,507,0,0,0,4,3,1,43,0005-00-0006-91.png,0003-00-0001-80.png
14,648,1,1444418164978,1444418165938,432,510,0,0,0,2,3,1,23,0002-00-0007-99.png,0003-00-0009-52.png
14,649,1,1444418165958,1444418166518,952,397,0,0,0,1,2,1,12,0004-00-0004-85.png,0002-00-0003-96.png
14,650,0,1444418166547,1444418167395,367,431,0,0,0,5,4,1,54,0001-00-0002-41.png,0005-00-0003-38.png
14,651,1,1444418167424,1444418167766,313,423,0,0,0,2,3,1,23,0002-00-0001-41.png,0003-00-0000-01.png
14,652,1,1444418167809,1444418168162,329,434,0,0,0,4,3,1,43,0005-00-0004-60.png,0003-00-0005-00.png
14,653,1,1444418168235,1444418168574,397,412,0,0,0,3,4,1,34,0003-00-0009-62.png,0005-00-0001-33.png
14,654,0,1444418168616,1444418169139,967,443,0,0,0,3,2,1,32,0003-00-0000-62.png,0002-00-0002-43.png
14,655,0,1444418169167,1444418169684,913,474,0,0,0,2,1,1,21,0002-00-0005-85.png,0004-00-0001-25.png
14,656,0,1444418169717,1444418170407,354,376,0,0,0,5,4,1,54,0001-00-0009-19.png,0005-00-0009-11.png
14,657,0,1444418170438,1444418171325,408,436,0,0,0,3,2,1,32,0003-00-0002-20.png,0002-00-0001-45.png
14,658,1,1444418171354,1444418172272,907,491,0,0,0,2,1,1,21,0002-00-0008-89.png,0004-00-0001-86.png
14,659,1,1444418172322,1444418173034,942,403,0,0,0,5,4,1,54,0001-00-0001-23.png,0005-00-0001-21.png
14,660,0,1444418173056,1444418173391,386,414,0,0,0,4,3,1,43,0005-00-0001-00.png,0003-00-0002-47.png
14,661,1,1444418173413,1444418173905,324,409,0,0,0,3,4,1,34,0003-00-0004-61.png,0005-00-0001-60.png
14,662,1,1444418173935,1444418174226,938,398,0,0,0,2,3,1,23,0002-00-0003-89.png,0003-00-0004-91.png
14,663,1,1444418174247,1444418174739,401,410,0,0,0,5,4,1,54,0001-00-0005-49.png,0005-00-0006-37.png
14,664,0,1444418174767,1444418175346,877,452,0,0,0,1,2,1,12,0004-00-0007-19.png,0002-00-0008-68.png
14,665,1,1444418175368,1444418176206,367,485,0,0,0,2,1,1,21,0002-00-0008-90.png,0004-00-0009-22.png
14,666,0,1444418176243,1444418176948,387,454,0,0,0,3,4,1,34,0003-00-0000-12.png,0005-00-0009-94.png
14,667,1,1444418176979,1444418177184,957,380,0,0,0,1,2,1,12,0004-00-0003-31.png,0002-00-0004-47.png
14,668,1,1444418177218,1444418177891,377,398,0,0,0,2,3,1,23,0002-00-0002-90.png,0003-00-0001-52.png
14,669,0,1444418177920,1444418178229,320,415,0,0,0,5,4,1,54,0001-00-0002-83.png,0005-00-0008-90.png
14,670,1,1444418178268,1444418178984,857,380,0,0,0,5,4,1,54,0001-00-0001-69.png,0005-00-0007-39.png
14,671,1,1444418179002,1444418179140,335,411,0,0,0,3,2,1,32,0003-00-0002-79.png,0002-00-0002-55.png
14,672,1,1444418179169,1444418180323,914,411,0,0,0,4,3,1,43,0005-00-0004-09.png,0003-00-0000-96.png
14,673,1,1444418180379,1444418180973,389,430,0,0,0,3,2,1,32,0003-00-0002-79.png,0002-00-0005-36.png
14,674,1,1444418181008,1444418181599,902,399,0,0,0,5,4,1,54,0001-00-0001-51.png,0005-00-0002-87.png
14,675,0,1444418181634,1444418181814,334,405,0,0,0,4,3,1,43,0005-00-0006-11.png,0003-00-0009-06.png
14,676,1,1444418181850,1444418182347,858,331,0,0,0,1,2,1,12,0004-00-0005-73.png,0002-00-0000-95.png
14,677,1,1444418182365,1444418183072,903,526,0,0,0,2,3,1,23,0002-00-0007-75.png,0003-00-0002-31.png
14,678,0,1444418183106,1444418183387,358,419,0,0,0,2,1,1,21,0002-00-0005-82.png,0004-00-0001-97.png
14,679,1,1444418183407,1444418183740,299,396,0,0,0,5,4,1,54,0001-00-0002-45.png,0005-00-0001-80.png
14,680,1,1444418183763,1444418184272,901,548,0,0,0,3,4,1,34,0003-00-0001-98.png,0005-00-0008-92.png
14,681,1,1444418184309,1444418184984,926,385,0,0,0,4,3,1,43,0005-00-0004-47.png,0003-00-0004-92.png
14,682,0,1444418185015,1444418185431,900,410,0,0,0,5,4,1,54,0001-00-0005-63.png,0005-00-0005-88.png
14,683,1,1444418185478,1444418185814,905,427,0,0,0,2,1,1,21,0002-00-0000-31.png,0004-00-0009-98.png
14,684,1,1444418185847,1444418186073,894,408,0,0,0,1,2,1,12,0004-00-0000-22.png,0002-00-0007-26.png
14,685,1,1444418186100,1444418186821,317,453,0,0,0,5,4,1,54,0001-00-0004-93.png,0005-00-0009-67.png
14,686,0,1444418186847,1444418187170,386,424,0,0,0,2,3,1,23,0002-00-0005-73.png,0003-00-0002-96.png
14,687,1,1444418187191,1444418187765,370,415,0,0,0,3,4,1,34,0003-00-0009-30.png,0005-00-0000-92.png
14,688,0,1444418187795,1444418188232,357,425,0,0,0,3,2,1,32,0003-00-0004-25.png,0002-00-0001-62.png
14,689,0,1444418188260,1444418189024,376,370,0,0,0,5,4,1,54,0001-00-0001-78.png,0005-00-0008-80.png
14,690,1,1444418189055,1444418189970,948,393,0,0,0,2,3,1,23,0002-00-0003-96.png,0003-00-0008-86.png
14,691,1,1444418190007,1444418190913,925,319,0,0,0,3,4,1,34,0003-00-0000-89.png,0005-00-0009-71.png
14,692,0,1444418190936,1444418191585,346,374,0,0,0,4,3,1,43,0005-00-0002-39.png,0003-00-0002-77.png
14,693,0,1444418191620,1444418191965,932,497,0,0,0,3,2,1,32,0003-00-0004-16.png,0002-00-0000-71.png
14,694,0,1444418191992,1444418193008,874,345,0,0,0,5,4,1,54,0001-00-0007-61.png,0005-00-0002-15.png
14,695,1,1444418193031,1444418193536,904,453,0,0,0,1,2,1,12,0004-00-0004-88.png,0002-00-0004-95.png
14,696,0,1444418193568,1444418193955,273,475,0,0,0,2,1,1,21,0002-00-0009-14.png,0004-00-0000-68.png
14,697,1,1444418193995,1444418194264,913,450,0,0,0,3,4,1,34,0003-00-0003-02.png,0005-00-0001-04.png
14,698,1,1444418194291,1444418195028,900,424,0,0,0,5,4,1,54,0001-00-0008-78.png,0005-00-0005-34.png
14,699,1,1444418195065,1444418195591,896,508,0,0,0,4,3,1,43,0005-00-0001-16.png,0003-00-0007-85.png
14,700,1,1444418195628,1444418196198,931,516,0,0,0,2,1,1,21,0002-00-0006-76.png,0004-00-0001-63.png
14,701,1,1444418196228,1444418196474,359,398,0,0,0,2,3,1,23,0002-00-0002-65.png,0003-00-0002-00.png
14,702,0,1444418196504,1444418196998,366,446,0,0,0,5,4,1,54,0001-00-0007-21.png,0005-00-0009-55.png
14,703,1,1444418197025,1444418197760,425,549,0,0,0,1,2,1,12,0004-00-0007-08.png,0002-00-0007-47.png
14,704,1,1444418197792,1444418198372,376,445,0,0,0,3,2,1,32,0003-00-0003-56.png,0002-00-0003-00.png
14,705,0,1444418198396,1444418199142,278,336,0,0,0,2,1,1,21,0002-00-0008-80.png,0004-00-0002-86.png
14,706,0,1444418199171,1444418199982,913,358,0,0,0,3,4,1,34,0003-00-0009-48.png,0005-00-0002-76.png
14,707,1,1444418200009,1444418200637,357,441,0,0,0,2,3,1,23,0002-00-0007-63.png,0003-00-0007-25.png
14,708,1,1444418200652,1444418200879,950,360,0,0,0,5,4,1,54,0001-00-0005-29.png,0005-00-0002-60.png
14,709,0,1444418200904,1444418201045,396,487,0,0,0,3,2,1,32,0003-00-0007-26.png,0002-00-0006-46.png
14,710,0,1444418201075,1444418201604,902,476,0,0,0,1,2,1,12,0004-00-0005-74.png,0002-00-0002-25.png
14,711,0,1444418201631,1444418201944,933,401,0,0,0,5,4,1,54,0001-00-0008-85.png,0005-00-0002-82.png
14,712,1,1444418201977,1444418202840,361,444,0,0,0,4,3,1,43,0005-00-0001-41.png,0003-00-0000-37.png
14,713,0,1444418202872,1444418203193,375,429,0,0,0,3,2,1,32,0003-00-0007-51.png,0002-00-0001-02.png
14,714,0,1444418203241,1444418203540,902,453,0,0,0,3,4,1,34,0003-00-0005-84.png,0005-00-0007-18.png
14,715,0,1444418203569,1444418203842,350,407,0,0,0,4,3,1,43,0005-00-0006-51.png,0003-00-0000-65.png
14,716,1,1444418203860,1444418204228,913,480,0,0,0,1,2,1,12,0004-00-0007-62.png,0002-00-0007-00.png
14,717,0,1444418204287,1444418204669,309,400,0,0,0,2,3,1,23,0002-00-0005-20.png,0003-00-0004-24.png
14,718,1,1444418204700,1444418205196,890,509,0,0,0,2,1,1,21,0002-00-0000-69.png,0004-00-0003-40.png
14,719,0,1444418205216,1444418205479,901,414,0,0,0,5,4,1,54,0001-00-0000-47.png,0005-00-0007-01.png
14,720,1,1444418205506,1444418206568,376,410,0,0,0,5,4,1,54,0001-00-0003-52.png,0005-00-0003-73.png
14,721,0,1444418206602,1444418206866,345,426,0,0,0,2,1,1,21,0002-00-0003-70.png,0004-00-0001-85.png
14,722,1,1444418206885,1444418207213,314,445,0,0,0,5,4,1,54,0001-00-0008-73.png,0005-00-0000-55.png
14,723,0,1444418207236,1444418207836,388,471,0,0,0,3,2,1,32,0003-00-0005-49.png,0002-00-0007-64.png
14,724,0,1444418207864,1444418208326,338,420,0,0,0,4,3,1,43,0005-00-0002-12.png,0003-00-0005-30.png
14,725,0,1444418208360,1444418209081,927,409,0,0,0,5,4,1,54,0001-00-0005-40.png,0005-00-0004-89.png
14,726,0,1444418209130,1444418209590,900,398,0,0,0,1,2,1,12,0004-00-0008-46.png,0002-00-0007-54.png
14,727,1,1444418209618,1444418210099,314,397,0,0,0,3,4,1,34,0003-00-0004-40.png,0005-00-0003-83.png
14,728,1,1444418210131,1444418210848,908,422,0,0,0,2,3,1,23,0002-00-0004-26.png,0003-00-0002-27.png
14,729,1,1444418210884,1444418211470,368,415,0,0,0,4,3,1,43,0005-00-0006-93.png,0003-00-0001-25.png
14,730,0,1444418211498,1444418211706,926,423,0,0,0,2,3,1,23,0002-00-0009-13.png,0003-00-0004-22.png
14,731,0,1444418211731,1444418212353,901,476,0,0,0,5,4,1,54,0001-00-0009-97.png,0005-00-0005-11.png
14,732,1,1444418212373,1444418212536,362,429,0,0,0,5,4,1,54,0001-00-0009-58.png,0005-00-0005-12.png
14,733,0,1444418212563,1444418212803,959,488,0,0,0,2,1,1,21,0002-00-0002-40.png,0004-00-0009-37.png
14,734,0,1444418212840,1444418213158,425,539,0,0,0,1,2,1,12,0004-00-0009-10.png,0002-00-0002-14.png
14,735,1,1444418213183,1444418213990,916,483,0,0,0,3,4,1,34,0003-00-0001-00.png,0005-00-0002-19.png
14,736,0,1444418214016,1444418215332,441,476,0,0,0,3,2,1,32,0003-00-0000-11.png,0002-00-0002-79.png
14,737,1,1444418215363,1444418216151,370,415,0,0,0,5,4,1,54,0001-00-0002-23.png,0005-00-0001-84.png
14,738,0,1444418216169,1444418216593,366,448,0,0,0,2,3,1,23,0002-00-0006-15.png,0003-00-0003-30.png
14,739,1,1444418216615,1444418217102,401,397,0,0,0,3,4,1,34,0003-00-0008-50.png,0005-00-0006-68.png
14,740,1,1444418217140,1444418217736,978,331,0,0,0,2,1,1,21,0002-00-0003-19.png,0004-00-0000-52.png
14,741,1,1444418217756,1444418218121,362,437,0,0,0,5,4,1,54,0001-00-0002-26.png,0005-00-0003-87.png
14,742,0,1444418218153,1444418218362,360,423,0,0,0,1,2,1,12,0004-00-0003-58.png,0002-00-0009-54.png
14,743,0,1444418218388,1444418218954,934,487,0,0,0,4,3,1,43,0005-00-0008-98.png,0003-00-0001-69.png
14,744,1,1444418218985,1444418219337,412,488,0,0,0,3,2,1,32,0003-00-0005-12.png,0002-00-0009-82.png
14,745,1,1444418219362,1444418221146,325,449,0,0,0,4,3,1,43,0005-00-0001-16.png,0003-00-0004-78.png
14,746,0,1444418221184,1444418222018,345,426,0,0,0,2,3,1,23,0002-00-0007-43.png,0003-00-0009-71.png
14,747,1,1444418222047,1444418222652,900,476,0,0,0,1,2,1,12,0004-00-0004-62.png,0002-00-0006-51.png
14,748,0,1444418222679,1444418223253,926,413,0,0,0,2,1,1,21,0002-00-0003-65.png,0004-00-0002-29.png
14,749,0,1444418223273,1444418224136,349,423,0,0,0,3,4,1,34,0003-00-0009-61.png,0005-00-0007-92.png
14,750,1,1444418224159,1444418225930,915,421,0,0,0,5,4,1,54,0001-00-0009-45.png,0005-00-0000-96.png
14,751,1,1444418225978,1444418226481,415,502,0,0,0,3,2,1,32,0003-00-0006-68.png,0002-00-0008-23.png
14,752,1,1444418226499,1444418226744,952,397,0,0,0,5,4,1,54,0001-00-0005-35.png,0005-00-0000-83.png
14,753,0,1444418226761,1444418227662,918,493,0,0,0,1,2,1,12,0004-00-0004-94.png,0002-00-0002-91.png
14,754,0,1444418227700,1444418228047,927,384,0,0,0,4,3,1,43,0005-00-0003-44.png,0003-00-0002-09.png
14,755,1,1444418228075,1444418228543,364,430,0,0,0,3,4,1,34,0003-00-0004-32.png,0005-00-0000-06.png
14,756,0,1444418228572,1444418229183,387,423,0,0,0,2,1,1,21,0002-00-0006-64.png,0004-00-0004-95.png
14,757,0,1444418229226,1444418229740,427,410,0,0,0,5,4,1,54,0001-00-0006-06.png,0005-00-0007-63.png
14,758,1,1444418229764,1444418230084,926,429,0,0,0,3,2,1,32,0003-00-0001-27.png,0002-00-0001-76.png
14,759,0,1444418230119,1444418230439,399,441,0,0,0,5,4,1,54,0001-00-0002-29.png,0005-00-0008-67.png
14,760,0,1444418230461,1444418230753,913,475,0,0,0,2,3,1,23,0002-00-0002-42.png,0003-00-0002-46.png
14,761,0,1444418230782,1444418230987,375,397,0,0,0,3,2,1,32,0003-00-0000-28.png,0002-00-0009-41.png
14,762,0,1444418231021,1444418232069,350,399,0,0,0,2,3,1,23,0002-00-0007-88.png,0003-00-0002-52.png
14,763,0,1444418232095,1444418232522,874,344,0,0,0,5,4,1,54,0001-00-0007-89.png,0005-00-0000-28.png
14,764,0,1444418232553,1444418233371,350,396,0,0,0,5,4,1,54,0001-00-0007-26.png,0005-00-0007-70.png
14,765,0,1444418233402,1444418233764,329,424,0,0,0,1,2,1,12,0004-00-0007-36.png,0002-00-0008-84.png
14,766,1,1444418233802,1444418234545,295,402,0,0,0,3,4,1,34,0003-00-0000-85.png,0005-00-0002-22.png
14,767,1,1444418234586,1444418234890,906,440,0,0,0,2,1,1,21,0002-00-0002-71.png,0004-00-0005-82.png
14,768,0,1444418234912,1444418236091,320,392,0,0,0,4,3,1,43,0005-00-0001-11.png,0003-00-0004-70.png
14,769,1,1444418236118,1444418236573,902,493,0,0,0,5,4,1,54,0001-00-0007-81.png,0005-00-0009-96.png
14,770,0,1444418236608,1444418237251,925,500,0,0,0,2,1,1,21,0002-00-0004-78.png,0004-00-0004-86.png
14,771,1,1444418237280,1444418237697,900,345,0,0,0,1,2,1,12,0004-00-0001-68.png,0002-00-0009-04.png
14,772,1,1444418237719,1444418238310,951,383,0,0,0,3,4,1,34,0003-00-0004-00.png,0005-00-0005-58.png
14,773,1,1444418238330,1444418238982,401,503,0,0,0,2,3,1,23,0002-00-0003-96.png,0003-00-0006-19.png
14,774,0,1444418239003,1444418239422,324,429,0,0,0,4,3,1,43,0005-00-0001-04.png,0003-00-0003-73.png
14,775,1,1444418239451,1444418239890,875,344,0,0,0,3,2,1,32,0003-00-0006-13.png,0002-00-0004-50.png
14,776,1,1444418239921,1444418240686,930,375,0,0,0,5,4,1,54,0001-00-0005-90.png,0005-00-0001-63.png
14,777,0,1444418240710,1444418241032,907,396,0,0,0,5,4,1,54,0001-00-0009-66.png,0005-00-0002-94.png
14,778,0,1444418241070,1444418241366,350,358,0,0,0,3,2,1,32,0003-00-0003-37.png,0002-00-0002-28.png
14,779,0,1444418241413,1444418241679,924,401,0,0,0,2,3,1,23,0002-00-0009-34.png,0003-00-0007-25.png
14,780,1,1444418241698,1444418242227,338,450,0,0,0,2,1,1,21,0002-00-0009-64.png,0004-00-0007-15.png
14,781,0,1444418242255,1444418242922,406,440,0,0,0,1,2,1,12,0004-00-0004-36.png,0002-00-0009-28.png
14,782,1,1444418242950,1444418243317,433,556,0,0,0,3,4,1,34,0003-00-0009-78.png,0005-00-0008-36.png
14,783,0,1444418243342,1444418243585,927,476,0,0,0,5,4,1,54,0001-00-0006-13.png,0005-00-0002-98.png
14,784,1,1444418243613,1444418244083,376,423,0,0,0,4,3,1,43,0005-00-0008-57.png,0003-00-0009-94.png
14,785,1,1444418244115,1444418244598,339,453,0,0,0,2,3,1,23,0002-00-0007-83.png,0003-00-0005-10.png
14,786,0,1444418244637,1444418245185,927,391,0,0,0,4,3,1,43,0005-00-0005-30.png,0003-00-0003-24.png
14,787,1,1444418245222,1444418245585,910,486,0,0,0,3,2,1,32,0003-00-0005-65.png,0002-00-0008-27.png
14,788,1,1444418245616,1444418245830,399,452,0,0,0,3,4,1,34,0003-00-0003-75.png,0005-00-0005-63.png
14,789,1,1444418245869,1444418246335,401,458,0,0,0,2,1,1,21,0002-00-0007-14.png,0004-00-0000-46.png
14,790,0,1444418246375,1444418246721,900,483,0,0,0,1,2,1,12,0004-00-0007-03.png,0002-00-0008-13.png
14,791,1,1444418246753,1444418247162,333,445,0,0,0,5,4,1,54,0001-00-0007-01.png,0005-00-0002-93.png
14,792,0,1444418247198,1444418247764,303,534,0,0,0,5,4,1,54,0001-00-0002-10.png,0005-00-0007-35.png
14,793,1,1444418247791,1444418248159,954,387,0,0,0,3,4,1,34,0003-00-0000-67.png,0005-00-0006-25.png
14,794,1,1444418248182,1444418248387,942,419,0,0,0,2,3,1,23,0002-00-0000-58.png,0003-00-0005-25.png
14,795,0,1444418248419,1444418248940,301,401,0,0,0,4,3,1,43,0005-00-0003-50.png,0003-00-0005-79.png
14,796,1,1444418248972,1444418249261,926,411,0,0,0,3,2,1,32,0003-00-0009-99.png,0002-00-0005-13.png
14,797,1,1444418249287,1444418249623,433,497,0,0,0,1,2,1,12,0004-00-0003-54.png,0002-00-0004-24.png
14,798,0,1444418249672,1444418250830,927,450,0,0,0,5,4,1,54,0001-00-0006-43.png,0005-00-0004-37.png
14,799,1,1444418250851,1444418251210,299,397,0,0,0,5,4,1,54,0001-00-0006-87.png,0005-00-0008-68.png
14,800,0,1444418251235,1444418252187,376,423,0,0,0,2,1,1,21,0002-00-0007-93.png,0004-00-0009-66.png
14,801,1,1444418252221,1444418252806,401,525,0,0,0,3,2,1,32,0003-00-0008-01.png,0002-00-0009-84.png
14,802,0,1444418252826,1444418253724,933,395,0,0,0,4,3,1,43,0005-00-0000-41.png,0003-00-0007-61.png
14,803,1,1444418253753,1444418254201,930,401,0,0,0,2,1,1,21,0002-00-0009-07.png,0004-00-0003-96.png
14,804,1,1444418254232,1444418255653,863,392,0,0,0,5,4,1,54,0001-00-0009-41.png,0005-00-0001-15.png
14,805,0,1444418255679,1444418256175,401,488,0,0,0,2,3,1,23,0002-00-0008-43.png,0003-00-0004-21.png
14,806,1,1444418256201,1444418256543,924,541,0,0,0,5,4,1,54,0001-00-0001-35.png,0005-00-0006-77.png
14,807,1,1444418256572,1444418256999,299,398,0,0,0,3,4,1,34,0003-00-0002-29.png,0005-00-0001-88.png
14,808,1,1444418257027,1444418257954,376,401,0,0,0,1,2,1,12,0004-00-0001-31.png,0002-00-0009-81.png
14,809,1,1444418257989,1444418258415,926,410,0,0,0,2,3,1,23,0002-00-0006-68.png,0003-00-0009-76.png
14,810,1,1444418258443,1444418258822,418,558,0,0,0,3,4,1,34,0003-00-0007-18.png,0005-00-0004-90.png
14,811,0,1444418258854,1444418259961,325,423,0,0,0,3,2,1,32,0003-00-0007-17.png,0002-00-0008-22.png
14,812,0,1444418259995,1444418260543,388,425,0,0,0,4,3,1,43,0005-00-0007-70.png,0003-00-0009-71.png
14,813,1,1444418260572,1444418260943,954,413,0,0,0,5,4,1,54,0001-00-0003-78.png,0005-00-0003-75.png
14,814,0,1444418260974,1444418261765,925,387,0,0,0,5,4,1,54,0001-00-0005-20.png,0005-00-0005-45.png
14,815,0,1444418261797,1444418262284,325,449,0,0,0,1,2,1,12,0004-00-0003-68.png,0002-00-0009-25.png
14,816,1,1444418262311,1444418262664,266,511,0,0,0,2,1,1,21,0002-00-0006-49.png,0004-00-0004-29.png
14,817,1,1444418262702,1444418262988,918,482,0,0,0,3,2,1,32,0003-00-0000-21.png,0002-00-0004-48.png
14,818,1,1444418263017,1444418263439,418,454,0,0,0,5,4,1,54,0001-00-0008-72.png,0005-00-0003-50.png
14,819,1,1444418263469,1444418263958,901,476,0,0,0,2,1,1,21,0002-00-0004-15.png,0004-00-0002-83.png
14,820,1,1444418263990,1444418264690,926,422,0,0,0,5,4,1,54,0001-00-0005-35.png,0005-00-0008-60.png
14,821,1,1444418264731,1444418265036,336,411,0,0,0,3,4,1,34,0003-00-0003-87.png,0005-00-0007-17.png
14,822,0,1444418265054,1444418265641,900,424,0,0,0,1,2,1,12,0004-00-0008-52.png,0002-00-0003-52.png
14,823,1,1444418265677,1444418266450,398,538,0,0,0,4,3,1,43,0005-00-0001-55.png,0003-00-0004-56.png
14,824,1,1444418266469,1444418266792,904,402,0,0,0,2,3,1,23,0002-00-0006-62.png,0003-00-0007-91.png
14,825,0,1444418266828,1444418267113,368,440,0,0,0,3,4,1,34,0003-00-0008-81.png,0005-00-0003-22.png
14,826,0,1444418267141,1444418267461,887,481,0,0,0,5,4,1,54,0001-00-0004-33.png,0005-00-0007-29.png
14,827,0,1444418267493,1444418268420,318,442,0,0,0,3,2,1,32,0003-00-0005-54.png,0002-00-0001-00.png
14,828,1,1444418268449,1444418268691,340,437,0,0,0,1,2,1,12,0004-00-0003-46.png,0002-00-0000-62.png
14,829,0,1444418268719,1444418269350,923,515,0,0,0,5,4,1,54,0001-00-0004-35.png,0005-00-0006-17.png
14,830,1,1444418269384,1444418269690,919,402,0,0,0,2,3,1,23,0002-00-0006-48.png,0003-00-0002-95.png
14,831,0,1444418269709,1444418270286,919,458,0,0,0,4,3,1,43,0005-00-0004-33.png,0003-00-0006-05.png
14,832,0,1444418270325,1444418271123,868,378,0,0,0,2,1,1,21,0002-00-0008-25.png,0004-00-0002-69.png
14,833,0,1444418271140,1444418271326,917,413,0,0,0,3,4,1,34,0003-00-0006-71.png,0005-00-0002-65.png
14,834,1,1444418271361,1444418272047,977,358,0,0,0,3,2,1,32,0003-00-0003-94.png,0002-00-0005-22.png
14,835,1,1444418272083,1444418272581,908,491,0,0,0,2,1,1,21,0002-00-0007-44.png,0004-00-0003-13.png
14,836,1,1444418272605,1444418273723,317,479,0,0,0,5,4,1,54,0001-00-0008-69.png,0005-00-0006-80.png
14,837,1,1444418273746,1444418273972,363,422,0,0,0,1,2,1,12,0004-00-0001-34.png,0002-00-0005-42.png
14,838,0,1444418273995,1444418274213,888,501,0,0,0,5,4,1,54,0001-00-0003-35.png,0005-00-0005-39.png
14,839,1,1444418274236,1444418274928,376,398,0,0,0,4,3,1,43,0005-00-0006-57.png,0003-00-0007-78.png
14,840,1,1444418274950,1444418275228,927,435,0,0,0,2,3,1,23,0002-00-0006-08.png,0003-00-0006-15.png
14,841,1,1444418275260,1444418275533,308,444,0,0,0,2,1,1,21,0002-00-0009-41.png,0004-00-0000-65.png
14,842,1,1444418275571,1444418275982,935,420,0,0,0,1,2,1,12,0004-00-0007-87.png,0002-00-0009-39.png
14,843,1,1444418276037,1444418276486,911,476,0,0,0,4,3,1,43,0005-00-0009-97.png,0003-00-0008-84.png
14,844,1,1444418276528,1444418276887,912,424,0,0,0,3,4,1,34,0003-00-0002-58.png,0005-00-0004-43.png
14,845,1,1444418276908,1444418277581,273,514,0,0,0,3,2,1,32,0003-00-0006-04.png,0002-00-0007-85.png
14,846,1,1444418277621,1444418278116,922,420,0,0,0,2,3,1,23,0002-00-0003-97.png,0003-00-0009-58.png
14,847,1,1444418278146,1444418278784,401,384,0,0,0,5,4,1,54,0001-00-0009-11.png,0005-00-0001-16.png
14,848,0,1444418278821,1444418279244,338,423,0,0,0,5,4,1,54,0001-00-0009-89.png,0005-00-0000-67.png
14,849,1,1444418279270,1444418279610,857,344,0,0,0,1,2,1,12,0004-00-0008-46.png,0002-00-0000-43.png
14,850,1,1444418279650,1444418279896,329,427,0,0,0,2,3,1,23,0002-00-0004-54.png,0003-00-0002-35.png
14,851,1,1444418279928,1444418280985,282,440,0,0,0,2,1,1,21,0002-00-0005-82.png,0004-00-0003-16.png
14,852,1,1444418281016,1444418281314,907,422,0,0,0,3,2,1,32,0003-00-0008-25.png,0002-00-0001-11.png
14,853,0,1444418281326,1444418282372,894,382,0,0,0,4,3,1,43,0005-00-0008-68.png,0003-00-0009-76.png
14,854,1,1444418282389,1444418282943,962,406,0,0,0,5,4,1,54,0001-00-0001-55.png,0005-00-0006-30.png
14,855,1,1444418282968,1444418283259,342,438,0,0,0,3,4,1,34,0003-00-0005-63.png,0005-00-0008-29.png
14,856,1,1444418283289,1444418283955,937,359,0,0,0,5,4,1,54,0001-00-0008-21.png,0005-00-0002-97.png
14,857,1,1444418283993,1444418284836,377,412,0,0,0,2,1,1,21,0002-00-0009-92.png,0004-00-0005-87.png
14,858,0,1444418284853,1444418285445,336,394,0,0,0,5,4,1,54,0001-00-0006-94.png,0005-00-0007-68.png
14,859,0,1444418285467,1444418285874,875,358,0,0,0,5,4,1,54,0001-00-0001-18.png,0005-00-0003-20.png
14,860,1,1444418285911,1444418286158,907,514,0,0,0,3,2,1,32,0003-00-0007-22.png,0002-00-0002-98.png
14,861,0,1444418286186,1444418286556,935,421,0,0,0,3,4,1,34,0003-00-0000-36.png,0005-00-0006-52.png
14,862,0,1444418286580,1444418286796,929,401,0,0,0,4,3,1,43,0005-00-0005-87.png,0003-00-0004-83.png
14,863,1,1444418286822,1444418287080,401,410,0,0,0,2,3,1,23,0002-00-0007-70.png,0003-00-0003-75.png
14,864,0,1444418287105,1444418287481,343,435,0,0,0,1,2,1,12,0004-00-0009-81.png,0002-00-0001-72.png
14,865,1,1444418287509,1444418287986,389,423,0,0,0,2,1,1,21,0002-00-0001-98.png,0004-00-0008-99.png
14,866,1,1444418288007,1444418288789,945,404,0,0,0,1,2,1,12,0004-00-0003-64.png,0002-00-0009-87.png
14,867,1,1444418288828,1444418289639,951,415,0,0,0,3,2,1,32,0003-00-0005-94.png,0002-00-0001-11.png
14,868,1,1444418289681,1444418290067,349,429,0,0,0,4,3,1,43,0005-00-0007-84.png,0003-00-0004-48.png
14,869,0,1444418290099,1444418290810,927,382,0,0,0,5,4,1,54,0001-00-0008-64.png,0005-00-0007-71.png
14,870,1,1444418290840,1444418291171,958,379,0,0,0,3,4,1,34,0003-00-0009-82.png,0005-00-0009-12.png
14,871,0,1444418291205,1444418292058,332,437,0,0,0,2,3,1,23,0002-00-0002-74.png,0003-00-0003-88.png
14,872,1,1444418292115,1444418292689,376,410,0,0,0,5,4,1,54,0001-00-0001-88.png,0005-00-0002-08.png
14,873,1,1444418292712,1444418293196,900,383,0,0,0,1,2,1,12,0004-00-0004-33.png,0002-00-0009-66.png
14,874,0,1444418293225,1444418293679,873,372,0,0,0,3,4,1,34,0003-00-0003-36.png,0005-00-0005-48.png
14,875,0,1444418293699,1444418294196,393,427,0,0,0,2,1,1,21,0002-00-0008-58.png,0004-00-0003-88.png
14,876,1,1444418294220,1444418294352,862,360,0,0,0,2,3,1,23,0002-00-0009-31.png,0003-00-0004-25.png
14,877,1,1444418294397,1444418294767,445,444,0,0,0,3,2,1,32,0003-00-0003-07.png,0002-00-0005-88.png
14,878,0,1444418294789,1444418295260,366,466,0,0,0,5,4,1,54,0001-00-0003-82.png,0005-00-0006-03.png
14,879,0,1444418295282,1444418296480,336,459,0,0,0,5,4,1,54,0001-00-0005-06.png,0005-00-0003-97.png
14,880,0,1444418296505,1444418296920,907,423,0,0,0,4,3,1,43,0005-00-0000-99.png,0003-00-0003-31.png
14,881,0,1444418296944,1444418297237,338,436,0,0,0,2,3,1,23,0002-00-0008-58.png,0003-00-0000-63.png
14,882,0,1444418297256,1444418297697,931,441,0,0,0,1,2,1,12,0004-00-0006-49.png,0002-00-0003-90.png
14,883,1,1444418297731,1444418298120,299,462,0,0,0,3,4,1,34,0003-00-0009-70.png,0005-00-0003-46.png
14,884,1,1444418298148,1444418298355,937,425,0,0,0,2,1,1,21,0002-00-0009-36.png,0004-00-0008-02.png
14,885,1,1444418298383,1444418298608,964,398,0,0,0,5,4,1,54,0001-00-0007-26.png,0005-00-0007-45.png
14,886,1,1444418298632,1444418300463,949,442,0,0,0,5,4,1,54,0001-00-0002-31.png,0005-00-0009-21.png
14,887,1,1444418300516,1444418300627,926,410,0,0,0,3,2,1,32,0003-00-0009-41.png,0002-00-0006-70.png
14,888,1,1444418300647,1444418300918,332,383,0,0,0,4,3,1,43,0005-00-0003-17.png,0003-00-0006-45.png
14,889,0,1444418300962,1444418301547,931,474,0,0,0,3,4,1,34,0003-00-0002-44.png,0005-00-0008-13.png
14,890,0,1444418301572,1444418301948,335,417,0,0,0,2,1,1,21,0002-00-0002-32.png,0004-00-0007-65.png
14,891,1,1444418301998,1444418302472,944,390,0,0,0,5,4,1,54,0001-00-0009-45.png,0005-00-0009-44.png
14,892,0,1444418302495,1444418302666,369,428,0,0,0,5,4,1,54,0001-00-0009-87.png,0005-00-0003-15.png
14,893,0,1444418302691,1444418303267,341,405,0,0,0,3,2,1,32,0003-00-0006-44.png,0002-00-0009-42.png
14,894,1,1444418303294,1444418303888,327,440,0,0,0,4,3,1,43,0005-00-0002-30.png,0003-00-0002-07.png
14,895,1,1444418303914,1444418304516,950,435,0,0,0,2,3,1,23,0002-00-0001-11.png,0003-00-0004-04.png
14,896,1,1444418304539,1444418304898,904,427,0,0,0,1,2,1,12,0004-00-0006-87.png,0002-00-0008-42.png
14,897,0,1444418304938,1444418305251,335,443,0,0,0,2,1,1,21,0002-00-0006-94.png,0004-00-0007-50.png
14,898,0,1444418305276,1444418305867,916,418,0,0,0,3,2,1,32,0003-00-0005-17.png,0002-00-0008-25.png
14,899,0,1444418305900,1444418306750,390,514,0,0,0,3,4,1,34,0003-00-0005-42.png,0005-00-0009-46.png
14,900,0,1444418306778,1444418307134,343,426,0,0,0,5,4,1,54,0001-00-0006-16.png,0005-00-0009-23.png
14,901,0,1444418307159,1444418307789,905,439,0,0,0,5,4,1,54,0001-00-0006-27.png,0005-00-0004-05.png
14,902,1,1444418307817,1444418308084,338,440,0,0,0,1,2,1,12,0004-00-0000-90.png,0002-00-0001-19.png
14,903,0,1444418308127,1444418308738,914,469,0,0,0,2,3,1,23,0002-00-0005-06.png,0003-00-0005-67.png
14,904,0,1444418308780,1444418309169,938,372,0,0,0,4,3,1,43,0005-00-0006-32.png,0003-00-0004-03.png
14,905,1,1444418309207,1444418309673,324,427,0,0,0,5,4,1,54,0001-00-0009-56.png,0005-00-0009-84.png
14,906,1,1444418309705,1444418309900,333,440,0,0,0,2,3,1,23,0002-00-0003-67.png,0003-00-0003-20.png
14,907,0,1444418309929,1444418310261,315,421,0,0,0,2,1,1,21,0002-00-0006-31.png,0004-00-0007-77.png
14,908,0,1444418310292,1444418310783,918,419,0,0,0,3,4,1,34,0003-00-0004-56.png,0005-00-0008-54.png
14,909,0,1444418310810,1444418311565,920,517,0,0,0,4,3,1,43,0005-00-0005-93.png,0003-00-0002-69.png
14,910,0,1444418311592,1444418311852,862,384,0,0,0,3,2,1,32,0003-00-0009-40.png,0002-00-0008-48.png
14,911,0,1444418311887,1444418312554,933,474,0,0,0,5,4,1,54,0001-00-0003-67.png,0005-00-0006-50.png
14,912,0,1444418312582,1444418313145,930,401,0,0,0,1,2,1,12,0004-00-0009-24.png,0002-00-0003-27.png
14,913,1,1444418313180,1444418313462,350,437,0,0,0,3,4,1,34,0003-00-0003-36.png,0005-00-0008-61.png
14,914,1,1444418313480,1444418314036,936,483,0,0,0,5,4,1,54,0001-00-0008-41.png,0005-00-0003-96.png
14,915,1,1444418314058,1444418314589,401,410,0,0,0,2,1,1,21,0002-00-0003-09.png,0004-00-0004-40.png
14,916,1,1444418314630,1444418314822,382,422,0,0,0,2,3,1,23,0002-00-0002-87.png,0003-00-0003-19.png
14,917,0,1444418314853,1444418315242,926,413,0,0,0,5,4,1,54,0001-00-0004-05.png,0005-00-0004-28.png
14,918,0,1444418315268,1444418316016,943,415,0,0,0,3,2,1,32,0003-00-0008-51.png,0002-00-0006-95.png
14,919,0,1444418316061,1444418316475,879,479,0,0,0,4,3,1,43,0005-00-0001-39.png,0003-00-0004-13.png
14,920,1,1444418316511,1444418316661,386,537,0,0,0,1,2,1,12,0004-00-0006-68.png,0002-00-0007-94.png
14,921,1,1444418316704,1444418317022,411,547,0,0,0,1,2,1,12,0004-00-0007-37.png,0002-00-0009-53.png
14,922,0,1444418317059,1444418317700,921,472,0,0,0,2,1,1,21,0002-00-0008-91.png,0004-00-0003-46.png
14,923,1,1444418317746,1444418318230,367,422,0,0,0,4,3,1,43,0005-00-0006-54.png,0003-00-0004-13.png
14,924,0,1444418318258,1444418318827,928,402,0,0,0,5,4,1,54,0001-00-0002-94.png,0005-00-0005-87.png
14,925,1,1444418318856,1444418319461,340,442,0,0,0,5,4,1,54,0001-00-0003-70.png,0005-00-0005-58.png
14,926,1,1444418319490,1444418320381,857,382,0,0,0,3,2,1,32,0003-00-0000-16.png,0002-00-0002-33.png
14,927,0,1444418320417,1444418320666,349,409,0,0,0,2,3,1,23,0002-00-0009-07.png,0003-00-0001-72.png
14,928,0,1444418320693,1444418321778,873,404,0,0,0,3,4,1,34,0003-00-0005-15.png,0005-00-0006-54.png
14,929,0,1444418321799,1444418324376,345,426,0,0,0,3,4,1,34,0003-00-0006-19.png,0005-00-0004-79.png
14,930,1,1444418324402,1444418325004,899,508,0,0,0,5,4,1,54,0001-00-0004-99.png,0005-00-0006-35.png
14,931,1,1444418325034,1444418325908,867,363,0,0,0,5,4,1,54,0001-00-0001-95.png,0005-00-0007-54.png
14,932,1,1444418325931,1444418326510,350,422,0,0,0,3,2,1,32,0003-00-0004-91.png,0002-00-0005-58.png
14,933,1,1444418326551,1444418326830,360,453,0,0,0,2,1,1,21,0002-00-0004-66.png,0004-00-0006-08.png
14,934,0,1444418326859,1444418327287,337,426,0,0,0,4,3,1,43,0005-00-0003-71.png,0003-00-0004-25.png
14,935,1,1444418327325,1444418327899,924,391,0,0,0,2,3,1,23,0002-00-0001-88.png,0003-00-0000-36.png
14,936,0,1444418327920,1444418328756,938,421,0,0,0,1,2,1,12,0004-00-0005-80.png,0002-00-0007-10.png
14,937,0,1444418328783,1444418329298,376,358,0,0,0,5,4,1,54,0001-00-0005-08.png,0005-00-0003-37.png
14,938,0,1444418329316,1444418329844,427,384,0,0,0,4,3,1,43,0005-00-0002-71.png,0003-00-0008-36.png
14,939,0,1444418329870,1444418331081,324,462,0,0,0,1,2,1,12,0004-00-0007-19.png,0002-00-0009-64.png
14,940,0,1444418331111,1444418331682,907,490,0,0,0,2,1,1,21,0002-00-0003-41.png,0004-00-0001-11.png
14,941,0,1444418331716,1444418332423,906,420,0,0,0,3,4,1,34,0003-00-0008-77.png,0005-00-0008-98.png
14,942,0,1444418332451,1444418333367,248,498,0,0,0,3,2,1,32,0003-00-0003-26.png,0002-00-0003-61.png
14,943,1,1444418333398,1444418333729,877,360,0,0,0,5,4,1,54,0001-00-0006-52.png,0005-00-0000-93.png
14,944,1,1444418333767,1444418334183,344,462,0,0,0,2,3,1,23,0002-00-0004-48.png,0003-00-0005-23.png
14,945,1,1444418334205,1444418334818,912,394,0,0,0,3,2,1,32,0003-00-0004-67.png,0002-00-0006-88.png
14,946,0,1444418334839,1444418335471,345,448,0,0,0,2,1,1,21,0002-00-0001-63.png,0004-00-0004-73.png
14,947,1,1444418335495,1444418335716,329,435,0,0,0,1,2,1,12,0004-00-0007-71.png,0002-00-0009-60.png
14,948,0,1444418335753,1444418335988,917,497,0,0,0,5,4,1,54,0001-00-0003-85.png,0005-00-0004-47.png
14,949,0,1444418336008,1444418337266,339,457,0,0,0,4,3,1,43,0005-00-0006-68.png,0003-00-0004-53.png
14,950,0,1444418337299,1444418337588,902,425,0,0,0,5,4,1,54,0001-00-0009-39.png,0005-00-0007-22.png
14,951,0,1444418337624,1444418337902,351,439,0,0,0,2,3,1,23,0002-00-0006-77.png,0003-00-0005-22.png
14,952,0,1444418337932,1444418338189,401,410,0,0,0,3,4,1,34,0003-00-0006-88.png,0005-00-0003-15.png
14,953,1,1444418338215,1444418339216,921,416,0,0,0,3,2,1,32,0003-00-0004-86.png,0002-00-0007-27.png
14,954,1,1444418339243,1444418339564,364,449,0,0,0,5,4,1,54,0001-00-0006-79.png,0005-00-0002-57.png
14,955,0,1444418339592,1444418339868,911,409,0,0,0,4,3,1,43,0005-00-0006-48.png,0003-00-0003-74.png
14,956,0,1444418339903,1444418340127,337,446,0,0,0,1,2,1,12,0004-00-0007-36.png,0002-00-0007-42.png
14,957,0,1444418340162,1444418340957,891,403,0,0,0,2,1,1,21,0002-00-0003-70.png,0004-00-0002-34.png
14,958,0,1444418340983,1444418341295,365,503,0,0,0,5,4,1,54,0001-00-0005-12.png,0005-00-0008-07.png
14,959,1,1444418341320,1444418341836,340,441,0,0,0,3,4,1,34,0003-00-0004-15.png,0005-00-0003-34.png
14,960,1,1444418341868,1444418342968,873,385,0,0,0,2,3,1,23,0002-00-0009-53.png,0003-00-0004-67.png
14,961,0,1444418342999,1444418343205,411,520,0,0,0,4,3,1,43,0005-00-0004-72.png,0003-00-0002-52.png
14,962,0,1444418343237,1444418343764,917,510,0,0,0,5,4,1,54,0001-00-0005-14.png,0005-00-0007-74.png
14,963,0,1444418343796,1444418344110,350,424,0,0,0,5,4,1,54,0001-00-0005-80.png,0005-00-0007-70.png
14,964,1,1444418344130,1444418345318,307,445,0,0,0,3,2,1,32,0003-00-0005-39.png,0002-00-0001-02.png
14,965,0,1444418345360,1444418346163,356,463,0,0,0,1,2,1,12,0004-00-0007-28.png,0002-00-0002-18.png
14,966,0,1444418346191,1444418346534,457,445,0,0,0,2,1,1,21,0002-00-0006-65.png,0004-00-0000-76.png
14,967,1,1444418346559,1444418346868,222,488,0,0,0,2,3,1,23,0002-00-0003-05.png,0003-00-0008-17.png
14,968,0,1444418346900,1444418347620,913,502,0,0,0,3,4,1,34,0003-00-0001-86.png,0005-00-0002-36.png
14,969,0,1444418347641,1444418348578,340,378,0,0,0,2,3,1,23,0002-00-0000-36.png,0003-00-0009-61.png
14,970,1,1444418348597,1444418349384,952,383,0,0,0,5,4,1,54,0001-00-0001-99.png,0005-00-0009-11.png
14,971,1,1444418349402,1444418349896,899,514,0,0,0,3,4,1,34,0003-00-0001-55.png,0005-00-0006-83.png
14,972,1,1444418349930,1444418350823,925,449,0,0,0,2,1,1,21,0002-00-0006-76.png,0004-00-0005-79.png
14,973,0,1444418350857,1444418351626,383,546,0,0,0,4,3,1,43,0005-00-0003-88.png,0003-00-0004-48.png
14,974,1,1444418351659,1444418351988,948,471,0,0,0,5,4,1,54,0001-00-0005-12.png,0005-00-0007-11.png
14,975,1,1444418352019,1444418352378,273,530,0,0,0,3,2,1,32,0003-00-0007-36.png,0002-00-0004-38.png
14,976,0,1444418352397,1444418352769,271,448,0,0,0,1,2,1,12,0004-00-0005-85.png,0002-00-0007-37.png
14,977,0,1444418352809,1444418353301,862,358,0,0,0,3,2,1,32,0003-00-0003-49.png,0002-00-0005-86.png
14,978,0,1444418353320,1444418353714,310,400,0,0,0,3,4,1,34,0003-00-0002-77.png,0005-00-0007-69.png
14,979,0,1444418353741,1444418354037,926,377,0,0,0,5,4,1,54,0001-00-0004-60.png,0005-00-0006-02.png
14,980,0,1444418354069,1444418354497,959,387,0,0,0,1,2,1,12,0004-00-0009-80.png,0002-00-0007-11.png
14,981,0,1444418354521,1444418354779,912,476,0,0,0,2,1,1,21,0002-00-0005-58.png,0004-00-0005-53.png
14,982,0,1444418354821,1444418355119,398,428,0,0,0,5,4,1,54,0001-00-0008-90.png,0005-00-0000-64.png
14,983,1,1444418355145,1444418356030,897,387,0,0,0,2,3,1,23,0002-00-0003-55.png,0003-00-0008-67.png
14,984,0,1444418356066,1444418356301,342,379,0,0,0,4,3,1,43,0005-00-0008-59.png,0003-00-0006-12.png
14,985,0,1444418356327,1444418356646,368,557,0,0,0,3,2,1,32,0003-00-0003-62.png,0002-00-0009-86.png
14,986,1,1444418356674,1444418356963,935,489,0,0,0,3,4,1,34,0003-00-0004-75.png,0005-00-0009-90.png
14,987,1,1444418356992,1444418357425,916,483,0,0,0,2,1,1,21,0002-00-0004-69.png,0004-00-0006-55.png
14,988,0,1444418357450,1444418358029,339,423,0,0,0,5,4,1,54,0001-00-0006-74.png,0005-00-0004-10.png
14,989,0,1444418358065,1444418358630,934,493,0,0,0,1,2,1,12,0004-00-0005-76.png,0002-00-0004-03.png
