subject_id,trial,correct_response,stim_time,response_time,x_coord,y_coord,trial_timeout,timeout_time,interTrial_timeout,left_rank,right_rank,distance,joint_rank,left_image,right_image
9,1,0,1443631920031,1443631920697,440,341,0,0,0,1,2,1,12,0004-00-0008-37.png,0002-00-0008-70.png
9,2,1,1443631920737,1443631921057,1026,259,0,0,0,2,1,1,21,0002-00-0000-01.png,0004-00-0005-79.png
9,3,0,1443631921103,1443631921227,389,374,0,0,0,5,4,1,54,0001-00-0006-63.png,0005-00-0007-28.png
9,4,1,1443631921248,1443631921414,865,379,0,0,0,3,4,1,34,0003-00-0008-24.png,0005-00-0009-66.png
9,5,0,1443631921442,1443631921857,966,381,0,0,0,4,3,1,43,0005-00-0000-77.png,0003-00-0009-18.png
9,6,0,1443631921885,1443631923299,1038,278,0,0,0,3,2,1,32,0003-00-0003-87.png,0002-00-0006-32.png
9,7,1,1443631923328,1443631923633,1040,282,0,0,0,5,4,1,54,0001-00-0004-64.png,0005-00-0006-04.png
9,8,0,1443631923672,1443631925048,1016,245,0,0,0,2,3,1,23,0002-00-0002-10.png,0003-00-0002-33.png
9,9,0,1443631925071,1443631925310,919,358,0,0,0,1,2,1,12,0004-00-0005-15.png,0002-00-0007-72.png
9,10,1,1443631925337,1443631925604,370,378,0,0,0,3,2,1,32,0003-00-0004-51.png,0002-00-0009-19.png
9,11,0,1443631925631,1443631925879,914,356,0,0,0,3,4,1,34,0003-00-0000-74.png,0005-00-0000-88.png
9,12,0,1443631925903,1443631925973,369,387,0,0,0,2,3,1,23,0002-00-0009-24.png,0003-00-0006-31.png
9,13,1,1443631926010,1443631926647,936,377,0,0,0,5,4,1,54,0001-00-0006-00.png,0005-00-0001-94.png
9,14,1,1443631926668,1443631926913,413,297,0,0,0,2,1,1,21,0002-00-0001-07.png,0004-00-0000-78.png
9,15,0,1443631926948,1443631927354,880,484,0,0,0,5,4,1,54,0001-00-0003-94.png,0005-00-0008-67.png
9,16,1,1443631927378,1443631928149,883,460,0,0,0,4,3,1,43,0005-00-0004-28.png,0003-00-0006-64.png
9,17,0,1443631928190,1443631928371,913,488,0,0,0,1,2,1,12,0004-00-0008-61.png,0002-00-0005-78.png
9,18,1,1443631928389,1443631929037,960,360,0,0,0,4,3,1,43,0005-00-0000-62.png,0003-00-0003-79.png
9,19,1,1443631929079,1443631929377,446,238,0,0,0,2,1,1,21,0002-00-0009-39.png,0004-00-0008-29.png
9,20,0,1443631929414,1443631930515,426,306,0,0,0,2,3,1,23,0002-00-0001-46.png,0003-00-0005-36.png
9,21,1,1443631930548,1443631931169,950,318,0,0,0,3,2,1,32,0003-00-0005-45.png,0002-00-0003-98.png
9,22,1,1443631931203,1443631931675,900,384,0,0,0,3,4,1,34,0003-00-0008-03.png,0005-00-0000-60.png
9,23,0,1443631931698,1443631931825,434,275,0,0,0,5,4,1,54,0001-00-0002-91.png,0005-00-0000-62.png
9,24,0,1443631931853,1443631933907,881,471,0,0,0,5,4,1,54,0001-00-0003-47.png,0005-00-0005-95.png
9,25,1,1443631933931,1443631933972,331,431,0,0,0,1,2,1,12,0004-00-0002-43.png,0002-00-0008-75.png
9,26,1,1443631933997,1443631936036,902,488,0,0,0,4,3,1,43,0005-00-0008-94.png,0003-00-0000-45.png
9,27,1,1443631936061,1443631936458,880,411,0,0,0,2,1,1,21,0002-00-0003-30.png,0004-00-0006-61.png
9,28,1,1443631936483,1443631936554,363,406,0,0,0,3,2,1,32,0003-00-0008-52.png,0002-00-0001-39.png
9,29,1,1443631936581,1443631938742,989,558,0,0,0,3,4,1,34,0003-00-0008-88.png,0005-00-0009-66.png
9,30,1,1443631938765,1443631938935,425,296,0,0,0,5,4,1,54,0001-00-0000-25.png,0005-00-0005-66.png
9,31,1,1443631938953,1443631939030,875,488,0,0,0,2,3,1,23,0002-00-0000-66.png,0003-00-0004-69.png
9,32,1,1443631939060,1443631941367,381,397,0,0,0,5,4,1,54,0001-00-0008-17.png,0005-00-0001-24.png
9,33,1,1443631941401,1443631941843,1016,279,0,0,0,2,3,1,23,0002-00-0003-43.png,0003-00-0009-95.png
9,34,1,1443631941868,1443631942329,356,420,0,0,0,4,3,1,43,0005-00-0007-91.png,0003-00-0004-55.png
9,35,0,1443631942357,1443631942949,859,487,0,0,0,5,4,1,54,0001-00-0008-44.png,0005-00-0006-28.png
9,36,1,1443631942987,1443631951753,888,514,0,0,0,1,2,1,12,0004-00-0005-89.png,0002-00-0006-02.png
9,37,1,1443631951779,1443631951914,926,436,0,0,0,2,1,1,21,0002-00-0003-25.png,0004-00-0009-58.png
9,38,1,1443631951940,1443631952795,384,382,0,0,0,3,4,1,34,0003-00-0008-40.png,0005-00-0008-54.png
9,39,1,1443631952827,1443631953125,396,375,0,0,0,5,4,1,54,0001-00-0007-88.png,0005-00-0001-70.png
9,40,0,1443631953156,1443631953479,953,373,0,0,0,3,2,1,32,0003-00-0003-91.png,0002-00-0005-38.png
9,41,0,1443631953500,1443631954914,375,345,0,0,0,1,2,1,12,0004-00-0007-98.png,0002-00-0001-31.png
9,42,1,1443631954957,1443631955215,913,541,0,0,0,2,1,1,21,0002-00-0007-50.png,0004-00-0004-58.png
9,43,0,1443631955235,1443631955455,345,460,0,0,0,4,3,1,43,0005-00-0002-46.png,0003-00-0007-36.png
9,44,0,1443631955486,1443631955765,900,462,0,0,0,5,4,1,54,0001-00-0001-13.png,0005-00-0007-32.png
9,45,1,1443631955786,1443631955962,919,323,0,0,0,5,4,1,54,0001-00-0003-73.png,0005-00-0002-23.png
9,46,0,1443631956010,1443631957285,896,384,0,0,0,3,4,1,34,0003-00-0000-59.png,0005-00-0000-91.png
9,47,1,1443631957321,1443631957419,939,358,0,0,0,2,3,1,23,0002-00-0004-45.png,0003-00-0003-99.png
9,48,0,1443631957441,1443631958491,1062,304,0,0,0,3,2,1,32,0003-00-0002-53.png,0002-00-0002-53.png
9,49,0,1443631958520,1443631961976,880,436,0,0,0,5,4,1,54,0001-00-0001-82.png,0005-00-0003-17.png
9,50,1,1443631962015,1443631962266,885,357,0,0,0,2,3,1,23,0002-00-0008-87.png,0003-00-0008-63.png
9,51,1,1443631962286,1443631962456,428,286,0,0,0,1,2,1,12,0004-00-0008-84.png,0002-00-0008-50.png
9,52,1,1443631962485,1443631963417,431,288,0,0,0,5,4,1,54,0001-00-0000-00.png,0005-00-0006-33.png
9,53,1,1443631963439,1443631963766,860,429,0,0,0,3,2,1,32,0003-00-0002-39.png,0002-00-0000-94.png
9,54,1,1443631963810,1443631964303,862,345,0,0,0,2,1,1,21,0002-00-0003-68.png,0004-00-0009-80.png
9,55,0,1443631964327,1443631964453,449,268,0,0,0,3,4,1,34,0003-00-0006-67.png,0005-00-0003-12.png
9,56,1,1443631964474,1443631964586,866,448,0,0,0,4,3,1,43,0005-00-0001-08.png,0003-00-0006-84.png
9,57,0,1443631964611,1443631965339,882,277,0,0,0,3,2,1,32,0003-00-0006-57.png,0002-00-0007-33.png
9,58,1,1443631965380,1443631966242,896,390,0,0,0,5,4,1,54,0001-00-0002-25.png,0005-00-0005-45.png
9,59,1,1443631966263,1443631966546,1041,277,0,0,0,3,4,1,34,0003-00-0008-42.png,0005-00-0009-36.png
9,60,1,1443631966579,1443631966810,344,391,0,0,0,1,2,1,12,0004-00-0007-67.png,0002-00-0002-41.png
9,61,0,1443631966845,1443631966859,377,385,0,0,0,2,3,1,23,0002-00-0002-76.png,0003-00-0004-12.png
9,62,0,1443631966895,1443631967049,909,351,0,0,0,2,1,1,21,0002-00-0004-79.png,0004-00-0005-60.png
9,63,1,1443631967075,1443631972900,880,470,0,0,0,5,4,1,54,0001-00-0003-30.png,0005-00-0005-92.png
9,64,0,1443631972932,1443631973378,964,358,0,0,0,4,3,1,43,0005-00-0003-40.png,0003-00-0004-92.png
9,65,0,1443631973411,1443631973946,453,239,0,0,0,3,4,1,34,0003-00-0006-63.png,0005-00-0002-35.png
9,66,0,1443631973977,1443631974290,1019,281,0,0,0,2,3,1,23,0002-00-0000-83.png,0003-00-0008-52.png
9,67,1,1443631974326,1443631974415,376,417,0,0,0,3,2,1,32,0003-00-0006-22.png,0002-00-0004-50.png
9,68,1,1443631974442,1443631974754,999,253,0,0,0,4,3,1,43,0005-00-0003-87.png,0003-00-0007-33.png
9,69,1,1443631974780,1443631977465,864,372,0,0,0,5,4,1,54,0001-00-0006-60.png,0005-00-0001-15.png
9,70,1,1443631977492,1443631978142,438,287,0,0,0,2,1,1,21,0002-00-0005-42.png,0004-00-0009-36.png
9,71,0,1443631978182,1443631983200,390,387,0,0,0,1,2,1,12,0004-00-0008-19.png,0002-00-0002-08.png
9,72,0,1443631983223,1443631985228,905,363,0,0,0,5,4,1,54,0001-00-0001-30.png,0005-00-0002-03.png
9,73,1,1443631985263,1443631985446,977,528,0,0,0,3,4,1,34,0003-00-0000-97.png,0005-00-0002-18.png
9,74,0,1443631985474,1443631985551,1056,295,0,0,0,2,3,1,23,0002-00-0005-92.png,0003-00-0006-29.png
9,75,1,1443631985583,1443631985793,863,412,0,0,0,4,3,1,43,0005-00-0009-43.png,0003-00-0004-67.png
9,76,1,1443631985820,1443631985835,457,266,0,0,0,2,1,1,21,0002-00-0006-60.png,0004-00-0002-67.png
9,77,0,1443631985876,1443631986008,911,375,0,0,0,3,2,1,32,0003-00-0004-39.png,0002-00-0004-27.png
9,78,0,1443631986029,1443631986324,903,496,0,0,0,1,2,1,12,0004-00-0003-22.png,0002-00-0004-26.png
9,79,0,1443631986348,1443631986979,389,407,0,0,0,5,4,1,54,0001-00-0007-67.png,0005-00-0008-54.png
9,80,0,1443631987008,1443631987503,1067,306,0,0,0,5,4,1,54,0001-00-0009-94.png,0005-00-0001-10.png
9,81,1,1443631987532,1443631990030,913,410,0,0,0,3,4,1,34,0003-00-0000-59.png,0005-00-0009-98.png
9,82,0,1443631990068,1443631990599,974,332,0,0,0,2,1,1,21,0002-00-0004-36.png,0004-00-0000-09.png
9,83,1,1443631990616,1443631990788,939,394,0,0,0,1,2,1,12,0004-00-0001-43.png,0002-00-0001-10.png
9,84,0,1443631990815,1443631991474,858,388,0,0,0,3,2,1,32,0003-00-0009-63.png,0002-00-0007-61.png
9,85,1,1443631991496,1443631991982,873,410,0,0,0,5,4,1,54,0001-00-0005-46.png,0005-00-0002-83.png
9,86,1,1443631992004,1443631992156,885,281,0,0,0,5,4,1,54,0001-00-0007-02.png,0005-00-0001-52.png
9,87,0,1443631992173,1443631992373,1009,346,0,0,0,4,3,1,43,0005-00-0006-92.png,0003-00-0006-94.png
9,88,0,1443631992393,1443631992962,365,384,0,0,0,2,3,1,23,0002-00-0005-40.png,0003-00-0001-05.png
9,89,0,1443631992988,1443631995399,430,279,0,0,0,5,4,1,54,0001-00-0009-29.png,0005-00-0008-06.png
9,90,0,1443631995422,1443631995487,416,291,0,0,0,3,2,1,32,0003-00-0001-29.png,0002-00-0002-53.png
9,91,0,1443631995518,1443631995826,940,373,0,0,0,1,2,1,12,0004-00-0005-75.png,0002-00-0008-11.png
9,92,1,1443631995872,1443631998803,917,487,0,0,0,2,1,1,21,0002-00-0005-27.png,0004-00-0000-76.png
9,93,1,1443631998824,1443632007075,862,292,0,0,0,2,3,1,23,0002-00-0005-98.png,0003-00-0009-95.png
9,94,0,1443632007105,1443632008604,971,378,0,0,0,4,3,1,43,0005-00-0001-95.png,0003-00-0003-01.png
9,95,0,1443632008632,1443632010148,943,359,0,0,0,3,4,1,34,0003-00-0000-75.png,0005-00-0004-87.png
9,96,0,1443632010181,1443632011344,1067,270,0,0,0,5,4,1,54,0001-00-0005-71.png,0005-00-0009-90.png
9,97,1,1443632011377,1443632015838,947,426,0,0,0,2,3,1,23,0002-00-0006-97.png,0003-00-0003-52.png
9,98,1,1443632015856,1443632016192,965,350,0,0,0,3,4,1,34,0003-00-0002-11.png,0005-00-0006-16.png
9,99,0,1443632016221,1443632016325,940,349,0,0,0,5,4,1,54,0001-00-0005-99.png,0005-00-0008-75.png
9,100,1,1443632016353,1443632017410,908,365,0,0,0,2,1,1,21,0002-00-0008-46.png,0004-00-0001-80.png
9,101,0,1443632017443,1443632017771,867,513,0,0,0,4,3,1,43,0005-00-0006-38.png,0003-00-0003-98.png
9,102,0,1443632017796,1443632017912,955,410,0,0,0,1,2,1,12,0004-00-0000-56.png,0002-00-0009-39.png
9,103,0,1443632017951,1443632018195,415,318,0,0,0,3,2,1,32,0003-00-0002-23.png,0002-00-0009-10.png
9,104,1,1443632018227,1443632018693,450,288,0,0,0,5,4,1,54,0001-00-0009-55.png,0005-00-0001-05.png
9,105,1,1443632018716,1443632018800,936,359,0,0,0,2,1,1,21,0002-00-0000-23.png,0004-00-0006-88.png
9,106,1,1443632018820,1443632019363,1067,306,0,0,0,3,2,1,32,0003-00-0002-26.png,0002-00-0003-65.png
9,107,0,1443632019384,1443632019977,868,473,0,0,0,5,4,1,54,0001-00-0006-55.png,0005-00-0006-09.png
9,108,1,1443632020009,1443632020646,377,374,0,0,0,1,2,1,12,0004-00-0001-72.png,0002-00-0009-22.png
9,109,0,1443632020671,1443632020728,913,554,0,0,0,4,3,1,43,0005-00-0000-27.png,0003-00-0006-03.png
9,110,1,1443632020756,1443632020868,442,287,0,0,0,5,4,1,54,0001-00-0000-20.png,0005-00-0006-17.png
9,111,1,1443632020892,1443632020992,1000,310,0,0,0,2,3,1,23,0002-00-0001-94.png,0003-00-0009-02.png
9,112,0,1443632021029,1443632021089,1037,271,0,0,0,3,4,1,34,0003-00-0000-20.png,0005-00-0006-62.png
9,113,1,1443632021115,1443632021591,870,401,0,0,0,4,3,1,43,0005-00-0004-70.png,0003-00-0002-59.png
9,114,0,1443632021618,1443632022126,864,448,0,0,0,3,4,1,34,0003-00-0001-18.png,0005-00-0006-52.png
9,115,1,1443632022150,1443632022738,384,376,0,0,0,1,2,1,12,0004-00-0007-23.png,0002-00-0009-61.png
9,116,0,1443632022765,1443632023556,990,436,0,0,0,2,3,1,23,0002-00-0007-16.png,0003-00-0000-01.png
9,117,0,1443632023602,1443632024807,1067,291,0,0,0,5,4,1,54,0001-00-0001-06.png,0005-00-0007-02.png
9,118,1,1443632024831,1443632025401,432,296,0,0,0,5,4,1,54,0001-00-0009-14.png,0005-00-0001-54.png
9,119,1,1443632025430,1443632025559,935,345,0,0,0,2,1,1,21,0002-00-0000-26.png,0004-00-0003-05.png
9,120,1,1443632025586,1443632026291,944,350,0,0,0,3,2,1,32,0003-00-0008-76.png,0002-00-0006-24.png
9,121,1,1443632026330,1443632026553,858,422,0,0,0,4,3,1,43,0005-00-0006-23.png,0003-00-0000-15.png
9,122,1,1443632026588,1443632026688,1044,278,0,0,0,1,2,1,12,0004-00-0008-70.png,0002-00-0007-72.png
9,123,1,1443632026714,1443632026994,859,454,0,0,0,5,4,1,54,0001-00-0009-31.png,0005-00-0001-78.png
9,124,0,1443632027022,1443632027089,867,432,0,0,0,3,2,1,32,0003-00-0004-20.png,0002-00-0004-44.png
9,125,0,1443632027113,1443632027229,375,399,0,0,0,2,1,1,21,0002-00-0004-14.png,0004-00-0001-12.png
9,126,0,1443632027260,1443632028130,1016,275,0,0,0,5,4,1,54,0001-00-0008-81.png,0005-00-0003-06.png
9,127,1,1443632028156,1443632028252,905,415,0,0,0,2,3,1,23,0002-00-0005-04.png,0003-00-0000-00.png
9,128,1,1443632028290,1443632028328,421,286,0,0,0,3,4,1,34,0003-00-0007-65.png,0005-00-0009-19.png
9,129,1,1443632028350,1443632028431,377,397,0,0,0,1,2,1,12,0004-00-0002-49.png,0002-00-0001-27.png
9,130,1,1443632028452,1443632028512,1023,322,0,0,0,2,3,1,23,0002-00-0000-40.png,0003-00-0007-96.png
9,131,0,1443632028539,1443632028566,933,346,0,0,0,3,4,1,34,0003-00-0002-28.png,0005-00-0003-30.png
9,132,0,1443632028592,1443632028731,909,402,0,0,0,3,2,1,32,0003-00-0001-18.png,0002-00-0009-64.png
9,133,1,1443632028760,1443632028941,954,279,0,0,0,5,4,1,54,0001-00-0002-07.png,0005-00-0006-01.png
9,134,0,1443632028968,1443632029194,492,277,0,0,0,2,1,1,21,0002-00-0004-40.png,0004-00-0004-96.png
9,135,1,1443632029218,1443632029773,917,371,0,0,0,4,3,1,43,0005-00-0001-31.png,0003-00-0005-54.png
9,136,1,1443632029796,1443632030149,867,343,0,0,0,5,4,1,54,0001-00-0002-87.png,0005-00-0002-77.png
9,137,0,1443632030174,1443632030423,426,281,0,0,0,5,4,1,54,0001-00-0008-89.png,0005-00-0007-84.png
9,138,0,1443632030450,1443632030754,859,492,0,0,0,4,3,1,43,0005-00-0003-16.png,0003-00-0000-66.png
9,139,0,1443632030777,1443632032645,864,358,0,0,0,3,4,1,34,0003-00-0009-06.png,0005-00-0002-85.png
9,140,1,1443632032672,1443632032855,869,420,0,0,0,2,1,1,21,0002-00-0000-18.png,0004-00-0000-05.png
9,141,1,1443632032884,1443632032906,1074,296,0,0,0,1,2,1,12,0004-00-0004-92.png,0002-00-0001-16.png
9,142,1,1443632032937,1443632033609,893,465,0,0,0,3,2,1,32,0003-00-0004-61.png,0002-00-0008-33.png
9,143,1,1443632033640,1443632033774,939,451,0,0,0,5,4,1,54,0001-00-0004-05.png,0005-00-0007-52.png
9,144,0,1443632033812,1443632033946,881,473,0,0,0,2,3,1,23,0002-00-0007-05.png,0003-00-0002-67.png
9,145,1,1443632033969,1443632034256,936,350,0,0,0,5,4,1,54,0001-00-0009-99.png,0005-00-0001-45.png
9,146,1,1443632034291,1443632036775,886,396,0,0,0,3,2,1,32,0003-00-0007-15.png,0002-00-0005-06.png
9,147,1,1443632036801,1443632037049,875,436,0,0,0,2,1,1,21,0002-00-0003-90.png,0004-00-0004-38.png
9,148,1,1443632037068,1443632037129,905,461,0,0,0,3,4,1,34,0003-00-0002-34.png,0005-00-0002-66.png
9,149,1,1443632037157,1443632037312,454,281,0,0,0,5,4,1,54,0001-00-0006-53.png,0005-00-0001-07.png
9,150,0,1443632037333,1443632037481,362,397,0,0,0,2,3,1,23,0002-00-0003-64.png,0003-00-0008-06.png
9,151,1,1443632037500,1443632037559,449,266,0,0,0,4,3,1,43,0005-00-0001-71.png,0003-00-0002-97.png
9,152,0,1443632037581,1443632037985,1085,287,0,0,0,1,2,1,12,0004-00-0007-31.png,0002-00-0008-11.png
9,153,1,1443632038006,1443632038080,376,396,0,0,0,3,2,1,32,0003-00-0006-75.png,0002-00-0006-93.png
9,154,1,1443632038115,1443632038229,888,452,0,0,0,4,3,1,43,0005-00-0006-71.png,0003-00-0000-74.png
9,155,0,1443632038250,1443632038499,887,442,0,0,0,3,4,1,34,0003-00-0002-07.png,0005-00-0002-03.png
9,156,0,1443632038517,1443632038758,865,474,0,0,0,5,4,1,54,0001-00-0006-00.png,0005-00-0001-81.png
9,157,0,1443632038790,1443632039788,888,423,0,0,0,1,2,1,12,0004-00-0003-46.png,0002-00-0007-34.png
9,158,1,1443632039811,1443632039903,945,325,0,0,0,2,3,1,23,0002-00-0005-89.png,0003-00-0009-02.png
9,159,1,1443632039941,1443632040064,925,384,0,0,0,2,1,1,21,0002-00-0008-37.png,0004-00-0002-30.png
9,160,0,1443632040101,1443632040307,426,308,0,0,0,5,4,1,54,0001-00-0003-36.png,0005-00-0008-94.png
9,161,1,1443632040354,1443632040834,425,273,0,0,0,3,4,1,34,0003-00-0007-37.png,0005-00-0009-57.png
9,162,1,1443632040868,1443632041097,909,345,0,0,0,2,3,1,23,0002-00-0003-34.png,0003-00-0007-50.png
9,163,0,1443632041146,1443632042245,863,380,0,0,0,4,3,1,43,0005-00-0003-27.png,0003-00-0002-71.png
9,164,1,1443632042271,1443632042488,876,514,0,0,0,3,2,1,32,0003-00-0007-70.png,0002-00-0002-49.png
9,165,1,1443632042527,1443632042578,876,354,0,0,0,2,1,1,21,0002-00-0003-91.png,0004-00-0001-57.png
9,166,1,1443632042606,1443632042838,864,273,0,0,0,5,4,1,54,0001-00-0009-76.png,0005-00-0004-41.png
9,167,0,1443632042874,1443632044058,990,346,0,0,0,5,4,1,54,0001-00-0000-30.png,0005-00-0005-68.png
9,168,0,1443632044092,1443632046247,1092,306,0,0,0,1,2,1,12,0004-00-0006-38.png,0002-00-0004-84.png
9,169,0,1443632046272,1443632047164,948,348,0,0,0,3,4,1,34,0003-00-0008-78.png,0005-00-0004-99.png
9,170,0,1443632047196,1443632048805,986,466,0,0,0,2,1,1,21,0002-00-0006-55.png,0004-00-0001-40.png
9,171,0,1443632048841,1443632049090,872,434,0,0,0,3,2,1,32,0003-00-0000-39.png,0002-00-0009-08.png
9,172,0,1443632049124,1443632049733,401,345,0,0,0,2,3,1,23,0002-00-0001-82.png,0003-00-0003-09.png
9,173,1,1443632049762,1443632049871,872,438,0,0,0,4,3,1,43,0005-00-0008-98.png,0003-00-0001-77.png
9,174,0,1443632049900,1443632050906,907,285,0,0,0,5,4,1,54,0001-00-0001-58.png,0005-00-0003-72.png
9,175,1,1443632050935,1443632051826,968,330,0,0,0,5,4,1,54,0001-00-0008-81.png,0005-00-0003-88.png
9,176,1,1443632051862,1443632052186,1044,270,0,0,0,1,2,1,12,0004-00-0005-78.png,0002-00-0005-89.png
9,177,0,1443632052227,1443632052458,921,442,0,0,0,2,1,1,21,0002-00-0005-46.png,0004-00-0001-46.png
9,178,1,1443632052492,1443632053473,899,526,0,0,0,3,2,1,32,0003-00-0002-32.png,0002-00-0004-61.png
9,179,1,1443632053501,1443632054058,893,477,0,0,0,3,4,1,34,0003-00-0000-94.png,0005-00-0001-92.png
9,180,0,1443632054073,1443632054715,894,421,0,0,0,4,3,1,43,0005-00-0009-27.png,0003-00-0007-92.png
9,181,1,1443632054742,1443632055243,866,418,0,0,0,1,2,1,12,0004-00-0000-03.png,0002-00-0000-98.png
9,182,1,1443632055268,1443632055427,876,358,0,0,0,2,3,1,23,0002-00-0009-09.png,0003-00-0000-75.png
9,183,0,1443632055452,1443632056105,378,406,0,0,0,5,4,1,54,0001-00-0003-32.png,0005-00-0004-97.png
9,184,1,1443632056127,1443632060507,474,272,0,0,0,5,4,1,54,0001-00-0003-34.png,0005-00-0009-34.png
9,185,1,1443632060536,1443632060608,455,245,0,0,0,5,4,1,54,0001-00-0006-83.png,0005-00-0008-17.png
9,186,0,1443632060629,1443632064130,425,327,0,0,0,2,3,1,23,0002-00-0001-71.png,0003-00-0007-56.png
9,187,1,1443632064152,1443632065167,925,340,0,0,0,5,4,1,54,0001-00-0008-09.png,0005-00-0002-14.png
9,188,0,1443632065191,1443632065650,960,357,0,0,0,3,2,1,32,0003-00-0008-86.png,0002-00-0009-14.png
9,189,0,1443632065676,1443632065818,964,421,0,0,0,4,3,1,43,0005-00-0002-32.png,0003-00-0003-20.png
9,190,1,1443632065839,1443632066420,948,354,0,0,0,2,1,1,21,0002-00-0008-02.png,0004-00-0007-30.png
9,191,1,1443632066449,1443632066550,903,470,0,0,0,1,2,1,12,0004-00-0001-43.png,0002-00-0001-51.png
9,192,1,1443632066570,1443632074696,870,480,0,0,0,3,4,1,34,0003-00-0005-53.png,0005-00-0009-48.png
9,193,0,1443632074725,1443632074768,429,274,0,0,0,5,4,1,54,0001-00-0007-73.png,0005-00-0005-30.png
9,194,1,1443632074804,1443632075293,862,410,0,0,0,4,3,1,43,0005-00-0008-09.png,0003-00-0000-82.png
9,195,1,1443632075324,1443632075367,1070,283,0,0,0,2,1,1,21,0002-00-0004-68.png,0004-00-0000-40.png
9,196,0,1443632075410,1443632076477,864,464,0,0,0,3,4,1,34,0003-00-0006-98.png,0005-00-0000-21.png
9,197,0,1443632076510,1443632076747,379,387,0,0,0,1,2,1,12,0004-00-0008-24.png,0002-00-0005-09.png
9,198,0,1443632076777,1443632076826,1009,289,0,0,0,5,4,1,54,0001-00-0002-44.png,0005-00-0003-66.png
9,199,1,1443632076857,1443632077125,484,270,0,0,0,3,2,1,32,0003-00-0008-84.png,0002-00-0001-81.png
9,200,0,1443632077148,1443632077850,863,367,0,0,0,2,3,1,23,0002-00-0004-08.png,0003-00-0005-55.png
9,201,1,1443632077872,1443632079111,923,489,0,0,0,3,4,1,34,0003-00-0002-23.png,0005-00-0007-70.png
9,202,1,1443632079140,1443632079162,901,401,0,0,0,2,3,1,23,0002-00-0008-62.png,0003-00-0004-30.png
9,203,0,1443632079188,1443632079737,405,381,0,0,0,5,4,1,54,0001-00-0001-40.png,0005-00-0006-47.png
9,204,1,1443632079771,1443632079854,944,358,0,0,0,5,4,1,54,0001-00-0007-77.png,0005-00-0009-76.png
9,205,1,1443632079880,1443632080354,365,402,0,0,0,1,2,1,12,0004-00-0000-85.png,0002-00-0003-08.png
9,206,1,1443632080383,1443632080447,465,271,0,0,0,3,2,1,32,0003-00-0003-15.png,0002-00-0009-84.png
9,207,1,1443632080469,1443632081481,354,407,0,0,0,2,1,1,21,0002-00-0001-88.png,0004-00-0006-41.png
9,208,1,1443632081502,1443632081791,941,357,0,0,0,4,3,1,43,0005-00-0009-07.png,0003-00-0009-01.png
9,209,1,1443632081811,1443632081853,939,488,0,0,0,2,1,1,21,0002-00-0002-78.png,0004-00-0007-99.png
9,210,1,1443632081888,1443632082098,931,350,0,0,0,3,2,1,32,0003-00-0000-60.png,0002-00-0005-41.png
9,211,1,1443632082129,1443632082648,868,505,0,0,0,1,2,1,12,0004-00-0004-05.png,0002-00-0004-82.png
9,212,1,1443632082689,1443632083718,369,396,0,0,0,4,3,1,43,0005-00-0009-08.png,0003-00-0009-81.png
9,213,1,1443632083744,1443632083956,872,402,0,0,0,5,4,1,54,0001-00-0007-15.png,0005-00-0005-69.png
9,214,0,1443632083978,1443632084120,873,410,0,0,0,5,4,1,54,0001-00-0006-91.png,0005-00-0007-77.png
9,215,1,1443632084138,1443632084367,964,341,0,0,0,3,4,1,34,0003-00-0004-86.png,0005-00-0005-00.png
9,216,0,1443632084396,1443632084938,403,376,0,0,0,2,3,1,23,0002-00-0009-73.png,0003-00-0002-07.png
9,217,1,1443632084962,1443632086888,938,528,0,0,0,5,4,1,54,0001-00-0000-87.png,0005-00-0005-88.png
9,218,0,1443632086920,1443632087326,866,476,0,0,0,5,4,1,54,0001-00-0004-60.png,0005-00-0007-87.png
9,219,1,1443632087343,1443632088085,493,266,0,0,0,1,2,1,12,0004-00-0001-07.png,0002-00-0002-09.png
9,220,0,1443632088104,1443632088602,1016,294,0,0,0,3,4,1,34,0003-00-0004-46.png,0005-00-0001-54.png
9,221,0,1443632088638,1443632088644,888,425,0,0,0,3,2,1,32,0003-00-0006-67.png,0002-00-0001-51.png
9,222,0,1443632088664,1443632088711,941,341,0,0,0,2,1,1,21,0002-00-0007-39.png,0004-00-0007-17.png
9,223,1,1443632088753,1443632088836,886,445,0,0,0,4,3,1,43,0005-00-0009-77.png,0003-00-0008-79.png
9,224,1,1443632088889,1443632089526,942,357,0,0,0,2,3,1,23,0002-00-0007-75.png,0003-00-0008-47.png
9,225,1,1443632089551,1443632089818,938,440,0,0,0,2,1,1,21,0002-00-0007-72.png,0004-00-0000-09.png
9,226,1,1443632089837,1443632090718,939,349,0,0,0,3,4,1,34,0003-00-0008-22.png,0005-00-0001-71.png
9,227,1,1443632090741,1443632091602,989,328,0,0,0,5,4,1,54,0001-00-0005-11.png,0005-00-0008-26.png
9,228,0,1443632091629,1443632091791,909,458,0,0,0,1,2,1,12,0004-00-0002-24.png,0002-00-0004-52.png
9,229,1,1443632091816,1443632092925,861,335,0,0,0,5,4,1,54,0001-00-0003-16.png,0005-00-0001-85.png
9,230,0,1443632092958,1443632094669,858,436,0,0,0,4,3,1,43,0005-00-0000-07.png,0003-00-0002-72.png
9,231,1,1443632094695,1443632094929,857,498,0,0,0,2,3,1,23,0002-00-0001-78.png,0003-00-0004-36.png
9,232,0,1443632094954,1443632095213,865,420,0,0,0,3,2,1,32,0003-00-0005-94.png,0002-00-0001-47.png
9,233,0,1443632095238,1443632095329,376,374,0,0,0,2,3,1,23,0002-00-0009-52.png,0003-00-0005-79.png
9,234,0,1443632095351,1443632095419,468,269,0,0,0,2,1,1,21,0002-00-0003-25.png,0004-00-0001-00.png
9,235,1,1443632095458,1443632095651,440,331,0,0,0,1,2,1,12,0004-00-0004-59.png,0002-00-0005-88.png
9,236,0,1443632095681,1443632095722,391,379,0,0,0,4,3,1,43,0005-00-0004-32.png,0003-00-0001-11.png
9,237,1,1443632095757,1443632095869,916,340,0,0,0,3,4,1,34,0003-00-0003-06.png,0005-00-0008-67.png
9,238,0,1443632095896,1443632095926,1037,272,0,0,0,5,4,1,54,0001-00-0002-45.png,0005-00-0002-54.png
9,239,1,1443632095939,1443632096302,908,448,0,0,0,5,4,1,54,0001-00-0009-74.png,0005-00-0000-04.png
9,240,1,1443632096332,1443632096586,866,334,0,0,0,3,2,1,32,0003-00-0005-44.png,0002-00-0003-33.png
9,241,1,1443632096610,1443632096710,1020,324,0,0,0,5,4,1,54,0001-00-0009-46.png,0005-00-0002-44.png
9,242,0,1443632096731,1443632096823,922,455,0,0,0,2,3,1,23,0002-00-0003-56.png,0003-00-0003-26.png
9,243,0,1443632096862,1443632097894,381,384,0,0,0,2,1,1,21,0002-00-0000-96.png,0004-00-0000-25.png
9,244,1,1443632097934,1443632098426,1067,332,0,0,0,5,4,1,54,0001-00-0002-31.png,0005-00-0005-52.png
9,245,1,1443632098457,1443632098925,867,496,0,0,0,3,4,1,34,0003-00-0002-03.png,0005-00-0006-83.png
9,246,0,1443632098957,1443632099063,862,401,0,0,0,3,2,1,32,0003-00-0008-72.png,0002-00-0004-10.png
9,247,1,1443632099093,1443632099439,440,274,0,0,0,4,3,1,43,0005-00-0005-88.png,0003-00-0003-54.png
9,248,1,1443632099469,1443632099701,1015,309,0,0,0,1,2,1,12,0004-00-0005-37.png,0002-00-0005-98.png
9,249,1,1443632099727,1443632100215,344,398,0,0,0,4,3,1,43,0005-00-0006-46.png,0003-00-0004-18.png
9,250,1,1443632100240,1443632101251,1041,289,0,0,0,2,3,1,23,0002-00-0001-57.png,0003-00-0008-60.png
9,251,0,1443632101284,1443632101347,897,462,0,0,0,5,4,1,54,0001-00-0001-71.png,0005-00-0001-44.png
9,252,0,1443632101381,1443632101583,888,427,0,0,0,2,1,1,21,0002-00-0009-03.png,0004-00-0003-70.png
9,253,1,1443632101615,1443632101984,862,449,0,0,0,3,2,1,32,0003-00-0002-54.png,0002-00-0006-99.png
9,254,1,1443632102028,1443632102615,395,378,0,0,0,1,2,1,12,0004-00-0002-81.png,0002-00-0000-86.png
9,255,1,1443632102667,1443632102701,1092,313,0,0,0,5,4,1,54,0001-00-0002-08.png,0005-00-0007-45.png
9,256,1,1443632102740,1443632102838,962,396,0,0,0,3,4,1,34,0003-00-0004-78.png,0005-00-0000-35.png
9,257,1,1443632102862,1443632103027,1068,281,0,0,0,3,2,1,32,0003-00-0001-72.png,0002-00-0006-52.png
9,258,0,1443632103051,1443632103205,898,448,0,0,0,2,3,1,23,0002-00-0008-74.png,0003-00-0006-69.png
9,259,1,1443632103234,1443632103405,990,420,0,0,0,2,1,1,21,0002-00-0009-15.png,0004-00-0004-96.png
9,260,0,1443632103424,1443632103604,875,436,0,0,0,3,4,1,34,0003-00-0004-08.png,0005-00-0002-47.png
9,261,1,1443632103630,1443632104098,909,385,0,0,0,4,3,1,43,0005-00-0004-13.png,0003-00-0000-37.png
9,262,0,1443632104136,1443632105927,895,532,0,0,0,5,4,1,54,0001-00-0000-67.png,0005-00-0006-01.png
9,263,0,1443632105952,1443632105961,864,414,0,0,0,1,2,1,12,0004-00-0008-75.png,0002-00-0008-06.png
9,264,0,1443632105987,1443632106121,494,251,0,0,0,5,4,1,54,0001-00-0005-08.png,0005-00-0000-36.png
9,265,1,1443632106144,1443632111503,860,356,0,0,0,5,4,1,54,0001-00-0003-11.png,0005-00-0003-34.png
9,266,1,1443632111530,1443632111593,1067,281,0,0,0,5,4,1,54,0001-00-0004-43.png,0005-00-0001-09.png
9,267,1,1443632111627,1443632111901,862,436,0,0,0,2,1,1,21,0002-00-0008-76.png,0004-00-0004-41.png
9,268,0,1443632111927,1443632111964,481,256,0,0,0,4,3,1,43,0005-00-0002-59.png,0003-00-0005-21.png
9,269,0,1443632111990,1443632112201,877,401,0,0,0,2,3,1,23,0002-00-0003-76.png,0003-00-0005-31.png
9,270,1,1443632112221,1443632113744,874,443,0,0,0,3,4,1,34,0003-00-0003-46.png,0005-00-0007-59.png
9,271,1,1443632113767,1443632114301,885,441,0,0,0,3,2,1,32,0003-00-0002-35.png,0002-00-0007-46.png
9,272,0,1443632114330,1443632118233,888,332,0,0,0,1,2,1,12,0004-00-0003-82.png,0002-00-0003-24.png
9,273,0,1443632118255,1443632118511,1067,279,0,0,0,3,4,1,34,0003-00-0007-43.png,0005-00-0002-61.png
9,274,0,1443632118538,1443632118590,920,457,0,0,0,1,2,1,12,0004-00-0005-73.png,0002-00-0003-52.png
9,275,1,1443632118621,1443632118703,969,363,0,0,0,3,2,1,32,0003-00-0000-33.png,0002-00-0002-76.png
9,276,1,1443632118732,1443632122902,993,518,0,0,0,2,1,1,21,0002-00-0008-64.png,0004-00-0003-73.png
9,277,1,1443632122937,1443632131453,890,326,0,0,0,5,4,1,54,0001-00-0005-56.png,0005-00-0005-23.png
9,278,1,1443632131479,1443632131594,964,358,0,0,0,4,3,1,43,0005-00-0005-61.png,0003-00-0004-99.png
9,279,0,1443632131627,1443632131658,1069,282,0,0,0,2,3,1,23,0002-00-0002-43.png,0003-00-0005-55.png
9,280,0,1443632131684,1443632131798,478,244,0,0,0,5,4,1,54,0001-00-0005-90.png,0005-00-0005-64.png
9,281,1,1443632131822,1443632131979,1093,305,0,0,0,4,3,1,43,0005-00-0001-97.png,0003-00-0001-04.png
9,282,1,1443632132007,1443632132235,862,462,0,0,0,1,2,1,12,0004-00-0008-58.png,0002-00-0009-14.png
9,283,0,1443632132254,1443632132318,869,376,0,0,0,3,2,1,32,0003-00-0000-38.png,0002-00-0008-38.png
9,284,1,1443632132352,1443632132893,404,406,0,0,0,2,1,1,21,0002-00-0008-63.png,0004-00-0001-73.png
9,285,0,1443632132911,1443632132948,989,324,0,0,0,3,4,1,34,0003-00-0006-91.png,0005-00-0009-09.png
9,286,0,1443632132983,1443632133095,914,435,0,0,0,5,4,1,54,0001-00-0007-90.png,0005-00-0005-66.png
9,287,0,1443632133143,1443632133599,474,302,0,0,0,5,4,1,54,0001-00-0001-25.png,0005-00-0003-37.png
9,288,1,1443632133630,1443632133674,886,384,0,0,0,2,3,1,23,0002-00-0002-07.png,0003-00-0000-11.png
9,289,0,1443632133721,1443632133884,894,421,0,0,0,1,2,1,12,0004-00-0003-26.png,0002-00-0000-18.png
9,290,0,1443632133914,1443632134274,882,448,0,0,0,4,3,1,43,0005-00-0001-95.png,0003-00-0000-55.png
9,291,0,1443632134308,1443632134565,964,343,0,0,0,3,2,1,32,0003-00-0007-63.png,0002-00-0007-06.png
9,292,1,1443632134590,1443632134674,869,492,0,0,0,2,3,1,23,0002-00-0007-94.png,0003-00-0001-63.png
9,293,0,1443632134700,1443632134745,990,420,0,0,0,3,4,1,34,0003-00-0002-35.png,0005-00-0008-88.png
9,294,0,1443632134784,1443632134900,900,462,0,0,0,5,4,1,54,0001-00-0001-48.png,0005-00-0009-85.png
9,295,1,1443632134932,1443632135641,455,276,0,0,0,2,1,1,21,0002-00-0008-00.png,0004-00-0007-03.png
9,296,1,1443632135674,1443632137309,358,388,0,0,0,5,4,1,54,0001-00-0004-06.png,0005-00-0006-75.png
9,297,0,1443632137329,1443632137475,934,339,0,0,0,2,3,1,23,0002-00-0006-12.png,0003-00-0009-48.png
9,298,0,1443632137499,1443632138772,1066,307,0,0,0,3,2,1,32,0003-00-0001-14.png,0002-00-0000-00.png
9,299,0,1443632138795,1443632141011,915,355,0,0,0,3,4,1,34,0003-00-0001-85.png,0005-00-0000-92.png
9,300,0,1443632141041,1443632141084,401,380,0,0,0,1,2,1,12,0004-00-0006-16.png,0002-00-0003-03.png
9,301,1,1443632141104,1443632141287,459,270,0,0,0,2,1,1,21,0002-00-0000-98.png,0004-00-0000-22.png
9,302,1,1443632141314,1443632141627,1063,307,0,0,0,5,4,1,54,0001-00-0001-57.png,0005-00-0009-42.png
9,303,0,1443632141657,1443632145443,368,391,0,0,0,5,4,1,54,0001-00-0007-44.png,0005-00-0009-59.png
9,304,0,1443632145471,1443632145705,1039,287,0,0,0,4,3,1,43,0005-00-0003-95.png,0003-00-0002-82.png
9,305,1,1443632145733,1443632146146,874,488,0,0,0,5,4,1,54,0001-00-0004-62.png,0005-00-0005-87.png
9,306,1,1443632146189,1443632146912,909,537,0,0,0,3,2,1,32,0003-00-0008-57.png,0002-00-0006-05.png
9,307,1,1443632146937,1443632147328,885,463,0,0,0,2,3,1,23,0002-00-0002-11.png,0003-00-0009-31.png
9,308,0,1443632147363,1443632148700,887,461,0,0,0,4,3,1,43,0005-00-0002-95.png,0003-00-0006-73.png
9,309,0,1443632148721,1443632148744,477,293,0,0,0,5,4,1,54,0001-00-0005-28.png,0005-00-0008-70.png
9,310,1,1443632148777,1443632149442,1041,319,0,0,0,3,4,1,34,0003-00-0009-40.png,0005-00-0002-55.png
9,311,1,1443632149470,1443632150841,467,293,0,0,0,2,1,1,21,0002-00-0007-46.png,0004-00-0001-08.png
9,312,1,1443632150884,1443632151325,483,281,0,0,0,1,2,1,12,0004-00-0008-12.png,0002-00-0000-24.png
9,313,0,1443632151357,1443632151810,869,507,0,0,0,5,4,1,54,0001-00-0007-95.png,0005-00-0007-31.png
9,314,1,1443632151833,1443632152161,450,307,0,0,0,4,3,1,43,0005-00-0005-56.png,0003-00-0004-62.png
9,315,1,1443632152187,1443632153144,903,358,0,0,0,1,2,1,12,0004-00-0001-77.png,0002-00-0000-47.png
9,316,1,1443632153173,1443632153227,1067,291,0,0,0,3,2,1,32,0003-00-0007-92.png,0002-00-0001-33.png
9,317,1,1443632153249,1443632153491,932,456,0,0,0,2,3,1,23,0002-00-0003-43.png,0003-00-0004-15.png
9,318,1,1443632153535,1443632154330,1041,290,0,0,0,5,4,1,54,0001-00-0004-07.png,0005-00-0001-49.png
9,319,1,1443632154359,1443632154622,870,442,0,0,0,3,4,1,34,0003-00-0006-46.png,0005-00-0009-17.png
9,320,1,1443632154652,1443632155391,897,437,0,0,0,2,1,1,21,0002-00-0003-47.png,0004-00-0003-92.png
9,321,0,1443632155418,1443632155779,938,331,0,0,0,2,3,1,23,0002-00-0003-58.png,0003-00-0007-37.png
9,322,1,1443632155810,1443632158040,463,306,0,0,0,4,3,1,43,0005-00-0001-30.png,0003-00-0001-03.png
9,323,0,1443632158064,1443632158911,1020,277,0,0,0,3,2,1,32,0003-00-0001-74.png,0002-00-0002-58.png
9,324,0,1443632158934,1443632158952,989,341,0,0,0,3,4,1,34,0003-00-0002-53.png,0005-00-0007-99.png
9,325,0,1443632158974,1443632159140,945,352,0,0,0,5,4,1,54,0001-00-0009-59.png,0005-00-0002-68.png
9,326,1,1443632159164,1443632160943,866,439,0,0,0,5,4,1,54,0001-00-0008-25.png,0005-00-0004-76.png
9,327,0,1443632160977,1443632161561,456,265,0,0,0,2,1,1,21,0002-00-0009-66.png,0004-00-0005-03.png
9,328,1,1443632161596,1443632161889,960,336,0,0,0,1,2,1,12,0004-00-0002-90.png,0002-00-0002-94.png
9,329,0,1443632161907,1443632166305,910,432,0,0,0,2,1,1,21,0002-00-0008-85.png,0004-00-0000-69.png
9,330,1,1443632166340,1443632166595,393,361,0,0,0,4,3,1,43,0005-00-0003-26.png,0003-00-0000-74.png
9,331,1,1443632166627,1443632166778,969,355,0,0,0,3,2,1,32,0003-00-0003-06.png,0002-00-0002-19.png
9,332,1,1443632166799,1443632166937,913,384,0,0,0,2,3,1,23,0002-00-0002-31.png,0003-00-0000-39.png
9,333,0,1443632166963,1443632168268,898,493,0,0,0,5,4,1,54,0001-00-0001-54.png,0005-00-0009-68.png
9,334,1,1443632168296,1443632168465,1066,309,0,0,0,3,4,1,34,0003-00-0009-22.png,0005-00-0007-16.png
9,335,1,1443632168489,1443632169119,894,450,0,0,0,5,4,1,54,0001-00-0008-27.png,0005-00-0001-66.png
9,336,0,1443632169147,1443632170223,914,337,0,0,0,1,2,1,12,0004-00-0008-68.png,0002-00-0000-51.png
9,337,0,1443632170248,1443632171727,943,382,0,0,0,2,3,1,23,0002-00-0001-59.png,0003-00-0003-91.png
9,338,0,1443632171748,1443632171812,403,418,0,0,0,2,1,1,21,0002-00-0009-84.png,0004-00-0002-12.png
9,339,0,1443632171843,1443632172227,1092,306,0,0,0,5,4,1,54,0001-00-0000-56.png,0005-00-0000-37.png
9,340,1,1443632172270,1443632172698,948,410,0,0,0,5,4,1,54,0001-00-0009-82.png,0005-00-0003-73.png
9,341,0,1443632172735,1443632172869,489,253,0,0,0,3,4,1,34,0003-00-0008-20.png,0005-00-0002-68.png
9,342,0,1443632172902,1443632172938,355,379,0,0,0,1,2,1,12,0004-00-0001-17.png,0002-00-0007-66.png
9,343,0,1443632172968,1443632172992,938,334,0,0,0,4,3,1,43,0005-00-0004-16.png,0003-00-0000-08.png
9,344,0,1443632173012,1443632173461,865,470,0,0,0,3,2,1,32,0003-00-0009-76.png,0002-00-0005-39.png
9,345,1,1443632173485,1443632173815,478,288,0,0,0,3,4,1,34,0003-00-0000-93.png,0005-00-0008-17.png
9,346,1,1443632173839,1443632173902,939,347,0,0,0,1,2,1,12,0004-00-0001-45.png,0002-00-0005-10.png
9,347,0,1443632173927,1443632174397,473,292,0,0,0,3,2,1,32,0003-00-0001-41.png,0002-00-0004-23.png
9,348,1,1443632174428,1443632175149,944,350,0,0,0,5,4,1,54,0001-00-0008-95.png,0005-00-0003-37.png
9,349,0,1443632175174,1443632175294,966,417,0,0,0,4,3,1,43,0005-00-0001-09.png,0003-00-0008-27.png
9,350,0,1443632175334,1443632175424,913,473,0,0,0,2,3,1,23,0002-00-0005-25.png,0003-00-0007-00.png
9,351,0,1443632175448,1443632175881,470,281,0,0,0,5,4,1,54,0001-00-0001-43.png,0005-00-0004-58.png
9,352,1,1443632175897,1443632176342,926,393,0,0,0,2,1,1,21,0002-00-0002-42.png,0004-00-0000-23.png
9,353,1,1443632176373,1443632178838,455,302,0,0,0,3,4,1,34,0003-00-0004-18.png,0005-00-0004-39.png
9,354,1,1443632178868,1443632180934,862,438,0,0,0,5,4,1,54,0001-00-0001-06.png,0005-00-0002-00.png
9,355,0,1443632180959,1443632181522,1093,293,0,0,0,1,2,1,12,0004-00-0006-72.png,0002-00-0005-47.png
9,356,0,1443632181558,1443632182198,405,401,0,0,0,2,1,1,21,0002-00-0005-41.png,0004-00-0007-45.png
9,357,1,1443632182232,1443632182523,1050,294,0,0,0,2,3,1,23,0002-00-0007-93.png,0003-00-0001-47.png
9,358,0,1443632182545,1443632183155,862,408,0,0,0,3,2,1,32,0003-00-0007-15.png,0002-00-0000-94.png
9,359,1,1443632183181,1443632184024,861,461,0,0,0,5,4,1,54,0001-00-0000-93.png,0005-00-0007-20.png
9,360,1,1443632184055,1443632184114,891,496,0,0,0,4,3,1,43,0005-00-0003-77.png,0003-00-0006-12.png
9,361,1,1443632184131,1443632184188,1029,279,0,0,0,5,4,1,54,0001-00-0008-23.png,0005-00-0007-00.png
9,362,1,1443632184214,1443632187731,964,488,0,0,0,5,4,1,54,0001-00-0004-76.png,0005-00-0003-81.png
9,363,1,1443632187754,1443632187825,458,281,0,0,0,3,4,1,34,0003-00-0009-78.png,0005-00-0005-48.png
9,364,0,1443632187854,1443632195542,866,500,0,0,0,4,3,1,43,0005-00-0000-69.png,0003-00-0004-16.png
9,365,0,1443632195572,1443632195750,926,339,0,0,0,2,1,1,21,0002-00-0005-14.png,0004-00-0000-54.png
9,366,1,1443632195784,1443632196272,469,301,0,0,0,1,2,1,12,0004-00-0006-87.png,0002-00-0009-01.png
9,367,0,1443632196308,1443632197440,1061,306,0,0,0,3,2,1,32,0003-00-0004-98.png,0002-00-0002-93.png
9,368,1,1443632197472,1443632197895,1021,321,0,0,0,2,3,1,23,0002-00-0000-61.png,0003-00-0003-20.png
9,369,0,1443632197913,1443632198344,873,435,0,0,0,5,4,1,54,0001-00-0003-72.png,0005-00-0007-73.png
9,370,1,1443632198374,1443632198553,927,514,0,0,0,3,4,1,34,0003-00-0004-03.png,0005-00-0000-76.png
9,371,0,1443632198577,1443632199472,901,448,0,0,0,5,4,1,54,0001-00-0003-24.png,0005-00-0004-66.png
9,372,1,1443632199498,1443632199683,888,475,0,0,0,2,3,1,23,0002-00-0007-07.png,0003-00-0000-03.png
9,373,0,1443632199718,1443632199832,866,459,0,0,0,1,2,1,12,0004-00-0003-20.png,0002-00-0006-98.png
9,374,1,1443632199886,1443632200258,470,270,0,0,0,3,2,1,32,0003-00-0005-64.png,0002-00-0002-91.png
9,375,0,1443632200293,1443632201094,900,363,0,0,0,2,1,1,21,0002-00-0004-42.png,0004-00-0003-96.png
9,376,1,1443632201122,1443632201284,901,287,0,0,0,4,3,1,43,0005-00-0006-99.png,0003-00-0001-79.png
9,377,0,1443632201307,1443632201430,455,322,0,0,0,5,4,1,54,0001-00-0005-77.png,0005-00-0003-63.png
9,378,1,1443632201455,1443632201625,442,285,0,0,0,1,2,1,12,0004-00-0001-41.png,0002-00-0004-72.png
9,379,0,1443632201665,1443632202422,913,410,0,0,0,5,4,1,54,0001-00-0001-39.png,0005-00-0002-87.png
9,380,0,1443632202461,1443632203850,1093,298,0,0,0,3,4,1,34,0003-00-0003-65.png,0005-00-0009-93.png
9,381,1,1443632203879,1443632204303,890,415,0,0,0,2,1,1,21,0002-00-0008-74.png,0004-00-0009-58.png
9,382,1,1443632204344,1443632205043,862,419,0,0,0,4,3,1,43,0005-00-0004-38.png,0003-00-0003-59.png
9,383,1,1443632205068,1443632205225,862,422,0,0,0,2,3,1,23,0002-00-0001-84.png,0003-00-0004-48.png
9,384,0,1443632205258,1443632208154,1057,302,0,0,0,3,2,1,32,0003-00-0006-22.png,0002-00-0000-16.png
9,385,1,1443632208175,1443632208370,861,384,0,0,0,2,1,1,21,0002-00-0003-45.png,0004-00-0009-79.png
9,386,0,1443632208395,1443632208645,943,332,0,0,0,5,4,1,54,0001-00-0005-14.png,0005-00-0001-88.png
9,387,0,1443632208686,1443632208729,857,397,0,0,0,3,4,1,34,0003-00-0001-00.png,0005-00-0006-07.png
9,388,1,1443632208750,1443632210098,888,361,0,0,0,1,2,1,12,0004-00-0007-46.png,0002-00-0002-95.png
9,389,0,1443632210128,1443632210377,1058,279,0,0,0,2,3,1,23,0002-00-0002-42.png,0003-00-0005-56.png
9,390,0,1443632210398,1443632210695,898,384,0,0,0,5,4,1,54,0001-00-0002-24.png,0005-00-0000-09.png
9,391,1,1443632210726,1443632210849,486,289,0,0,0,4,3,1,43,0005-00-0005-69.png,0003-00-0005-44.png
9,392,0,1443632210876,1443632211339,388,405,0,0,0,3,2,1,32,0003-00-0007-42.png,0002-00-0002-82.png
9,393,1,1443632211370,1443632211545,944,347,0,0,0,5,4,1,54,0001-00-0001-03.png,0005-00-0005-45.png
9,394,0,1443632211579,1443632212235,888,410,0,0,0,3,4,1,34,0003-00-0000-07.png,0005-00-0008-62.png
9,395,1,1443632212260,1443632212415,475,287,0,0,0,3,2,1,32,0003-00-0005-23.png,0002-00-0005-06.png
9,396,0,1443632212436,1443632212513,450,263,0,0,0,5,4,1,54,0001-00-0002-39.png,0005-00-0006-04.png
9,397,1,1443632212537,1443632212834,875,450,0,0,0,2,1,1,21,0002-00-0008-20.png,0004-00-0000-95.png
9,398,1,1443632212866,1443632213223,873,501,0,0,0,2,3,1,23,0002-00-0008-86.png,0003-00-0008-64.png
9,399,1,1443632213252,1443632213712,936,544,0,0,0,4,3,1,43,0005-00-0009-92.png,0003-00-0000-63.png
9,400,1,1443632213741,1443632213968,863,463,0,0,0,1,2,1,12,0004-00-0007-99.png,0002-00-0002-20.png
9,401,1,1443632213993,1443632214062,1092,301,0,0,0,1,2,1,12,0004-00-0005-37.png,0002-00-0005-36.png
9,402,1,1443632214090,1443632214312,418,386,0,0,0,4,3,1,43,0005-00-0004-72.png,0003-00-0009-77.png
9,403,1,1443632214333,1443632214496,964,420,0,0,0,3,2,1,32,0003-00-0006-16.png,0002-00-0003-56.png
9,404,0,1443632214531,1443632214686,888,514,0,0,0,3,4,1,34,0003-00-0007-38.png,0005-00-0004-39.png
9,405,1,1443632214714,1443632215040,877,335,0,0,0,2,3,1,23,0002-00-0000-33.png,0003-00-0000-73.png
9,406,0,1443632215072,1443632217459,884,473,0,0,0,5,4,1,54,0001-00-0001-51.png,0005-00-0008-46.png
9,407,0,1443632217481,1443632218224,944,335,0,0,0,5,4,1,54,0001-00-0002-37.png,0005-00-0002-36.png
9,408,1,1443632218269,1443632218280,379,373,0,0,0,2,1,1,21,0002-00-0008-44.png,0004-00-0003-56.png
9,409,1,1443632218308,1443632219645,478,278,0,0,0,5,4,1,54,0001-00-0002-53.png,0005-00-0003-32.png
9,410,0,1443632219665,1443632220226,898,525,0,0,0,4,3,1,43,0005-00-0009-29.png,0003-00-0004-53.png
9,411,0,1443632220249,1443632221884,902,555,0,0,0,1,2,1,12,0004-00-0009-31.png,0002-00-0007-95.png
9,412,1,1443632221924,1443632223886,469,315,0,0,0,3,2,1,32,0003-00-0007-70.png,0002-00-0009-58.png
9,413,0,1443632223914,1443632224255,502,225,0,0,0,2,3,1,23,0002-00-0008-30.png,0003-00-0008-55.png
9,414,1,1443632224282,1443632224326,990,446,0,0,0,5,4,1,54,0001-00-0009-08.png,0005-00-0003-89.png
9,415,1,1443632224355,1443632224397,478,306,0,0,0,2,1,1,21,0002-00-0004-92.png,0004-00-0009-94.png
9,416,1,1443632224408,1443632225204,387,405,0,0,0,3,4,1,34,0003-00-0006-38.png,0005-00-0008-83.png
9,417,1,1443632225240,1443632226024,919,344,0,0,0,2,3,1,23,0002-00-0004-76.png,0003-00-0001-34.png
9,418,0,1443632226058,1443632227640,897,436,0,0,0,5,4,1,54,0001-00-0003-47.png,0005-00-0006-85.png
9,419,1,1443632227665,1443632227708,863,359,0,0,0,3,2,1,32,0003-00-0000-23.png,0002-00-0005-15.png
9,420,1,1443632227747,1443632230093,868,359,0,0,0,3,4,1,34,0003-00-0000-04.png,0005-00-0000-76.png
9,421,1,1443632230127,1443632230171,898,488,0,0,0,2,1,1,21,0002-00-0000-39.png,0004-00-0002-16.png
9,422,1,1443632230189,1443632230316,888,438,0,0,0,5,4,1,54,0001-00-0008-79.png,0005-00-0003-17.png
9,423,0,1443632230347,1443632230371,436,289,0,0,0,1,2,1,12,0004-00-0002-02.png,0002-00-0006-38.png
9,424,1,1443632230411,1443632230627,873,436,0,0,0,4,3,1,43,0005-00-0009-02.png,0003-00-0008-40.png
9,425,1,1443632230659,1443632233579,888,462,0,0,0,3,2,1,32,0003-00-0001-96.png,0002-00-0002-20.png
9,426,1,1443632233605,1443632233997,452,275,0,0,0,3,4,1,34,0003-00-0008-32.png,0005-00-0000-50.png
9,427,0,1443632234021,1443632234562,914,535,0,0,0,5,4,1,54,0001-00-0005-72.png,0005-00-0000-87.png
9,428,1,1443632234590,1443632234731,885,410,0,0,0,5,4,1,54,0001-00-0006-73.png,0005-00-0001-17.png
9,429,1,1443632234760,1443632234933,939,514,0,0,0,4,3,1,43,0005-00-0006-89.png,0003-00-0007-05.png
9,430,1,1443632234954,1443632235046,871,506,0,0,0,1,2,1,12,0004-00-0006-15.png,0002-00-0007-34.png
9,431,1,1443632235068,1443632236356,893,456,0,0,0,2,3,1,23,0002-00-0001-78.png,0003-00-0000-88.png
9,432,1,1443632236381,1443632236931,455,255,0,0,0,2,1,1,21,0002-00-0005-92.png,0004-00-0008-30.png
9,433,0,1443632236962,1443632237111,994,301,0,0,0,1,2,1,12,0004-00-0001-07.png,0002-00-0009-36.png
9,434,1,1443632237142,1443632238487,888,436,0,0,0,2,1,1,21,0002-00-0001-26.png,0004-00-0001-09.png
9,435,0,1443632238512,1443632248867,919,480,0,0,0,5,4,1,54,0001-00-0008-41.png,0005-00-0008-64.png
9,436,0,1443632248901,1443632250098,860,470,0,0,0,4,3,1,43,0005-00-0009-92.png,0003-00-0009-78.png
9,437,0,1443632250145,1443632251726,452,303,0,0,0,2,3,1,23,0002-00-0006-82.png,0003-00-0008-27.png
9,438,1,1443632251759,1443632252598,875,423,0,0,0,5,4,1,54,0001-00-0008-26.png,0005-00-0007-48.png
9,439,1,1443632252616,1443632252753,927,332,0,0,0,3,2,1,32,0003-00-0009-51.png,0002-00-0004-84.png
9,440,1,1443632252784,1443632253045,934,355,0,0,0,3,4,1,34,0003-00-0006-93.png,0005-00-0001-40.png
9,441,1,1443632253068,1443632253134,508,279,0,0,0,3,2,1,32,0003-00-0005-68.png,0002-00-0007-76.png
9,442,0,1443632253157,1443632255347,372,410,0,0,0,5,4,1,54,0001-00-0004-18.png,0005-00-0006-67.png
9,443,1,1443632255383,1443632255555,875,410,0,0,0,5,4,1,54,0001-00-0005-23.png,0005-00-0002-76.png
9,444,1,1443632255579,1443632257003,862,462,0,0,0,2,1,1,21,0002-00-0000-47.png,0004-00-0004-02.png
9,445,1,1443632257030,1443632257098,876,413,0,0,0,2,3,1,23,0002-00-0008-49.png,0003-00-0004-94.png
9,446,0,1443632257146,1443632259417,883,414,0,0,0,3,4,1,34,0003-00-0009-99.png,0005-00-0005-94.png
9,447,0,1443632259439,1443632260792,888,397,0,0,0,1,2,1,12,0004-00-0000-63.png,0002-00-0006-30.png
9,448,0,1443632260828,1443632261432,453,281,0,0,0,4,3,1,43,0005-00-0002-14.png,0003-00-0009-92.png
9,449,0,1443632261455,1443632262636,453,289,0,0,0,3,4,1,34,0003-00-0007-46.png,0005-00-0008-87.png
9,450,1,1443632262668,1443632263182,453,280,0,0,0,2,1,1,21,0002-00-0008-71.png,0004-00-0005-82.png
9,451,0,1443632263203,1443632263868,877,488,0,0,0,5,4,1,54,0001-00-0001-92.png,0005-00-0000-16.png
9,452,1,1443632263899,1443632264581,938,340,0,0,0,2,3,1,23,0002-00-0006-59.png,0003-00-0009-72.png
9,453,0,1443632264606,1443632264713,1041,271,0,0,0,4,3,1,43,0005-00-0009-05.png,0003-00-0008-09.png
9,454,1,1443632264741,1443632264881,867,425,0,0,0,1,2,1,12,0004-00-0006-96.png,0002-00-0005-39.png
9,455,1,1443632264898,1443632265507,876,442,0,0,0,5,4,1,54,0001-00-0007-10.png,0005-00-0002-47.png
9,456,0,1443632265532,1443632266911,862,464,0,0,0,3,2,1,32,0003-00-0001-09.png,0002-00-0008-61.png
9,457,1,1443632266946,1443632267820,1057,279,0,0,0,1,2,1,12,0004-00-0001-72.png,0002-00-0009-35.png
9,458,0,1443632267851,1443632267928,922,354,0,0,0,2,3,1,23,0002-00-0001-94.png,0003-00-0000-66.png
9,459,1,1443632267952,1443632267991,916,360,0,0,0,4,3,1,43,0005-00-0007-31.png,0003-00-0003-39.png
9,460,0,1443632268018,1443632268223,923,446,0,0,0,3,2,1,32,0003-00-0009-32.png,0002-00-0008-35.png
9,461,0,1443632268254,1443632268477,487,297,0,0,0,3,4,1,34,0003-00-0000-41.png,0005-00-0008-93.png
9,462,0,1443632268499,1443632268881,350,412,0,0,0,5,4,1,54,0001-00-0004-87.png,0005-00-0008-39.png
9,463,1,1443632268905,1443632270506,1058,279,0,0,0,2,1,1,21,0002-00-0001-79.png,0004-00-0000-85.png
9,464,0,1443632270529,1443632271589,882,455,0,0,0,5,4,1,54,0001-00-0002-32.png,0005-00-0008-09.png
9,465,1,1443632271613,1443632272370,868,335,0,0,0,3,4,1,34,0003-00-0004-59.png,0005-00-0007-25.png
9,466,0,1443632272401,1443632272860,1089,282,0,0,0,3,2,1,32,0003-00-0008-14.png,0002-00-0002-81.png
9,467,1,1443632272914,1443632272986,881,408,0,0,0,4,3,1,43,0005-00-0001-76.png,0003-00-0009-47.png
9,468,1,1443632273011,1443632273087,445,260,0,0,0,5,4,1,54,0001-00-0008-87.png,0005-00-0008-34.png
9,469,0,1443632273121,1443632273753,984,405,0,0,0,2,3,1,23,0002-00-0000-53.png,0003-00-0002-93.png
9,470,1,1443632273780,1443632273922,1065,283,0,0,0,5,4,1,54,0001-00-0009-80.png,0005-00-0000-34.png
9,471,1,1443632273945,1443632273999,888,358,0,0,0,1,2,1,12,0004-00-0003-43.png,0002-00-0003-28.png
9,472,1,1443632274025,1443632276171,872,441,0,0,0,2,1,1,21,0002-00-0006-29.png,0004-00-0002-49.png
9,473,1,1443632276216,1443632276776,1095,284,0,0,0,2,3,1,23,0002-00-0005-16.png,0003-00-0002-29.png
9,474,1,1443632276792,1443632276804,376,422,0,0,0,4,3,1,43,0005-00-0005-65.png,0003-00-0002-99.png
9,475,1,1443632276827,1443632281464,890,409,0,0,0,5,4,1,54,0001-00-0001-39.png,0005-00-0000-59.png
9,476,1,1443632281494,1443632281771,462,272,0,0,0,3,2,1,32,0003-00-0003-12.png,0002-00-0003-15.png
9,477,1,1443632281799,1443632282177,902,354,0,0,0,2,1,1,21,0002-00-0009-64.png,0004-00-0004-71.png
9,478,1,1443632282200,1443632283082,963,308,0,0,0,5,4,1,54,0001-00-0008-69.png,0005-00-0007-79.png
9,479,1,1443632283103,1443632283232,904,430,0,0,0,3,4,1,34,0003-00-0002-10.png,0005-00-0002-90.png
9,480,1,1443632283261,1443632284378,880,445,0,0,0,1,2,1,12,0004-00-0004-64.png,0002-00-0008-54.png
9,481,1,1443632284407,1443632284955,862,447,0,0,0,2,1,1,21,0002-00-0002-17.png,0004-00-0002-95.png
9,482,0,1443632284980,1443632285040,900,423,0,0,0,3,2,1,32,0003-00-0003-62.png,0002-00-0004-95.png
9,483,1,1443632285061,1443632285918,888,472,0,0,0,5,4,1,54,0001-00-0009-23.png,0005-00-0007-50.png
9,484,1,1443632285946,1443632286041,964,320,0,0,0,4,3,1,43,0005-00-0002-41.png,0003-00-0005-57.png
9,485,1,1443632286075,1443632286129,876,462,0,0,0,5,4,1,54,0001-00-0004-28.png,0005-00-0002-72.png
9,486,1,1443632286159,1443632286431,875,426,0,0,0,1,2,1,12,0004-00-0005-56.png,0002-00-0001-03.png
9,487,1,1443632286457,1443632286671,888,358,0,0,0,3,4,1,34,0003-00-0007-52.png,0005-00-0008-14.png
9,488,0,1443632286705,1443632288115,948,355,0,0,0,2,3,1,23,0002-00-0008-58.png,0003-00-0004-97.png
9,489,1,1443632288133,1443632288737,946,349,0,0,0,5,4,1,54,0001-00-0008-61.png,0005-00-0001-04.png
9,490,0,1443632288760,1443632289509,911,351,0,0,0,1,2,1,12,0004-00-0006-74.png,0002-00-0005-82.png
9,491,0,1443632289535,1443632292110,867,394,0,0,0,4,3,1,43,0005-00-0005-62.png,0003-00-0005-75.png
9,492,1,1443632292136,1443632292351,432,270,0,0,0,3,4,1,34,0003-00-0008-84.png,0005-00-0007-72.png
9,493,0,1443632292390,1443632292482,924,457,0,0,0,3,2,1,32,0003-00-0000-56.png,0002-00-0009-08.png
9,494,1,1443632292513,1443632292785,899,352,0,0,0,2,1,1,21,0002-00-0005-47.png,0004-00-0004-85.png
9,495,0,1443632292818,1443632293290,964,358,0,0,0,5,4,1,54,0001-00-0002-54.png,0005-00-0007-68.png
9,496,1,1443632293324,1443632293632,926,390,0,0,0,2,3,1,23,0002-00-0009-03.png,0003-00-0006-61.png
9,497,1,1443632293669,1443632294112,1067,315,0,0,0,5,4,1,54,0001-00-0007-21.png,0005-00-0004-22.png
9,498,0,1443632294142,1443632294484,908,435,0,0,0,1,2,1,12,0004-00-0004-70.png,0002-00-0001-09.png
9,499,1,1443632294513,1443632295062,1067,288,0,0,0,3,2,1,32,0003-00-0003-50.png,0002-00-0006-59.png
9,500,1,1443632295095,1443632295523,1067,306,0,0,0,2,3,1,23,0002-00-0003-23.png,0003-00-0002-96.png
9,501,1,1443632295555,1443632295763,907,424,0,0,0,2,1,1,21,0002-00-0008-24.png,0004-00-0007-09.png
9,502,1,1443632295793,1443632296660,478,280,0,0,0,5,4,1,54,0001-00-0000-56.png,0005-00-0002-47.png
9,503,0,1443632296687,1443632297125,463,291,0,0,0,3,4,1,34,0003-00-0008-30.png,0005-00-0002-36.png
9,504,1,1443632297171,1443632297579,919,354,0,0,0,4,3,1,43,0005-00-0007-28.png,0003-00-0001-82.png
9,505,1,1443632297606,1443632298046,928,445,0,0,0,2,3,1,23,0002-00-0006-80.png,0003-00-0001-22.png
9,506,0,1443632298070,1443632298987,986,384,0,0,0,3,2,1,32,0003-00-0000-46.png,0002-00-0009-68.png
9,507,0,1443632299016,1443632299042,1049,279,0,0,0,5,4,1,54,0001-00-0000-85.png,0005-00-0005-05.png
9,508,0,1443632299070,1443632299469,919,403,0,0,0,4,3,1,43,0005-00-0003-37.png,0003-00-0009-64.png
9,509,0,1443632299497,1443632299702,456,275,0,0,0,3,4,1,34,0003-00-0005-49.png,0005-00-0009-28.png
9,510,0,1443632299725,1443632299767,475,287,0,0,0,1,2,1,12,0004-00-0004-10.png,0002-00-0007-78.png
9,511,1,1443632299797,1443632303241,455,273,0,0,0,2,1,1,21,0002-00-0008-03.png,0004-00-0006-77.png
9,512,1,1443632303269,1443632308642,1041,295,0,0,0,5,4,1,54,0001-00-0003-11.png,0005-00-0002-57.png
9,513,1,1443632308666,1443632308703,922,506,0,0,0,2,1,1,21,0002-00-0007-73.png,0004-00-0004-53.png
9,514,1,1443632308727,1443632311010,1079,305,0,0,0,3,4,1,34,0003-00-0002-22.png,0005-00-0007-73.png
9,515,1,1443632311044,1443632312572,928,359,0,0,0,3,2,1,32,0003-00-0007-95.png,0002-00-0004-14.png
9,516,0,1443632312596,1443632312691,928,436,0,0,0,4,3,1,43,0005-00-0007-41.png,0003-00-0002-13.png
9,517,0,1443632312724,1443632313174,889,492,0,0,0,5,4,1,54,0001-00-0007-57.png,0005-00-0008-66.png
9,518,0,1443632313196,1443632313449,880,439,0,0,0,2,3,1,23,0002-00-0005-13.png,0003-00-0000-81.png
9,519,0,1443632313469,1443632313530,495,255,0,0,0,1,2,1,12,0004-00-0002-89.png,0002-00-0008-09.png
9,520,1,1443632313557,1443632325117,921,330,0,0,0,5,4,1,54,0001-00-0009-97.png,0005-00-0007-93.png
9,521,0,1443632325148,1443632325634,860,420,0,0,0,2,1,1,21,0002-00-0008-82.png,0004-00-0000-64.png
9,522,0,1443632325665,1443632325825,869,480,0,0,0,5,4,1,54,0001-00-0007-04.png,0005-00-0006-98.png
9,523,1,1443632325862,1443632326149,366,358,0,0,0,4,3,1,43,0005-00-0009-49.png,0003-00-0004-08.png
9,524,0,1443632326178,1443632326833,872,448,0,0,0,1,2,1,12,0004-00-0001-76.png,0002-00-0006-26.png
9,525,0,1443632326867,1443632327713,964,335,0,0,0,2,3,1,23,0002-00-0001-23.png,0003-00-0008-34.png
9,526,0,1443632327736,1443632328021,888,410,0,0,0,5,4,1,54,0001-00-0005-18.png,0005-00-0009-74.png
9,527,1,1443632328038,1443632332707,862,451,0,0,0,3,2,1,32,0003-00-0008-75.png,0002-00-0002-18.png
9,528,1,1443632332724,1443632333927,486,292,0,0,0,3,4,1,34,0003-00-0004-72.png,0005-00-0000-60.png
9,529,0,1443632333954,1443632333982,1033,346,0,0,0,1,2,1,12,0004-00-0008-58.png,0002-00-0006-44.png
9,530,0,1443632334010,1443632337309,906,391,0,0,0,4,3,1,43,0005-00-0002-08.png,0003-00-0002-01.png
9,531,0,1443632337336,1443632337438,459,283,0,0,0,3,2,1,32,0003-00-0003-34.png,0002-00-0003-33.png
9,532,1,1443632337473,1443632337536,990,462,0,0,0,5,4,1,54,0001-00-0008-60.png,0005-00-0003-51.png
9,533,1,1443632337568,1443632337643,925,379,0,0,0,2,3,1,23,0002-00-0005-17.png,0003-00-0003-66.png
9,534,1,1443632337664,1443632337896,879,410,0,0,0,5,4,1,54,0001-00-0003-74.png,0005-00-0007-97.png
9,535,0,1443632337930,1443632339098,876,494,0,0,0,2,1,1,21,0002-00-0001-76.png,0004-00-0005-69.png
9,536,1,1443632339119,1443632341629,962,337,0,0,0,3,4,1,34,0003-00-0001-52.png,0005-00-0006-99.png
9,537,0,1443632341658,1443632342457,1052,306,0,0,0,2,1,1,21,0002-00-0000-54.png,0004-00-0001-46.png
9,538,0,1443632342495,1443632353488,915,358,0,0,0,3,2,1,32,0003-00-0004-24.png,0002-00-0004-27.png
9,539,0,1443632353518,1443632353801,863,462,0,0,0,2,3,1,23,0002-00-0001-39.png,0003-00-0000-63.png
9,540,0,1443632353838,1443632354282,510,275,0,0,0,5,4,1,54,0001-00-0009-65.png,0005-00-0001-00.png
9,541,1,1443632354308,1443632354423,875,391,0,0,0,4,3,1,43,0005-00-0000-80.png,0003-00-0003-78.png
9,542,1,1443632354455,1443632355323,961,329,0,0,0,1,2,1,12,0004-00-0007-30.png,0002-00-0000-46.png
9,543,1,1443632355342,1443632355654,981,498,0,0,0,3,4,1,34,0003-00-0005-21.png,0005-00-0005-69.png
9,544,1,1443632355673,1443632355927,862,423,0,0,0,5,4,1,54,0001-00-0007-78.png,0005-00-0002-55.png
9,545,0,1443632355954,1443632355987,896,436,0,0,0,4,3,1,43,0005-00-0007-73.png,0003-00-0000-21.png
9,546,1,1443632356002,1443632356093,857,443,0,0,0,3,2,1,32,0003-00-0003-55.png,0002-00-0002-75.png
9,547,1,1443632356122,1443632357104,910,459,0,0,0,5,4,1,54,0001-00-0009-84.png,0005-00-0008-09.png
9,548,1,1443632357139,1443632359396,918,422,0,0,0,1,2,1,12,0004-00-0000-71.png,0002-00-0001-95.png
9,549,1,1443632359427,1443632359565,970,322,0,0,0,5,4,1,54,0001-00-0006-79.png,0005-00-0005-36.png
9,550,1,1443632359602,1443632360638,482,248,0,0,0,3,4,1,34,0003-00-0002-01.png,0005-00-0000-73.png
9,551,1,1443632360656,1443632360669,474,266,0,0,0,2,1,1,21,0002-00-0006-58.png,0004-00-0002-83.png
9,552,1,1443632360707,1443632360843,446,287,0,0,0,2,3,1,23,0002-00-0005-57.png,0003-00-0000-90.png
9,553,0,1443632360870,1443632360964,447,372,0,0,0,2,3,1,23,0002-00-0006-71.png,0003-00-0002-07.png
9,554,1,1443632360994,1443632361255,939,488,0,0,0,2,1,1,21,0002-00-0005-09.png,0004-00-0000-99.png
9,555,1,1443632361292,1443632362752,910,476,0,0,0,4,3,1,43,0005-00-0007-71.png,0003-00-0004-48.png
9,556,1,1443632362786,1443632362981,862,453,0,0,0,1,2,1,12,0004-00-0003-50.png,0002-00-0004-14.png
9,557,1,1443632363023,1443632365084,970,341,0,0,0,5,4,1,54,0001-00-0008-13.png,0005-00-0002-61.png
9,558,0,1443632365118,1443632365688,987,424,0,0,0,3,4,1,34,0003-00-0008-00.png,0005-00-0004-53.png
9,559,0,1443632365723,1443632366191,895,481,0,0,0,3,2,1,32,0003-00-0000-27.png,0002-00-0009-75.png
9,560,0,1443632366218,1443632369380,862,436,0,0,0,5,4,1,54,0001-00-0002-12.png,0005-00-0009-98.png
9,561,1,1443632369405,1443632369516,911,349,0,0,0,5,4,1,54,0001-00-0006-80.png,0005-00-0001-70.png
9,562,0,1443632369548,1443632370905,860,375,0,0,0,3,4,1,34,0003-00-0008-35.png,0005-00-0000-87.png
9,563,1,1443632370943,1443632381964,888,436,0,0,0,4,3,1,43,0005-00-0004-82.png,0003-00-0000-84.png
9,564,1,1443632382000,1443632382912,944,363,0,0,0,3,2,1,32,0003-00-0002-45.png,0002-00-0003-48.png
9,565,1,1443632382934,1443632383071,964,514,0,0,0,5,4,1,54,0001-00-0008-10.png,0005-00-0002-24.png
9,566,0,1443632383112,1443632383279,363,390,0,0,0,2,1,1,21,0002-00-0002-09.png,0004-00-0009-77.png
9,567,0,1443632383309,1443632384076,896,378,0,0,0,2,3,1,23,0002-00-0006-07.png,0003-00-0009-12.png
9,568,0,1443632384107,1443632389659,877,439,0,0,0,1,2,1,12,0004-00-0009-58.png,0002-00-0008-76.png
9,569,1,1443632389704,1443632389822,373,383,0,0,0,2,1,1,21,0002-00-0005-76.png,0004-00-0007-99.png
9,570,0,1443632389856,1443632389972,877,398,0,0,0,3,4,1,34,0003-00-0002-99.png,0005-00-0003-12.png
9,571,1,1443632389991,1443632391379,862,410,0,0,0,1,2,1,12,0004-00-0009-67.png,0002-00-0006-59.png
9,572,0,1443632391405,1443632391549,885,448,0,0,0,2,3,1,23,0002-00-0007-34.png,0003-00-0004-55.png
9,573,1,1443632391568,1443632391634,874,494,0,0,0,5,4,1,54,0001-00-0005-91.png,0005-00-0005-82.png
9,574,1,1443632391687,1443632393022,456,277,0,0,0,4,3,1,43,0005-00-0003-10.png,0003-00-0004-73.png
9,575,1,1443632393047,1443632394547,893,358,0,0,0,3,2,1,32,0003-00-0002-76.png,0002-00-0007-34.png
9,576,0,1443632394571,1443632396793,913,428,0,0,0,5,4,1,54,0001-00-0004-61.png,0005-00-0002-04.png
9,577,1,1443632396814,1443632396859,939,358,0,0,0,1,2,1,12,0004-00-0006-49.png,0002-00-0001-89.png
9,578,1,1443632396877,1443632397088,940,327,0,0,0,5,4,1,54,0001-00-0006-58.png,0005-00-0006-77.png
9,579,0,1443632397108,1443632397419,898,405,0,0,0,2,3,1,23,0002-00-0003-12.png,0003-00-0003-27.png
9,580,0,1443632397452,1443632397632,878,488,0,0,0,5,4,1,54,0001-00-0003-37.png,0005-00-0002-89.png
9,581,1,1443632397658,1443632400718,475,279,0,0,0,3,2,1,32,0003-00-0006-42.png,0002-00-0002-70.png
9,582,0,1443632400747,1443632403092,857,470,0,0,0,2,1,1,21,0002-00-0005-27.png,0004-00-0004-98.png
9,583,0,1443632403122,1443632403419,921,408,0,0,0,3,4,1,34,0003-00-0003-61.png,0005-00-0007-04.png
9,584,0,1443632403469,1443632403858,867,427,0,0,0,4,3,1,43,0005-00-0001-20.png,0003-00-0009-85.png
9,585,1,1443632403896,1443632408505,942,347,0,0,0,1,2,1,12,0004-00-0004-77.png,0002-00-0002-66.png
9,586,1,1443632408529,1443632409432,869,413,0,0,0,4,3,1,43,0005-00-0008-76.png,0003-00-0007-47.png
9,587,0,1443632409462,1443632413121,900,553,0,0,0,3,2,1,32,0003-00-0008-58.png,0002-00-0006-06.png
9,588,0,1443632413162,1443632413170,882,432,0,0,0,2,3,1,23,0002-00-0009-10.png,0003-00-0005-29.png
9,589,1,1443632413194,1443632413547,461,271,0,0,0,5,4,1,54,0001-00-0007-94.png,0005-00-0005-00.png
9,590,0,1443632413574,1443632413894,867,454,0,0,0,5,4,1,54,0001-00-0004-10.png,0005-00-0002-23.png
9,591,1,1443632413918,1443632414087,913,462,0,0,0,3,4,1,34,0003-00-0003-18.png,0005-00-0003-80.png
9,592,0,1443632414121,1443632414232,326,398,0,0,0,2,1,1,21,0002-00-0000-86.png,0004-00-0006-44.png
9,593,0,1443632414257,1443632414329,936,352,0,0,0,5,4,1,54,0001-00-0006-29.png,0005-00-0003-77.png
9,594,0,1443632414351,1443632414525,940,354,0,0,0,2,1,1,21,0002-00-0003-52.png,0004-00-0005-45.png
9,595,0,1443632414560,1443632416153,484,268,0,0,0,3,4,1,34,0003-00-0001-81.png,0005-00-0000-20.png
9,596,1,1443632416172,1443632416397,455,237,0,0,0,5,4,1,54,0001-00-0002-75.png,0005-00-0003-26.png
9,597,0,1443632416418,1443632417572,893,442,0,0,0,4,3,1,43,0005-00-0009-53.png,0003-00-0003-14.png
9,598,0,1443632417602,1443632417808,1048,290,0,0,0,2,3,1,23,0002-00-0000-46.png,0003-00-0007-18.png
9,599,0,1443632417851,1443632418006,860,488,0,0,0,1,2,1,12,0004-00-0003-64.png,0002-00-0000-52.png
9,600,1,1443632418026,1443632419249,894,482,0,0,0,3,2,1,32,0003-00-0003-49.png,0002-00-0000-87.png
9,601,1,1443632419280,1443632420330,493,235,0,0,0,5,4,1,54,0001-00-0008-59.png,0005-00-0004-53.png
9,602,1,1443632420355,1443632420836,895,478,0,0,0,5,4,1,54,0001-00-0008-18.png,0005-00-0008-90.png
9,603,1,1443632420859,1443632421071,872,358,0,0,0,2,1,1,21,0002-00-0001-13.png,0004-00-0004-07.png
9,604,1,1443632421084,1443632423801,943,377,0,0,0,3,4,1,34,0003-00-0005-54.png,0005-00-0002-58.png
9,605,1,1443632423825,1443632423857,868,445,0,0,0,3,2,1,32,0003-00-0006-71.png,0002-00-0009-29.png
9,606,1,1443632423901,1443632424613,913,541,0,0,0,2,3,1,23,0002-00-0001-22.png,0003-00-0000-88.png
9,607,0,1443632424637,1443632424725,860,526,0,0,0,4,3,1,43,0005-00-0008-76.png,0003-00-0009-41.png
9,608,0,1443632424748,1443632425557,895,377,0,0,0,1,2,1,12,0004-00-0005-60.png,0002-00-0006-34.png
9,609,1,1443632425587,1443632426289,1073,293,0,0,0,3,2,1,32,0003-00-0004-87.png,0002-00-0009-12.png
9,610,1,1443632426310,1443632427766,884,386,0,0,0,5,4,1,54,0001-00-0008-28.png,0005-00-0000-08.png
9,611,1,1443632427810,1443632428436,913,514,0,0,0,5,4,1,54,0001-00-0006-70.png,0005-00-0007-91.png
9,612,1,1443632428461,1443632435229,1010,283,0,0,0,4,3,1,43,0005-00-0001-02.png,0003-00-0005-10.png
9,613,0,1443632435258,1443632435797,878,514,0,0,0,1,2,1,12,0004-00-0004-92.png,0002-00-0003-65.png
9,614,1,1443632435821,1443632435981,939,371,0,0,0,3,4,1,34,0003-00-0006-03.png,0005-00-0005-12.png
9,615,1,1443632436003,1443632436567,395,316,0,0,0,2,1,1,21,0002-00-0007-84.png,0004-00-0006-22.png
9,616,0,1443632436608,1443632437248,869,478,0,0,0,2,3,1,23,0002-00-0002-29.png,0003-00-0004-92.png
9,617,1,1443632437278,1443632437386,928,530,0,0,0,2,1,1,21,0002-00-0004-38.png,0004-00-0009-09.png
9,618,1,1443632437412,1443632437484,930,497,0,0,0,1,2,1,12,0004-00-0006-00.png,0002-00-0005-33.png
9,619,1,1443632437520,1443632438566,877,438,0,0,0,3,2,1,32,0003-00-0007-14.png,0002-00-0004-74.png
9,620,0,1443632438595,1443632439236,893,423,0,0,0,5,4,1,54,0001-00-0007-06.png,0005-00-0004-32.png
9,621,1,1443632439262,1443632439878,486,264,0,0,0,2,3,1,23,0002-00-0006-53.png,0003-00-0005-68.png
9,622,1,1443632439906,1443632440185,900,527,0,0,0,5,4,1,54,0001-00-0009-99.png,0005-00-0006-09.png
9,623,1,1443632440235,1443632441378,951,353,0,0,0,4,3,1,43,0005-00-0004-80.png,0003-00-0000-77.png
9,624,1,1443632441414,1443632441921,940,359,0,0,0,3,4,1,34,0003-00-0008-64.png,0005-00-0007-76.png
9,625,0,1443632441944,1443632441999,894,374,0,0,0,2,1,1,21,0002-00-0003-12.png,0004-00-0001-11.png
9,626,1,1443632442030,1443632442083,909,347,0,0,0,5,4,1,54,0001-00-0006-69.png,0005-00-0004-04.png
9,627,0,1443632442113,1443632442748,919,423,0,0,0,5,4,1,54,0001-00-0007-97.png,0005-00-0000-71.png
9,628,1,1443632442793,1443632442926,436,410,0,0,0,3,4,1,34,0003-00-0000-24.png,0005-00-0002-76.png
9,629,1,1443632442954,1443632443053,488,242,0,0,0,3,2,1,32,0003-00-0005-43.png,0002-00-0001-11.png
9,630,0,1443632443082,1443632448635,866,415,0,0,0,4,3,1,43,0005-00-0009-04.png,0003-00-0003-56.png
9,631,0,1443632448665,1443632448956,939,332,0,0,0,2,3,1,23,0002-00-0005-60.png,0003-00-0001-41.png
9,632,0,1443632448998,1443632449344,940,435,0,0,0,1,2,1,12,0004-00-0004-22.png,0002-00-0005-02.png
9,633,1,1443632449366,1443632450367,862,423,0,0,0,1,2,1,12,0004-00-0005-35.png,0002-00-0008-20.png
9,634,0,1443632450403,1443632450723,907,473,0,0,0,3,4,1,34,0003-00-0007-01.png,0005-00-0003-82.png
9,635,0,1443632450747,1443632450989,357,375,0,0,0,4,3,1,43,0005-00-0007-41.png,0003-00-0004-58.png
9,636,1,1443632451036,1443632451099,1065,263,0,0,0,2,1,1,21,0002-00-0001-03.png,0004-00-0007-80.png
9,637,1,1443632451128,1443632451578,876,462,0,0,0,2,3,1,23,0002-00-0004-64.png,0003-00-0003-25.png
9,638,0,1443632451596,1443632454098,902,499,0,0,0,5,4,1,54,0001-00-0000-56.png,0005-00-0002-68.png
9,639,0,1443632454122,1443632455831,389,373,0,0,0,3,2,1,32,0003-00-0008-56.png,0002-00-0003-68.png
9,640,0,1443632455860,1443632456001,1032,279,0,0,0,5,4,1,54,0001-00-0008-54.png,0005-00-0002-70.png
9,641,0,1443632456025,1443632456520,901,436,0,0,0,1,2,1,12,0004-00-0009-63.png,0002-00-0002-19.png
9,642,1,1443632456540,1443632456706,897,488,0,0,0,2,1,1,21,0002-00-0006-73.png,0004-00-0001-01.png
9,643,1,1443632456738,1443632457240,944,380,0,0,0,2,3,1,23,0002-00-0008-90.png,0003-00-0007-75.png
9,644,1,1443632457279,1443632457315,489,248,0,0,0,5,4,1,54,0001-00-0007-70.png,0005-00-0008-75.png
9,645,0,1443632457350,1443632457540,1037,301,0,0,0,4,3,1,43,0005-00-0008-13.png,0003-00-0000-97.png
9,646,0,1443632457578,1443632458300,931,455,0,0,0,3,2,1,32,0003-00-0007-07.png,0002-00-0006-06.png
9,647,0,1443632458327,1443632458380,887,431,0,0,0,3,4,1,34,0003-00-0009-43.png,0005-00-0002-73.png
9,648,0,1443632458409,1443632458614,862,436,0,0,0,5,4,1,54,0001-00-0003-88.png,0005-00-0000-03.png
9,649,1,1443632458637,1443632458765,964,358,0,0,0,3,2,1,32,0003-00-0004-13.png,0002-00-0000-15.png
9,650,0,1443632458798,1443632459163,862,452,0,0,0,2,1,1,21,0002-00-0002-46.png,0004-00-0000-27.png
9,651,1,1443632459193,1443632461464,916,358,0,0,0,4,3,1,43,0005-00-0003-54.png,0003-00-0000-66.png
9,652,1,1443632461489,1443632463561,860,388,0,0,0,2,3,1,23,0002-00-0005-60.png,0003-00-0003-36.png
9,653,1,1443632463586,1443632463687,466,265,0,0,0,3,4,1,34,0003-00-0001-09.png,0005-00-0000-18.png
9,654,1,1443632463717,1443632464552,403,385,0,0,0,5,4,1,54,0001-00-0002-29.png,0005-00-0000-25.png
9,655,1,1443632464586,1443632466279,865,467,0,0,0,1,2,1,12,0004-00-0000-18.png,0002-00-0000-98.png
9,656,1,1443632466307,1443632466348,939,514,0,0,0,5,4,1,54,0001-00-0005-92.png,0005-00-0007-09.png
9,657,0,1443632466362,1443632466411,900,301,0,0,0,2,3,1,23,0002-00-0004-73.png,0003-00-0006-98.png
9,658,0,1443632466442,1443632466495,862,499,0,0,0,5,4,1,54,0001-00-0002-44.png,0005-00-0008-68.png
9,659,0,1443632466527,1443632466887,882,420,0,0,0,2,1,1,21,0002-00-0001-40.png,0004-00-0009-41.png
9,660,0,1443632466916,1443632467883,943,342,0,0,0,3,4,1,34,0003-00-0009-81.png,0005-00-0003-50.png
9,661,1,1443632467907,1443632468093,885,410,0,0,0,5,4,1,54,0001-00-0009-40.png,0005-00-0008-48.png
9,662,1,1443632468115,1443632468128,888,358,0,0,0,3,2,1,32,0003-00-0000-93.png,0002-00-0003-07.png
9,663,1,1443632468158,1443632471280,885,361,0,0,0,1,2,1,12,0004-00-0007-66.png,0002-00-0006-24.png
9,664,1,1443632471304,1443632471624,940,372,0,0,0,4,3,1,43,0005-00-0005-84.png,0003-00-0008-71.png
9,665,0,1443632471653,1443632471722,434,266,0,0,0,3,2,1,32,0003-00-0006-67.png,0002-00-0001-94.png
9,666,1,1443632471752,1443632475518,888,488,0,0,0,2,3,1,23,0002-00-0005-71.png,0003-00-0002-27.png
9,667,0,1443632475547,1443632475634,874,527,0,0,0,2,1,1,21,0002-00-0007-06.png,0004-00-0007-32.png
9,668,1,1443632475671,1443632476927,869,479,0,0,0,5,4,1,54,0001-00-0002-53.png,0005-00-0005-54.png
9,669,1,1443632476953,1443632477182,1047,299,0,0,0,5,4,1,54,0001-00-0002-24.png,0005-00-0009-72.png
9,670,0,1443632477221,1443632478050,1016,315,0,0,0,4,3,1,43,0005-00-0003-68.png,0003-00-0008-95.png
9,671,0,1443632478076,1443632478467,880,411,0,0,0,1,2,1,12,0004-00-0000-54.png,0002-00-0007-81.png
9,672,1,1443632478488,1443632480002,859,333,0,0,0,3,4,1,34,0003-00-0001-77.png,0005-00-0000-37.png
9,673,1,1443632480033,1443632480101,1065,303,0,0,0,5,4,1,54,0001-00-0000-98.png,0005-00-0003-92.png
9,674,1,1443632480134,1443632480592,877,332,0,0,0,2,3,1,23,0002-00-0002-85.png,0003-00-0006-73.png
9,675,0,1443632480613,1443632480788,873,358,0,0,0,4,3,1,43,0005-00-0003-06.png,0003-00-0007-73.png
9,676,0,1443632480820,1443632481013,921,321,0,0,0,3,2,1,32,0003-00-0004-33.png,0002-00-0004-28.png
9,677,1,1443632481036,1443632481446,1041,267,0,0,0,3,4,1,34,0003-00-0000-63.png,0005-00-0001-39.png
9,678,1,1443632481468,1443632481607,925,380,0,0,0,5,4,1,54,0001-00-0002-91.png,0005-00-0001-99.png
9,679,1,1443632481629,1443632482042,904,443,0,0,0,1,2,1,12,0004-00-0007-70.png,0002-00-0007-54.png
9,680,1,1443632482068,1443632482099,504,264,0,0,0,2,1,1,21,0002-00-0005-43.png,0004-00-0009-35.png
9,681,0,1443632482115,1443632482684,474,293,0,0,0,2,3,1,23,0002-00-0002-54.png,0003-00-0003-97.png
9,682,1,1443632482707,1443632483091,428,253,0,0,0,2,1,1,21,0002-00-0005-31.png,0004-00-0005-07.png
9,683,1,1443632483110,1443632483552,459,293,0,0,0,4,3,1,43,0005-00-0007-99.png,0003-00-0002-46.png
9,684,1,1443632483583,1443632483698,1053,304,0,0,0,3,2,1,32,0003-00-0004-77.png,0002-00-0003-13.png
9,685,0,1443632483729,1443632483847,466,280,0,0,0,5,4,1,54,0001-00-0001-31.png,0005-00-0005-14.png
9,686,1,1443632483879,1443632484105,971,417,0,0,0,1,2,1,12,0004-00-0007-66.png,0002-00-0005-99.png
9,687,1,1443632484138,1443632484207,973,459,0,0,0,3,4,1,34,0003-00-0009-28.png,0005-00-0009-79.png
9,688,1,1443632484238,1443632484495,962,506,0,0,0,5,4,1,54,0001-00-0002-70.png,0005-00-0005-03.png
9,689,1,1443632484523,1443632484606,919,475,0,0,0,5,4,1,54,0001-00-0007-91.png,0005-00-0000-11.png
9,690,0,1443632484634,1443632491173,911,469,0,0,0,3,2,1,32,0003-00-0000-80.png,0002-00-0000-18.png
9,691,0,1443632491194,1443632491600,453,284,0,0,0,5,4,1,54,0001-00-0002-24.png,0005-00-0002-98.png
9,692,1,1443632491628,1443632492114,888,321,0,0,0,4,3,1,43,0005-00-0008-53.png,0003-00-0006-48.png
9,693,1,1443632492140,1443632492245,927,528,0,0,0,3,4,1,34,0003-00-0007-09.png,0005-00-0008-18.png
9,694,0,1443632492272,1443632492477,913,384,0,0,0,2,1,1,21,0002-00-0003-41.png,0004-00-0002-40.png
9,695,1,1443632492504,1443632493211,916,270,0,0,0,2,3,1,23,0002-00-0005-94.png,0003-00-0002-50.png
9,696,1,1443632493241,1443632493309,868,439,0,0,0,1,2,1,12,0004-00-0002-98.png,0002-00-0003-33.png
9,697,0,1443632493330,1443632495648,860,422,0,0,0,3,4,1,34,0003-00-0004-95.png,0005-00-0008-48.png
9,698,1,1443632495684,1443632495774,863,413,0,0,0,3,2,1,32,0003-00-0005-18.png,0002-00-0008-16.png
9,699,1,1443632495805,1443632495931,907,471,0,0,0,2,1,1,21,0002-00-0009-72.png,0004-00-0007-66.png
9,700,0,1443632495954,1443632496033,388,357,0,0,0,5,4,1,54,0001-00-0001-72.png,0005-00-0007-96.png
9,701,1,1443632496058,1443632496429,469,266,0,0,0,1,2,1,12,0004-00-0006-42.png,0002-00-0003-63.png
9,702,1,1443632496456,1443632496469,484,294,0,0,0,2,3,1,23,0002-00-0004-60.png,0003-00-0009-93.png
9,703,1,1443632496495,1443632496955,497,261,0,0,0,5,4,1,54,0001-00-0001-41.png,0005-00-0007-64.png
9,704,1,1443632496981,1443632499257,888,358,0,0,0,4,3,1,43,0005-00-0007-36.png,0003-00-0006-41.png
9,705,1,1443632499287,1443632517615,874,384,0,0,0,2,3,1,23,0002-00-0005-85.png,0003-00-0003-32.png
9,706,1,1443632517638,1443632522686,463,317,0,0,0,3,2,1,32,0003-00-0000-34.png,0002-00-0001-93.png
9,707,0,1443632522717,1443632522766,928,462,0,0,0,2,1,1,21,0002-00-0007-38.png,0004-00-0007-65.png
9,708,0,1443632522793,1443632529826,1057,312,0,0,0,1,2,1,12,0004-00-0003-95.png,0002-00-0004-62.png
9,709,1,1443632529860,1443632529932,913,452,0,0,0,3,4,1,34,0003-00-0008-32.png,0005-00-0006-42.png
9,710,0,1443632529961,1443632531101,921,453,0,0,0,5,4,1,54,0001-00-0000-56.png,0005-00-0004-42.png
9,711,0,1443632531133,1443632532792,453,278,0,0,0,5,4,1,54,0001-00-0005-40.png,0005-00-0000-53.png
9,712,0,1443632532833,1443632537001,1092,290,0,0,0,4,3,1,43,0005-00-0009-75.png,0003-00-0002-23.png
9,713,0,1443632537026,1443632538492,916,309,0,0,0,2,3,1,23,0002-00-0002-19.png,0003-00-0001-71.png
9,714,1,1443632538526,1443632541641,454,302,0,0,0,3,2,1,32,0003-00-0009-90.png,0002-00-0003-59.png
9,715,0,1443632541665,1443632543301,883,462,0,0,0,5,4,1,54,0001-00-0007-24.png,0005-00-0004-63.png
9,716,1,1443632543336,1443632543421,888,444,0,0,0,5,4,1,54,0001-00-0006-77.png,0005-00-0005-05.png
9,717,1,1443632543446,1443632546283,934,350,0,0,0,1,2,1,12,0004-00-0004-62.png,0002-00-0007-61.png
9,718,1,1443632546304,1443632546677,862,384,0,0,0,2,1,1,21,0002-00-0003-09.png,0004-00-0004-24.png
9,719,1,1443632546706,1443632546822,890,366,0,0,0,4,3,1,43,0005-00-0005-57.png,0003-00-0002-45.png
9,720,1,1443632546841,1443632546899,925,478,0,0,0,3,4,1,34,0003-00-0005-66.png,0005-00-0009-12.png
9,721,1,1443632546922,1443632547374,1091,291,0,0,0,4,3,1,43,0005-00-0006-37.png,0003-00-0008-52.png
9,722,0,1443632547392,1443632547924,911,353,0,0,0,5,4,1,54,0001-00-0008-46.png,0005-00-0002-06.png
9,723,0,1443632547946,1443632547976,915,403,0,0,0,1,2,1,12,0004-00-0009-45.png,0002-00-0001-97.png
9,724,1,1443632548010,1443632548053,475,267,0,0,0,2,1,1,21,0002-00-0007-85.png,0004-00-0002-44.png
9,725,1,1443632548085,1443632548427,402,263,0,0,0,2,3,1,23,0002-00-0004-59.png,0003-00-0004-72.png
9,726,0,1443632548461,1443632548652,917,354,0,0,0,3,2,1,32,0003-00-0001-61.png,0002-00-0004-42.png
9,727,1,1443632548675,1443632548776,888,410,0,0,0,5,4,1,54,0001-00-0001-14.png,0005-00-0005-20.png
9,728,0,1443632548804,1443632554969,1040,286,0,0,0,3,4,1,34,0003-00-0008-72.png,0005-00-0008-89.png
9,729,1,1443632554993,1443632556208,1041,287,0,0,0,4,3,1,43,0005-00-0004-45.png,0003-00-0007-66.png
9,730,1,1443632556229,1443632556680,862,446,0,0,0,2,1,1,21,0002-00-0006-68.png,0004-00-0009-77.png
9,731,1,1443632556712,1443632556759,923,551,0,0,0,1,2,1,12,0004-00-0005-05.png,0002-00-0001-03.png
9,732,1,1443632556786,1443632566083,862,384,0,0,0,3,2,1,32,0003-00-0002-58.png,0002-00-0007-06.png
9,733,1,1443632566110,1443632567001,394,375,0,0,0,3,4,1,34,0003-00-0007-23.png,0005-00-0000-99.png
9,734,0,1443632567026,1443632567702,1051,291,0,0,0,2,3,1,23,0002-00-0000-71.png,0003-00-0009-22.png
9,735,1,1443632567728,1443632568748,878,384,0,0,0,5,4,1,54,0001-00-0008-47.png,0005-00-0008-08.png
9,736,1,1443632568774,1443632568991,982,283,0,0,0,5,4,1,54,0001-00-0003-09.png,0005-00-0008-41.png
9,737,0,1443632569028,1443632570659,888,402,0,0,0,3,4,1,34,0003-00-0003-12.png,0005-00-0007-55.png
9,738,1,1443632570686,1443632570808,878,346,0,0,0,2,3,1,23,0002-00-0005-55.png,0003-00-0001-58.png
9,739,0,1443632570844,1443632573267,456,259,0,0,0,1,2,1,12,0004-00-0006-25.png,0002-00-0009-59.png
9,740,1,1443632573301,1443632574530,924,356,0,0,0,5,4,1,54,0001-00-0003-81.png,0005-00-0005-61.png
9,741,1,1443632574552,1443632575120,467,285,0,0,0,4,3,1,43,0005-00-0009-64.png,0003-00-0009-46.png
9,742,1,1443632575151,1443632576580,1057,320,0,0,0,5,4,1,54,0001-00-0006-47.png,0005-00-0008-95.png
9,743,1,1443632576614,1443632576757,438,283,0,0,0,3,2,1,32,0003-00-0006-93.png,0002-00-0002-16.png
9,744,0,1443632576782,1443632577112,916,358,0,0,0,2,1,1,21,0002-00-0006-76.png,0004-00-0002-14.png
9,745,1,1443632577135,1443632577324,919,424,0,0,0,2,1,1,21,0002-00-0002-28.png,0004-00-0003-20.png
9,746,1,1443632577353,1443632577767,1069,282,0,0,0,3,4,1,34,0003-00-0001-35.png,0005-00-0008-79.png
9,747,1,1443632577793,1443632578114,970,481,0,0,0,2,3,1,23,0002-00-0003-07.png,0003-00-0001-81.png
9,748,1,1443632578132,1443632578814,951,454,0,0,0,4,3,1,43,0005-00-0009-35.png,0003-00-0001-98.png
9,749,1,1443632578839,1443632579067,907,437,0,0,0,1,2,1,12,0004-00-0007-37.png,0002-00-0004-60.png
9,750,1,1443632579098,1443632581092,911,327,0,0,0,5,4,1,54,0001-00-0009-26.png,0005-00-0001-63.png
9,751,1,1443632581116,1443632581174,959,377,0,0,0,3,2,1,32,0003-00-0000-93.png,0002-00-0008-84.png
9,752,0,1443632581198,1443632581269,914,468,0,0,0,5,4,1,54,0001-00-0005-20.png,0005-00-0008-67.png
9,753,1,1443632581289,1443632581654,403,403,0,0,0,1,2,1,12,0004-00-0008-12.png,0002-00-0002-96.png
9,754,1,1443632581690,1443632581783,1002,557,0,0,0,3,4,1,34,0003-00-0003-35.png,0005-00-0003-16.png
9,755,0,1443632581809,1443632581918,862,462,0,0,0,5,4,1,54,0001-00-0003-18.png,0005-00-0003-05.png
9,756,0,1443632581952,1443632583912,872,441,0,0,0,3,2,1,32,0003-00-0000-01.png,0002-00-0005-71.png
9,757,1,1443632583933,1443632583973,1092,288,0,0,0,5,4,1,54,0001-00-0009-30.png,0005-00-0006-77.png
9,758,1,1443632583993,1443632584447,870,352,0,0,0,4,3,1,43,0005-00-0007-86.png,0003-00-0002-32.png
9,759,0,1443632584481,1443632585030,885,379,0,0,0,2,1,1,21,0002-00-0004-82.png,0004-00-0008-93.png
9,760,0,1443632585060,1443632586940,964,320,0,0,0,2,3,1,23,0002-00-0003-94.png,0003-00-0009-82.png
9,761,0,1443632586974,1443632587101,951,488,0,0,0,5,4,1,54,0001-00-0008-02.png,0005-00-0001-95.png
9,762,1,1443632587138,1443632588457,886,489,0,0,0,1,2,1,12,0004-00-0008-90.png,0002-00-0004-65.png
9,763,1,1443632588484,1443632593512,881,490,0,0,0,2,1,1,21,0002-00-0008-04.png,0004-00-0002-14.png
9,764,1,1443632593535,1443632593659,383,387,0,0,0,5,4,1,54,0001-00-0005-32.png,0005-00-0003-12.png
9,765,1,1443632593679,1443632596655,892,496,0,0,0,2,3,1,23,0002-00-0001-17.png,0003-00-0007-35.png
9,766,0,1443632596684,1443632597486,913,541,0,0,0,3,4,1,34,0003-00-0003-43.png,0005-00-0000-46.png
9,767,0,1443632597510,1443632597993,949,352,0,0,0,3,2,1,32,0003-00-0009-04.png,0002-00-0004-75.png
9,768,0,1443632598012,1443632599143,459,286,0,0,0,4,3,1,43,0005-00-0003-47.png,0003-00-0009-56.png
9,769,1,1443632599181,1443632600071,482,292,0,0,0,1,2,1,12,0004-00-0006-44.png,0002-00-0007-60.png
9,770,0,1443632600108,1443632600293,867,397,0,0,0,2,3,1,23,0002-00-0009-55.png,0003-00-0000-21.png
9,771,0,1443632600322,1443632600675,979,332,0,0,0,5,4,1,54,0001-00-0003-16.png,0005-00-0004-69.png
9,772,1,1443632600714,1443632609472,888,488,0,0,0,3,4,1,34,0003-00-0008-69.png,0005-00-0008-55.png
9,773,1,1443632609500,1443632609902,902,436,0,0,0,2,1,1,21,0002-00-0009-76.png,0004-00-0009-65.png
9,774,0,1443632609928,1443632610130,898,355,0,0,0,5,4,1,54,0001-00-0009-87.png,0005-00-0001-99.png
9,775,0,1443632610149,1443632610287,487,280,0,0,0,4,3,1,43,0005-00-0006-56.png,0003-00-0006-12.png
9,776,1,1443632610318,1443632610553,938,430,0,0,0,3,2,1,32,0003-00-0006-71.png,0002-00-0003-69.png
9,777,1,1443632610580,1443632610598,886,493,0,0,0,2,1,1,21,0002-00-0005-19.png,0004-00-0008-17.png
9,778,1,1443632610626,1443632613543,862,410,0,0,0,3,2,1,32,0003-00-0005-93.png,0002-00-0008-47.png
9,779,1,1443632613575,1443632613873,871,377,0,0,0,4,3,1,43,0005-00-0008-54.png,0003-00-0002-50.png
9,780,0,1443632613920,1443632614306,488,264,0,0,0,5,4,1,54,0001-00-0008-62.png,0005-00-0006-56.png
9,781,0,1443632614326,1443632616200,900,352,0,0,0,3,4,1,34,0003-00-0002-31.png,0005-00-0009-57.png
9,782,0,1443632616242,1443632616522,990,502,0,0,0,1,2,1,12,0004-00-0006-97.png,0002-00-0005-42.png
9,783,1,1443632616546,1443632616744,1075,312,0,0,0,5,4,1,54,0001-00-0009-83.png,0005-00-0000-86.png
9,784,1,1443632616772,1443632619460,887,397,0,0,0,2,3,1,23,0002-00-0003-51.png,0003-00-0005-58.png
9,785,0,1443632619489,1443632629206,900,430,0,0,0,2,3,1,23,0002-00-0003-06.png,0003-00-0002-18.png
9,786,1,1443632629235,1443632629515,867,354,0,0,0,4,3,1,43,0005-00-0004-76.png,0003-00-0007-81.png
9,787,1,1443632629535,1443632630798,862,421,0,0,0,3,2,1,32,0003-00-0006-42.png,0002-00-0006-60.png
9,788,0,1443632630825,1443632631089,964,347,0,0,0,5,4,1,54,0001-00-0004-71.png,0005-00-0008-36.png
9,789,1,1443632631122,1443632631399,913,421,0,0,0,2,1,1,21,0002-00-0009-27.png,0004-00-0009-18.png
9,790,0,1443632631419,1443632632377,872,410,0,0,0,1,2,1,12,0004-00-0001-28.png,0002-00-0003-52.png
9,791,1,1443632632407,1443632632779,931,439,0,0,0,5,4,1,54,0001-00-0005-59.png,0005-00-0004-82.png
9,792,1,1443632632827,1443632633588,861,358,0,0,0,3,4,1,34,0003-00-0006-95.png,0005-00-0007-40.png
9,793,0,1443632633618,1443632633989,908,378,0,0,0,5,4,1,54,0001-00-0000-51.png,0005-00-0004-95.png
9,794,1,1443632634010,1443632634837,870,390,0,0,0,4,3,1,43,0005-00-0000-13.png,0003-00-0009-91.png
9,795,0,1443632634868,1443632634905,460,309,0,0,0,2,3,1,23,0002-00-0009-47.png,0003-00-0004-80.png
9,796,0,1443632634945,1443632636532,888,369,0,0,0,3,4,1,34,0003-00-0001-47.png,0005-00-0001-06.png
9,797,0,1443632636584,1443632637582,895,504,0,0,0,5,4,1,54,0001-00-0007-72.png,0005-00-0007-54.png
9,798,1,1443632637604,1443632637811,923,436,0,0,0,1,2,1,12,0004-00-0004-73.png,0002-00-0009-91.png
9,799,1,1443632637838,1443632638378,898,462,0,0,0,3,2,1,32,0003-00-0002-59.png,0002-00-0003-69.png
9,800,1,1443632638415,1443632638788,961,379,0,0,0,2,1,1,21,0002-00-0000-86.png,0004-00-0001-98.png
9,801,1,1443632638808,1443632639444,906,332,0,0,0,3,2,1,32,0003-00-0001-87.png,0002-00-0008-04.png
9,802,0,1443632639465,1443632640962,360,381,0,0,0,4,3,1,43,0005-00-0009-94.png,0003-00-0006-05.png
9,803,0,1443632641012,1443632641177,451,254,0,0,0,3,4,1,34,0003-00-0001-14.png,0005-00-0004-06.png
9,804,0,1443632641204,1443632641338,439,288,0,0,0,5,4,1,54,0001-00-0008-57.png,0005-00-0003-64.png
9,805,1,1443632641378,1443632642956,341,406,0,0,0,2,3,1,23,0002-00-0006-51.png,0003-00-0002-82.png
9,806,1,1443632642979,1443632644693,906,390,0,0,0,5,4,1,54,0001-00-0005-64.png,0005-00-0004-61.png
9,807,0,1443632644712,1443632644833,1041,279,0,0,0,2,1,1,21,0002-00-0004-05.png,0004-00-0003-67.png
9,808,0,1443632644856,1443632645554,863,318,0,0,0,1,2,1,12,0004-00-0008-40.png,0002-00-0004-98.png
9,809,0,1443632645583,1443632645696,862,410,0,0,0,3,4,1,34,0003-00-0000-36.png,0005-00-0003-49.png
9,810,0,1443632645743,1443632645812,1068,305,0,0,0,2,3,1,23,0002-00-0003-16.png,0003-00-0009-71.png
9,811,1,1443632645844,1443632646003,862,393,0,0,0,5,4,1,54,0001-00-0009-18.png,0005-00-0009-90.png
9,812,0,1443632646037,1443632646548,961,460,0,0,0,3,2,1,32,0003-00-0007-47.png,0002-00-0002-70.png
9,813,1,1443632646596,1443632646791,925,410,0,0,0,2,1,1,21,0002-00-0009-81.png,0004-00-0008-79.png
9,814,1,1443632646822,1443632647039,922,462,0,0,0,1,2,1,12,0004-00-0004-57.png,0002-00-0002-90.png
9,815,1,1443632647065,1443632649051,862,441,0,0,0,5,4,1,54,0001-00-0004-11.png,0005-00-0009-03.png
9,816,0,1443632649076,1443632649358,895,353,0,0,0,4,3,1,43,0005-00-0000-35.png,0003-00-0004-02.png
9,817,1,1443632649392,1443632649679,455,311,0,0,0,3,4,1,34,0003-00-0000-91.png,0005-00-0001-84.png
9,818,0,1443632649710,1443632650589,866,481,0,0,0,2,1,1,21,0002-00-0005-40.png,0004-00-0009-45.png
9,819,0,1443632650607,1443632650702,945,360,0,0,0,2,3,1,23,0002-00-0003-41.png,0003-00-0004-81.png
9,820,1,1443632650742,1443632653363,964,353,0,0,0,4,3,1,43,0005-00-0005-06.png,0003-00-0002-80.png
9,821,0,1443632653385,1443632653998,950,422,0,0,0,3,2,1,32,0003-00-0003-15.png,0002-00-0004-37.png
9,822,0,1443632654021,1443632654180,904,410,0,0,0,5,4,1,54,0001-00-0002-66.png,0005-00-0004-90.png
9,823,0,1443632654209,1443632654459,926,410,0,0,0,1,2,1,12,0004-00-0002-70.png,0002-00-0005-95.png
9,824,1,1443632654495,1443632654585,905,306,0,0,0,5,4,1,54,0001-00-0000-06.png,0005-00-0002-60.png
9,825,1,1443632654615,1443632654737,976,553,0,0,0,3,2,1,32,0003-00-0008-13.png,0002-00-0006-98.png
9,826,1,1443632654766,1443632663681,924,473,0,0,0,1,2,1,12,0004-00-0000-41.png,0002-00-0001-89.png
9,827,0,1443632663714,1443632664259,439,332,0,0,0,2,1,1,21,0002-00-0002-17.png,0004-00-0005-80.png
9,828,0,1443632664292,1443632664527,903,541,0,0,0,5,4,1,54,0001-00-0005-25.png,0005-00-0003-67.png
9,829,0,1443632664553,1443632664846,869,428,0,0,0,4,3,1,43,0005-00-0002-65.png,0003-00-0006-59.png
9,830,1,1443632664900,1443632664952,939,306,0,0,0,5,4,1,54,0001-00-0005-54.png,0005-00-0004-26.png
9,831,0,1443632664982,1443632665007,885,527,0,0,0,3,4,1,34,0003-00-0000-32.png,0005-00-0006-38.png
9,832,0,1443632665031,1443632665201,964,447,0,0,0,2,3,1,23,0002-00-0002-25.png,0003-00-0005-36.png
9,833,0,1443632665218,1443632665313,939,395,0,0,0,2,3,1,23,0002-00-0008-82.png,0003-00-0009-93.png
9,834,0,1443632665343,1443632665414,921,532,0,0,0,5,4,1,54,0001-00-0002-53.png,0005-00-0002-36.png
9,835,1,1443632665453,1443632666701,502,292,0,0,0,1,2,1,12,0004-00-0000-81.png,0002-00-0009-02.png
9,836,0,1443632666736,1443632669656,900,462,0,0,0,3,4,1,34,0003-00-0000-08.png,0005-00-0009-57.png
9,837,0,1443632669691,1443632670176,862,473,0,0,0,3,2,1,32,0003-00-0006-00.png,0002-00-0003-92.png
9,838,1,1443632670198,1443632670231,902,353,0,0,0,2,1,1,21,0002-00-0009-70.png,0004-00-0001-22.png
9,839,1,1443632670253,1443632671121,963,327,0,0,0,5,4,1,54,0001-00-0000-00.png,0005-00-0007-76.png
9,840,1,1443632671157,1443632672289,940,381,0,0,0,4,3,1,43,0005-00-0002-93.png,0003-00-0004-57.png
9,841,1,1443632672322,1443632672485,1092,296,0,0,0,4,3,1,43,0005-00-0001-26.png,0003-00-0001-71.png
9,842,0,1443632672527,1443632672673,1018,308,0,0,0,2,1,1,21,0002-00-0008-60.png,0004-00-0002-64.png
9,843,1,1443632672709,1443632673037,963,325,0,0,0,1,2,1,12,0004-00-0009-94.png,0002-00-0008-85.png
9,844,1,1443632673068,1443632673572,470,229,0,0,0,2,3,1,23,0002-00-0003-63.png,0003-00-0000-49.png
9,845,1,1443632673607,1443632673940,397,359,0,0,0,5,4,1,54,0001-00-0000-78.png,0005-00-0006-57.png
9,846,0,1443632673965,1443632674263,917,337,0,0,0,3,2,1,32,0003-00-0001-53.png,0002-00-0001-00.png
9,847,1,1443632674286,1443632674953,885,391,0,0,0,5,4,1,54,0001-00-0001-01.png,0005-00-0004-94.png
9,848,1,1443632674979,1443632675344,960,326,0,0,0,3,4,1,34,0003-00-0007-06.png,0005-00-0008-11.png
9,849,0,1443632675381,1443632676271,932,356,0,0,0,4,3,1,43,0005-00-0004-83.png,0003-00-0009-28.png
9,850,1,1443632676305,1443632676403,940,473,0,0,0,2,1,1,21,0002-00-0006-77.png,0004-00-0006-58.png
9,851,1,1443632676426,1443632677840,435,325,0,0,0,3,2,1,32,0003-00-0008-28.png,0002-00-0007-22.png
9,852,1,1443632677874,1443632677964,879,316,0,0,0,1,2,1,12,0004-00-0002-50.png,0002-00-0009-71.png
9,853,1,1443632678000,1443632678126,865,403,0,0,0,3,4,1,34,0003-00-0006-45.png,0005-00-0004-42.png
9,854,1,1443632678156,1443632679048,913,488,0,0,0,5,4,1,54,0001-00-0008-68.png,0005-00-0004-81.png
9,855,1,1443632679077,1443632679109,919,346,0,0,0,2,3,1,23,0002-00-0009-91.png,0003-00-0002-29.png
9,856,1,1443632679138,1443632679222,462,267,0,0,0,5,4,1,54,0001-00-0005-67.png,0005-00-0009-00.png
9,857,1,1443632679246,1443632679388,926,358,0,0,0,4,3,1,43,0005-00-0002-95.png,0003-00-0006-82.png
9,858,1,1443632679418,1443632679828,930,488,0,0,0,5,4,1,54,0001-00-0006-34.png,0005-00-0008-40.png
9,859,1,1443632679857,1443632683045,894,288,0,0,0,2,1,1,21,0002-00-0000-13.png,0004-00-0007-79.png
9,860,0,1443632683076,1443632683137,986,562,0,0,0,3,4,1,34,0003-00-0005-44.png,0005-00-0003-92.png
9,861,0,1443632683159,1443632683669,1032,309,0,0,0,5,4,1,54,0001-00-0002-77.png,0005-00-0007-36.png
9,862,0,1443632683697,1443632685853,939,476,0,0,0,1,2,1,12,0004-00-0005-20.png,0002-00-0007-61.png
9,863,1,1443632685884,1443632686536,408,401,0,0,0,3,2,1,32,0003-00-0007-43.png,0002-00-0008-44.png
9,864,1,1443632686577,1443632687456,872,349,0,0,0,2,3,1,23,0002-00-0001-91.png,0003-00-0001-35.png
9,865,1,1443632687498,1443632688618,441,294,0,0,0,3,4,1,34,0003-00-0009-75.png,0005-00-0004-55.png
9,866,0,1443632688648,1443632688885,1013,303,0,0,0,5,4,1,54,0001-00-0003-53.png,0005-00-0009-65.png
9,867,1,1443632688908,1443632689173,895,388,0,0,0,5,4,1,54,0001-00-0008-18.png,0005-00-0000-41.png
9,868,1,1443632689216,1443632689247,419,263,0,0,0,1,2,1,12,0004-00-0005-28.png,0002-00-0001-84.png
9,869,0,1443632689280,1443632697171,913,499,0,0,0,2,1,1,21,0002-00-0003-62.png,0004-00-0004-39.png
9,870,1,1443632697201,1443632697729,928,504,0,0,0,2,3,1,23,0002-00-0007-75.png,0003-00-0006-31.png
9,871,1,1443632697762,1443632698653,867,357,0,0,0,3,2,1,32,0003-00-0009-52.png,0002-00-0003-58.png
9,872,0,1443632698680,1443632698753,888,358,0,0,0,4,3,1,43,0005-00-0008-25.png,0003-00-0008-54.png
9,873,1,1443632698788,1443632699884,858,452,0,0,0,5,4,1,54,0001-00-0007-61.png,0005-00-0007-43.png
9,874,1,1443632699907,1443632699985,913,541,0,0,0,3,4,1,34,0003-00-0003-26.png,0005-00-0004-76.png
9,875,1,1443632700012,1443632701133,927,514,0,0,0,3,2,1,32,0003-00-0004-27.png,0002-00-0000-79.png
9,876,1,1443632701163,1443632701228,862,448,0,0,0,1,2,1,12,0004-00-0000-05.png,0002-00-0008-94.png
9,877,0,1443632701267,1443632702269,401,283,0,0,0,2,1,1,21,0002-00-0006-35.png,0004-00-0006-69.png
9,878,0,1443632702303,1443632702992,940,460,0,0,0,2,3,1,23,0002-00-0005-60.png,0003-00-0006-54.png
9,879,0,1443632703019,1443632703335,990,423,0,0,0,4,3,1,43,0005-00-0008-13.png,0003-00-0000-57.png
9,880,0,1443632703356,1443632703549,913,436,0,0,0,5,4,1,54,0001-00-0001-85.png,0005-00-0000-64.png
9,881,0,1443632703575,1443632703779,434,313,0,0,0,2,3,1,23,0002-00-0000-92.png,0003-00-0003-02.png
9,882,0,1443632703814,1443632704482,881,388,0,0,0,2,1,1,21,0002-00-0004-38.png,0004-00-0007-71.png
9,883,1,1443632704514,1443632704765,483,263,0,0,0,5,4,1,54,0001-00-0004-01.png,0005-00-0009-73.png
9,884,0,1443632704786,1443632705081,862,358,0,0,0,1,2,1,12,0004-00-0007-33.png,0002-00-0008-81.png
9,885,1,1443632705103,1443632705265,1045,309,0,0,0,5,4,1,54,0001-00-0000-84.png,0005-00-0007-70.png
9,886,0,1443632705287,1443632705520,905,328,0,0,0,3,2,1,32,0003-00-0003-77.png,0002-00-0007-57.png
9,887,1,1443632705552,1443632705805,912,421,0,0,0,4,3,1,43,0005-00-0007-07.png,0003-00-0001-57.png
9,888,0,1443632705843,1443632706184,1042,316,0,0,0,3,4,1,34,0003-00-0008-37.png,0005-00-0009-24.png
9,889,1,1443632706213,1443632706653,995,298,0,0,0,3,2,1,32,0003-00-0007-19.png,0002-00-0006-52.png
9,890,1,1443632706675,1443632706831,448,272,0,0,0,2,1,1,21,0002-00-0009-84.png,0004-00-0007-01.png
9,891,0,1443632706853,1443632706987,877,519,0,0,0,2,3,1,23,0002-00-0001-92.png,0003-00-0001-34.png
9,892,0,1443632707021,1443632707113,872,462,0,0,0,4,3,1,43,0005-00-0005-86.png,0003-00-0002-73.png
9,893,0,1443632707149,1443632708828,411,291,0,0,0,1,2,1,12,0004-00-0007-97.png,0002-00-0009-25.png
9,894,1,1443632708851,1443632709210,1011,280,0,0,0,3,4,1,34,0003-00-0009-82.png,0005-00-0008-53.png
9,895,0,1443632709228,1443632709406,890,516,0,0,0,5,4,1,54,0001-00-0004-35.png,0005-00-0004-69.png
9,896,1,1443632709434,1443632711567,385,425,0,0,0,5,4,1,54,0001-00-0007-19.png,0005-00-0008-90.png
9,897,1,1443632711597,1443632712935,917,357,0,0,0,5,4,1,54,0001-00-0006-12.png,0005-00-0009-25.png
9,898,0,1443632712973,1443632713288,1013,328,0,0,0,3,2,1,32,0003-00-0009-57.png,0002-00-0002-71.png
9,899,1,1443632713320,1443632715864,862,477,0,0,0,4,3,1,43,0005-00-0002-43.png,0003-00-0002-81.png
9,900,1,1443632715892,1443632715977,888,541,0,0,0,2,3,1,23,0002-00-0001-13.png,0003-00-0009-76.png
9,901,1,1443632716014,1443632716098,902,555,0,0,0,1,2,1,12,0004-00-0003-98.png,0002-00-0005-10.png
9,902,0,1443632716117,1443632716347,964,396,0,0,0,3,4,1,34,0003-00-0003-77.png,0005-00-0003-40.png
9,903,1,1443632716371,1443632717636,866,425,0,0,0,2,1,1,21,0002-00-0003-75.png,0004-00-0003-80.png
9,904,1,1443632717668,1443632721177,404,436,0,0,0,5,4,1,54,0001-00-0009-49.png,0005-00-0007-86.png
9,905,1,1443632721221,1443632721596,976,532,0,0,0,3,2,1,32,0003-00-0006-78.png,0002-00-0001-41.png
9,906,1,1443632721622,1443632721821,990,262,0,0,0,5,4,1,54,0001-00-0005-46.png,0005-00-0002-29.png
9,907,1,1443632721850,1443632728814,897,454,0,0,0,5,4,1,54,0001-00-0005-43.png,0005-00-0000-54.png
9,908,1,1443632728843,1443632729080,1067,304,0,0,0,1,2,1,12,0004-00-0006-90.png,0002-00-0007-61.png
9,909,0,1443632729100,1443632729803,891,400,0,0,0,2,1,1,21,0002-00-0007-38.png,0004-00-0007-70.png
9,910,1,1443632729828,1443632730036,877,341,0,0,0,3,4,1,34,0003-00-0006-32.png,0005-00-0002-00.png
9,911,0,1443632730072,1443632730711,453,279,0,0,0,2,3,1,23,0002-00-0008-84.png,0003-00-0005-77.png
9,912,0,1443632730731,1443632731117,951,553,0,0,0,4,3,1,43,0005-00-0002-17.png,0003-00-0003-28.png
9,913,1,1443632731150,1443632731307,888,436,0,0,0,1,2,1,12,0004-00-0009-84.png,0002-00-0008-85.png
9,914,1,1443632731348,1443632732196,1037,330,0,0,0,2,3,1,23,0002-00-0003-78.png,0003-00-0002-48.png
9,915,1,1443632732225,1443632732741,1022,297,0,0,0,3,4,1,34,0003-00-0000-41.png,0005-00-0005-38.png
9,916,1,1443632732762,1443632733009,487,246,0,0,0,3,2,1,32,0003-00-0007-67.png,0002-00-0004-60.png
9,917,1,1443632733048,1443632733764,868,321,0,0,0,5,4,1,54,0001-00-0002-22.png,0005-00-0005-03.png
9,918,1,1443632733799,1443632734657,888,306,0,0,0,5,4,1,54,0001-00-0009-03.png,0005-00-0004-82.png
9,919,1,1443632734694,1443632735588,445,299,0,0,0,2,1,1,21,0002-00-0001-62.png,0004-00-0008-09.png
9,920,1,1443632735622,1443632736353,888,449,0,0,0,4,3,1,43,0005-00-0005-72.png,0003-00-0008-66.png
9,921,0,1443632736378,1443632736582,868,451,0,0,0,2,3,1,23,0002-00-0003-17.png,0003-00-0008-23.png
9,922,0,1443632736610,1443632736663,1058,308,0,0,0,3,2,1,32,0003-00-0004-86.png,0002-00-0004-87.png
9,923,0,1443632736694,1443632737483,948,506,0,0,0,5,4,1,54,0001-00-0009-98.png,0005-00-0008-87.png
9,924,0,1443632737506,1443632740593,937,377,0,0,0,5,4,1,54,0001-00-0002-27.png,0005-00-0006-88.png
9,925,1,1443632740623,1443632741664,946,368,0,0,0,3,4,1,34,0003-00-0006-09.png,0005-00-0003-07.png
9,926,1,1443632741693,1443632742172,924,552,0,0,0,1,2,1,12,0004-00-0000-45.png,0002-00-0007-54.png
9,927,1,1443632742194,1443632742429,891,280,0,0,0,4,3,1,43,0005-00-0009-46.png,0003-00-0004-13.png
9,928,1,1443632742457,1443632743229,867,353,0,0,0,2,1,1,21,0002-00-0007-52.png,0004-00-0008-81.png
9,929,0,1443632743259,1443632743370,1022,323,0,0,0,1,2,1,12,0004-00-0002-86.png,0002-00-0006-62.png
9,930,1,1443632743404,1443632744354,926,408,0,0,0,2,1,1,21,0002-00-0004-23.png,0004-00-0009-16.png
9,931,0,1443632744405,1443632745385,394,367,0,0,0,2,3,1,23,0002-00-0008-63.png,0003-00-0007-52.png
9,932,0,1443632745424,1443632748387,873,380,0,0,0,3,4,1,34,0003-00-0007-62.png,0005-00-0009-46.png
9,933,1,1443632748409,1443632748851,888,396,0,0,0,5,4,1,54,0001-00-0006-08.png,0005-00-0000-51.png
9,934,0,1443632748871,1443632749218,477,262,0,0,0,5,4,1,54,0001-00-0002-59.png,0005-00-0000-81.png
9,935,1,1443632749242,1443632749438,889,387,0,0,0,4,3,1,43,0005-00-0009-60.png,0003-00-0009-26.png
9,936,1,1443632749465,1443632750517,1001,305,0,0,0,3,2,1,32,0003-00-0000-21.png,0002-00-0002-48.png
9,937,0,1443632750536,1443632751376,447,314,0,0,0,5,4,1,54,0001-00-0002-22.png,0005-00-0005-93.png
9,938,1,1443632751405,1443632751739,451,267,0,0,0,1,2,1,12,0004-00-0000-85.png,0002-00-0008-69.png
9,939,1,1443632751761,1443632751979,916,316,0,0,0,4,3,1,43,0005-00-0001-95.png,0003-00-0001-26.png
9,940,1,1443632752004,1443632753359,989,414,0,0,0,2,3,1,23,0002-00-0008-94.png,0003-00-0001-41.png
9,941,0,1443632753375,1443632753442,389,378,0,0,0,5,4,1,54,0001-00-0002-34.png,0005-00-0009-52.png
9,942,1,1443632753471,1443632753847,888,358,0,0,0,3,2,1,32,0003-00-0003-19.png,0002-00-0009-26.png
9,943,0,1443632753871,1443632754047,341,366,0,0,0,2,1,1,21,0002-00-0007-31.png,0004-00-0002-41.png
9,944,1,1443632754082,1443632755238,461,279,0,0,0,3,4,1,34,0003-00-0009-22.png,0005-00-0002-76.png
9,945,1,1443632755262,1443632755439,479,251,0,0,0,2,3,1,23,0002-00-0006-96.png,0003-00-0004-48.png
9,946,1,1443632755476,1443632756687,484,260,0,0,0,1,2,1,12,0004-00-0005-37.png,0002-00-0008-54.png
9,947,1,1443632756707,1443632756791,864,288,0,0,0,5,4,1,54,0001-00-0008-44.png,0005-00-0009-61.png
9,948,0,1443632756829,1443632758217,931,382,0,0,0,3,4,1,34,0003-00-0007-77.png,0005-00-0002-28.png
9,949,0,1443632758260,1443632758416,893,356,0,0,0,3,2,1,32,0003-00-0008-83.png,0002-00-0005-04.png
9,950,0,1443632758432,1443632758490,436,305,0,0,0,4,3,1,43,0005-00-0000-02.png,0003-00-0009-01.png
9,951,1,1443632758511,1443632758575,919,443,0,0,0,2,1,1,21,0002-00-0001-71.png,0004-00-0000-13.png
9,952,1,1443632758600,1443632759205,944,405,0,0,0,5,4,1,54,0001-00-0000-68.png,0005-00-0004-96.png
9,953,1,1443632759240,1443632759285,1012,523,0,0,0,1,2,1,12,0004-00-0002-55.png,0002-00-0009-29.png
9,954,0,1443632759315,1443632759473,944,360,0,0,0,5,4,1,54,0001-00-0005-42.png,0005-00-0002-82.png
9,955,1,1443632759504,1443632759787,862,374,0,0,0,2,1,1,21,0002-00-0002-18.png,0004-00-0004-46.png
9,956,0,1443632759805,1443632759894,497,252,0,0,0,2,3,1,23,0002-00-0002-32.png,0003-00-0008-56.png
9,957,0,1443632759941,1443632760065,991,324,0,0,0,5,4,1,54,0001-00-0008-58.png,0005-00-0001-37.png
9,958,1,1443632760093,1443632760875,468,303,0,0,0,3,2,1,32,0003-00-0007-31.png,0002-00-0001-57.png
9,959,0,1443632760903,1443632761271,466,274,0,0,0,3,4,1,34,0003-00-0007-64.png,0005-00-0002-08.png
9,960,0,1443632761298,1443632761585,1067,267,0,0,0,4,3,1,43,0005-00-0006-46.png,0003-00-0003-32.png
9,961,1,1443632761613,1443632762331,444,353,0,0,0,3,2,1,32,0003-00-0009-22.png,0002-00-0000-86.png
9,962,1,1443632762354,1443632767358,888,541,0,0,0,2,3,1,23,0002-00-0000-93.png,0003-00-0001-87.png
9,963,1,1443632767395,1443632767960,861,475,0,0,0,1,2,1,12,0004-00-0005-92.png,0002-00-0008-96.png
9,964,1,1443632767983,1443632768357,964,398,0,0,0,4,3,1,43,0005-00-0003-43.png,0003-00-0003-24.png
9,965,1,1443632768391,1443632768731,364,411,0,0,0,5,4,1,54,0001-00-0003-81.png,0005-00-0007-80.png
9,966,1,1443632768751,1443632768885,471,264,0,0,0,3,4,1,34,0003-00-0002-10.png,0005-00-0008-86.png
9,967,0,1443632768913,1443632770028,956,475,0,0,0,5,4,1,54,0001-00-0007-84.png,0005-00-0000-79.png
9,968,1,1443632770062,1443632772668,896,415,0,0,0,2,1,1,21,0002-00-0008-70.png,0004-00-0007-76.png
9,969,1,1443632772702,1443632773050,863,519,0,0,0,5,4,1,54,0001-00-0006-91.png,0005-00-0009-38.png
9,970,0,1443632773087,1443632773526,513,303,0,0,0,2,1,1,21,0002-00-0007-31.png,0004-00-0008-56.png
9,971,0,1443632773543,1443632773940,483,276,0,0,0,5,4,1,54,0001-00-0001-13.png,0005-00-0009-09.png
9,972,1,1443632773980,1443632775048,514,296,0,0,0,3,4,1,34,0003-00-0005-89.png,0005-00-0002-87.png
9,973,1,1443632775076,1443632775973,455,274,0,0,0,4,3,1,43,0005-00-0002-35.png,0003-00-0000-19.png
9,974,0,1443632775997,1443632777342,937,395,0,0,0,2,3,1,23,0002-00-0006-53.png,0003-00-0000-50.png
9,975,1,1443632777360,1443632777732,394,411,0,0,0,3,2,1,32,0003-00-0004-95.png,0002-00-0003-86.png
9,976,1,1443632777746,1443632779826,930,522,0,0,0,1,2,1,12,0004-00-0003-71.png,0002-00-0008-58.png
9,977,0,1443632779851,1443632780460,450,293,0,0,0,1,2,1,12,0004-00-0002-69.png,0002-00-0000-79.png
9,978,1,1443632780493,1443632780522,862,371,0,0,0,3,4,1,34,0003-00-0001-77.png,0005-00-0006-04.png
9,979,0,1443632780555,1443632780808,888,410,0,0,0,2,1,1,21,0002-00-0000-70.png,0004-00-0008-18.png
9,980,0,1443632780840,1443632781901,1043,301,0,0,0,2,3,1,23,0002-00-0006-73.png,0003-00-0004-14.png
9,981,0,1443632781937,1443632783824,862,395,0,0,0,3,2,1,32,0003-00-0008-16.png,0002-00-0005-75.png
9,982,1,1443632783849,1443632784193,1011,563,0,0,0,5,4,1,54,0001-00-0009-46.png,0005-00-0007-35.png
9,983,1,1443632784239,1443632784453,389,397,0,0,0,5,4,1,54,0001-00-0006-67.png,0005-00-0008-36.png
9,984,1,1443632784476,1443632784955,896,396,0,0,0,4,3,1,43,0005-00-0004-07.png,0003-00-0004-96.png
9,985,1,1443632784985,1443632786639,439,276,0,0,0,2,1,1,21,0002-00-0005-79.png,0004-00-0002-84.png
9,986,1,1443632786672,1443632787090,882,396,0,0,0,3,4,1,34,0003-00-0006-21.png,0005-00-0006-79.png
9,987,1,1443632787120,1443632787962,876,449,0,0,0,1,2,1,12,0004-00-0008-38.png,0002-00-0002-61.png
9,988,0,1443632787984,1443632800455,951,365,0,0,0,5,4,1,54,0001-00-0005-49.png,0005-00-0003-34.png
9,989,0,1443632800477,1443632801870,888,462,0,0,0,2,3,1,23,0002-00-0003-92.png,0003-00-0006-10.png
9,990,1,1443632801900,1443632802069,897,532,0,0,0,3,2,1,32,0003-00-0004-13.png,0002-00-0008-45.png
9,991,1,1443632802088,1443632802686,886,347,0,0,0,5,4,1,54,0001-00-0009-37.png,0005-00-0005-33.png
9,992,1,1443632802711,1443632802788,899,332,0,0,0,4,3,1,43,0005-00-0007-02.png,0003-00-0004-56.png
9,993,1,1443632802813,1443632803077,860,413,0,0,0,5,4,1,54,0001-00-0006-54.png,0005-00-0006-37.png
9,994,1,1443632803108,1443632803734,861,463,0,0,0,4,3,1,43,0005-00-0006-36.png,0003-00-0001-20.png
9,995,1,1443632803756,1443632803829,959,355,0,0,0,5,4,1,54,0001-00-0003-29.png,0005-00-0007-58.png
9,996,0,1443632803860,1443632806633,888,463,0,0,0,3,4,1,34,0003-00-0000-37.png,0005-00-0000-72.png
9,997,1,1443632806664,1443632807013,465,290,0,0,0,2,3,1,23,0002-00-0004-74.png,0003-00-0004-09.png
9,998,1,1443632807057,1443632807673,1025,242,0,0,0,2,1,1,21,0002-00-0009-52.png,0004-00-0003-75.png
