subject_id,trial,correct_response,stim_time,response_time,x_coord,y_coord,trial_timeout,timeout_time,interTrial_timeout,left_rank,right_rank,distance,joint_rank,left_image,right_image
14,1,1,1443541620032,1443541620292,967,483,0,0,0,5,4,1,54,0001-00-0009-04.png,0005-00-0008-04.png
14,2,0,1443541620317,1443541620765,976,344,0,0,0,3,4,1,34,0003-00-0003-28.png,0005-00-0002-02.png
14,3,0,1443541620789,1443541621235,342,416,0,0,0,1,2,1,12,0004-00-0009-71.png,0002-00-0000-25.png
14,4,1,1443541621262,1443541621679,325,358,0,0,0,4,3,1,43,0005-00-0003-29.png,0003-00-0004-52.png
14,5,1,1443541621703,1443541622034,954,438,0,0,0,5,4,1,54,0001-00-0000-43.png,0005-00-0003-78.png
14,6,1,1443541622065,1443541622360,949,431,0,0,0,2,3,1,23,0002-00-0005-35.png,0003-00-0005-35.png
14,7,0,1443541622385,1443541622755,376,306,0,0,0,3,2,1,32,0003-00-0001-02.png,0002-00-0006-61.png
14,8,1,1443541622790,1443541623487,874,333,0,0,0,2,1,1,21,0002-00-0006-60.png,0004-00-0004-97.png
14,9,1,1443541623528,1443541623796,901,502,0,0,0,2,1,1,21,0002-00-0002-13.png,0004-00-0006-70.png
14,10,0,1443541623823,1443541624338,949,440,0,0,0,5,4,1,54,0001-00-0004-55.png,0005-00-0005-85.png
14,11,0,1443541624364,1443541624607,864,416,0,0,0,1,2,1,12,0004-00-0007-09.png,0002-00-0009-02.png
14,12,1,1443541624647,1443541624945,964,358,0,0,0,4,3,1,43,0005-00-0004-14.png,0003-00-0004-84.png
14,13,0,1443541624987,1443541625223,926,267,0,0,0,3,2,1,32,0003-00-0008-00.png,0002-00-0004-72.png
14,14,0,1443541625259,1443541625513,345,426,0,0,0,2,3,1,23,0002-00-0003-02.png,0003-00-0003-43.png
14,15,1,1443541625548,1443541626603,273,423,0,0,0,5,4,1,54,0001-00-0004-40.png,0005-00-0008-70.png
14,16,0,1443541626626,1443541627277,930,375,0,0,0,3,4,1,34,0003-00-0007-85.png,0005-00-0004-83.png
14,17,0,1443541627304,1443541627663,888,386,0,0,0,3,4,1,34,0003-00-0009-71.png,0005-00-0002-59.png
14,18,0,1443541627699,1443541628009,915,449,0,0,0,2,3,1,23,0002-00-0003-74.png,0003-00-0000-17.png
14,19,0,1443541628043,1443541628689,290,403,0,0,0,3,2,1,32,0003-00-0003-20.png,0002-00-0000-47.png
14,20,1,1443541628719,1443541629394,514,522,0,0,0,5,4,1,54,0001-00-0004-31.png,0005-00-0001-74.png
14,21,0,1443541629427,1443541630031,350,358,0,0,0,5,4,1,54,0001-00-0006-54.png,0005-00-0003-63.png
14,22,0,1443541630061,1443541630640,942,478,0,0,0,4,3,1,43,0005-00-0000-79.png,0003-00-0001-15.png
14,23,1,1443541630654,1443541631240,963,398,0,0,0,1,2,1,12,0004-00-0008-70.png,0002-00-0009-30.png
14,24,1,1443541631275,1443541632010,371,386,0,0,0,2,1,1,21,0002-00-0002-17.png,0004-00-0003-40.png
14,25,1,1443541632037,1443541632444,299,397,0,0,0,2,1,1,21,0002-00-0005-20.png,0004-00-0009-49.png
14,26,0,1443541632475,1443541633145,875,299,0,0,0,5,4,1,54,0001-00-0005-15.png,0005-00-0000-28.png
14,27,0,1443541633162,1443541633766,952,436,0,0,0,5,4,1,54,0001-00-0005-75.png,0005-00-0007-20.png
14,28,0,1443541633801,1443541634560,331,415,0,0,0,2,3,1,23,0002-00-0000-36.png,0003-00-0009-17.png
14,29,0,1443541634589,1443541635248,885,341,0,0,0,4,3,1,43,0005-00-0005-12.png,0003-00-0004-13.png
14,30,1,1443541635285,1443541635560,330,452,0,0,0,3,2,1,32,0003-00-0002-25.png,0002-00-0002-23.png
14,31,1,1443541635591,1443541636422,317,394,0,0,0,3,4,1,34,0003-00-0003-28.png,0005-00-0004-02.png
14,32,0,1443541636450,1443541637016,338,332,0,0,0,1,2,1,12,0004-00-0003-81.png,0002-00-0009-03.png
14,33,0,1443541637051,1443541637303,320,406,0,0,0,5,4,1,54,0001-00-0001-26.png,0005-00-0005-43.png
14,34,1,1443541637329,1443541637764,895,335,0,0,0,3,2,1,32,0003-00-0005-22.png,0002-00-0008-13.png
14,35,0,1443541637796,1443541638495,948,392,0,0,0,2,1,1,21,0002-00-0000-00.png,0004-00-0005-03.png
14,36,1,1443541638525,1443541639535,976,463,0,0,0,5,4,1,54,0001-00-0006-73.png,0005-00-0005-33.png
14,37,1,1443541639571,1443541640197,869,342,0,0,0,2,3,1,23,0002-00-0000-43.png,0003-00-0009-04.png
14,38,0,1443541640229,1443541640781,324,398,0,0,0,3,4,1,34,0003-00-0005-22.png,0005-00-0004-84.png
14,39,0,1443541640816,1443541641196,376,358,0,0,0,1,2,1,12,0004-00-0001-74.png,0002-00-0001-37.png
14,40,0,1443541641225,1443541641704,959,363,0,0,0,4,3,1,43,0005-00-0004-81.png,0003-00-0007-10.png
14,41,1,1443541641733,1443541642250,453,447,0,0,0,5,4,1,54,0001-00-0006-62.png,0005-00-0001-63.png
14,42,0,1443541642289,1443541642702,862,341,0,0,0,4,3,1,43,0005-00-0002-72.png,0003-00-0001-17.png
14,43,1,1443541642736,1443541643150,317,394,0,0,0,2,1,1,21,0002-00-0008-87.png,0004-00-0004-26.png
14,44,0,1443541643175,1443541643381,350,358,0,0,0,2,3,1,23,0002-00-0001-39.png,0003-00-0009-65.png
14,45,1,1443541643410,1443541643590,362,332,0,0,0,3,4,1,34,0003-00-0005-72.png,0005-00-0000-25.png
14,46,0,1443541643624,1443541643994,492,462,0,0,0,1,2,1,12,0004-00-0009-51.png,0002-00-0002-60.png
14,47,0,1443541644036,1443541644664,900,436,0,0,0,5,4,1,54,0001-00-0007-39.png,0005-00-0001-46.png
14,48,0,1443541644714,1443541645726,906,407,0,0,0,3,2,1,32,0003-00-0007-76.png,0002-00-0005-80.png
14,49,1,1443541645762,1443541646073,340,366,0,0,0,4,3,1,43,0005-00-0005-08.png,0003-00-0005-47.png
14,50,1,1443541646101,1443541646567,896,466,0,0,0,3,4,1,34,0003-00-0004-07.png,0005-00-0000-33.png
14,51,1,1443541646597,1443541647110,339,425,0,0,0,5,4,1,54,0001-00-0001-46.png,0005-00-0000-79.png
14,52,0,1443541647134,1443541648362,872,382,0,0,0,1,2,1,12,0004-00-0007-75.png,0002-00-0002-18.png
14,53,0,1443541648388,1443541648845,923,459,0,0,0,2,3,1,23,0002-00-0002-59.png,0003-00-0004-28.png
14,54,0,1443541648881,1443541649123,903,387,0,0,0,3,2,1,32,0003-00-0003-64.png,0002-00-0004-42.png
14,55,1,1443541649158,1443541649830,365,436,0,0,0,2,1,1,21,0002-00-0002-23.png,0004-00-0008-54.png
14,56,0,1443541649868,1443541650663,496,454,0,0,0,5,4,1,54,0001-00-0001-63.png,0005-00-0004-28.png
14,57,0,1443541650689,1443541651299,337,345,0,0,0,2,1,1,21,0002-00-0001-05.png,0004-00-0003-60.png
14,58,1,1443541651335,1443541651650,951,280,0,0,0,3,4,1,34,0003-00-0002-64.png,0005-00-0004-09.png
14,59,1,1443541651671,1443541652438,941,421,0,0,0,2,3,1,23,0002-00-0003-77.png,0003-00-0007-99.png
14,60,1,1443541652452,1443541652803,977,371,0,0,0,5,4,1,54,0001-00-0005-22.png,0005-00-0006-88.png
14,61,1,1443541652828,1443541652942,910,333,0,0,0,5,4,1,54,0001-00-0003-88.png,0005-00-0001-85.png
14,62,1,1443541652970,1443541653222,514,522,0,0,0,3,2,1,32,0003-00-0004-68.png,0002-00-0008-60.png
14,63,0,1443541653258,1443541653536,298,353,0,0,0,4,3,1,43,0005-00-0001-08.png,0003-00-0005-71.png
14,64,0,1443541653567,1443541654450,490,494,0,0,0,1,2,1,12,0004-00-0003-66.png,0002-00-0006-17.png
14,65,1,1443541654484,1443541654901,971,450,0,0,0,2,1,1,21,0002-00-0002-14.png,0004-00-0009-05.png
14,66,0,1443541654932,1443541655937,887,319,0,0,0,5,4,1,54,0001-00-0001-05.png,0005-00-0001-70.png
14,67,1,1443541655964,1443541656546,381,468,0,0,0,2,3,1,23,0002-00-0006-15.png,0003-00-0000-19.png
14,68,0,1443541656568,1443541657214,307,394,0,0,0,4,3,1,43,0005-00-0000-40.png,0003-00-0007-98.png
14,69,0,1443541657235,1443541657696,465,452,0,0,0,5,4,1,54,0001-00-0008-28.png,0005-00-0001-57.png
14,70,0,1443541657737,1443541658089,386,443,0,0,0,3,2,1,32,0003-00-0006-17.png,0002-00-0002-52.png
14,71,1,1443541658116,1443541658450,311,370,0,0,0,3,4,1,34,0003-00-0001-27.png,0005-00-0001-19.png
14,72,0,1443541658479,1443541658659,265,375,0,0,0,1,2,1,12,0004-00-0004-37.png,0002-00-0007-52.png
14,73,0,1443541658695,1443541659036,376,358,0,0,0,5,4,1,54,0001-00-0007-18.png,0005-00-0003-30.png
14,74,0,1443541659059,1443541659668,388,464,0,0,0,2,3,1,23,0002-00-0007-46.png,0003-00-0003-23.png
14,75,0,1443541659696,1443541660062,350,358,0,0,0,1,2,1,12,0004-00-0007-81.png,0002-00-0000-16.png
14,76,0,1443541660099,1443541660599,352,378,0,0,0,4,3,1,43,0005-00-0008-68.png,0003-00-0003-76.png
14,77,1,1443541660637,1443541661347,930,375,0,0,0,3,4,1,34,0003-00-0004-11.png,0005-00-0001-01.png
14,78,0,1443541661409,1443541661978,273,371,0,0,0,5,4,1,54,0001-00-0007-74.png,0005-00-0004-87.png
14,79,0,1443541662006,1443541662593,912,450,0,0,0,2,1,1,21,0002-00-0007-80.png,0004-00-0007-15.png
14,80,0,1443541662627,1443541663261,889,312,0,0,0,3,2,1,32,0003-00-0005-35.png,0002-00-0000-94.png
14,81,0,1443541663294,1443541663955,406,459,0,0,0,2,1,1,21,0002-00-0003-97.png,0004-00-0008-26.png
14,82,1,1443541663990,1443541664199,392,467,0,0,0,5,4,1,54,0001-00-0007-08.png,0005-00-0003-75.png
14,83,0,1443541664220,1443541664695,417,495,0,0,0,3,2,1,32,0003-00-0000-26.png,0002-00-0008-07.png
14,84,1,1443541664714,1443541665535,953,442,0,0,0,2,3,1,23,0002-00-0000-90.png,0003-00-0004-20.png
14,85,0,1443541665585,1443541666044,950,438,0,0,0,3,4,1,34,0003-00-0009-89.png,0005-00-0002-60.png
14,86,1,1443541666073,1443541666635,494,435,0,0,0,5,4,1,54,0001-00-0005-40.png,0005-00-0009-86.png
14,87,1,1443541666659,1443541667127,344,369,0,0,0,1,2,1,12,0004-00-0006-70.png,0002-00-0006-75.png
14,88,0,1443541667167,1443541667433,965,482,0,0,0,4,3,1,43,0005-00-0008-46.png,0003-00-0008-83.png
14,89,1,1443541667479,1443541668494,385,378,0,0,0,5,4,1,54,0001-00-0009-51.png,0005-00-0001-36.png
14,90,1,1443541668519,1443541668941,379,381,0,0,0,2,1,1,21,0002-00-0001-64.png,0004-00-0007-62.png
14,91,0,1443541668984,1443541669406,873,329,0,0,0,1,2,1,12,0004-00-0009-18.png,0002-00-0001-31.png
14,92,1,1443541669431,1443541669921,902,466,0,0,0,2,3,1,23,0002-00-0000-17.png,0003-00-0007-12.png
14,93,1,1443541669950,1443541670476,386,377,0,0,0,4,3,1,43,0005-00-0005-07.png,0003-00-0009-96.png
14,94,1,1443541670516,1443541671033,450,471,0,0,0,3,2,1,32,0003-00-0006-36.png,0002-00-0000-53.png
14,95,1,1443541671057,1443541671784,925,436,0,0,0,5,4,1,54,0001-00-0007-10.png,0005-00-0000-47.png
14,96,1,1443541671810,1443541672535,519,397,0,0,0,3,4,1,34,0003-00-0007-69.png,0005-00-0004-01.png
14,97,1,1443541672562,1443541673301,360,367,0,0,0,5,4,1,54,0001-00-0003-40.png,0005-00-0006-78.png
14,98,0,1443541673333,1443541673577,926,456,0,0,0,2,3,1,23,0002-00-0000-44.png,0003-00-0000-66.png
14,99,0,1443541673621,1443541673956,901,437,0,0,0,1,2,1,12,0004-00-0007-85.png,0002-00-0001-29.png
14,100,1,1443541673985,1443541674521,413,450,0,0,0,5,4,1,54,0001-00-0007-88.png,0005-00-0000-27.png
14,101,0,1443541674554,1443541674788,943,445,0,0,0,3,2,1,32,0003-00-0003-30.png,0002-00-0001-96.png
14,102,0,1443541674829,1443541676047,293,383,0,0,0,4,3,1,43,0005-00-0008-03.png,0003-00-0005-16.png
14,103,1,1443541676081,1443541676352,932,376,0,0,0,2,1,1,21,0002-00-0000-27.png,0004-00-0001-52.png
14,104,1,1443541676384,1443541676618,952,378,0,0,0,3,4,1,34,0003-00-0004-16.png,0005-00-0002-56.png
14,105,0,1443541676640,1443541676938,304,385,0,0,0,5,4,1,54,0001-00-0009-89.png,0005-00-0006-83.png
14,106,1,1443541676969,1443541677427,292,388,0,0,0,5,4,1,54,0001-00-0007-95.png,0005-00-0006-29.png
14,107,1,1443541677446,1443541677636,973,446,0,0,0,3,2,1,32,0003-00-0008-38.png,0002-00-0000-68.png
14,108,1,1443541677661,1443541677910,299,379,0,0,0,4,3,1,43,0005-00-0008-97.png,0003-00-0001-62.png
14,109,0,1443541677971,1443541678360,515,448,0,0,0,1,2,1,12,0004-00-0007-35.png,0002-00-0007-34.png
14,110,0,1443541678382,1443541679288,393,404,0,0,0,2,1,1,21,0002-00-0005-89.png,0004-00-0006-95.png
14,111,1,1443541679322,1443541680032,902,345,0,0,0,2,3,1,23,0002-00-0003-92.png,0003-00-0002-49.png
14,112,0,1443541680066,1443541680556,522,415,0,0,0,3,4,1,34,0003-00-0006-43.png,0005-00-0005-28.png
14,113,1,1443541680592,1443541681174,514,415,0,0,0,5,4,1,54,0001-00-0002-06.png,0005-00-0005-21.png
14,114,0,1443541681217,1443541681750,297,324,0,0,0,5,4,1,54,0001-00-0007-81.png,0005-00-0003-03.png
14,115,1,1443541681778,1443541682335,311,361,0,0,0,3,2,1,32,0003-00-0007-05.png,0002-00-0004-26.png
14,116,0,1443541682355,1443541682635,459,352,0,0,0,2,1,1,21,0002-00-0006-05.png,0004-00-0003-23.png
14,117,1,1443541682662,1443541683077,214,416,0,0,0,1,2,1,12,0004-00-0008-33.png,0002-00-0002-94.png
14,118,0,1443541683124,1443541683643,388,477,0,0,0,4,3,1,43,0005-00-0005-29.png,0003-00-0006-49.png
14,119,0,1443541683662,1443541684636,956,448,0,0,0,3,4,1,34,0003-00-0005-24.png,0005-00-0005-68.png
14,120,0,1443541684673,1443541684940,321,353,0,0,0,2,3,1,23,0002-00-0001-52.png,0003-00-0006-60.png
14,121,0,1443541684979,1443541685456,523,401,0,0,0,5,4,1,54,0001-00-0009-82.png,0005-00-0005-22.png
14,122,1,1443541685477,1443541685970,350,371,0,0,0,2,1,1,21,0002-00-0005-79.png,0004-00-0001-52.png
14,123,1,1443541685991,1443541687033,502,356,0,0,0,4,3,1,43,0005-00-0009-00.png,0003-00-0000-76.png
14,124,0,1443541687061,1443541687287,277,366,0,0,0,5,4,1,54,0001-00-0004-70.png,0005-00-0003-22.png
14,125,1,1443541687320,1443541687619,185,469,0,0,0,1,2,1,12,0004-00-0004-15.png,0002-00-0002-48.png
14,126,1,1443541687637,1443541688003,342,441,0,0,0,3,4,1,34,0003-00-0006-81.png,0005-00-0008-74.png
14,127,0,1443541688030,1443541688420,370,459,0,0,0,3,2,1,32,0003-00-0007-56.png,0002-00-0008-53.png
14,128,0,1443541688454,1443541688676,926,345,0,0,0,2,3,1,23,0002-00-0000-14.png,0003-00-0005-73.png
14,129,1,1443541688708,1443541689181,376,332,0,0,0,3,4,1,34,0003-00-0008-98.png,0005-00-0000-16.png
14,130,1,1443541689205,1443541689440,926,403,0,0,0,2,3,1,23,0002-00-0008-30.png,0003-00-0007-76.png
14,131,0,1443541689472,1443541689636,884,332,0,0,0,2,1,1,21,0002-00-0004-45.png,0004-00-0001-31.png
14,132,1,1443541689661,1443541689886,308,350,0,0,0,3,2,1,32,0003-00-0000-68.png,0002-00-0008-96.png
14,133,1,1443541689918,1443541690342,507,486,0,0,0,5,4,1,54,0001-00-0008-21.png,0005-00-0001-39.png
14,134,1,1443541690377,1443541690933,504,405,0,0,0,1,2,1,12,0004-00-0000-29.png,0002-00-0004-20.png
14,135,1,1443541690968,1443541691564,197,475,0,0,0,4,3,1,43,0005-00-0002-96.png,0003-00-0007-27.png
14,136,0,1443541691590,1443541692021,926,424,0,0,0,5,4,1,54,0001-00-0002-04.png,0005-00-0005-63.png
14,137,0,1443541692053,1443541692107,350,332,0,0,0,3,4,1,34,0003-00-0004-21.png,0005-00-0000-92.png
14,138,1,1443541692139,1443541692306,504,488,0,0,0,2,3,1,23,0002-00-0007-77.png,0003-00-0001-44.png
14,139,1,1443541692343,1443541692573,515,377,0,0,0,5,4,1,54,0001-00-0007-03.png,0005-00-0003-34.png
14,140,0,1443541692602,1443541693369,875,397,0,0,0,5,4,1,54,0001-00-0008-88.png,0005-00-0008-39.png
14,141,0,1443541693401,1443541693861,516,475,0,0,0,1,2,1,12,0004-00-0006-22.png,0002-00-0003-71.png
14,142,1,1443541693891,1443541694240,952,358,0,0,0,2,1,1,21,0002-00-0003-99.png,0004-00-0004-24.png
14,143,0,1443541694266,1443541694691,334,351,0,0,0,4,3,1,43,0005-00-0006-20.png,0003-00-0002-60.png
14,144,1,1443541694750,1443541695778,858,355,0,0,0,3,2,1,32,0003-00-0000-14.png,0002-00-0001-74.png
14,145,1,1443541695808,1443541696211,494,430,0,0,0,5,4,1,54,0001-00-0001-79.png,0005-00-0001-82.png
14,146,1,1443541696234,1443541696431,865,349,0,0,0,1,2,1,12,0004-00-0004-49.png,0002-00-0008-54.png
14,147,1,1443541696477,1443541696735,329,370,0,0,0,4,3,1,43,0005-00-0005-22.png,0003-00-0007-26.png
14,148,1,1443541696757,1443541697300,952,371,0,0,0,3,4,1,34,0003-00-0005-55.png,0005-00-0001-97.png
14,149,0,1443541697333,1443541697710,336,378,0,0,0,2,1,1,21,0002-00-0001-34.png,0004-00-0002-73.png
14,150,1,1443541697729,1443541698112,306,354,0,0,0,3,2,1,32,0003-00-0004-38.png,0002-00-0006-21.png
14,151,1,1443541698156,1443541698890,343,362,0,0,0,2,3,1,23,0002-00-0003-28.png,0003-00-0009-40.png
14,152,0,1443541698912,1443541699294,898,447,0,0,0,5,4,1,54,0001-00-0006-54.png,0005-00-0004-04.png
14,153,1,1443541699321,1443541699590,261,371,0,0,0,2,3,1,23,0002-00-0003-90.png,0003-00-0004-54.png
14,154,1,1443541699624,1443541700081,319,384,0,0,0,3,4,1,34,0003-00-0007-99.png,0005-00-0005-09.png
14,155,0,1443541700115,1443541700427,504,461,0,0,0,4,3,1,43,0005-00-0000-89.png,0003-00-0008-52.png
14,156,1,1443541700465,1443541700867,370,357,0,0,0,1,2,1,12,0004-00-0000-00.png,0002-00-0008-97.png
14,157,0,1443541700887,1443541701630,939,384,0,0,0,5,4,1,54,0001-00-0009-78.png,0005-00-0005-98.png
14,158,0,1443541701654,1443541702053,874,332,0,0,0,3,2,1,32,0003-00-0007-08.png,0002-00-0004-92.png
14,159,1,1443541702074,1443541702422,288,389,0,0,0,2,1,1,21,0002-00-0003-17.png,0004-00-0007-03.png
14,160,0,1443541702460,1443541702846,264,378,0,0,0,5,4,1,54,0001-00-0008-49.png,0005-00-0002-91.png
14,161,1,1443541702873,1443541703250,309,416,0,0,0,3,4,1,34,0003-00-0000-92.png,0005-00-0005-22.png
14,162,0,1443541703269,1443541703866,520,417,0,0,0,2,3,1,23,0002-00-0008-72.png,0003-00-0001-30.png
14,163,1,1443541703894,1443541704344,900,449,0,0,0,2,1,1,21,0002-00-0002-48.png,0004-00-0007-95.png
14,164,1,1443541704385,1443541704838,868,335,0,0,0,5,4,1,54,0001-00-0001-02.png,0005-00-0000-82.png
14,165,0,1443541704859,1443541705723,973,421,0,0,0,3,2,1,32,0003-00-0003-66.png,0002-00-0002-49.png
14,166,0,1443541705748,1443541706505,325,332,0,0,0,4,3,1,43,0005-00-0009-07.png,0003-00-0008-97.png
14,167,0,1443541706538,1443541706915,901,449,0,0,0,1,2,1,12,0004-00-0001-00.png,0002-00-0004-41.png
14,168,0,1443541706948,1443541707417,497,456,0,0,0,5,4,1,54,0001-00-0000-87.png,0005-00-0003-18.png
14,169,0,1443541707461,1443541707770,870,315,0,0,0,2,1,1,21,0002-00-0005-88.png,0004-00-0001-15.png
14,170,1,1443541707792,1443541708367,285,358,0,0,0,5,4,1,54,0001-00-0007-48.png,0005-00-0006-67.png
14,171,1,1443541708395,1443541708883,875,372,0,0,0,4,3,1,43,0005-00-0001-17.png,0003-00-0000-85.png
14,172,0,1443541708918,1443541709382,312,374,0,0,0,5,4,1,54,0001-00-0008-50.png,0005-00-0000-85.png
14,173,0,1443541709407,1443541709827,342,339,0,0,0,3,4,1,34,0003-00-0003-22.png,0005-00-0009-83.png
14,174,0,1443541709851,1443541710057,263,362,0,0,0,1,2,1,12,0004-00-0004-40.png,0002-00-0004-81.png
14,175,0,1443541710099,1443541710645,376,384,0,0,0,3,2,1,32,0003-00-0005-32.png,0002-00-0006-09.png
14,176,1,1443541710683,1443541711108,900,455,0,0,0,2,3,1,23,0002-00-0009-60.png,0003-00-0006-87.png
14,177,1,1443541711143,1443541711701,964,306,0,0,0,2,1,1,21,0002-00-0006-90.png,0004-00-0007-48.png
14,178,1,1443541711740,1443541711962,921,472,0,0,0,5,4,1,54,0001-00-0002-81.png,0005-00-0008-24.png
14,179,1,1443541711994,1443541712232,923,456,0,0,0,3,2,1,32,0003-00-0007-02.png,0002-00-0003-15.png
14,180,0,1443541712270,1443541713548,352,418,0,0,0,2,3,1,23,0002-00-0001-61.png,0003-00-0003-30.png
14,181,1,1443541713588,1443541713900,914,435,0,0,0,4,3,1,43,0005-00-0006-18.png,0003-00-0003-19.png
14,182,1,1443541713940,1443541714446,931,453,0,0,0,3,4,1,34,0003-00-0002-97.png,0005-00-0000-93.png
14,183,0,1443541714464,1443541715060,294,397,0,0,0,1,2,1,12,0004-00-0008-58.png,0002-00-0004-12.png
14,184,0,1443541715092,1443541716116,922,445,0,0,0,5,4,1,54,0001-00-0005-40.png,0005-00-0003-07.png
14,185,0,1443541716148,1443541716507,512,445,0,0,0,2,3,1,23,0002-00-0004-57.png,0003-00-0008-07.png
14,186,1,1443541716545,1443541716706,392,455,0,0,0,3,4,1,34,0003-00-0006-05.png,0005-00-0009-23.png
14,187,1,1443541716747,1443541717144,900,429,0,0,0,3,2,1,32,0003-00-0003-37.png,0002-00-0008-76.png
14,188,0,1443541717191,1443541718107,939,380,0,0,0,1,2,1,12,0004-00-0006-79.png,0002-00-0004-37.png
14,189,0,1443541718149,1443541718561,880,480,0,0,0,4,3,1,43,0005-00-0002-57.png,0003-00-0006-85.png
14,190,1,1443541718601,1443541719062,882,379,0,0,0,5,4,1,54,0001-00-0008-75.png,0005-00-0000-39.png
14,191,1,1443541719090,1443541719446,214,361,0,0,0,2,1,1,21,0002-00-0004-91.png,0004-00-0005-24.png
14,192,1,1443541719477,1443541719923,935,387,0,0,0,5,4,1,54,0001-00-0006-92.png,0005-00-0004-69.png
14,193,0,1443541719962,1443541720364,361,410,0,0,0,2,1,1,21,0002-00-0000-65.png,0004-00-0009-80.png
14,194,1,1443541720396,1443541720672,325,332,0,0,0,3,2,1,32,0003-00-0006-77.png,0002-00-0002-25.png
14,195,0,1443541720714,1443541721024,413,378,0,0,0,4,3,1,43,0005-00-0007-93.png,0003-00-0008-55.png
14,196,0,1443541721056,1443541721352,951,372,0,0,0,5,4,1,54,0001-00-0008-78.png,0005-00-0009-91.png
14,197,1,1443541721383,1443541721965,896,420,0,0,0,1,2,1,12,0004-00-0000-45.png,0002-00-0002-16.png
14,198,1,1443541722003,1443541722484,912,393,0,0,0,5,4,1,54,0001-00-0009-49.png,0005-00-0007-86.png
14,199,1,1443541722504,1443541722825,422,466,0,0,0,2,3,1,23,0002-00-0008-34.png,0003-00-0002-25.png
14,200,0,1443541722856,1443541723624,331,345,0,0,0,3,4,1,34,0003-00-0007-00.png,0005-00-0000-55.png
14,201,1,1443541723667,1443541723990,305,383,0,0,0,2,3,1,23,0002-00-0002-17.png,0003-00-0000-83.png
14,202,1,1443541724016,1443541724666,504,508,0,0,0,3,2,1,32,0003-00-0003-14.png,0002-00-0006-32.png
14,203,1,1443541724709,1443541725172,875,320,0,0,0,2,1,1,21,0002-00-0004-17.png,0004-00-0001-49.png
14,204,0,1443541725199,1443541725515,339,350,0,0,0,5,4,1,54,0001-00-0007-04.png,0005-00-0008-69.png
14,205,0,1443541725557,1443541725961,491,410,0,0,0,1,2,1,12,0004-00-0000-40.png,0002-00-0002-18.png
14,206,1,1443541725993,1443541726378,507,415,0,0,0,5,4,1,54,0001-00-0008-35.png,0005-00-0000-56.png
14,207,1,1443541726403,1443541726994,325,332,0,0,0,4,3,1,43,0005-00-0006-58.png,0003-00-0009-71.png
14,208,0,1443541727015,1443541727500,883,457,0,0,0,3,4,1,34,0003-00-0008-00.png,0005-00-0009-83.png
14,209,0,1443541727530,1443541727693,312,364,0,0,0,1,2,1,12,0004-00-0002-53.png,0002-00-0005-75.png
14,210,0,1443541727721,1443541727899,880,337,0,0,0,5,4,1,54,0001-00-0008-38.png,0005-00-0001-57.png
14,211,1,1443541727926,1443541728636,500,421,0,0,0,4,3,1,43,0005-00-0000-33.png,0003-00-0003-26.png
14,212,1,1443541728663,1443541728968,940,404,0,0,0,5,4,1,54,0001-00-0006-83.png,0005-00-0008-79.png
14,213,1,1443541728995,1443541729395,949,415,0,0,0,2,3,1,23,0002-00-0007-61.png,0003-00-0001-12.png
14,214,0,1443541729417,1443541729765,299,390,0,0,0,2,1,1,21,0002-00-0005-58.png,0004-00-0006-95.png
14,215,1,1443541729787,1443541730554,453,462,0,0,0,3,2,1,32,0003-00-0009-45.png,0002-00-0005-66.png
14,216,1,1443541730576,1443541730800,896,446,0,0,0,3,4,1,34,0003-00-0006-13.png,0005-00-0006-60.png
14,217,0,1443541730839,1443541731441,519,500,0,0,0,1,2,1,12,0004-00-0007-46.png,0002-00-0004-14.png
14,218,1,1443541731463,1443541731997,463,364,0,0,0,3,4,1,34,0003-00-0000-51.png,0005-00-0008-43.png
14,219,0,1443541732032,1443541732429,505,465,0,0,0,3,2,1,32,0003-00-0009-19.png,0002-00-0005-87.png
14,220,0,1443541732453,1443541732748,918,376,0,0,0,2,1,1,21,0002-00-0004-44.png,0004-00-0000-67.png
14,221,0,1443541732780,1443541733924,338,409,0,0,0,2,3,1,23,0002-00-0003-03.png,0003-00-0004-17.png
14,222,1,1443541733960,1443541734406,468,384,0,0,0,5,4,1,54,0001-00-0009-53.png,0005-00-0002-26.png
14,223,1,1443541734446,1443541734870,323,365,0,0,0,5,4,1,54,0001-00-0003-22.png,0005-00-0004-57.png
14,224,0,1443541734900,1443541735663,351,462,0,0,0,4,3,1,43,0005-00-0005-69.png,0003-00-0008-48.png
14,225,1,1443541735688,1443541736194,495,441,0,0,0,3,4,1,34,0003-00-0004-19.png,0005-00-0006-04.png
14,226,1,1443541736234,1443541738119,926,345,0,0,0,3,2,1,32,0003-00-0000-73.png,0002-00-0004-85.png
14,227,0,1443541738144,1443541738345,303,403,0,0,0,5,4,1,54,0001-00-0005-11.png,0005-00-0002-35.png
14,228,1,1443541738374,1443541739215,858,331,0,0,0,2,3,1,23,0002-00-0007-95.png,0003-00-0007-91.png
14,229,1,1443541739253,1443541739898,919,453,0,0,0,4,3,1,43,0005-00-0003-62.png,0003-00-0001-11.png
14,230,1,1443541739920,1443541740485,926,450,0,0,0,5,4,1,54,0001-00-0004-80.png,0005-00-0004-75.png
14,231,1,1443541740526,1443541741010,912,456,0,0,0,2,1,1,21,0002-00-0005-69.png,0004-00-0002-94.png
14,232,1,1443541741039,1443541741462,289,363,0,0,0,1,2,1,12,0004-00-0004-05.png,0002-00-0005-39.png
14,233,0,1443541741493,1443541741695,931,381,0,0,0,3,2,1,32,0003-00-0000-36.png,0002-00-0008-71.png
14,234,0,1443541741720,1443541742125,964,371,0,0,0,5,4,1,54,0001-00-0000-88.png,0005-00-0000-56.png
14,235,1,1443541742152,1443541742898,887,351,0,0,0,3,4,1,34,0003-00-0000-14.png,0005-00-0005-91.png
14,236,0,1443541742935,1443541743762,925,410,0,0,0,2,1,1,21,0002-00-0008-90.png,0004-00-0001-39.png
14,237,1,1443541743782,1443541744308,872,329,0,0,0,1,2,1,12,0004-00-0004-16.png,0002-00-0003-02.png
14,238,1,1443541744339,1443541744924,914,445,0,0,0,5,4,1,54,0001-00-0006-18.png,0005-00-0002-63.png
14,239,1,1443541744966,1443541745431,350,332,0,0,0,2,3,1,23,0002-00-0008-40.png,0003-00-0006-59.png
14,240,0,1443541745463,1443541746134,273,384,0,0,0,4,3,1,43,0005-00-0006-85.png,0003-00-0000-96.png
14,241,1,1443541746159,1443541746537,319,395,0,0,0,3,4,1,34,0003-00-0000-57.png,0005-00-0001-33.png
14,242,0,1443541746561,1443541747147,299,345,0,0,0,1,2,1,12,0004-00-0004-99.png,0002-00-0003-63.png
14,243,0,1443541747172,1443541747436,289,386,0,0,0,5,4,1,54,0001-00-0003-82.png,0005-00-0009-52.png
14,244,1,1443541747488,1443541747761,325,332,0,0,0,2,3,1,23,0002-00-0006-14.png,0003-00-0008-74.png
14,245,1,1443541747805,1443541748491,903,387,0,0,0,4,3,1,43,0005-00-0000-20.png,0003-00-0004-06.png
14,246,0,1443541748517,1443541749275,507,437,0,0,0,2,1,1,21,0002-00-0004-37.png,0004-00-0006-51.png
14,247,0,1443541749306,1443541749999,873,326,0,0,0,3,2,1,32,0003-00-0007-03.png,0002-00-0000-61.png
14,248,0,1443541750027,1443541750613,365,408,0,0,0,5,4,1,54,0001-00-0005-47.png,0005-00-0007-92.png
14,249,1,1443541750637,1443541750973,937,346,0,0,0,1,2,1,12,0004-00-0009-94.png,0002-00-0006-92.png
14,250,0,1443541751016,1443541751263,872,433,0,0,0,5,4,1,54,0001-00-0009-11.png,0005-00-0007-62.png
14,251,0,1443541751297,1443541751990,273,374,0,0,0,3,4,1,34,0003-00-0006-20.png,0005-00-0003-20.png
14,252,0,1443541752014,1443541752374,910,318,0,0,0,2,1,1,21,0002-00-0006-59.png,0004-00-0004-01.png
14,253,1,1443541752410,1443541752712,896,322,0,0,0,5,4,1,54,0001-00-0003-18.png,0005-00-0000-00.png
14,254,1,1443541752751,1443541752946,507,442,0,0,0,2,3,1,23,0002-00-0005-32.png,0003-00-0005-29.png
14,255,1,1443541752977,1443541753303,343,380,0,0,0,4,3,1,43,0005-00-0007-77.png,0003-00-0008-00.png
14,256,1,1443541753324,1443541753913,921,445,0,0,0,3,2,1,32,0003-00-0000-07.png,0002-00-0006-19.png
14,257,1,1443541753933,1443541754238,307,359,0,0,0,4,3,1,43,0005-00-0000-96.png,0003-00-0002-59.png
14,258,1,1443541754272,1443541754487,396,443,0,0,0,2,3,1,23,0002-00-0009-00.png,0003-00-0004-08.png
14,259,1,1443541754517,1443541754953,371,436,0,0,0,3,4,1,34,0003-00-0000-38.png,0005-00-0002-73.png
14,260,0,1443541754971,1443541755824,931,427,0,0,0,3,2,1,32,0003-00-0006-95.png,0002-00-0000-16.png
14,261,1,1443541755860,1443541756556,397,441,0,0,0,5,4,1,54,0001-00-0009-15.png,0005-00-0006-58.png
14,262,1,1443541756585,1443541756707,500,485,0,0,0,5,4,1,54,0001-00-0000-08.png,0005-00-0003-69.png
14,263,0,1443541756729,1443541757117,923,414,0,0,0,1,2,1,12,0004-00-0004-97.png,0002-00-0003-25.png
14,264,1,1443541757149,1443541758120,289,390,0,0,0,2,1,1,21,0002-00-0000-45.png,0004-00-0005-49.png
14,265,0,1443541758147,1443541759153,931,378,0,0,0,5,4,1,54,0001-00-0002-66.png,0005-00-0003-49.png
14,266,1,1443541759195,1443541759475,304,380,0,0,0,5,4,1,54,0001-00-0002-07.png,0005-00-0004-10.png
14,267,0,1443541759509,1443541760083,911,425,0,0,0,3,2,1,32,0003-00-0008-38.png,0002-00-0004-91.png
14,268,1,1443541760122,1443541760482,347,365,0,0,0,1,2,1,12,0004-00-0009-09.png,0002-00-0002-84.png
14,269,1,1443541760512,1443541760828,485,459,0,0,0,3,4,1,34,0003-00-0002-21.png,0005-00-0001-69.png
14,270,1,1443541760850,1443541761283,902,438,0,0,0,2,3,1,23,0002-00-0009-97.png,0003-00-0008-65.png
14,271,1,1443541761314,1443541762083,939,384,0,0,0,2,1,1,21,0002-00-0002-86.png,0004-00-0001-54.png
14,272,1,1443541762128,1443541762422,345,346,0,0,0,4,3,1,43,0005-00-0009-05.png,0003-00-0000-14.png
14,273,1,1443541762456,1443541762639,878,480,0,0,0,5,4,1,54,0001-00-0008-11.png,0005-00-0007-21.png
14,274,0,1443541762663,1443541763029,492,490,0,0,0,2,3,1,23,0002-00-0002-50.png,0003-00-0004-50.png
14,275,1,1443541763064,1443541763573,874,463,0,0,0,2,1,1,21,0002-00-0008-39.png,0004-00-0004-94.png
14,276,1,1443541763596,1443541764410,478,410,0,0,0,4,3,1,43,0005-00-0001-69.png,0003-00-0008-41.png
14,277,0,1443541764442,1443541764777,335,429,0,0,0,3,2,1,32,0003-00-0000-74.png,0002-00-0008-26.png
14,278,0,1443541764797,1443541766007,519,410,0,0,0,1,2,1,12,0004-00-0009-52.png,0002-00-0002-07.png
14,279,1,1443541766041,1443541766457,931,375,0,0,0,3,4,1,34,0003-00-0000-46.png,0005-00-0002-62.png
14,280,1,1443541766486,1443541766712,878,332,0,0,0,5,4,1,54,0001-00-0006-18.png,0005-00-0000-39.png
14,281,0,1443541766735,1443541767089,350,306,0,0,0,2,1,1,21,0002-00-0007-25.png,0004-00-0002-27.png
14,282,1,1443541767120,1443541767714,504,462,0,0,0,3,2,1,32,0003-00-0002-86.png,0002-00-0009-76.png
14,283,1,1443541767752,1443541768297,938,358,0,0,0,5,4,1,54,0001-00-0002-93.png,0005-00-0003-57.png
14,284,1,1443541768323,1443541768510,290,364,0,0,0,1,2,1,12,0004-00-0002-80.png,0002-00-0000-24.png
14,285,1,1443541768533,1443541768987,412,455,0,0,0,4,3,1,43,0005-00-0008-57.png,0003-00-0004-46.png
14,286,0,1443541769007,1443541770968,315,376,0,0,0,2,3,1,23,0002-00-0005-52.png,0003-00-0004-81.png
14,287,1,1443541771004,1443541771673,482,463,0,0,0,5,4,1,54,0001-00-0006-60.png,0005-00-0003-00.png
14,288,1,1443541771691,1443541772953,931,375,0,0,0,3,4,1,34,0003-00-0006-87.png,0005-00-0009-07.png
14,289,0,1443541772975,1443541773714,288,368,0,0,0,5,4,1,54,0001-00-0000-98.png,0005-00-0001-99.png
14,290,0,1443541773735,1443541774154,299,397,0,0,0,2,3,1,23,0002-00-0002-47.png,0003-00-0002-47.png
14,291,1,1443541774187,1443541774571,860,368,0,0,0,5,4,1,54,0001-00-0003-22.png,0005-00-0005-36.png
14,292,0,1443541774600,1443541776009,871,366,0,0,0,3,2,1,32,0003-00-0002-43.png,0002-00-0006-05.png
14,293,1,1443541776036,1443541776441,319,395,0,0,0,1,2,1,12,0004-00-0003-49.png,0002-00-0002-83.png
14,294,1,1443541776467,1443541776794,914,397,0,0,0,2,1,1,21,0002-00-0003-32.png,0004-00-0008-49.png
14,295,0,1443541776824,1443541777674,926,397,0,0,0,4,3,1,43,0005-00-0004-82.png,0003-00-0005-20.png
14,296,1,1443541777696,1443541778774,909,460,0,0,0,3,4,1,34,0003-00-0008-26.png,0005-00-0009-27.png
14,297,1,1443541778801,1443541779214,942,439,0,0,0,4,3,1,43,0005-00-0006-19.png,0003-00-0000-80.png
14,298,1,1443541779250,1443541779620,376,344,0,0,0,3,2,1,32,0003-00-0005-45.png,0002-00-0002-47.png
14,299,1,1443541779646,1443541780182,307,392,0,0,0,3,4,1,34,0003-00-0008-61.png,0005-00-0005-95.png
14,300,0,1443541780210,1443541781050,519,420,0,0,0,2,1,1,21,0002-00-0007-51.png,0004-00-0003-40.png
14,301,1,1443541781098,1443541781540,926,462,0,0,0,1,2,1,12,0004-00-0003-77.png,0002-00-0007-01.png
14,302,1,1443541781569,1443541782711,873,325,0,0,0,2,3,1,23,0002-00-0007-22.png,0003-00-0007-52.png
14,303,1,1443541782735,1443541783351,863,336,0,0,0,5,4,1,54,0001-00-0006-09.png,0005-00-0005-74.png
14,304,1,1443541783379,1443541783842,880,301,0,0,0,5,4,1,54,0001-00-0000-01.png,0005-00-0008-22.png
14,305,1,1443541783863,1443541784288,314,386,0,0,0,4,3,1,43,0005-00-0006-77.png,0003-00-0006-89.png
14,306,1,1443541784324,1443541784671,345,363,0,0,0,2,1,1,21,0002-00-0001-15.png,0004-00-0001-35.png
14,307,1,1443541784699,1443541785703,290,365,0,0,0,5,4,1,54,0001-00-0001-32.png,0005-00-0005-73.png
14,308,1,1443541785723,1443541786060,921,445,0,0,0,1,2,1,12,0004-00-0007-95.png,0002-00-0009-67.png
14,309,1,1443541786088,1443541786416,865,509,0,0,0,3,2,1,32,0003-00-0008-23.png,0002-00-0008-08.png
14,310,1,1443541786435,1443541787037,879,480,0,0,0,5,4,1,54,0001-00-0007-25.png,0005-00-0004-27.png
14,311,1,1443541787077,1443541787442,898,483,0,0,0,2,3,1,23,0002-00-0005-47.png,0003-00-0005-59.png
14,312,1,1443541787464,1443541787716,285,386,0,0,0,3,4,1,34,0003-00-0004-31.png,0005-00-0007-91.png
14,313,0,1443541787746,1443541788599,478,465,0,0,0,4,3,1,43,0005-00-0002-54.png,0003-00-0009-44.png
14,314,1,1443541788623,1443541789058,956,349,0,0,0,3,4,1,34,0003-00-0006-11.png,0005-00-0005-32.png
14,315,0,1443541789086,1443541789558,881,378,0,0,0,3,2,1,32,0003-00-0005-22.png,0002-00-0001-11.png
14,316,1,1443541789593,1443541790153,962,375,0,0,0,2,1,1,21,0002-00-0009-89.png,0004-00-0003-77.png
14,317,0,1443541790184,1443541790853,516,506,0,0,0,1,2,1,12,0004-00-0001-74.png,0002-00-0007-22.png
14,318,1,1443541790878,1443541791310,360,375,0,0,0,5,4,1,54,0001-00-0003-22.png,0005-00-0007-18.png
14,319,0,1443541791339,1443541791524,920,371,0,0,0,5,4,1,54,0001-00-0008-91.png,0005-00-0002-81.png
14,320,0,1443541791574,1443541792631,951,360,0,0,0,2,3,1,23,0002-00-0008-74.png,0003-00-0006-13.png
14,321,1,1443541792658,1443541793421,870,341,0,0,0,3,2,1,32,0003-00-0000-92.png,0002-00-0004-20.png
14,322,1,1443541793470,1443541793836,265,400,0,0,0,5,4,1,54,0001-00-0003-99.png,0005-00-0007-49.png
14,323,1,1443541793866,1443541794160,900,463,0,0,0,4,3,1,43,0005-00-0001-17.png,0003-00-0002-07.png
14,324,1,1443541794188,1443541794861,927,415,0,0,0,2,1,1,21,0002-00-0006-35.png,0004-00-0007-41.png
14,325,0,1443541794889,1443541795280,519,444,0,0,0,3,4,1,34,0003-00-0005-38.png,0005-00-0000-47.png
14,326,1,1443541795308,1443541795492,918,429,0,0,0,5,4,1,54,0001-00-0004-31.png,0005-00-0006-95.png
14,327,0,1443541795533,1443541795902,859,331,0,0,0,1,2,1,12,0004-00-0009-15.png,0002-00-0003-34.png
14,328,0,1443541795943,1443541796445,926,398,0,0,0,2,3,1,23,0002-00-0007-55.png,0003-00-0005-75.png
14,329,1,1443541796472,1443541797041,319,395,0,0,0,3,2,1,32,0003-00-0001-86.png,0002-00-0006-76.png
14,330,1,1443541797071,1443541797494,282,392,0,0,0,2,3,1,23,0002-00-0002-99.png,0003-00-0006-47.png
14,331,0,1443541797529,1443541797906,194,470,0,0,0,4,3,1,43,0005-00-0001-47.png,0003-00-0004-86.png
14,332,0,1443541797940,1443541798421,873,323,0,0,0,5,4,1,54,0001-00-0007-88.png,0005-00-0005-33.png
14,333,0,1443541798447,1443541798786,900,487,0,0,0,1,2,1,12,0004-00-0001-55.png,0002-00-0001-78.png
14,334,0,1443541798817,1443541799472,887,346,0,0,0,3,4,1,34,0003-00-0004-64.png,0005-00-0002-08.png
14,335,1,1443541799503,1443541800220,365,384,0,0,0,5,4,1,54,0001-00-0002-03.png,0005-00-0007-08.png
14,336,0,1443541800261,1443541800805,904,480,0,0,0,2,1,1,21,0002-00-0005-55.png,0004-00-0000-98.png
14,337,1,1443541800846,1443541801010,291,348,0,0,0,3,4,1,34,0003-00-0000-23.png,0005-00-0007-35.png
14,338,1,1443541801043,1443541801701,913,398,0,0,0,4,3,1,43,0005-00-0005-29.png,0003-00-0002-66.png
14,339,1,1443541801723,1443541802130,922,445,0,0,0,2,1,1,21,0002-00-0007-15.png,0004-00-0003-50.png
14,340,1,1443541802164,1443541802488,874,343,0,0,0,2,3,1,23,0002-00-0008-93.png,0003-00-0005-26.png
14,341,1,1443541802524,1443541802748,288,390,0,0,0,3,2,1,32,0003-00-0005-97.png,0002-00-0002-76.png
14,342,1,1443541802780,1443541803821,912,450,0,0,0,1,2,1,12,0004-00-0005-68.png,0002-00-0002-30.png
14,343,0,1443541803862,1443541804188,900,456,0,0,0,5,4,1,54,0001-00-0006-09.png,0005-00-0002-82.png
14,344,1,1443541804213,1443541804761,921,418,0,0,0,5,4,1,54,0001-00-0005-50.png,0005-00-0000-10.png
14,345,1,1443541804783,1443541805148,307,377,0,0,0,1,2,1,12,0004-00-0005-99.png,0002-00-0009-14.png
14,346,1,1443541805173,1443541805462,461,436,0,0,0,2,3,1,23,0002-00-0002-32.png,0003-00-0003-29.png
14,347,1,1443541805485,1443541805988,316,417,0,0,0,3,2,1,32,0003-00-0008-28.png,0002-00-0009-96.png
14,348,1,1443541806015,1443541806441,350,486,0,0,0,3,4,1,34,0003-00-0002-26.png,0005-00-0002-63.png
14,349,1,1443541806465,1443541807244,900,437,0,0,0,5,4,1,54,0001-00-0004-29.png,0005-00-0003-04.png
14,350,0,1443541807283,1443541809058,900,371,0,0,0,2,1,1,21,0002-00-0006-57.png,0004-00-0003-03.png
14,351,0,1443541809081,1443541809613,884,350,0,0,0,5,4,1,54,0001-00-0008-94.png,0005-00-0003-26.png
14,352,0,1443541809643,1443541810120,521,367,0,0,0,4,3,1,43,0005-00-0005-35.png,0003-00-0005-72.png
14,353,1,1443541810145,1443541811048,904,454,0,0,0,3,2,1,32,0003-00-0009-99.png,0002-00-0007-14.png
14,354,0,1443541811072,1443541812217,385,445,0,0,0,4,3,1,43,0005-00-0003-00.png,0003-00-0004-37.png
14,355,1,1443541812246,1443541812506,939,358,0,0,0,5,4,1,54,0001-00-0002-97.png,0005-00-0002-00.png
14,356,0,1443541812530,1443541813855,921,372,0,0,0,2,3,1,23,0002-00-0002-09.png,0003-00-0003-25.png
14,357,1,1443541813877,1443541814134,944,414,0,0,0,3,4,1,34,0003-00-0007-68.png,0005-00-0006-64.png
14,358,1,1443541814182,1443541814605,901,435,0,0,0,5,4,1,54,0001-00-0003-44.png,0005-00-0002-77.png
14,359,1,1443541814629,1443541815054,880,491,0,0,0,1,2,1,12,0004-00-0000-56.png,0002-00-0008-07.png
14,360,1,1443541815088,1443541815444,376,396,0,0,0,2,1,1,21,0002-00-0000-45.png,0004-00-0008-49.png
14,361,1,1443541815468,1443541815956,311,370,0,0,0,5,4,1,54,0001-00-0003-82.png,0005-00-0000-00.png
14,362,0,1443541815978,1443541816312,383,352,0,0,0,3,2,1,32,0003-00-0005-27.png,0002-00-0008-74.png
14,363,1,1443541816350,1443541816672,414,384,0,0,0,4,3,1,43,0005-00-0000-13.png,0003-00-0002-76.png
14,364,1,1443541816695,1443541817579,934,389,0,0,0,2,1,1,21,0002-00-0002-65.png,0004-00-0005-43.png
14,365,0,1443541817600,1443541818019,925,441,0,0,0,1,2,1,12,0004-00-0000-58.png,0002-00-0000-23.png
14,366,0,1443541818044,1443541819047,926,449,0,0,0,2,3,1,23,0002-00-0008-42.png,0003-00-0006-04.png
14,367,1,1443541819084,1443541819925,951,406,0,0,0,5,4,1,54,0001-00-0006-42.png,0005-00-0002-58.png
14,368,0,1443541819951,1443541821187,943,426,0,0,0,3,4,1,34,0003-00-0002-47.png,0005-00-0002-52.png
14,369,1,1443541821229,1443541821701,335,390,0,0,0,1,2,1,12,0004-00-0002-45.png,0002-00-0009-41.png
14,370,0,1443541821730,1443541823083,912,482,0,0,0,2,3,1,23,0002-00-0000-42.png,0003-00-0005-51.png
14,371,1,1443541823100,1443541823710,933,389,0,0,0,4,3,1,43,0005-00-0003-39.png,0003-00-0005-12.png
14,372,1,1443541823742,1443541824184,362,384,0,0,0,3,2,1,32,0003-00-0008-99.png,0002-00-0009-04.png
14,373,0,1443541824213,1443541824558,350,384,0,0,0,3,4,1,34,0003-00-0005-83.png,0005-00-0005-03.png
14,374,0,1443541824598,1443541824929,517,514,0,0,0,5,4,1,54,0001-00-0007-65.png,0005-00-0003-07.png
14,375,0,1443541824957,1443541825480,478,473,0,0,0,5,4,1,54,0001-00-0008-71.png,0005-00-0002-04.png
14,376,0,1443541825509,1443541826213,350,356,0,0,0,2,1,1,21,0002-00-0004-02.png,0004-00-0001-70.png
14,377,1,1443541826238,1443541827228,230,392,0,0,0,4,3,1,43,0005-00-0005-54.png,0003-00-0003-41.png
14,378,0,1443541827249,1443541827597,897,505,0,0,0,1,2,1,12,0004-00-0006-45.png,0002-00-0006-05.png
14,379,1,1443541827640,1443541828622,292,389,0,0,0,3,2,1,32,0003-00-0002-72.png,0002-00-0003-53.png
14,380,1,1443541828646,1443541829082,273,385,0,0,0,5,4,1,54,0001-00-0006-81.png,0005-00-0002-67.png
14,381,1,1443541829104,1443541829519,888,449,0,0,0,2,3,1,23,0002-00-0006-52.png,0003-00-0003-19.png
14,382,1,1443541829550,1443541830120,875,450,0,0,0,2,1,1,21,0002-00-0000-72.png,0004-00-0008-11.png
14,383,1,1443541830171,1443541830754,879,374,0,0,0,3,4,1,34,0003-00-0006-99.png,0005-00-0008-15.png
14,384,1,1443541830775,1443541831435,401,384,0,0,0,5,4,1,54,0001-00-0002-72.png,0005-00-0008-00.png
14,385,0,1443541831469,1443541831687,325,322,0,0,0,4,3,1,43,0005-00-0002-61.png,0003-00-0003-30.png
14,386,0,1443541831717,1443541832170,905,374,0,0,0,5,4,1,54,0001-00-0007-26.png,0005-00-0003-71.png
14,387,1,1443541832204,1443541832727,283,389,0,0,0,3,2,1,32,0003-00-0008-01.png,0002-00-0007-32.png
14,388,0,1443541832762,1443541832958,319,361,0,0,0,2,1,1,21,0002-00-0003-90.png,0004-00-0001-40.png
14,389,1,1443541832985,1443541833725,313,333,0,0,0,1,2,1,12,0004-00-0003-71.png,0002-00-0000-35.png
14,390,0,1443541833747,1443541834154,900,440,0,0,0,5,4,1,54,0001-00-0005-90.png,0005-00-0005-85.png
14,391,1,1443541834183,1443541834441,875,339,0,0,0,3,4,1,34,0003-00-0009-95.png,0005-00-0007-60.png
14,392,1,1443541834473,1443541834856,504,425,0,0,0,2,3,1,23,0002-00-0006-66.png,0003-00-0008-73.png
14,393,0,1443541834881,1443541835041,898,456,0,0,0,1,2,1,12,0004-00-0001-63.png,0002-00-0002-74.png
14,394,1,1443541835071,1443541835799,918,402,0,0,0,2,3,1,23,0002-00-0002-32.png,0003-00-0006-35.png
14,395,0,1443541835832,1443541836639,366,423,0,0,0,2,1,1,21,0002-00-0008-40.png,0004-00-0001-08.png
14,396,1,1443541836662,1443541837166,872,435,0,0,0,5,4,1,54,0001-00-0004-54.png,0005-00-0004-31.png
14,397,0,1443541837200,1443541837485,878,480,0,0,0,5,4,1,54,0001-00-0003-40.png,0005-00-0007-79.png
14,398,1,1443541837516,1443541837927,901,450,0,0,0,4,3,1,43,0005-00-0006-55.png,0003-00-0008-77.png
14,399,1,1443541837963,1443541838532,868,361,0,0,0,3,4,1,34,0003-00-0006-57.png,0005-00-0003-40.png
14,400,1,1443541838556,1443541839002,921,445,0,0,0,3,2,1,32,0003-00-0006-94.png,0002-00-0005-08.png
14,401,1,1443541839034,1443541839787,911,384,0,0,0,5,4,1,54,0001-00-0005-65.png,0005-00-0008-14.png
14,402,1,1443541839817,1443541840363,350,332,0,0,0,5,4,1,54,0001-00-0003-06.png,0005-00-0000-16.png
14,403,1,1443541840380,1443541841037,322,388,0,0,0,2,1,1,21,0002-00-0001-83.png,0004-00-0004-26.png
14,404,0,1443541841058,1443541841660,286,397,0,0,0,3,2,1,32,0003-00-0003-31.png,0002-00-0008-99.png
14,405,0,1443541841683,1443541841797,899,475,0,0,0,2,3,1,23,0002-00-0002-26.png,0003-00-0008-44.png
14,406,0,1443541841819,1443541842355,937,451,0,0,0,4,3,1,43,0005-00-0009-23.png,0003-00-0004-55.png
14,407,1,1443541842376,1443541842618,504,462,0,0,0,3,4,1,34,0003-00-0005-11.png,0005-00-0000-23.png
14,408,0,1443541842641,1443541842946,376,332,0,0,0,1,2,1,12,0004-00-0006-27.png,0002-00-0003-92.png
14,409,1,1443541842974,1443541843456,340,395,0,0,0,3,4,1,34,0003-00-0007-12.png,0005-00-0003-01.png
14,410,1,1443541843480,1443541843921,904,465,0,0,0,2,3,1,23,0002-00-0002-59.png,0003-00-0007-18.png
14,411,1,1443541843941,1443541844326,327,396,0,0,0,2,1,1,21,0002-00-0002-82.png,0004-00-0002-42.png
14,412,0,1443541844353,1443541845376,891,444,0,0,0,3,2,1,32,0003-00-0006-25.png,0002-00-0007-49.png
14,413,1,1443541845425,1443541846181,510,448,0,0,0,5,4,1,54,0001-00-0001-18.png,0005-00-0008-53.png
14,414,0,1443541846207,1443541846955,510,419,0,0,0,5,4,1,54,0001-00-0006-76.png,0005-00-0004-21.png
14,415,1,1443541846992,1443541847460,287,388,0,0,0,4,3,1,43,0005-00-0005-78.png,0003-00-0004-27.png
14,416,0,1443541847486,1443541847947,285,393,0,0,0,1,2,1,12,0004-00-0006-82.png,0002-00-0007-63.png
14,417,0,1443541847969,1443541848904,901,398,0,0,0,3,4,1,34,0003-00-0007-18.png,0005-00-0004-43.png
14,418,0,1443541848937,1443541849613,911,407,0,0,0,2,3,1,23,0002-00-0005-17.png,0003-00-0009-40.png
14,419,0,1443541849650,1443541849984,896,446,0,0,0,2,1,1,21,0002-00-0009-04.png,0004-00-0008-62.png
14,420,1,1443541850008,1443541850431,896,427,0,0,0,5,4,1,54,0001-00-0006-56.png,0005-00-0006-63.png
14,421,1,1443541850462,1443541850790,913,432,0,0,0,4,3,1,43,0005-00-0005-91.png,0003-00-0003-21.png
14,422,1,1443541850818,1443541851353,287,386,0,0,0,3,2,1,32,0003-00-0000-22.png,0002-00-0000-79.png
14,423,0,1443541851389,1443541851928,923,459,0,0,0,1,2,1,12,0004-00-0007-42.png,0002-00-0006-98.png
14,424,0,1443541851945,1443541852205,350,332,0,0,0,5,4,1,54,0001-00-0002-92.png,0005-00-0004-69.png
14,425,1,1443541852237,1443541853069,384,367,0,0,0,2,1,1,21,0002-00-0004-95.png,0004-00-0000-97.png
14,426,1,1443541853105,1443541853614,339,378,0,0,0,1,2,1,12,0004-00-0004-94.png,0002-00-0009-71.png
14,427,1,1443541853634,1443541854289,376,385,0,0,0,5,4,1,54,0001-00-0001-27.png,0005-00-0007-59.png
14,428,1,1443541854307,1443541854893,887,316,0,0,0,2,3,1,23,0002-00-0006-74.png,0003-00-0000-70.png
14,429,1,1443541854916,1443541855263,345,363,0,0,0,3,4,1,34,0003-00-0006-89.png,0005-00-0003-51.png
14,430,0,1443541855298,1443541855558,348,413,0,0,0,3,2,1,32,0003-00-0002-97.png,0002-00-0003-64.png
14,431,1,1443541855576,1443541856209,952,345,0,0,0,5,4,1,54,0001-00-0000-85.png,0005-00-0006-52.png
14,432,1,1443541856242,1443541856613,325,332,0,0,0,4,3,1,43,0005-00-0007-94.png,0003-00-0002-83.png
14,433,1,1443541856638,1443541856828,325,344,0,0,0,3,2,1,32,0003-00-0009-95.png,0002-00-0006-23.png
14,434,0,1443541856864,1443541858275,874,475,0,0,0,3,4,1,34,0003-00-0004-50.png,0005-00-0001-85.png
14,435,1,1443541858307,1443541858468,915,345,0,0,0,5,4,1,54,0001-00-0003-01.png,0005-00-0004-65.png
14,436,1,1443541858487,1443541858940,350,373,0,0,0,2,3,1,23,0002-00-0000-59.png,0003-00-0009-05.png
14,437,0,1443541858970,1443541859488,307,349,0,0,0,1,2,1,12,0004-00-0007-14.png,0002-00-0003-50.png
14,438,1,1443541859525,1443541859806,875,502,0,0,0,2,1,1,21,0002-00-0009-17.png,0004-00-0000-60.png
14,439,1,1443541859833,1443541860465,875,371,0,0,0,5,4,1,54,0001-00-0004-55.png,0005-00-0009-01.png
14,440,1,1443541860499,1443541861167,959,395,0,0,0,4,3,1,43,0005-00-0003-09.png,0003-00-0009-11.png
14,441,1,1443541861191,1443541861491,304,348,0,0,0,3,2,1,32,0003-00-0000-59.png,0002-00-0008-66.png
14,442,1,1443541861510,1443541861847,877,495,0,0,0,5,4,1,54,0001-00-0006-94.png,0005-00-0001-96.png
14,443,0,1443541861893,1443541862389,912,463,0,0,0,5,4,1,54,0001-00-0002-79.png,0005-00-0006-72.png
14,444,0,1443541862423,1443541862777,896,430,0,0,0,2,3,1,23,0002-00-0005-83.png,0003-00-0008-01.png
14,445,0,1443541862810,1443541863211,874,359,0,0,0,2,1,1,21,0002-00-0008-44.png,0004-00-0001-34.png
14,446,1,1443541863237,1443541863582,336,436,0,0,0,3,4,1,34,0003-00-0001-43.png,0005-00-0001-03.png
14,447,0,1443541863612,1443541864113,504,475,0,0,0,4,3,1,43,0005-00-0005-77.png,0003-00-0000-28.png
14,448,0,1443541864133,1443541864854,395,427,0,0,0,1,2,1,12,0004-00-0000-59.png,0002-00-0008-66.png
14,449,1,1443541864880,1443541865244,973,419,0,0,0,1,2,1,12,0004-00-0004-85.png,0002-00-0003-14.png
14,450,1,1443541865269,1443541865538,951,371,0,0,0,4,3,1,43,0005-00-0006-77.png,0003-00-0007-57.png
14,451,1,1443541865558,1443541866147,309,387,0,0,0,3,2,1,32,0003-00-0007-39.png,0002-00-0009-85.png
14,452,0,1443541866177,1443541866446,896,395,0,0,0,3,4,1,34,0003-00-0009-72.png,0005-00-0005-67.png
14,453,1,1443541866463,1443541866687,903,386,0,0,0,2,1,1,21,0002-00-0004-56.png,0004-00-0003-39.png
14,454,1,1443541866708,1443541867414,898,457,0,0,0,2,3,1,23,0002-00-0009-58.png,0003-00-0006-64.png
14,455,1,1443541867445,1443541867678,504,439,0,0,0,5,4,1,54,0001-00-0004-32.png,0005-00-0009-69.png
14,456,0,1443541867718,1443541868174,922,427,0,0,0,5,4,1,54,0001-00-0009-71.png,0005-00-0008-55.png
14,457,0,1443541868192,1443541868532,906,401,0,0,0,1,2,1,12,0004-00-0002-39.png,0002-00-0008-90.png
14,458,0,1443541868557,1443541869049,953,467,0,0,0,4,3,1,43,0005-00-0003-93.png,0003-00-0006-19.png
14,459,1,1443541869080,1443541869514,319,343,0,0,0,5,4,1,54,0001-00-0005-86.png,0005-00-0001-14.png
14,460,1,1443541869538,1443541869862,372,371,0,0,0,3,2,1,32,0003-00-0008-77.png,0002-00-0006-24.png
14,461,1,1443541869892,1443541870351,939,360,0,0,0,5,4,1,54,0001-00-0004-83.png,0005-00-0006-67.png
14,462,1,1443541870378,1443541870799,504,462,0,0,0,2,3,1,23,0002-00-0006-78.png,0003-00-0007-66.png
14,463,0,1443541870828,1443541871667,503,507,0,0,0,3,4,1,34,0003-00-0004-89.png,0005-00-0000-64.png
14,464,0,1443541871697,1443541872090,956,375,0,0,0,2,1,1,21,0002-00-0002-14.png,0004-00-0004-01.png
14,465,1,1443541872120,1443541872467,937,373,0,0,0,4,3,1,43,0005-00-0009-93.png,0003-00-0005-04.png
14,466,0,1443541872494,1443541873339,314,368,0,0,0,5,4,1,54,0001-00-0008-44.png,0005-00-0000-27.png
14,467,1,1443541873370,1443541873831,314,413,0,0,0,3,4,1,34,0003-00-0008-35.png,0005-00-0009-53.png
14,468,0,1443541873853,1443541874111,408,441,0,0,0,2,1,1,21,0002-00-0009-94.png,0004-00-0005-54.png
14,469,0,1443541874151,1443541875063,861,378,0,0,0,3,2,1,32,0003-00-0001-03.png,0002-00-0004-76.png
14,470,1,1443541875093,1443541875589,901,464,0,0,0,2,3,1,23,0002-00-0009-58.png,0003-00-0009-10.png
14,471,1,1443541875618,1443541875889,319,395,0,0,0,5,4,1,54,0001-00-0007-52.png,0005-00-0004-76.png
14,472,0,1443541875917,1443541876370,325,371,0,0,0,1,2,1,12,0004-00-0007-06.png,0002-00-0008-24.png
14,473,0,1443541876396,1443541876637,350,369,0,0,0,1,2,1,12,0004-00-0000-39.png,0002-00-0003-14.png
14,474,1,1443541876663,1443541877170,865,536,0,0,0,2,1,1,21,0002-00-0009-98.png,0004-00-0003-54.png
14,475,0,1443541877199,1443541878336,355,356,0,0,0,4,3,1,43,0005-00-0002-23.png,0003-00-0001-10.png
14,476,0,1443541878356,1443541879437,919,484,0,0,0,5,4,1,54,0001-00-0003-17.png,0005-00-0004-71.png
14,477,0,1443541879466,1443541880230,314,419,0,0,0,3,4,1,34,0003-00-0008-37.png,0005-00-0005-30.png
14,478,0,1443541880248,1443541880963,350,358,0,0,0,3,2,1,32,0003-00-0008-48.png,0002-00-0001-80.png
14,479,1,1443541880991,1443541881265,904,364,0,0,0,5,4,1,54,0001-00-0002-96.png,0005-00-0005-65.png
14,480,1,1443541881293,1443541881807,925,476,0,0,0,2,3,1,23,0002-00-0006-71.png,0003-00-0007-04.png
14,481,1,1443541881832,1443541882289,956,350,0,0,0,4,3,1,43,0005-00-0001-57.png,0003-00-0004-58.png
14,482,1,1443541882327,1443541882746,903,483,0,0,0,3,2,1,32,0003-00-0002-79.png,0002-00-0008-69.png
14,483,1,1443541882778,1443541883514,493,436,0,0,0,5,4,1,54,0001-00-0000-88.png,0005-00-0002-08.png
14,484,0,1443541883539,1443541884071,901,382,0,0,0,1,2,1,12,0004-00-0008-16.png,0002-00-0004-61.png
14,485,1,1443541884103,1443541885376,900,456,0,0,0,2,1,1,21,0002-00-0008-35.png,0004-00-0004-11.png
14,486,1,1443541885414,1443541885902,350,345,0,0,0,2,3,1,23,0002-00-0000-29.png,0003-00-0002-44.png
14,487,1,1443541885932,1443541886190,893,483,0,0,0,3,4,1,34,0003-00-0006-44.png,0005-00-0004-64.png
14,488,1,1443541886226,1443541886719,898,439,0,0,0,5,4,1,54,0001-00-0003-24.png,0005-00-0003-65.png
14,489,0,1443541886748,1443541888337,310,349,0,0,0,5,4,1,54,0001-00-0002-80.png,0005-00-0001-16.png
14,490,1,1443541888365,1443541889246,523,524,0,0,0,2,3,1,23,0002-00-0005-15.png,0003-00-0009-28.png
14,491,1,1443541889273,1443541889507,878,464,0,0,0,3,4,1,34,0003-00-0007-14.png,0005-00-0008-36.png
14,492,1,1443541889537,1443541889789,901,443,0,0,0,5,4,1,54,0001-00-0001-81.png,0005-00-0006-55.png
14,493,1,1443541889838,1443541891529,291,381,0,0,0,1,2,1,12,0004-00-0009-27.png,0002-00-0000-68.png
14,494,0,1443541891554,1443541892057,504,498,0,0,0,4,3,1,43,0005-00-0004-37.png,0003-00-0002-32.png
14,495,1,1443541892092,1443541892374,301,389,0,0,0,3,2,1,32,0003-00-0005-36.png,0002-00-0009-70.png
14,496,1,1443541892409,1443541892844,504,440,0,0,0,2,1,1,21,0002-00-0000-42.png,0004-00-0009-33.png
14,497,1,1443541892873,1443541893748,870,315,0,0,0,2,1,1,21,0002-00-0001-31.png,0004-00-0002-82.png
14,498,0,1443541893771,1443541893988,327,350,0,0,0,3,4,1,34,0003-00-0009-60.png,0005-00-0003-19.png
14,499,0,1443541894014,1443541894415,909,401,0,0,0,5,4,1,54,0001-00-0007-93.png,0005-00-0009-89.png
14,500,1,1443541894440,1443541894942,861,382,0,0,0,3,2,1,32,0003-00-0004-67.png,0002-00-0007-68.png
14,501,0,1443541894976,1443541895283,896,446,0,0,0,2,3,1,23,0002-00-0003-48.png,0003-00-0009-39.png
14,502,0,1443541895311,1443541895638,375,461,0,0,0,4,3,1,43,0005-00-0001-54.png,0003-00-0009-04.png
14,503,0,1443541895678,1443541896319,504,466,0,0,0,5,4,1,54,0001-00-0006-30.png,0005-00-0005-64.png
14,504,0,1443541896353,1443541896595,896,446,0,0,0,1,2,1,12,0004-00-0009-56.png,0002-00-0006-73.png
14,505,1,1443541896618,1443541897141,929,428,0,0,0,2,3,1,23,0002-00-0000-13.png,0003-00-0000-60.png
14,506,1,1443541897174,1443541897763,344,350,0,0,0,4,3,1,43,0005-00-0000-38.png,0003-00-0000-41.png
14,507,0,1443541897789,1443541898828,885,473,0,0,0,1,2,1,12,0004-00-0000-84.png,0002-00-0009-89.png
14,508,0,1443541898870,1443541899431,901,476,0,0,0,3,4,1,34,0003-00-0001-89.png,0005-00-0008-73.png
14,509,1,1443541899464,1443541899807,877,479,0,0,0,5,4,1,54,0001-00-0004-17.png,0005-00-0005-12.png
14,510,0,1443541899833,1443541900715,287,390,0,0,0,2,1,1,21,0002-00-0001-06.png,0004-00-0003-12.png
14,511,0,1443541900738,1443541900962,311,389,0,0,0,5,4,1,54,0001-00-0005-00.png,0005-00-0005-44.png
14,512,0,1443541900983,1443541901269,388,470,0,0,0,3,2,1,32,0003-00-0000-74.png,0002-00-0003-73.png
14,513,0,1443541901296,1443541901834,325,358,0,0,0,4,3,1,43,0005-00-0008-17.png,0003-00-0004-59.png
14,514,0,1443541901854,1443541903245,513,489,0,0,0,5,4,1,54,0001-00-0006-46.png,0005-00-0008-57.png
14,515,1,1443541903280,1443541903857,892,429,0,0,0,2,1,1,21,0002-00-0006-74.png,0004-00-0006-38.png
14,516,0,1443541903891,1443541904244,879,497,0,0,0,2,3,1,23,0002-00-0000-01.png,0003-00-0006-47.png
14,517,1,1443541904261,1443541904731,310,370,0,0,0,5,4,1,54,0001-00-0008-80.png,0005-00-0002-55.png
14,518,0,1443541904752,1443541905159,313,392,0,0,0,3,4,1,34,0003-00-0002-96.png,0005-00-0000-82.png
14,519,0,1443541905189,1443541905872,413,398,0,0,0,3,2,1,32,0003-00-0009-92.png,0002-00-0000-33.png
14,520,1,1443541905907,1443541906263,478,488,0,0,0,1,2,1,12,0004-00-0007-02.png,0002-00-0001-07.png
14,521,0,1443541906310,1443541907061,492,419,0,0,0,3,4,1,34,0003-00-0005-78.png,0005-00-0005-70.png
14,522,1,1443541907093,1443541907609,325,319,0,0,0,5,4,1,54,0001-00-0009-09.png,0005-00-0003-80.png
14,523,1,1443541907639,1443541908078,953,390,0,0,0,2,3,1,23,0002-00-0006-32.png,0003-00-0007-88.png
14,524,1,1443541908123,1443541908658,886,476,0,0,0,3,2,1,32,0003-00-0001-72.png,0002-00-0006-69.png
14,525,0,1443541908701,1443541909207,346,345,0,0,0,4,3,1,43,0005-00-0009-90.png,0003-00-0007-42.png
14,526,0,1443541909240,1443541909620,514,513,0,0,0,5,4,1,54,0001-00-0007-88.png,0005-00-0006-82.png
14,527,0,1443541909647,1443541910080,286,371,0,0,0,2,1,1,21,0002-00-0008-48.png,0004-00-0002-60.png
14,528,1,1443541910109,1443541910388,892,478,0,0,0,1,2,1,12,0004-00-0008-19.png,0002-00-0006-20.png
14,529,1,1443541910413,1443541910877,896,445,0,0,0,4,3,1,43,0005-00-0006-09.png,0003-00-0005-10.png
14,530,1,1443541910904,1443541911567,908,448,0,0,0,3,2,1,32,0003-00-0006-12.png,0002-00-0009-42.png
14,531,0,1443541911610,1443541912185,385,342,0,0,0,1,2,1,12,0004-00-0001-80.png,0002-00-0002-83.png
14,532,1,1443541912223,1443541912928,901,382,0,0,0,2,3,1,23,0002-00-0000-56.png,0003-00-0000-26.png
14,533,0,1443541912968,1443541913858,857,338,0,0,0,5,4,1,54,0001-00-0003-43.png,0005-00-0001-39.png
14,534,0,1443541913886,1443541914462,899,475,0,0,0,2,1,1,21,0002-00-0000-09.png,0004-00-0009-86.png
14,535,1,1443541914487,1443541914862,883,412,0,0,0,5,4,1,54,0001-00-0006-85.png,0005-00-0008-94.png
14,536,1,1443541914889,1443541915307,518,429,0,0,0,3,4,1,34,0003-00-0009-91.png,0005-00-0005-83.png
14,537,1,1443541915331,1443541915700,929,376,0,0,0,1,2,1,12,0004-00-0005-53.png,0002-00-0003-19.png
14,538,1,1443541915724,1443541916190,506,442,0,0,0,4,3,1,43,0005-00-0001-27.png,0003-00-0006-23.png
14,539,1,1443541916211,1443541917357,504,424,0,0,0,2,1,1,21,0002-00-0000-80.png,0004-00-0006-89.png
14,540,1,1443541917390,1443541918015,929,402,0,0,0,5,4,1,54,0001-00-0009-18.png,0005-00-0009-51.png
14,541,0,1443541918048,1443541918458,916,470,0,0,0,2,3,1,23,0002-00-0008-85.png,0003-00-0005-48.png
14,542,1,1443541918480,1443541919124,918,433,0,0,0,5,4,1,54,0001-00-0005-19.png,0005-00-0005-97.png
14,543,0,1443541919174,1443541919685,888,502,0,0,0,3,4,1,34,0003-00-0005-44.png,0005-00-0001-57.png
14,544,0,1443541919712,1443541920210,905,444,0,0,0,3,2,1,32,0003-00-0000-78.png,0002-00-0008-99.png
14,545,1,1443541920247,1443541920640,879,347,0,0,0,3,2,1,32,0003-00-0006-35.png,0002-00-0006-73.png
14,546,0,1443541920667,1443541921095,932,349,0,0,0,5,4,1,54,0001-00-0007-04.png,0005-00-0006-42.png
14,547,0,1443541921128,1443541921713,341,365,0,0,0,4,3,1,43,0005-00-0009-06.png,0003-00-0007-12.png
14,548,1,1443541921732,1443541922967,311,348,0,0,0,2,3,1,23,0002-00-0008-71.png,0003-00-0004-33.png
14,549,0,1443541923000,1443541924490,922,394,0,0,0,5,4,1,54,0001-00-0000-73.png,0005-00-0009-26.png
14,550,0,1443541924526,1443541924675,926,386,0,0,0,1,2,1,12,0004-00-0009-69.png,0002-00-0005-99.png
14,551,1,1443541924708,1443541925050,378,449,0,0,0,3,4,1,34,0003-00-0003-67.png,0005-00-0008-24.png
14,552,0,1443541925084,1443541925408,895,472,0,0,0,2,1,1,21,0002-00-0008-30.png,0004-00-0000-96.png
14,553,1,1443541925441,1443541926250,367,414,0,0,0,2,1,1,21,0002-00-0007-96.png,0004-00-0009-20.png
14,554,0,1443541926289,1443541926453,912,450,0,0,0,2,3,1,23,0002-00-0001-21.png,0003-00-0005-81.png
14,555,1,1443541926478,1443541926777,248,478,0,0,0,4,3,1,43,0005-00-0005-73.png,0003-00-0006-13.png
14,556,0,1443541926811,1443541927005,330,438,0,0,0,5,4,1,54,0001-00-0001-03.png,0005-00-0001-42.png
14,557,0,1443541927046,1443541927660,915,394,0,0,0,3,4,1,34,0003-00-0002-09.png,0005-00-0008-58.png
14,558,1,1443541927686,1443541927980,907,447,0,0,0,1,2,1,12,0004-00-0001-63.png,0002-00-0009-33.png
14,559,0,1443541928032,1443541928643,294,395,0,0,0,3,2,1,32,0003-00-0007-04.png,0002-00-0008-89.png
14,560,1,1443541928671,1443541929215,309,371,0,0,0,5,4,1,54,0001-00-0009-42.png,0005-00-0002-38.png
14,561,0,1443541929247,1443541929810,388,461,0,0,0,3,4,1,34,0003-00-0002-33.png,0005-00-0008-12.png
14,562,1,1443541929846,1443541930608,900,386,0,0,0,2,1,1,21,0002-00-0008-13.png,0004-00-0009-57.png
14,563,0,1443541930628,1443541931575,888,443,0,0,0,3,2,1,32,0003-00-0008-75.png,0002-00-0002-79.png
14,564,0,1443541931602,1443541931725,391,468,0,0,0,2,3,1,23,0002-00-0001-98.png,0003-00-0002-64.png
14,565,1,1443541931764,1443541932593,900,515,0,0,0,5,4,1,54,0001-00-0006-77.png,0005-00-0006-67.png
14,566,1,1443541932618,1443541932859,350,332,0,0,0,4,3,1,43,0005-00-0007-52.png,0003-00-0002-08.png
14,567,0,1443541932896,1443541933442,862,395,0,0,0,1,2,1,12,0004-00-0003-56.png,0002-00-0003-69.png
14,568,0,1443541933464,1443541934624,952,358,0,0,0,5,4,1,54,0001-00-0008-64.png,0005-00-0006-28.png
14,569,1,1443541934645,1443541935032,287,372,0,0,0,1,2,1,12,0004-00-0004-30.png,0002-00-0002-47.png
14,570,1,1443541935077,1443541935758,922,393,0,0,0,3,2,1,32,0003-00-0006-72.png,0002-00-0007-15.png
14,571,0,1443541935790,1443541936186,896,472,0,0,0,5,4,1,54,0001-00-0005-59.png,0005-00-0006-40.png
14,572,1,1443541936227,1443541937002,888,476,0,0,0,2,3,1,23,0002-00-0002-65.png,0003-00-0005-26.png
14,573,0,1443541937038,1443541937476,868,456,0,0,0,3,4,1,34,0003-00-0001-68.png,0005-00-0008-15.png
14,574,0,1443541937506,1443541937908,350,358,0,0,0,5,4,1,54,0001-00-0009-39.png,0005-00-0006-63.png
14,575,1,1443541937932,1443541938485,888,488,0,0,0,4,3,1,43,0005-00-0006-73.png,0003-00-0009-58.png
14,576,0,1443541938510,1443541939683,900,397,0,0,0,2,1,1,21,0002-00-0005-12.png,0004-00-0007-63.png
14,577,0,1443541939732,1443541940379,888,450,0,0,0,1,2,1,12,0004-00-0001-99.png,0002-00-0006-79.png
14,578,1,1443541940412,1443541940744,901,433,0,0,0,5,4,1,54,0001-00-0003-98.png,0005-00-0002-78.png
14,579,0,1443541940772,1443541942232,350,332,0,0,0,2,3,1,23,0002-00-0004-22.png,0003-00-0008-36.png
14,580,0,1443541942257,1443541943528,896,472,0,0,0,3,4,1,34,0003-00-0000-40.png,0005-00-0007-31.png
14,581,0,1443541943552,1443541944893,376,358,0,0,0,5,4,1,54,0001-00-0009-83.png,0005-00-0000-56.png
14,582,0,1443541944928,1443541945604,273,383,0,0,0,4,3,1,43,0005-00-0000-26.png,0003-00-0003-62.png
14,583,0,1443541945628,1443541946650,315,388,0,0,0,2,1,1,21,0002-00-0001-94.png,0004-00-0004-01.png
14,584,0,1443541946694,1443541947172,350,358,0,0,0,3,2,1,32,0003-00-0004-98.png,0002-00-0004-55.png
14,585,0,1443541947193,1443541948438,925,437,0,0,0,3,2,1,32,0003-00-0002-50.png,0002-00-0005-13.png
14,586,1,1443541948459,1443541948920,932,448,0,0,0,1,2,1,12,0004-00-0009-96.png,0002-00-0008-77.png
14,587,1,1443541948946,1443541949126,303,392,0,0,0,2,3,1,23,0002-00-0009-27.png,0003-00-0003-68.png
14,588,0,1443541949187,1443541949457,912,429,0,0,0,4,3,1,43,0005-00-0001-32.png,0003-00-0003-78.png
14,589,0,1443541949476,1443541949730,378,337,0,0,0,5,4,1,54,0001-00-0000-23.png,0005-00-0002-90.png
14,590,1,1443541949760,1443541950133,879,400,0,0,0,2,1,1,21,0002-00-0003-91.png,0004-00-0001-80.png
14,591,0,1443541950174,1443541950629,322,373,0,0,0,3,4,1,34,0003-00-0003-78.png,0005-00-0000-86.png
14,592,0,1443541950668,1443541951416,910,392,0,0,0,5,4,1,54,0001-00-0005-70.png,0005-00-0001-28.png
14,593,1,1443541951440,1443541951899,376,459,0,0,0,1,2,1,12,0004-00-0004-13.png,0002-00-0002-84.png
14,594,0,1443541951937,1443541952389,323,440,0,0,0,2,3,1,23,0002-00-0004-26.png,0003-00-0008-69.png
14,595,1,1443541952419,1443541953231,912,450,0,0,0,3,2,1,32,0003-00-0005-41.png,0002-00-0005-91.png
14,596,0,1443541953263,1443541953689,927,384,0,0,0,4,3,1,43,0005-00-0003-77.png,0003-00-0006-57.png
14,597,0,1443541953734,1443541954021,401,332,0,0,0,2,1,1,21,0002-00-0002-78.png,0004-00-0004-51.png
14,598,0,1443541954042,1443541954366,380,379,0,0,0,5,4,1,54,0001-00-0007-09.png,0005-00-0001-89.png
14,599,0,1443541954397,1443541955554,376,332,0,0,0,5,4,1,54,0001-00-0006-80.png,0005-00-0006-19.png
14,600,1,1443541955588,1443541956039,324,384,0,0,0,3,4,1,34,0003-00-0007-86.png,0005-00-0005-59.png
14,601,1,1443541956063,1443541956764,867,362,0,0,0,3,4,1,34,0003-00-0002-92.png,0005-00-0000-77.png
14,602,0,1443541956795,1443541957032,905,401,0,0,0,4,3,1,43,0005-00-0002-62.png,0003-00-0009-19.png
14,603,1,1443541957071,1443541957283,504,462,0,0,0,2,1,1,21,0002-00-0000-23.png,0004-00-0003-51.png
14,604,0,1443541957329,1443541957624,888,436,0,0,0,2,3,1,23,0002-00-0006-70.png,0003-00-0007-28.png
14,605,0,1443541957680,1443541958957,319,368,0,0,0,3,2,1,32,0003-00-0006-53.png,0002-00-0003-68.png
14,606,0,1443541958991,1443541959791,861,351,0,0,0,5,4,1,54,0001-00-0001-34.png,0005-00-0008-96.png
14,607,1,1443541959819,1443541960289,896,325,0,0,0,1,2,1,12,0004-00-0009-48.png,0002-00-0000-40.png
14,608,1,1443541960318,1443541960880,519,368,0,0,0,5,4,1,54,0001-00-0002-46.png,0005-00-0007-45.png
14,609,1,1443541960909,1443541961752,279,364,0,0,0,5,4,1,54,0001-00-0002-58.png,0005-00-0001-17.png
14,610,1,1443541961781,1443541962121,904,481,0,0,0,2,1,1,21,0002-00-0003-28.png,0004-00-0006-81.png
14,611,0,1443541962162,1443541962821,375,392,0,0,0,3,2,1,32,0003-00-0002-86.png,0002-00-0005-31.png
14,612,1,1443541962851,1443541963332,943,365,0,0,0,4,3,1,43,0005-00-0007-74.png,0003-00-0008-12.png
14,613,0,1443541963377,1443541964803,918,373,0,0,0,1,2,1,12,0004-00-0002-34.png,0002-00-0006-31.png
14,614,0,1443541964824,1443541965569,334,400,0,0,0,2,3,1,23,0002-00-0008-73.png,0003-00-0003-29.png
14,615,0,1443541965610,1443541965903,934,460,0,0,0,3,4,1,34,0003-00-0005-16.png,0005-00-0004-72.png
14,616,1,1443541965931,1443541966232,504,427,0,0,0,5,4,1,54,0001-00-0007-56.png,0005-00-0004-65.png
14,617,0,1443541966261,1443541967325,350,332,0,0,0,1,2,1,12,0004-00-0006-29.png,0002-00-0002-73.png
14,618,0,1443541967347,1443541967783,926,397,0,0,0,4,3,1,43,0005-00-0000-07.png,0003-00-0000-79.png
14,619,1,1443541967811,1443541968352,305,436,0,0,0,3,2,1,32,0003-00-0005-25.png,0002-00-0008-82.png
14,620,0,1443541968397,1443541968669,918,405,0,0,0,5,4,1,54,0001-00-0007-28.png,0005-00-0003-96.png
14,621,0,1443541968692,1443541969345,892,404,0,0,0,3,4,1,34,0003-00-0006-70.png,0005-00-0000-30.png
14,622,0,1443541969375,1443541969873,303,412,0,0,0,2,3,1,23,0002-00-0000-03.png,0003-00-0007-94.png
14,623,1,1443541969896,1443541970736,913,397,0,0,0,5,4,1,54,0001-00-0005-01.png,0005-00-0005-66.png
14,624,1,1443541970761,1443541971423,875,503,0,0,0,2,1,1,21,0002-00-0007-14.png,0004-00-0007-09.png
14,625,0,1443541971453,1443541972134,319,447,0,0,0,5,4,1,54,0001-00-0007-85.png,0005-00-0006-76.png
14,626,0,1443541972162,1443541972887,310,374,0,0,0,5,4,1,54,0001-00-0008-10.png,0005-00-0008-42.png
14,627,1,1443541972913,1443541974329,376,349,0,0,0,2,3,1,23,0002-00-0008-72.png,0003-00-0004-42.png
14,628,1,1443541974351,1443541974774,356,426,0,0,0,3,4,1,34,0003-00-0007-09.png,0005-00-0008-78.png
14,629,1,1443541974788,1443541975074,929,413,0,0,0,3,2,1,32,0003-00-0005-45.png,0002-00-0002-99.png
14,630,0,1443541975094,1443541975446,914,372,0,0,0,1,2,1,12,0004-00-0007-72.png,0002-00-0006-38.png
14,631,0,1443541975470,1443541976188,885,425,0,0,0,2,1,1,21,0002-00-0007-24.png,0004-00-0001-81.png
14,632,1,1443541976210,1443541976598,903,417,0,0,0,4,3,1,43,0005-00-0009-23.png,0003-00-0008-57.png
14,633,1,1443541976624,1443541977652,370,388,0,0,0,3,4,1,34,0003-00-0005-04.png,0005-00-0009-40.png
14,634,1,1443541977680,1443541978213,414,491,0,0,0,5,4,1,54,0001-00-0008-17.png,0005-00-0000-84.png
14,635,1,1443541978242,1443541978781,875,487,0,0,0,2,3,1,23,0002-00-0007-90.png,0003-00-0004-77.png
14,636,1,1443541978814,1443541979156,882,421,0,0,0,5,4,1,54,0001-00-0002-94.png,0005-00-0009-81.png
14,637,0,1443541979184,1443541979615,317,419,0,0,0,3,2,1,32,0003-00-0001-46.png,0002-00-0000-82.png
14,638,1,1443541979639,1443541979985,873,458,0,0,0,2,1,1,21,0002-00-0004-34.png,0004-00-0006-00.png
14,639,1,1443541980037,1443541980700,907,385,0,0,0,1,2,1,12,0004-00-0008-08.png,0002-00-0005-49.png
14,640,1,1443541980730,1443541981454,401,438,0,0,0,4,3,1,43,0005-00-0008-65.png,0003-00-0000-01.png
14,641,0,1443541981479,1443541982075,959,409,0,0,0,5,4,1,54,0001-00-0006-89.png,0005-00-0005-87.png
14,642,1,1443541982100,1443541982488,312,421,0,0,0,2,3,1,23,0002-00-0007-49.png,0003-00-0002-99.png
14,643,1,1443541982543,1443541982889,902,415,0,0,0,1,2,1,12,0004-00-0008-86.png,0002-00-0005-15.png
14,644,1,1443541982910,1443541983728,517,410,0,0,0,3,4,1,34,0003-00-0001-40.png,0005-00-0004-73.png
14,645,0,1443541983750,1443541984196,376,332,0,0,0,4,3,1,43,0005-00-0008-27.png,0003-00-0001-86.png
14,646,0,1443541984230,1443541985214,323,414,0,0,0,3,2,1,32,0003-00-0002-63.png,0002-00-0009-60.png
14,647,1,1443541985241,1443541985866,312,378,0,0,0,2,1,1,21,0002-00-0005-10.png,0004-00-0004-32.png
14,648,0,1443541985893,1443541986140,292,402,0,0,0,5,4,1,54,0001-00-0005-42.png,0005-00-0005-03.png
14,649,1,1443541986171,1443541986382,299,397,0,0,0,5,4,1,54,0001-00-0006-04.png,0005-00-0003-60.png
14,650,1,1443541986420,1443541986899,344,395,0,0,0,4,3,1,43,0005-00-0004-71.png,0003-00-0007-26.png
14,651,1,1443541986920,1443541987277,495,375,0,0,0,2,1,1,21,0002-00-0009-72.png,0004-00-0005-28.png
14,652,1,1443541987317,1443541987631,896,472,0,0,0,2,3,1,23,0002-00-0008-69.png,0003-00-0006-69.png
14,653,1,1443541987656,1443541988289,912,398,0,0,0,3,2,1,32,0003-00-0000-52.png,0002-00-0001-18.png
14,654,1,1443541988310,1443541989017,893,389,0,0,0,5,4,1,54,0001-00-0000-99.png,0005-00-0009-46.png
14,655,1,1443541989048,1443541989343,922,446,0,0,0,3,4,1,34,0003-00-0005-72.png,0005-00-0003-38.png
14,656,1,1443541989366,1443541990369,504,480,0,0,0,1,2,1,12,0004-00-0008-41.png,0002-00-0003-95.png
14,657,0,1443541990398,1443541991478,350,417,0,0,0,1,2,1,12,0004-00-0007-99.png,0002-00-0009-39.png
14,658,0,1443541991503,1443541992379,375,422,0,0,0,2,3,1,23,0002-00-0008-98.png,0003-00-0008-29.png
14,659,0,1443541992407,1443541992812,361,403,0,0,0,2,1,1,21,0002-00-0007-86.png,0004-00-0009-60.png
14,660,0,1443541992847,1443541993501,376,332,0,0,0,5,4,1,54,0001-00-0000-34.png,0005-00-0008-42.png
14,661,1,1443541993525,1443541993779,889,468,0,0,0,5,4,1,54,0001-00-0007-48.png,0005-00-0001-58.png
14,662,1,1443541993809,1443541994385,896,472,0,0,0,4,3,1,43,0005-00-0004-86.png,0003-00-0008-57.png
14,663,0,1443541994415,1443541994893,334,413,0,0,0,3,2,1,32,0003-00-0001-44.png,0002-00-0005-88.png
14,664,0,1443541994920,1443541995470,342,390,0,0,0,3,4,1,34,0003-00-0006-32.png,0005-00-0005-08.png
14,665,1,1443541995493,1443541996031,903,442,0,0,0,5,4,1,54,0001-00-0008-32.png,0005-00-0009-94.png
14,666,1,1443541996065,1443541996338,879,402,0,0,0,1,2,1,12,0004-00-0007-21.png,0002-00-0008-82.png
14,667,1,1443541996364,1443541997206,930,392,0,0,0,2,1,1,21,0002-00-0006-72.png,0004-00-0003-31.png
14,668,1,1443541997238,1443541997545,904,480,0,0,0,5,4,1,54,0001-00-0003-59.png,0005-00-0008-23.png
14,669,1,1443541997577,1443541997740,504,410,0,0,0,4,3,1,43,0005-00-0001-33.png,0003-00-0001-58.png
14,670,0,1443541997758,1443541998773,380,380,0,0,0,2,3,1,23,0002-00-0005-16.png,0003-00-0004-74.png
14,671,0,1443541998803,1443541999000,309,353,0,0,0,3,2,1,32,0003-00-0002-70.png,0002-00-0007-84.png
14,672,0,1443541999032,1443541999593,875,513,0,0,0,3,4,1,34,0003-00-0001-53.png,0005-00-0009-63.png
14,673,1,1443541999621,1443542000639,889,431,0,0,0,2,1,1,21,0002-00-0001-37.png,0004-00-0002-68.png
14,674,1,1443542000671,1443542001080,521,369,0,0,0,4,3,1,43,0005-00-0001-75.png,0003-00-0005-47.png
14,675,1,1443542001118,1443542001424,926,371,0,0,0,5,4,1,54,0001-00-0002-74.png,0005-00-0007-47.png
14,676,1,1443542001463,1443542002206,410,367,0,0,0,1,2,1,12,0004-00-0003-19.png,0002-00-0005-94.png
14,677,1,1443542002239,1443542002707,359,372,0,0,0,2,3,1,23,0002-00-0009-89.png,0003-00-0009-48.png
14,678,1,1443542002733,1443542002921,882,448,0,0,0,5,4,1,54,0001-00-0005-50.png,0005-00-0008-56.png
14,679,1,1443542002938,1443542003235,888,476,0,0,0,3,4,1,34,0003-00-0009-28.png,0005-00-0004-07.png
14,680,1,1443542003257,1443542004805,310,340,0,0,0,3,2,1,32,0003-00-0008-86.png,0002-00-0000-17.png
14,681,0,1443542004830,1443542005158,401,375,0,0,0,5,4,1,54,0001-00-0008-04.png,0005-00-0005-08.png
14,682,1,1443542005183,1443542006155,915,373,0,0,0,5,4,1,54,0001-00-0006-22.png,0005-00-0000-19.png
14,683,1,1443542006197,1443542006934,900,476,0,0,0,2,1,1,21,0002-00-0007-02.png,0004-00-0000-51.png
14,684,0,1443542006956,1443542007368,349,331,0,0,0,3,2,1,32,0003-00-0005-96.png,0002-00-0002-88.png
14,685,1,1443542007402,1443542007824,886,476,0,0,0,4,3,1,43,0005-00-0009-85.png,0003-00-0008-58.png
14,686,0,1443542007848,1443542008626,376,384,0,0,0,1,2,1,12,0004-00-0007-68.png,0002-00-0008-69.png
14,687,0,1443542008652,1443542009279,901,450,0,0,0,3,4,1,34,0003-00-0009-74.png,0005-00-0001-48.png
14,688,1,1443542009302,1443542009467,325,403,0,0,0,2,3,1,23,0002-00-0009-46.png,0003-00-0008-36.png
14,689,0,1443542009491,1443542010177,873,377,0,0,0,5,4,1,54,0001-00-0006-02.png,0005-00-0000-31.png
14,690,0,1443542010207,1443542011058,890,460,0,0,0,1,2,1,12,0004-00-0006-72.png,0002-00-0001-09.png
14,691,0,1443542011087,1443542011665,873,344,0,0,0,4,3,1,43,0005-00-0006-19.png,0003-00-0001-31.png
14,692,0,1443542011694,1443542012570,370,395,0,0,0,5,4,1,54,0001-00-0000-39.png,0005-00-0005-52.png
14,693,1,1443542012596,1443542013589,316,375,0,0,0,2,1,1,21,0002-00-0000-97.png,0004-00-0002-36.png
14,694,1,1443542013631,1443542013821,319,395,0,0,0,3,2,1,32,0003-00-0003-35.png,0002-00-0003-60.png
14,695,0,1443542013881,1443542014269,905,391,0,0,0,3,4,1,34,0003-00-0008-67.png,0005-00-0008-04.png
14,696,1,1443542014300,1443542014730,510,395,0,0,0,2,3,1,23,0002-00-0003-45.png,0003-00-0003-25.png
14,697,0,1443542014751,1443542015452,873,486,0,0,0,5,4,1,54,0001-00-0003-58.png,0005-00-0000-84.png
14,698,1,1443542015476,1443542015866,947,445,0,0,0,3,4,1,34,0003-00-0006-60.png,0005-00-0007-57.png
14,699,1,1443542015893,1443542016052,288,387,0,0,0,2,1,1,21,0002-00-0007-75.png,0004-00-0004-81.png
14,700,0,1443542016081,1443542016324,296,387,0,0,0,3,2,1,32,0003-00-0004-00.png,0002-00-0002-94.png
14,701,1,1443542016352,1443542016699,918,382,0,0,0,5,4,1,54,0001-00-0009-21.png,0005-00-0007-83.png
14,702,1,1443542016721,1443542017258,334,405,0,0,0,4,3,1,43,0005-00-0006-10.png,0003-00-0002-57.png
14,703,0,1443542017281,1443542018064,857,330,0,0,0,1,2,1,12,0004-00-0001-95.png,0002-00-0005-46.png
14,704,1,1443542018091,1443542018248,319,395,0,0,0,2,3,1,23,0002-00-0007-88.png,0003-00-0005-06.png
14,705,0,1443542018296,1443542019179,365,503,0,0,0,3,4,1,34,0003-00-0005-25.png,0005-00-0003-20.png
14,706,1,1443542019205,1443542019524,885,399,0,0,0,5,4,1,54,0001-00-0008-40.png,0005-00-0005-84.png
14,707,0,1443542019554,1443542019994,401,358,0,0,0,4,3,1,43,0005-00-0007-39.png,0003-00-0004-32.png
14,708,0,1443542020016,1443542020331,514,541,0,0,0,5,4,1,54,0001-00-0002-26.png,0005-00-0000-48.png
14,709,1,1443542020362,1443542021360,904,401,0,0,0,1,2,1,12,0004-00-0001-07.png,0002-00-0000-17.png
14,710,1,1443542021396,1443542022082,295,395,0,0,0,2,3,1,23,0002-00-0003-25.png,0003-00-0008-98.png
14,711,1,1443542022108,1443542022602,334,402,0,0,0,3,2,1,32,0003-00-0006-17.png,0002-00-0002-45.png
14,712,0,1443542022631,1443542023300,883,395,0,0,0,2,1,1,21,0002-00-0007-59.png,0004-00-0001-64.png
14,713,0,1443542023330,1443542023739,363,340,0,0,0,5,4,1,54,0001-00-0003-11.png,0005-00-0006-87.png
14,714,0,1443542023780,1443542024134,322,380,0,0,0,5,4,1,54,0001-00-0004-16.png,0005-00-0000-63.png
14,715,1,1443542024162,1443542024842,350,368,0,0,0,3,2,1,32,0003-00-0008-45.png,0002-00-0005-79.png
14,716,0,1443542024878,1443542025106,486,456,0,0,0,1,2,1,12,0004-00-0007-03.png,0002-00-0000-19.png
14,717,1,1443542025128,1443542025462,313,366,0,0,0,3,4,1,34,0003-00-0000-27.png,0005-00-0006-37.png
14,718,1,1443542025494,1443542026115,926,409,0,0,0,4,3,1,43,0005-00-0000-59.png,0003-00-0001-15.png
14,719,1,1443542026144,1443542026607,875,411,0,0,0,2,3,1,23,0002-00-0000-66.png,0003-00-0009-99.png
14,720,0,1443542026647,1443542027276,338,411,0,0,0,2,1,1,21,0002-00-0005-96.png,0004-00-0004-51.png
14,721,1,1443542027306,1443542027720,906,447,0,0,0,4,3,1,43,0005-00-0006-52.png,0003-00-0003-28.png
14,722,0,1443542027739,1443542028023,904,375,0,0,0,3,4,1,34,0003-00-0009-10.png,0005-00-0005-92.png
14,723,1,1443542028054,1443542028823,389,438,0,0,0,2,1,1,21,0002-00-0008-59.png,0004-00-0001-79.png
14,724,1,1443542028854,1443542029466,900,450,0,0,0,5,4,1,54,0001-00-0004-50.png,0005-00-0003-73.png
14,725,0,1443542029496,1443542030336,324,363,0,0,0,3,2,1,32,0003-00-0000-21.png,0002-00-0000-85.png
14,726,1,1443542030367,1443542030798,862,363,0,0,0,5,4,1,54,0001-00-0003-38.png,0005-00-0000-64.png
14,727,1,1443542030835,1443542031255,343,395,0,0,0,1,2,1,12,0004-00-0005-53.png,0002-00-0002-66.png
14,728,1,1443542031286,1443542031673,345,414,0,0,0,2,3,1,23,0002-00-0003-92.png,0003-00-0004-08.png
14,729,1,1443542031695,1443542032148,925,359,0,0,0,2,3,1,23,0002-00-0009-09.png,0003-00-0006-78.png
14,730,1,1443542032193,1443542032549,350,396,0,0,0,4,3,1,43,0005-00-0001-49.png,0003-00-0003-84.png
14,731,1,1443542032576,1443542033651,879,401,0,0,0,3,2,1,32,0003-00-0002-20.png,0002-00-0007-47.png
14,732,1,1443542033687,1443542034170,286,384,0,0,0,2,1,1,21,0002-00-0005-89.png,0004-00-0009-85.png
14,733,1,1443542034208,1443542034527,900,371,0,0,0,1,2,1,12,0004-00-0004-49.png,0002-00-0004-27.png
14,734,0,1443542034558,1443542034840,882,472,0,0,0,5,4,1,54,0001-00-0001-56.png,0005-00-0005-54.png
14,735,0,1443542034873,1443542035029,302,398,0,0,0,3,4,1,34,0003-00-0006-27.png,0005-00-0002-40.png
14,736,1,1443542035059,1443542035719,379,337,0,0,0,5,4,1,54,0001-00-0005-83.png,0005-00-0001-05.png
14,737,0,1443542035758,1443542036275,340,366,0,0,0,4,3,1,43,0005-00-0000-77.png,0003-00-0009-40.png
14,738,1,1443542036303,1443542036569,915,448,0,0,0,5,4,1,54,0001-00-0003-50.png,0005-00-0004-27.png
14,739,1,1443542036605,1443542037196,956,401,0,0,0,5,4,1,54,0001-00-0007-08.png,0005-00-0002-69.png
14,740,1,1443542037222,1443542038842,931,415,0,0,0,2,3,1,23,0002-00-0008-92.png,0003-00-0003-43.png
14,741,0,1443542038864,1443542039417,319,370,0,0,0,1,2,1,12,0004-00-0006-66.png,0002-00-0002-75.png
14,742,1,1443542039437,1443542039877,335,386,0,0,0,3,2,1,32,0003-00-0004-95.png,0002-00-0006-22.png
14,743,1,1443542039908,1443542040017,336,376,0,0,0,3,4,1,34,0003-00-0009-55.png,0005-00-0003-72.png
14,744,1,1443542040042,1443542040512,888,410,0,0,0,2,1,1,21,0002-00-0008-19.png,0004-00-0007-15.png
14,745,0,1443542040553,1443542041160,896,446,0,0,0,2,3,1,23,0002-00-0003-69.png,0003-00-0004-09.png
14,746,0,1443542041203,1443542042039,899,475,0,0,0,5,4,1,54,0001-00-0003-77.png,0005-00-0000-12.png
14,747,1,1443542042062,1443542042293,858,358,0,0,0,2,1,1,21,0002-00-0003-87.png,0004-00-0004-48.png
14,748,1,1443542042314,1443542042848,875,342,0,0,0,5,4,1,54,0001-00-0009-67.png,0005-00-0007-54.png
14,749,0,1443542042877,1443542043200,318,394,0,0,0,4,3,1,43,0005-00-0002-90.png,0003-00-0000-52.png
14,750,1,1443542043233,1443542043482,899,407,0,0,0,3,2,1,32,0003-00-0009-75.png,0002-00-0004-23.png
14,751,1,1443542043518,1443542043760,895,393,0,0,0,3,4,1,34,0003-00-0009-78.png,0005-00-0005-19.png
14,752,1,1443542043788,1443542045135,331,403,0,0,0,1,2,1,12,0004-00-0000-20.png,0002-00-0006-83.png
14,753,0,1443542045171,1443542045555,385,384,0,0,0,2,1,1,21,0002-00-0002-52.png,0004-00-0005-29.png
14,754,1,1443542045583,1443542046128,311,411,0,0,0,3,2,1,32,0003-00-0008-88.png,0002-00-0001-34.png
14,755,0,1443542046154,1443542046597,883,445,0,0,0,5,4,1,54,0001-00-0001-47.png,0005-00-0006-14.png
14,756,0,1443542046625,1443542046863,356,334,0,0,0,5,4,1,54,0001-00-0003-29.png,0005-00-0008-69.png
14,757,1,1443542046892,1443542047531,463,461,0,0,0,3,4,1,34,0003-00-0008-09.png,0005-00-0008-20.png
14,758,0,1443542047569,1443542047765,860,373,0,0,0,2,3,1,23,0002-00-0003-16.png,0003-00-0009-68.png
14,759,0,1443542047784,1443542048170,943,482,0,0,0,4,3,1,43,0005-00-0006-71.png,0003-00-0000-54.png
14,760,0,1443542048199,1443542048622,344,421,0,0,0,1,2,1,12,0004-00-0000-32.png,0002-00-0008-66.png
14,761,1,1443542048651,1443542049588,361,405,0,0,0,3,4,1,34,0003-00-0000-39.png,0005-00-0004-86.png
14,762,1,1443542049625,1443542050358,910,386,0,0,0,4,3,1,43,0005-00-0008-99.png,0003-00-0003-55.png
14,763,1,1443542050398,1443542050847,401,397,0,0,0,5,4,1,54,0001-00-0002-25.png,0005-00-0001-42.png
14,764,1,1443542050879,1443542051678,375,384,0,0,0,2,3,1,23,0002-00-0000-32.png,0003-00-0004-53.png
14,765,0,1443542051711,1443542052201,330,407,0,0,0,1,2,1,12,0004-00-0009-50.png,0002-00-0001-83.png
14,766,1,1443542052222,1443542052776,900,488,0,0,0,2,1,1,21,0002-00-0005-57.png,0004-00-0002-53.png
14,767,0,1443542052810,1443542053069,900,440,0,0,0,5,4,1,54,0001-00-0003-48.png,0005-00-0008-04.png
14,768,0,1443542053092,1443542053477,324,404,0,0,0,3,2,1,32,0003-00-0005-17.png,0002-00-0002-41.png
14,769,1,1443542053502,1443542054000,875,462,0,0,0,5,4,1,54,0001-00-0003-72.png,0005-00-0004-33.png
14,770,1,1443542054038,1443542054474,504,425,0,0,0,3,2,1,32,0003-00-0000-48.png,0002-00-0002-46.png
14,771,0,1443542054495,1443542054853,872,511,0,0,0,3,4,1,34,0003-00-0009-00.png,0005-00-0001-13.png
14,772,1,1443542054879,1443542056073,900,476,0,0,0,2,1,1,21,0002-00-0006-25.png,0004-00-0009-79.png
14,773,1,1443542056091,1443542057028,319,369,0,0,0,1,2,1,12,0004-00-0002-00.png,0002-00-0000-91.png
14,774,0,1443542057045,1443542057405,376,344,0,0,0,2,3,1,23,0002-00-0007-40.png,0003-00-0004-87.png
14,775,1,1443542057429,1443542057685,875,461,0,0,0,5,4,1,54,0001-00-0000-73.png,0005-00-0003-97.png
14,776,1,1443542057710,1443542058517,340,420,0,0,0,4,3,1,43,0005-00-0007-49.png,0003-00-0000-56.png
14,777,0,1443542058547,1443542058966,295,395,0,0,0,3,4,1,34,0003-00-0005-43.png,0005-00-0001-66.png
14,778,1,1443542059010,1443542059759,922,394,0,0,0,3,2,1,32,0003-00-0007-57.png,0002-00-0005-43.png
14,779,0,1443542059783,1443542060586,857,385,0,0,0,2,3,1,23,0002-00-0002-57.png,0003-00-0002-44.png
14,780,0,1443542060625,1443542061072,878,406,0,0,0,5,4,1,54,0001-00-0002-91.png,0005-00-0007-70.png
14,781,1,1443542061104,1443542061722,888,437,0,0,0,1,2,1,12,0004-00-0008-00.png,0002-00-0005-10.png
14,782,0,1443542061758,1443542062242,937,369,0,0,0,2,1,1,21,0002-00-0009-15.png,0004-00-0002-88.png
14,783,0,1443542062272,1443542062909,350,319,0,0,0,4,3,1,43,0005-00-0004-56.png,0003-00-0005-08.png
14,784,0,1443542062933,1443542063333,900,449,0,0,0,5,4,1,54,0001-00-0003-88.png,0005-00-0003-37.png
14,785,1,1443542063361,1443542063850,875,461,0,0,0,5,4,1,54,0001-00-0006-68.png,0005-00-0005-65.png
14,786,1,1443542063881,1443542064341,483,438,0,0,0,4,3,1,43,0005-00-0009-29.png,0003-00-0006-26.png
14,787,0,1443542064372,1443542064932,286,397,0,0,0,5,4,1,54,0001-00-0003-96.png,0005-00-0005-36.png
14,788,0,1443542064975,1443542065760,912,451,0,0,0,1,2,1,12,0004-00-0004-43.png,0002-00-0007-57.png
14,789,1,1443542065785,1443542066137,938,424,0,0,0,2,3,1,23,0002-00-0009-59.png,0003-00-0002-42.png
14,790,1,1443542066155,1443542066918,337,424,0,0,0,3,4,1,34,0003-00-0000-97.png,0005-00-0007-78.png
14,791,1,1443542066941,1443542067398,888,424,0,0,0,3,2,1,32,0003-00-0002-52.png,0002-00-0002-44.png
14,792,1,1443542067421,1443542067674,872,457,0,0,0,2,1,1,21,0002-00-0005-54.png,0004-00-0007-87.png
14,793,0,1443542067704,1443542068274,319,395,0,0,0,4,3,1,43,0005-00-0009-69.png,0003-00-0001-58.png
14,794,1,1443542068301,1443542068996,893,476,0,0,0,1,2,1,12,0004-00-0002-04.png,0002-00-0000-25.png
14,795,0,1443542069027,1443542069670,295,353,0,0,0,5,4,1,54,0001-00-0000-68.png,0005-00-0005-56.png
14,796,1,1443542069707,1443542070206,427,332,0,0,0,3,2,1,32,0003-00-0001-65.png,0002-00-0006-54.png
14,797,0,1443542070237,1443542070736,367,458,0,0,0,2,3,1,23,0002-00-0003-20.png,0003-00-0009-01.png
14,798,0,1443542070768,1443542072370,873,482,0,0,0,3,4,1,34,0003-00-0000-00.png,0005-00-0009-72.png
14,799,0,1443542072403,1443542072878,893,361,0,0,0,2,1,1,21,0002-00-0008-92.png,0004-00-0003-39.png
14,800,0,1443542072914,1443542073274,928,390,0,0,0,5,4,1,54,0001-00-0007-60.png,0005-00-0006-41.png
14,801,1,1443542073321,1443542073684,887,397,0,0,0,5,4,1,54,0001-00-0002-77.png,0005-00-0004-95.png
14,802,1,1443542073714,1443542074637,324,397,0,0,0,3,2,1,32,0003-00-0008-72.png,0002-00-0007-58.png
14,803,0,1443542074668,1443542075400,348,353,0,0,0,2,3,1,23,0002-00-0001-87.png,0003-00-0009-87.png
14,804,1,1443542075430,1443542076057,478,541,0,0,0,4,3,1,43,0005-00-0003-80.png,0003-00-0007-39.png
14,805,1,1443542076085,1443542078331,331,356,0,0,0,5,4,1,54,0001-00-0001-22.png,0005-00-0008-91.png
14,806,0,1443542078358,1443542079115,955,392,0,0,0,2,1,1,21,0002-00-0009-35.png,0004-00-0000-87.png
14,807,0,1443542079140,1443542079826,904,427,0,0,0,3,4,1,34,0003-00-0001-59.png,0005-00-0003-91.png
14,808,0,1443542079877,1443542080977,399,428,0,0,0,1,2,1,12,0004-00-0009-02.png,0002-00-0008-13.png
14,809,0,1443542081005,1443542081705,357,398,0,0,0,5,4,1,54,0001-00-0008-50.png,0005-00-0005-23.png
14,810,1,1443542081727,1443542082188,488,435,0,0,0,3,2,1,32,0003-00-0005-58.png,0002-00-0001-62.png
14,811,1,1443542082214,1443542082573,401,386,0,0,0,2,3,1,23,0002-00-0006-12.png,0003-00-0002-88.png
14,812,1,1443542082604,1443542083115,929,415,0,0,0,3,4,1,34,0003-00-0000-34.png,0005-00-0004-92.png
14,813,0,1443542083144,1443542083575,324,377,0,0,0,2,1,1,21,0002-00-0005-57.png,0004-00-0003-82.png
14,814,1,1443542083602,1443542084129,931,389,0,0,0,4,3,1,43,0005-00-0002-10.png,0003-00-0004-15.png
14,815,1,1443542084167,1443542084926,926,371,0,0,0,1,2,1,12,0004-00-0005-26.png,0002-00-0005-77.png
14,816,1,1443542084960,1443542085274,299,370,0,0,0,5,4,1,54,0001-00-0000-56.png,0005-00-0005-11.png
14,817,1,1443542085305,1443542085841,376,332,0,0,0,5,4,1,54,0001-00-0004-41.png,0005-00-0001-63.png
14,818,0,1443542085877,1443542086526,925,438,0,0,0,2,3,1,23,0002-00-0002-77.png,0003-00-0003-75.png
14,819,1,1443542086560,1443542087436,387,402,0,0,0,5,4,1,54,0001-00-0001-26.png,0005-00-0000-60.png
14,820,1,1443542087468,1443542087868,862,477,0,0,0,3,4,1,34,0003-00-0009-31.png,0005-00-0001-12.png
14,821,1,1443542087901,1443542089701,314,381,0,0,0,4,3,1,43,0005-00-0004-04.png,0003-00-0007-09.png
14,822,1,1443542089733,1443542090432,890,493,0,0,0,3,2,1,32,0003-00-0004-13.png,0002-00-0003-25.png
14,823,0,1443542090465,1443542091791,956,374,0,0,0,2,1,1,21,0002-00-0000-09.png,0004-00-0001-95.png
14,824,1,1443542091821,1443542092158,349,399,0,0,0,1,2,1,12,0004-00-0004-76.png,0002-00-0008-72.png
14,825,1,1443542092179,1443542092684,875,466,0,0,0,4,3,1,43,0005-00-0009-79.png,0003-00-0008-40.png
14,826,0,1443542092705,1443542093389,923,431,0,0,0,5,4,1,54,0001-00-0000-83.png,0005-00-0000-06.png
14,827,1,1443542093422,1443542093825,884,501,0,0,0,5,4,1,54,0001-00-0009-15.png,0005-00-0005-03.png
14,828,0,1443542093848,1443542094615,384,366,0,0,0,1,2,1,12,0004-00-0002-84.png,0002-00-0005-13.png
14,829,0,1443542094641,1443542095812,900,397,0,0,0,3,2,1,32,0003-00-0000-15.png,0002-00-0008-33.png
14,830,1,1443542095833,1443542096722,401,318,0,0,0,2,3,1,23,0002-00-0000-81.png,0003-00-0004-75.png
14,831,0,1443542096754,1443542097251,919,492,0,0,0,3,4,1,34,0003-00-0003-43.png,0005-00-0009-53.png
14,832,1,1443542097285,1443542097654,293,395,0,0,0,2,1,1,21,0002-00-0001-26.png,0004-00-0005-32.png
14,833,0,1443542097690,1443542098186,900,411,0,0,0,1,2,1,12,0004-00-0002-09.png,0002-00-0007-25.png
14,834,0,1443542098215,1443542098581,401,358,0,0,0,3,2,1,32,0003-00-0002-14.png,0002-00-0008-74.png
14,835,0,1443542098606,1443542099042,913,405,0,0,0,4,3,1,43,0005-00-0007-57.png,0003-00-0004-24.png
14,836,0,1443542099065,1443542099534,321,395,0,0,0,2,1,1,21,0002-00-0007-56.png,0004-00-0007-08.png
14,837,0,1443542099567,1443542100282,342,391,0,0,0,5,4,1,54,0001-00-0005-00.png,0005-00-0006-36.png
14,838,0,1443542100317,1443542100786,926,371,0,0,0,3,4,1,34,0003-00-0006-32.png,0005-00-0000-30.png
14,839,1,1443542100829,1443542101308,917,392,0,0,0,2,3,1,23,0002-00-0000-99.png,0003-00-0005-57.png
14,840,1,1443542101338,1443542101908,362,423,0,0,0,5,4,1,54,0001-00-0004-97.png,0005-00-0007-17.png
14,841,0,1443542101926,1443542102422,901,411,0,0,0,5,4,1,54,0001-00-0002-32.png,0005-00-0003-28.png
14,842,1,1443542102443,1443542102680,376,358,0,0,0,5,4,1,54,0001-00-0009-34.png,0005-00-0009-61.png
14,843,0,1443542102722,1443542103316,312,396,0,0,0,2,3,1,23,0002-00-0006-23.png,0003-00-0008-45.png
14,844,1,1443542103348,1443542103623,912,398,0,0,0,3,4,1,34,0003-00-0004-93.png,0005-00-0007-05.png
14,845,1,1443542103659,1443542104119,408,413,0,0,0,3,2,1,32,0003-00-0005-68.png,0002-00-0002-58.png
14,846,0,1443542104147,1443542104465,874,489,0,0,0,1,2,1,12,0004-00-0005-75.png,0002-00-0004-10.png
14,847,1,1443542104502,1443542105368,401,384,0,0,0,4,3,1,43,0005-00-0004-40.png,0003-00-0000-91.png
14,848,1,1443542105399,1443542105844,509,391,0,0,0,2,1,1,21,0002-00-0004-92.png,0004-00-0001-95.png
14,849,0,1443542105871,1443542106089,912,422,0,0,0,3,4,1,34,0003-00-0007-21.png,0005-00-0007-21.png
14,850,0,1443542106120,1443542106973,504,425,0,0,0,2,1,1,21,0002-00-0001-84.png,0004-00-0004-13.png
14,851,0,1443542107000,1443542108357,866,362,0,0,0,5,4,1,54,0001-00-0009-83.png,0005-00-0001-79.png
14,852,0,1443542108379,1443542109061,360,430,0,0,0,2,3,1,23,0002-00-0008-19.png,0003-00-0009-37.png
14,853,1,1443542109087,1443542109771,307,402,0,0,0,1,2,1,12,0004-00-0007-30.png,0002-00-0009-13.png
14,854,0,1443542109796,1443542110113,931,376,0,0,0,5,4,1,54,0001-00-0003-74.png,0005-00-0004-23.png
14,855,1,1443542110142,1443542110463,504,448,0,0,0,4,3,1,43,0005-00-0007-92.png,0003-00-0000-17.png
14,856,1,1443542110496,1443542110872,887,419,0,0,0,3,2,1,32,0003-00-0008-84.png,0002-00-0004-98.png
14,857,0,1443542110908,1443542111403,504,422,0,0,0,1,2,1,12,0004-00-0000-85.png,0002-00-0004-00.png
14,858,1,1443542111426,1443542111583,319,369,0,0,0,3,4,1,34,0003-00-0000-98.png,0005-00-0000-77.png
14,859,1,1443542111613,1443542111896,396,537,0,0,0,3,2,1,32,0003-00-0009-50.png,0002-00-0001-37.png
14,860,0,1443542111920,1443542112283,923,380,0,0,0,4,3,1,43,0005-00-0002-01.png,0003-00-0004-38.png
14,861,1,1443542112317,1443542112579,875,514,0,0,0,2,3,1,23,0002-00-0008-61.png,0003-00-0002-30.png
14,862,1,1443542112605,1443542113009,890,478,0,0,0,2,1,1,21,0002-00-0007-87.png,0004-00-0003-30.png
14,863,0,1443542113042,1443542113721,413,490,0,0,0,5,4,1,54,0001-00-0009-50.png,0005-00-0000-58.png
14,864,1,1443542113744,1443542114162,393,349,0,0,0,5,4,1,54,0001-00-0006-09.png,0005-00-0005-27.png
14,865,0,1443542114189,1443542114666,362,496,0,0,0,3,4,1,34,0003-00-0003-91.png,0005-00-0000-20.png
14,866,1,1443542114702,1443542115138,368,406,0,0,0,5,4,1,54,0001-00-0009-29.png,0005-00-0002-20.png
14,867,0,1443542115164,1443542115546,963,398,0,0,0,1,2,1,12,0004-00-0002-22.png,0002-00-0002-73.png
14,868,0,1443542115583,1443542115780,875,449,0,0,0,3,2,1,32,0003-00-0008-26.png,0002-00-0008-02.png
14,869,1,1443542115813,1443542116325,283,390,0,0,0,4,3,1,43,0005-00-0001-51.png,0003-00-0008-32.png
14,870,0,1443542116346,1443542116847,904,480,0,0,0,2,1,1,21,0002-00-0002-24.png,0004-00-0000-98.png
14,871,1,1443542116869,1443542117167,366,471,0,0,0,2,3,1,23,0002-00-0001-86.png,0003-00-0001-80.png
14,872,0,1443542117219,1443542117706,471,391,0,0,0,5,4,1,54,0001-00-0003-61.png,0005-00-0004-92.png
14,873,0,1443542117730,1443542118208,376,384,0,0,0,5,4,1,54,0001-00-0000-82.png,0005-00-0004-39.png
14,874,0,1443542118234,1443542119493,914,397,0,0,0,4,3,1,43,0005-00-0003-72.png,0003-00-0002-43.png
14,875,1,1443542119512,1443542120416,894,429,0,0,0,3,4,1,34,0003-00-0001-74.png,0005-00-0000-67.png
14,876,1,1443542120444,1443542121050,319,395,0,0,0,3,2,1,32,0003-00-0002-92.png,0002-00-0004-79.png
14,877,1,1443542121081,1443542121380,344,395,0,0,0,2,1,1,21,0002-00-0005-65.png,0004-00-0002-76.png
14,878,0,1443542121415,1443542121868,878,480,0,0,0,1,2,1,12,0004-00-0005-57.png,0002-00-0007-78.png
14,879,1,1443542121894,1443542122709,379,399,0,0,0,2,3,1,23,0002-00-0004-57.png,0003-00-0001-06.png
14,880,0,1443542122729,1443542123291,492,426,0,0,0,5,4,1,54,0001-00-0006-01.png,0005-00-0007-59.png
14,881,0,1443542123321,1443542123657,324,384,0,0,0,3,4,1,34,0003-00-0006-89.png,0005-00-0006-31.png
14,882,0,1443542123691,1443542123919,892,492,0,0,0,3,2,1,32,0003-00-0004-75.png,0002-00-0003-09.png
14,883,1,1443542123946,1443542124696,361,477,0,0,0,5,4,1,54,0001-00-0004-73.png,0005-00-0005-02.png
14,884,1,1443542124727,1443542124935,885,474,0,0,0,2,1,1,21,0002-00-0009-29.png,0004-00-0005-42.png
14,885,0,1443542124965,1443542125488,904,468,0,0,0,1,2,1,12,0004-00-0009-84.png,0002-00-0007-11.png
14,886,0,1443542125521,1443542125698,907,494,0,0,0,5,4,1,54,0001-00-0001-96.png,0005-00-0008-82.png
14,887,0,1443542125719,1443542125886,894,492,0,0,0,2,3,1,23,0002-00-0006-48.png,0003-00-0003-97.png
14,888,0,1443542125922,1443542126305,388,449,0,0,0,4,3,1,43,0005-00-0008-75.png,0003-00-0008-88.png
14,889,0,1443542126334,1443542126573,522,426,0,0,0,4,3,1,43,0005-00-0009-22.png,0003-00-0008-58.png
14,890,1,1443542126595,1443542127577,315,379,0,0,0,3,4,1,34,0003-00-0005-70.png,0005-00-0002-55.png
14,891,0,1443542127603,1443542128288,393,379,0,0,0,1,2,1,12,0004-00-0000-56.png,0002-00-0008-33.png
14,892,1,1443542128318,1443542128997,523,374,0,0,0,2,1,1,21,0002-00-0007-32.png,0004-00-0001-18.png
14,893,1,1443542129049,1443542129415,894,440,0,0,0,5,4,1,54,0001-00-0007-18.png,0005-00-0003-20.png
14,894,1,1443542129451,1443542130378,938,371,0,0,0,3,2,1,32,0003-00-0009-25.png,0002-00-0005-48.png
14,895,1,1443542130409,1443542130818,958,391,0,0,0,5,4,1,54,0001-00-0001-68.png,0005-00-0008-69.png
14,896,0,1443542130860,1443542131994,931,381,0,0,0,2,3,1,23,0002-00-0007-02.png,0003-00-0008-78.png
14,897,0,1443542132018,1443542132462,380,364,0,0,0,3,4,1,34,0003-00-0001-02.png,0005-00-0009-73.png
14,898,0,1443542132494,1443542133055,504,425,0,0,0,3,2,1,32,0003-00-0008-02.png,0002-00-0005-50.png
14,899,1,1443542133084,1443542133286,324,342,0,0,0,2,1,1,21,0002-00-0007-84.png,0004-00-0006-61.png
14,900,1,1443542133310,1443542133959,342,391,0,0,0,2,3,1,23,0002-00-0009-64.png,0003-00-0009-19.png
14,901,1,1443542133990,1443542134407,912,476,0,0,0,4,3,1,43,0005-00-0003-36.png,0003-00-0003-23.png
14,902,0,1443542134438,1443542134985,340,415,0,0,0,1,2,1,12,0004-00-0002-78.png,0002-00-0000-33.png
14,903,0,1443542135015,1443542135236,496,562,0,0,0,5,4,1,54,0001-00-0003-66.png,0005-00-0008-44.png
14,904,1,1443542135265,1443542135677,876,329,0,0,0,5,4,1,54,0001-00-0004-96.png,0005-00-0004-34.png
14,905,0,1443542135696,1443542136119,356,397,0,0,0,3,2,1,32,0003-00-0009-03.png,0002-00-0009-35.png
14,906,1,1443542136146,1443542136777,866,362,0,0,0,1,2,1,12,0004-00-0004-28.png,0002-00-0004-94.png
14,907,1,1443542136835,1443542137084,325,397,0,0,0,4,3,1,43,0005-00-0004-41.png,0003-00-0007-43.png
14,908,1,1443542137116,1443542137270,863,345,0,0,0,5,4,1,54,0001-00-0009-16.png,0005-00-0006-80.png
14,909,0,1443542137298,1443542138315,401,390,0,0,0,3,4,1,34,0003-00-0005-28.png,0005-00-0004-63.png
14,910,1,1443542138349,1443542138856,914,398,0,0,0,5,4,1,54,0001-00-0008-03.png,0005-00-0000-54.png
14,911,1,1443542138881,1443542139873,905,473,0,0,0,2,3,1,23,0002-00-0007-03.png,0003-00-0003-73.png
14,912,1,1443542139908,1443542140483,376,360,0,0,0,2,1,1,21,0002-00-0004-99.png,0004-00-0006-36.png
14,913,0,1443542140511,1443542141200,478,462,0,0,0,1,2,1,12,0004-00-0009-07.png,0002-00-0000-29.png
14,914,0,1443542141223,1443542141818,929,387,0,0,0,3,2,1,32,0003-00-0000-94.png,0002-00-0008-69.png
14,915,1,1443542141844,1443542142197,903,416,0,0,0,5,4,1,54,0001-00-0009-89.png,0005-00-0002-11.png
14,916,1,1443542142238,1443542142497,934,463,0,0,0,2,3,1,23,0002-00-0006-27.png,0003-00-0000-52.png
14,917,0,1443542142525,1443542143517,358,377,0,0,0,3,4,1,34,0003-00-0009-95.png,0005-00-0003-76.png
14,918,0,1443542143544,1443542143683,300,391,0,0,0,2,1,1,21,0002-00-0005-61.png,0004-00-0008-49.png
14,919,0,1443542143718,1443542144575,880,417,0,0,0,5,4,1,54,0001-00-0002-71.png,0005-00-0000-87.png
14,920,1,1443542144595,1443542145169,317,421,0,0,0,4,3,1,43,0005-00-0008-24.png,0003-00-0001-78.png
14,921,1,1443542145213,1443542145794,509,446,0,0,0,1,2,1,12,0004-00-0005-67.png,0002-00-0005-42.png
14,922,1,1443542145834,1443542146077,925,355,0,0,0,3,4,1,34,0003-00-0006-92.png,0005-00-0007-13.png
14,923,1,1443542146115,1443542146298,401,370,0,0,0,5,4,1,54,0001-00-0003-86.png,0005-00-0007-52.png
14,924,0,1443542146326,1443542146871,889,424,0,0,0,2,3,1,23,0002-00-0005-81.png,0003-00-0009-39.png
14,925,0,1443542146896,1443542147397,347,423,0,0,0,4,3,1,43,0005-00-0003-91.png,0003-00-0009-69.png
14,926,1,1443542147423,1443542148238,926,410,0,0,0,5,4,1,54,0001-00-0009-25.png,0005-00-0002-06.png
14,927,1,1443542148263,1443542148916,900,412,0,0,0,3,2,1,32,0003-00-0009-61.png,0002-00-0009-85.png
14,928,1,1443542148943,1443542149355,875,487,0,0,0,2,1,1,21,0002-00-0008-76.png,0004-00-0008-59.png
14,929,1,1443542149396,1443542150269,866,363,0,0,0,3,2,1,32,0003-00-0007-18.png,0002-00-0006-62.png
14,930,1,1443542150287,1443542150600,888,475,0,0,0,5,4,1,54,0001-00-0003-71.png,0005-00-0006-15.png
14,931,0,1443542150634,1443542151087,350,358,0,0,0,2,1,1,21,0002-00-0007-23.png,0004-00-0000-42.png
14,932,1,1443542151107,1443542151449,312,424,0,0,0,1,2,1,12,0004-00-0009-90.png,0002-00-0004-25.png
14,933,0,1443542151476,1443542153406,317,358,0,0,0,2,3,1,23,0002-00-0004-84.png,0003-00-0005-53.png
14,934,0,1443542153425,1443542154467,316,401,0,0,0,4,3,1,43,0005-00-0008-44.png,0003-00-0007-66.png
14,935,0,1443542154488,1443542155074,894,481,0,0,0,3,4,1,34,0003-00-0001-41.png,0005-00-0004-36.png
14,936,0,1443542155101,1443542155325,351,394,0,0,0,5,4,1,54,0001-00-0007-42.png,0005-00-0006-48.png
14,937,1,1443542155359,1443542156165,390,476,0,0,0,5,4,1,54,0001-00-0008-63.png,0005-00-0002-73.png
14,938,0,1443542156185,1443542156558,350,384,0,0,0,3,2,1,32,0003-00-0008-24.png,0002-00-0003-56.png
14,939,0,1443542156584,1443542157098,401,358,0,0,0,2,3,1,23,0002-00-0003-46.png,0003-00-0003-17.png
14,940,1,1443542157134,1443542157582,897,494,0,0,0,4,3,1,43,0005-00-0002-15.png,0003-00-0001-03.png
14,941,1,1443542157608,1443542157863,932,389,0,0,0,1,2,1,12,0004-00-0003-09.png,0002-00-0003-17.png
14,942,0,1443542157900,1443542160228,324,442,0,0,0,3,4,1,34,0003-00-0009-02.png,0005-00-0005-91.png
14,943,1,1443542160250,1443542160542,872,456,0,0,0,2,1,1,21,0002-00-0007-94.png,0004-00-0003-60.png
14,944,1,1443542160579,1443542160935,407,402,0,0,0,5,4,1,54,0001-00-0009-44.png,0005-00-0008-46.png
14,945,1,1443542160972,1443542161188,905,375,0,0,0,2,1,1,21,0002-00-0001-40.png,0004-00-0000-77.png
14,946,0,1443542161219,1443542161596,289,400,0,0,0,5,4,1,54,0001-00-0009-02.png,0005-00-0000-32.png
14,947,0,1443542161626,1443542162254,900,489,0,0,0,4,3,1,43,0005-00-0000-41.png,0003-00-0008-89.png
14,948,1,1443542162282,1443542163116,903,416,0,0,0,2,3,1,23,0002-00-0001-16.png,0003-00-0000-51.png
14,949,1,1443542163151,1443542163747,358,401,0,0,0,1,2,1,12,0004-00-0006-45.png,0002-00-0007-58.png
14,950,0,1443542163779,1443542164173,902,413,0,0,0,3,2,1,32,0003-00-0000-97.png,0002-00-0001-56.png
14,951,1,1443542164200,1443542164797,913,463,0,0,0,3,4,1,34,0003-00-0008-59.png,0005-00-0008-19.png
14,952,1,1443542164828,1443542165154,904,402,0,0,0,5,4,1,54,0001-00-0002-31.png,0005-00-0007-58.png
14,953,1,1443542165188,1443542165820,486,444,0,0,0,5,4,1,54,0001-00-0000-51.png,0005-00-0004-60.png
14,954,1,1443542165844,1443542166263,405,468,0,0,0,5,4,1,54,0001-00-0002-49.png,0005-00-0008-50.png
14,955,1,1443542166304,1443542166700,372,414,0,0,0,3,2,1,32,0003-00-0004-05.png,0002-00-0006-95.png
14,956,1,1443542166727,1443542167055,504,410,0,0,0,4,3,1,43,0005-00-0007-47.png,0003-00-0004-16.png
14,957,1,1443542167077,1443542168061,396,485,0,0,0,2,1,1,21,0002-00-0007-25.png,0004-00-0003-67.png
14,958,1,1443542168096,1443542168506,882,456,0,0,0,3,4,1,34,0003-00-0004-43.png,0005-00-0004-11.png
14,959,0,1443542168538,1443542169037,376,393,0,0,0,1,2,1,12,0004-00-0001-62.png,0002-00-0001-58.png
14,960,1,1443542169064,1443542169569,900,475,0,0,0,2,3,1,23,0002-00-0004-64.png,0003-00-0007-20.png
14,961,0,1443542169599,1443542170054,331,375,0,0,0,5,4,1,54,0001-00-0006-63.png,0005-00-0004-99.png
14,962,1,1443542170086,1443542170374,899,464,0,0,0,1,2,1,12,0004-00-0000-29.png,0002-00-0002-14.png
14,963,1,1443542170408,1443542170813,875,488,0,0,0,3,4,1,34,0003-00-0000-37.png,0005-00-0007-54.png
14,964,1,1443542170839,1443542171081,903,437,0,0,0,5,4,1,54,0001-00-0009-13.png,0005-00-0009-38.png
14,965,1,1443542171109,1443542171334,478,514,0,0,0,2,3,1,23,0002-00-0005-42.png,0003-00-0003-72.png
14,966,1,1443542171361,1443542171944,344,437,0,0,0,4,3,1,43,0005-00-0009-89.png,0003-00-0002-69.png
14,967,1,1443542171964,1443542172105,897,394,0,0,0,2,1,1,21,0002-00-0004-50.png,0004-00-0008-00.png
14,968,0,1443542172130,1443542172551,900,476,0,0,0,3,2,1,32,0003-00-0003-16.png,0002-00-0004-89.png
14,969,0,1443542172581,1443542173312,331,411,0,0,0,3,4,1,34,0003-00-0003-55.png,0005-00-0008-11.png
14,970,1,1443542173349,1443542173848,876,409,0,0,0,4,3,1,43,0005-00-0006-42.png,0003-00-0000-67.png
14,971,1,1443542173873,1443542174176,299,397,0,0,0,5,4,1,54,0001-00-0008-55.png,0005-00-0002-01.png
14,972,1,1443542174198,1443542174878,886,451,0,0,0,5,4,1,54,0001-00-0005-76.png,0005-00-0000-04.png
14,973,1,1443542174908,1443542175366,401,384,0,0,0,1,2,1,12,0004-00-0002-08.png,0002-00-0005-14.png
14,974,0,1443542175391,1443542175800,891,462,0,0,0,2,3,1,23,0002-00-0004-46.png,0003-00-0007-69.png
14,975,1,1443542175816,1443542176074,427,488,0,0,0,2,1,1,21,0002-00-0009-24.png,0004-00-0003-27.png
14,976,1,1443542176106,1443542176659,901,411,0,0,0,3,2,1,32,0003-00-0003-22.png,0002-00-0000-04.png
14,977,0,1443542176689,1443542177060,327,382,0,0,0,5,4,1,54,0001-00-0008-71.png,0005-00-0007-34.png
14,978,1,1443542177084,1443542177985,889,397,0,0,0,4,3,1,43,0005-00-0000-81.png,0003-00-0008-67.png
14,979,0,1443542178010,1443542178476,361,397,0,0,0,3,4,1,34,0003-00-0009-98.png,0005-00-0007-61.png
14,980,0,1443542178501,1443542179001,319,411,0,0,0,3,2,1,32,0003-00-0005-82.png,0002-00-0005-32.png
14,981,1,1443542179040,1443542179346,453,462,0,0,0,2,1,1,21,0002-00-0009-65.png,0004-00-0003-09.png
14,982,1,1443542179364,1443542180137,194,519,0,0,0,2,3,1,23,0002-00-0001-91.png,0003-00-0005-80.png
14,983,1,1443542180161,1443542180478,342,390,0,0,0,5,4,1,54,0001-00-0007-45.png,0005-00-0006-80.png
14,984,0,1443542180505,1443542181294,188,471,0,0,0,1,2,1,12,0004-00-0003-10.png,0002-00-0003-76.png
14,985,1,1443542181328,1443542181580,320,388,0,0,0,4,3,1,43,0005-00-0004-46.png,0003-00-0008-75.png
14,986,1,1443542181601,1443542182077,896,498,0,0,0,3,2,1,32,0003-00-0006-98.png,0002-00-0005-27.png
14,987,0,1443542182116,1443542182514,912,465,0,0,0,1,2,1,12,0004-00-0006-91.png,0002-00-0001-14.png
14,988,1,1443542182539,1443542182966,899,511,0,0,0,2,1,1,21,0002-00-0007-32.png,0004-00-0007-32.png
14,989,1,1443542183002,1443542183797,386,482,0,0,0,5,4,1,54,0001-00-0006-23.png,0005-00-0001-67.png
