subject_id,trial,correct_response,stim_time,response_time,x_coord,y_coord,trial_timeout,timeout_time,interTrial_timeout,left_rank,right_rank,distance,joint_rank,left_image,right_image
9,1,1,1443459120026,1443459120450,866,377,0,0,0,1,2,1,12,0004-00-0002-42.png,0002-00-0003-77.png
9,2,1,1443459120479,1443459121977,881,252,0,0,0,2,1,1,21,0002-00-0001-59.png,0004-00-0008-68.png
9,3,1,1443459122006,1443459122331,888,358,0,0,0,3,2,1,32,0003-00-0008-41.png,0002-00-0007-30.png
9,4,0,1443459122355,1443459122472,863,404,0,0,0,5,4,1,54,0001-00-0009-19.png,0005-00-0007-90.png
9,5,0,1443459122495,1443459123174,1089,336,0,0,0,2,3,1,23,0002-00-0005-60.png,0003-00-0003-73.png
9,6,0,1443459123220,1443459124649,1005,425,0,0,0,4,3,1,43,0005-00-0004-82.png,0003-00-0008-58.png
9,7,1,1443459124681,1443459124987,336,387,0,0,0,5,4,1,54,0001-00-0006-36.png,0005-00-0005-94.png
9,8,0,1443459125012,1443459126360,960,372,0,0,0,3,4,1,34,0003-00-0004-89.png,0005-00-0000-78.png
9,9,0,1443459126402,1443459126506,354,401,0,0,0,5,4,1,54,0001-00-0004-30.png,0005-00-0001-58.png
9,10,0,1443459126540,1443459128320,931,350,0,0,0,3,2,1,32,0003-00-0009-93.png,0002-00-0004-76.png
9,11,0,1443459128346,1443459128658,882,420,0,0,0,4,3,1,43,0005-00-0008-98.png,0003-00-0005-57.png
9,12,0,1443459128698,1443459129701,907,327,0,0,0,2,3,1,23,0002-00-0002-62.png,0003-00-0001-01.png
9,13,0,1443459129722,1443459129841,863,419,0,0,0,3,4,1,34,0003-00-0009-11.png,0005-00-0000-57.png
9,14,1,1443459129865,1443459129890,330,462,0,0,0,1,2,1,12,0004-00-0003-16.png,0002-00-0002-69.png
9,15,0,1443459129915,1443459136265,872,366,0,0,0,2,1,1,21,0002-00-0002-36.png,0004-00-0007-15.png
9,16,1,1443459136279,1443459136386,945,380,0,0,0,5,4,1,54,0001-00-0000-22.png,0005-00-0000-56.png
9,17,1,1443459136405,1443459136684,863,425,0,0,0,3,4,1,34,0003-00-0004-07.png,0005-00-0002-87.png
9,18,1,1443459136704,1443459137086,859,419,0,0,0,2,3,1,23,0002-00-0008-31.png,0003-00-0008-65.png
9,19,0,1443459137114,1443459137986,353,427,0,0,0,3,2,1,32,0003-00-0008-66.png,0002-00-0000-46.png
9,20,0,1443459138018,1443459138374,874,418,0,0,0,1,2,1,12,0004-00-0008-12.png,0002-00-0001-76.png
9,21,1,1443459138423,1443459138955,1000,358,0,0,0,5,4,1,54,0001-00-0005-29.png,0005-00-0003-77.png
9,22,0,1443459138973,1443459139426,935,370,0,0,0,4,3,1,43,0005-00-0007-28.png,0003-00-0005-26.png
9,23,1,1443459139460,1443459139824,915,381,0,0,0,5,4,1,54,0001-00-0002-18.png,0005-00-0007-40.png
9,24,0,1443459139845,1443459140004,345,385,0,0,0,2,1,1,21,0002-00-0000-73.png,0004-00-0004-79.png
9,25,0,1443459140022,1443459140552,934,373,0,0,0,5,4,1,54,0001-00-0002-54.png,0005-00-0000-84.png
9,26,1,1443459140583,1443459141835,875,475,0,0,0,5,4,1,54,0001-00-0006-21.png,0005-00-0006-30.png
9,27,0,1443459141856,1443459142138,862,500,0,0,0,2,3,1,23,0002-00-0008-09.png,0003-00-0003-43.png
9,28,1,1443459142164,1443459142283,941,305,0,0,0,1,2,1,12,0004-00-0004-98.png,0002-00-0003-49.png
9,29,1,1443459142305,1443459142403,905,494,0,0,0,3,2,1,32,0003-00-0004-49.png,0002-00-0000-62.png
9,30,0,1443459142442,1443459142623,859,362,0,0,0,4,3,1,43,0005-00-0001-07.png,0003-00-0006-59.png
9,31,1,1443459142647,1443459142785,893,354,0,0,0,2,1,1,21,0002-00-0003-37.png,0004-00-0009-66.png
9,32,0,1443459142811,1443459143199,870,400,0,0,0,3,4,1,34,0003-00-0008-21.png,0005-00-0000-72.png
9,33,1,1443459143220,1443459143294,862,410,0,0,0,5,4,1,54,0001-00-0005-99.png,0005-00-0001-58.png
9,34,1,1443459143314,1443459143472,313,385,0,0,0,3,4,1,34,0003-00-0008-21.png,0005-00-0003-67.png
9,35,0,1443459143500,1443459144179,332,374,0,0,0,2,3,1,23,0002-00-0001-66.png,0003-00-0000-88.png
9,36,0,1443459144213,1443459144279,919,298,0,0,0,3,2,1,32,0003-00-0007-82.png,0002-00-0009-70.png
9,37,1,1443459144303,1443459144511,989,347,0,0,0,5,4,1,54,0001-00-0003-51.png,0005-00-0007-17.png
9,38,0,1443459144546,1443459144621,943,341,0,0,0,2,1,1,21,0002-00-0007-34.png,0004-00-0008-40.png
9,39,0,1443459144645,1443459144785,974,355,0,0,0,4,3,1,43,0005-00-0004-91.png,0003-00-0001-88.png
9,40,0,1443459144809,1443459144854,872,455,0,0,0,1,2,1,12,0004-00-0000-78.png,0002-00-0003-49.png
9,41,1,1443459144894,1443459146634,355,400,0,0,0,2,3,1,23,0002-00-0007-91.png,0003-00-0007-66.png
9,42,1,1443459146660,1443459146671,866,335,0,0,0,5,4,1,54,0001-00-0008-99.png,0005-00-0004-31.png
9,43,0,1443459146710,1443459146823,911,318,0,0,0,3,4,1,34,0003-00-0002-50.png,0005-00-0004-49.png
9,44,1,1443459146848,1443459146917,975,551,0,0,0,4,3,1,43,0005-00-0008-38.png,0003-00-0002-69.png
9,45,1,1443459146951,1443459147025,927,555,0,0,0,5,4,1,54,0001-00-0007-76.png,0005-00-0005-43.png
9,46,1,1443459147056,1443459147161,885,360,0,0,0,2,1,1,21,0002-00-0002-00.png,0004-00-0000-91.png
9,47,1,1443459147194,1443459150023,864,441,0,0,0,3,2,1,32,0003-00-0003-07.png,0002-00-0002-19.png
9,48,1,1443459150055,1443459150550,954,352,0,0,0,1,2,1,12,0004-00-0001-10.png,0002-00-0006-67.png
9,49,1,1443459150577,1443459150724,873,488,0,0,0,3,4,1,34,0003-00-0005-43.png,0005-00-0009-16.png
9,50,1,1443459150756,1443459151337,390,341,0,0,0,4,3,1,43,0005-00-0000-91.png,0003-00-0000-53.png
9,51,0,1443459151363,1443459151453,351,365,0,0,0,2,1,1,21,0002-00-0004-67.png,0004-00-0001-85.png
9,52,0,1443459151473,1443459151540,939,488,0,0,0,2,3,1,23,0002-00-0003-64.png,0003-00-0009-12.png
9,53,0,1443459151566,1443459151759,944,344,0,0,0,1,2,1,12,0004-00-0001-85.png,0002-00-0003-69.png
9,54,1,1443459151791,1443459152055,870,436,0,0,0,3,2,1,32,0003-00-0009-98.png,0002-00-0000-25.png
9,55,0,1443459152081,1443459152837,905,513,0,0,0,5,4,1,54,0001-00-0008-22.png,0005-00-0006-13.png
9,56,1,1443459152863,1443459152883,870,329,0,0,0,5,4,1,54,0001-00-0007-17.png,0005-00-0008-81.png
9,57,1,1443459152927,1443459153102,344,379,0,0,0,3,2,1,32,0003-00-0000-99.png,0002-00-0008-10.png
9,58,0,1443459153132,1443459155178,959,494,0,0,0,2,1,1,21,0002-00-0000-55.png,0004-00-0001-88.png
9,59,0,1443459155222,1443459155343,882,395,0,0,0,5,4,1,54,0001-00-0009-15.png,0005-00-0000-19.png
9,60,1,1443459155388,1443459155411,1087,301,0,0,0,1,2,1,12,0004-00-0004-96.png,0002-00-0002-56.png
9,61,1,1443459155443,1443459155666,858,415,0,0,0,5,4,1,54,0001-00-0002-36.png,0005-00-0006-07.png
9,62,1,1443459155705,1443459155874,913,541,0,0,0,2,3,1,23,0002-00-0007-64.png,0003-00-0009-05.png
9,63,0,1443459155907,1443459158561,923,376,0,0,0,4,3,1,43,0005-00-0005-87.png,0003-00-0002-38.png
9,64,1,1443459158580,1443459158669,935,335,0,0,0,3,4,1,34,0003-00-0004-25.png,0005-00-0009-11.png
9,65,1,1443459158696,1443459159026,375,346,0,0,0,1,2,1,12,0004-00-0009-85.png,0002-00-0006-81.png
9,66,0,1443459159057,1443459159153,885,368,0,0,0,3,2,1,32,0003-00-0000-07.png,0002-00-0007-41.png
9,67,1,1443459159188,1443459159566,394,322,0,0,0,2,3,1,23,0002-00-0006-29.png,0003-00-0006-57.png
9,68,1,1443459159589,1443459159700,869,452,0,0,0,4,3,1,43,0005-00-0006-73.png,0003-00-0008-66.png
9,69,1,1443459159727,1443459168699,339,378,0,0,0,2,1,1,21,0002-00-0001-48.png,0004-00-0003-76.png
9,70,1,1443459168722,1443459169311,919,339,0,0,0,3,4,1,34,0003-00-0001-87.png,0005-00-0008-67.png
9,71,0,1443459169359,1443459170158,947,402,0,0,0,5,4,1,54,0001-00-0008-93.png,0005-00-0002-39.png
9,72,1,1443459170187,1443459170661,1047,297,0,0,0,5,4,1,54,0001-00-0005-31.png,0005-00-0003-57.png
9,73,1,1443459170687,1443459172941,953,398,0,0,0,3,2,1,32,0003-00-0005-45.png,0002-00-0007-18.png
9,74,1,1443459172959,1443459173145,940,376,0,0,0,5,4,1,54,0001-00-0001-44.png,0005-00-0004-27.png
9,75,0,1443459173183,1443459173954,373,334,0,0,0,2,1,1,21,0002-00-0009-35.png,0004-00-0003-28.png
9,76,1,1443459173978,1443459174358,946,323,0,0,0,1,2,1,12,0004-00-0002-49.png,0002-00-0003-07.png
9,77,1,1443459174396,1443459174849,307,419,0,0,0,5,4,1,54,0001-00-0007-01.png,0005-00-0001-28.png
9,78,1,1443459174876,1443459174977,964,322,0,0,0,2,3,1,23,0002-00-0005-16.png,0003-00-0001-39.png
9,79,1,1443459175007,1443459175306,346,413,0,0,0,4,3,1,43,0005-00-0008-38.png,0003-00-0002-70.png
9,80,1,1443459175350,1443459175599,933,360,0,0,0,3,4,1,34,0003-00-0009-63.png,0005-00-0005-41.png
9,81,1,1443459175616,1443459175703,357,362,0,0,0,3,2,1,32,0003-00-0001-26.png,0002-00-0001-73.png
9,82,1,1443459175739,1443459175943,341,364,0,0,0,2,3,1,23,0002-00-0005-68.png,0003-00-0006-98.png
9,83,1,1443459175967,1443459176077,966,348,0,0,0,2,1,1,21,0002-00-0006-84.png,0004-00-0006-27.png
9,84,1,1443459176106,1443459177507,339,413,0,0,0,3,4,1,34,0003-00-0005-23.png,0005-00-0009-41.png
9,85,1,1443459177529,1443459177729,339,360,0,0,0,5,4,1,54,0001-00-0001-15.png,0005-00-0006-00.png
9,86,0,1443459177771,1443459178060,1091,406,0,0,0,4,3,1,43,0005-00-0003-30.png,0003-00-0008-21.png
9,87,0,1443459178094,1443459180265,369,340,0,0,0,1,2,1,12,0004-00-0003-04.png,0002-00-0004-91.png
9,88,1,1443459180308,1443459180944,986,331,0,0,0,5,4,1,54,0001-00-0005-78.png,0005-00-0002-51.png
9,89,1,1443459180967,1443459180993,990,410,0,0,0,5,4,1,54,0001-00-0004-18.png,0005-00-0007-35.png
9,90,1,1443459181011,1443459181045,1118,296,0,0,0,2,3,1,23,0002-00-0004-40.png,0003-00-0000-95.png
9,91,1,1443459181083,1443459181306,348,401,0,0,0,4,3,1,43,0005-00-0008-00.png,0003-00-0007-34.png
9,92,1,1443459181334,1443459181558,1065,334,0,0,0,5,4,1,54,0001-00-0006-10.png,0005-00-0006-03.png
9,93,0,1443459181595,1443459181668,334,420,0,0,0,3,2,1,32,0003-00-0002-89.png,0002-00-0001-08.png
9,94,0,1443459181693,1443459182204,263,328,0,0,0,2,1,1,21,0002-00-0000-93.png,0004-00-0009-71.png
9,95,1,1443459182234,1443459182944,984,326,0,0,0,1,2,1,12,0004-00-0004-89.png,0002-00-0005-41.png
9,96,1,1443459182962,1443459183994,1092,343,0,0,0,3,4,1,34,0003-00-0006-98.png,0005-00-0008-99.png
9,97,1,1443459184015,1443459185116,507,406,0,0,0,4,3,1,43,0005-00-0009-38.png,0003-00-0008-64.png
9,98,1,1443459185145,1443459185330,1048,343,0,0,0,2,3,1,23,0002-00-0001-46.png,0003-00-0006-28.png
9,99,1,1443459185367,1443459185777,332,386,0,0,0,1,2,1,12,0004-00-0007-96.png,0002-00-0003-69.png
9,100,1,1443459185818,1443459186377,289,385,0,0,0,3,4,1,34,0003-00-0004-91.png,0005-00-0009-56.png
9,101,1,1443459186417,1443459186456,963,353,0,0,0,2,1,1,21,0002-00-0003-06.png,0004-00-0002-46.png
9,102,1,1443459186486,1443459186600,401,318,0,0,0,3,2,1,32,0003-00-0008-40.png,0002-00-0000-77.png
9,103,0,1443459186628,1443459186716,933,372,0,0,0,5,4,1,54,0001-00-0007-19.png,0005-00-0000-70.png
9,104,0,1443459186731,1443459187065,923,412,0,0,0,5,4,1,54,0001-00-0009-36.png,0005-00-0001-87.png
9,105,0,1443459187093,1443459187497,338,413,0,0,0,2,1,1,21,0002-00-0003-42.png,0004-00-0003-28.png
9,106,0,1443459187517,1443459187779,964,436,0,0,0,2,3,1,23,0002-00-0004-65.png,0003-00-0005-37.png
9,107,0,1443459187806,1443459189160,891,494,0,0,0,3,4,1,34,0003-00-0005-02.png,0005-00-0009-70.png
9,108,0,1443459189204,1443459190557,1021,312,0,0,0,1,2,1,12,0004-00-0004-61.png,0002-00-0006-42.png
9,109,1,1443459190583,1443459191122,381,386,0,0,0,5,4,1,54,0001-00-0000-12.png,0005-00-0000-93.png
9,110,0,1443459191145,1443459191767,1079,302,0,0,0,4,3,1,43,0005-00-0008-48.png,0003-00-0000-56.png
9,111,0,1443459191785,1443459192520,1153,476,0,0,0,5,4,1,54,0001-00-0008-24.png,0005-00-0006-86.png
9,112,0,1443459192548,1443459192842,892,304,0,0,0,3,2,1,32,0003-00-0003-70.png,0002-00-0000-74.png
9,113,0,1443459192876,1443459192934,1069,316,0,0,0,3,4,1,34,0003-00-0006-77.png,0005-00-0005-72.png
9,114,1,1443459192966,1443459193146,476,305,0,0,0,5,4,1,54,0001-00-0004-61.png,0005-00-0006-63.png
9,115,1,1443459193173,1443459193220,942,358,0,0,0,4,3,1,43,0005-00-0005-52.png,0003-00-0004-99.png
9,116,1,1443459193248,1443459194793,1056,349,0,0,0,5,4,1,54,0001-00-0009-43.png,0005-00-0004-70.png
9,117,0,1443459194824,1443459196222,411,335,0,0,0,3,2,1,32,0003-00-0007-67.png,0002-00-0004-23.png
9,118,1,1443459196250,1443459196270,1047,294,0,0,0,2,1,1,21,0002-00-0002-14.png,0004-00-0002-29.png
9,119,0,1443459196309,1443459197519,380,392,0,0,0,1,2,1,12,0004-00-0005-85.png,0002-00-0008-71.png
9,120,1,1443459197544,1443459197626,928,443,0,0,0,2,3,1,23,0002-00-0000-11.png,0003-00-0009-53.png
9,121,0,1443459197659,1443459197748,1066,358,0,0,0,2,3,1,23,0002-00-0005-69.png,0003-00-0004-13.png
9,122,0,1443459197774,1443459198475,1011,359,0,0,0,2,1,1,21,0002-00-0004-82.png,0004-00-0002-85.png
9,123,1,1443459198513,1443459198776,422,310,0,0,0,1,2,1,12,0004-00-0005-99.png,0002-00-0008-63.png
9,124,1,1443459198801,1443459199672,1058,319,0,0,0,5,4,1,54,0001-00-0008-31.png,0005-00-0004-77.png
9,125,0,1443459199700,1443459200576,1204,367,0,0,0,3,4,1,34,0003-00-0005-06.png,0005-00-0003-19.png
9,126,0,1443459200599,1443459203228,1041,414,0,0,0,5,4,1,54,0001-00-0002-60.png,0005-00-0004-84.png
9,127,0,1443459203277,1443459203638,448,301,0,0,0,3,2,1,32,0003-00-0004-05.png,0002-00-0007-65.png
9,128,0,1443459203676,1443459203767,376,343,0,0,0,4,3,1,43,0005-00-0003-42.png,0003-00-0001-08.png
9,129,1,1443459203787,1443459204247,964,288,0,0,0,3,4,1,34,0003-00-0008-20.png,0005-00-0005-70.png
9,130,0,1443459204272,1443459204399,325,227,0,0,0,1,2,1,12,0004-00-0007-82.png,0002-00-0009-40.png
9,131,1,1443459204422,1443459204449,1041,373,0,0,0,5,4,1,54,0001-00-0008-75.png,0005-00-0005-42.png
9,132,0,1443459204478,1443459206083,357,385,0,0,0,3,2,1,32,0003-00-0002-71.png,0002-00-0001-84.png
9,133,0,1443459206114,1443459206176,274,402,0,0,0,2,3,1,23,0002-00-0001-18.png,0003-00-0009-49.png
9,134,0,1443459206205,1443459206803,397,333,0,0,0,4,3,1,43,0005-00-0007-06.png,0003-00-0008-13.png
9,135,0,1443459206833,1443459207142,1004,351,0,0,0,5,4,1,54,0001-00-0003-72.png,0005-00-0004-84.png
9,136,1,1443459207180,1443459208367,339,382,0,0,0,2,1,1,21,0002-00-0005-70.png,0004-00-0009-38.png
9,137,1,1443459208392,1443459208418,994,353,0,0,0,2,3,1,23,0002-00-0002-53.png,0003-00-0002-54.png
9,138,1,1443459208445,1443459209503,326,356,0,0,0,5,4,1,54,0001-00-0000-50.png,0005-00-0001-00.png
9,139,1,1443459209533,1443459210484,964,514,0,0,0,3,4,1,34,0003-00-0009-51.png,0005-00-0009-14.png
9,140,0,1443459210504,1443459213204,335,396,0,0,0,5,4,1,54,0001-00-0009-89.png,0005-00-0004-47.png
9,141,0,1443459213229,1443459213604,1116,342,0,0,0,3,2,1,32,0003-00-0003-71.png,0002-00-0004-22.png
9,142,0,1443459213636,1443459215993,326,445,0,0,0,4,3,1,43,0005-00-0009-10.png,0003-00-0000-77.png
9,143,0,1443459216032,1443459216379,487,348,0,0,0,2,1,1,21,0002-00-0008-27.png,0004-00-0009-92.png
9,144,1,1443459216413,1443459216592,1012,543,0,0,0,1,2,1,12,0004-00-0002-83.png,0002-00-0005-41.png
9,145,1,1443459216621,1443459216772,437,331,0,0,0,4,3,1,43,0005-00-0003-61.png,0003-00-0002-85.png
9,146,0,1443459216810,1443459217120,504,358,0,0,0,2,1,1,21,0002-00-0008-43.png,0004-00-0006-95.png
9,147,1,1443459217152,1443459217364,1090,303,0,0,0,5,4,1,54,0001-00-0000-93.png,0005-00-0002-84.png
9,148,0,1443459217383,1443459217476,1171,465,0,0,0,3,2,1,32,0003-00-0003-87.png,0002-00-0006-50.png
9,149,0,1443459217507,1443459217692,424,258,0,0,0,3,4,1,34,0003-00-0001-77.png,0005-00-0000-07.png
9,150,0,1443459217714,1443459218175,344,366,0,0,0,1,2,1,12,0004-00-0001-38.png,0002-00-0006-25.png
9,151,1,1443459218203,1443459218224,989,355,0,0,0,5,4,1,54,0001-00-0007-27.png,0005-00-0009-52.png
9,152,0,1443459218246,1443459218512,964,451,0,0,0,2,3,1,23,0002-00-0006-82.png,0003-00-0005-74.png
9,153,1,1443459218556,1443459218759,1016,399,0,0,0,2,3,1,23,0002-00-0006-01.png,0003-00-0009-18.png
9,154,1,1443459218794,1443459219114,1163,284,0,0,0,3,2,1,32,0003-00-0003-38.png,0002-00-0008-77.png
9,155,0,1443459219133,1443459219382,336,393,0,0,0,4,3,1,43,0005-00-0005-67.png,0003-00-0002-81.png
9,156,1,1443459219412,1443459219637,403,357,0,0,0,5,4,1,54,0001-00-0000-81.png,0005-00-0002-50.png
9,157,1,1443459219662,1443459221935,983,366,0,0,0,2,1,1,21,0002-00-0004-46.png,0004-00-0001-42.png
9,158,0,1443459221969,1443459222078,957,390,0,0,0,3,4,1,34,0003-00-0003-04.png,0005-00-0002-71.png
9,159,1,1443459222108,1443459222810,248,407,0,0,0,1,2,1,12,0004-00-0005-23.png,0002-00-0001-44.png
9,160,1,1443459222831,1443459223572,1043,369,0,0,0,5,4,1,54,0001-00-0005-19.png,0005-00-0006-19.png
9,161,1,1443459223608,1443459224759,940,394,0,0,0,5,4,1,54,0001-00-0004-24.png,0005-00-0004-27.png
9,162,1,1443459224796,1443459225462,913,483,0,0,0,2,3,1,23,0002-00-0003-15.png,0003-00-0001-60.png
9,163,1,1443459225484,1443459225936,386,358,0,0,0,3,2,1,32,0003-00-0003-77.png,0002-00-0006-09.png
9,164,0,1443459225964,1443459225992,1026,384,0,0,0,4,3,1,43,0005-00-0002-51.png,0003-00-0005-72.png
9,165,0,1443459226017,1443459226315,300,381,0,0,0,2,1,1,21,0002-00-0003-61.png,0004-00-0005-11.png
9,166,1,1443459226346,1443459226753,931,418,0,0,0,1,2,1,12,0004-00-0000-41.png,0002-00-0009-98.png
9,167,0,1443459226776,1443459227580,323,427,0,0,0,5,4,1,54,0001-00-0007-58.png,0005-00-0004-51.png
9,168,1,1443459227614,1443459228101,403,369,0,0,0,3,4,1,34,0003-00-0005-40.png,0005-00-0006-81.png
9,169,0,1443459228125,1443459231755,256,445,0,0,0,5,4,1,54,0001-00-0001-80.png,0005-00-0000-32.png
9,170,1,1443459231775,1443459232976,335,390,0,0,0,1,2,1,12,0004-00-0003-33.png,0002-00-0009-56.png
9,171,1,1443459233028,1443459234158,1011,308,0,0,0,3,2,1,32,0003-00-0003-78.png,0002-00-0000-22.png
9,172,0,1443459234199,1443459234240,935,325,0,0,0,2,3,1,23,0002-00-0000-59.png,0003-00-0007-14.png
9,173,0,1443459234260,1443459234454,948,330,0,0,0,4,3,1,43,0005-00-0008-28.png,0003-00-0004-46.png
9,174,1,1443459234481,1443459234708,412,356,0,0,0,3,4,1,34,0003-00-0006-45.png,0005-00-0006-67.png
9,175,0,1443459234726,1443459234959,941,346,0,0,0,2,1,1,21,0002-00-0000-54.png,0004-00-0005-82.png
9,176,0,1443459235001,1443459237625,312,378,0,0,0,5,4,1,54,0001-00-0003-13.png,0005-00-0002-36.png
9,177,1,1443459237651,1443459237927,911,377,0,0,0,2,3,1,23,0002-00-0007-68.png,0003-00-0006-56.png
9,178,1,1443459237961,1443459238332,251,390,0,0,0,5,4,1,54,0001-00-0004-25.png,0005-00-0003-95.png
9,179,1,1443459238363,1443459238657,410,384,0,0,0,3,4,1,34,0003-00-0005-51.png,0005-00-0006-76.png
9,180,1,1443459238684,1443459238959,947,355,0,0,0,3,2,1,32,0003-00-0005-82.png,0002-00-0002-11.png
9,181,1,1443459238987,1443459240007,316,358,0,0,0,1,2,1,12,0004-00-0007-82.png,0002-00-0009-93.png
9,182,0,1443459240041,1443459240682,956,400,0,0,0,4,3,1,43,0005-00-0008-83.png,0003-00-0007-71.png
9,183,1,1443459240709,1443459241671,1090,363,0,0,0,5,4,1,54,0001-00-0005-88.png,0005-00-0002-91.png
9,184,0,1443459241710,1443459241778,302,370,0,0,0,2,1,1,21,0002-00-0005-17.png,0004-00-0008-84.png
9,185,0,1443459241813,1443459241987,949,381,0,0,0,5,4,1,54,0001-00-0008-68.png,0005-00-0000-19.png
9,186,0,1443459242005,1443459242843,319,308,0,0,0,3,4,1,34,0003-00-0003-26.png,0005-00-0003-31.png
9,187,1,1443459242872,1443459243661,957,348,0,0,0,1,2,1,12,0004-00-0004-21.png,0002-00-0005-94.png
9,188,1,1443459243684,1443459244197,935,324,0,0,0,4,3,1,43,0005-00-0008-49.png,0003-00-0002-08.png
9,189,0,1443459244222,1443459244260,354,384,0,0,0,2,3,1,23,0002-00-0005-32.png,0003-00-0009-90.png
9,190,1,1443459244289,1443459244631,309,405,0,0,0,5,4,1,54,0001-00-0005-41.png,0005-00-0002-97.png
9,191,1,1443459244660,1443459245024,268,390,0,0,0,3,2,1,32,0003-00-0007-99.png,0002-00-0000-28.png
9,192,1,1443459245049,1443459246708,377,322,0,0,0,2,1,1,21,0002-00-0005-38.png,0004-00-0006-53.png
9,193,0,1443459246737,1443459246924,336,371,0,0,0,1,2,1,12,0004-00-0002-21.png,0002-00-0009-99.png
9,194,0,1443459246965,1443459249977,292,394,0,0,0,4,3,1,43,0005-00-0008-05.png,0003-00-0005-05.png
9,195,0,1443459250011,1443459250095,968,333,0,0,0,5,4,1,54,0001-00-0003-34.png,0005-00-0009-12.png
9,196,0,1443459250136,1443459250397,907,498,0,0,0,3,2,1,32,0003-00-0001-99.png,0002-00-0000-08.png
9,197,1,1443459250429,1443459250637,354,331,0,0,0,2,1,1,21,0002-00-0005-29.png,0004-00-0001-95.png
9,198,0,1443459250664,1443459250779,953,384,0,0,0,5,4,1,54,0001-00-0003-35.png,0005-00-0003-75.png
9,199,0,1443459250817,1443459252621,929,436,0,0,0,3,4,1,34,0003-00-0006-09.png,0005-00-0002-67.png
9,200,0,1443459252649,1443459253805,1047,351,0,0,0,2,3,1,23,0002-00-0002-09.png,0003-00-0001-33.png
9,201,0,1443459253828,1443459253929,1029,388,0,0,0,2,1,1,21,0002-00-0005-88.png,0004-00-0008-46.png
9,202,0,1443459253949,1443459255728,341,341,0,0,0,4,3,1,43,0005-00-0000-41.png,0003-00-0005-63.png
9,203,0,1443459255752,1443459256027,284,430,0,0,0,3,4,1,34,0003-00-0007-15.png,0005-00-0000-68.png
9,204,1,1443459256063,1443459256935,939,419,0,0,0,3,2,1,32,0003-00-0008-28.png,0002-00-0001-20.png
9,205,1,1443459256973,1443459258531,1074,362,0,0,0,5,4,1,54,0001-00-0004-16.png,0005-00-0001-20.png
9,206,1,1443459258548,1443459258979,344,368,0,0,0,5,4,1,54,0001-00-0004-78.png,0005-00-0001-30.png
9,207,1,1443459259007,1443459259500,914,543,0,0,0,1,2,1,12,0004-00-0009-64.png,0002-00-0000-90.png
9,208,1,1443459259523,1443459260074,373,380,0,0,0,2,3,1,23,0002-00-0004-82.png,0003-00-0009-48.png
9,209,0,1443459260097,1443459260299,318,383,0,0,0,1,2,1,12,0004-00-0005-20.png,0002-00-0009-83.png
9,210,0,1443459260330,1443459260390,915,510,0,0,0,5,4,1,54,0001-00-0007-34.png,0005-00-0009-05.png
9,211,0,1443459260415,1443459261726,1093,353,0,0,0,3,2,1,32,0003-00-0007-67.png,0002-00-0005-96.png
9,212,0,1443459261754,1443459262663,316,391,0,0,0,4,3,1,43,0005-00-0005-02.png,0003-00-0003-81.png
9,213,1,1443459262687,1443459263473,938,336,0,0,0,5,4,1,54,0001-00-0002-73.png,0005-00-0007-70.png
9,214,1,1443459263500,1443459263735,946,382,0,0,0,2,1,1,21,0002-00-0003-59.png,0004-00-0004-81.png
9,215,1,1443459263764,1443459264126,964,381,0,0,0,2,3,1,23,0002-00-0007-06.png,0003-00-0000-70.png
9,216,1,1443459264160,1443459264434,937,383,0,0,0,3,4,1,34,0003-00-0008-82.png,0005-00-0007-44.png
9,217,1,1443459264457,1443459264638,928,377,0,0,0,3,4,1,34,0003-00-0002-48.png,0005-00-0001-21.png
9,218,1,1443459264669,1443459265434,294,397,0,0,0,4,3,1,43,0005-00-0001-37.png,0003-00-0009-30.png
9,219,1,1443459265452,1443459265503,1120,292,0,0,0,1,2,1,12,0004-00-0003-98.png,0002-00-0008-50.png
9,220,1,1443459265538,1443459265991,308,389,0,0,0,2,3,1,23,0002-00-0003-55.png,0003-00-0009-59.png
9,221,0,1443459266015,1443459266762,988,356,0,0,0,3,2,1,32,0003-00-0001-01.png,0002-00-0008-20.png
9,222,1,1443459266793,1443459266976,317,355,0,0,0,5,4,1,54,0001-00-0000-56.png,0005-00-0004-78.png
9,223,1,1443459266997,1443459267018,337,443,0,0,0,5,4,1,54,0001-00-0009-65.png,0005-00-0007-44.png
9,224,1,1443459267044,1443459268232,321,373,0,0,0,2,1,1,21,0002-00-0006-23.png,0004-00-0002-26.png
9,225,1,1443459268265,1443459268294,339,389,0,0,0,4,3,1,43,0005-00-0003-53.png,0003-00-0005-69.png
9,226,0,1443459268315,1443459270796,348,360,0,0,0,5,4,1,54,0001-00-0000-43.png,0005-00-0008-71.png
9,227,1,1443459270819,1443459271600,957,375,0,0,0,5,4,1,54,0001-00-0006-26.png,0005-00-0003-62.png
9,228,1,1443459271650,1443459272118,942,344,0,0,0,2,1,1,21,0002-00-0009-92.png,0004-00-0005-32.png
9,229,1,1443459272157,1443459272217,946,350,0,0,0,3,4,1,34,0003-00-0009-00.png,0005-00-0001-84.png
9,230,1,1443459272250,1443459272443,322,373,0,0,0,3,2,1,32,0003-00-0003-40.png,0002-00-0000-74.png
9,231,0,1443459272471,1443459272557,327,392,0,0,0,2,3,1,23,0002-00-0003-18.png,0003-00-0008-98.png
9,232,1,1443459272579,1443459272698,349,392,0,0,0,1,2,1,12,0004-00-0000-82.png,0002-00-0007-25.png
9,233,1,1443459272723,1443459272770,361,385,0,0,0,2,1,1,21,0002-00-0001-94.png,0004-00-0002-73.png
9,234,1,1443459272807,1443459274124,966,363,0,0,0,1,2,1,12,0004-00-0009-90.png,0002-00-0006-16.png
9,235,0,1443459274150,1443459274375,342,358,0,0,0,5,4,1,54,0001-00-0007-03.png,0005-00-0007-01.png
9,236,1,1443459274403,1443459274463,959,347,0,0,0,2,3,1,23,0002-00-0008-07.png,0003-00-0007-50.png
9,237,1,1443459274492,1443459274563,884,476,0,0,0,3,2,1,32,0003-00-0000-94.png,0002-00-0007-60.png
9,238,0,1443459274592,1443459274811,1041,329,0,0,0,3,4,1,34,0003-00-0004-11.png,0005-00-0002-75.png
9,239,0,1443459274835,1443459275441,948,381,0,0,0,5,4,1,54,0001-00-0008-21.png,0005-00-0006-24.png
9,240,1,1443459275461,1443459275723,975,398,0,0,0,4,3,1,43,0005-00-0005-97.png,0003-00-0009-04.png
9,241,1,1443459275748,1443459276340,358,412,0,0,0,2,1,1,21,0002-00-0007-23.png,0004-00-0004-26.png
9,242,0,1443459276364,1443459277293,322,425,0,0,0,4,3,1,43,0005-00-0002-37.png,0003-00-0002-34.png
9,243,1,1443459277319,1443459278306,350,384,0,0,0,3,2,1,32,0003-00-0005-97.png,0002-00-0003-08.png
9,244,1,1443459278335,1443459278429,939,379,0,0,0,5,4,1,54,0001-00-0006-83.png,0005-00-0008-41.png
9,245,1,1443459278466,1443459278484,453,227,0,0,0,5,4,1,54,0001-00-0008-22.png,0005-00-0006-56.png
9,246,1,1443459278512,1443459278796,299,358,0,0,0,2,3,1,23,0002-00-0001-39.png,0003-00-0003-79.png
9,247,0,1443459278821,1443459295076,936,391,0,0,0,1,2,1,12,0004-00-0006-70.png,0002-00-0005-18.png
9,248,0,1443459295120,1443459295542,949,383,0,0,0,3,4,1,34,0003-00-0004-09.png,0005-00-0003-62.png
9,249,1,1443459295570,1443459295748,971,374,0,0,0,4,3,1,43,0005-00-0002-43.png,0003-00-0008-04.png
9,250,1,1443459295779,1443459296487,1039,333,0,0,0,5,4,1,54,0001-00-0002-48.png,0005-00-0005-95.png
9,251,0,1443459296528,1443459296867,447,304,0,0,0,3,2,1,32,0003-00-0000-40.png,0002-00-0001-82.png
9,252,0,1443459296893,1443459297015,926,399,0,0,0,2,3,1,23,0002-00-0003-17.png,0003-00-0005-99.png
9,253,0,1443459297046,1443459297258,318,367,0,0,0,5,4,1,54,0001-00-0006-40.png,0005-00-0009-76.png
9,254,0,1443459297286,1443459298077,946,376,0,0,0,3,4,1,34,0003-00-0005-30.png,0005-00-0002-98.png
9,255,0,1443459298101,1443459298591,304,397,0,0,0,2,1,1,21,0002-00-0005-58.png,0004-00-0004-06.png
9,256,1,1443459298611,1443459299099,256,389,0,0,0,1,2,1,12,0004-00-0004-20.png,0002-00-0001-22.png
9,257,1,1443459299123,1443459299280,1030,374,0,0,0,3,4,1,34,0003-00-0007-03.png,0005-00-0005-03.png
9,258,1,1443459299306,1443459299353,487,304,0,0,0,3,2,1,32,0003-00-0001-59.png,0002-00-0003-01.png
9,259,1,1443459299378,1443459299857,299,387,0,0,0,5,4,1,54,0001-00-0006-06.png,0005-00-0000-05.png
9,260,1,1443459299898,1443459300103,315,457,0,0,0,2,1,1,21,0002-00-0006-29.png,0004-00-0003-47.png
9,261,1,1443459300130,1443459300656,973,386,0,0,0,4,3,1,43,0005-00-0007-56.png,0003-00-0000-51.png
9,262,1,1443459300686,1443459300942,962,352,0,0,0,5,4,1,54,0001-00-0001-62.png,0005-00-0005-54.png
9,263,0,1443459300961,1443459301256,404,304,0,0,0,2,3,1,23,0002-00-0002-29.png,0003-00-0007-38.png
9,264,1,1443459301280,1443459302678,347,342,0,0,0,1,2,1,12,0004-00-0009-60.png,0002-00-0009-54.png
9,265,1,1443459302701,1443459302762,228,471,0,0,0,3,4,1,34,0003-00-0006-42.png,0005-00-0004-38.png
9,266,0,1443459302792,1443459303048,472,300,0,0,0,5,4,1,54,0001-00-0000-57.png,0005-00-0000-03.png
9,267,1,1443459303091,1443459303229,357,336,0,0,0,2,1,1,21,0002-00-0007-07.png,0004-00-0003-16.png
9,268,1,1443459303261,1443459307366,326,456,0,0,0,4,3,1,43,0005-00-0002-44.png,0003-00-0007-18.png
9,269,1,1443459307395,1443459307773,379,306,0,0,0,3,2,1,32,0003-00-0000-62.png,0002-00-0000-35.png
9,270,1,1443459307790,1443459307943,370,301,0,0,0,5,4,1,54,0001-00-0001-59.png,0005-00-0003-71.png
9,271,1,1443459307966,1443459308734,899,410,0,0,0,1,2,1,12,0004-00-0009-25.png,0002-00-0008-23.png
9,272,0,1443459308766,1443459309118,313,336,0,0,0,2,3,1,23,0002-00-0006-54.png,0003-00-0009-22.png
9,273,1,1443459309158,1443459309271,1020,332,0,0,0,2,1,1,21,0002-00-0005-78.png,0004-00-0008-99.png
9,274,0,1443459309309,1443459309656,339,306,0,0,0,5,4,1,54,0001-00-0006-75.png,0005-00-0001-75.png
9,275,0,1443459309681,1443459309785,340,404,0,0,0,5,4,1,54,0001-00-0003-63.png,0005-00-0006-93.png
9,276,1,1443459309812,1443459310156,937,333,0,0,0,3,2,1,32,0003-00-0000-30.png,0002-00-0005-35.png
9,277,0,1443459310182,1443459310343,1057,353,0,0,0,4,3,1,43,0005-00-0006-31.png,0003-00-0005-15.png
9,278,0,1443459310377,1443459310390,958,390,0,0,0,1,2,1,12,0004-00-0001-36.png,0002-00-0001-52.png
9,279,0,1443459310423,1443459310646,940,328,0,0,0,2,3,1,23,0002-00-0008-80.png,0003-00-0004-39.png
9,280,0,1443459310679,1443459311052,219,350,0,0,0,3,4,1,34,0003-00-0001-32.png,0005-00-0005-88.png
9,281,0,1443459311083,1443459311478,912,395,0,0,0,3,2,1,32,0003-00-0002-73.png,0002-00-0003-32.png
9,282,1,1443459311515,1443459311655,493,309,0,0,0,5,4,1,54,0001-00-0001-74.png,0005-00-0006-84.png
9,283,1,1443459311684,1443459311834,269,398,0,0,0,4,3,1,43,0005-00-0002-98.png,0003-00-0002-02.png
9,284,0,1443459311870,1443459312152,1076,387,0,0,0,2,1,1,21,0002-00-0006-84.png,0004-00-0003-52.png
9,285,0,1443459312180,1443459315049,315,366,0,0,0,1,2,1,12,0004-00-0005-58.png,0002-00-0000-44.png
9,286,1,1443459315079,1443459318356,215,463,0,0,0,2,3,1,23,0002-00-0004-55.png,0003-00-0005-30.png
9,287,0,1443459318370,1443459318949,935,360,0,0,0,5,4,1,54,0001-00-0005-03.png,0005-00-0007-57.png
9,288,0,1443459318981,1443459319676,992,306,0,0,0,3,4,1,34,0003-00-0007-90.png,0005-00-0008-55.png
9,289,0,1443459319706,1443459320079,949,380,0,0,0,3,2,1,32,0003-00-0005-02.png,0002-00-0002-09.png
9,290,1,1443459320108,1443459320858,939,395,0,0,0,5,4,1,54,0001-00-0009-93.png,0005-00-0004-18.png
9,291,0,1443459320888,1443459321283,877,384,0,0,0,4,3,1,43,0005-00-0009-41.png,0003-00-0005-20.png
9,292,0,1443459321309,1443459321430,1063,329,0,0,0,1,2,1,12,0004-00-0006-27.png,0002-00-0004-08.png
9,293,0,1443459321454,1443459321700,1146,354,0,0,0,5,4,1,54,0001-00-0002-00.png,0005-00-0009-99.png
9,294,0,1443459321729,1443459322480,1036,353,0,0,0,3,4,1,34,0003-00-0007-75.png,0005-00-0009-64.png
9,295,1,1443459322519,1443459323180,913,387,0,0,0,2,3,1,23,0002-00-0004-92.png,0003-00-0006-63.png
9,296,0,1443459323201,1443459323328,951,553,0,0,0,2,1,1,21,0002-00-0005-85.png,0004-00-0001-31.png
9,297,0,1443459323346,1443459324007,977,384,0,0,0,3,4,1,34,0003-00-0009-52.png,0005-00-0008-22.png
9,298,0,1443459324033,1443459324327,398,305,0,0,0,5,4,1,54,0001-00-0002-48.png,0005-00-0002-16.png
9,299,1,1443459324358,1443459326732,1055,350,0,0,0,2,1,1,21,0002-00-0004-82.png,0004-00-0000-07.png
9,300,0,1443459326760,1443459326956,1159,399,0,0,0,5,4,1,54,0001-00-0002-27.png,0005-00-0001-32.png
9,301,0,1443459326992,1443459327090,289,406,0,0,0,2,3,1,23,0002-00-0000-66.png,0003-00-0001-88.png
9,302,1,1443459327123,1443459328478,324,366,0,0,0,4,3,1,43,0005-00-0009-47.png,0003-00-0004-69.png
9,303,1,1443459328517,1443459328789,340,386,0,0,0,1,2,1,12,0004-00-0006-69.png,0002-00-0005-18.png
9,304,1,1443459328825,1443459328958,971,347,0,0,0,3,2,1,32,0003-00-0002-84.png,0002-00-0001-42.png
9,305,1,1443459328976,1443459329101,341,379,0,0,0,3,4,1,34,0003-00-0005-65.png,0005-00-0009-56.png
9,306,0,1443459329130,1443459329775,981,347,0,0,0,2,3,1,23,0002-00-0005-74.png,0003-00-0002-46.png
9,307,1,1443459329792,1443459330312,979,357,0,0,0,3,2,1,32,0003-00-0003-46.png,0002-00-0005-47.png
9,308,0,1443459330339,1443459330487,966,356,0,0,0,1,2,1,12,0004-00-0000-43.png,0002-00-0006-59.png
9,309,0,1443459330512,1443459332628,369,382,0,0,0,5,4,1,54,0001-00-0001-58.png,0005-00-0007-67.png
9,310,1,1443459332648,1443459332746,340,365,0,0,0,4,3,1,43,0005-00-0004-89.png,0003-00-0003-02.png
9,311,1,1443459332781,1443459333010,900,514,0,0,0,5,4,1,54,0001-00-0004-69.png,0005-00-0006-90.png
9,312,1,1443459333034,1443459333120,374,356,0,0,0,2,1,1,21,0002-00-0006-57.png,0004-00-0006-63.png
9,313,0,1443459333144,1443459333387,377,362,0,0,0,2,1,1,21,0002-00-0001-52.png,0004-00-0005-80.png
9,314,0,1443459333410,1443459333528,949,353,0,0,0,3,4,1,34,0003-00-0003-90.png,0005-00-0001-67.png
9,315,1,1443459333557,1443459334731,338,351,0,0,0,5,4,1,54,0001-00-0007-35.png,0005-00-0003-34.png
9,316,1,1443459334762,1443459335014,964,318,0,0,0,3,2,1,32,0003-00-0004-71.png,0002-00-0004-37.png
9,317,1,1443459335044,1443459335572,361,376,0,0,0,5,4,1,54,0001-00-0001-96.png,0005-00-0006-93.png
9,318,0,1443459335607,1443459335944,928,494,0,0,0,1,2,1,12,0004-00-0000-93.png,0002-00-0001-22.png
9,319,1,1443459335974,1443459336191,383,371,0,0,0,4,3,1,43,0005-00-0009-59.png,0003-00-0006-43.png
9,320,0,1443459336208,1443459336431,973,348,0,0,0,2,3,1,23,0002-00-0004-65.png,0003-00-0002-10.png
9,321,1,1443459336461,1443459336941,988,335,0,0,0,1,2,1,12,0004-00-0009-44.png,0002-00-0005-86.png
9,322,1,1443459336970,1443459341595,1144,491,0,0,0,5,4,1,54,0001-00-0007-40.png,0005-00-0001-88.png
9,323,0,1443459341626,1443459342972,329,364,0,0,0,5,4,1,54,0001-00-0004-11.png,0005-00-0003-77.png
9,324,0,1443459343001,1443459350739,978,343,0,0,0,3,4,1,34,0003-00-0009-75.png,0005-00-0007-13.png
9,325,1,1443459350759,1443459350903,974,360,0,0,0,2,1,1,21,0002-00-0006-77.png,0004-00-0004-32.png
9,326,0,1443459350933,1443459351005,980,344,0,0,0,3,2,1,32,0003-00-0007-60.png,0002-00-0000-65.png
9,327,1,1443459351034,1443459351337,991,352,0,0,0,4,3,1,43,0005-00-0006-61.png,0003-00-0008-76.png
9,328,1,1443459351364,1443459355547,354,394,0,0,0,2,3,1,23,0002-00-0002-37.png,0003-00-0008-24.png
9,329,1,1443459355569,1443459356790,313,369,0,0,0,4,3,1,43,0005-00-0001-85.png,0003-00-0005-16.png
9,330,1,1443459356809,1443459357395,330,379,0,0,0,5,4,1,54,0001-00-0000-03.png,0005-00-0009-50.png
9,331,1,1443459357420,1443459357490,973,377,0,0,0,2,3,1,23,0002-00-0007-58.png,0003-00-0006-79.png
9,332,1,1443459357507,1443459357866,365,383,0,0,0,5,4,1,54,0001-00-0003-18.png,0005-00-0007-54.png
9,333,0,1443459357893,1443459358289,985,347,0,0,0,3,4,1,34,0003-00-0004-08.png,0005-00-0009-37.png
9,334,1,1443459358320,1443459361963,1030,359,0,0,0,2,1,1,21,0002-00-0009-46.png,0004-00-0008-49.png
9,335,1,1443459362005,1443459362836,363,409,0,0,0,1,2,1,12,0004-00-0006-83.png,0002-00-0005-78.png
9,336,1,1443459362878,1443459362953,978,368,0,0,0,3,2,1,32,0003-00-0005-62.png,0002-00-0001-06.png
9,337,1,1443459362986,1443459363542,967,397,0,0,0,4,3,1,43,0005-00-0004-36.png,0003-00-0000-14.png
9,338,0,1443459363569,1443459363949,957,346,0,0,0,5,4,1,54,0001-00-0000-97.png,0005-00-0004-06.png
9,339,1,1443459363978,1443459365085,334,442,0,0,0,5,4,1,54,0001-00-0009-13.png,0005-00-0003-17.png
9,340,1,1443459365108,1443459365301,954,341,0,0,0,2,1,1,21,0002-00-0007-67.png,0004-00-0004-31.png
9,341,1,1443459365327,1443459365351,987,373,0,0,0,3,2,1,32,0003-00-0007-47.png,0002-00-0004-65.png
9,342,1,1443459365382,1443459366378,942,379,0,0,0,2,3,1,23,0002-00-0000-20.png,0003-00-0008-04.png
9,343,1,1443459366422,1443459366932,331,356,0,0,0,3,4,1,34,0003-00-0008-20.png,0005-00-0008-96.png
9,344,0,1443459366949,1443459367889,1021,356,0,0,0,1,2,1,12,0004-00-0008-20.png,0002-00-0001-97.png
9,345,0,1443459367917,1443459368191,992,327,0,0,0,3,4,1,34,0003-00-0001-82.png,0005-00-0009-51.png
9,346,1,1443459368229,1443459368703,970,404,0,0,0,2,3,1,23,0002-00-0002-79.png,0003-00-0007-62.png
9,347,1,1443459368726,1443459368988,387,432,0,0,0,2,1,1,21,0002-00-0004-83.png,0004-00-0007-45.png
9,348,1,1443459369011,1443459369543,375,462,0,0,0,4,3,1,43,0005-00-0007-10.png,0003-00-0007-96.png
9,349,1,1443459369600,1443459369651,302,407,0,0,0,1,2,1,12,0004-00-0007-02.png,0002-00-0002-80.png
9,350,1,1443459369675,1443459369959,312,357,0,0,0,3,2,1,32,0003-00-0003-59.png,0002-00-0009-26.png
9,351,1,1443459369995,1443459370027,363,462,0,0,0,5,4,1,54,0001-00-0003-90.png,0005-00-0003-96.png
9,352,1,1443459370057,1443459370494,1078,358,0,0,0,5,4,1,54,0001-00-0006-88.png,0005-00-0003-44.png
9,353,1,1443459370521,1443459371895,312,397,0,0,0,3,4,1,34,0003-00-0009-60.png,0005-00-0000-01.png
9,354,0,1443459371931,1443459372130,1073,301,0,0,0,2,1,1,21,0002-00-0007-53.png,0004-00-0008-76.png
9,355,1,1443459372163,1443459372188,1045,326,0,0,0,2,3,1,23,0002-00-0004-06.png,0003-00-0000-02.png
9,356,1,1443459372219,1443459375424,1075,308,0,0,0,5,4,1,54,0001-00-0002-50.png,0005-00-0001-55.png
9,357,1,1443459375446,1443459376043,1022,333,0,0,0,3,2,1,32,0003-00-0007-76.png,0002-00-0005-07.png
9,358,1,1443459376076,1443459376091,504,317,0,0,0,1,2,1,12,0004-00-0003-81.png,0002-00-0000-93.png
9,359,1,1443459376114,1443459376580,374,320,0,0,0,5,4,1,54,0001-00-0000-59.png,0005-00-0008-29.png
9,360,1,1443459376613,1443459376716,964,488,0,0,0,4,3,1,43,0005-00-0002-06.png,0003-00-0004-57.png
9,361,0,1443459376739,1443459376941,941,406,0,0,0,3,2,1,32,0003-00-0007-58.png,0002-00-0009-59.png
9,362,0,1443459376959,1443459377245,302,379,0,0,0,1,2,1,12,0004-00-0001-90.png,0002-00-0004-89.png
9,363,1,1443459377270,1443459377508,916,418,0,0,0,2,1,1,21,0002-00-0008-99.png,0004-00-0008-96.png
9,364,1,1443459377543,1443459381096,308,303,0,0,0,5,4,1,54,0001-00-0001-36.png,0005-00-0003-84.png
9,365,1,1443459381122,1443459381899,305,456,0,0,0,4,3,1,43,0005-00-0009-05.png,0003-00-0008-78.png
9,366,1,1443459381927,1443459382535,995,326,0,0,0,2,3,1,23,0002-00-0009-22.png,0003-00-0004-23.png
9,367,0,1443459382566,1443459384471,976,378,0,0,0,3,4,1,34,0003-00-0003-33.png,0005-00-0003-28.png
9,368,1,1443459384501,1443459384858,895,378,0,0,0,5,4,1,54,0001-00-0006-83.png,0005-00-0003-68.png
9,369,0,1443459384875,1443459385300,965,381,0,0,0,1,2,1,12,0004-00-0002-04.png,0002-00-0008-65.png
9,370,0,1443459385325,1443459393286,221,423,0,0,0,3,4,1,34,0003-00-0002-20.png,0005-00-0008-57.png
9,371,1,1443459393314,1443459393694,969,384,0,0,0,2,3,1,23,0002-00-0006-15.png,0003-00-0005-28.png
9,372,1,1443459393720,1443459396146,955,358,0,0,0,2,1,1,21,0002-00-0009-34.png,0004-00-0003-78.png
9,373,1,1443459396196,1443459396207,379,385,0,0,0,5,4,1,54,0001-00-0001-45.png,0005-00-0003-07.png
9,374,1,1443459396248,1443459397686,890,417,0,0,0,3,2,1,32,0003-00-0000-40.png,0002-00-0003-47.png
9,375,1,1443459397708,1443459398418,357,377,0,0,0,5,4,1,54,0001-00-0006-50.png,0005-00-0008-09.png
9,376,0,1443459398451,1443459401958,452,278,0,0,0,4,3,1,43,0005-00-0001-32.png,0003-00-0006-68.png
9,377,0,1443459401986,1443459402203,1072,351,0,0,0,5,4,1,54,0001-00-0007-80.png,0005-00-0002-82.png
9,378,1,1443459402222,1443459402352,262,336,0,0,0,1,2,1,12,0004-00-0000-32.png,0002-00-0004-65.png
9,379,1,1443459402376,1443459402468,986,360,0,0,0,2,1,1,21,0002-00-0001-15.png,0004-00-0004-67.png
9,380,1,1443459402489,1443459402792,1018,306,0,0,0,4,3,1,43,0005-00-0009-24.png,0003-00-0005-50.png
9,381,0,1443459402816,1443459403651,367,426,0,0,0,3,2,1,32,0003-00-0004-65.png,0002-00-0006-10.png
9,382,0,1443459403674,1443459404283,299,332,0,0,0,2,3,1,23,0002-00-0005-55.png,0003-00-0009-57.png
9,383,1,1443459404311,1443459404368,340,401,0,0,0,3,4,1,34,0003-00-0003-78.png,0005-00-0009-90.png
9,384,1,1443459404390,1443459405383,974,359,0,0,0,5,4,1,54,0001-00-0001-73.png,0005-00-0003-99.png
9,385,1,1443459405407,1443459406992,926,376,0,0,0,3,2,1,32,0003-00-0008-81.png,0002-00-0004-18.png
9,386,1,1443459407023,1443459407316,226,333,0,0,0,2,1,1,21,0002-00-0005-14.png,0004-00-0005-09.png
9,387,1,1443459407362,1443459413355,1041,278,0,0,0,1,2,1,12,0004-00-0001-77.png,0002-00-0008-77.png
9,388,1,1443459413380,1443459417082,327,328,0,0,0,5,4,1,54,0001-00-0004-07.png,0005-00-0001-76.png
9,389,0,1443459417096,1443459417218,954,400,0,0,0,5,4,1,54,0001-00-0004-38.png,0005-00-0005-98.png
9,390,1,1443459417242,1443459419879,1041,298,0,0,0,4,3,1,43,0005-00-0005-23.png,0003-00-0009-24.png
9,391,1,1443459419901,1443459420227,299,368,0,0,0,2,3,1,23,0002-00-0004-22.png,0003-00-0003-21.png
9,392,0,1443459420250,1443459420369,881,471,0,0,0,3,4,1,34,0003-00-0001-91.png,0005-00-0008-05.png
9,393,1,1443459420394,1443459420604,964,554,0,0,0,2,1,1,21,0002-00-0001-52.png,0004-00-0009-65.png
9,394,1,1443459420628,1443459421055,954,361,0,0,0,5,4,1,54,0001-00-0008-50.png,0005-00-0009-88.png
9,395,1,1443459421087,1443459421646,1038,444,0,0,0,1,2,1,12,0004-00-0008-26.png,0002-00-0002-97.png
9,396,1,1443459421675,1443459421923,350,292,0,0,0,4,3,1,43,0005-00-0001-13.png,0003-00-0007-31.png
9,397,1,1443459421950,1443459422064,309,384,0,0,0,3,4,1,34,0003-00-0004-52.png,0005-00-0009-48.png
9,398,1,1443459422095,1443459423708,913,358,0,0,0,5,4,1,54,0001-00-0008-31.png,0005-00-0005-57.png
9,399,1,1443459423740,1443459423757,335,386,0,0,0,2,3,1,23,0002-00-0002-77.png,0003-00-0007-41.png
9,400,1,1443459423789,1443459425018,1044,296,0,0,0,3,2,1,32,0003-00-0005-75.png,0002-00-0006-74.png
9,401,1,1443459425047,1443459425294,241,424,0,0,0,4,3,1,43,0005-00-0001-30.png,0003-00-0000-05.png
9,402,0,1443459425335,1443459427744,332,377,0,0,0,2,1,1,21,0002-00-0001-06.png,0004-00-0009-38.png
9,403,0,1443459427764,1443459428190,959,340,0,0,0,5,4,1,54,0001-00-0007-15.png,0005-00-0003-71.png
9,404,1,1443459428229,1443459428250,933,385,0,0,0,3,4,1,34,0003-00-0008-19.png,0005-00-0008-69.png
9,405,1,1443459428270,1443459428794,1057,271,0,0,0,2,3,1,23,0002-00-0006-32.png,0003-00-0005-90.png
9,406,1,1443459428832,1443459430111,513,328,0,0,0,3,2,1,32,0003-00-0005-12.png,0002-00-0002-05.png
9,407,1,1443459430132,1443459430269,952,397,0,0,0,5,4,1,54,0001-00-0004-26.png,0005-00-0009-02.png
9,408,0,1443459430300,1443459430887,913,379,0,0,0,1,2,1,12,0004-00-0001-31.png,0002-00-0008-92.png
9,409,1,1443459430917,1443459430996,273,429,0,0,0,5,4,1,54,0001-00-0005-86.png,0005-00-0006-55.png
9,410,0,1443459431027,1443459431538,1140,354,0,0,0,5,4,1,54,0001-00-0006-76.png,0005-00-0006-06.png
9,411,0,1443459431587,1443459431666,296,418,0,0,0,3,4,1,34,0003-00-0009-15.png,0005-00-0006-31.png
9,412,1,1443459431696,1443459432587,1000,386,0,0,0,4,3,1,43,0005-00-0000-43.png,0003-00-0002-73.png
9,413,1,1443459432605,1443459432714,304,459,0,0,0,2,3,1,23,0002-00-0004-92.png,0003-00-0004-60.png
9,414,1,1443459432740,1443459432776,909,441,0,0,0,3,2,1,32,0003-00-0007-84.png,0002-00-0004-02.png
9,415,0,1443459432810,1443459432918,908,407,0,0,0,2,1,1,21,0002-00-0006-92.png,0004-00-0000-33.png
9,416,0,1443459432951,1443459433566,910,370,0,0,0,1,2,1,12,0004-00-0000-37.png,0002-00-0001-77.png
9,417,1,1443459433598,1443459435572,1001,398,0,0,0,4,3,1,43,0005-00-0001-26.png,0003-00-0000-89.png
9,418,1,1443459435601,1443459435936,934,384,0,0,0,1,2,1,12,0004-00-0003-93.png,0002-00-0009-76.png
9,419,1,1443459435957,1443459436432,372,284,0,0,0,2,1,1,21,0002-00-0003-45.png,0004-00-0004-75.png
9,420,1,1443459436474,1443459436530,1021,321,0,0,0,5,4,1,54,0001-00-0009-41.png,0005-00-0008-40.png
9,421,0,1443459436553,1443459436966,911,379,0,0,0,5,4,1,54,0001-00-0003-73.png,0005-00-0008-92.png
9,422,1,1443459437002,1443459437535,319,408,0,0,0,3,2,1,32,0003-00-0002-90.png,0002-00-0008-24.png
9,423,0,1443459437569,1443459437600,997,376,0,0,0,2,3,1,23,0002-00-0009-71.png,0003-00-0002-81.png
9,424,0,1443459437628,1443459437850,907,425,0,0,0,3,4,1,34,0003-00-0002-98.png,0005-00-0006-74.png
9,425,1,1443459437887,1443459437942,959,347,0,0,0,2,3,1,23,0002-00-0001-78.png,0003-00-0008-87.png
9,426,1,1443459437965,1443459438171,964,333,0,0,0,2,1,1,21,0002-00-0003-68.png,0004-00-0003-40.png
9,427,0,1443459438194,1443459439995,955,348,0,0,0,5,4,1,54,0001-00-0005-99.png,0005-00-0001-22.png
9,428,0,1443459440022,1443459442181,336,325,0,0,0,3,4,1,34,0003-00-0000-56.png,0005-00-0009-18.png
9,429,1,1443459442211,1443459442569,971,375,0,0,0,4,3,1,43,0005-00-0003-44.png,0003-00-0005-79.png
9,430,1,1443459442619,1443459442999,292,392,0,0,0,1,2,1,12,0004-00-0004-18.png,0002-00-0008-13.png
9,431,0,1443459443029,1443459443693,968,365,0,0,0,3,2,1,32,0003-00-0003-06.png,0002-00-0009-95.png
9,432,1,1443459443734,1443459444035,954,488,0,0,0,5,4,1,54,0001-00-0009-27.png,0005-00-0009-46.png
9,433,1,1443459444080,1443459444106,979,361,0,0,0,2,1,1,21,0002-00-0003-70.png,0004-00-0006-97.png
9,434,1,1443459444127,1443459444287,982,346,0,0,0,2,3,1,23,0002-00-0008-47.png,0003-00-0000-86.png
9,435,0,1443459444320,1443459444462,987,339,0,0,0,1,2,1,12,0004-00-0002-13.png,0002-00-0005-83.png
9,436,0,1443459444495,1443459445361,334,353,0,0,0,3,2,1,32,0003-00-0002-93.png,0002-00-0009-91.png
9,437,1,1443459445386,1443459446768,967,332,0,0,0,3,4,1,34,0003-00-0003-76.png,0005-00-0005-32.png
9,438,1,1443459446798,1443459447028,971,351,0,0,0,4,3,1,43,0005-00-0003-71.png,0003-00-0005-89.png
9,439,0,1443459447074,1443459447837,336,367,0,0,0,5,4,1,54,0001-00-0004-61.png,0005-00-0002-91.png
9,440,1,1443459447853,1443459449396,330,345,0,0,0,5,4,1,54,0001-00-0000-03.png,0005-00-0002-59.png
9,441,0,1443459449420,1443459449588,1043,357,0,0,0,3,4,1,34,0003-00-0004-99.png,0005-00-0000-56.png
9,442,1,1443459449615,1443459450013,325,355,0,0,0,1,2,1,12,0004-00-0008-17.png,0002-00-0002-16.png
9,443,1,1443459450053,1443459450810,332,344,0,0,0,2,1,1,21,0002-00-0002-26.png,0004-00-0003-08.png
9,444,0,1443459450843,1443459453540,335,377,0,0,0,3,2,1,32,0003-00-0009-63.png,0002-00-0002-50.png
9,445,1,1443459453564,1443459453668,373,332,0,0,0,5,4,1,54,0001-00-0001-30.png,0005-00-0006-61.png
9,446,0,1443459453692,1443459453767,980,336,0,0,0,5,4,1,54,0001-00-0003-15.png,0005-00-0001-99.png
9,447,0,1443459453793,1443459454219,987,353,0,0,0,4,3,1,43,0005-00-0007-07.png,0003-00-0002-57.png
9,448,0,1443459454240,1443459454766,942,305,0,0,0,2,3,1,23,0002-00-0007-65.png,0003-00-0003-07.png
9,449,1,1443459454809,1443459457852,1003,332,0,0,0,2,1,1,21,0002-00-0000-66.png,0004-00-0000-19.png
9,450,1,1443459457886,1443459461080,329,328,0,0,0,5,4,1,54,0001-00-0009-85.png,0005-00-0001-40.png
9,451,1,1443459461102,1443459461380,989,346,0,0,0,2,3,1,23,0002-00-0008-97.png,0003-00-0004-32.png
9,452,0,1443459461405,1443459461753,364,375,0,0,0,3,2,1,32,0003-00-0007-56.png,0002-00-0005-27.png
9,453,0,1443459461780,1443459461860,1021,358,0,0,0,3,4,1,34,0003-00-0000-09.png,0005-00-0005-57.png
9,454,0,1443459461902,1443459462533,294,380,0,0,0,1,2,1,12,0004-00-0004-61.png,0002-00-0006-35.png
9,455,0,1443459462561,1443459462616,1043,353,0,0,0,5,4,1,54,0001-00-0000-93.png,0005-00-0007-95.png
9,456,1,1443459462649,1443459463037,359,389,0,0,0,4,3,1,43,0005-00-0001-94.png,0003-00-0000-32.png
9,457,1,1443459463062,1443459463113,336,358,0,0,0,1,2,1,12,0004-00-0007-51.png,0002-00-0006-27.png
9,458,1,1443459463147,1443459463546,345,395,0,0,0,5,4,1,54,0001-00-0009-87.png,0005-00-0006-85.png
9,459,1,1443459463577,1443459464222,453,253,0,0,0,4,3,1,43,0005-00-0002-26.png,0003-00-0007-37.png
9,460,0,1443459464254,1443459464434,333,330,0,0,0,3,4,1,34,0003-00-0009-57.png,0005-00-0009-91.png
9,461,1,1443459464460,1443459464693,934,386,0,0,0,5,4,1,54,0001-00-0007-36.png,0005-00-0001-16.png
9,462,0,1443459464730,1443459465069,943,346,0,0,0,2,1,1,21,0002-00-0007-08.png,0004-00-0008-85.png
9,463,1,1443459465093,1443459465216,982,341,0,0,0,2,3,1,23,0002-00-0000-80.png,0003-00-0009-61.png
9,464,1,1443459465257,1443459466184,953,357,0,0,0,3,2,1,32,0003-00-0001-43.png,0002-00-0001-72.png
9,465,1,1443459466219,1443459466346,980,355,0,0,0,3,2,1,32,0003-00-0003-22.png,0002-00-0005-68.png
9,466,1,1443459466381,1443459466491,977,342,0,0,0,5,4,1,54,0001-00-0002-65.png,0005-00-0007-79.png
9,467,0,1443459466523,1443459467038,963,376,0,0,0,1,2,1,12,0004-00-0009-29.png,0002-00-0000-78.png
9,468,1,1443459467064,1443459467347,935,398,0,0,0,2,1,1,21,0002-00-0005-30.png,0004-00-0007-99.png
9,469,0,1443459467362,1443459467761,944,327,0,0,0,4,3,1,43,0005-00-0004-90.png,0003-00-0000-36.png
9,470,1,1443459467791,1443459467814,1016,541,0,0,0,5,4,1,54,0001-00-0007-13.png,0005-00-0003-09.png
9,471,1,1443459467850,1443459468424,230,412,0,0,0,3,4,1,34,0003-00-0003-03.png,0005-00-0009-99.png
9,472,1,1443459468461,1443459468614,313,378,0,0,0,2,3,1,23,0002-00-0001-03.png,0003-00-0000-27.png
9,473,1,1443459468654,1443459471954,940,387,0,0,0,3,4,1,34,0003-00-0006-68.png,0005-00-0003-88.png
9,474,0,1443459471978,1443459472082,957,347,0,0,0,3,2,1,32,0003-00-0000-94.png,0002-00-0004-83.png
9,475,0,1443459472111,1443459472611,943,347,0,0,0,5,4,1,54,0001-00-0008-65.png,0005-00-0006-82.png
9,476,0,1443459472643,1443459472903,960,329,0,0,0,4,3,1,43,0005-00-0002-14.png,0003-00-0003-05.png
9,477,1,1443459472932,1443459473859,1092,295,0,0,0,5,4,1,54,0001-00-0007-42.png,0005-00-0008-20.png
9,478,0,1443459473883,1443459474592,1006,334,0,0,0,2,1,1,21,0002-00-0007-18.png,0004-00-0003-42.png
9,479,1,1443459474621,1443459475055,312,410,0,0,0,2,3,1,23,0002-00-0007-97.png,0003-00-0008-81.png
9,480,1,1443459475086,1443459476237,346,392,0,0,0,1,2,1,12,0004-00-0006-76.png,0002-00-0008-58.png
9,481,1,1443459476257,1443459476265,939,400,0,0,0,5,4,1,54,0001-00-0009-18.png,0005-00-0001-14.png
9,482,1,1443459476280,1443459476626,942,329,0,0,0,4,3,1,43,0005-00-0006-48.png,0003-00-0004-11.png
9,483,0,1443459476647,1443459477157,315,417,0,0,0,2,3,1,23,0002-00-0008-31.png,0003-00-0002-71.png
9,484,1,1443459477194,1443459477241,972,304,0,0,0,1,2,1,12,0004-00-0004-80.png,0002-00-0004-35.png
9,485,0,1443459477273,1443459481036,401,267,0,0,0,3,2,1,32,0003-00-0003-94.png,0002-00-0001-17.png
9,486,1,1443459481066,1443459481250,297,415,0,0,0,5,4,1,54,0001-00-0000-23.png,0005-00-0002-50.png
9,487,1,1443459481279,1443459481745,1052,345,0,0,0,3,4,1,34,0003-00-0004-08.png,0005-00-0008-98.png
9,488,0,1443459481760,1443459484192,350,322,0,0,0,2,1,1,21,0002-00-0008-14.png,0004-00-0007-03.png
9,489,1,1443459484213,1443459484411,343,297,0,0,0,5,4,1,54,0001-00-0006-43.png,0005-00-0000-53.png
9,490,1,1443459484446,1443459484769,296,301,0,0,0,1,2,1,12,0004-00-0006-03.png,0002-00-0002-73.png
9,491,1,1443459484800,1443459484843,973,362,0,0,0,3,2,1,32,0003-00-0005-73.png,0002-00-0002-05.png
9,492,0,1443459484868,1443459485105,1085,261,0,0,0,3,4,1,34,0003-00-0007-18.png,0005-00-0007-34.png
9,493,1,1443459485129,1443459487393,399,462,0,0,0,4,3,1,43,0005-00-0003-87.png,0003-00-0002-35.png
9,494,0,1443459487422,1443459487523,1025,328,0,0,0,2,1,1,21,0002-00-0007-20.png,0004-00-0000-92.png
9,495,1,1443459487549,1443459490071,328,448,0,0,0,2,3,1,23,0002-00-0001-28.png,0003-00-0008-56.png
9,496,1,1443459490101,1443459490888,402,277,0,0,0,5,4,1,54,0001-00-0003-67.png,0005-00-0003-79.png
9,497,0,1443459490907,1443459491041,350,304,0,0,0,3,4,1,34,0003-00-0006-57.png,0005-00-0001-97.png
9,498,1,1443459491067,1443459491124,996,302,0,0,0,3,2,1,32,0003-00-0007-61.png,0002-00-0009-07.png
9,499,1,1443459491152,1443459492341,1011,251,0,0,0,4,3,1,43,0005-00-0007-65.png,0003-00-0008-52.png
9,500,1,1443459492381,1443459493039,281,443,0,0,0,5,4,1,54,0001-00-0002-94.png,0005-00-0006-11.png
9,501,0,1443459493063,1443459493395,1123,445,0,0,0,2,3,1,23,0002-00-0001-47.png,0003-00-0004-03.png
9,502,0,1443459493428,1443459494457,964,453,0,0,0,2,1,1,21,0002-00-0003-25.png,0004-00-0005-22.png
9,503,0,1443459494504,1443459494616,1016,342,0,0,0,5,4,1,54,0001-00-0001-38.png,0005-00-0002-48.png
9,504,1,1443459494666,1443459495046,325,341,0,0,0,1,2,1,12,0004-00-0005-36.png,0002-00-0008-05.png
9,505,0,1443459495086,1443459495175,931,306,0,0,0,1,2,1,12,0004-00-0005-08.png,0002-00-0008-95.png
9,506,0,1443459495203,1443459495279,365,303,0,0,0,5,4,1,54,0001-00-0002-35.png,0005-00-0008-46.png
9,507,1,1443459495312,1443459495549,328,408,0,0,0,4,3,1,43,0005-00-0006-40.png,0003-00-0008-55.png
9,508,1,1443459495578,1443459497238,278,321,0,0,0,2,3,1,23,0002-00-0001-96.png,0003-00-0009-42.png
9,509,1,1443459497263,1443459497358,1018,353,0,0,0,5,4,1,54,0001-00-0006-00.png,0005-00-0005-44.png
9,510,0,1443459497379,1443459497447,475,274,0,0,0,3,2,1,32,0003-00-0005-27.png,0002-00-0001-23.png
9,511,1,1443459497471,1443459497770,432,278,0,0,0,2,1,1,21,0002-00-0002-58.png,0004-00-0003-76.png
9,512,0,1443459497801,1443459499283,1040,325,0,0,0,3,4,1,34,0003-00-0007-41.png,0005-00-0001-03.png
9,513,1,1443459499325,1443459503295,339,390,0,0,0,2,3,1,23,0002-00-0009-72.png,0003-00-0005-43.png
9,514,0,1443459503320,1443459504966,347,353,0,0,0,3,4,1,34,0003-00-0006-44.png,0005-00-0004-68.png
9,515,1,1443459504984,1443459505607,373,308,0,0,0,1,2,1,12,0004-00-0005-60.png,0002-00-0003-81.png
9,516,0,1443459505629,1443459505882,953,336,0,0,0,5,4,1,54,0001-00-0004-60.png,0005-00-0003-57.png
9,517,1,1443459505905,1443459506335,316,391,0,0,0,4,3,1,43,0005-00-0009-30.png,0003-00-0001-36.png
9,518,0,1443459506349,1443459506546,1020,329,0,0,0,2,1,1,21,0002-00-0009-18.png,0004-00-0006-23.png
9,519,0,1443459506574,1443459507130,301,367,0,0,0,5,4,1,54,0001-00-0000-86.png,0005-00-0008-32.png
9,520,0,1443459507166,1443459507498,315,351,0,0,0,3,2,1,32,0003-00-0006-67.png,0002-00-0000-72.png
9,521,1,1443459507524,1443459509240,932,374,0,0,0,3,2,1,32,0003-00-0007-91.png,0002-00-0008-35.png
9,522,1,1443459509268,1443459509406,1007,322,0,0,0,5,4,1,54,0001-00-0004-08.png,0005-00-0009-67.png
9,523,0,1443459509429,1443459509525,943,334,0,0,0,3,4,1,34,0003-00-0003-93.png,0005-00-0005-52.png
9,524,1,1443459509555,1443459509927,351,373,0,0,0,1,2,1,12,0004-00-0007-97.png,0002-00-0000-79.png
9,525,0,1443459509963,1443459511622,948,381,0,0,0,2,3,1,23,0002-00-0007-87.png,0003-00-0008-98.png
9,526,0,1443459511655,1443459512059,310,365,0,0,0,2,1,1,21,0002-00-0000-18.png,0004-00-0002-79.png
9,527,0,1443459512084,1443459513313,955,373,0,0,0,4,3,1,43,0005-00-0008-00.png,0003-00-0007-47.png
9,528,1,1443459513337,1443459513905,338,402,0,0,0,5,4,1,54,0001-00-0008-88.png,0005-00-0007-31.png
9,529,1,1443459513928,1443459514330,961,370,0,0,0,2,3,1,23,0002-00-0000-20.png,0003-00-0002-09.png
9,530,1,1443459514371,1443459514889,313,378,0,0,0,1,2,1,12,0004-00-0007-41.png,0002-00-0009-38.png
9,531,0,1443459514922,1443459516115,1020,299,0,0,0,3,4,1,34,0003-00-0005-76.png,0005-00-0004-31.png
9,532,1,1443459516143,1443459516180,939,357,0,0,0,3,2,1,32,0003-00-0006-81.png,0002-00-0001-77.png
9,533,1,1443459516217,1443459516248,320,346,0,0,0,5,4,1,54,0001-00-0006-85.png,0005-00-0006-39.png
9,534,1,1443459516288,1443459516295,941,303,0,0,0,4,3,1,43,0005-00-0007-98.png,0003-00-0001-95.png
9,535,1,1443459516320,1443459516398,321,360,0,0,0,5,4,1,54,0001-00-0008-53.png,0005-00-0005-23.png
9,536,0,1443459516435,1443459516599,342,378,0,0,0,2,1,1,21,0002-00-0002-84.png,0004-00-0000-22.png
9,537,1,1443459516630,1443459516674,915,330,0,0,0,2,1,1,21,0002-00-0004-49.png,0004-00-0005-97.png
9,538,0,1443459516710,1443459517155,396,268,0,0,0,4,3,1,43,0005-00-0004-40.png,0003-00-0004-53.png
9,539,1,1443459517178,1443459526181,1016,317,0,0,0,3,4,1,34,0003-00-0006-09.png,0005-00-0004-21.png
9,540,1,1443459526206,1443459526369,919,380,0,0,0,2,3,1,23,0002-00-0001-71.png,0003-00-0006-38.png
9,541,0,1443459526415,1443459529284,1163,264,0,0,0,3,2,1,32,0003-00-0005-33.png,0002-00-0007-93.png
9,542,1,1443459529309,1443459529472,299,396,0,0,0,1,2,1,12,0004-00-0002-39.png,0002-00-0003-80.png
9,543,0,1443459529494,1443459529579,954,384,0,0,0,5,4,1,54,0001-00-0004-69.png,0005-00-0006-18.png
9,544,0,1443459529621,1443459530310,929,521,0,0,0,5,4,1,54,0001-00-0006-26.png,0005-00-0008-70.png
9,545,1,1443459530352,1443459530403,966,320,0,0,0,3,2,1,32,0003-00-0009-39.png,0002-00-0003-02.png
9,546,1,1443459530434,1443459530980,975,361,0,0,0,2,1,1,21,0002-00-0008-26.png,0004-00-0005-65.png
9,547,0,1443459531009,1443459531698,353,354,0,0,0,5,4,1,54,0001-00-0005-36.png,0005-00-0006-15.png
9,548,1,1443459531723,1443459531912,299,384,0,0,0,5,4,1,54,0001-00-0009-77.png,0005-00-0005-07.png
9,549,1,1443459531945,1443459532070,1101,256,0,0,0,2,3,1,23,0002-00-0005-33.png,0003-00-0005-35.png
9,550,1,1443459532093,1443459532133,313,300,0,0,0,1,2,1,12,0004-00-0003-90.png,0002-00-0000-91.png
9,551,1,1443459532157,1443459532278,399,348,0,0,0,3,4,1,34,0003-00-0006-57.png,0005-00-0003-83.png
9,552,0,1443459532293,1443459533387,939,447,0,0,0,4,3,1,43,0005-00-0009-27.png,0003-00-0009-75.png
9,553,0,1443459533414,1443459534047,453,279,0,0,0,5,4,1,54,0001-00-0008-26.png,0005-00-0003-56.png
9,554,1,1443459534074,1443459534715,231,219,0,0,0,5,4,1,54,0001-00-0007-26.png,0005-00-0008-83.png
9,555,0,1443459534741,1443459534954,947,362,0,0,0,1,2,1,12,0004-00-0001-11.png,0002-00-0001-97.png
9,556,0,1443459534980,1443459535863,1118,417,0,0,0,3,4,1,34,0003-00-0008-29.png,0005-00-0009-30.png
9,557,1,1443459535886,1443459536072,964,396,0,0,0,4,3,1,43,0005-00-0008-51.png,0003-00-0004-47.png
9,558,0,1443459536098,1443459536518,317,382,0,0,0,3,2,1,32,0003-00-0000-86.png,0002-00-0003-06.png
9,559,0,1443459536568,1443459536652,914,351,0,0,0,2,1,1,21,0002-00-0006-23.png,0004-00-0004-19.png
9,560,1,1443459536673,1443459536761,919,351,0,0,0,2,3,1,23,0002-00-0009-41.png,0003-00-0002-25.png
9,561,1,1443459536788,1443459539344,232,353,0,0,0,4,3,1,43,0005-00-0000-91.png,0003-00-0009-15.png
9,562,0,1443459539366,1443459539434,953,411,0,0,0,5,4,1,54,0001-00-0005-96.png,0005-00-0004-36.png
9,563,1,1443459539470,1443459540112,1061,301,0,0,0,3,2,1,32,0003-00-0003-42.png,0002-00-0008-59.png
9,564,1,1443459540169,1443459542856,302,319,0,0,0,2,3,1,23,0002-00-0000-66.png,0003-00-0005-19.png
9,565,1,1443459542887,1443459543061,1057,357,0,0,0,5,4,1,54,0001-00-0007-73.png,0005-00-0004-99.png
9,566,1,1443459543090,1443459543146,971,352,0,0,0,2,1,1,21,0002-00-0008-90.png,0004-00-0007-50.png
9,567,1,1443459543165,1443459543340,283,384,0,0,0,3,4,1,34,0003-00-0001-17.png,0005-00-0002-10.png
9,568,1,1443459543378,1443459543891,943,365,0,0,0,1,2,1,12,0004-00-0008-17.png,0002-00-0003-70.png
9,569,1,1443459543917,1443459545483,237,382,0,0,0,4,3,1,43,0005-00-0009-71.png,0003-00-0002-39.png
9,570,1,1443459545500,1443459545724,318,413,0,0,0,3,4,1,34,0003-00-0009-20.png,0005-00-0007-02.png
9,571,1,1443459545756,1443459545921,347,357,0,0,0,2,3,1,23,0002-00-0004-26.png,0003-00-0009-68.png
9,572,1,1443459545949,1443459546142,923,481,0,0,0,5,4,1,54,0001-00-0006-33.png,0005-00-0009-77.png
9,573,1,1443459546166,1443459546268,1021,347,0,0,0,3,2,1,32,0003-00-0000-14.png,0002-00-0005-90.png
9,574,0,1443459546296,1443459546565,1166,342,0,0,0,5,4,1,54,0001-00-0009-06.png,0005-00-0003-86.png
9,575,1,1443459546588,1443459547150,963,342,0,0,0,1,2,1,12,0004-00-0003-32.png,0002-00-0005-50.png
9,576,0,1443459547171,1443459551753,349,389,0,0,0,2,1,1,21,0002-00-0005-44.png,0004-00-0007-80.png
9,577,1,1443459551789,1443459552137,992,327,0,0,0,1,2,1,12,0004-00-0001-80.png,0002-00-0000-15.png
9,578,1,1443459552160,1443459552343,1007,341,0,0,0,3,2,1,32,0003-00-0003-00.png,0002-00-0001-49.png
9,579,1,1443459552371,1443459552501,322,407,0,0,0,3,4,1,34,0003-00-0007-72.png,0005-00-0008-85.png
9,580,0,1443459552527,1443459554455,1007,318,0,0,0,5,4,1,54,0001-00-0001-71.png,0005-00-0002-75.png
9,581,1,1443459554499,1443459554525,341,392,0,0,0,2,3,1,23,0002-00-0000-23.png,0003-00-0003-85.png
9,582,1,1443459554551,1443459554723,327,368,0,0,0,4,3,1,43,0005-00-0002-14.png,0003-00-0005-42.png
9,583,1,1443459554747,1443459554956,299,489,0,0,0,5,4,1,54,0001-00-0003-95.png,0005-00-0001-12.png
9,584,1,1443459554977,1443459555169,948,348,0,0,0,2,1,1,21,0002-00-0005-59.png,0004-00-0004-85.png
9,585,0,1443459555200,1443459555564,341,380,0,0,0,3,4,1,34,0003-00-0004-59.png,0005-00-0004-71.png
9,586,0,1443459555582,1443459555747,285,369,0,0,0,5,4,1,54,0001-00-0003-62.png,0005-00-0001-38.png
9,587,1,1443459555790,1443459555986,325,349,0,0,0,2,1,1,21,0002-00-0001-81.png,0004-00-0007-60.png
9,588,0,1443459556010,1443459556341,939,310,0,0,0,1,2,1,12,0004-00-0001-66.png,0002-00-0000-51.png
9,589,1,1443459556360,1443459556539,966,332,0,0,0,2,3,1,23,0002-00-0006-49.png,0003-00-0006-89.png
9,590,1,1443459556563,1443459556790,939,331,0,0,0,3,2,1,32,0003-00-0002-72.png,0002-00-0002-45.png
9,591,0,1443459556819,1443459557361,310,346,0,0,0,4,3,1,43,0005-00-0007-77.png,0003-00-0008-63.png
9,592,0,1443459557388,1443459562821,1005,306,0,0,0,5,4,1,54,0001-00-0006-83.png,0005-00-0008-12.png
9,593,0,1443459562859,1443459562907,329,364,0,0,0,2,1,1,21,0002-00-0004-98.png,0004-00-0009-22.png
9,594,1,1443459562944,1443459563922,346,336,0,0,0,4,3,1,43,0005-00-0003-94.png,0003-00-0005-26.png
9,595,0,1443459563945,1443459564209,993,333,0,0,0,2,3,1,23,0002-00-0002-53.png,0003-00-0005-85.png
9,596,0,1443459564243,1443459564518,326,353,0,0,0,5,4,1,54,0001-00-0003-11.png,0005-00-0006-18.png
9,597,1,1443459564537,1443459564877,350,306,0,0,0,5,4,1,54,0001-00-0007-79.png,0005-00-0004-24.png
9,598,1,1443459564909,1443459565287,934,359,0,0,0,3,2,1,32,0003-00-0009-07.png,0002-00-0005-73.png
9,599,1,1443459565312,1443459565755,951,355,0,0,0,1,2,1,12,0004-00-0003-75.png,0002-00-0004-28.png
9,600,0,1443459565786,1443459566805,997,322,0,0,0,3,4,1,34,0003-00-0008-96.png,0005-00-0006-69.png
9,601,1,1443459566840,1443459567330,947,373,0,0,0,3,4,1,34,0003-00-0001-33.png,0005-00-0002-91.png
9,602,1,1443459567361,1443459567758,984,339,0,0,0,4,3,1,43,0005-00-0009-64.png,0003-00-0004-40.png
9,603,1,1443459567794,1443459568606,334,384,0,0,0,1,2,1,12,0004-00-0001-71.png,0002-00-0001-29.png
9,604,1,1443459568642,1443459569429,977,284,0,0,0,2,1,1,21,0002-00-0002-26.png,0004-00-0003-11.png
9,605,0,1443459569455,1443459569922,1014,326,0,0,0,5,4,1,54,0001-00-0006-06.png,0005-00-0006-44.png
9,606,1,1443459569938,1443459570878,350,447,0,0,0,3,2,1,32,0003-00-0005-74.png,0002-00-0004-58.png
9,607,1,1443459570908,1443459571116,369,263,0,0,0,2,3,1,23,0002-00-0001-61.png,0003-00-0001-55.png
9,608,0,1443459571141,1443459574979,996,338,0,0,0,5,4,1,54,0001-00-0000-16.png,0005-00-0005-79.png
9,609,0,1443459575000,1443459576252,1008,293,0,0,0,2,1,1,21,0002-00-0007-36.png,0004-00-0004-18.png
9,610,1,1443459576273,1443459578356,1011,324,0,0,0,2,3,1,23,0002-00-0003-61.png,0003-00-0008-30.png
9,611,1,1443459578381,1443459578464,993,316,0,0,0,3,4,1,34,0003-00-0004-93.png,0005-00-0003-79.png
9,612,0,1443459578494,1443459578531,340,410,0,0,0,1,2,1,12,0004-00-0002-48.png,0002-00-0000-85.png
9,613,0,1443459578559,1443459578694,1059,298,0,0,0,5,4,1,54,0001-00-0000-26.png,0005-00-0001-32.png
9,614,1,1443459578725,1443459580712,1030,318,0,0,0,3,2,1,32,0003-00-0008-94.png,0002-00-0008-89.png
9,615,1,1443459580734,1443459580851,219,333,0,0,0,5,4,1,54,0001-00-0000-58.png,0005-00-0006-41.png
9,616,1,1443459580875,1443459583194,385,335,0,0,0,4,3,1,43,0005-00-0003-86.png,0003-00-0008-83.png
9,617,0,1443459583232,1443459583776,978,325,0,0,0,2,1,1,21,0002-00-0002-14.png,0004-00-0007-33.png
9,618,1,1443459583804,1443459584394,964,332,0,0,0,4,3,1,43,0005-00-0002-40.png,0003-00-0001-93.png
9,619,1,1443459584427,1443459584597,988,356,0,0,0,5,4,1,54,0001-00-0000-65.png,0005-00-0007-19.png
9,620,0,1443459584623,1443459584750,964,344,0,0,0,5,4,1,54,0001-00-0000-68.png,0005-00-0008-37.png
9,621,0,1443459584785,1443459584998,352,357,0,0,0,3,4,1,34,0003-00-0000-21.png,0005-00-0008-59.png
9,622,0,1443459585036,1443459585399,962,511,0,0,0,2,3,1,23,0002-00-0001-85.png,0003-00-0008-98.png
9,623,1,1443459585425,1443459585457,311,370,0,0,0,3,2,1,32,0003-00-0002-91.png,0002-00-0007-95.png
9,624,1,1443459585477,1443459585500,990,302,0,0,0,1,2,1,12,0004-00-0009-24.png,0002-00-0007-17.png
9,625,1,1443459585537,1443459585630,422,251,0,0,0,3,4,1,34,0003-00-0005-00.png,0005-00-0000-92.png
9,626,0,1443459585646,1443459586600,289,358,0,0,0,5,4,1,54,0001-00-0007-66.png,0005-00-0001-31.png
9,627,0,1443459586636,1443459587195,968,335,0,0,0,4,3,1,43,0005-00-0007-69.png,0003-00-0007-00.png
9,628,0,1443459587223,1443459587676,952,337,0,0,0,3,2,1,32,0003-00-0008-24.png,0002-00-0006-04.png
9,629,0,1443459587721,1443459587918,964,344,0,0,0,2,1,1,21,0002-00-0008-31.png,0004-00-0004-03.png
9,630,0,1443459587946,1443459588598,991,349,0,0,0,5,4,1,54,0001-00-0002-41.png,0005-00-0005-54.png
9,631,0,1443459588643,1443459589619,1061,351,0,0,0,1,2,1,12,0004-00-0004-28.png,0002-00-0003-21.png
9,632,1,1443459589640,1443459589853,961,334,0,0,0,2,3,1,23,0002-00-0005-48.png,0003-00-0000-26.png
9,633,1,1443459589881,1443459590851,966,349,0,0,0,5,4,1,54,0001-00-0004-53.png,0005-00-0003-86.png
9,634,1,1443459590873,1443459590891,989,334,0,0,0,1,2,1,12,0004-00-0009-29.png,0002-00-0004-42.png
9,635,1,1443459590946,1443459590978,1016,294,0,0,0,2,1,1,21,0002-00-0006-67.png,0004-00-0004-99.png
9,636,0,1443459591014,1443459591170,1017,348,0,0,0,3,2,1,32,0003-00-0007-91.png,0002-00-0006-37.png
9,637,1,1443459591198,1443459591386,313,337,0,0,0,4,3,1,43,0005-00-0003-55.png,0003-00-0000-15.png
9,638,0,1443459591432,1443459592309,990,346,0,0,0,2,3,1,23,0002-00-0003-26.png,0003-00-0000-30.png
9,639,0,1443459592356,1443459592920,284,377,0,0,0,3,4,1,34,0003-00-0005-17.png,0005-00-0001-18.png
9,640,1,1443459592957,1443459597151,310,387,0,0,0,5,4,1,54,0001-00-0005-94.png,0005-00-0002-01.png
9,641,0,1443459597177,1443459603325,337,275,0,0,0,3,4,1,34,0003-00-0002-64.png,0005-00-0004-53.png
9,642,1,1443459603345,1443459603763,986,508,0,0,0,4,3,1,43,0005-00-0006-12.png,0003-00-0005-86.png
9,643,1,1443459603790,1443459604324,1144,411,0,0,0,3,2,1,32,0003-00-0005-72.png,0002-00-0003-95.png
9,644,1,1443459604362,1443459607091,1011,302,0,0,0,5,4,1,54,0001-00-0003-83.png,0005-00-0000-95.png
9,645,0,1443459607122,1443459607757,315,387,0,0,0,5,4,1,54,0001-00-0008-17.png,0005-00-0001-52.png
9,646,1,1443459607787,1443459608259,364,253,0,0,0,2,3,1,23,0002-00-0000-10.png,0003-00-0000-23.png
9,647,0,1443459608286,1443459608460,375,333,0,0,0,2,1,1,21,0002-00-0003-00.png,0004-00-0009-69.png
9,648,0,1443459608487,1443459609253,1145,304,0,0,0,1,2,1,12,0004-00-0006-80.png,0002-00-0005-81.png
9,649,0,1443459609288,1443459609402,976,358,0,0,0,5,4,1,54,0001-00-0001-85.png,0005-00-0008-59.png
9,650,0,1443459609436,1443459609603,313,395,0,0,0,4,3,1,43,0005-00-0005-30.png,0003-00-0007-02.png
9,651,1,1443459609642,1443459609849,330,399,0,0,0,5,4,1,54,0001-00-0005-48.png,0005-00-0003-12.png
9,652,1,1443459609873,1443459609982,353,380,0,0,0,2,1,1,21,0002-00-0000-93.png,0004-00-0000-07.png
9,653,0,1443459610017,1443459612756,1200,341,0,0,0,3,4,1,34,0003-00-0001-17.png,0005-00-0001-17.png
9,654,1,1443459612787,1443459612958,945,320,0,0,0,2,3,1,23,0002-00-0005-49.png,0003-00-0001-62.png
9,655,0,1443459612977,1443459613202,978,339,0,0,0,3,2,1,32,0003-00-0003-96.png,0002-00-0003-86.png
9,656,1,1443459613229,1443459613747,1055,285,0,0,0,1,2,1,12,0004-00-0002-42.png,0002-00-0009-67.png
9,657,1,1443459613774,1443459616008,990,332,0,0,0,2,1,1,21,0002-00-0003-65.png,0004-00-0001-92.png
9,658,0,1443459616044,1443459616198,1092,306,0,0,0,5,4,1,54,0001-00-0007-25.png,0005-00-0000-06.png
9,659,1,1443459616219,1443459616574,315,364,0,0,0,2,3,1,23,0002-00-0003-68.png,0003-00-0005-00.png
9,660,1,1443459616610,1443459616853,1039,364,0,0,0,1,2,1,12,0004-00-0009-54.png,0002-00-0007-83.png
9,661,0,1443459616889,1443459616966,973,353,0,0,0,3,4,1,34,0003-00-0004-70.png,0005-00-0006-46.png
9,662,1,1443459616991,1443459617117,1067,437,0,0,0,5,4,1,54,0001-00-0003-15.png,0005-00-0004-55.png
9,663,0,1443459617157,1443459617423,332,378,0,0,0,4,3,1,43,0005-00-0003-04.png,0003-00-0000-13.png
9,664,0,1443459617453,1443459617757,954,373,0,0,0,3,2,1,32,0003-00-0002-16.png,0002-00-0002-61.png
9,665,1,1443459617787,1443459617955,297,347,0,0,0,3,4,1,34,0003-00-0006-51.png,0005-00-0004-78.png
9,666,0,1443459617984,1443459619053,933,367,0,0,0,1,2,1,12,0004-00-0002-91.png,0002-00-0001-30.png
9,667,1,1443459619082,1443459619251,1053,287,0,0,0,5,4,1,54,0001-00-0009-09.png,0005-00-0003-39.png
9,668,1,1443459619282,1443459619779,285,330,0,0,0,4,3,1,43,0005-00-0009-59.png,0003-00-0007-28.png
9,669,1,1443459619803,1443459620298,1092,331,0,0,0,2,1,1,21,0002-00-0003-27.png,0004-00-0002-81.png
9,670,1,1443459620324,1443459620512,370,346,0,0,0,5,4,1,54,0001-00-0002-80.png,0005-00-0002-57.png
9,671,1,1443459620540,1443459621056,1029,299,0,0,0,3,2,1,32,0003-00-0004-40.png,0002-00-0000-47.png
9,672,0,1443459621089,1443459621544,1005,309,0,0,0,2,3,1,23,0002-00-0005-69.png,0003-00-0002-96.png
9,673,0,1443459621585,1443459621728,331,313,0,0,0,3,4,1,34,0003-00-0008-23.png,0005-00-0006-71.png
9,674,0,1443459621750,1443459621910,296,347,0,0,0,1,2,1,12,0004-00-0005-61.png,0002-00-0006-18.png
9,675,0,1443459621930,1443459622392,344,342,0,0,0,5,4,1,54,0001-00-0009-54.png,0005-00-0004-77.png
9,676,0,1443459622410,1443459622455,1195,306,0,0,0,3,2,1,32,0003-00-0009-75.png,0002-00-0005-83.png
9,677,1,1443459622481,1443459622787,360,299,0,0,0,4,3,1,43,0005-00-0008-20.png,0003-00-0002-66.png
9,678,1,1443459622825,1443459625631,977,328,0,0,0,5,4,1,54,0001-00-0006-30.png,0005-00-0007-08.png
9,679,1,1443459625655,1443459625773,982,315,0,0,0,2,3,1,23,0002-00-0009-24.png,0003-00-0004-10.png
9,680,1,1443459625810,1443459643359,1002,327,0,0,0,2,1,1,21,0002-00-0000-53.png,0004-00-0001-60.png
9,681,0,1443459643390,1443459645437,359,352,0,0,0,5,4,1,54,0001-00-0009-47.png,0005-00-0003-93.png
9,682,1,1443459645486,1443459646685,978,321,0,0,0,3,2,1,32,0003-00-0009-89.png,0002-00-0004-86.png
9,683,1,1443459646710,1443459647921,1041,254,0,0,0,1,2,1,12,0004-00-0002-23.png,0002-00-0008-41.png
9,684,0,1443459647944,1443459652307,301,363,0,0,0,3,4,1,34,0003-00-0006-54.png,0005-00-0001-10.png
9,685,1,1443459652334,1443459653150,343,339,0,0,0,2,1,1,21,0002-00-0006-21.png,0004-00-0009-89.png
9,686,1,1443459653183,1443459658368,990,302,0,0,0,4,3,1,43,0005-00-0004-47.png,0003-00-0001-07.png
9,687,1,1443459658407,1443459658740,998,297,0,0,0,2,3,1,23,0002-00-0007-09.png,0003-00-0006-33.png
9,688,1,1443459658774,1443459659354,964,355,0,0,0,5,4,1,54,0001-00-0001-06.png,0005-00-0001-21.png
9,689,1,1443459659371,1443459659623,326,279,0,0,0,2,1,1,21,0002-00-0009-02.png,0004-00-0003-31.png
9,690,1,1443459659652,1443459660091,336,364,0,0,0,5,4,1,54,0001-00-0008-30.png,0005-00-0007-80.png
9,691,1,1443459660122,1443459667621,292,363,0,0,0,2,3,1,23,0002-00-0000-89.png,0003-00-0007-35.png
9,692,0,1443459667676,1443459671736,316,358,0,0,0,3,2,1,32,0003-00-0005-90.png,0002-00-0006-14.png
9,693,0,1443459671765,1443459672615,989,341,0,0,0,4,3,1,43,0005-00-0005-48.png,0003-00-0004-71.png
9,694,1,1443459672643,1443459672836,1092,268,0,0,0,1,2,1,12,0004-00-0008-73.png,0002-00-0002-96.png
9,695,1,1443459672854,1443459673479,954,343,0,0,0,5,4,1,54,0001-00-0003-05.png,0005-00-0002-67.png
9,696,1,1443459673513,1443459673662,1092,306,0,0,0,3,4,1,34,0003-00-0001-84.png,0005-00-0002-53.png
9,697,1,1443459673703,1443459673927,338,311,0,0,0,3,2,1,32,0003-00-0001-97.png,0002-00-0006-87.png
9,698,1,1443459673960,1443459674020,365,363,0,0,0,5,4,1,54,0001-00-0005-38.png,0005-00-0009-24.png
9,699,0,1443459674043,1443459674812,366,354,0,0,0,5,4,1,54,0001-00-0004-49.png,0005-00-0006-16.png
9,700,1,1443459674853,1443459674964,990,317,0,0,0,2,3,1,23,0002-00-0001-50.png,0003-00-0008-75.png
9,701,0,1443459674986,1443459675374,983,327,0,0,0,3,4,1,34,0003-00-0006-54.png,0005-00-0004-77.png
9,702,0,1443459675408,1443459675888,1009,291,0,0,0,1,2,1,12,0004-00-0004-56.png,0002-00-0001-74.png
9,703,1,1443459675917,1443459676322,1028,370,0,0,0,2,1,1,21,0002-00-0007-07.png,0004-00-0000-21.png
9,704,1,1443459676349,1443459677499,325,369,0,0,0,4,3,1,43,0005-00-0006-11.png,0003-00-0006-39.png
9,705,0,1443459677521,1443459677874,965,340,0,0,0,2,1,1,21,0002-00-0005-92.png,0004-00-0005-18.png
9,706,0,1443459677919,1443459678615,339,322,0,0,0,1,2,1,12,0004-00-0002-78.png,0002-00-0005-32.png
9,707,0,1443459678639,1443459678876,380,258,0,0,0,5,4,1,54,0001-00-0006-92.png,0005-00-0009-45.png
9,708,0,1443459678901,1443459679092,337,384,0,0,0,2,3,1,23,0002-00-0008-36.png,0003-00-0004-08.png
9,709,0,1443459679119,1443459679515,387,334,0,0,0,4,3,1,43,0005-00-0002-07.png,0003-00-0007-58.png
9,710,1,1443459679560,1443459680367,994,322,0,0,0,3,2,1,32,0003-00-0008-35.png,0002-00-0006-54.png
9,711,1,1443459680389,1443459683084,985,325,0,0,0,5,4,1,54,0001-00-0002-36.png,0005-00-0002-42.png
9,712,1,1443459683114,1443459688719,959,357,0,0,0,3,4,1,34,0003-00-0003-14.png,0005-00-0007-30.png
9,713,1,1443459688749,1443459688769,393,286,0,0,0,1,2,1,12,0004-00-0007-53.png,0002-00-0001-49.png
9,714,1,1443459688805,1443459688949,963,528,0,0,0,2,3,1,23,0002-00-0002-71.png,0003-00-0000-29.png
9,715,1,1443459688980,1443459689287,289,358,0,0,0,2,1,1,21,0002-00-0003-51.png,0004-00-0007-38.png
9,716,1,1443459689304,1443459689611,989,318,0,0,0,5,4,1,54,0001-00-0007-10.png,0005-00-0007-07.png
9,717,1,1443459689634,1443459695132,1020,339,0,0,0,5,4,1,54,0001-00-0008-00.png,0005-00-0008-17.png
9,718,0,1443459695162,1443459695861,973,347,0,0,0,3,4,1,34,0003-00-0006-74.png,0005-00-0001-53.png
9,719,1,1443459695888,1443459696090,319,369,0,0,0,3,2,1,32,0003-00-0003-34.png,0002-00-0004-41.png
9,720,1,1443459696125,1443459697161,1012,338,0,0,0,4,3,1,43,0005-00-0005-14.png,0003-00-0005-11.png
9,721,1,1443459697190,1443459697571,362,384,0,0,0,3,4,1,34,0003-00-0002-80.png,0005-00-0008-45.png
9,722,1,1443459697592,1443459698509,951,332,0,0,0,1,2,1,12,0004-00-0001-42.png,0002-00-0002-96.png
9,723,0,1443459698540,1443459698679,335,383,0,0,0,3,2,1,32,0003-00-0003-81.png,0002-00-0008-88.png
9,724,0,1443459698715,1443459699033,989,282,0,0,0,5,4,1,54,0001-00-0001-40.png,0005-00-0005-30.png
9,725,1,1443459699062,1443459704831,316,341,0,0,0,5,4,1,54,0001-00-0002-06.png,0005-00-0001-51.png
9,726,1,1443459704853,1443459705532,313,353,0,0,0,2,3,1,23,0002-00-0007-51.png,0003-00-0002-58.png
9,727,0,1443459705571,1443459705921,319,364,0,0,0,2,1,1,21,0002-00-0006-31.png,0004-00-0000-82.png
9,728,1,1443459705959,1443459706677,995,342,0,0,0,4,3,1,43,0005-00-0004-38.png,0003-00-0002-63.png
9,729,1,1443459706705,1443459707662,1067,237,0,0,0,5,4,1,54,0001-00-0009-19.png,0005-00-0000-04.png
9,730,0,1443459707692,1443459709359,331,370,0,0,0,3,4,1,34,0003-00-0003-85.png,0005-00-0007-79.png
9,731,1,1443459709385,1443459709459,358,347,0,0,0,2,3,1,23,0002-00-0005-79.png,0003-00-0008-76.png
9,732,0,1443459709503,1443459712407,1123,326,0,0,0,3,2,1,32,0003-00-0005-05.png,0002-00-0002-88.png
9,733,1,1443459712437,1443459715084,988,352,0,0,0,1,2,1,12,0004-00-0007-76.png,0002-00-0004-71.png
9,734,0,1443459715117,1443459717176,997,336,0,0,0,2,1,1,21,0002-00-0008-32.png,0004-00-0009-97.png
9,735,1,1443459717229,1443459717790,1018,313,0,0,0,5,4,1,54,0001-00-0008-50.png,0005-00-0001-59.png
9,736,1,1443459717817,1443459717848,311,381,0,0,0,4,3,1,43,0005-00-0004-63.png,0003-00-0000-07.png
9,737,1,1443459717878,1443459717900,991,333,0,0,0,3,4,1,34,0003-00-0009-74.png,0005-00-0000-68.png
9,738,1,1443459717933,1443459718270,1118,317,0,0,0,2,1,1,21,0002-00-0005-92.png,0004-00-0004-30.png
9,739,1,1443459718304,1443459719866,965,409,0,0,0,5,4,1,54,0001-00-0001-22.png,0005-00-0002-01.png
9,740,1,1443459719895,1443459720588,354,355,0,0,0,1,2,1,12,0004-00-0009-63.png,0002-00-0000-39.png
9,741,0,1443459720616,1443459722540,903,514,0,0,0,2,3,1,23,0002-00-0004-51.png,0003-00-0004-44.png
9,742,0,1443459722572,1443459722829,1041,317,0,0,0,4,3,1,43,0005-00-0003-53.png,0003-00-0006-27.png
9,743,1,1443459722857,1443459723448,1121,328,0,0,0,5,4,1,54,0001-00-0003-84.png,0005-00-0007-38.png
9,744,1,1443459723474,1443459723535,329,354,0,0,0,3,2,1,32,0003-00-0007-42.png,0002-00-0003-21.png
9,745,0,1443459723576,1443459723706,1039,306,0,0,0,5,4,1,54,0001-00-0009-77.png,0005-00-0001-40.png
9,746,0,1443459723737,1443459723811,919,267,0,0,0,4,3,1,43,0005-00-0002-90.png,0003-00-0009-94.png
9,747,0,1443459723851,1443459724039,350,306,0,0,0,1,2,1,12,0004-00-0002-18.png,0002-00-0009-47.png
9,748,1,1443459724058,1443459724525,995,375,0,0,0,2,1,1,21,0002-00-0004-15.png,0004-00-0006-88.png
9,749,0,1443459724550,1443459725284,1175,227,0,0,0,3,2,1,32,0003-00-0004-33.png,0002-00-0007-77.png
9,750,0,1443459725308,1443459726932,1105,420,0,0,0,5,4,1,54,0001-00-0001-24.png,0005-00-0004-85.png
9,751,0,1443459726972,1443459728199,401,306,0,0,0,2,3,1,23,0002-00-0008-18.png,0003-00-0001-16.png
9,752,1,1443459728225,1443459728558,975,359,0,0,0,3,4,1,34,0003-00-0006-12.png,0005-00-0003-77.png
9,753,1,1443459728591,1443459728723,1022,377,0,0,0,5,4,1,54,0001-00-0005-63.png,0005-00-0005-85.png
9,754,1,1443459728742,1443459729588,1032,317,0,0,0,4,3,1,43,0005-00-0006-26.png,0003-00-0008-75.png
9,755,1,1443459729622,1443459732064,320,431,0,0,0,5,4,1,54,0001-00-0008-81.png,0005-00-0000-56.png
9,756,1,1443459732085,1443459732402,362,354,0,0,0,3,4,1,34,0003-00-0009-37.png,0005-00-0003-16.png
9,757,0,1443459732432,1443459732460,985,332,0,0,0,1,2,1,12,0004-00-0001-15.png,0002-00-0000-89.png
9,758,1,1443459732484,1443459732992,952,501,0,0,0,2,1,1,21,0002-00-0008-78.png,0004-00-0005-51.png
9,759,0,1443459733027,1443459733073,965,330,0,0,0,3,2,1,32,0003-00-0003-60.png,0002-00-0006-71.png
9,760,1,1443459733095,1443459733486,1028,554,0,0,0,2,3,1,23,0002-00-0007-56.png,0003-00-0006-74.png
9,761,1,1443459733515,1443459733966,963,378,0,0,0,3,4,1,34,0003-00-0004-34.png,0005-00-0005-19.png
9,762,1,1443459733994,1443459734461,266,358,0,0,0,5,4,1,54,0001-00-0006-63.png,0005-00-0009-74.png
9,763,1,1443459734495,1443459734528,985,296,0,0,0,5,4,1,54,0001-00-0004-67.png,0005-00-0000-69.png
9,764,1,1443459734553,1443459735297,365,394,0,0,0,2,1,1,21,0002-00-0007-94.png,0004-00-0003-57.png
9,765,1,1443459735318,1443459735589,1038,270,0,0,0,3,2,1,32,0003-00-0009-97.png,0002-00-0006-89.png
9,766,1,1443459735619,1443459736036,1019,329,0,0,0,2,3,1,23,0002-00-0000-61.png,0003-00-0000-64.png
9,767,1,1443459736059,1443459736467,427,253,0,0,0,1,2,1,12,0004-00-0002-89.png,0002-00-0001-49.png
9,768,0,1443459736486,1443459736869,980,337,0,0,0,4,3,1,43,0005-00-0003-57.png,0003-00-0001-98.png
9,769,0,1443459736897,1443459736962,1072,236,0,0,0,2,1,1,21,0002-00-0001-41.png,0004-00-0000-96.png
9,770,0,1443459736987,1443459737366,997,302,0,0,0,4,3,1,43,0005-00-0001-85.png,0003-00-0008-84.png
9,771,1,1443459737395,1443459737790,968,382,0,0,0,3,4,1,34,0003-00-0006-61.png,0005-00-0007-53.png
9,772,1,1443459737811,1443459738137,968,326,0,0,0,5,4,1,54,0001-00-0004-74.png,0005-00-0003-46.png
9,773,0,1443459738156,1443459738284,352,353,0,0,0,1,2,1,12,0004-00-0005-83.png,0002-00-0005-25.png
9,774,0,1443459738322,1443459738825,335,306,0,0,0,2,3,1,23,0002-00-0004-72.png,0003-00-0001-39.png
9,775,0,1443459738847,1443459739136,1012,282,0,0,0,3,2,1,32,0003-00-0002-29.png,0002-00-0006-92.png
9,776,1,1443459739161,1443459739657,369,405,0,0,0,5,4,1,54,0001-00-0007-23.png,0005-00-0009-48.png
9,777,1,1443459739702,1443459739828,310,324,0,0,0,2,1,1,21,0002-00-0000-24.png,0004-00-0006-27.png
9,778,1,1443459739857,1443459741516,970,320,0,0,0,3,4,1,34,0003-00-0001-66.png,0005-00-0002-64.png
9,779,0,1443459741540,1443459741629,987,320,0,0,0,2,3,1,23,0002-00-0002-48.png,0003-00-0008-09.png
9,780,1,1443459741649,1443459742182,1020,298,0,0,0,3,2,1,32,0003-00-0007-16.png,0002-00-0005-47.png
9,781,0,1443459742207,1443459742256,336,384,0,0,0,5,4,1,54,0001-00-0007-28.png,0005-00-0002-65.png
9,782,1,1443459742294,1443459744721,962,358,0,0,0,5,4,1,54,0001-00-0009-83.png,0005-00-0002-39.png
9,783,1,1443459744752,1443459745159,1031,326,0,0,0,1,2,1,12,0004-00-0001-65.png,0002-00-0005-49.png
9,784,0,1443459745186,1443459746259,343,328,0,0,0,4,3,1,43,0005-00-0007-17.png,0003-00-0008-45.png
9,785,1,1443459746288,1443459746372,971,323,0,0,0,5,4,1,54,0001-00-0003-41.png,0005-00-0004-56.png
9,786,1,1443459746395,1443459747144,987,312,0,0,0,3,2,1,32,0003-00-0001-07.png,0002-00-0004-53.png
9,787,1,1443459747173,1443459747401,359,338,0,0,0,3,4,1,34,0003-00-0000-92.png,0005-00-0001-00.png
9,788,1,1443459747427,1443459747797,453,227,0,0,0,5,4,1,54,0001-00-0005-04.png,0005-00-0005-71.png
9,789,1,1443459747831,1443459748175,989,242,0,0,0,4,3,1,43,0005-00-0006-68.png,0003-00-0001-90.png
9,790,0,1443459748217,1443459748714,316,316,0,0,0,1,2,1,12,0004-00-0005-65.png,0002-00-0000-64.png
9,791,1,1443459748731,1443459749158,327,383,0,0,0,2,3,1,23,0002-00-0002-17.png,0003-00-0003-44.png
9,792,0,1443459749195,1443459749734,1032,319,0,0,0,2,1,1,21,0002-00-0007-93.png,0004-00-0008-20.png
9,793,1,1443459749760,1443459749975,362,340,0,0,0,5,4,1,54,0001-00-0002-29.png,0005-00-0004-53.png
9,794,0,1443459750000,1443459750234,401,325,0,0,0,3,4,1,34,0003-00-0003-90.png,0005-00-0000-63.png
9,795,1,1443459750265,1443459751996,335,358,0,0,0,2,3,1,23,0002-00-0000-75.png,0003-00-0005-41.png
9,796,1,1443459752031,1443459752106,986,308,0,0,0,5,4,1,54,0001-00-0006-45.png,0005-00-0008-88.png
9,797,1,1443459752144,1443459752421,1011,317,0,0,0,2,1,1,21,0002-00-0000-19.png,0004-00-0002-75.png
9,798,0,1443459752449,1443459753528,993,267,0,0,0,4,3,1,43,0005-00-0006-85.png,0003-00-0001-04.png
9,799,0,1443459753556,1443459753765,1016,295,0,0,0,1,2,1,12,0004-00-0005-56.png,0002-00-0003-46.png
9,800,0,1443459753785,1443459754091,990,514,0,0,0,3,2,1,32,0003-00-0000-12.png,0002-00-0004-46.png
9,801,0,1443459754125,1443459754452,325,384,0,0,0,2,1,1,21,0002-00-0002-53.png,0004-00-0009-99.png
9,802,0,1443459754476,1443459754596,361,337,0,0,0,2,3,1,23,0002-00-0008-57.png,0003-00-0009-96.png
9,803,1,1443459754618,1443459755037,1001,309,0,0,0,3,4,1,34,0003-00-0000-67.png,0005-00-0005-11.png
9,804,1,1443459755063,1443459755340,990,461,0,0,0,4,3,1,43,0005-00-0006-30.png,0003-00-0005-31.png
9,805,0,1443459755373,1443459755705,364,338,0,0,0,5,4,1,54,0001-00-0008-95.png,0005-00-0001-93.png
9,806,1,1443459755727,1443459755764,350,227,0,0,0,3,2,1,32,0003-00-0001-94.png,0002-00-0001-67.png
9,807,1,1443459755786,1443459755823,350,354,0,0,0,1,2,1,12,0004-00-0008-48.png,0002-00-0001-86.png
9,808,0,1443459755844,1443459756895,964,294,0,0,0,5,4,1,54,0001-00-0002-57.png,0005-00-0009-22.png
9,809,1,1443459756925,1443459757616,982,304,0,0,0,5,4,1,54,0001-00-0009-28.png,0005-00-0002-98.png
9,810,0,1443459757636,1443459758324,376,322,0,0,0,3,2,1,32,0003-00-0009-08.png,0002-00-0004-29.png
9,811,1,1443459758353,1443459758457,1025,271,0,0,0,2,1,1,21,0002-00-0000-60.png,0004-00-0006-45.png
9,812,0,1443459758478,1443459759182,1055,330,0,0,0,1,2,1,12,0004-00-0007-68.png,0002-00-0005-63.png
9,813,0,1443459759203,1443459759389,357,365,0,0,0,5,4,1,54,0001-00-0002-37.png,0005-00-0008-33.png
9,814,0,1443459759417,1443459762113,982,360,0,0,0,3,4,1,34,0003-00-0003-42.png,0005-00-0007-84.png
9,815,1,1443459762133,1443459762526,989,510,0,0,0,2,3,1,23,0002-00-0009-91.png,0003-00-0004-58.png
9,816,1,1443459762558,1443459762626,1064,315,0,0,0,4,3,1,43,0005-00-0001-29.png,0003-00-0003-66.png
9,817,1,1443459762648,1443459763479,947,480,0,0,0,3,4,1,34,0003-00-0007-67.png,0005-00-0003-47.png
9,818,0,1443459763513,1443459763725,350,386,0,0,0,4,3,1,43,0005-00-0005-14.png,0003-00-0008-15.png
9,819,1,1443459763768,1443459763854,368,360,0,0,0,5,4,1,54,0001-00-0001-44.png,0005-00-0008-17.png
9,820,1,1443459763888,1443459764248,922,506,0,0,0,1,2,1,12,0004-00-0008-48.png,0002-00-0006-45.png
9,821,0,1443459764272,1443459764414,1015,299,0,0,0,2,1,1,21,0002-00-0008-89.png,0004-00-0002-53.png
9,822,0,1443459764440,1443459766484,964,318,0,0,0,3,2,1,32,0003-00-0003-17.png,0002-00-0005-46.png
9,823,1,1443459766505,1443459767403,990,346,0,0,0,5,4,1,54,0001-00-0008-29.png,0005-00-0007-78.png
9,824,1,1443459767432,1443459768074,988,310,0,0,0,2,3,1,23,0002-00-0005-86.png,0003-00-0006-43.png
9,825,0,1443459768106,1443459768128,1011,319,0,0,0,3,4,1,34,0003-00-0006-73.png,0005-00-0005-43.png
9,826,1,1443459768151,1443459768569,289,358,0,0,0,3,2,1,32,0003-00-0007-29.png,0002-00-0006-32.png
9,827,1,1443459768598,1443459768689,1081,292,0,0,0,4,3,1,43,0005-00-0006-13.png,0003-00-0003-35.png
9,828,1,1443459768710,1443459781172,379,360,0,0,0,5,4,1,54,0001-00-0000-37.png,0005-00-0006-76.png
9,829,1,1443459781194,1443459782006,952,312,0,0,0,2,3,1,23,0002-00-0007-47.png,0003-00-0006-63.png
9,830,1,1443459782034,1443459782213,362,383,0,0,0,5,4,1,54,0001-00-0006-83.png,0005-00-0006-46.png
9,831,0,1443459782232,1443459782459,1179,228,0,0,0,1,2,1,12,0004-00-0004-48.png,0002-00-0002-07.png
9,832,0,1443459782490,1443459782510,1042,352,0,0,0,2,1,1,21,0002-00-0002-79.png,0004-00-0006-44.png
9,833,1,1443459782531,1443459782573,282,386,0,0,0,3,4,1,34,0003-00-0006-97.png,0005-00-0005-80.png
9,834,0,1443459782611,1443459783796,992,466,0,0,0,2,3,1,23,0002-00-0000-00.png,0003-00-0003-23.png
9,835,1,1443459783822,1443459783929,1013,332,0,0,0,3,2,1,32,0003-00-0007-20.png,0002-00-0006-70.png
9,836,0,1443459783960,1443459784049,1037,304,0,0,0,4,3,1,43,0005-00-0009-93.png,0003-00-0005-96.png
9,837,1,1443459784077,1443459784988,287,381,0,0,0,2,1,1,21,0002-00-0007-17.png,0004-00-0004-80.png
9,838,1,1443459785014,1443459787218,270,338,0,0,0,5,4,1,54,0001-00-0007-90.png,0005-00-0006-65.png
9,839,1,1443459787242,1443459788033,1102,279,0,0,0,1,2,1,12,0004-00-0005-85.png,0002-00-0008-64.png
9,840,0,1443459788078,1443459789107,263,332,0,0,0,5,4,1,54,0001-00-0006-44.png,0005-00-0000-25.png
9,841,1,1443459789146,1443459790358,249,395,0,0,0,2,3,1,23,0002-00-0006-20.png,0003-00-0001-82.png
9,842,0,1443459790385,1443459790636,324,328,0,0,0,5,4,1,54,0001-00-0002-96.png,0005-00-0003-51.png
9,843,0,1443459790664,1443459790837,366,391,0,0,0,5,4,1,54,0001-00-0002-69.png,0005-00-0007-20.png
9,844,1,1443459790860,1443459790935,324,228,0,0,0,1,2,1,12,0004-00-0008-13.png,0002-00-0009-72.png
9,845,0,1443459790965,1443459796361,1026,346,0,0,0,2,1,1,21,0002-00-0008-17.png,0004-00-0003-51.png
9,846,1,1443459796395,1443459796499,1007,321,0,0,0,3,4,1,34,0003-00-0001-21.png,0005-00-0008-23.png
9,847,1,1443459796522,1443459797483,949,488,0,0,0,4,3,1,43,0005-00-0001-32.png,0003-00-0007-27.png
9,848,1,1443459797502,1443459797799,1029,293,0,0,0,3,2,1,32,0003-00-0001-02.png,0002-00-0008-99.png
9,849,1,1443459797828,1443459798769,349,347,0,0,0,5,4,1,54,0001-00-0006-14.png,0005-00-0005-67.png
9,850,1,1443459798792,1443459799120,964,358,0,0,0,5,4,1,54,0001-00-0005-93.png,0005-00-0001-40.png
9,851,1,1443459799148,1443459799741,360,379,0,0,0,3,4,1,34,0003-00-0004-53.png,0005-00-0007-10.png
9,852,1,1443459799771,1443459800027,365,357,0,0,0,1,2,1,12,0004-00-0008-81.png,0002-00-0002-41.png
9,853,1,1443459800064,1443459800243,1014,321,0,0,0,3,2,1,32,0003-00-0006-63.png,0002-00-0000-72.png
9,854,1,1443459800267,1443459800345,305,333,0,0,0,2,3,1,23,0002-00-0003-05.png,0003-00-0002-62.png
9,855,1,1443459800363,1443459803470,1049,351,0,0,0,4,3,1,43,0005-00-0008-74.png,0003-00-0005-40.png
9,856,1,1443459803497,1443459803913,950,320,0,0,0,2,1,1,21,0002-00-0008-90.png,0004-00-0001-73.png
9,857,1,1443459803938,1443459804162,1039,298,0,0,0,2,3,1,23,0002-00-0009-99.png,0003-00-0001-08.png
9,858,0,1443459804179,1443459804354,328,348,0,0,0,5,4,1,54,0001-00-0008-88.png,0005-00-0009-88.png
9,859,1,1443459804392,1443459806385,290,328,0,0,0,1,2,1,12,0004-00-0006-24.png,0002-00-0009-32.png
9,860,1,1443459806415,1443459807023,1014,267,0,0,0,5,4,1,54,0001-00-0000-93.png,0005-00-0007-50.png
9,861,1,1443459807047,1443459807243,1106,271,0,0,0,3,2,1,32,0003-00-0005-19.png,0002-00-0003-99.png
9,862,1,1443459807266,1443459807476,1028,278,0,0,0,4,3,1,43,0005-00-0007-46.png,0003-00-0001-18.png
9,863,1,1443459807506,1443459808022,447,231,0,0,0,2,1,1,21,0002-00-0005-24.png,0004-00-0003-16.png
9,864,0,1443459808051,1443459808384,1091,305,0,0,0,3,4,1,34,0003-00-0000-24.png,0005-00-0006-43.png
9,865,1,1443459808409,1443459808473,1070,300,0,0,0,1,2,1,12,0004-00-0008-97.png,0002-00-0000-12.png
9,866,0,1443459808496,1443459808779,363,355,0,0,0,4,3,1,43,0005-00-0005-70.png,0003-00-0009-66.png
9,867,0,1443459808800,1443459808839,992,295,0,0,0,5,4,1,54,0001-00-0007-49.png,0005-00-0002-91.png
9,868,1,1443459808868,1443459809917,325,267,0,0,0,3,4,1,34,0003-00-0008-74.png,0005-00-0006-69.png
9,869,0,1443459809941,1443459810793,344,358,0,0,0,5,4,1,54,0001-00-0009-68.png,0005-00-0007-68.png
9,870,0,1443459810815,1443459810917,1005,308,0,0,0,2,1,1,21,0002-00-0009-48.png,0004-00-0007-75.png
9,871,0,1443459810948,1443459811075,1000,306,0,0,0,3,2,1,32,0003-00-0000-49.png,0002-00-0003-07.png
9,872,1,1443459811112,1443459811557,287,418,0,0,0,2,3,1,23,0002-00-0008-78.png,0003-00-0009-48.png
9,873,1,1443459811578,1443459811763,315,306,0,0,0,4,3,1,43,0005-00-0006-81.png,0003-00-0002-23.png
9,874,0,1443459811784,1443459813103,326,329,0,0,0,2,3,1,23,0002-00-0003-21.png,0003-00-0006-81.png
9,875,1,1443459813135,1443459813479,1114,298,0,0,0,5,4,1,54,0001-00-0001-96.png,0005-00-0001-22.png
9,876,1,1443459813508,1443459816315,364,329,0,0,0,5,4,1,54,0001-00-0004-36.png,0005-00-0009-63.png
9,877,1,1443459816335,1443459817622,362,350,0,0,0,1,2,1,12,0004-00-0007-34.png,0002-00-0005-23.png
9,878,1,1443459817657,1443459817695,1040,339,0,0,0,3,2,1,32,0003-00-0000-70.png,0002-00-0004-01.png
9,879,1,1443459817735,1443459817930,1037,328,0,0,0,3,4,1,34,0003-00-0008-21.png,0005-00-0001-11.png
9,880,1,1443459817957,1443459817992,369,390,0,0,0,2,1,1,21,0002-00-0006-01.png,0004-00-0008-56.png
9,881,0,1443459818018,1443459818105,292,338,0,0,0,2,3,1,23,0002-00-0000-89.png,0003-00-0008-41.png
9,882,1,1443459818133,1443459818341,1024,304,0,0,0,1,2,1,12,0004-00-0005-15.png,0002-00-0008-11.png
9,883,0,1443459818367,1443459820519,1069,312,0,0,0,2,1,1,21,0002-00-0007-50.png,0004-00-0006-35.png
9,884,0,1443459820550,1443459820646,360,347,0,0,0,3,4,1,34,0003-00-0008-83.png,0005-00-0005-49.png
9,885,1,1443459820685,1443459822997,341,342,0,0,0,3,2,1,32,0003-00-0004-59.png,0002-00-0005-11.png
9,886,1,1443459823033,1443459823347,1032,250,0,0,0,4,3,1,43,0005-00-0001-38.png,0003-00-0006-25.png
9,887,0,1443459823378,1443459833267,1195,369,0,0,0,5,4,1,54,0001-00-0004-06.png,0005-00-0009-56.png
9,888,1,1443459833299,1443459834470,1062,305,0,0,0,5,4,1,54,0001-00-0008-99.png,0005-00-0004-55.png
9,889,1,1443459834492,1443459847448,1040,285,0,0,0,2,3,1,23,0002-00-0009-34.png,0003-00-0000-17.png
9,890,1,1443459847475,1443459851332,1067,266,0,0,0,5,4,1,54,0001-00-0004-70.png,0005-00-0006-79.png
9,891,0,1443459851353,1443459852465,315,338,0,0,0,3,2,1,32,0003-00-0007-75.png,0002-00-0009-02.png
9,892,1,1443459852496,1443459854513,387,332,0,0,0,5,4,1,54,0001-00-0003-87.png,0005-00-0004-28.png
9,893,1,1443459854546,1443459855336,342,316,0,0,0,1,2,1,12,0004-00-0008-38.png,0002-00-0004-39.png
9,894,0,1443459855367,1443459855419,1009,334,0,0,0,3,4,1,34,0003-00-0004-91.png,0005-00-0007-24.png
9,895,1,1443459855448,1443459859322,1018,318,0,0,0,2,1,1,21,0002-00-0001-66.png,0004-00-0002-35.png
9,896,0,1443459859352,1443459860810,1038,298,0,0,0,4,3,1,43,0005-00-0002-40.png,0003-00-0000-06.png
9,897,1,1443459860838,1443459863149,1055,288,0,0,0,5,4,1,54,0001-00-0007-71.png,0005-00-0008-31.png
9,898,1,1443459863184,1443459864236,1039,270,0,0,0,2,1,1,21,0002-00-0007-81.png,0004-00-0008-98.png
9,899,0,1443459864289,1443459864511,361,326,0,0,0,5,4,1,54,0001-00-0000-08.png,0005-00-0008-00.png
9,900,1,1443459864542,1443459864657,962,305,0,0,0,1,2,1,12,0004-00-0004-85.png,0002-00-0009-32.png
9,901,1,1443459864678,1443459865276,1024,290,0,0,0,4,3,1,43,0005-00-0005-48.png,0003-00-0006-40.png
9,902,1,1443459865298,1443459865336,1061,320,0,0,0,3,2,1,32,0003-00-0007-00.png,0002-00-0007-34.png
9,903,1,1443459865369,1443459866707,1030,289,0,0,0,3,4,1,34,0003-00-0001-43.png,0005-00-0001-69.png
9,904,1,1443459866724,1443459867186,239,267,0,0,0,2,3,1,23,0002-00-0004-22.png,0003-00-0009-63.png
9,905,1,1443459867205,1443459867385,981,305,0,0,0,3,4,1,34,0003-00-0009-74.png,0005-00-0003-48.png
9,906,1,1443459867406,1443459867689,339,335,0,0,0,4,3,1,43,0005-00-0003-15.png,0003-00-0003-37.png
9,907,0,1443459867718,1443459868139,478,265,0,0,0,2,1,1,21,0002-00-0005-55.png,0004-00-0003-64.png
9,908,1,1443459868162,1443459868234,1070,328,0,0,0,3,2,1,32,0003-00-0004-06.png,0002-00-0005-84.png
9,909,0,1443459868250,1443459868277,241,279,0,0,0,5,4,1,54,0001-00-0005-68.png,0005-00-0004-35.png
9,910,0,1443459868313,1443459868781,1041,314,0,0,0,1,2,1,12,0004-00-0008-08.png,0002-00-0005-97.png
9,911,0,1443459868808,1443459870080,1095,291,0,0,0,5,4,1,54,0001-00-0000-39.png,0005-00-0009-40.png
9,912,1,1443459870133,1443459870358,1059,323,0,0,0,2,3,1,23,0002-00-0002-76.png,0003-00-0002-71.png
9,913,1,1443459870384,1443459870640,317,298,0,0,0,1,2,1,12,0004-00-0009-85.png,0002-00-0000-13.png
9,914,1,1443459870659,1443459871625,1035,299,0,0,0,4,3,1,43,0005-00-0001-14.png,0003-00-0005-20.png
9,915,0,1443459871649,1443459876398,1012,303,0,0,0,3,2,1,32,0003-00-0009-62.png,0002-00-0008-52.png
9,916,0,1443459876419,1443459877327,1010,293,0,0,0,5,4,1,54,0001-00-0008-38.png,0005-00-0003-17.png
9,917,1,1443459877360,1443459877919,357,350,0,0,0,5,4,1,54,0001-00-0007-78.png,0005-00-0008-22.png
9,918,0,1443459877955,1443459878371,521,266,0,0,0,2,3,1,23,0002-00-0001-27.png,0003-00-0002-63.png
9,919,1,1443459878393,1443459879363,1119,277,0,0,0,2,1,1,21,0002-00-0005-26.png,0004-00-0000-84.png
9,920,1,1443459879386,1443459879559,334,355,0,0,0,3,4,1,34,0003-00-0006-64.png,0005-00-0009-26.png
9,921,1,1443459879578,1443459879798,346,347,0,0,0,4,3,1,43,0005-00-0005-68.png,0003-00-0002-42.png
9,922,1,1443459879852,1443459880197,1004,327,0,0,0,2,1,1,21,0002-00-0001-19.png,0004-00-0001-01.png
9,923,1,1443459880228,1443459880643,1043,299,0,0,0,3,2,1,32,0003-00-0003-13.png,0002-00-0001-64.png
9,924,0,1443459880678,1443459884047,331,343,0,0,0,3,4,1,34,0003-00-0005-96.png,0005-00-0008-93.png
9,925,1,1443459884076,1443459884425,357,358,0,0,0,1,2,1,12,0004-00-0000-95.png,0002-00-0005-98.png
9,926,1,1443459884454,1443459885245,337,345,0,0,0,2,3,1,23,0002-00-0003-94.png,0003-00-0006-56.png
9,927,1,1443459885272,1443459885663,1014,303,0,0,0,5,4,1,54,0001-00-0009-41.png,0005-00-0007-55.png
9,928,1,1443459885686,1443459886148,1029,325,0,0,0,5,4,1,54,0001-00-0005-28.png,0005-00-0006-56.png
9,929,0,1443459886179,1443459886479,404,329,0,0,0,2,1,1,21,0002-00-0005-95.png,0004-00-0000-82.png
9,930,1,1443459886517,1443459886925,1030,332,0,0,0,3,4,1,34,0003-00-0004-08.png,0005-00-0009-09.png
9,931,0,1443459886960,1443459887545,427,279,0,0,0,3,2,1,32,0003-00-0000-62.png,0002-00-0003-88.png
9,932,0,1443459887580,1443459889829,1015,317,0,0,0,5,4,1,54,0001-00-0003-50.png,0005-00-0005-77.png
9,933,1,1443459889851,1443459890428,358,348,0,0,0,5,4,1,54,0001-00-0006-01.png,0005-00-0008-41.png
9,934,1,1443459890464,1443459890776,364,352,0,0,0,4,3,1,43,0005-00-0009-06.png,0003-00-0009-19.png
9,935,1,1443459890798,1443459891273,358,339,0,0,0,1,2,1,12,0004-00-0003-47.png,0002-00-0006-41.png
9,936,1,1443459891298,1443459891383,337,331,0,0,0,2,3,1,23,0002-00-0009-17.png,0003-00-0009-57.png
9,937,1,1443459891400,1443459891482,1009,351,0,0,0,5,4,1,54,0001-00-0005-40.png,0005-00-0009-29.png
9,938,0,1443459891514,1443459896509,1003,314,0,0,0,2,3,1,23,0002-00-0005-41.png,0003-00-0008-75.png
9,939,1,1443459896543,1443459897094,1043,323,0,0,0,5,4,1,54,0001-00-0001-80.png,0005-00-0009-29.png
9,940,1,1443459897143,1443459898164,314,320,0,0,0,3,4,1,34,0003-00-0007-11.png,0005-00-0009-35.png
9,941,1,1443459898188,1443459898381,1017,323,0,0,0,4,3,1,43,0005-00-0002-17.png,0003-00-0009-01.png
9,942,1,1443459898404,1443459898723,383,333,0,0,0,3,2,1,32,0003-00-0002-59.png,0002-00-0007-01.png
9,943,0,1443459898755,1443459900388,354,299,0,0,0,2,1,1,21,0002-00-0009-66.png,0004-00-0001-09.png
9,944,1,1443459900415,1443459900550,327,410,0,0,0,1,2,1,12,0004-00-0009-30.png,0002-00-0000-70.png
9,945,0,1443459900587,1443459900663,373,331,0,0,0,5,4,1,54,0001-00-0004-62.png,0005-00-0004-16.png
9,946,0,1443459900694,1443459901869,347,362,0,0,0,3,4,1,34,0003-00-0009-34.png,0005-00-0004-12.png
9,947,0,1443459901895,1443459902193,360,384,0,0,0,2,1,1,21,0002-00-0001-41.png,0004-00-0005-85.png
9,948,1,1443459902224,1443459903195,1010,317,0,0,0,3,2,1,32,0003-00-0002-24.png,0002-00-0004-22.png
9,949,1,1443459903222,1443459903543,1036,316,0,0,0,4,3,1,43,0005-00-0007-52.png,0003-00-0001-44.png
9,950,0,1443459903562,1443459904066,976,328,0,0,0,5,4,1,54,0001-00-0009-84.png,0005-00-0000-17.png
9,951,0,1443459904091,1443459904521,1000,290,0,0,0,2,3,1,23,0002-00-0001-57.png,0003-00-0001-17.png
9,952,0,1443459904538,1443459905336,360,306,0,0,0,1,2,1,12,0004-00-0008-04.png,0002-00-0008-40.png
9,953,0,1443459905368,1443459905674,346,320,0,0,0,2,3,1,23,0002-00-0008-16.png,0003-00-0004-35.png
9,954,1,1443459905698,1443459906437,1043,304,0,0,0,5,4,1,54,0001-00-0002-20.png,0005-00-0009-97.png
9,955,1,1443459906477,1443459906981,339,337,0,0,0,5,4,1,54,0001-00-0005-09.png,0005-00-0004-87.png
9,956,0,1443459907003,1443459907335,360,326,0,0,0,4,3,1,43,0005-00-0005-69.png,0003-00-0003-00.png
9,957,1,1443459907363,1443459908012,337,354,0,0,0,3,4,1,34,0003-00-0003-23.png,0005-00-0006-54.png
9,958,1,1443459908046,1443459908489,1029,312,0,0,0,3,2,1,32,0003-00-0006-89.png,0002-00-0008-59.png
9,959,1,1443459908521,1443459910419,939,417,0,0,0,1,2,1,12,0004-00-0003-19.png,0002-00-0002-31.png
9,960,1,1443459910442,1443459913948,1020,277,0,0,0,2,1,1,21,0002-00-0007-52.png,0004-00-0008-07.png
9,961,1,1443459913990,1443459914587,359,343,0,0,0,4,3,1,43,0005-00-0007-01.png,0003-00-0001-30.png
9,962,1,1443459914611,1443459915638,1020,327,0,0,0,2,1,1,21,0002-00-0005-28.png,0004-00-0001-07.png
9,963,0,1443459915676,1443459915833,1006,315,0,0,0,3,2,1,32,0003-00-0000-60.png,0002-00-0008-95.png
9,964,1,1443459915852,1443459916593,1089,283,0,0,0,2,3,1,23,0002-00-0002-58.png,0003-00-0009-67.png
9,965,1,1443459916624,1443459925099,379,376,0,0,0,5,4,1,54,0001-00-0005-57.png,0005-00-0008-95.png
9,966,1,1443459925122,1443459925408,1026,302,0,0,0,1,2,1,12,0004-00-0009-11.png,0002-00-0000-68.png
9,967,0,1443459925432,1443459925632,365,328,0,0,0,3,4,1,34,0003-00-0008-47.png,0005-00-0008-94.png
9,968,0,1443459925679,1443459926233,1019,315,0,0,0,5,4,1,54,0001-00-0008-72.png,0005-00-0004-10.png
9,969,1,1443459926261,1443459926455,1007,318,0,0,0,4,3,1,43,0005-00-0006-79.png,0003-00-0008-08.png
9,970,1,1443459926486,1443459926550,356,314,0,0,0,3,2,1,32,0003-00-0006-21.png,0002-00-0002-62.png
9,971,0,1443459926594,1443459926687,1008,294,0,0,0,1,2,1,12,0004-00-0002-26.png,0002-00-0006-69.png
9,972,1,1443459926718,1443459927111,504,227,0,0,0,3,4,1,34,0003-00-0000-31.png,0005-00-0004-83.png
9,973,0,1443459927132,1443459927333,1041,318,0,0,0,2,1,1,21,0002-00-0005-63.png,0004-00-0001-08.png
9,974,1,1443459927367,1443459928433,519,334,0,0,0,2,3,1,23,0002-00-0000-90.png,0003-00-0002-92.png
9,975,1,1443459928455,1443459929457,1088,283,0,0,0,5,4,1,54,0001-00-0004-23.png,0005-00-0002-00.png
9,976,1,1443459929491,1443459930226,387,310,0,0,0,5,4,1,54,0001-00-0004-53.png,0005-00-0001-33.png
9,977,0,1443459930249,1443459930558,1042,303,0,0,0,5,4,1,54,0001-00-0006-22.png,0005-00-0003-08.png
9,978,1,1443459930584,1443459930805,377,355,0,0,0,3,4,1,34,0003-00-0007-45.png,0005-00-0007-71.png
9,979,0,1443459930824,1443459930989,1097,289,0,0,0,2,3,1,23,0002-00-0003-72.png,0003-00-0002-38.png
9,980,0,1443459931031,1443459931120,363,336,0,0,0,4,3,1,43,0005-00-0001-91.png,0003-00-0007-47.png
9,981,1,1443459931147,1443459936493,974,323,0,0,0,1,2,1,12,0004-00-0002-45.png,0002-00-0002-92.png
9,982,1,1443459936527,1443459936601,307,277,0,0,0,3,2,1,32,0003-00-0003-62.png,0002-00-0008-93.png
9,983,1,1443459936628,1443459936965,380,314,0,0,0,2,1,1,21,0002-00-0001-26.png,0004-00-0007-56.png
9,984,0,1443459936993,1443459937352,379,305,0,0,0,5,4,1,54,0001-00-0003-24.png,0005-00-0000-62.png
9,985,1,1443459937395,1443459937500,986,347,0,0,0,1,2,1,12,0004-00-0000-11.png,0002-00-0008-88.png
9,986,1,1443459937525,1443459937733,1070,281,0,0,0,3,2,1,32,0003-00-0000-63.png,0002-00-0008-01.png
9,987,0,1443459937766,1443459937869,972,505,0,0,0,2,3,1,23,0002-00-0009-54.png,0003-00-0005-14.png
9,988,1,1443459937895,1443459940111,1019,287,0,0,0,5,4,1,54,0001-00-0008-82.png,0005-00-0004-77.png
9,989,0,1443459940138,1443459940884,1008,315,0,0,0,4,3,1,43,0005-00-0009-31.png,0003-00-0005-59.png
9,990,1,1443459940911,1443459941760,359,300,0,0,0,5,4,1,54,0001-00-0009-11.png,0005-00-0008-32.png
9,991,1,1443459941780,1443459941943,387,309,0,0,0,2,1,1,21,0002-00-0001-41.png,0004-00-0000-38.png
9,992,0,1443459941967,1443459942096,389,305,0,0,0,3,4,1,34,0003-00-0007-42.png,0005-00-0003-58.png
9,993,0,1443459942127,1443459942262,367,333,0,0,0,5,4,1,54,0001-00-0006-94.png,0005-00-0006-90.png
9,994,1,1443459942303,1443459942402,1012,306,0,0,0,4,3,1,43,0005-00-0001-21.png,0003-00-0002-64.png
9,995,1,1443459942431,1443459942523,308,304,0,0,0,3,4,1,34,0003-00-0005-16.png,0005-00-0004-06.png
9,996,0,1443459942560,1443459942618,1028,290,0,0,0,1,2,1,12,0004-00-0001-53.png,0002-00-0008-53.png
