subject_id,trial,correct_response,stim_time,response_time,x_coord,y_coord,trial_timeout,timeout_time,interTrial_timeout,left_rank,right_rank,distance,joint_rank,left_image,right_image
14,1,1,1444663560025,1444663560470,945,490,0,0,0,5,4,1,54,0001-00-0003-13.png,0005-00-0007-26.png
14,2,0,1444663560490,1444663560760,948,471,0,0,0,1,2,1,12,0004-00-0003-92.png,0002-00-0004-76.png
14,3,0,1444663560808,1444663561079,376,475,0,0,0,3,2,1,32,0003-00-0009-80.png,0002-00-0005-14.png
14,4,0,1444663561106,1444663562412,977,410,0,0,0,5,4,1,54,0001-00-0001-49.png,0005-00-0002-96.png
14,5,0,1444663562432,1444663562713,356,384,0,0,0,4,3,1,43,0005-00-0004-99.png,0003-00-0000-74.png
14,6,0,1444663562757,1444663563117,903,418,0,0,0,2,1,1,21,0002-00-0001-72.png,0004-00-0009-58.png
14,7,1,1444663563143,1444663563623,975,463,0,0,0,2,3,1,23,0002-00-0000-73.png,0003-00-0001-34.png
14,8,0,1444663563645,1444663565096,408,463,0,0,0,3,4,1,34,0003-00-0004-93.png,0005-00-0008-04.png
14,9,0,1444663565146,1444663565773,948,471,0,0,0,3,4,1,34,0003-00-0007-96.png,0005-00-0007-11.png
14,10,0,1444663565802,1444663566057,356,377,0,0,0,5,4,1,54,0001-00-0007-04.png,0005-00-0007-48.png
14,11,0,1444663566085,1444663566400,966,391,0,0,0,5,4,1,54,0001-00-0006-73.png,0005-00-0002-62.png
14,12,0,1444663566428,1444663566874,974,410,0,0,0,3,2,1,32,0003-00-0009-18.png,0002-00-0001-69.png
14,13,1,1444663566890,1444663567655,947,415,0,0,0,2,1,1,21,0002-00-0000-18.png,0004-00-0003-28.png
14,14,1,1444663567678,1444663568527,1003,383,0,0,0,4,3,1,43,0005-00-0009-16.png,0003-00-0009-83.png
14,15,0,1444663568563,1444663569707,261,421,0,0,0,1,2,1,12,0004-00-0008-23.png,0002-00-0005-02.png
14,16,0,1444663569729,1444663570834,345,385,0,0,0,2,3,1,23,0002-00-0004-40.png,0003-00-0006-62.png
14,17,0,1444663570870,1444663571172,975,414,0,0,0,4,3,1,43,0005-00-0001-66.png,0003-00-0003-01.png
14,18,1,1444663571195,1444663571575,914,447,0,0,0,3,4,1,34,0003-00-0008-53.png,0005-00-0005-11.png
14,19,0,1444663571610,1444663571800,937,439,0,0,0,5,4,1,54,0001-00-0009-27.png,0005-00-0009-04.png
14,20,1,1444663571833,1444663572171,952,449,0,0,0,1,2,1,12,0004-00-0005-24.png,0002-00-0007-93.png
14,21,0,1444663572202,1444663572804,315,391,0,0,0,2,1,1,21,0002-00-0003-25.png,0004-00-0007-85.png
14,22,0,1444663572840,1444663573430,382,487,0,0,0,2,3,1,23,0002-00-0004-22.png,0003-00-0005-48.png
14,23,0,1444663573468,1444663574461,386,475,0,0,0,5,4,1,54,0001-00-0000-15.png,0005-00-0005-84.png
14,24,1,1444663574494,1444663575034,314,345,0,0,0,3,2,1,32,0003-00-0004-69.png,0002-00-0004-36.png
14,25,0,1444663575053,1444663575576,299,397,0,0,0,3,4,1,34,0003-00-0006-45.png,0005-00-0006-35.png
14,26,1,1444663575614,1444663576132,925,439,0,0,0,5,4,1,54,0001-00-0004-76.png,0005-00-0004-07.png
14,27,0,1444663576153,1444663576845,927,450,0,0,0,3,2,1,32,0003-00-0001-90.png,0002-00-0008-62.png
14,28,0,1444663576874,1444663577117,311,371,0,0,0,2,1,1,21,0002-00-0001-89.png,0004-00-0008-38.png
14,29,0,1444663577158,1444663577491,316,399,0,0,0,2,3,1,23,0002-00-0000-17.png,0003-00-0004-17.png
14,30,1,1444663577521,1444663578512,955,363,0,0,0,4,3,1,43,0005-00-0009-99.png,0003-00-0009-67.png
14,31,1,1444663578541,1444663579444,949,408,0,0,0,5,4,1,54,0001-00-0000-13.png,0005-00-0009-17.png
14,32,1,1444663579472,1444663580039,314,390,0,0,0,1,2,1,12,0004-00-0002-95.png,0002-00-0007-90.png
14,33,1,1444663580071,1444663580278,323,414,0,0,0,5,4,1,54,0001-00-0009-65.png,0005-00-0006-48.png
14,34,1,1444663580302,1444663580564,376,384,0,0,0,2,1,1,21,0002-00-0000-50.png,0004-00-0008-25.png
14,35,1,1444663580600,1444663580956,299,382,0,0,0,2,3,1,23,0002-00-0008-21.png,0003-00-0008-47.png
14,36,1,1444663580990,1444663581366,427,468,0,0,0,3,4,1,34,0003-00-0003-87.png,0005-00-0005-96.png
14,37,1,1444663581392,1444663581908,345,425,0,0,0,4,3,1,43,0005-00-0001-62.png,0003-00-0002-01.png
14,38,0,1444663581960,1444663582255,916,436,0,0,0,5,4,1,54,0001-00-0004-72.png,0005-00-0007-08.png
14,39,1,1444663582300,1444663582689,376,396,0,0,0,1,2,1,12,0004-00-0005-02.png,0002-00-0009-91.png
14,40,0,1444663582723,1444663583261,951,367,0,0,0,3,2,1,32,0003-00-0001-70.png,0002-00-0008-41.png
14,41,1,1444663583287,1444663584624,299,395,0,0,0,3,2,1,32,0003-00-0005-99.png,0002-00-0002-84.png
14,42,0,1444663584654,1444663585002,337,394,0,0,0,2,1,1,21,0002-00-0006-16.png,0004-00-0002-44.png
14,43,0,1444663585025,1444663585428,383,393,0,0,0,5,4,1,54,0001-00-0004-63.png,0005-00-0002-50.png
14,44,1,1444663585455,1444663585861,970,376,0,0,0,4,3,1,43,0005-00-0007-75.png,0003-00-0000-73.png
14,45,1,1444663585879,1444663586517,956,349,0,0,0,1,2,1,12,0004-00-0007-37.png,0002-00-0005-74.png
14,46,1,1444663586556,1444663586778,383,393,0,0,0,2,3,1,23,0002-00-0009-30.png,0003-00-0009-94.png
14,47,1,1444663586810,1444663587103,952,383,0,0,0,5,4,1,54,0001-00-0007-30.png,0005-00-0005-13.png
14,48,1,1444663587127,1444663587566,900,346,0,0,0,3,4,1,34,0003-00-0005-03.png,0005-00-0007-32.png
14,49,0,1444663587599,1444663588334,376,423,0,0,0,3,2,1,32,0003-00-0008-75.png,0002-00-0009-04.png
14,50,0,1444663588360,1444663588663,949,379,0,0,0,2,3,1,23,0002-00-0004-86.png,0003-00-0004-07.png
14,51,1,1444663588688,1444663589574,353,388,0,0,0,5,4,1,54,0001-00-0002-09.png,0005-00-0005-91.png
14,52,0,1444663589603,1444663589912,350,412,0,0,0,4,3,1,43,0005-00-0001-36.png,0003-00-0001-95.png
14,53,0,1444663589946,1444663590604,925,360,0,0,0,1,2,1,12,0004-00-0000-87.png,0002-00-0009-62.png
14,54,0,1444663590648,1444663591132,946,382,0,0,0,3,4,1,34,0003-00-0006-34.png,0005-00-0009-66.png
14,55,1,1444663591162,1444663591450,888,350,0,0,0,2,1,1,21,0002-00-0002-68.png,0004-00-0007-24.png
14,56,0,1444663591472,1444663592137,952,397,0,0,0,5,4,1,54,0001-00-0008-82.png,0005-00-0001-77.png
14,57,0,1444663592158,1444663592373,953,389,0,0,0,3,4,1,34,0003-00-0006-81.png,0005-00-0002-60.png
14,58,1,1444663592406,1444663592606,944,373,0,0,0,5,4,1,54,0001-00-0007-79.png,0005-00-0004-67.png
14,59,1,1444663592639,1444663593253,356,385,0,0,0,5,4,1,54,0001-00-0003-52.png,0005-00-0009-69.png
14,60,1,1444663593290,1444663594007,959,358,0,0,0,3,2,1,32,0003-00-0000-35.png,0002-00-0004-06.png
14,61,1,1444663594048,1444663594456,350,397,0,0,0,2,1,1,21,0002-00-0003-73.png,0004-00-0005-37.png
14,62,0,1444663594486,1444663594637,908,475,0,0,0,2,3,1,23,0002-00-0005-53.png,0003-00-0009-46.png
14,63,1,1444663594669,1444663594957,306,406,0,0,0,4,3,1,43,0005-00-0001-04.png,0003-00-0003-54.png
14,64,1,1444663594982,1444663595391,312,421,0,0,0,1,2,1,12,0004-00-0002-73.png,0002-00-0005-42.png
14,65,1,1444663595423,1444663595695,894,457,0,0,0,5,4,1,54,0001-00-0005-06.png,0005-00-0004-64.png
14,66,1,1444663595716,1444663595968,273,397,0,0,0,4,3,1,43,0005-00-0000-32.png,0003-00-0001-87.png
14,67,1,1444663595990,1444663596480,955,394,0,0,0,3,2,1,32,0003-00-0005-55.png,0002-00-0004-11.png
14,68,0,1444663596512,1444663597097,875,353,0,0,0,2,3,1,23,0002-00-0004-78.png,0003-00-0007-05.png
14,69,1,1444663597120,1444663597334,308,415,0,0,0,1,2,1,12,0004-00-0006-08.png,0002-00-0003-51.png
14,70,1,1444663597368,1444663597701,286,372,0,0,0,3,4,1,34,0003-00-0002-07.png,0005-00-0003-35.png
14,71,0,1444663597731,1444663597898,900,473,0,0,0,2,1,1,21,0002-00-0009-31.png,0004-00-0005-16.png
14,72,1,1444663597923,1444663598213,396,391,0,0,0,5,4,1,54,0001-00-0009-78.png,0005-00-0001-59.png
14,73,0,1444663598236,1444663598416,947,373,0,0,0,3,4,1,34,0003-00-0008-61.png,0005-00-0005-03.png
14,74,0,1444663598443,1444663598923,939,371,0,0,0,5,4,1,54,0001-00-0003-02.png,0005-00-0001-91.png
14,75,0,1444663598955,1444663599500,350,384,0,0,0,4,3,1,43,0005-00-0000-23.png,0003-00-0003-73.png
14,76,0,1444663599537,1444663599874,938,371,0,0,0,2,1,1,21,0002-00-0000-17.png,0004-00-0007-28.png
14,77,1,1444663599895,1444663600791,288,414,0,0,0,5,4,1,54,0001-00-0000-56.png,0005-00-0004-42.png
14,78,1,1444663600817,1444663601617,923,457,0,0,0,2,3,1,23,0002-00-0002-76.png,0003-00-0009-98.png
14,79,1,1444663601651,1444663602166,345,506,0,0,0,3,2,1,32,0003-00-0006-72.png,0002-00-0004-21.png
14,80,1,1444663602206,1444663602427,875,345,0,0,0,1,2,1,12,0004-00-0000-55.png,0002-00-0000-91.png
14,81,0,1444663602457,1444663603084,355,429,0,0,0,5,4,1,54,0001-00-0006-11.png,0005-00-0008-66.png
14,82,1,1444663603119,1444663603746,875,371,0,0,0,2,3,1,23,0002-00-0009-33.png,0003-00-0003-99.png
14,83,0,1444663603776,1444663604501,964,391,0,0,0,4,3,1,43,0005-00-0009-85.png,0003-00-0006-76.png
14,84,1,1444663604532,1444663604713,936,393,0,0,0,1,2,1,12,0004-00-0003-84.png,0002-00-0003-14.png
14,85,1,1444663604733,1444663604823,345,399,0,0,0,2,1,1,21,0002-00-0008-34.png,0004-00-0005-99.png
14,86,1,1444663604855,1444663605240,312,400,0,0,0,3,4,1,34,0003-00-0003-56.png,0005-00-0005-50.png
14,87,0,1444663605262,1444663605620,916,379,0,0,0,3,2,1,32,0003-00-0001-98.png,0002-00-0007-34.png
14,88,0,1444663605671,1444663606034,393,427,0,0,0,5,4,1,54,0001-00-0004-40.png,0005-00-0005-60.png
14,89,1,1444663606060,1444663606541,887,476,0,0,0,5,4,1,54,0001-00-0005-49.png,0005-00-0008-69.png
14,90,1,1444663606570,1444663607175,501,485,0,0,0,2,1,1,21,0002-00-0003-56.png,0004-00-0007-55.png
14,91,0,1444663607199,1444663607537,913,449,0,0,0,5,4,1,54,0001-00-0000-46.png,0005-00-0008-97.png
14,92,0,1444663607578,1444663608206,314,384,0,0,0,4,3,1,43,0005-00-0008-35.png,0003-00-0007-33.png
14,93,0,1444663608237,1444663608727,323,403,0,0,0,2,3,1,23,0002-00-0008-54.png,0003-00-0000-37.png
14,94,0,1444663608753,1444663609450,947,367,0,0,0,3,2,1,32,0003-00-0003-95.png,0002-00-0009-61.png
14,95,0,1444663609487,1444663609957,941,388,0,0,0,3,4,1,34,0003-00-0000-14.png,0005-00-0008-62.png
14,96,0,1444663609977,1444663610447,341,376,0,0,0,1,2,1,12,0004-00-0007-74.png,0002-00-0008-73.png
14,97,1,1444663610468,1444663610766,926,358,0,0,0,5,4,1,54,0001-00-0001-79.png,0005-00-0009-37.png
14,98,1,1444663610788,1444663611135,878,349,0,0,0,2,1,1,21,0002-00-0006-62.png,0004-00-0005-54.png
14,99,1,1444663611173,1444663611525,938,371,0,0,0,3,2,1,32,0003-00-0008-96.png,0002-00-0005-74.png
14,100,0,1444663611552,1444663612737,953,383,0,0,0,3,4,1,34,0003-00-0003-34.png,0005-00-0004-17.png
14,101,1,1444663612769,1444663613300,286,397,0,0,0,1,2,1,12,0004-00-0005-15.png,0002-00-0001-81.png
14,102,0,1444663613334,1444663613984,932,367,0,0,0,4,3,1,43,0005-00-0009-43.png,0003-00-0000-53.png
14,103,1,1444663614017,1444663614875,369,400,0,0,0,5,4,1,54,0001-00-0004-37.png,0005-00-0009-61.png
14,104,1,1444663614896,1444663615074,936,388,0,0,0,2,3,1,23,0002-00-0005-26.png,0003-00-0008-04.png
14,105,0,1444663615116,1444663615709,924,456,0,0,0,5,4,1,54,0001-00-0006-02.png,0005-00-0000-04.png
14,106,0,1444663615733,1444663616278,951,384,0,0,0,4,3,1,43,0005-00-0007-28.png,0003-00-0000-33.png
14,107,1,1444663616316,1444663616666,926,371,0,0,0,2,1,1,21,0002-00-0002-18.png,0004-00-0000-32.png
14,108,1,1444663616693,1444663616949,285,397,0,0,0,3,2,1,32,0003-00-0003-43.png,0002-00-0009-26.png
14,109,0,1444663616970,1444663617642,940,388,0,0,0,2,3,1,23,0002-00-0008-48.png,0003-00-0000-01.png
14,110,0,1444663617683,1444663618562,315,413,0,0,0,5,4,1,54,0001-00-0000-00.png,0005-00-0001-26.png
14,111,1,1444663618594,1444663618937,338,398,0,0,0,1,2,1,12,0004-00-0004-55.png,0002-00-0002-65.png
14,112,0,1444663618965,1444663620144,350,384,0,0,0,3,4,1,34,0003-00-0007-30.png,0005-00-0000-51.png
14,113,1,1444663620167,1444663620847,356,507,0,0,0,5,4,1,54,0001-00-0005-02.png,0005-00-0000-18.png
14,114,0,1444663620885,1444663621623,942,388,0,0,0,3,2,1,32,0003-00-0000-87.png,0002-00-0004-56.png
14,115,0,1444663621653,1444663621859,349,396,0,0,0,1,2,1,12,0004-00-0002-88.png,0002-00-0001-60.png
14,116,0,1444663621891,1444663622437,924,430,0,0,0,4,3,1,43,0005-00-0000-64.png,0003-00-0008-32.png
14,117,0,1444663622462,1444663623072,374,392,0,0,0,2,3,1,23,0002-00-0008-08.png,0003-00-0005-89.png
14,118,1,1444663623097,1444663623495,944,402,0,0,0,2,1,1,21,0002-00-0000-08.png,0004-00-0004-35.png
14,119,0,1444663623524,1444663624561,875,358,0,0,0,5,4,1,54,0001-00-0001-68.png,0005-00-0003-65.png
14,120,0,1444663624593,1444663625429,325,396,0,0,0,3,4,1,34,0003-00-0002-23.png,0005-00-0009-31.png
14,121,0,1444663625459,1444663626098,915,397,0,0,0,5,4,1,54,0001-00-0005-74.png,0005-00-0007-39.png
14,122,0,1444663626125,1444663626725,354,401,0,0,0,3,2,1,32,0003-00-0005-59.png,0002-00-0009-77.png
14,123,0,1444663626777,1444663627705,922,394,0,0,0,2,3,1,23,0002-00-0009-37.png,0003-00-0008-17.png
14,124,1,1444663627729,1444663628339,870,342,0,0,0,4,3,1,43,0005-00-0003-93.png,0003-00-0008-68.png
14,125,1,1444663628374,1444663629328,299,423,0,0,0,2,1,1,21,0002-00-0002-16.png,0004-00-0009-14.png
14,126,1,1444663629356,1444663629729,350,499,0,0,0,5,4,1,54,0001-00-0002-44.png,0005-00-0000-48.png
14,127,1,1444663629763,1444663630193,401,424,0,0,0,3,4,1,34,0003-00-0000-23.png,0005-00-0009-06.png
14,128,1,1444663630228,1444663630998,325,423,0,0,0,1,2,1,12,0004-00-0008-13.png,0002-00-0007-58.png
14,129,1,1444663631024,1444663631684,350,436,0,0,0,5,4,1,54,0001-00-0003-51.png,0005-00-0002-86.png
14,130,1,1444663631707,1444663632050,376,423,0,0,0,3,2,1,32,0003-00-0003-25.png,0002-00-0005-56.png
14,131,0,1444663632077,1444663632838,918,410,0,0,0,2,1,1,21,0002-00-0000-08.png,0004-00-0005-69.png
14,132,1,1444663632870,1444663633308,350,358,0,0,0,1,2,1,12,0004-00-0006-76.png,0002-00-0009-27.png
14,133,0,1444663633343,1444663634071,939,398,0,0,0,5,4,1,54,0001-00-0002-28.png,0005-00-0001-24.png
14,134,1,1444663634108,1444663634554,922,394,0,0,0,2,3,1,23,0002-00-0007-76.png,0003-00-0007-85.png
14,135,1,1444663634591,1444663635178,863,370,0,0,0,3,4,1,34,0003-00-0009-21.png,0005-00-0006-41.png
14,136,0,1444663635205,1444663635473,942,392,0,0,0,4,3,1,43,0005-00-0005-17.png,0003-00-0000-19.png
14,137,1,1444663635512,1444663635870,356,402,0,0,0,5,4,1,54,0001-00-0006-98.png,0005-00-0002-61.png
14,138,1,1444663635891,1444663636737,350,371,0,0,0,5,4,1,54,0001-00-0002-61.png,0005-00-0003-77.png
14,139,1,1444663636785,1444663636923,332,393,0,0,0,3,4,1,34,0003-00-0009-22.png,0005-00-0003-24.png
14,140,1,1444663636969,1444663637652,904,386,0,0,0,1,2,1,12,0004-00-0000-51.png,0002-00-0009-56.png
14,141,0,1444663637679,1444663637949,908,491,0,0,0,2,1,1,21,0002-00-0005-81.png,0004-00-0002-99.png
14,142,0,1444663637980,1444663638212,928,387,0,0,0,3,2,1,32,0003-00-0007-16.png,0002-00-0000-87.png
14,143,1,1444663638249,1444663638697,940,397,0,0,0,2,3,1,23,0002-00-0008-72.png,0003-00-0005-40.png
14,144,1,1444663638734,1444663640600,350,398,0,0,0,4,3,1,43,0005-00-0001-54.png,0003-00-0009-86.png
14,145,1,1444663640625,1444663640880,931,392,0,0,0,2,1,1,21,0002-00-0001-74.png,0004-00-0004-50.png
14,146,1,1444663640908,1444663641421,376,396,0,0,0,5,4,1,54,0001-00-0008-16.png,0005-00-0004-17.png
14,147,1,1444663641444,1444663641876,941,372,0,0,0,3,4,1,34,0003-00-0007-78.png,0005-00-0006-94.png
14,148,1,1444663641895,1444663642308,339,398,0,0,0,4,3,1,43,0005-00-0009-14.png,0003-00-0004-65.png
14,149,0,1444663642340,1444663642517,369,512,0,0,0,5,4,1,54,0001-00-0008-56.png,0005-00-0001-44.png
14,150,1,1444663642555,1444663643441,361,398,0,0,0,3,2,1,32,0003-00-0003-56.png,0002-00-0007-87.png
14,151,0,1444663643466,1444663643725,942,392,0,0,0,1,2,1,12,0004-00-0002-37.png,0002-00-0004-65.png
14,152,0,1444663643751,1444663643953,899,483,0,0,0,2,3,1,23,0002-00-0005-42.png,0003-00-0001-40.png
14,153,1,1444663643978,1444663644317,320,384,0,0,0,3,2,1,32,0003-00-0009-32.png,0002-00-0000-09.png
14,154,0,1444663644352,1444663645274,874,463,0,0,0,5,4,1,54,0001-00-0006-06.png,0005-00-0004-93.png
14,155,1,1444663645295,1444663645661,286,335,0,0,0,1,2,1,12,0004-00-0005-52.png,0002-00-0003-19.png
14,156,0,1444663645700,1444663646150,354,393,0,0,0,5,4,1,54,0001-00-0006-94.png,0005-00-0000-54.png
14,157,1,1444663646182,1444663646873,950,384,0,0,0,3,4,1,34,0003-00-0002-69.png,0005-00-0009-11.png
14,158,1,1444663646911,1444663648397,346,431,0,0,0,2,1,1,21,0002-00-0006-64.png,0004-00-0004-30.png
14,159,1,1444663648428,1444663649114,316,415,0,0,0,2,3,1,23,0002-00-0002-46.png,0003-00-0000-14.png
14,160,0,1444663649163,1444663649544,926,360,0,0,0,4,3,1,43,0005-00-0002-50.png,0003-00-0002-02.png
14,161,0,1444663649582,1444663650355,948,383,0,0,0,3,2,1,32,0003-00-0009-47.png,0002-00-0009-48.png
14,162,1,1444663650391,1444663650897,921,367,0,0,0,4,3,1,43,0005-00-0000-06.png,0003-00-0004-59.png
14,163,0,1444663650923,1444663651449,304,401,0,0,0,5,4,1,54,0001-00-0001-70.png,0005-00-0005-60.png
14,164,1,1444663651477,1444663652101,370,505,0,0,0,2,3,1,23,0002-00-0005-25.png,0003-00-0000-75.png
14,165,1,1444663652134,1444663652630,929,364,0,0,0,5,4,1,54,0001-00-0008-31.png,0005-00-0007-23.png
14,166,1,1444663652659,1444663653088,376,423,0,0,0,1,2,1,12,0004-00-0004-96.png,0002-00-0009-39.png
14,167,1,1444663653136,1444663653560,950,387,0,0,0,3,4,1,34,0003-00-0001-75.png,0005-00-0007-55.png
14,168,1,1444663653592,1444663654282,319,399,0,0,0,2,1,1,21,0002-00-0002-53.png,0004-00-0005-12.png
14,169,0,1444663654305,1444663654789,349,406,0,0,0,5,4,1,54,0001-00-0009-57.png,0005-00-0009-75.png
14,170,1,1444663654812,1444663655817,379,392,0,0,0,4,3,1,43,0005-00-0000-21.png,0003-00-0004-06.png
14,171,1,1444663655846,1444663656120,363,423,0,0,0,2,1,1,21,0002-00-0006-97.png,0004-00-0009-24.png
14,172,0,1444663656137,1444663656922,939,371,0,0,0,3,4,1,34,0003-00-0007-47.png,0005-00-0006-66.png
14,173,1,1444663656952,1444663657280,929,419,0,0,0,3,2,1,32,0003-00-0009-86.png,0002-00-0000-06.png
14,174,1,1444663657308,1444663658105,947,471,0,0,0,5,4,1,54,0001-00-0002-35.png,0005-00-0000-19.png
14,175,1,1444663658148,1444663658514,308,416,0,0,0,2,3,1,23,0002-00-0001-60.png,0003-00-0006-96.png
14,176,0,1444663658542,1444663658880,351,532,0,0,0,1,2,1,12,0004-00-0000-74.png,0002-00-0008-14.png
14,177,1,1444663658898,1444663659122,358,419,0,0,0,3,4,1,34,0003-00-0009-93.png,0005-00-0009-58.png
14,178,1,1444663659152,1444663659653,927,364,0,0,0,1,2,1,12,0004-00-0001-58.png,0002-00-0005-79.png
14,179,0,1444663659680,1444663660540,357,400,0,0,0,3,2,1,32,0003-00-0001-65.png,0002-00-0007-94.png
14,180,0,1444663660573,1444663661357,929,453,0,0,0,5,4,1,54,0001-00-0008-06.png,0005-00-0001-82.png
14,181,0,1444663661401,1444663662434,329,406,0,0,0,2,1,1,21,0002-00-0004-68.png,0004-00-0008-42.png
14,182,0,1444663662457,1444663662996,895,472,0,0,0,5,4,1,54,0001-00-0002-11.png,0005-00-0004-95.png
14,183,0,1444663663031,1444663663613,902,496,0,0,0,2,3,1,23,0002-00-0003-58.png,0003-00-0008-67.png
14,184,0,1444663663649,1444663664028,350,358,0,0,0,4,3,1,43,0005-00-0004-62.png,0003-00-0008-64.png
14,185,0,1444663664055,1444663664655,930,401,0,0,0,5,4,1,54,0001-00-0008-76.png,0005-00-0000-37.png
14,186,0,1444663664686,1444663665425,874,345,0,0,0,3,2,1,32,0003-00-0008-91.png,0002-00-0004-50.png
14,187,1,1444663665458,1444663665950,376,423,0,0,0,3,4,1,34,0003-00-0001-88.png,0005-00-0005-70.png
14,188,0,1444663665982,1444663666599,292,426,0,0,0,4,3,1,43,0005-00-0000-57.png,0003-00-0007-07.png
14,189,1,1444663666623,1444663667400,943,389,0,0,0,2,1,1,21,0002-00-0000-23.png,0004-00-0004-50.png
14,190,1,1444663667429,1444663668113,376,397,0,0,0,1,2,1,12,0004-00-0004-45.png,0002-00-0009-45.png
14,191,0,1444663668145,1444663668474,299,413,0,0,0,5,4,1,54,0001-00-0003-72.png,0005-00-0008-50.png
14,192,0,1444663668506,1444663669892,297,414,0,0,0,2,3,1,23,0002-00-0004-05.png,0003-00-0006-92.png
14,193,1,1444663669930,1444663670328,334,429,0,0,0,3,4,1,34,0003-00-0003-60.png,0005-00-0007-04.png
14,194,0,1444663670361,1444663670758,948,367,0,0,0,2,1,1,21,0002-00-0006-89.png,0004-00-0007-44.png
14,195,1,1444663670791,1444663671861,325,423,0,0,0,2,3,1,23,0002-00-0000-47.png,0003-00-0006-79.png
14,196,0,1444663671886,1444663673255,307,418,0,0,0,5,4,1,54,0001-00-0000-12.png,0005-00-0004-45.png
14,197,0,1444663673282,1444663673976,409,445,0,0,0,1,2,1,12,0004-00-0007-25.png,0002-00-0007-32.png
14,198,1,1444663674011,1444663674577,362,410,0,0,0,3,2,1,32,0003-00-0009-23.png,0002-00-0005-79.png
14,199,0,1444663674604,1444663674888,954,352,0,0,0,5,4,1,54,0001-00-0004-46.png,0005-00-0001-29.png
14,200,0,1444663674939,1444663675253,359,419,0,0,0,4,3,1,43,0005-00-0005-46.png,0003-00-0000-54.png
14,201,0,1444663675275,1444663675687,928,390,0,0,0,5,4,1,54,0001-00-0008-82.png,0005-00-0001-13.png
14,202,1,1444663675713,1444663676259,954,431,0,0,0,3,2,1,32,0003-00-0009-73.png,0002-00-0007-55.png
14,203,0,1444663676278,1444663676749,964,371,0,0,0,5,4,1,54,0001-00-0004-54.png,0005-00-0007-38.png
14,204,1,1444663676780,1444663677639,318,392,0,0,0,4,3,1,43,0005-00-0000-30.png,0003-00-0008-74.png
14,205,0,1444663677670,1444663678547,337,424,0,0,0,3,4,1,34,0003-00-0001-83.png,0005-00-0003-92.png
14,206,1,1444663678589,1444663678871,910,474,0,0,0,2,1,1,21,0002-00-0001-59.png,0004-00-0009-74.png
14,207,0,1444663678902,1444663679272,877,361,0,0,0,2,3,1,23,0002-00-0009-97.png,0003-00-0001-14.png
14,208,0,1444663679296,1444663679689,362,384,0,0,0,1,2,1,12,0004-00-0005-11.png,0002-00-0001-90.png
14,209,0,1444663679717,1444663680288,376,396,0,0,0,2,3,1,23,0002-00-0000-49.png,0003-00-0008-62.png
14,210,0,1444663680327,1444663681353,290,402,0,0,0,3,2,1,32,0003-00-0005-02.png,0002-00-0002-41.png
14,211,0,1444663681421,1444663682807,965,406,0,0,0,2,1,1,21,0002-00-0006-03.png,0004-00-0004-47.png
14,212,1,1444663682843,1444663683590,951,386,0,0,0,1,2,1,12,0004-00-0000-22.png,0002-00-0006-00.png
14,213,1,1444663683617,1444663684012,927,358,0,0,0,4,3,1,43,0005-00-0009-29.png,0003-00-0003-88.png
14,214,1,1444663684056,1444663684952,941,397,0,0,0,5,4,1,54,0001-00-0006-61.png,0005-00-0008-09.png
14,215,1,1444663684985,1444663685268,362,397,0,0,0,3,4,1,34,0003-00-0000-86.png,0005-00-0006-02.png
14,216,0,1444663685308,1444663685896,870,341,0,0,0,5,4,1,54,0001-00-0006-60.png,0005-00-0002-90.png
14,217,0,1444663685932,1444663686217,325,423,0,0,0,3,2,1,32,0003-00-0006-53.png,0002-00-0003-11.png
14,218,0,1444663686255,1444663686914,345,382,0,0,0,4,3,1,43,0005-00-0008-71.png,0003-00-0007-15.png
14,219,1,1444663686940,1444663687501,425,370,0,0,0,2,1,1,21,0002-00-0003-22.png,0004-00-0002-46.png
14,220,1,1444663687528,1444663687919,325,435,0,0,0,2,3,1,23,0002-00-0000-50.png,0003-00-0001-12.png
14,221,1,1444663687945,1444663688172,938,398,0,0,0,1,2,1,12,0004-00-0000-47.png,0002-00-0005-52.png
14,222,0,1444663688198,1444663688599,953,390,0,0,0,5,4,1,54,0001-00-0002-83.png,0005-00-0005-69.png
14,223,0,1444663688622,1444663689061,942,392,0,0,0,5,4,1,54,0001-00-0000-66.png,0005-00-0006-16.png
14,224,1,1444663689082,1444663689367,343,424,0,0,0,3,4,1,34,0003-00-0000-87.png,0005-00-0007-68.png
14,225,1,1444663689405,1444663689968,982,375,0,0,0,2,1,1,21,0002-00-0002-40.png,0004-00-0003-51.png
14,226,0,1444663689991,1444663690581,947,393,0,0,0,2,3,1,23,0002-00-0005-28.png,0003-00-0006-51.png
14,227,1,1444663690598,1444663691351,921,472,0,0,0,5,4,1,54,0001-00-0004-55.png,0005-00-0002-31.png
14,228,0,1444663691383,1444663692474,299,397,0,0,0,3,4,1,34,0003-00-0004-18.png,0005-00-0003-92.png
14,229,0,1444663692500,1444663692809,330,463,0,0,0,3,2,1,32,0003-00-0004-02.png,0002-00-0000-49.png
14,230,0,1444663692838,1444663693386,315,415,0,0,0,4,3,1,43,0005-00-0002-08.png,0003-00-0009-15.png
14,231,1,1444663693415,1444663694067,376,436,0,0,0,1,2,1,12,0004-00-0004-72.png,0002-00-0004-74.png
14,232,0,1444663694106,1444663694485,281,420,0,0,0,5,4,1,54,0001-00-0003-94.png,0005-00-0005-15.png
14,233,0,1444663694520,1444663694851,334,397,0,0,0,2,3,1,23,0002-00-0005-23.png,0003-00-0006-72.png
14,234,1,1444663694875,1444663695250,897,387,0,0,0,4,3,1,43,0005-00-0005-96.png,0003-00-0005-32.png
14,235,0,1444663695271,1444663695593,941,435,0,0,0,2,1,1,21,0002-00-0007-10.png,0004-00-0002-04.png
14,236,1,1444663695619,1444663696317,888,358,0,0,0,5,4,1,54,0001-00-0001-30.png,0005-00-0008-63.png
14,237,0,1444663696339,1444663696862,910,451,0,0,0,1,2,1,12,0004-00-0003-81.png,0002-00-0003-81.png
14,238,0,1444663696911,1444663698049,384,392,0,0,0,5,4,1,54,0001-00-0005-38.png,0005-00-0007-04.png
14,239,0,1444663698065,1444663698856,383,413,0,0,0,3,2,1,32,0003-00-0008-82.png,0002-00-0004-32.png
14,240,1,1444663698895,1444663699285,918,458,0,0,0,3,4,1,34,0003-00-0003-50.png,0005-00-0007-11.png
14,241,0,1444663699309,1444663699813,929,390,0,0,0,3,2,1,32,0003-00-0002-37.png,0002-00-0007-48.png
14,242,1,1444663699844,1444663700074,908,487,0,0,0,3,4,1,34,0003-00-0004-00.png,0005-00-0000-78.png
14,243,1,1444663700105,1444663700283,963,372,0,0,0,2,1,1,21,0002-00-0008-73.png,0004-00-0005-81.png
14,244,1,1444663700309,1444663700563,940,402,0,0,0,5,4,1,54,0001-00-0005-64.png,0005-00-0000-85.png
14,245,1,1444663700594,1444663701017,376,514,0,0,0,1,2,1,12,0004-00-0004-71.png,0002-00-0009-02.png
14,246,1,1444663701055,1444663701265,926,460,0,0,0,2,3,1,23,0002-00-0003-09.png,0003-00-0007-36.png
14,247,0,1444663701307,1444663701624,358,393,0,0,0,4,3,1,43,0005-00-0003-82.png,0003-00-0001-83.png
14,248,1,1444663701657,1444663702209,316,428,0,0,0,5,4,1,54,0001-00-0004-20.png,0005-00-0004-07.png
14,249,1,1444663702239,1444663702663,340,427,0,0,0,5,4,1,54,0001-00-0005-75.png,0005-00-0000-64.png
14,250,1,1444663702693,1444663703358,929,401,0,0,0,4,3,1,43,0005-00-0008-70.png,0003-00-0000-56.png
14,251,0,1444663703389,1444663703667,360,389,0,0,0,2,1,1,21,0002-00-0002-23.png,0004-00-0002-22.png
14,252,0,1444663703689,1444663704307,952,413,0,0,0,3,4,1,34,0003-00-0006-02.png,0005-00-0003-36.png
14,253,0,1444663704329,1444663704808,514,407,0,0,0,3,2,1,32,0003-00-0007-85.png,0002-00-0007-69.png
14,254,0,1444663704841,1444663705483,926,434,0,0,0,1,2,1,12,0004-00-0007-81.png,0002-00-0005-51.png
14,255,0,1444663705516,1444663706398,953,408,0,0,0,2,3,1,23,0002-00-0006-48.png,0003-00-0008-75.png
14,256,0,1444663706430,1444663706909,900,501,0,0,0,5,4,1,54,0001-00-0005-62.png,0005-00-0001-60.png
14,257,0,1444663706948,1444663707328,952,359,0,0,0,1,2,1,12,0004-00-0000-23.png,0002-00-0009-63.png
14,258,0,1444663707367,1444663708273,319,410,0,0,0,2,3,1,23,0002-00-0002-71.png,0003-00-0008-87.png
14,259,1,1444663708306,1444663708569,938,398,0,0,0,5,4,1,54,0001-00-0008-07.png,0005-00-0007-68.png
14,260,0,1444663708608,1444663709203,956,387,0,0,0,3,4,1,34,0003-00-0002-89.png,0005-00-0009-35.png
14,261,1,1444663709224,1444663710181,407,557,0,0,0,5,4,1,54,0001-00-0001-15.png,0005-00-0009-09.png
14,262,1,1444663710223,1444663710667,376,384,0,0,0,4,3,1,43,0005-00-0003-47.png,0003-00-0007-50.png
14,263,0,1444663710698,1444663711248,366,421,0,0,0,3,2,1,32,0003-00-0001-18.png,0002-00-0006-84.png
14,264,1,1444663711278,1444663711877,336,419,0,0,0,2,1,1,21,0002-00-0009-60.png,0004-00-0000-81.png
14,265,1,1444663711911,1444663712724,337,396,0,0,0,5,4,1,54,0001-00-0008-78.png,0005-00-0001-76.png
14,266,0,1444663712747,1444663712939,961,417,0,0,0,3,2,1,32,0003-00-0002-29.png,0002-00-0005-11.png
14,267,0,1444663712958,1444663713628,914,475,0,0,0,1,2,1,12,0004-00-0006-83.png,0002-00-0004-81.png
14,268,1,1444663713653,1444663714537,246,515,0,0,0,4,3,1,43,0005-00-0009-17.png,0003-00-0004-07.png
14,269,1,1444663714554,1444663715020,977,384,0,0,0,5,4,1,54,0001-00-0004-85.png,0005-00-0003-10.png
14,270,1,1444663715050,1444663715601,365,509,0,0,0,3,4,1,34,0003-00-0002-98.png,0005-00-0004-82.png
14,271,1,1444663715643,1444663716067,514,394,0,0,0,2,1,1,21,0002-00-0007-51.png,0004-00-0008-60.png
14,272,1,1444663716091,1444663717279,882,351,0,0,0,2,3,1,23,0002-00-0009-21.png,0003-00-0006-95.png
14,273,0,1444663717299,1444663717493,945,382,0,0,0,2,1,1,21,0002-00-0008-43.png,0004-00-0008-08.png
14,274,1,1444663717513,1444663717691,388,410,0,0,0,3,2,1,32,0003-00-0001-95.png,0002-00-0002-50.png
14,275,0,1444663717716,1444663718068,906,479,0,0,0,5,4,1,54,0001-00-0004-29.png,0005-00-0005-30.png
14,276,0,1444663718097,1444663718791,902,468,0,0,0,4,3,1,43,0005-00-0009-81.png,0003-00-0002-30.png
14,277,1,1444663718818,1444663719412,267,367,0,0,0,5,4,1,54,0001-00-0002-51.png,0005-00-0000-24.png
14,278,1,1444663719439,1444663719620,326,439,0,0,0,2,3,1,23,0002-00-0003-36.png,0003-00-0008-22.png
14,279,1,1444663719650,1444663720026,973,387,0,0,0,3,4,1,34,0003-00-0008-22.png,0005-00-0008-93.png
14,280,1,1444663720058,1444663720453,331,505,0,0,0,1,2,1,12,0004-00-0004-73.png,0002-00-0001-66.png
14,281,0,1444663720479,1444663721033,362,506,0,0,0,3,2,1,32,0003-00-0002-87.png,0002-00-0008-47.png
14,282,0,1444663721079,1444663721354,948,429,0,0,0,2,3,1,23,0002-00-0003-63.png,0003-00-0008-66.png
14,283,1,1444663721385,1444663721919,325,384,0,0,0,4,3,1,43,0005-00-0006-36.png,0003-00-0002-58.png
14,284,0,1444663721949,1444663722374,341,403,0,0,0,5,4,1,54,0001-00-0009-30.png,0005-00-0009-67.png
14,285,1,1444663722403,1444663722539,925,404,0,0,0,3,4,1,34,0003-00-0005-94.png,0005-00-0008-86.png
14,286,1,1444663722573,1444663722967,864,345,0,0,0,2,1,1,21,0002-00-0003-12.png,0004-00-0002-39.png
14,287,0,1444663722999,1444663723880,955,379,0,0,0,5,4,1,54,0001-00-0009-25.png,0005-00-0001-29.png
14,288,1,1444663723903,1444663724883,900,449,0,0,0,1,2,1,12,0004-00-0002-58.png,0002-00-0006-39.png
14,289,1,1444663724907,1444663725437,929,418,0,0,0,5,4,1,54,0001-00-0000-51.png,0005-00-0000-66.png
14,290,0,1444663725462,1444663725814,339,394,0,0,0,4,3,1,43,0005-00-0001-99.png,0003-00-0001-39.png
14,291,0,1444663725846,1444663726428,357,480,0,0,0,3,2,1,32,0003-00-0002-87.png,0002-00-0006-32.png
14,292,1,1444663726485,1444663726992,304,406,0,0,0,5,4,1,54,0001-00-0006-36.png,0005-00-0007-66.png
14,293,1,1444663727012,1444663727692,943,392,0,0,0,1,2,1,12,0004-00-0002-67.png,0002-00-0001-44.png
14,294,0,1444663727722,1444663728039,888,370,0,0,0,2,1,1,21,0002-00-0008-34.png,0004-00-0007-20.png
14,295,0,1444663728080,1444663728356,401,384,0,0,0,3,4,1,34,0003-00-0004-80.png,0005-00-0002-69.png
14,296,1,1444663728398,1444663728912,901,385,0,0,0,2,3,1,23,0002-00-0005-63.png,0003-00-0005-75.png
14,297,1,1444663728935,1444663729174,350,423,0,0,0,5,4,1,54,0001-00-0004-72.png,0005-00-0009-28.png
14,298,1,1444663729197,1444663729764,394,401,0,0,0,5,4,1,54,0001-00-0001-92.png,0005-00-0000-26.png
14,299,1,1444663729800,1444663730136,929,416,0,0,0,3,2,1,32,0003-00-0006-60.png,0002-00-0009-58.png
14,300,1,1444663730168,1444663730753,252,420,0,0,0,2,1,1,21,0002-00-0006-74.png,0004-00-0006-09.png
14,301,1,1444663730790,1444663731121,939,416,0,0,0,2,3,1,23,0002-00-0002-65.png,0003-00-0009-78.png
14,302,1,1444663731146,1444663731339,313,423,0,0,0,3,4,1,34,0003-00-0005-03.png,0005-00-0008-23.png
14,303,1,1444663731360,1444663731651,876,410,0,0,0,1,2,1,12,0004-00-0009-22.png,0002-00-0003-16.png
14,304,1,1444663731676,1444663731974,896,472,0,0,0,4,3,1,43,0005-00-0005-23.png,0003-00-0002-36.png
14,305,0,1444663732006,1444663732724,930,375,0,0,0,4,3,1,43,0005-00-0003-34.png,0003-00-0000-49.png
14,306,1,1444663732761,1444663733000,385,393,0,0,0,5,4,1,54,0001-00-0009-40.png,0005-00-0002-52.png
14,307,0,1444663733030,1444663733437,349,410,0,0,0,5,4,1,54,0001-00-0000-67.png,0005-00-0009-78.png
14,308,0,1444663733470,1444663733733,953,388,0,0,0,1,2,1,12,0004-00-0006-89.png,0002-00-0003-35.png
14,309,0,1444663733769,1444663734316,978,384,0,0,0,3,4,1,34,0003-00-0008-31.png,0005-00-0005-10.png
14,310,1,1444663734346,1444663735148,876,476,0,0,0,2,1,1,21,0002-00-0000-78.png,0004-00-0005-71.png
14,311,0,1444663735174,1444663735288,314,413,0,0,0,2,3,1,23,0002-00-0007-36.png,0003-00-0005-10.png
14,312,0,1444663735323,1444663735890,401,436,0,0,0,3,2,1,32,0003-00-0002-24.png,0002-00-0003-99.png
14,313,1,1444663735916,1444663736178,376,384,0,0,0,5,4,1,54,0001-00-0001-38.png,0005-00-0001-32.png
14,314,1,1444663736209,1444663736611,376,424,0,0,0,5,4,1,54,0001-00-0004-85.png,0005-00-0008-93.png
14,315,0,1444663736630,1444663737055,873,358,0,0,0,3,2,1,32,0003-00-0000-88.png,0002-00-0002-41.png
14,316,1,1444663737084,1444663737372,875,346,0,0,0,1,2,1,12,0004-00-0002-05.png,0002-00-0007-41.png
14,317,1,1444663737399,1444663738553,358,393,0,0,0,2,1,1,21,0002-00-0002-95.png,0004-00-0003-10.png
14,318,0,1444663738581,1444663739619,970,380,0,0,0,3,4,1,34,0003-00-0001-10.png,0005-00-0000-77.png
14,319,1,1444663739638,1444663740574,313,397,0,0,0,4,3,1,43,0005-00-0004-39.png,0003-00-0004-52.png
14,320,1,1444663740602,1444663741534,875,357,0,0,0,2,3,1,23,0002-00-0000-40.png,0003-00-0005-71.png
14,321,0,1444663741560,1444663741944,392,402,0,0,0,5,4,1,54,0001-00-0008-66.png,0005-00-0009-51.png
14,322,0,1444663741969,1444663742315,376,401,0,0,0,2,1,1,21,0002-00-0007-74.png,0004-00-0009-25.png
14,323,1,1444663742342,1444663742847,350,358,0,0,0,3,4,1,34,0003-00-0007-31.png,0005-00-0007-00.png
14,324,1,1444663742882,1444663743259,933,415,0,0,0,1,2,1,12,0004-00-0001-42.png,0002-00-0001-04.png
14,325,1,1444663743290,1444663743580,927,409,0,0,0,2,3,1,23,0002-00-0004-18.png,0003-00-0000-95.png
14,326,0,1444663743610,1444663744169,307,393,0,0,0,5,4,1,54,0001-00-0009-07.png,0005-00-0008-84.png
14,327,0,1444663744188,1444663745029,376,384,0,0,0,4,3,1,43,0005-00-0003-05.png,0003-00-0002-96.png
14,328,0,1444663745057,1444663745582,340,401,0,0,0,3,2,1,32,0003-00-0004-22.png,0002-00-0001-74.png
14,329,1,1444663745608,1444663745920,919,485,0,0,0,1,2,1,12,0004-00-0005-19.png,0002-00-0006-70.png
14,330,0,1444663745955,1444663746190,337,422,0,0,0,2,3,1,23,0002-00-0005-78.png,0003-00-0004-87.png
14,331,0,1444663746221,1444663746527,932,366,0,0,0,5,4,1,54,0001-00-0005-67.png,0005-00-0005-14.png
14,332,0,1444663746562,1444663747146,940,397,0,0,0,3,4,1,34,0003-00-0004-74.png,0005-00-0007-35.png
14,333,1,1444663747186,1444663747494,897,355,0,0,0,2,1,1,21,0002-00-0008-71.png,0004-00-0001-74.png
14,334,0,1444663747530,1444663747974,361,410,0,0,0,4,3,1,43,0005-00-0003-09.png,0003-00-0000-40.png
14,335,0,1444663748007,1444663748224,925,385,0,0,0,3,2,1,32,0003-00-0004-83.png,0002-00-0001-80.png
14,336,1,1444663748249,1444663748466,951,415,0,0,0,5,4,1,54,0001-00-0006-42.png,0005-00-0008-69.png
14,337,1,1444663748498,1444663749057,928,389,0,0,0,2,1,1,21,0002-00-0003-62.png,0004-00-0004-37.png
14,338,1,1444663749092,1444663749607,974,380,0,0,0,5,4,1,54,0001-00-0008-31.png,0005-00-0000-31.png
14,339,1,1444663749629,1444663750357,347,426,0,0,0,4,3,1,43,0005-00-0005-77.png,0003-00-0000-36.png
14,340,1,1444663750398,1444663750887,348,425,0,0,0,5,4,1,54,0001-00-0002-75.png,0005-00-0006-89.png
14,341,1,1444663750910,1444663751875,918,486,0,0,0,2,3,1,23,0002-00-0000-01.png,0003-00-0009-28.png
14,342,1,1444663751903,1444663752426,307,414,0,0,0,3,2,1,32,0003-00-0008-20.png,0002-00-0002-50.png
14,343,0,1444663752453,1444663753168,964,397,0,0,0,3,4,1,34,0003-00-0009-76.png,0005-00-0004-52.png
14,344,0,1444663753201,1444663753660,356,472,0,0,0,1,2,1,12,0004-00-0005-86.png,0002-00-0004-15.png
14,345,1,1444663753683,1444663754069,287,392,0,0,0,5,4,1,54,0001-00-0003-23.png,0005-00-0008-52.png
14,346,1,1444663754091,1444663754713,940,397,0,0,0,1,2,1,12,0004-00-0002-20.png,0002-00-0004-71.png
14,347,1,1444663754760,1444663755146,875,371,0,0,0,3,4,1,34,0003-00-0007-34.png,0005-00-0009-78.png
14,348,0,1444663755183,1444663755557,344,410,0,0,0,4,3,1,43,0005-00-0007-93.png,0003-00-0003-31.png
14,349,1,1444663755582,1444663756424,919,485,0,0,0,2,1,1,21,0002-00-0009-63.png,0004-00-0003-30.png
14,350,1,1444663756446,1444663756708,902,493,0,0,0,3,2,1,32,0003-00-0008-47.png,0002-00-0006-18.png
14,351,0,1444663756734,1444663757119,931,402,0,0,0,2,3,1,23,0002-00-0008-28.png,0003-00-0003-21.png
14,352,0,1444663757137,1444663757685,913,501,0,0,0,5,4,1,54,0001-00-0009-59.png,0005-00-0002-65.png
14,353,1,1444663757722,1444663758071,956,376,0,0,0,3,2,1,32,0003-00-0000-25.png,0002-00-0009-93.png
14,354,1,1444663758090,1444663758424,927,398,0,0,0,2,3,1,23,0002-00-0007-91.png,0003-00-0006-27.png
14,355,1,1444663758451,1444663759011,342,392,0,0,0,4,3,1,43,0005-00-0006-33.png,0003-00-0001-07.png
14,356,0,1444663759029,1444663759457,899,484,0,0,0,5,4,1,54,0001-00-0009-62.png,0005-00-0003-28.png
14,357,0,1444663759498,1444663759948,383,393,0,0,0,2,1,1,21,0002-00-0008-79.png,0004-00-0002-70.png
14,358,0,1444663759973,1444663760265,938,372,0,0,0,3,4,1,34,0003-00-0000-77.png,0005-00-0006-37.png
14,359,1,1444663760299,1444663760635,391,459,0,0,0,1,2,1,12,0004-00-0002-55.png,0002-00-0001-06.png
14,360,0,1444663760658,1444663761070,325,438,0,0,0,5,4,1,54,0001-00-0005-28.png,0005-00-0003-74.png
14,361,0,1444663761094,1444663761568,363,397,0,0,0,1,2,1,12,0004-00-0005-17.png,0002-00-0007-95.png
14,362,1,1444663761595,1444663762026,875,371,0,0,0,3,4,1,34,0003-00-0007-01.png,0005-00-0009-07.png
14,363,1,1444663762046,1444663762451,338,419,0,0,0,5,4,1,54,0001-00-0009-64.png,0005-00-0005-30.png
14,364,1,1444663762476,1444663762638,319,410,0,0,0,2,3,1,23,0002-00-0002-94.png,0003-00-0003-46.png
14,365,1,1444663762673,1444663763186,334,422,0,0,0,4,3,1,43,0005-00-0004-93.png,0003-00-0005-42.png
14,366,1,1444663763212,1444663763657,939,398,0,0,0,3,2,1,32,0003-00-0009-40.png,0002-00-0001-41.png
14,367,0,1444663763693,1444663764186,951,397,0,0,0,2,1,1,21,0002-00-0006-38.png,0004-00-0009-55.png
14,368,1,1444663764223,1444663764482,368,427,0,0,0,5,4,1,54,0001-00-0005-36.png,0005-00-0006-45.png
14,369,1,1444663764512,1444663764967,407,400,0,0,0,2,3,1,23,0002-00-0001-75.png,0003-00-0008-21.png
14,370,1,1444663764991,1444663765729,914,412,0,0,0,3,2,1,32,0003-00-0007-51.png,0002-00-0001-63.png
14,371,0,1444663765780,1444663766302,306,420,0,0,0,3,4,1,34,0003-00-0004-42.png,0005-00-0002-99.png
14,372,1,1444663766339,1444663766629,963,424,0,0,0,2,1,1,21,0002-00-0004-28.png,0004-00-0003-49.png
14,373,1,1444663766667,1444663766832,921,498,0,0,0,1,2,1,12,0004-00-0004-51.png,0002-00-0001-01.png
14,374,1,1444663766851,1444663767480,366,417,0,0,0,4,3,1,43,0005-00-0001-93.png,0003-00-0009-57.png
14,375,1,1444663767513,1444663769156,914,398,0,0,0,5,4,1,54,0001-00-0002-58.png,0005-00-0005-62.png
14,376,1,1444663769179,1444663769840,339,420,0,0,0,5,4,1,54,0001-00-0008-14.png,0005-00-0003-67.png
14,377,0,1444663769865,1444663770119,357,393,0,0,0,3,2,1,32,0003-00-0003-43.png,0002-00-0003-77.png
14,378,1,1444663770149,1444663770964,335,397,0,0,0,2,1,1,21,0002-00-0004-84.png,0004-00-0009-91.png
14,379,0,1444663770997,1444663771245,939,397,0,0,0,5,4,1,54,0001-00-0009-33.png,0005-00-0005-20.png
14,380,1,1444663771269,1444663772066,326,413,0,0,0,3,4,1,34,0003-00-0005-35.png,0005-00-0003-52.png
14,381,0,1444663772105,1444663772503,311,449,0,0,0,1,2,1,12,0004-00-0000-41.png,0002-00-0005-55.png
14,382,0,1444663772526,1444663773737,870,393,0,0,0,5,4,1,54,0001-00-0005-38.png,0005-00-0004-89.png
14,383,1,1444663773757,1444663773954,964,424,0,0,0,4,3,1,43,0005-00-0001-48.png,0003-00-0006-29.png
14,384,1,1444663773995,1444663774790,376,384,0,0,0,2,3,1,23,0002-00-0001-64.png,0003-00-0009-43.png
14,385,1,1444663774834,1444663776116,293,398,0,0,0,5,4,1,54,0001-00-0009-30.png,0005-00-0003-55.png
14,386,1,1444663776156,1444663776391,900,481,0,0,0,3,2,1,32,0003-00-0009-78.png,0002-00-0005-37.png
14,387,1,1444663776417,1444663776651,326,406,0,0,0,2,3,1,23,0002-00-0004-51.png,0003-00-0000-78.png
14,388,1,1444663776671,1444663777126,929,410,0,0,0,1,2,1,12,0004-00-0001-98.png,0002-00-0006-46.png
14,389,1,1444663777162,1444663777660,914,397,0,0,0,3,4,1,34,0003-00-0006-27.png,0005-00-0004-64.png
14,390,1,1444663777686,1444663778058,312,398,0,0,0,4,3,1,43,0005-00-0000-08.png,0003-00-0009-68.png
14,391,1,1444663778086,1444663778279,947,393,0,0,0,5,4,1,54,0001-00-0009-44.png,0005-00-0002-23.png
14,392,1,1444663778315,1444663778755,334,402,0,0,0,2,1,1,21,0002-00-0001-80.png,0004-00-0009-81.png
14,393,1,1444663778797,1444663779144,343,451,0,0,0,3,2,1,32,0003-00-0006-02.png,0002-00-0005-21.png
14,394,0,1444663779167,1444663780359,925,412,0,0,0,5,4,1,54,0001-00-0000-86.png,0005-00-0003-21.png
14,395,0,1444663780389,1444663781031,931,400,0,0,0,5,4,1,54,0001-00-0009-98.png,0005-00-0001-14.png
14,396,1,1444663781057,1444663781680,376,372,0,0,0,1,2,1,12,0004-00-0006-86.png,0002-00-0005-43.png
14,397,1,1444663781705,1444663782949,947,393,0,0,0,3,4,1,34,0003-00-0004-51.png,0005-00-0006-56.png
14,398,1,1444663782983,1444663783225,356,412,0,0,0,2,1,1,21,0002-00-0004-58.png,0004-00-0006-82.png
14,399,1,1444663783263,1444663783644,885,503,0,0,0,2,3,1,23,0002-00-0000-31.png,0003-00-0008-83.png
14,400,0,1444663783679,1444663784058,351,433,0,0,0,4,3,1,43,0005-00-0006-22.png,0003-00-0007-72.png
14,401,1,1444663784086,1444663784469,376,443,0,0,0,4,3,1,43,0005-00-0009-69.png,0003-00-0002-83.png
14,402,0,1444663784497,1444663784919,376,397,0,0,0,5,4,1,54,0001-00-0005-89.png,0005-00-0008-53.png
14,403,0,1444663784943,1444663785288,407,466,0,0,0,5,4,1,54,0001-00-0007-85.png,0005-00-0007-98.png
14,404,1,1444663785327,1444663786029,329,398,0,0,0,3,4,1,34,0003-00-0001-95.png,0005-00-0005-27.png
14,405,1,1444663786060,1444663786518,948,403,0,0,0,1,2,1,12,0004-00-0003-67.png,0002-00-0007-95.png
14,406,0,1444663786550,1444663787883,299,397,0,0,0,3,2,1,32,0003-00-0007-18.png,0002-00-0007-54.png
14,407,1,1444663787909,1444663788384,900,437,0,0,0,2,3,1,23,0002-00-0007-03.png,0003-00-0008-29.png
14,408,1,1444663788412,1444663788690,336,422,0,0,0,2,1,1,21,0002-00-0000-03.png,0004-00-0002-27.png
14,409,1,1444663788737,1444663788929,927,382,0,0,0,3,4,1,34,0003-00-0003-93.png,0005-00-0009-90.png
14,410,1,1444663789005,1444663789468,376,398,0,0,0,2,3,1,23,0002-00-0002-11.png,0003-00-0008-51.png
14,411,0,1444663789511,1444663789948,290,414,0,0,0,3,2,1,32,0003-00-0006-97.png,0002-00-0008-38.png
14,412,1,1444663789993,1444663790274,940,410,0,0,0,5,4,1,54,0001-00-0006-40.png,0005-00-0001-36.png
14,413,0,1444663790296,1444663791017,946,393,0,0,0,2,1,1,21,0002-00-0000-51.png,0004-00-0007-16.png
14,414,1,1444663791042,1444663791445,343,400,0,0,0,5,4,1,54,0001-00-0005-07.png,0005-00-0004-94.png
14,415,1,1444663791482,1444663791808,317,416,0,0,0,1,2,1,12,0004-00-0006-38.png,0002-00-0003-75.png
14,416,0,1444663791837,1444663792428,917,399,0,0,0,4,3,1,43,0005-00-0007-58.png,0003-00-0003-36.png
14,417,0,1444663792465,1444663793539,907,501,0,0,0,1,2,1,12,0004-00-0007-72.png,0002-00-0006-65.png
14,418,1,1444663793563,1444663794200,394,426,0,0,0,2,1,1,21,0002-00-0004-97.png,0004-00-0000-67.png
14,419,0,1444663794230,1444663794484,350,397,0,0,0,3,4,1,34,0003-00-0001-62.png,0005-00-0007-95.png
14,420,0,1444663794514,1444663794865,325,438,0,0,0,5,4,1,54,0001-00-0006-22.png,0005-00-0000-13.png
14,421,1,1444663794890,1444663795137,947,414,0,0,0,2,3,1,23,0002-00-0000-51.png,0003-00-0009-61.png
14,422,1,1444663795165,1444663795522,913,449,0,0,0,4,3,1,43,0005-00-0009-59.png,0003-00-0002-35.png
14,423,1,1444663795560,1444663796063,930,375,0,0,0,3,2,1,32,0003-00-0009-59.png,0002-00-0006-86.png
14,424,1,1444663796098,1444663796707,927,424,0,0,0,5,4,1,54,0001-00-0002-56.png,0005-00-0008-38.png
14,425,1,1444663796729,1444663797429,953,408,0,0,0,2,1,1,21,0002-00-0000-14.png,0004-00-0002-81.png
14,426,1,1444663797454,1444663797705,376,436,0,0,0,4,3,1,43,0005-00-0003-30.png,0003-00-0008-34.png
14,427,1,1444663797746,1444663798156,951,410,0,0,0,3,4,1,34,0003-00-0003-92.png,0005-00-0009-98.png
14,428,0,1444663798196,1444663798893,376,397,0,0,0,3,2,1,32,0003-00-0002-78.png,0002-00-0000-64.png
14,429,1,1444663798932,1444663799095,919,410,0,0,0,5,4,1,54,0001-00-0008-32.png,0005-00-0006-18.png
14,430,0,1444663799125,1444663799771,472,469,0,0,0,2,3,1,23,0002-00-0006-64.png,0003-00-0003-30.png
14,431,0,1444663799797,1444663800791,880,500,0,0,0,1,2,1,12,0004-00-0001-16.png,0002-00-0002-80.png
14,432,1,1444663800819,1444663801168,875,397,0,0,0,5,4,1,54,0001-00-0006-73.png,0005-00-0001-98.png
14,433,1,1444663801188,1444663801901,937,424,0,0,0,2,3,1,23,0002-00-0000-87.png,0003-00-0004-63.png
14,434,1,1444663801934,1444663802260,921,393,0,0,0,1,2,1,12,0004-00-0003-15.png,0002-00-0006-36.png
14,435,0,1444663802294,1444663802882,350,410,0,0,0,2,1,1,21,0002-00-0006-41.png,0004-00-0004-28.png
14,436,1,1444663802904,1444663803212,350,423,0,0,0,3,2,1,32,0003-00-0004-20.png,0002-00-0003-36.png
14,437,0,1444663803242,1444663803589,925,386,0,0,0,5,4,1,54,0001-00-0009-49.png,0005-00-0000-23.png
14,438,1,1444663803617,1444663804109,341,431,0,0,0,4,3,1,43,0005-00-0005-92.png,0003-00-0003-45.png
14,439,1,1444663804135,1444663804440,408,419,0,0,0,5,4,1,54,0001-00-0003-57.png,0005-00-0002-64.png
14,440,0,1444663804461,1444663804675,931,401,0,0,0,3,4,1,34,0003-00-0008-04.png,0005-00-0008-78.png
14,441,0,1444663804707,1444663805208,367,402,0,0,0,3,2,1,32,0003-00-0009-02.png,0002-00-0004-58.png
14,442,1,1444663805232,1444663805439,350,410,0,0,0,5,4,1,54,0001-00-0009-30.png,0005-00-0008-10.png
14,443,1,1444663805466,1444663806012,923,378,0,0,0,4,3,1,43,0005-00-0006-69.png,0003-00-0006-64.png
14,444,1,1444663806038,1444663806681,887,502,0,0,0,3,4,1,34,0003-00-0004-44.png,0005-00-0004-10.png
14,445,1,1444663806706,1444663807176,914,397,0,0,0,2,3,1,23,0002-00-0007-38.png,0003-00-0006-38.png
14,446,1,1444663807221,1444663807647,319,435,0,0,0,2,1,1,21,0002-00-0001-96.png,0004-00-0008-09.png
14,447,0,1444663807685,1444663807936,911,398,0,0,0,1,2,1,12,0004-00-0007-33.png,0002-00-0000-17.png
14,448,0,1444663807985,1444663809001,286,433,0,0,0,5,4,1,54,0001-00-0001-99.png,0005-00-0009-03.png
14,449,1,1444663809029,1444663809497,301,395,0,0,0,3,4,1,34,0003-00-0004-49.png,0005-00-0004-01.png
14,450,0,1444663809538,1444663810138,363,397,0,0,0,2,1,1,21,0002-00-0002-42.png,0004-00-0006-07.png
14,451,0,1444663810174,1444663810927,907,474,0,0,0,1,2,1,12,0004-00-0003-88.png,0002-00-0004-55.png
14,452,0,1444663810968,1444663812170,363,526,0,0,0,4,3,1,43,0005-00-0005-13.png,0003-00-0001-53.png
14,453,1,1444663812189,1444663812564,943,392,0,0,0,3,2,1,32,0003-00-0002-75.png,0002-00-0005-89.png
14,454,0,1444663812587,1444663813146,344,374,0,0,0,5,4,1,54,0001-00-0008-67.png,0005-00-0003-15.png
14,455,1,1444663813172,1444663813682,922,394,0,0,0,5,4,1,54,0001-00-0009-59.png,0005-00-0003-40.png
14,456,1,1444663813703,1444663814855,859,373,0,0,0,2,3,1,23,0002-00-0009-90.png,0003-00-0007-62.png
14,457,0,1444663814881,1444663815116,504,473,0,0,0,1,2,1,12,0004-00-0002-86.png,0002-00-0003-40.png
14,458,1,1444663815146,1444663815808,952,410,0,0,0,3,4,1,34,0003-00-0008-30.png,0005-00-0009-88.png
14,459,1,1444663815837,1444663816150,924,427,0,0,0,3,2,1,32,0003-00-0000-67.png,0002-00-0002-76.png
14,460,1,1444663816206,1444663816919,876,423,0,0,0,2,1,1,21,0002-00-0008-31.png,0004-00-0003-73.png
14,461,0,1444663816944,1444663817236,976,385,0,0,0,5,4,1,54,0001-00-0000-19.png,0005-00-0001-95.png
14,462,0,1444663817256,1444663817790,337,501,0,0,0,4,3,1,43,0005-00-0000-30.png,0003-00-0004-49.png
14,463,1,1444663817819,1444663818351,927,391,0,0,0,5,4,1,54,0001-00-0008-49.png,0005-00-0002-08.png
14,464,0,1444663818397,1444663818940,383,402,0,0,0,2,3,1,23,0002-00-0005-90.png,0003-00-0000-72.png
14,465,1,1444663818970,1444663819376,314,416,0,0,0,3,4,1,34,0003-00-0002-93.png,0005-00-0000-06.png
14,466,1,1444663819407,1444663819656,881,426,0,0,0,2,1,1,21,0002-00-0006-54.png,0004-00-0002-71.png
14,467,0,1444663819689,1444663820787,383,455,0,0,0,5,4,1,54,0001-00-0000-32.png,0005-00-0009-08.png
14,468,1,1444663820813,1444663821277,882,501,0,0,0,3,2,1,32,0003-00-0003-68.png,0002-00-0005-55.png
14,469,1,1444663821302,1444663821644,348,403,0,0,0,4,3,1,43,0005-00-0007-96.png,0003-00-0001-21.png
14,470,1,1444663821665,1444663822140,317,401,0,0,0,5,4,1,54,0001-00-0002-83.png,0005-00-0000-68.png
14,471,1,1444663822172,1444663822481,350,423,0,0,0,1,2,1,12,0004-00-0005-10.png,0002-00-0005-07.png
14,472,0,1444663822513,1444663822716,901,397,0,0,0,2,3,1,23,0002-00-0005-15.png,0003-00-0005-42.png
14,473,0,1444663822739,1444663822953,939,424,0,0,0,2,1,1,21,0002-00-0007-83.png,0004-00-0008-23.png
14,474,0,1444663822992,1444663823355,394,427,0,0,0,3,2,1,32,0003-00-0003-81.png,0002-00-0000-64.png
14,475,0,1444663823390,1444663823625,895,420,0,0,0,5,4,1,54,0001-00-0000-56.png,0005-00-0008-49.png
14,476,1,1444663823652,1444663824072,933,422,0,0,0,5,4,1,54,0001-00-0004-08.png,0005-00-0001-30.png
14,477,1,1444663824100,1444663824228,890,510,0,0,0,4,3,1,43,0005-00-0006-54.png,0003-00-0009-57.png
14,478,0,1444663824260,1444663824492,350,420,0,0,0,1,2,1,12,0004-00-0008-11.png,0002-00-0001-55.png
14,479,1,1444663824529,1444663824997,900,409,0,0,0,3,4,1,34,0003-00-0005-96.png,0005-00-0001-31.png
14,480,1,1444663825027,1444663825704,299,423,0,0,0,2,3,1,23,0002-00-0005-98.png,0003-00-0005-08.png
14,481,0,1444663825736,1444663826562,857,501,0,0,0,4,3,1,43,0005-00-0003-01.png,0003-00-0000-89.png
14,482,0,1444663826580,1444663826901,909,500,0,0,0,5,4,1,54,0001-00-0004-22.png,0005-00-0005-44.png
14,483,0,1444663826935,1444663827136,938,424,0,0,0,2,1,1,21,0002-00-0006-63.png,0004-00-0002-33.png
14,484,0,1444663827166,1444663827739,870,498,0,0,0,1,2,1,12,0004-00-0009-91.png,0002-00-0004-68.png
14,485,1,1444663827774,1444663828290,896,498,0,0,0,3,2,1,32,0003-00-0006-31.png,0002-00-0005-45.png
14,486,1,1444663828322,1444663828824,338,416,0,0,0,5,4,1,54,0001-00-0008-39.png,0005-00-0001-86.png
14,487,0,1444663828844,1444663829157,927,409,0,0,0,3,4,1,34,0003-00-0004-76.png,0005-00-0007-59.png
14,488,1,1444663829178,1444663829391,401,410,0,0,0,2,3,1,23,0002-00-0008-27.png,0003-00-0008-72.png
14,489,1,1444663829413,1444663829822,351,425,0,0,0,4,3,1,43,0005-00-0005-37.png,0003-00-0001-03.png
14,490,1,1444663829864,1444663830310,299,409,0,0,0,3,4,1,34,0003-00-0008-18.png,0005-00-0004-49.png
14,491,1,1444663830336,1444663830691,930,402,0,0,0,1,2,1,12,0004-00-0004-02.png,0002-00-0001-86.png
14,492,1,1444663830721,1444663831029,926,423,0,0,0,2,1,1,21,0002-00-0007-91.png,0004-00-0002-77.png
14,493,0,1444663831054,1444663831577,359,388,0,0,0,5,4,1,54,0001-00-0005-50.png,0005-00-0001-37.png
14,494,0,1444663831617,1444663832126,900,476,0,0,0,2,3,1,23,0002-00-0001-68.png,0003-00-0008-28.png
14,495,1,1444663832158,1444663833104,870,342,0,0,0,5,4,1,54,0001-00-0003-23.png,0005-00-0009-13.png
14,496,0,1444663833157,1444663833273,322,417,0,0,0,3,2,1,32,0003-00-0000-62.png,0002-00-0000-99.png
14,497,0,1444663833308,1444663833624,870,366,0,0,0,5,4,1,54,0001-00-0009-77.png,0005-00-0003-41.png
14,498,1,1444663833653,1444663834390,284,405,0,0,0,5,4,1,54,0001-00-0009-22.png,0005-00-0009-60.png
14,499,1,1444663834445,1444663835045,312,396,0,0,0,4,3,1,43,0005-00-0001-11.png,0003-00-0000-79.png
14,500,0,1444663835073,1444663835279,304,355,0,0,0,2,3,1,23,0002-00-0001-15.png,0003-00-0001-31.png
14,501,1,1444663835304,1444663836133,352,428,0,0,0,1,2,1,12,0004-00-0001-36.png,0002-00-0006-18.png
14,502,1,1444663836175,1444663836659,874,510,0,0,0,3,2,1,32,0003-00-0003-31.png,0002-00-0002-04.png
14,503,0,1444663836690,1444663837002,376,548,0,0,0,2,1,1,21,0002-00-0006-45.png,0004-00-0005-91.png
14,504,0,1444663837019,1444663837761,927,424,0,0,0,3,4,1,34,0003-00-0002-65.png,0005-00-0000-80.png
14,505,1,1444663837782,1444663838302,416,544,0,0,0,1,2,1,12,0004-00-0000-54.png,0002-00-0006-89.png
14,506,1,1444663838332,1444663838647,925,436,0,0,0,4,3,1,43,0005-00-0005-30.png,0003-00-0005-33.png
14,507,1,1444663838691,1444663839210,930,427,0,0,0,5,4,1,54,0001-00-0009-10.png,0005-00-0004-37.png
14,508,0,1444663839234,1444663839407,927,408,0,0,0,5,4,1,54,0001-00-0003-12.png,0005-00-0003-73.png
14,509,1,1444663839437,1444663839711,363,435,0,0,0,3,4,1,34,0003-00-0006-83.png,0005-00-0003-16.png
14,510,0,1444663839736,1444663840175,925,397,0,0,0,3,2,1,32,0003-00-0003-51.png,0002-00-0004-45.png
14,511,0,1444663840194,1444663840506,954,390,0,0,0,2,3,1,23,0002-00-0009-46.png,0003-00-0002-48.png
14,512,0,1444663840535,1444663841130,314,441,0,0,0,2,1,1,21,0002-00-0002-19.png,0004-00-0006-80.png
14,513,0,1444663841158,1444663841675,386,514,0,0,0,4,3,1,43,0005-00-0002-04.png,0003-00-0008-82.png
14,514,1,1444663841711,1444663842511,879,480,0,0,0,1,2,1,12,0004-00-0009-33.png,0002-00-0004-87.png
14,515,1,1444663842538,1444663842714,947,401,0,0,0,3,4,1,34,0003-00-0005-70.png,0005-00-0009-56.png
14,516,0,1444663842749,1444663843201,347,417,0,0,0,5,4,1,54,0001-00-0002-51.png,0005-00-0003-28.png
14,517,0,1444663843222,1444663843713,928,415,0,0,0,5,4,1,54,0001-00-0009-79.png,0005-00-0008-02.png
14,518,1,1444663843752,1444663844073,861,476,0,0,0,2,1,1,21,0002-00-0004-70.png,0004-00-0003-40.png
14,519,0,1444663844094,1444663844553,376,424,0,0,0,3,2,1,32,0003-00-0006-67.png,0002-00-0008-47.png
14,520,1,1444663844574,1444663845013,338,416,0,0,0,2,3,1,23,0002-00-0000-03.png,0003-00-0004-69.png
14,521,0,1444663845039,1444663845314,350,414,0,0,0,5,4,1,54,0001-00-0005-95.png,0005-00-0008-10.png
14,522,1,1444663845344,1444663845839,901,436,0,0,0,3,2,1,32,0003-00-0008-05.png,0002-00-0009-04.png
14,523,0,1444663845863,1444663846428,873,507,0,0,0,3,4,1,34,0003-00-0007-80.png,0005-00-0005-49.png
14,524,0,1444663846455,1444663846939,401,410,0,0,0,5,4,1,54,0001-00-0003-88.png,0005-00-0007-28.png
14,525,0,1444663846956,1444663847373,877,376,0,0,0,1,2,1,12,0004-00-0009-28.png,0002-00-0009-22.png
14,526,1,1444663847407,1444663847663,911,424,0,0,0,2,1,1,21,0002-00-0009-30.png,0004-00-0001-87.png
14,527,1,1444663847695,1444663848189,350,436,0,0,0,2,3,1,23,0002-00-0002-24.png,0003-00-0003-42.png
14,528,0,1444663848223,1444663848548,363,424,0,0,0,4,3,1,43,0005-00-0006-05.png,0003-00-0006-36.png
14,529,1,1444663848591,1444663849767,883,485,0,0,0,4,3,1,43,0005-00-0005-03.png,0003-00-0007-99.png
14,530,1,1444663849788,1444663850229,931,428,0,0,0,3,4,1,34,0003-00-0008-07.png,0005-00-0003-28.png
14,531,0,1444663850249,1444663850579,324,439,0,0,0,1,2,1,12,0004-00-0009-13.png,0002-00-0006-87.png
14,532,1,1444663850607,1444663850934,323,404,0,0,0,2,3,1,23,0002-00-0007-68.png,0003-00-0001-10.png
14,533,1,1444663850973,1444663851380,401,424,0,0,0,2,1,1,21,0002-00-0003-68.png,0004-00-0001-77.png
14,534,0,1444663851407,1444663851661,376,384,0,0,0,5,4,1,54,0001-00-0007-25.png,0005-00-0006-30.png
14,535,1,1444663851696,1444663852032,888,499,0,0,0,3,2,1,32,0003-00-0005-15.png,0002-00-0008-18.png
14,536,1,1444663852076,1444663853188,948,392,0,0,0,5,4,1,54,0001-00-0008-50.png,0005-00-0009-10.png
14,537,0,1444663853225,1444663854240,350,410,0,0,0,5,4,1,54,0001-00-0004-99.png,0005-00-0001-80.png
14,538,1,1444663854269,1444663854592,925,411,0,0,0,2,1,1,21,0002-00-0000-89.png,0004-00-0008-29.png
14,539,0,1444663854619,1444663855094,360,398,0,0,0,5,4,1,54,0001-00-0004-70.png,0005-00-0007-25.png
14,540,0,1444663855124,1444663855507,914,423,0,0,0,3,2,1,32,0003-00-0007-34.png,0002-00-0006-55.png
14,541,0,1444663855551,1444663856033,898,431,0,0,0,4,3,1,43,0005-00-0001-38.png,0003-00-0001-43.png
14,542,0,1444663856072,1444663856262,403,470,0,0,0,3,4,1,34,0003-00-0001-44.png,0005-00-0008-24.png
14,543,0,1444663856291,1444663856740,376,513,0,0,0,1,2,1,12,0004-00-0002-28.png,0002-00-0000-28.png
14,544,0,1444663856775,1444663857306,891,441,0,0,0,2,3,1,23,0002-00-0005-96.png,0003-00-0000-70.png
14,545,0,1444663857332,1444663858056,293,385,0,0,0,3,2,1,32,0003-00-0008-93.png,0002-00-0008-44.png
14,546,0,1444663858080,1444663858643,942,412,0,0,0,2,3,1,23,0002-00-0009-99.png,0003-00-0005-89.png
14,547,1,1444663858675,1444663859641,937,424,0,0,0,1,2,1,12,0004-00-0009-49.png,0002-00-0000-25.png
14,548,1,1444663859677,1444663860166,927,425,0,0,0,5,4,1,54,0001-00-0002-88.png,0005-00-0009-33.png
14,549,1,1444663860199,1444663861560,934,422,0,0,0,5,4,1,54,0001-00-0002-71.png,0005-00-0007-38.png
14,550,1,1444663861592,1444663862119,334,422,0,0,0,4,3,1,43,0005-00-0004-90.png,0003-00-0007-54.png
14,551,0,1444663862140,1444663862597,951,423,0,0,0,3,4,1,34,0003-00-0006-39.png,0005-00-0001-84.png
14,552,0,1444663862618,1444663863231,319,426,0,0,0,2,1,1,21,0002-00-0009-70.png,0004-00-0001-64.png
14,553,1,1444663863251,1444663863613,926,409,0,0,0,5,4,1,54,0001-00-0002-34.png,0005-00-0003-19.png
14,554,1,1444663863647,1444663863915,875,371,0,0,0,5,4,1,54,0001-00-0008-32.png,0005-00-0006-51.png
14,555,1,1444663863936,1444663864120,893,510,0,0,0,3,4,1,34,0003-00-0002-23.png,0005-00-0007-67.png
14,556,0,1444663864158,1444663864707,376,410,0,0,0,4,3,1,43,0005-00-0009-65.png,0003-00-0002-84.png
14,557,0,1444663864750,1444663865214,350,372,0,0,0,3,2,1,32,0003-00-0002-47.png,0002-00-0006-44.png
14,558,0,1444663865252,1444663865854,392,428,0,0,0,2,3,1,23,0002-00-0005-37.png,0003-00-0005-04.png
14,559,1,1444663865886,1444663866388,338,436,0,0,0,2,1,1,21,0002-00-0005-30.png,0004-00-0007-04.png
14,560,1,1444663866409,1444663866806,900,424,0,0,0,1,2,1,12,0004-00-0009-05.png,0002-00-0008-37.png
14,561,0,1444663866837,1444663867254,925,396,0,0,0,5,4,1,54,0001-00-0001-31.png,0005-00-0006-35.png
14,562,0,1444663867303,1444663868794,425,444,0,0,0,5,4,1,54,0001-00-0000-47.png,0005-00-0007-24.png
14,563,1,1444663868821,1444663869127,925,411,0,0,0,2,3,1,23,0002-00-0000-82.png,0003-00-0009-20.png
14,564,1,1444663869163,1444663869397,478,500,0,0,0,1,2,1,12,0004-00-0007-53.png,0002-00-0009-05.png
14,565,1,1444663869426,1444663869825,403,432,0,0,0,3,2,1,32,0003-00-0000-29.png,0002-00-0001-59.png
14,566,1,1444663869852,1444663870324,903,524,0,0,0,4,3,1,43,0005-00-0009-17.png,0003-00-0001-72.png
14,567,0,1444663870362,1444663870811,948,406,0,0,0,2,1,1,21,0002-00-0007-82.png,0004-00-0006-86.png
14,568,1,1444663870833,1444663871038,367,509,0,0,0,3,4,1,34,0003-00-0002-28.png,0005-00-0004-46.png
14,569,1,1444663871093,1444663871497,879,361,0,0,0,2,3,1,23,0002-00-0000-47.png,0003-00-0007-45.png
14,570,1,1444663871541,1444663871822,880,505,0,0,0,2,1,1,21,0002-00-0008-19.png,0004-00-0005-89.png
14,571,1,1444663871860,1444663872236,294,436,0,0,0,4,3,1,43,0005-00-0009-38.png,0003-00-0004-30.png
14,572,1,1444663872267,1444663872688,928,412,0,0,0,5,4,1,54,0001-00-0005-69.png,0005-00-0004-47.png
14,573,1,1444663872712,1444663873137,317,427,0,0,0,1,2,1,12,0004-00-0009-83.png,0002-00-0003-22.png
14,574,1,1444663873164,1444663873394,350,423,0,0,0,3,2,1,32,0003-00-0009-95.png,0002-00-0008-89.png
14,575,0,1444663873418,1444663873815,914,398,0,0,0,3,4,1,34,0003-00-0002-93.png,0005-00-0001-14.png
14,576,0,1444663873846,1444663874194,342,422,0,0,0,5,4,1,54,0001-00-0004-23.png,0005-00-0000-56.png
14,577,1,1444663874236,1444663874759,325,409,0,0,0,2,1,1,21,0002-00-0002-62.png,0004-00-0003-31.png
14,578,0,1444663874784,1444663875279,919,410,0,0,0,2,3,1,23,0002-00-0001-25.png,0003-00-0008-68.png
14,579,1,1444663875307,1444663875496,915,415,0,0,0,5,4,1,54,0001-00-0002-07.png,0005-00-0004-50.png
14,580,0,1444663875542,1444663875998,915,397,0,0,0,1,2,1,12,0004-00-0002-89.png,0002-00-0008-18.png
14,581,0,1444663876028,1444663876518,924,405,0,0,0,3,4,1,34,0003-00-0007-82.png,0005-00-0007-10.png
14,582,0,1444663876540,1444663877411,331,442,0,0,0,3,2,1,32,0003-00-0001-74.png,0002-00-0001-92.png
14,583,1,1444663877437,1444663877868,339,429,0,0,0,4,3,1,43,0005-00-0009-90.png,0003-00-0001-07.png
14,584,1,1444663877901,1444663878237,889,423,0,0,0,5,4,1,54,0001-00-0003-00.png,0005-00-0002-42.png
14,585,1,1444663878265,1444663878721,900,397,0,0,0,4,3,1,43,0005-00-0001-28.png,0003-00-0000-53.png
14,586,1,1444663878756,1444663879010,905,402,0,0,0,3,2,1,32,0003-00-0001-79.png,0002-00-0008-67.png
14,587,0,1444663879039,1444663879294,320,430,0,0,0,3,4,1,34,0003-00-0005-94.png,0005-00-0001-22.png
14,588,0,1444663879333,1444663879646,309,437,0,0,0,2,3,1,23,0002-00-0000-36.png,0003-00-0005-11.png
14,589,1,1444663879667,1444663880011,886,483,0,0,0,5,4,1,54,0001-00-0006-25.png,0005-00-0000-41.png
14,590,1,1444663880072,1444663881041,894,506,0,0,0,1,2,1,12,0004-00-0009-46.png,0002-00-0009-50.png
14,591,0,1444663881073,1444663881705,390,410,0,0,0,2,1,1,21,0002-00-0006-26.png,0004-00-0005-93.png
14,592,1,1444663881728,1444663882401,401,397,0,0,0,5,4,1,54,0001-00-0007-48.png,0005-00-0002-24.png
14,593,0,1444663882430,1444663882692,319,406,0,0,0,4,3,1,43,0005-00-0006-38.png,0003-00-0006-84.png
14,594,1,1444663882744,1444663883415,504,395,0,0,0,1,2,1,12,0004-00-0003-17.png,0002-00-0001-19.png
14,595,1,1444663883447,1444663883955,248,472,0,0,0,2,1,1,21,0002-00-0004-32.png,0004-00-0009-26.png
14,596,0,1444663883977,1444663884804,291,419,0,0,0,5,4,1,54,0001-00-0001-76.png,0005-00-0005-59.png
14,597,1,1444663884824,1444663885950,376,410,0,0,0,2,3,1,23,0002-00-0000-01.png,0003-00-0008-45.png
14,598,1,1444663885976,1444663886164,952,409,0,0,0,3,2,1,32,0003-00-0009-62.png,0002-00-0000-20.png
14,599,1,1444663886190,1444663886552,350,423,0,0,0,3,4,1,34,0003-00-0008-11.png,0005-00-0001-40.png
14,600,0,1444663886580,1444663887229,375,384,0,0,0,5,4,1,54,0001-00-0002-46.png,0005-00-0001-86.png
14,601,1,1444663887271,1444663887440,862,503,0,0,0,4,3,1,43,0005-00-0002-88.png,0003-00-0003-57.png
14,602,1,1444663887486,1444663887889,327,404,0,0,0,5,4,1,54,0001-00-0005-22.png,0005-00-0009-63.png
14,603,0,1444663887932,1444663888137,376,423,0,0,0,2,3,1,23,0002-00-0000-01.png,0003-00-0008-94.png
14,604,0,1444663888169,1444663888666,922,420,0,0,0,3,2,1,32,0003-00-0001-70.png,0002-00-0003-96.png
14,605,0,1444663888695,1444663889167,899,516,0,0,0,2,1,1,21,0002-00-0007-01.png,0004-00-0008-65.png
14,606,1,1444663889203,1444663889815,376,462,0,0,0,3,4,1,34,0003-00-0005-94.png,0005-00-0004-74.png
14,607,1,1444663889851,1444663890093,368,428,0,0,0,5,4,1,54,0001-00-0006-26.png,0005-00-0007-85.png
14,608,1,1444663890122,1444663890463,873,509,0,0,0,1,2,1,12,0004-00-0003-09.png,0002-00-0006-58.png
14,609,1,1444663890491,1444663890818,376,397,0,0,0,3,4,1,34,0003-00-0005-03.png,0005-00-0007-26.png
14,610,1,1444663890852,1444663891157,926,437,0,0,0,2,1,1,21,0002-00-0005-34.png,0004-00-0005-33.png
14,611,1,1444663891207,1444663891498,882,526,0,0,0,5,4,1,54,0001-00-0002-29.png,0005-00-0001-39.png
14,612,1,1444663891530,1444663891677,875,502,0,0,0,1,2,1,12,0004-00-0004-46.png,0002-00-0009-21.png
14,613,0,1444663891699,1444663891982,401,423,0,0,0,4,3,1,43,0005-00-0006-04.png,0003-00-0002-43.png
14,614,0,1444663892016,1444663892296,393,438,0,0,0,2,3,1,23,0002-00-0004-98.png,0003-00-0007-70.png
14,615,1,1444663892327,1444663892508,920,403,0,0,0,5,4,1,54,0001-00-0008-27.png,0005-00-0007-79.png
14,616,1,1444663892533,1444663893179,340,378,0,0,0,3,2,1,32,0003-00-0005-41.png,0002-00-0006-47.png
14,617,0,1444663893198,1444663893948,293,410,0,0,0,4,3,1,43,0005-00-0000-06.png,0003-00-0000-57.png
14,618,0,1444663893983,1444663894535,906,417,0,0,0,5,4,1,54,0001-00-0004-74.png,0005-00-0003-14.png
14,619,0,1444663894564,1444663895121,372,426,0,0,0,5,4,1,54,0001-00-0008-25.png,0005-00-0004-08.png
14,620,1,1444663895155,1444663895455,911,424,0,0,0,2,1,1,21,0002-00-0004-55.png,0004-00-0003-10.png
14,621,1,1444663895491,1444663895969,401,397,0,0,0,3,2,1,32,0003-00-0004-38.png,0002-00-0000-69.png
14,622,1,1444663895995,1444663896374,922,394,0,0,0,1,2,1,12,0004-00-0009-41.png,0002-00-0006-79.png
14,623,1,1444663896402,1444663897176,892,475,0,0,0,2,3,1,23,0002-00-0003-53.png,0003-00-0004-30.png
14,624,0,1444663897206,1444663897503,507,446,0,0,0,3,4,1,34,0003-00-0003-42.png,0005-00-0000-59.png
14,625,1,1444663897544,1444663898142,926,423,0,0,0,5,4,1,54,0001-00-0001-94.png,0005-00-0009-96.png
14,626,0,1444663898178,1444663898452,282,413,0,0,0,2,3,1,23,0002-00-0008-10.png,0003-00-0004-31.png
14,627,0,1444663898478,1444663898827,898,431,0,0,0,3,4,1,34,0003-00-0000-96.png,0005-00-0004-86.png
14,628,1,1444663898848,1444663899102,875,345,0,0,0,3,2,1,32,0003-00-0001-46.png,0002-00-0004-48.png
14,629,1,1444663899142,1444663899766,331,401,0,0,0,4,3,1,43,0005-00-0006-41.png,0003-00-0003-12.png
14,630,1,1444663899792,1444663900392,222,481,0,0,0,5,4,1,54,0001-00-0007-87.png,0005-00-0007-89.png
14,631,0,1444663900423,1444663900690,923,404,0,0,0,1,2,1,12,0004-00-0005-64.png,0002-00-0000-86.png
14,632,1,1444663900714,1444663901294,926,397,0,0,0,2,1,1,21,0002-00-0002-18.png,0004-00-0002-37.png
14,633,1,1444663901324,1444663902176,401,439,0,0,0,3,4,1,34,0003-00-0005-48.png,0005-00-0000-65.png
14,634,0,1444663902206,1444663902779,325,436,0,0,0,5,4,1,54,0001-00-0001-59.png,0005-00-0009-86.png
14,635,1,1444663902819,1444663903023,350,423,0,0,0,4,3,1,43,0005-00-0007-05.png,0003-00-0008-07.png
14,636,1,1444663903051,1444663903473,899,386,0,0,0,1,2,1,12,0004-00-0001-53.png,0002-00-0001-38.png
14,637,1,1444663903500,1444663903932,896,419,0,0,0,3,2,1,32,0003-00-0005-94.png,0002-00-0003-39.png
14,638,1,1444663903967,1444663904571,377,457,0,0,0,5,4,1,54,0001-00-0007-56.png,0005-00-0009-09.png
14,639,1,1444663904612,1444663905131,316,432,0,0,0,2,3,1,23,0002-00-0001-82.png,0003-00-0002-06.png
14,640,1,1444663905148,1444663905945,927,409,0,0,0,2,1,1,21,0002-00-0004-62.png,0004-00-0003-40.png
14,641,0,1444663905977,1444663906622,350,423,0,0,0,5,4,1,54,0001-00-0002-39.png,0005-00-0001-22.png
14,642,1,1444663906644,1444663907249,364,443,0,0,0,2,1,1,21,0002-00-0007-87.png,0004-00-0009-68.png
14,643,1,1444663907278,1444663907880,315,412,0,0,0,5,4,1,54,0001-00-0006-04.png,0005-00-0009-36.png
14,644,0,1444663907911,1444663908780,862,384,0,0,0,2,3,1,23,0002-00-0009-40.png,0003-00-0006-38.png
14,645,1,1444663908806,1444663909290,438,423,0,0,0,1,2,1,12,0004-00-0008-69.png,0002-00-0007-16.png
14,646,0,1444663909327,1444663909623,926,435,0,0,0,3,4,1,34,0003-00-0005-63.png,0005-00-0004-17.png
14,647,1,1444663909651,1444663910155,929,417,0,0,0,4,3,1,43,0005-00-0004-28.png,0003-00-0009-37.png
14,648,0,1444663910187,1444663910554,376,410,0,0,0,3,2,1,32,0003-00-0001-08.png,0002-00-0005-03.png
14,649,1,1444663910601,1444663911321,861,415,0,0,0,5,4,1,54,0001-00-0002-71.png,0005-00-0009-25.png
14,650,1,1444663911341,1444663912512,936,416,0,0,0,5,4,1,54,0001-00-0001-94.png,0005-00-0004-10.png
14,651,0,1444663912549,1444663912861,927,409,0,0,0,3,2,1,32,0003-00-0004-89.png,0002-00-0006-00.png
14,652,0,1444663912899,1444663913493,350,398,0,0,0,3,4,1,34,0003-00-0004-00.png,0005-00-0001-32.png
14,653,0,1444663913514,1444663913800,901,424,0,0,0,4,3,1,43,0005-00-0006-04.png,0003-00-0002-06.png
14,654,0,1444663913824,1444663914432,393,403,0,0,0,2,1,1,21,0002-00-0007-56.png,0004-00-0006-27.png
14,655,1,1444663914460,1444663914756,907,433,0,0,0,2,3,1,23,0002-00-0009-57.png,0003-00-0002-71.png
14,656,1,1444663914793,1444663914965,399,414,0,0,0,1,2,1,12,0004-00-0003-69.png,0002-00-0007-58.png
14,657,1,1444663915016,1444663915319,299,423,0,0,0,4,3,1,43,0005-00-0001-80.png,0003-00-0002-92.png
14,658,1,1444663915342,1444663915792,896,431,0,0,0,5,4,1,54,0001-00-0007-79.png,0005-00-0004-13.png
14,659,0,1444663915825,1444663916062,920,428,0,0,0,1,2,1,12,0004-00-0002-60.png,0002-00-0002-26.png
14,660,1,1444663916086,1444663916467,334,436,0,0,0,3,4,1,34,0003-00-0001-47.png,0005-00-0008-96.png
14,661,1,1444663916497,1444663917075,323,449,0,0,0,2,3,1,23,0002-00-0001-68.png,0003-00-0002-75.png
14,662,0,1444663917102,1444663917307,316,428,0,0,0,2,1,1,21,0002-00-0001-29.png,0004-00-0006-78.png
14,663,1,1444663917323,1444663917870,953,410,0,0,0,3,2,1,32,0003-00-0009-00.png,0002-00-0008-64.png
14,664,1,1444663917910,1444663918990,945,416,0,0,0,5,4,1,54,0001-00-0009-52.png,0005-00-0000-19.png
14,665,1,1444663919021,1444663920408,401,424,0,0,0,2,3,1,23,0002-00-0004-95.png,0003-00-0003-89.png
14,666,1,1444663920448,1444663920945,427,448,0,0,0,5,4,1,54,0001-00-0002-15.png,0005-00-0003-86.png
14,667,1,1444663920969,1444663921419,905,376,0,0,0,4,3,1,43,0005-00-0008-79.png,0003-00-0002-73.png
14,668,1,1444663921446,1444663921909,325,421,0,0,0,5,4,1,54,0001-00-0005-01.png,0005-00-0007-49.png
14,669,1,1444663921946,1444663922454,896,498,0,0,0,1,2,1,12,0004-00-0009-37.png,0002-00-0003-65.png
14,670,0,1444663922476,1444663923252,877,417,0,0,0,3,2,1,32,0003-00-0003-01.png,0002-00-0009-44.png
14,671,1,1444663923270,1444663924655,507,439,0,0,0,3,4,1,34,0003-00-0007-69.png,0005-00-0002-15.png
14,672,0,1444663924682,1444663924930,938,398,0,0,0,2,1,1,21,0002-00-0007-36.png,0004-00-0002-54.png
14,673,1,1444663924963,1444663925644,913,398,0,0,0,1,2,1,12,0004-00-0006-13.png,0002-00-0008-74.png
14,674,1,1444663925690,1444663926254,869,524,0,0,0,4,3,1,43,0005-00-0000-90.png,0003-00-0003-34.png
14,675,1,1444663926295,1444663926626,927,384,0,0,0,3,4,1,34,0003-00-0006-03.png,0005-00-0005-44.png
14,676,1,1444663926660,1444663926871,930,402,0,0,0,2,1,1,21,0002-00-0004-66.png,0004-00-0008-43.png
14,677,0,1444663926893,1444663927387,364,518,0,0,0,5,4,1,54,0001-00-0008-35.png,0005-00-0003-99.png
14,678,1,1444663927421,1444663927822,888,476,0,0,0,3,2,1,32,0003-00-0008-96.png,0002-00-0008-82.png
14,679,1,1444663927849,1444663928077,861,372,0,0,0,5,4,1,54,0001-00-0006-03.png,0005-00-0004-54.png
14,680,0,1444663928096,1444663928885,921,393,0,0,0,2,3,1,23,0002-00-0005-51.png,0003-00-0005-59.png
14,681,1,1444663928930,1444663929511,288,397,0,0,0,5,4,1,54,0001-00-0005-45.png,0005-00-0003-95.png
14,682,0,1444663929531,1444663929747,322,404,0,0,0,2,1,1,21,0002-00-0005-58.png,0004-00-0002-46.png
14,683,1,1444663929791,1444663930637,376,410,0,0,0,2,3,1,23,0002-00-0004-33.png,0003-00-0007-54.png
14,684,0,1444663930653,1444663930965,925,413,0,0,0,3,2,1,32,0003-00-0005-14.png,0002-00-0003-90.png
14,685,1,1444663931001,1444663931618,874,507,0,0,0,1,2,1,12,0004-00-0009-87.png,0002-00-0003-55.png
14,686,1,1444663931646,1444663931962,901,408,0,0,0,3,4,1,34,0003-00-0004-02.png,0005-00-0007-19.png
14,687,0,1444663931983,1444663932092,871,392,0,0,0,4,3,1,43,0005-00-0008-62.png,0003-00-0007-46.png
14,688,0,1444663932124,1444663932934,442,443,0,0,0,5,4,1,54,0001-00-0007-16.png,0005-00-0008-74.png
14,689,0,1444663932955,1444663933315,355,390,0,0,0,4,3,1,43,0005-00-0007-78.png,0003-00-0004-64.png
14,690,0,1444663933338,1444663933610,896,523,0,0,0,2,1,1,21,0002-00-0002-52.png,0004-00-0006-57.png
14,691,1,1444663933642,1444663934162,299,436,0,0,0,3,2,1,32,0003-00-0002-56.png,0002-00-0002-71.png
14,692,1,1444663934189,1444663934522,401,422,0,0,0,1,2,1,12,0004-00-0001-50.png,0002-00-0005-27.png
14,693,1,1444663934542,1444663935175,920,403,0,0,0,2,3,1,23,0002-00-0004-34.png,0003-00-0008-97.png
14,694,1,1444663935200,1444663935816,356,430,0,0,0,5,4,1,54,0001-00-0004-32.png,0005-00-0001-54.png
14,695,1,1444663935837,1444663936545,318,419,0,0,0,3,4,1,34,0003-00-0009-24.png,0005-00-0002-60.png
14,696,1,1444663936582,1444663936882,893,510,0,0,0,5,4,1,54,0001-00-0001-83.png,0005-00-0004-78.png
14,697,1,1444663936934,1444663937290,907,392,0,0,0,2,1,1,21,0002-00-0009-59.png,0004-00-0005-76.png
14,698,1,1444663937324,1444663937742,949,434,0,0,0,5,4,1,54,0001-00-0000-54.png,0005-00-0008-55.png
14,699,1,1444663937773,1444663938098,389,423,0,0,0,1,2,1,12,0004-00-0002-47.png,0002-00-0005-94.png
14,700,1,1444663938125,1444663939086,363,427,0,0,0,5,4,1,54,0001-00-0005-71.png,0005-00-0006-31.png
14,701,0,1444663939120,1444663939755,398,537,0,0,0,3,4,1,34,0003-00-0002-02.png,0005-00-0007-74.png
14,702,0,1444663939796,1444663940054,930,375,0,0,0,4,3,1,43,0005-00-0003-67.png,0003-00-0001-85.png
14,703,0,1444663940075,1444663940395,408,421,0,0,0,2,3,1,23,0002-00-0009-91.png,0003-00-0008-29.png
14,704,1,1444663940420,1444663940517,906,506,0,0,0,3,2,1,32,0003-00-0009-73.png,0002-00-0007-65.png
14,705,0,1444663940549,1444663942036,384,419,0,0,0,1,2,1,12,0004-00-0000-44.png,0002-00-0005-38.png
14,706,1,1444663942066,1444663942962,376,436,0,0,0,5,4,1,54,0001-00-0007-49.png,0005-00-0004-06.png
14,707,1,1444663943017,1444663943316,918,416,0,0,0,3,4,1,34,0003-00-0009-57.png,0005-00-0000-37.png
14,708,1,1444663943339,1444663943964,349,408,0,0,0,3,2,1,32,0003-00-0001-24.png,0002-00-0008-38.png
14,709,0,1444663943994,1444663944920,943,443,0,0,0,4,3,1,43,0005-00-0007-39.png,0003-00-0008-74.png
14,710,1,1444663944970,1444663945207,325,413,0,0,0,2,3,1,23,0002-00-0002-70.png,0003-00-0006-77.png
14,711,1,1444663945235,1444663946082,900,410,0,0,0,2,1,1,21,0002-00-0002-65.png,0004-00-0008-47.png
14,712,1,1444663946107,1444663946459,920,416,0,0,0,5,4,1,54,0001-00-0009-93.png,0005-00-0007-84.png
14,713,1,1444663946495,1444663946953,901,435,0,0,0,2,1,1,21,0002-00-0005-04.png,0004-00-0003-20.png
14,714,0,1444663946972,1444663947515,401,451,0,0,0,1,2,1,12,0004-00-0006-53.png,0002-00-0006-24.png
14,715,1,1444663947543,1444663947694,902,416,0,0,0,3,4,1,34,0003-00-0008-16.png,0005-00-0008-11.png
14,716,0,1444663947726,1444663948321,393,428,0,0,0,2,3,1,23,0002-00-0007-60.png,0003-00-0005-99.png
14,717,0,1444663948348,1444663948615,912,450,0,0,0,4,3,1,43,0005-00-0008-26.png,0003-00-0006-46.png
14,718,1,1444663948644,1444663949856,905,428,0,0,0,5,4,1,54,0001-00-0002-93.png,0005-00-0000-74.png
14,719,1,1444663949884,1444663950476,388,423,0,0,0,5,4,1,54,0001-00-0008-63.png,0005-00-0002-02.png
14,720,0,1444663950497,1444663951034,350,398,0,0,0,3,2,1,32,0003-00-0008-55.png,0002-00-0007-59.png
14,721,0,1444663951059,1444663951599,401,398,0,0,0,2,1,1,21,0002-00-0004-36.png,0004-00-0001-78.png
14,722,1,1444663951642,1444663952107,902,442,0,0,0,3,4,1,34,0003-00-0003-57.png,0005-00-0009-76.png
14,723,0,1444663952135,1444663952703,363,397,0,0,0,4,3,1,43,0005-00-0005-97.png,0003-00-0008-24.png
14,724,1,1444663952729,1444663952922,878,520,0,0,0,2,3,1,23,0002-00-0003-65.png,0003-00-0007-87.png
14,725,1,1444663952953,1444663953273,876,517,0,0,0,5,4,1,54,0001-00-0009-23.png,0005-00-0001-80.png
14,726,1,1444663953296,1444663954022,953,424,0,0,0,3,2,1,32,0003-00-0001-07.png,0002-00-0009-45.png
14,727,1,1444663954046,1444663954412,909,421,0,0,0,5,4,1,54,0001-00-0001-18.png,0005-00-0008-05.png
14,728,1,1444663954442,1444663955261,951,397,0,0,0,1,2,1,12,0004-00-0008-78.png,0002-00-0001-11.png
14,729,1,1444663955282,1444663955912,336,394,0,0,0,2,3,1,23,0002-00-0002-13.png,0003-00-0009-77.png
14,730,0,1444663955941,1444663956754,523,467,0,0,0,5,4,1,54,0001-00-0009-01.png,0005-00-0007-22.png
14,731,0,1444663956789,1444663957657,938,423,0,0,0,4,3,1,43,0005-00-0007-21.png,0003-00-0005-65.png
14,732,0,1444663957684,1444663958055,937,460,0,0,0,2,1,1,21,0002-00-0005-51.png,0004-00-0007-11.png
14,733,1,1444663958095,1444663959286,924,455,0,0,0,5,4,1,54,0001-00-0001-05.png,0005-00-0004-62.png
14,734,1,1444663959313,1444663959580,303,437,0,0,0,3,4,1,34,0003-00-0000-65.png,0005-00-0007-20.png
14,735,0,1444663959597,1444663960125,393,427,0,0,0,3,2,1,32,0003-00-0002-28.png,0002-00-0008-83.png
14,736,0,1444663960169,1444663960824,312,436,0,0,0,1,2,1,12,0004-00-0005-71.png,0002-00-0004-15.png
14,737,1,1444663960851,1444663961033,936,424,0,0,0,3,2,1,32,0003-00-0002-65.png,0002-00-0007-01.png
14,738,1,1444663961070,1444663961939,926,449,0,0,0,4,3,1,43,0005-00-0008-91.png,0003-00-0003-50.png
14,739,0,1444663961982,1444663962447,930,443,0,0,0,1,2,1,12,0004-00-0000-36.png,0002-00-0008-05.png
14,740,0,1444663962478,1444663963054,404,425,0,0,0,5,4,1,54,0001-00-0000-29.png,0005-00-0004-78.png
14,741,0,1444663963099,1444663963261,350,514,0,0,0,3,4,1,34,0003-00-0006-66.png,0005-00-0005-82.png
14,742,0,1444663963291,1444663963560,914,397,0,0,0,2,1,1,21,0002-00-0006-56.png,0004-00-0004-33.png
14,743,0,1444663963596,1444663964373,401,424,0,0,0,5,4,1,54,0001-00-0002-76.png,0005-00-0002-97.png
14,744,0,1444663964393,1444663965087,383,419,0,0,0,2,3,1,23,0002-00-0007-67.png,0003-00-0003-94.png
14,745,0,1444663965115,1444663966386,336,441,0,0,0,3,4,1,34,0003-00-0003-50.png,0005-00-0004-05.png
14,746,0,1444663966407,1444663966745,338,424,0,0,0,5,4,1,54,0001-00-0008-30.png,0005-00-0004-73.png
14,747,0,1444663966779,1444663967621,376,548,0,0,0,1,2,1,12,0004-00-0003-98.png,0002-00-0008-48.png
14,748,0,1444663967651,1444663968568,896,420,0,0,0,4,3,1,43,0005-00-0009-40.png,0003-00-0000-57.png
14,749,0,1444663968587,1444663969143,401,371,0,0,0,2,3,1,23,0002-00-0001-90.png,0003-00-0009-28.png
14,750,1,1444663969180,1444663969348,904,427,0,0,0,5,4,1,54,0001-00-0003-35.png,0005-00-0002-73.png
14,751,1,1444663969381,1444663969996,369,470,0,0,0,3,2,1,32,0003-00-0002-78.png,0002-00-0007-49.png
14,752,0,1444663970019,1444663970374,900,437,0,0,0,2,1,1,21,0002-00-0008-99.png,0004-00-0006-98.png
14,753,0,1444663970416,1444663970652,413,424,0,0,0,4,3,1,43,0005-00-0004-20.png,0003-00-0007-96.png
14,754,0,1444663970683,1444663971180,324,442,0,0,0,1,2,1,12,0004-00-0006-81.png,0002-00-0003-19.png
14,755,1,1444663971203,1444663971710,889,425,0,0,0,5,4,1,54,0001-00-0008-89.png,0005-00-0007-71.png
14,756,1,1444663971751,1444663972421,908,448,0,0,0,3,4,1,34,0003-00-0001-00.png,0005-00-0004-91.png
14,757,0,1444663972443,1444663972687,485,391,0,0,0,3,2,1,32,0003-00-0001-99.png,0002-00-0009-49.png
14,758,0,1444663972715,1444663973134,947,394,0,0,0,5,4,1,54,0001-00-0006-66.png,0005-00-0007-75.png
14,759,1,1444663973157,1444663973430,401,423,0,0,0,2,3,1,23,0002-00-0007-54.png,0003-00-0009-24.png
14,760,1,1444663973460,1444663973710,325,410,0,0,0,2,1,1,21,0002-00-0003-27.png,0004-00-0002-42.png
14,761,1,1444663973758,1444663974044,889,413,0,0,0,3,2,1,32,0003-00-0003-44.png,0002-00-0009-46.png
14,762,1,1444663974070,1444663974560,363,410,0,0,0,2,1,1,21,0002-00-0006-24.png,0004-00-0009-30.png
14,763,1,1444663974585,1444663975186,923,432,0,0,0,5,4,1,54,0001-00-0003-74.png,0005-00-0006-87.png
14,764,1,1444663975206,1444663975558,356,410,0,0,0,3,4,1,34,0003-00-0001-89.png,0005-00-0007-63.png
14,765,1,1444663975587,1444663976093,381,401,0,0,0,1,2,1,12,0004-00-0008-13.png,0002-00-0009-20.png
14,766,0,1444663976121,1444663976326,922,446,0,0,0,4,3,1,43,0005-00-0006-49.png,0003-00-0000-27.png
14,767,0,1444663976358,1444663976643,877,443,0,0,0,2,3,1,23,0002-00-0006-75.png,0003-00-0005-91.png
14,768,1,1444663976663,1444663977055,373,426,0,0,0,5,4,1,54,0001-00-0004-63.png,0005-00-0001-40.png
14,769,1,1444663977100,1444663977631,339,449,0,0,0,1,2,1,12,0004-00-0007-71.png,0002-00-0003-67.png
14,770,0,1444663977653,1444663978019,887,502,0,0,0,5,4,1,54,0001-00-0002-41.png,0005-00-0000-00.png
14,771,1,1444663978038,1444663978558,325,449,0,0,0,2,3,1,23,0002-00-0001-07.png,0003-00-0008-11.png
14,772,0,1444663978583,1444663978896,331,440,0,0,0,4,3,1,43,0005-00-0002-45.png,0003-00-0007-96.png
14,773,1,1444663978939,1444663979297,383,445,0,0,0,2,1,1,21,0002-00-0009-70.png,0004-00-0003-19.png
14,774,1,1444663979324,1444663979758,912,399,0,0,0,3,2,1,32,0003-00-0003-84.png,0002-00-0004-21.png
14,775,1,1444663979782,1444663980080,899,411,0,0,0,3,4,1,34,0003-00-0001-96.png,0005-00-0001-18.png
14,776,1,1444663980104,1444663980393,414,450,0,0,0,5,4,1,54,0001-00-0003-84.png,0005-00-0004-46.png
14,777,0,1444663980412,1444663980841,371,387,0,0,0,5,4,1,54,0001-00-0000-17.png,0005-00-0002-05.png
14,778,0,1444663980865,1444663981501,383,428,0,0,0,3,4,1,34,0003-00-0006-78.png,0005-00-0009-74.png
14,779,1,1444663981534,1444663982384,390,435,0,0,0,4,3,1,43,0005-00-0004-93.png,0003-00-0002-57.png
14,780,0,1444663982407,1444663982682,410,562,0,0,0,3,2,1,32,0003-00-0006-61.png,0002-00-0005-66.png
14,781,1,1444663982711,1444663983967,339,414,0,0,0,2,3,1,23,0002-00-0002-03.png,0003-00-0003-97.png
14,782,1,1444663984001,1444663984551,876,436,0,0,0,2,1,1,21,0002-00-0008-91.png,0004-00-0009-39.png
14,783,0,1444663984585,1444663985090,869,507,0,0,0,1,2,1,12,0004-00-0005-24.png,0002-00-0003-80.png
14,784,1,1444663985134,1444663985274,350,448,0,0,0,5,4,1,54,0001-00-0009-22.png,0005-00-0000-07.png
14,785,0,1444663985315,1444663985855,914,397,0,0,0,3,2,1,32,0003-00-0006-31.png,0002-00-0005-91.png
14,786,1,1444663985904,1444663986234,925,436,0,0,0,2,1,1,21,0002-00-0007-87.png,0004-00-0004-63.png
14,787,1,1444663986254,1444663986837,870,498,0,0,0,5,4,1,54,0001-00-0007-92.png,0005-00-0007-27.png
14,788,1,1444663986871,1444663987206,345,436,0,0,0,5,4,1,54,0001-00-0007-83.png,0005-00-0004-97.png
14,789,1,1444663987249,1444663987908,376,410,0,0,0,4,3,1,43,0005-00-0003-18.png,0003-00-0004-40.png
14,790,1,1444663987935,1444663988863,874,430,0,0,0,3,4,1,34,0003-00-0000-63.png,0005-00-0008-35.png
14,791,1,1444663988889,1444663989630,401,437,0,0,0,1,2,1,12,0004-00-0006-62.png,0002-00-0001-21.png
14,792,1,1444663989665,1444663990304,877,443,0,0,0,2,3,1,23,0002-00-0000-78.png,0003-00-0007-63.png
14,793,0,1444663990361,1444663990592,478,423,0,0,0,2,1,1,21,0002-00-0007-10.png,0004-00-0000-72.png
14,794,0,1444663990614,1444663991466,350,397,0,0,0,4,3,1,43,0005-00-0005-44.png,0003-00-0007-10.png
14,795,0,1444663991496,1444663991793,343,453,0,0,0,3,4,1,34,0003-00-0003-08.png,0005-00-0007-48.png
14,796,0,1444663991840,1444663992243,905,428,0,0,0,1,2,1,12,0004-00-0000-57.png,0002-00-0001-48.png
14,797,0,1444663992281,1444663992587,900,411,0,0,0,2,3,1,23,0002-00-0001-30.png,0003-00-0002-80.png
14,798,0,1444663992612,1444663993006,316,428,0,0,0,5,4,1,54,0001-00-0003-18.png,0005-00-0003-87.png
14,799,1,1444663993045,1444663994383,318,427,0,0,0,3,2,1,32,0003-00-0008-24.png,0002-00-0004-20.png
14,800,1,1444663994420,1444663994960,902,410,0,0,0,5,4,1,54,0001-00-0009-69.png,0005-00-0005-96.png
14,801,0,1444663994990,1444663995453,376,424,0,0,0,3,2,1,32,0003-00-0007-05.png,0002-00-0000-10.png
14,802,1,1444663995486,1444663996344,862,410,0,0,0,5,4,1,54,0001-00-0001-08.png,0005-00-0009-87.png
14,803,0,1444663996364,1444663996957,927,450,0,0,0,5,4,1,54,0001-00-0003-17.png,0005-00-0008-14.png
14,804,1,1444663996992,1444663997638,315,433,0,0,0,3,4,1,34,0003-00-0001-28.png,0005-00-0000-21.png
14,805,0,1444663997677,1444663998658,336,424,0,0,0,1,2,1,12,0004-00-0001-13.png,0002-00-0004-53.png
14,806,1,1444663998684,1444663999235,902,444,0,0,0,4,3,1,43,0005-00-0003-95.png,0003-00-0005-42.png
14,807,0,1444663999263,1444663999517,427,410,0,0,0,2,3,1,23,0002-00-0001-42.png,0003-00-0006-80.png
14,808,1,1444663999551,1444663999754,875,436,0,0,0,2,1,1,21,0002-00-0006-13.png,0004-00-0004-18.png
14,809,1,1444663999775,1444664000324,325,424,0,0,0,5,4,1,54,0001-00-0003-87.png,0005-00-0002-28.png
14,810,1,1444664000356,1444664000708,437,462,0,0,0,5,4,1,54,0001-00-0009-93.png,0005-00-0002-69.png
14,811,1,1444664000774,1444664001297,888,501,0,0,0,2,1,1,21,0002-00-0007-57.png,0004-00-0002-53.png
14,812,0,1444664001334,1444664001626,903,431,0,0,0,4,3,1,43,0005-00-0001-83.png,0003-00-0007-54.png
14,813,1,1444664001651,1444664002153,376,438,0,0,0,2,3,1,23,0002-00-0009-34.png,0003-00-0001-93.png
14,814,1,1444664002183,1444664002584,412,449,0,0,0,3,2,1,32,0003-00-0007-08.png,0002-00-0007-18.png
14,815,0,1444664002605,1444664003386,514,488,0,0,0,1,2,1,12,0004-00-0004-11.png,0002-00-0003-81.png
14,816,1,1444664003410,1444664003654,350,413,0,0,0,3,4,1,34,0003-00-0005-82.png,0005-00-0005-61.png
14,817,1,1444664003678,1444664004233,925,410,0,0,0,5,4,1,54,0001-00-0004-53.png,0005-00-0001-55.png
14,818,0,1444664004258,1444664004761,313,424,0,0,0,4,3,1,43,0005-00-0003-13.png,0003-00-0008-17.png
14,819,1,1444664004784,1444664005345,333,444,0,0,0,2,1,1,21,0002-00-0009-19.png,0004-00-0008-25.png
14,820,1,1444664005370,1444664005762,869,488,0,0,0,3,2,1,32,0003-00-0008-88.png,0002-00-0006-67.png
14,821,0,1444664005783,1444664006550,373,432,0,0,0,2,3,1,23,0002-00-0009-70.png,0003-00-0002-12.png
14,822,0,1444664006572,1444664006916,898,406,0,0,0,5,4,1,54,0001-00-0000-41.png,0005-00-0005-81.png
14,823,1,1444664006934,1444664007488,869,395,0,0,0,1,2,1,12,0004-00-0008-55.png,0002-00-0005-47.png
14,824,1,1444664007514,1444664008000,925,423,0,0,0,3,4,1,34,0003-00-0004-29.png,0005-00-0005-41.png
14,825,1,1444664008041,1444664008804,875,384,0,0,0,3,2,1,32,0003-00-0001-88.png,0002-00-0008-26.png
14,826,0,1444664008831,1444664009193,376,411,0,0,0,2,1,1,21,0002-00-0009-30.png,0004-00-0009-34.png
14,827,1,1444664009221,1444664009547,921,420,0,0,0,4,3,1,43,0005-00-0000-50.png,0003-00-0004-68.png
14,828,1,1444664009577,1444664009964,340,437,0,0,0,5,4,1,54,0001-00-0009-54.png,0005-00-0007-71.png
14,829,0,1444664010003,1444664010471,350,448,0,0,0,3,4,1,34,0003-00-0004-60.png,0005-00-0004-90.png
14,830,1,1444664010491,1444664011022,899,516,0,0,0,1,2,1,12,0004-00-0002-10.png,0002-00-0002-55.png
14,831,0,1444664011052,1444664011850,382,464,0,0,0,5,4,1,54,0001-00-0000-73.png,0005-00-0003-52.png
14,832,0,1444664011881,1444664012353,390,443,0,0,0,2,3,1,23,0002-00-0009-98.png,0003-00-0005-61.png
14,833,0,1444664012376,1444664012643,914,449,0,0,0,3,2,1,32,0003-00-0005-63.png,0002-00-0005-09.png
14,834,1,1444664012662,1444664013507,318,436,0,0,0,2,3,1,23,0002-00-0007-44.png,0003-00-0002-62.png
14,835,1,1444664013538,1444664014442,925,437,0,0,0,5,4,1,54,0001-00-0001-06.png,0005-00-0002-86.png
14,836,1,1444664014464,1444664014812,901,416,0,0,0,5,4,1,54,0001-00-0000-39.png,0005-00-0007-04.png
14,837,0,1444664014839,1444664015374,868,505,0,0,0,2,1,1,21,0002-00-0008-46.png,0004-00-0003-93.png
14,838,1,1444664015406,1444664016048,495,422,0,0,0,4,3,1,43,0005-00-0006-78.png,0003-00-0002-25.png
14,839,1,1444664016075,1444664016457,513,488,0,0,0,3,4,1,34,0003-00-0000-57.png,0005-00-0000-87.png
14,840,1,1444664016492,1444664016696,901,468,0,0,0,1,2,1,12,0004-00-0007-92.png,0002-00-0005-87.png
14,841,0,1444664016714,1444664017418,956,402,0,0,0,3,4,1,34,0003-00-0005-50.png,0005-00-0000-92.png
14,842,0,1444664017442,1444664018123,927,424,0,0,0,5,4,1,54,0001-00-0007-66.png,0005-00-0001-34.png
14,843,1,1444664018161,1444664018378,394,453,0,0,0,5,4,1,54,0001-00-0009-21.png,0005-00-0002-71.png
14,844,1,1444664018404,1444664019023,316,390,0,0,0,4,3,1,43,0005-00-0001-07.png,0003-00-0008-20.png
14,845,0,1444664019055,1444664019425,309,424,0,0,0,2,1,1,21,0002-00-0005-17.png,0004-00-0005-94.png
14,846,0,1444664019459,1444664019912,874,507,0,0,0,2,3,1,23,0002-00-0007-35.png,0003-00-0000-40.png
14,847,1,1444664019942,1444664020328,316,409,0,0,0,3,2,1,32,0003-00-0001-71.png,0002-00-0000-57.png
14,848,1,1444664020360,1444664020795,927,409,0,0,0,1,2,1,12,0004-00-0000-71.png,0002-00-0002-22.png
14,849,0,1444664020819,1444664021795,337,430,0,0,0,2,3,1,23,0002-00-0009-79.png,0003-00-0009-52.png
14,850,0,1444664021825,1444664022290,344,432,0,0,0,5,4,1,54,0001-00-0003-90.png,0005-00-0007-50.png
14,851,1,1444664022315,1444664023333,893,539,0,0,0,3,2,1,32,0003-00-0002-02.png,0002-00-0002-55.png
14,852,0,1444664023377,1444664023925,376,502,0,0,0,3,4,1,34,0003-00-0000-07.png,0005-00-0009-49.png
14,853,1,1444664023953,1444664024188,926,403,0,0,0,5,4,1,54,0001-00-0001-75.png,0005-00-0003-09.png
14,854,1,1444664024220,1444664024514,337,423,0,0,0,2,1,1,21,0002-00-0009-63.png,0004-00-0002-66.png
14,855,0,1444664024546,1444664024854,899,413,0,0,0,4,3,1,43,0005-00-0008-43.png,0003-00-0006-22.png
14,856,0,1444664024878,1444664026015,918,417,0,0,0,1,2,1,12,0004-00-0001-76.png,0002-00-0003-11.png
14,857,0,1444664026041,1444664026525,869,550,0,0,0,2,1,1,21,0002-00-0002-38.png,0004-00-0009-37.png
14,858,0,1444664026549,1444664027168,392,414,0,0,0,5,4,1,54,0001-00-0002-55.png,0005-00-0006-72.png
14,859,0,1444664027210,1444664027511,317,425,0,0,0,3,2,1,32,0003-00-0003-97.png,0002-00-0004-55.png
14,860,0,1444664027558,1444664027768,389,416,0,0,0,4,3,1,43,0005-00-0009-62.png,0003-00-0005-69.png
14,861,1,1444664027802,1444664028399,925,423,0,0,0,2,3,1,23,0002-00-0006-30.png,0003-00-0000-80.png
14,862,0,1444664028441,1444664028888,919,432,0,0,0,5,4,1,54,0001-00-0005-86.png,0005-00-0004-33.png
14,863,0,1444664028907,1444664029217,927,461,0,0,0,3,4,1,34,0003-00-0004-22.png,0005-00-0007-20.png
14,864,1,1444664029242,1444664029580,350,410,0,0,0,1,2,1,12,0004-00-0007-79.png,0002-00-0005-52.png
14,865,0,1444664029632,1444664029897,373,408,0,0,0,4,3,1,43,0005-00-0006-66.png,0003-00-0009-97.png
14,866,0,1444664029930,1444664030366,352,424,0,0,0,1,2,1,12,0004-00-0001-86.png,0002-00-0008-26.png
14,867,1,1444664030396,1444664030866,905,426,0,0,0,5,4,1,54,0001-00-0005-00.png,0005-00-0004-17.png
14,868,0,1444664030906,1444664031699,382,421,0,0,0,2,1,1,21,0002-00-0006-17.png,0004-00-0002-46.png
14,869,0,1444664031728,1444664032457,877,520,0,0,0,5,4,1,54,0001-00-0007-95.png,0005-00-0001-46.png
14,870,0,1444664032478,1444664034122,926,435,0,0,0,3,2,1,32,0003-00-0006-48.png,0002-00-0002-25.png
14,871,1,1444664034143,1444664034760,900,423,0,0,0,3,4,1,34,0003-00-0002-69.png,0005-00-0001-63.png
14,872,1,1444664034788,1444664035258,395,427,0,0,0,2,3,1,23,0002-00-0009-55.png,0003-00-0005-76.png
14,873,0,1444664035282,1444664035555,889,423,0,0,0,2,3,1,23,0002-00-0007-35.png,0003-00-0006-20.png
14,874,1,1444664035583,1444664036349,401,449,0,0,0,5,4,1,54,0001-00-0004-28.png,0005-00-0003-20.png
14,875,0,1444664036383,1444664036802,499,426,0,0,0,3,2,1,32,0003-00-0004-36.png,0002-00-0004-15.png
14,876,1,1444664036833,1444664037747,927,410,0,0,0,3,4,1,34,0003-00-0000-11.png,0005-00-0002-06.png
14,877,0,1444664037785,1444664038079,325,436,0,0,0,4,3,1,43,0005-00-0003-85.png,0003-00-0008-52.png
14,878,0,1444664038120,1444664039030,401,450,0,0,0,2,1,1,21,0002-00-0008-73.png,0004-00-0004-34.png
14,879,0,1444664039070,1444664039608,401,450,0,0,0,1,2,1,12,0004-00-0007-65.png,0002-00-0009-80.png
14,880,0,1444664039634,1444664040067,926,409,0,0,0,5,4,1,54,0001-00-0009-74.png,0005-00-0001-47.png
14,881,1,1444664040097,1444664040590,900,411,0,0,0,5,4,1,54,0001-00-0003-98.png,0005-00-0009-00.png
14,882,0,1444664040620,1444664041687,866,418,0,0,0,4,3,1,43,0005-00-0002-63.png,0003-00-0000-56.png
14,883,1,1444664041711,1444664042078,376,410,0,0,0,2,3,1,23,0002-00-0003-63.png,0003-00-0006-58.png
14,884,1,1444664042102,1444664042448,393,427,0,0,0,2,1,1,21,0002-00-0007-60.png,0004-00-0000-44.png
14,885,1,1444664042499,1444664043009,325,410,0,0,0,1,2,1,12,0004-00-0000-80.png,0002-00-0000-40.png
14,886,0,1444664043043,1444664043635,905,453,0,0,0,3,2,1,32,0003-00-0007-22.png,0002-00-0002-98.png
14,887,0,1444664043660,1444664044669,401,438,0,0,0,5,4,1,54,0001-00-0005-00.png,0005-00-0005-11.png
14,888,0,1444664044697,1444664045311,888,423,0,0,0,3,4,1,34,0003-00-0006-00.png,0005-00-0003-94.png
14,889,1,1444664045361,1444664046031,333,438,0,0,0,4,3,1,43,0005-00-0003-21.png,0003-00-0008-92.png
14,890,0,1444664046070,1444664046491,307,419,0,0,0,1,2,1,12,0004-00-0003-99.png,0002-00-0009-40.png
14,891,0,1444664046524,1444664047364,931,428,0,0,0,3,4,1,34,0003-00-0002-35.png,0005-00-0000-51.png
14,892,1,1444664047397,1444664047995,401,436,0,0,0,2,3,1,23,0002-00-0006-40.png,0003-00-0006-16.png
14,893,1,1444664048028,1444664048370,369,453,0,0,0,3,2,1,32,0003-00-0001-91.png,0002-00-0000-32.png
14,894,1,1444664048407,1444664049229,888,423,0,0,0,5,4,1,54,0001-00-0001-16.png,0005-00-0008-79.png
14,895,0,1444664049264,1444664050091,861,540,0,0,0,2,1,1,21,0002-00-0003-11.png,0004-00-0000-27.png
14,896,1,1444664050117,1444664050938,426,468,0,0,0,5,4,1,54,0001-00-0009-84.png,0005-00-0007-16.png
14,897,0,1444664050963,1444664051672,328,402,0,0,0,2,1,1,21,0002-00-0002-17.png,0004-00-0001-70.png
14,898,0,1444664051703,1444664051893,925,425,0,0,0,5,4,1,54,0001-00-0009-23.png,0005-00-0006-81.png
14,899,1,1444664051924,1444664052348,916,435,0,0,0,3,4,1,34,0003-00-0009-17.png,0005-00-0004-42.png
14,900,1,1444664052376,1444664053205,880,427,0,0,0,5,4,1,54,0001-00-0000-17.png,0005-00-0007-70.png
14,901,1,1444664053234,1444664054335,874,527,0,0,0,2,3,1,23,0002-00-0005-82.png,0003-00-0002-07.png
14,902,0,1444664054377,1444664054853,427,475,0,0,0,1,2,1,12,0004-00-0008-30.png,0002-00-0001-27.png
14,903,1,1444664054881,1444664055128,427,450,0,0,0,4,3,1,43,0005-00-0005-28.png,0003-00-0004-07.png
14,904,0,1444664055158,1444664055826,900,436,0,0,0,3,2,1,32,0003-00-0002-40.png,0002-00-0002-56.png
14,905,1,1444664055851,1444664056714,926,403,0,0,0,2,3,1,23,0002-00-0009-37.png,0003-00-0002-86.png
14,906,0,1444664056751,1444664057123,887,502,0,0,0,3,4,1,34,0003-00-0009-68.png,0005-00-0000-67.png
14,907,1,1444664057144,1444664057571,927,435,0,0,0,5,4,1,54,0001-00-0008-69.png,0005-00-0008-70.png
14,908,1,1444664057599,1444664057988,433,446,0,0,0,4,3,1,43,0005-00-0004-52.png,0003-00-0008-74.png
14,909,0,1444664058031,1444664058814,912,424,0,0,0,3,2,1,32,0003-00-0004-50.png,0002-00-0004-89.png
14,910,0,1444664058844,1444664059071,376,435,0,0,0,5,4,1,54,0001-00-0008-11.png,0005-00-0006-21.png
14,911,0,1444664059100,1444664059358,293,425,0,0,0,1,2,1,12,0004-00-0009-25.png,0002-00-0001-50.png
14,912,1,1444664059407,1444664059741,922,394,0,0,0,2,1,1,21,0002-00-0009-57.png,0004-00-0000-77.png
14,913,1,1444664059763,1444664059890,925,465,0,0,0,3,4,1,34,0003-00-0005-50.png,0005-00-0004-30.png
14,914,0,1444664059921,1444664060339,369,453,0,0,0,5,4,1,54,0001-00-0006-96.png,0005-00-0003-00.png
14,915,1,1444664060376,1444664060876,901,424,0,0,0,2,3,1,23,0002-00-0002-36.png,0003-00-0009-56.png
14,916,1,1444664060906,1444664061846,419,453,0,0,0,2,1,1,21,0002-00-0008-44.png,0004-00-0008-26.png
14,917,0,1444664061881,1444664062295,918,416,0,0,0,4,3,1,43,0005-00-0001-49.png,0003-00-0004-07.png
14,918,1,1444664062332,1444664062978,387,397,0,0,0,3,2,1,32,0003-00-0004-78.png,0002-00-0005-56.png
14,919,0,1444664062994,1444664063620,377,520,0,0,0,1,2,1,12,0004-00-0001-01.png,0002-00-0002-76.png
14,920,0,1444664063659,1444664064077,310,422,0,0,0,5,4,1,54,0001-00-0006-06.png,0005-00-0004-36.png
14,921,0,1444664064095,1444664064312,388,529,0,0,0,4,3,1,43,0005-00-0004-90.png,0003-00-0000-19.png
14,922,1,1444664064347,1444664064833,879,532,0,0,0,2,3,1,23,0002-00-0009-06.png,0003-00-0004-67.png
14,923,1,1444664064885,1444664066576,913,424,0,0,0,5,4,1,54,0001-00-0003-95.png,0005-00-0001-61.png
14,924,0,1444664066606,1444664066858,401,424,0,0,0,5,4,1,54,0001-00-0004-59.png,0005-00-0003-84.png
14,925,1,1444664066881,1444664067722,394,428,0,0,0,3,2,1,32,0003-00-0004-57.png,0002-00-0005-23.png
14,926,1,1444664067751,1444664067995,872,510,0,0,0,3,4,1,34,0003-00-0003-50.png,0005-00-0001-88.png
14,927,1,1444664068013,1444664068331,401,423,0,0,0,1,2,1,12,0004-00-0001-44.png,0002-00-0007-99.png
14,928,1,1444664068378,1444664068865,350,436,0,0,0,2,1,1,21,0002-00-0001-84.png,0004-00-0001-98.png
14,929,0,1444664068893,1444664069453,350,424,0,0,0,2,1,1,21,0002-00-0005-87.png,0004-00-0006-64.png
14,930,1,1444664069476,1444664069744,913,423,0,0,0,5,4,1,54,0001-00-0001-92.png,0005-00-0007-88.png
14,931,1,1444664069762,1444664070058,512,380,0,0,0,2,3,1,23,0002-00-0003-43.png,0003-00-0001-21.png
14,932,1,1444664070082,1444664070853,393,427,0,0,0,3,2,1,32,0003-00-0003-59.png,0002-00-0002-14.png
14,933,1,1444664070876,1444664071523,877,376,0,0,0,4,3,1,43,0005-00-0008-30.png,0003-00-0008-42.png
14,934,0,1444664071540,1444664072094,926,423,0,0,0,3,4,1,34,0003-00-0003-02.png,0005-00-0007-67.png
14,935,1,1444664072126,1444664072669,918,417,0,0,0,1,2,1,12,0004-00-0009-62.png,0002-00-0005-17.png
14,936,0,1444664072702,1444664073798,342,453,0,0,0,5,4,1,54,0001-00-0006-96.png,0005-00-0005-07.png
14,937,1,1444664073821,1444664074272,364,403,0,0,0,3,2,1,32,0003-00-0002-99.png,0002-00-0001-27.png
14,938,0,1444664074304,1444664074665,354,464,0,0,0,2,3,1,23,0002-00-0006-22.png,0003-00-0001-83.png
14,939,1,1444664074704,1444664075307,876,502,0,0,0,2,1,1,21,0002-00-0009-42.png,0004-00-0003-53.png
14,940,0,1444664075346,1444664076189,926,435,0,0,0,3,4,1,34,0003-00-0009-20.png,0005-00-0003-28.png
14,941,0,1444664076220,1444664076873,945,384,0,0,0,5,4,1,54,0001-00-0000-24.png,0005-00-0008-49.png
14,942,1,1444664076907,1444664077670,859,399,0,0,0,5,4,1,54,0001-00-0000-38.png,0005-00-0007-74.png
14,943,1,1444664077698,1444664078230,912,424,0,0,0,4,3,1,43,0005-00-0008-34.png,0003-00-0001-81.png
14,944,1,1444664078255,1444664078799,440,477,0,0,0,1,2,1,12,0004-00-0004-83.png,0002-00-0002-17.png
14,945,1,1444664078838,1444664079662,369,453,0,0,0,5,4,1,54,0001-00-0009-67.png,0005-00-0000-47.png
14,946,1,1444664079694,1444664079899,355,522,0,0,0,1,2,1,12,0004-00-0009-40.png,0002-00-0006-34.png
14,947,0,1444664079932,1444664080471,336,450,0,0,0,3,2,1,32,0003-00-0001-88.png,0002-00-0002-22.png
14,948,1,1444664080502,1444664081561,383,419,0,0,0,2,3,1,23,0002-00-0000-69.png,0003-00-0000-98.png
14,949,0,1444664081592,1444664082166,377,422,0,0,0,4,3,1,43,0005-00-0000-07.png,0003-00-0006-79.png
14,950,0,1444664082186,1444664082468,493,563,0,0,0,2,1,1,21,0002-00-0009-17.png,0004-00-0006-15.png
14,951,0,1444664082495,1444664082703,394,428,0,0,0,5,4,1,54,0001-00-0009-97.png,0005-00-0000-80.png
14,952,1,1444664082726,1444664083463,914,430,0,0,0,3,4,1,34,0003-00-0003-07.png,0005-00-0005-32.png
14,953,1,1444664083506,1444664083783,342,403,0,0,0,4,3,1,43,0005-00-0009-94.png,0003-00-0004-56.png
14,954,1,1444664083803,1444664084291,342,408,0,0,0,3,4,1,34,0003-00-0001-81.png,0005-00-0006-92.png
14,955,1,1444664084323,1444664084962,912,424,0,0,0,1,2,1,12,0004-00-0000-64.png,0002-00-0005-09.png
14,956,0,1444664084987,1444664085532,376,423,0,0,0,3,2,1,32,0003-00-0009-20.png,0002-00-0003-25.png
14,957,0,1444664085566,1444664085848,931,426,0,0,0,2,1,1,21,0002-00-0002-70.png,0004-00-0000-11.png
14,958,0,1444664085872,1444664086549,917,412,0,0,0,5,4,1,54,0001-00-0009-92.png,0005-00-0007-13.png
14,959,0,1444664086587,1444664086925,306,419,0,0,0,2,3,1,23,0002-00-0007-27.png,0003-00-0001-78.png
14,960,1,1444664086951,1444664087368,921,441,0,0,0,5,4,1,54,0001-00-0004-90.png,0005-00-0006-35.png
14,961,1,1444664087395,1444664087942,325,421,0,0,0,3,2,1,32,0003-00-0000-48.png,0002-00-0004-79.png
14,962,0,1444664087981,1444664088531,350,424,0,0,0,3,4,1,34,0003-00-0003-94.png,0005-00-0003-93.png
14,963,1,1444664088562,1444664088935,877,442,0,0,0,4,3,1,43,0005-00-0009-28.png,0003-00-0008-53.png
14,964,1,1444664088970,1444664089884,384,393,0,0,0,2,1,1,21,0002-00-0004-32.png,0004-00-0008-69.png
14,965,1,1444664089911,1444664090592,925,437,0,0,0,1,2,1,12,0004-00-0007-72.png,0002-00-0001-23.png
14,966,1,1444664090620,1444664091274,325,423,0,0,0,5,4,1,54,0001-00-0007-06.png,0005-00-0000-53.png
14,967,1,1444664091301,1444664091735,926,398,0,0,0,2,3,1,23,0002-00-0007-83.png,0003-00-0000-00.png
14,968,1,1444664091765,1444664092412,368,401,0,0,0,5,4,1,54,0001-00-0007-49.png,0005-00-0000-32.png
14,969,1,1444664092447,1444664092785,874,501,0,0,0,3,2,1,32,0003-00-0003-22.png,0002-00-0004-73.png
14,970,1,1444664092813,1444664093210,419,453,0,0,0,4,3,1,43,0005-00-0009-40.png,0003-00-0001-43.png
14,971,1,1444664093236,1444664093458,338,425,0,0,0,5,4,1,54,0001-00-0001-57.png,0005-00-0000-90.png
14,972,0,1444664093496,1444664094094,401,424,0,0,0,3,4,1,34,0003-00-0005-54.png,0005-00-0009-80.png
14,973,1,1444664094129,1444664094576,917,444,0,0,0,5,4,1,54,0001-00-0003-45.png,0005-00-0006-15.png
14,974,1,1444664094605,1444664095063,900,424,0,0,0,1,2,1,12,0004-00-0000-91.png,0002-00-0006-49.png
14,975,1,1444664095111,1444664095361,345,419,0,0,0,2,1,1,21,0002-00-0002-76.png,0004-00-0004-69.png
14,976,0,1444664095385,1444664095664,900,423,0,0,0,2,3,1,23,0002-00-0003-16.png,0003-00-0007-93.png
14,977,1,1444664095705,1444664096240,900,397,0,0,0,2,1,1,21,0002-00-0009-98.png,0004-00-0003-52.png
14,978,1,1444664096265,1444664096488,925,438,0,0,0,4,3,1,43,0005-00-0003-99.png,0003-00-0001-20.png
14,979,0,1444664096521,1444664097440,888,410,0,0,0,5,4,1,54,0001-00-0005-02.png,0005-00-0006-84.png
14,980,0,1444664097474,1444664097774,306,446,0,0,0,3,2,1,32,0003-00-0008-90.png,0002-00-0007-65.png
14,981,0,1444664097810,1444664098178,875,423,0,0,0,5,4,1,54,0001-00-0009-47.png,0005-00-0006-37.png
14,982,1,1444664098202,1444664098750,898,431,0,0,0,2,3,1,23,0002-00-0001-11.png,0003-00-0008-05.png
14,983,1,1444664098777,1444664099272,890,528,0,0,0,1,2,1,12,0004-00-0003-85.png,0002-00-0001-02.png
14,984,1,1444664099314,1444664100057,376,423,0,0,0,3,4,1,34,0003-00-0001-09.png,0005-00-0003-05.png
14,985,1,1444664100094,1444664100719,937,404,0,0,0,5,4,1,54,0001-00-0001-94.png,0005-00-0002-54.png
14,986,1,1444664100753,1444664101690,382,420,0,0,0,5,4,1,54,0001-00-0000-39.png,0005-00-0004-16.png
14,987,1,1444664101727,1444664102412,896,419,0,0,0,2,1,1,21,0002-00-0002-65.png,0004-00-0004-94.png
14,988,1,1444664102448,1444664103258,419,441,0,0,0,1,2,1,12,0004-00-0000-50.png,0002-00-0006-15.png
14,989,0,1444664103285,1444664103783,415,450,0,0,0,2,3,1,23,0002-00-0008-62.png,0003-00-0002-36.png
