subject_id,trial,correct_response,stim_time,response_time,x_coord,y_coord,trial_timeout,timeout_time,interTrial_timeout,left_rank,right_rank,distance,joint_rank,left_image,right_image
00000009,1,0,1446751340612,1446751341134,1050,357,0,0,0,0,1,1,1,0001-00-0000-30.png,0005-00-0000-39.png
00000009,2,1,1446751344056,1446751344076,888,408,0,0,0,4,3,1,7,0004-00-0000-04.png,0002-00-0000-02.png
00000009,3,1,1446751345354,1446751346080,501,251,0,0,0,3,4,1,7,0002-00-0001-12.png,0004-00-0001-64.png
00000009,4,0,1446751347385,1446751347997,1070,236,0,0,0,2,3,1,5,0003-00-0000-78.png,0002-00-0000-79.png
00000009,5,1,1446751351728,1446751352271,915,356,0,0,0,2,1,1,3,0003-00-0001-06.png,0005-00-0001-06.png
00000009,6,0,1446751353317,1446751353881,375,402,0,0,0,3,2,1,5,0002-00-0001-20.png,0003-00-0001-45.png
00000009,7,1,1446751363475,1446751363503,891,496,0,0,0,1,0,1,1,0005-00-0001-86.png,0001-00-0001-77.png
00000009,8,1,1446751367794,1446751368403,409,293,0,0,0,1,2,1,3,0005-00-0001-60.png,0003-00-0001-66.png
00000009,9,0,1446751369825,1446751370336,917,328,0,0,0,2,3,1,5,0003-00-0001-10.png,0002-00-0001-03.png
00000009,10,0,1446751373392,1446751373659,941,231,0,0,0,1,2,1,3,0005-00-0001-76.png,0003-00-0001-66.png
00000009,11,0,1446751376800,1446751377499,938,381,0,0,0,0,1,1,1,0001-00-0001-81.png,0005-00-0001-57.png
00000009,12,1,1446751380716,1446751381258,480,291,0,0,0,3,4,1,7,0002-00-0001-93.png,0004-00-0001-79.png
00000009,13,1,1446751382177,1446751383222,963,337,0,0,0,4,3,1,7,0004-00-0000-75.png,0002-00-0001-45.png
00000009,14,1,1446751384245,1446751384408,996,424,0,0,0,2,1,1,3,0003-00-0000-36.png,0005-00-0001-69.png
00000009,15,1,1446751385685,1446751385726,862,358,0,0,0,1,0,1,1,0005-00-0001-54.png,0001-00-0000-92.png
00000009,16,1,1446751386854,1446751386894,874,384,0,0,0,3,2,1,5,0002-00-0000-22.png,0003-00-0001-89.png
00000009,17,0,1446751388118,1446751388683,455,239,0,0,0,4,3,1,7,0004-00-0000-63.png,0002-00-0001-66.png
00000009,18,1,1446751391796,1446751392308,939,344,0,0,0,2,1,1,3,0003-00-0001-16.png,0005-00-0001-19.png
00000009,19,1,1446751393155,1446751393889,472,252,0,0,0,0,1,1,1,0001-00-0000-89.png,0005-00-0000-84.png
00000009,20,1,1446751394898,1446751396013,453,237,0,0,0,3,4,1,7,0002-00-0001-81.png,0004-00-0001-95.png
00000009,21,0,1446751396982,1446751397648,1042,278,0,0,0,1,2,1,3,0005-00-0001-76.png,0003-00-0001-87.png
00000009,22,0,1446751400550,1446751401095,478,261,0,0,0,3,2,1,5,0002-00-0000-66.png,0003-00-0001-94.png
00000009,23,0,1446751404218,1446751404344,922,238,0,0,0,2,3,1,5,0003-00-0000-14.png,0002-00-0001-61.png
00000009,24,1,1446751414377,1446751414974,1034,287,0,0,0,1,0,1,1,0005-00-0000-70.png,0001-00-0000-22.png
00000009,25,1,1446751415937,1446751416627,930,305,0,0,0,1,0,1,1,0005-00-0001-42.png,0001-00-0000-68.png
00000009,26,0,1446751417615,1446751417631,917,364,0,0,0,1,2,1,3,0005-00-0001-72.png,0003-00-0001-23.png
00000009,27,0,1446751420494,1446751421153,504,253,0,0,0,4,3,1,7,0004-00-0000-45.png,0002-00-0000-57.png
00000009,28,0,1446751423991,1446751424543,457,288,0,0,0,3,2,1,5,0002-00-0000-60.png,0003-00-0001-04.png
00000009,29,0,1446751427731,1446751428209,993,284,0,0,0,3,4,1,7,0002-00-0001-09.png,0004-00-0001-45.png
00000009,30,0,1446751431342,1446751431594,979,326,0,0,0,0,1,1,1,0001-00-0001-14.png,0005-00-0000-92.png
00000009,31,0,1446751434738,1446751434758,914,278,0,0,0,2,3,1,5,0003-00-0001-25.png,0002-00-0000-35.png
00000009,32,1,1446751437800,1446751438385,1006,351,0,0,0,2,1,1,3,0003-00-0000-06.png,0005-00-0001-51.png
00000009,33,0,1446751439224,1446751439562,943,512,0,0,0,0,1,1,1,0001-00-0001-61.png,0005-00-0001-09.png
00000009,34,0,1446751442491,1446751443012,923,327,0,0,0,3,4,1,7,0002-00-0000-02.png,0004-00-0000-15.png
00000009,35,1,1446751446168,1446751446934,1062,303,0,0,0,3,2,1,5,0002-00-0001-00.png,0003-00-0000-54.png
00000009,36,1,1446751447839,1446751447939,903,424,0,0,0,1,0,1,1,0005-00-0000-30.png,0001-00-0000-24.png
00000009,37,0,1446751448968,1446751449084,862,420,0,0,0,1,2,1,3,0005-00-0000-25.png,0003-00-0001-39.png
00000009,38,1,1446751452270,1446751452453,883,394,0,0,0,2,1,1,3,0003-00-0000-06.png,0005-00-0000-11.png
00000009,39,0,1446751453431,1446751453495,873,411,0,0,0,2,3,1,5,0003-00-0000-96.png,0002-00-0000-12.png
00000009,40,1,1446751456438,1446751456937,939,321,0,0,0,4,3,1,7,0004-00-0001-51.png,0002-00-0001-67.png
00000009,41,0,1446751457836,1446751458857,933,322,0,0,0,0,1,1,1,0001-00-0001-34.png,0005-00-0001-68.png
00000009,42,0,1446751461958,1446751462086,875,295,0,0,0,3,4,1,7,0002-00-0000-08.png,0004-00-0001-68.png
00000009,43,1,1446751465288,1446751465871,1094,283,0,0,0,1,0,1,1,0005-00-0001-08.png,0001-00-0000-64.png
00000009,44,1,1446751466792,1446751466816,869,464,0,0,0,4,3,1,7,0004-00-0000-04.png,0002-00-0000-74.png
00000009,45,0,1446751467860,1446751468943,950,332,0,0,0,2,3,1,5,0003-00-0000-62.png,0002-00-0001-38.png
00000009,46,1,1446751471790,1446751472339,425,414,0,0,0,1,2,1,3,0005-00-0001-00.png,0003-00-0000-88.png
00000009,47,0,1446751473184,1446751474108,504,245,0,0,0,3,2,1,5,0002-00-0000-39.png,0003-00-0000-84.png
00000009,48,1,1446751477033,1446751477518,922,350,0,0,0,2,1,1,3,0003-00-0000-35.png,0005-00-0001-43.png
00000009,49,0,1446751478363,1446751479763,460,243,0,0,0,1,0,1,1,0005-00-0001-40.png,0001-00-0001-40.png
00000009,50,0,1446751482917,1446751483083,908,349,0,0,0,2,3,1,5,0003-00-0001-56.png,0002-00-0001-92.png
00000009,51,0,1446751485934,1446751486486,1016,306,0,0,0,3,4,1,7,0002-00-0001-89.png,0004-00-0000-19.png
00000009,52,1,1446751489634,1446751490130,1047,273,0,0,0,2,1,1,3,0003-00-0000-62.png,0005-00-0000-60.png
00000009,53,1,1446751491149,1446751491193,894,400,0,0,0,4,3,1,7,0004-00-0000-10.png,0002-00-0001-74.png
00000009,54,1,1446751492209,1446751492285,862,436,0,0,0,3,2,1,5,0002-00-0000-54.png,0003-00-0001-41.png
00000009,55,0,1446751493392,1446751493468,878,436,0,0,0,0,1,1,1,0001-00-0000-97.png,0005-00-0001-78.png
00000009,56,0,1446751496553,1446751496609,913,326,0,0,0,1,2,1,3,0005-00-0000-09.png,0003-00-0001-13.png
00000009,57,1,1446751499634,1446751500342,966,307,0,0,0,4,3,1,7,0004-00-0000-89.png,0002-00-0001-80.png
00000009,58,1,1446751501178,1446751501222,864,362,0,0,0,3,2,1,5,0002-00-0000-33.png,0003-00-0000-16.png
00000009,59,1,1446751502206,1446751503116,490,239,0,0,0,3,4,1,7,0002-00-0000-38.png,0004-00-0000-61.png
00000009,60,0,1446751504072,1446751505083,936,350,0,0,0,2,3,1,5,0003-00-0001-08.png,0002-00-0000-75.png
00000009,61,1,1446751508614,1446751509144,1043,257,0,0,0,2,1,1,3,0003-00-0000-03.png,0005-00-0000-96.png
00000009,62,1,1446751510057,1446751510893,406,345,0,0,0,1,2,1,3,0005-00-0000-09.png,0003-00-0001-28.png
00000009,63,0,1446751511897,1446751512918,453,263,0,0,0,1,0,1,1,0005-00-0001-04.png,0001-00-0000-56.png
00000009,64,1,1446751516040,1446751516613,469,281,0,0,0,0,1,1,1,0001-00-0000-37.png,0005-00-0000-15.png
00000009,65,0,1446751517469,1446751518281,1066,322,0,0,0,2,3,1,5,0003-00-0001-99.png,0002-00-0001-75.png
00000009,66,0,1446751521318,1446751521346,890,352,0,0,0,1,2,1,3,0005-00-0001-49.png,0003-00-0000-75.png
00000009,67,1,1446751524427,1446751524953,478,279,0,0,0,3,4,1,7,0002-00-0001-22.png,0004-00-0000-32.png
00000009,68,0,1446751526332,1446751526705,941,514,0,0,0,0,1,1,1,0001-00-0000-07.png,0005-00-0001-71.png
00000009,69,1,1446751529673,1446751530280,1041,289,0,0,0,4,3,1,7,0004-00-0001-68.png,0002-00-0000-16.png
00000009,70,1,1446751531164,1446751531212,860,420,0,0,0,2,1,1,3,0003-00-0001-56.png,0005-00-0000-01.png
00000009,71,1,1446751532318,1446751532468,862,474,0,0,0,3,2,1,5,0002-00-0000-63.png,0003-00-0000-84.png
00000009,72,0,1446751533531,1446751534341,504,236,0,0,0,1,0,1,1,0005-00-0000-03.png,0001-00-0000-56.png
00000009,73,0,1446751537445,1446751538093,959,408,0,0,0,0,1,1,1,0001-00-0001-23.png,0005-00-0000-85.png
00000009,74,1,1446751541181,1446751541691,916,332,0,0,0,3,2,1,5,0002-00-0001-94.png,0003-00-0000-56.png
00000009,75,1,1446751542582,1446751543518,469,253,0,0,0,1,2,1,3,0005-00-0001-29.png,0003-00-0001-57.png
00000009,76,1,1446751544552,1446751545519,472,246,0,0,0,3,4,1,7,0002-00-0001-32.png,0004-00-0001-22.png
00000009,77,1,1446751546518,1446751546586,866,451,0,0,0,2,1,1,3,0003-00-0001-09.png,0005-00-0001-48.png
00000009,78,1,1446751547740,1446751547796,862,462,0,0,0,4,3,1,7,0004-00-0001-13.png,0002-00-0000-32.png
00000009,79,0,1446751548978,1446751549049,874,473,0,0,0,2,3,1,5,0003-00-0000-50.png,0002-00-0001-98.png
00000009,80,0,1446751552141,1446751552725,486,269,0,0,0,1,0,1,1,0005-00-0001-03.png,0001-00-0001-50.png
00000009,81,1,1446751555829,1446751555972,862,425,0,0,0,3,2,1,5,0002-00-0001-21.png,0003-00-0000-90.png
00000009,82,1,1446751556995,1446751557071,886,439,0,0,0,1,0,1,1,0005-00-0000-53.png,0001-00-0000-65.png
00000009,83,1,1446751558125,1446751559066,415,344,0,0,0,0,1,1,1,0001-00-0001-04.png,0005-00-0001-83.png
00000009,84,1,1446751559984,1446751560901,939,357,0,0,0,2,1,1,3,0003-00-0000-95.png,0005-00-0001-18.png
00000009,85,0,1446751561932,1446751561960,872,474,0,0,0,1,2,1,3,0005-00-0000-31.png,0003-00-0000-79.png
00000009,86,0,1446751565151,1446751565937,406,383,0,0,0,4,3,1,7,0004-00-0000-58.png,0002-00-0001-90.png
00000009,87,1,1446751569254,1446751569823,454,301,0,0,0,3,4,1,7,0002-00-0001-23.png,0004-00-0001-08.png
00000009,88,0,1446751570652,1446751571612,961,355,0,0,0,2,3,1,5,0003-00-0001-35.png,0002-00-0001-05.png
00000009,89,0,1446751574573,1446751574621,946,309,0,0,0,3,4,1,7,0002-00-0001-34.png,0004-00-0000-43.png
00000009,90,0,1446751577591,1446751578254,460,292,0,0,0,1,0,1,1,0005-00-0001-68.png,0001-00-0000-95.png
00000009,91,1,1446751581459,1446751581986,405,412,0,0,0,0,1,1,1,0001-00-0001-67.png,0005-00-0001-64.png
00000009,92,0,1446751582841,1446751583815,1038,275,0,0,0,2,3,1,5,0003-00-0001-66.png,0002-00-0000-79.png
00000009,93,0,1446751586807,1446751587532,1069,275,0,0,0,1,2,1,3,0005-00-0001-71.png,0003-00-0001-72.png
00000009,94,1,1446751590604,1446751591374,990,332,0,0,0,4,3,1,7,0004-00-0000-74.png,0002-00-0001-28.png
00000009,95,1,1446751592244,1446751592357,862,437,0,0,0,3,2,1,5,0002-00-0001-19.png,0003-00-0001-95.png
00000009,96,1,1446751593357,1446751594698,955,384,0,0,0,2,1,1,3,0003-00-0000-02.png,0005-00-0001-44.png
00000009,97,1,1446751595581,1446751596508,470,260,0,0,0,1,2,1,3,0005-00-0000-20.png,0003-00-0000-36.png
00000009,98,1,1446751597378,1446751598146,489,237,0,0,0,3,4,1,7,0002-00-0001-27.png,0004-00-0001-85.png
00000009,99,0,1446751599247,1446751600448,489,263,0,0,0,4,3,1,7,0004-00-0001-85.png,0002-00-0000-63.png
00000009,100,1,1446751603342,1446751603897,392,364,0,0,0,0,1,1,1,0001-00-0000-70.png,0005-00-0000-84.png
00000009,101,1,1446751604735,1446751605805,964,373,0,0,0,2,1,1,3,0003-00-0000-45.png,0005-00-0001-34.png
00000009,102,1,1446751606681,1446751607917,1069,276,0,0,0,3,2,1,5,0002-00-0000-93.png,0003-00-0001-92.png
00000009,103,0,1446751608829,1446751608870,896,411,0,0,0,2,3,1,5,0003-00-0001-41.png,0002-00-0000-26.png
00000009,104,1,1446751611888,1446751611956,888,332,0,0,0,1,0,1,1,0005-00-0000-16.png,0001-00-0001-62.png
00000009,105,0,1446751612852,1446751613666,374,357,0,0,0,4,3,1,7,0004-00-0000-32.png,0002-00-0000-19.png
00000009,106,0,1446751616820,1446751617332,967,326,0,0,0,2,3,1,5,0003-00-0000-62.png,0002-00-0001-76.png
00000009,107,0,1446751620188,1446751621138,350,357,0,0,0,3,2,1,5,0002-00-0000-00.png,0003-00-0001-14.png
00000009,108,0,1446751624272,1446751624312,943,307,0,0,0,0,1,1,1,0001-00-0001-56.png,0005-00-0000-39.png
00000009,109,1,1446751627384,1446751627901,428,377,0,0,0,1,2,1,3,0005-00-0001-98.png,0003-00-0001-29.png
00000009,110,0,1446751629342,1446751630094,453,236,0,0,0,1,0,1,1,0005-00-0001-31.png,0001-00-0001-31.png
00000009,111,1,1446751633226,1446751633784,414,376,0,0,0,3,4,1,7,0002-00-0001-30.png,0004-00-0001-26.png
00000009,112,1,1446751635323,1446751636236,964,348,0,0,0,2,1,1,3,0003-00-0001-50.png,0005-00-0001-30.png
00000009,113,1,1446751637059,1446751637971,486,225,0,0,0,3,4,1,7,0002-00-0000-86.png,0004-00-0001-57.png
00000009,114,0,1446751639021,1446751639761,361,344,0,0,0,4,3,1,7,0004-00-0001-55.png,0002-00-0001-79.png
00000009,115,1,1446751642887,1446751643418,501,271,0,0,0,0,1,1,1,0001-00-0000-77.png,0005-00-0000-71.png
00000009,116,1,1446751644844,1446751645079,913,462,0,0,0,3,2,1,5,0002-00-0000-34.png,0003-00-0000-09.png
00000009,117,1,1446751646126,1446751646195,862,410,0,0,0,2,1,1,3,0003-00-0000-61.png,0005-00-0001-20.png
00000009,118,0,1446751647168,1446751648423,1042,290,0,0,0,2,3,1,5,0003-00-0000-17.png,0002-00-0000-66.png
00000009,119,0,1446751651491,1446751652046,497,264,0,0,0,1,0,1,1,0005-00-0001-55.png,0001-00-0000-98.png
00000009,120,0,1446751655049,1446751655625,964,421,0,0,0,1,2,1,3,0005-00-0001-74.png,0003-00-0000-37.png
00000009,121,1,1446751658627,1446751659317,479,279,0,0,0,3,4,1,7,0002-00-0000-99.png,0004-00-0001-46.png
00000009,122,1,1446751660812,1446751661925,483,249,0,0,0,1,2,1,3,0005-00-0001-70.png,0003-00-0001-84.png
00000009,123,1,1446751662842,1446751663760,476,228,0,0,0,0,1,1,1,0001-00-0001-36.png,0005-00-0000-10.png
00000009,124,1,1446751664926,1446751666000,938,351,0,0,0,2,1,1,3,0003-00-0000-52.png,0005-00-0000-22.png
00000009,125,1,1446751666883,1446751666891,864,388,0,0,0,4,3,1,7,0004-00-0001-02.png,0002-00-0001-46.png
00000009,126,0,1446751668305,1446751669425,954,410,0,0,0,2,3,1,5,0003-00-0000-39.png,0002-00-0000-05.png
00000009,127,1,1446751672368,1446751673130,968,332,0,0,0,3,2,1,5,0002-00-0001-20.png,0003-00-0000-33.png
00000009,128,1,1446751673967,1446751674003,866,396,0,0,0,1,0,1,1,0005-00-0000-57.png,0001-00-0000-94.png
00000009,129,0,1446751674892,1446751675799,424,320,0,0,0,1,0,1,1,0005-00-0000-28.png,0001-00-0001-91.png
00000009,130,1,1446751678979,1446751679625,475,300,0,0,0,3,4,1,7,0002-00-0000-04.png,0004-00-0001-73.png
00000009,131,1,1446751680505,1446751681608,963,356,0,0,0,4,3,1,7,0004-00-0001-92.png,0002-00-0001-06.png
00000009,132,1,1446751682487,1446751682515,884,400,0,0,0,2,1,1,3,0003-00-0001-37.png,0005-00-0000-75.png
00000009,133,0,1446751683835,1446751683911,862,502,0,0,0,2,3,1,5,0003-00-0000-83.png,0002-00-0001-25.png
00000009,134,1,1446751687028,1446751687532,413,382,0,0,0,1,2,1,3,0005-00-0000-89.png,0003-00-0000-97.png
00000009,135,1,1446751689007,1446751689258,949,494,0,0,0,3,2,1,5,0002-00-0001-49.png,0003-00-0000-16.png
00000009,136,0,1446751690247,1446751690303,897,389,0,0,0,0,1,1,1,0001-00-0001-21.png,0005-00-0000-20.png
00000009,137,1,1446751693418,1446751693978,1067,275,0,0,0,3,2,1,5,0002-00-0001-74.png,0003-00-0000-42.png
00000009,138,0,1446751695396,1446751696285,416,348,0,0,0,1,0,1,1,0005-00-0000-18.png,0001-00-0000-66.png
00000009,139,1,1446751699359,1446751699981,990,322,0,0,0,4,3,1,7,0004-00-0000-62.png,0002-00-0000-28.png
00000009,140,1,1446751701328,1446751702326,420,315,0,0,0,3,4,1,7,0002-00-0000-58.png,0004-00-0001-49.png
00000009,141,1,1446751703203,1446751704411,434,327,0,0,0,1,2,1,3,0005-00-0001-73.png,0003-00-0000-65.png
00000009,142,1,1446751705352,1446751705428,871,460,0,0,0,2,1,1,3,0003-00-0001-75.png,0005-00-0000-76.png
00000009,143,0,1446751706534,1446751706598,877,436,0,0,0,0,1,1,1,0001-00-0001-98.png,0005-00-0001-56.png
00000009,144,0,1446751709725,1446751710286,1089,301,0,0,0,2,3,1,5,0003-00-0000-60.png,0002-00-0001-52.png
00000009,145,0,1446751713362,1446751713839,508,276,0,0,0,3,2,1,5,0002-00-0001-05.png,0003-00-0001-58.png
00000009,146,0,1446751716981,1446751717537,1092,300,0,0,0,0,1,1,1,0001-00-0001-69.png,0005-00-0001-65.png
00000009,147,0,1446751720606,1446751721223,955,375,0,0,0,2,3,1,5,0003-00-0001-91.png,0002-00-0001-63.png
00000009,148,0,1446751724338,1446751724439,873,279,0,0,0,1,2,1,3,0005-00-0001-94.png,0003-00-0001-67.png
00000009,149,0,1446751727396,1446751727996,436,380,0,0,0,1,0,1,1,0005-00-0001-33.png,0001-00-0000-81.png
00000009,150,1,1446751731161,1446751731818,978,410,0,0,0,4,3,1,7,0004-00-0000-38.png,0002-00-0001-22.png
00000009,151,0,1446751732719,1446751732799,894,435,0,0,0,3,4,1,7,0002-00-0001-31.png,0004-00-0001-06.png
00000009,152,1,1446751735961,1446751736522,1113,335,0,0,0,2,1,1,3,0003-00-0001-65.png,0005-00-0001-86.png
00000009,153,0,1446751738044,1446751738728,1049,299,0,0,0,2,3,1,5,0003-00-0000-59.png,0002-00-0001-22.png
00000009,154,0,1446751741584,1446751741664,935,404,0,0,0,3,4,1,7,0002-00-0001-64.png,0004-00-0001-63.png
00000009,155,1,1446751744775,1446751745328,989,302,0,0,0,4,3,1,7,0004-00-0000-81.png,0002-00-0000-33.png
00000009,156,1,1446751746154,1446751746235,879,456,0,0,0,3,2,1,5,0002-00-0000-02.png,0003-00-0000-68.png
00000009,157,1,1446751747216,1446751748323,1067,271,0,0,0,2,1,1,3,0003-00-0000-13.png,0005-00-0000-52.png
00000009,158,0,1446751749163,1446751749203,864,386,0,0,0,1,2,1,3,0005-00-0000-60.png,0003-00-0001-71.png
00000009,159,0,1446751752025,1446751752642,939,362,0,0,0,0,1,1,1,0001-00-0000-17.png,0005-00-0000-98.png
00000009,160,1,1446751755784,1446751755812,888,306,0,0,0,1,0,1,1,0005-00-0001-34.png,0001-00-0000-40.png
00000009,161,0,1446751756678,1446751757766,990,348,0,0,0,0,1,1,1,0001-00-0000-92.png,0005-00-0001-58.png
00000009,162,1,1446751760735,1446751761796,462,274,0,0,0,2,3,1,5,0003-00-0001-83.png,0002-00-0000-97.png
00000009,163,1,1446751762673,1446751763895,967,348,0,0,0,3,2,1,5,0002-00-0001-26.png,0003-00-0001-23.png
00000009,164,1,1446751764859,1446751764923,880,449,0,0,0,4,3,1,7,0004-00-0001-89.png,0002-00-0001-28.png
00000009,165,1,1446751766071,1446751766135,881,417,0,0,0,1,0,1,1,0005-00-0001-65.png,0001-00-0001-08.png
00000009,166,0,1446751767501,1446751767541,867,442,0,0,0,1,2,1,3,0005-00-0000-47.png,0003-00-0001-36.png
00000009,167,1,1446751770455,1446751771051,396,376,0,0,0,3,4,1,7,0002-00-0000-91.png,0004-00-0000-57.png
00000009,168,1,1446751772472,1446751773345,964,400,0,0,0,2,1,1,3,0003-00-0000-77.png,0005-00-0001-01.png
00000009,169,0,1446751774829,1446751774969,905,479,0,0,0,3,4,1,7,0002-00-0001-95.png,0004-00-0000-80.png
00000009,170,1,1446751777926,1446751778490,991,330,0,0,0,1,0,1,1,0005-00-0001-81.png,0001-00-0001-91.png
00000009,171,1,1446751779846,1446751780457,507,248,0,0,0,0,1,1,1,0001-00-0001-11.png,0005-00-0001-44.png
00000009,172,1,1446751781334,1446751782401,990,323,0,0,0,2,1,1,3,0003-00-0000-61.png,0005-00-0000-98.png
00000009,173,1,1446751783322,1446751783406,897,494,0,0,0,3,2,1,5,0002-00-0000-27.png,0003-00-0001-17.png
00000009,174,0,1446751784597,1446751784700,889,485,0,0,0,2,3,1,5,0003-00-0000-94.png,0002-00-0001-75.png
00000009,175,1,1446751787892,1446751788635,478,436,0,0,0,1,2,1,3,0005-00-0000-02.png,0003-00-0001-04.png
00000009,176,1,1446751790029,1446751790303,916,517,0,0,0,4,3,1,7,0004-00-0001-02.png,0002-00-0001-15.png
00000009,177,1,1446751791321,1446751791369,859,449,0,0,0,1,0,1,1,0005-00-0000-76.png,0001-00-0000-88.png
00000009,178,1,1446751792346,1446751792390,866,422,0,0,0,3,2,1,5,0002-00-0000-72.png,0003-00-0000-46.png
00000009,179,1,1446751793696,1446751793744,914,501,0,0,0,2,1,1,3,0003-00-0001-27.png,0005-00-0000-22.png
00000009,180,1,1446751795025,1446751795091,901,488,0,0,0,4,3,1,7,0004-00-0000-67.png,0002-00-0000-66.png
00000009,181,0,1446751796317,1446751796406,892,488,0,0,0,3,4,1,7,0002-00-0001-42.png,0004-00-0001-90.png
00000009,182,1,1446751799372,1446751800246,459,245,0,0,0,1,2,1,3,0005-00-0000-44.png,0003-00-0001-31.png
00000009,183,0,1446751801817,1446751802501,960,326,0,0,0,2,3,1,5,0003-00-0001-56.png,0002-00-0000-70.png
00000009,184,1,1446751805524,1446751806077,502,266,0,0,0,0,1,1,1,0001-00-0001-26.png,0005-00-0000-07.png
00000009,185,0,1446751806904,1446751806952,887,453,0,0,0,2,3,1,5,0003-00-0001-18.png,0002-00-0001-50.png
00000009,186,1,1446751809975,1446751810544,967,306,0,0,0,2,1,1,3,0003-00-0001-72.png,0005-00-0000-02.png
00000009,187,1,1446751811902,1446751812114,935,492,0,0,0,3,2,1,5,0002-00-0000-79.png,0003-00-0001-90.png
00000009,188,0,1446751813195,1446751813294,874,488,0,0,0,1,2,1,3,0005-00-0000-64.png,0003-00-0000-61.png
00000009,189,1,1446751816295,1446751816808,1016,344,0,0,0,4,3,1,7,0004-00-0000-72.png,0002-00-0001-67.png
00000009,190,0,1446751817653,1446751817705,877,445,0,0,0,3,4,1,7,0002-00-0001-86.png,0004-00-0001-86.png
00000009,191,1,1446751820665,1446751821162,420,352,0,0,0,0,1,1,1,0001-00-0001-27.png,0005-00-0000-70.png
00000009,192,1,1446751822422,1446751823334,1041,306,0,0,0,1,0,1,1,0005-00-0001-85.png,0001-00-0001-04.png
00000009,193,0,1446751824180,1446751825231,444,390,0,0,0,1,0,1,1,0005-00-0001-74.png,0001-00-0000-37.png
00000009,194,1,1446751828319,1446751828890,495,288,0,0,0,1,2,1,3,0005-00-0001-78.png,0003-00-0000-68.png
00000009,195,1,1446751830298,1446751831290,1041,278,0,0,0,3,2,1,5,0002-00-0000-72.png,0003-00-0000-68.png
00000009,196,0,1446751832135,1446751832163,862,407,0,0,0,0,1,1,1,0001-00-0001-97.png,0005-00-0001-21.png
00000009,197,0,1446751835115,1446751835153,875,358,0,0,0,2,3,1,5,0003-00-0001-05.png,0002-00-0001-83.png
00000009,198,0,1446751838147,1446751839081,946,403,0,0,0,3,4,1,7,0002-00-0001-06.png,0004-00-0000-80.png
00000009,199,1,1446751842141,1446751842690,953,384,0,0,0,2,1,1,3,0003-00-0001-41.png,0005-00-0000-40.png
00000009,200,1,1446751843510,1446751843562,866,428,0,0,0,4,3,1,7,0004-00-0001-11.png,0002-00-0000-36.png
00000009,201,0,1446751844455,1446751844531,888,421,0,0,0,3,4,1,7,0002-00-0001-92.png,0004-00-0001-74.png
00000009,202,0,1446751847664,1446751848332,501,276,0,0,0,4,3,1,7,0004-00-0001-62.png,0002-00-0000-78.png
00000009,203,0,1446751851258,1446751851296,931,358,0,0,0,1,2,1,3,0005-00-0000-47.png,0003-00-0001-71.png
00000009,204,0,1446751854471,1446751855059,963,351,0,0,0,0,1,1,1,0001-00-0000-05.png,0005-00-0000-24.png
00000009,205,0,1446751858062,1446751858623,1069,276,0,0,0,2,3,1,5,0003-00-0000-37.png,0002-00-0001-37.png
00000009,206,1,1446751861739,1446751862240,1067,280,0,0,0,2,1,1,3,0003-00-0001-56.png,0005-00-0001-35.png
00000009,207,1,1446751863087,1446751863167,884,413,0,0,0,1,0,1,1,0005-00-0001-78.png,0001-00-0000-93.png
00000009,208,1,1446751864133,1446751864197,862,400,0,0,0,3,2,1,5,0002-00-0001-87.png,0003-00-0001-89.png
00000009,209,1,1446751865376,1446751865432,871,462,0,0,0,1,0,1,1,0005-00-0000-74.png,0001-00-0001-08.png
00000009,210,0,1446751866636,1446751866724,897,462,0,0,0,0,1,1,1,0001-00-0000-15.png,0005-00-0001-24.png
00000009,211,0,1446751869837,1446751870542,383,358,0,0,0,4,3,1,7,0004-00-0001-69.png,0002-00-0000-03.png
00000009,212,1,1446751873654,1446751874130,482,279,0,0,0,1,2,1,3,0005-00-0001-44.png,0003-00-0001-02.png
00000009,213,0,1446751875614,1446751876299,1069,305,0,0,0,2,3,1,5,0003-00-0001-88.png,0002-00-0001-24.png
00000009,214,0,1446751879348,1446751879901,506,255,0,0,0,3,2,1,5,0002-00-0000-86.png,0003-00-0001-39.png
00000009,215,0,1446751882886,1446751883588,522,266,0,0,0,2,1,1,3,0003-00-0001-89.png,0005-00-0000-36.png
00000009,216,1,1446751886729,1446751887375,394,363,0,0,0,3,4,1,7,0002-00-0001-92.png,0004-00-0000-03.png
00000009,217,0,1446751888230,1446751889262,501,217,0,0,0,3,2,1,5,0002-00-0001-32.png,0003-00-0000-18.png
00000009,218,0,1446751892138,1446751892794,955,371,0,0,0,3,4,1,7,0002-00-0000-65.png,0004-00-0001-68.png
00000009,219,1,1446751895862,1446751896362,508,281,0,0,0,1,2,1,3,0005-00-0001-77.png,0003-00-0001-45.png
00000009,220,1,1446751897853,1446751898170,909,518,0,0,0,1,0,1,1,0005-00-0001-13.png,0001-00-0000-82.png
00000009,221,1,1446751899183,1446751899262,862,449,0,0,0,2,1,1,3,0003-00-0000-84.png,0005-00-0000-61.png
00000009,222,1,1446751900757,1446751902134,964,317,0,0,0,4,3,1,7,0004-00-0000-08.png,0002-00-0001-04.png
00000009,223,0,1446751903057,1446751903101,879,410,0,0,0,0,1,1,1,0001-00-0000-93.png,0005-00-0001-21.png
00000009,224,0,1446751905979,1446751906537,990,332,0,0,0,2,3,1,5,0003-00-0001-49.png,0002-00-0000-86.png
00000009,225,0,1446751909565,1446751910439,491,285,0,0,0,1,0,1,1,0005-00-0001-20.png,0001-00-0001-03.png
00000009,226,0,1446751913353,1446751913987,944,384,0,0,0,2,3,1,5,0003-00-0001-56.png,0002-00-0000-95.png
00000009,227,0,1446751917225,1446751917873,1096,278,0,0,0,0,1,1,1,0001-00-0001-82.png,0005-00-0000-20.png
00000009,228,1,1446751921373,1446751921950,1099,305,0,0,0,2,1,1,3,0003-00-0000-64.png,0005-00-0000-66.png
00000009,229,0,1446751922845,1446751922957,888,453,0,0,0,1,2,1,3,0005-00-0000-77.png,0003-00-0001-96.png
00000009,230,1,1446751925946,1446751926466,478,400,0,0,0,3,4,1,7,0002-00-0000-19.png,0004-00-0000-23.png
00000009,231,1,1446751927864,1446751928174,937,514,0,0,0,3,2,1,5,0002-00-0001-34.png,0003-00-0001-47.png
00000009,232,1,1446751929154,1446751929202,858,439,0,0,0,4,3,1,7,0004-00-0000-11.png,0002-00-0000-07.png
00000009,233,1,1446751930389,1446751930457,878,462,0,0,0,1,0,1,1,0005-00-0000-26.png,0001-00-0001-82.png
00000009,234,0,1446751931868,1446751931928,888,473,0,0,0,3,4,1,7,0002-00-0001-99.png,0004-00-0000-35.png
00000009,235,0,1446751935046,1446751935950,990,322,0,0,0,2,3,1,5,0003-00-0001-79.png,0002-00-0001-74.png
00000009,236,1,1446751938991,1446751939513,444,441,0,0,0,1,2,1,3,0005-00-0001-29.png,0003-00-0000-50.png
00000009,237,0,1446751940350,1446751941294,416,332,0,0,0,3,2,1,5,0002-00-0000-99.png,0003-00-0000-80.png
00000009,238,1,1446751944299,1446751944872,1098,326,0,0,0,2,1,1,3,0003-00-0000-01.png,0005-00-0000-82.png
00000009,239,1,1446751945729,1446751945757,866,421,0,0,0,4,3,1,7,0004-00-0001-48.png,0002-00-0001-02.png
00000009,240,0,1446751946684,1446751946740,876,436,0,0,0,0,1,1,1,0001-00-0001-59.png,0005-00-0000-01.png
00000009,241,0,1446751949863,1446751950790,473,277,0,0,0,4,3,1,7,0004-00-0000-03.png,0002-00-0001-94.png
00000009,242,0,1446751953877,1446751954458,416,384,0,0,0,3,2,1,5,0002-00-0000-90.png,0003-00-0000-65.png
00000009,243,1,1446751957536,1446751958104,964,370,0,0,0,2,1,1,3,0003-00-0000-97.png,0005-00-0001-50.png
00000009,244,0,1446751958953,1446751958981,908,442,0,0,0,1,2,1,3,0005-00-0000-23.png,0003-00-0000-03.png
00000009,245,1,1446751961969,1446751962491,501,235,0,0,0,0,1,1,1,0001-00-0001-14.png,0005-00-0001-10.png
00000009,246,0,1446751963945,1446751964913,967,333,0,0,0,2,3,1,5,0003-00-0000-25.png,0002-00-0001-46.png
00000009,247,1,1446751968030,1446751969165,466,275,0,0,0,3,4,1,7,0002-00-0001-01.png,0004-00-0000-42.png
00000009,248,0,1446751970034,1446751970993,432,349,0,0,0,1,0,1,1,0005-00-0000-94.png,0001-00-0000-17.png
00000009,249,0,1446751973908,1446751973972,964,319,0,0,0,1,2,1,3,0005-00-0001-49.png,0003-00-0001-73.png
00000009,250,0,1446751977133,1446751977189,862,295,0,0,0,3,4,1,7,0002-00-0000-65.png,0004-00-0001-83.png
00000009,251,0,1446751980677,1446751981243,503,278,0,0,0,1,0,1,1,0005-00-0001-89.png,0001-00-0000-52.png
00000009,252,0,1446751984234,1446751984876,481,306,0,0,0,3,2,1,5,0002-00-0001-01.png,0003-00-0000-29.png
00000009,253,0,1446751987955,1446751988536,1068,296,0,0,0,2,3,1,5,0003-00-0000-61.png,0002-00-0000-71.png
00000009,254,1,1446751991690,1446751991710,918,306,0,0,0,2,1,1,3,0003-00-0001-85.png,0005-00-0001-62.png
00000009,255,0,1446751992606,1446751992744,889,488,0,0,0,0,1,1,1,0001-00-0001-00.png,0005-00-0000-07.png
00000009,256,0,1446751995865,1446751996388,409,352,0,0,0,4,3,1,7,0004-00-0000-59.png,0002-00-0000-28.png
00000009,257,1,1446751999294,1446751999870,1072,303,0,0,0,2,1,1,3,0003-00-0001-79.png,0005-00-0000-64.png
00000009,258,0,1446752001292,1446752001516,914,490,0,0,0,1,2,1,3,0005-00-0000-59.png,0003-00-0000-24.png
00000009,259,1,1446752004540,1446752005133,990,306,0,0,0,4,3,1,7,0004-00-0001-49.png,0002-00-0001-59.png
00000009,260,0,1446752006002,1446752006058,886,458,0,0,0,0,1,1,1,0001-00-0000-83.png,0005-00-0000-98.png
00000009,261,0,1446752009012,1446752009578,478,265,0,0,0,1,0,1,1,0005-00-0000-79.png,0001-00-0000-06.png
00000009,262,1,1446752012720,1446752013313,964,398,0,0,0,3,2,1,5,0002-00-0000-35.png,0003-00-0000-85.png
00000009,263,0,1446752014157,1446752014217,868,437,0,0,0,2,3,1,5,0003-00-0000-32.png,0002-00-0000-96.png
00000009,264,0,1446752017311,1446752018314,1011,409,0,0,0,3,4,1,7,0002-00-0000-21.png,0004-00-0000-89.png
00000009,265,1,1446752021145,1446752021628,1067,301,0,0,0,2,1,1,3,0003-00-0000-60.png,0005-00-0001-55.png
00000009,266,0,1446752022474,1446752022538,868,456,0,0,0,2,3,1,5,0003-00-0000-36.png,0002-00-0001-51.png
00000009,267,1,1446752025639,1446752026510,934,380,0,0,0,4,3,1,7,0004-00-0000-12.png,0002-00-0000-75.png
00000009,268,0,1446752027342,1446752027434,915,462,0,0,0,0,1,1,1,0001-00-0001-13.png,0005-00-0000-38.png
00000009,269,0,1446752030488,1446752031137,1016,342,0,0,0,3,4,1,7,0002-00-0000-69.png,0004-00-0001-82.png
00000009,270,1,1446752034255,1446752034263,893,309,0,0,0,3,2,1,5,0002-00-0000-87.png,0003-00-0001-70.png
00000009,271,0,1446752035158,1446752035198,858,438,0,0,0,1,2,1,3,0005-00-0000-90.png,0003-00-0001-27.png
00000009,272,1,1446752038045,1446752038178,1006,272,0,0,0,1,0,1,1,0005-00-0000-60.png,0001-00-0001-43.png
00000009,273,0,1446752039551,1446752040525,515,227,0,0,0,3,2,1,5,0002-00-0001-48.png,0003-00-0000-21.png
00000009,274,1,1446752043361,1446752043930,417,369,0,0,0,0,1,1,1,0001-00-0000-45.png,0005-00-0001-94.png
00000009,275,1,1446752045197,1446752046584,498,250,0,0,0,2,3,1,5,0003-00-0001-74.png,0002-00-0000-17.png
00000009,276,1,1446752047470,1446752048630,1046,280,0,0,0,4,3,1,7,0004-00-0000-38.png,0002-00-0001-65.png
00000009,277,0,1446752049458,1446752049501,914,392,0,0,0,3,4,1,7,0002-00-0001-02.png,0004-00-0000-40.png
00000009,278,1,1446752052581,1446752053400,951,430,0,0,0,1,0,1,1,0005-00-0000-02.png,0001-00-0000-39.png
00000009,279,1,1446752054726,1446752055808,474,242,0,0,0,1,2,1,3,0005-00-0001-06.png,0003-00-0001-33.png
00000009,280,0,1446752056702,1446752058366,386,393,0,0,0,2,1,1,3,0003-00-0000-34.png,0005-00-0000-69.png
00000009,281,0,1446752061547,1446752062118,1090,277,0,0,0,2,3,1,5,0003-00-0001-48.png,0002-00-0000-70.png
00000009,282,0,1446752065630,1446752066300,1102,279,0,0,0,0,1,1,1,0001-00-0001-01.png,0005-00-0001-14.png
00000009,283,0,1446752069143,1446752069647,409,384,0,0,0,1,0,1,1,0005-00-0000-12.png,0001-00-0001-31.png
00000009,284,1,1446752072513,1446752072614,910,464,0,0,0,3,2,1,5,0002-00-0001-00.png,0003-00-0001-05.png
00000009,285,1,1446752073519,1446752073586,860,467,0,0,0,4,3,1,7,0004-00-0001-20.png,0002-00-0001-49.png
00000009,286,0,1446752074613,1446752074695,863,460,0,0,0,3,4,1,7,0002-00-0001-24.png,0004-00-0000-50.png
00000009,287,1,1446752077792,1446752078305,486,280,0,0,0,1,2,1,3,0005-00-0001-34.png,0003-00-0000-90.png
00000009,288,0,1446752079158,1446752080652,469,254,0,0,0,2,1,1,3,0003-00-0000-68.png,0005-00-0001-64.png
00000009,289,1,1446752083554,1446752084064,1066,302,0,0,0,1,0,1,1,0005-00-0001-76.png,0001-00-0000-61.png
00000009,290,1,1446752085473,1446752085549,884,441,0,0,0,4,3,1,7,0004-00-0000-37.png,0002-00-0001-36.png
00000009,291,0,1446752086603,1446752086663,888,426,0,0,0,0,1,1,1,0001-00-0001-79.png,0005-00-0001-50.png
00000009,292,1,1446752089824,1446752090394,501,285,0,0,0,1,2,1,3,0005-00-0001-79.png,0003-00-0000-76.png
00000009,293,0,1446752091253,1446752092483,418,386,0,0,0,3,2,1,5,0002-00-0001-88.png,0003-00-0001-68.png
00000009,294,1,1446752095330,1446752095932,963,298,0,0,0,2,1,1,3,0003-00-0001-80.png,0005-00-0001-02.png
00000009,295,0,1446752096810,1446752096838,897,420,0,0,0,2,3,1,5,0003-00-0000-43.png,0002-00-0000-31.png
00000009,296,1,1446752099712,1446752100227,502,267,0,0,0,3,4,1,7,0002-00-0001-37.png,0004-00-0001-31.png
00000009,297,1,1446752101061,1446752102132,493,227,0,0,0,1,2,1,3,0005-00-0001-71.png,0003-00-0000-26.png
00000009,298,1,1446752103052,1446752103088,866,443,0,0,0,1,0,1,1,0005-00-0001-97.png,0001-00-0000-12.png
00000009,299,1,1446752104391,1446752104470,888,488,0,0,0,3,2,1,5,0002-00-0000-69.png,0003-00-0000-49.png
00000009,300,1,1446752105633,1446752105661,880,439,0,0,0,4,3,1,7,0004-00-0001-38.png,0002-00-0001-84.png
00000009,301,1,1446752107064,1446752107140,899,518,0,0,0,2,1,1,3,0003-00-0001-01.png,0005-00-0000-14.png
00000009,302,0,1446752108368,1446752108396,887,435,0,0,0,3,4,1,7,0002-00-0001-04.png,0004-00-0001-32.png
00000009,303,0,1446752111298,1446752112032,1014,324,0,0,0,2,3,1,5,0003-00-0000-95.png,0002-00-0000-14.png
00000009,304,1,1446752115156,1446752115682,516,253,0,0,0,0,1,1,1,0001-00-0000-66.png,0005-00-0001-66.png
00000009,305,0,1446752117113,1446752117169,890,434,0,0,0,0,1,1,1,0001-00-0001-39.png,0005-00-0001-95.png
00000009,306,1,1446752120164,1446752120818,965,304,0,0,0,1,0,1,1,0005-00-0001-95.png,0001-00-0001-97.png
00000009,307,1,1446752122280,1446752122328,884,437,0,0,0,2,1,1,3,0003-00-0000-68.png,0005-00-0000-92.png
00000009,308,0,1446752123353,1446752123440,888,451,0,0,0,1,2,1,3,0005-00-0001-98.png,0003-00-0001-71.png
00000009,309,0,1446752126471,1446752127006,1067,279,0,0,0,3,4,1,7,0002-00-0001-79.png,0004-00-0000-84.png
00000009,310,0,1446752130207,1446752130782,1044,307,0,0,0,2,3,1,5,0003-00-0000-26.png,0002-00-0000-68.png
00000009,311,1,1446752133867,1446752134762,1010,323,0,0,0,3,2,1,5,0002-00-0001-25.png,0003-00-0000-56.png
00000009,312,1,1446752135625,1446752135697,893,438,0,0,0,4,3,1,7,0004-00-0000-91.png,0002-00-0000-43.png
00000009,313,1,1446752136702,1446752136738,875,426,0,0,0,2,1,1,3,0003-00-0001-24.png,0005-00-0001-27.png
00000009,314,1,1446752137960,1446752138017,914,451,0,0,0,4,3,1,7,0004-00-0001-97.png,0002-00-0000-04.png
00000009,315,1,1446752139114,1446752139183,880,486,0,0,0,3,2,1,5,0002-00-0001-29.png,0003-00-0000-09.png
00000009,316,0,1446752140635,1446752140683,916,490,0,0,0,1,2,1,3,0005-00-0000-35.png,0003-00-0000-42.png
00000009,317,0,1446752143755,1446752144528,964,419,0,0,0,3,4,1,7,0002-00-0000-20.png,0004-00-0000-39.png
00000009,318,1,1446752147591,1446752148276,503,284,0,0,0,2,3,1,5,0003-00-0000-79.png,0002-00-0000-06.png
00000009,319,1,1446752149668,1446752149901,919,494,0,0,0,1,0,1,1,0005-00-0000-12.png,0001-00-0001-70.png
00000009,320,0,1446752150949,1446752151019,862,488,0,0,0,0,1,1,1,0001-00-0001-83.png,0005-00-0001-35.png
00000009,321,1,1446752154139,1446752154847,1125,311,0,0,0,4,3,1,7,0004-00-0000-85.png,0002-00-0000-71.png
00000009,322,1,1446752155750,1446752156553,505,261,0,0,0,0,1,1,1,0001-00-0000-89.png,0005-00-0001-42.png
00000009,323,1,1446752157507,1446752158849,1064,325,0,0,0,1,0,1,1,0005-00-0001-69.png,0001-00-0000-02.png
00000009,324,1,1446752159714,1446752159730,866,385,0,0,0,2,1,1,3,0003-00-0001-49.png,0005-00-0000-78.png
00000009,325,0,1446752160827,1446752160867,916,464,0,0,0,3,4,1,7,0002-00-0000-00.png,0004-00-0000-96.png
00000009,326,1,1446752163779,1446752164496,939,410,0,0,0,3,2,1,5,0002-00-0000-61.png,0003-00-0001-97.png
00000009,327,1,1446752165346,1446752166253,439,357,0,0,0,1,2,1,3,0005-00-0000-52.png,0003-00-0001-41.png
00000009,328,1,1446752167221,1446752168374,515,259,0,0,0,2,3,1,5,0003-00-0001-99.png,0002-00-0000-51.png
00000009,329,0,1446752169394,1446752170486,478,424,0,0,0,4,3,1,7,0004-00-0000-71.png,0002-00-0001-87.png
00000009,330,1,1446752173347,1446752173367,881,405,0,0,0,3,2,1,5,0002-00-0000-93.png,0003-00-0000-98.png
00000009,331,1,1446752174360,1446752175417,509,255,0,0,0,1,2,1,3,0005-00-0001-04.png,0003-00-0001-28.png
00000009,332,1,1446752176401,1446752177322,453,265,0,0,0,3,4,1,7,0002-00-0001-37.png,0004-00-0000-44.png
00000009,333,1,1446752178329,1446752179549,1072,271,0,0,0,2,1,1,3,0003-00-0001-20.png,0005-00-0000-54.png
00000009,334,0,1446752180453,1446752180493,872,412,0,0,0,0,1,1,1,0001-00-0001-12.png,0005-00-0000-18.png
00000009,335,0,1446752183364,1446752183934,942,302,0,0,0,2,3,1,5,0003-00-0001-81.png,0002-00-0000-64.png
00000009,336,0,1446752187032,1446752187549,496,257,0,0,0,1,0,1,1,0005-00-0001-34.png,0001-00-0001-82.png
00000009,337,0,1446752190670,1446752190710,927,329,0,0,0,3,4,1,7,0002-00-0001-51.png,0004-00-0001-44.png
00000009,338,1,1446752193539,1446752194096,423,379,0,0,0,0,1,1,1,0001-00-0000-41.png,0005-00-0001-28.png
00000009,339,1,1446752195618,1446752195885,939,486,0,0,0,2,1,1,3,0003-00-0001-52.png,0005-00-0000-57.png
00000009,340,0,1446752196960,1446752197004,880,436,0,0,0,1,2,1,3,0005-00-0001-29.png,0003-00-0000-42.png
00000009,341,0,1446752200155,1446752200923,964,401,0,0,0,2,3,1,5,0003-00-0001-63.png,0002-00-0001-15.png
00000009,342,1,1446752203868,1446752203896,861,387,0,0,0,1,0,1,1,0005-00-0000-38.png,0001-00-0000-29.png
00000009,343,1,1446752204798,1446752204850,859,437,0,0,0,4,3,1,7,0004-00-0001-19.png,0002-00-0000-46.png
00000009,344,1,1446752205883,1446752205939,862,462,0,0,0,3,2,1,5,0002-00-0000-66.png,0003-00-0000-58.png
00000009,345,0,1446752207076,1446752207104,888,467,0,0,0,3,4,1,7,0002-00-0000-17.png,0004-00-0001-50.png
00000009,346,1,1446752210355,1446752210972,932,413,0,0,0,2,1,1,3,0003-00-0000-91.png,0005-00-0001-00.png
00000009,347,1,1446752212295,1446752212655,961,515,0,0,0,4,3,1,7,0004-00-0000-19.png,0002-00-0000-17.png
00000009,348,0,1446752213643,1446752213691,888,462,0,0,0,0,1,1,1,0001-00-0000-41.png,0005-00-0000-80.png
00000009,349,1,1446752216811,1446752217398,964,398,0,0,0,1,0,1,1,0005-00-0001-12.png,0001-00-0001-71.png
00000009,350,0,1446752218773,1446752220015,487,248,0,0,0,3,2,1,5,0002-00-0001-70.png,0003-00-0000-03.png
00000009,351,0,1446752223453,1446752223477,869,363,0,0,0,2,3,1,5,0003-00-0000-57.png,0002-00-0000-37.png
00000009,352,0,1446752226562,1446752227219,1063,280,0,0,0,1,2,1,3,0005-00-0000-35.png,0003-00-0000-50.png
00000009,353,1,1446752230183,1446752230834,960,300,0,0,0,1,0,1,1,0005-00-0001-67.png,0001-00-0001-32.png
00000009,354,1,1446752231679,1446752231747,906,472,0,0,0,2,1,1,3,0003-00-0001-59.png,0005-00-0001-71.png
00000009,355,0,1446752232685,1446752232776,881,463,0,0,0,3,4,1,7,0002-00-0001-83.png,0004-00-0000-23.png
00000009,356,1,1446752235626,1446752236519,919,377,0,0,0,4,3,1,7,0004-00-0000-73.png,0002-00-0001-16.png
00000009,357,0,1446752237340,1446752237384,883,419,0,0,0,2,3,1,5,0003-00-0001-36.png,0002-00-0001-18.png
00000009,358,1,1446752240295,1446752240946,478,264,0,0,0,0,1,1,1,0001-00-0000-74.png,0005-00-0000-21.png
00000009,359,1,1446752242362,1446752243298,497,254,0,0,0,1,2,1,3,0005-00-0001-13.png,0003-00-0001-99.png
00000009,360,1,1446752244148,1446752244200,863,415,0,0,0,3,2,1,5,0002-00-0000-81.png,0003-00-0000-23.png
00000009,361,0,1446752245348,1446752245364,884,450,0,0,0,3,4,1,7,0002-00-0000-70.png,0004-00-0000-70.png
00000009,362,1,1446752248563,1446752249150,1041,280,0,0,0,4,3,1,7,0004-00-0001-04.png,0002-00-0001-72.png
00000009,363,1,1446752249971,1446752250031,861,465,0,0,0,2,1,1,3,0003-00-0001-46.png,0005-00-0000-34.png
00000009,364,0,1446752251006,1446752251066,858,488,0,0,0,0,1,1,1,0001-00-0000-12.png,0005-00-0000-92.png
00000009,365,0,1446752254031,1446752254736,495,259,0,0,0,1,0,1,1,0005-00-0001-15.png,0001-00-0001-70.png
00000009,366,0,1446752257816,1446752258336,1067,279,0,0,0,2,3,1,5,0003-00-0001-24.png,0002-00-0000-74.png
00000009,367,1,1446752261373,1446752261393,862,384,0,0,0,3,2,1,5,0002-00-0001-29.png,0003-00-0001-57.png
00000009,368,0,1446752262268,1446752262360,862,488,0,0,0,1,2,1,3,0005-00-0000-96.png,0003-00-0000-01.png
00000009,369,1,1446752265469,1446752266039,964,398,0,0,0,3,2,1,5,0002-00-0000-21.png,0003-00-0001-32.png
00000009,370,0,1446752266892,1446752266948,862,484,0,0,0,0,1,1,1,0001-00-0001-10.png,0005-00-0001-91.png
00000009,371,1,1446752269798,1446752270397,968,404,0,0,0,2,1,1,3,0003-00-0000-24.png,0005-00-0000-03.png
00000009,372,0,1446752271253,1446752271297,902,446,0,0,0,3,4,1,7,0002-00-0000-04.png,0004-00-0000-62.png
00000009,373,0,1446752274275,1446752275161,471,261,0,0,0,4,3,1,7,0004-00-0001-72.png,0002-00-0001-48.png
00000009,374,0,1446752278259,1446752279093,964,399,0,0,0,2,3,1,5,0003-00-0000-66.png,0002-00-0000-69.png
00000009,375,1,1446752281933,1446752282448,478,264,0,0,0,1,2,1,3,0005-00-0001-07.png,0003-00-0000-82.png
00000009,376,0,1446752283845,1446752284708,401,359,0,0,0,1,0,1,1,0005-00-0000-31.png,0001-00-0000-82.png
00000009,377,0,1446752287589,1446752288225,494,258,0,0,0,1,0,1,1,0005-00-0000-73.png,0001-00-0001-54.png
00000009,378,1,1446752291405,1446752291917,1061,283,0,0,0,2,1,1,3,0003-00-0000-83.png,0005-00-0001-08.png
00000009,379,1,1446752293284,1446752293407,888,462,0,0,0,4,3,1,7,0004-00-0000-33.png,0002-00-0001-76.png
00000009,380,0,1446752294457,1446752294553,888,474,0,0,0,0,1,1,1,0001-00-0001-77.png,0005-00-0000-58.png
00000009,381,1,1446752297588,1446752298083,495,253,0,0,0,3,4,1,7,0002-00-0001-67.png,0004-00-0001-63.png
00000009,382,0,1446752299486,1446752299538,888,436,0,0,0,1,2,1,3,0005-00-0000-04.png,0003-00-0000-21.png
00000009,383,0,1446752302455,1446752303343,410,396,0,0,0,3,2,1,5,0002-00-0001-40.png,0003-00-0001-43.png
00000009,384,0,1446752306462,1446752307351,964,421,0,0,0,2,3,1,5,0003-00-0001-52.png,0002-00-0000-14.png
00000009,385,1,1446752310249,1446752310804,1067,279,0,0,0,3,2,1,5,0002-00-0000-61.png,0003-00-0001-87.png
00000009,386,0,1446752312195,1446752312639,933,541,0,0,0,0,1,1,1,0001-00-0000-26.png,0005-00-0001-23.png
00000009,387,1,1446752315821,1446752316411,984,328,0,0,0,1,0,1,1,0005-00-0000-59.png,0001-00-0000-09.png
00000009,388,1,1446752317820,1446752317923,889,492,0,0,0,4,3,1,7,0004-00-0000-98.png,0002-00-0001-70.png
00000009,389,0,1446752318920,1446752318980,892,465,0,0,0,2,3,1,5,0003-00-0000-89.png,0002-00-0001-95.png
00000009,390,1,1446752322013,1446752322515,957,330,0,0,0,2,1,1,3,0003-00-0001-37.png,0005-00-0000-44.png
00000009,391,0,1446752323331,1446752323383,882,447,0,0,0,1,2,1,3,0005-00-0001-46.png,0003-00-0000-24.png
00000009,392,1,1446752326245,1446752326889,384,379,0,0,0,3,4,1,7,0002-00-0001-83.png,0004-00-0000-92.png
00000009,393,1,1446752328204,1446752329106,962,354,0,0,0,3,2,1,5,0002-00-0001-56.png,0003-00-0000-79.png
00000009,394,0,1446752329989,1446752330041,922,438,0,0,0,3,4,1,7,0002-00-0001-52.png,0004-00-0000-97.png
00000009,395,1,1446752332922,1446752333457,504,254,0,0,0,0,1,1,1,0001-00-0001-84.png,0005-00-0000-47.png
00000009,396,1,1446752334839,1446752336041,964,374,0,0,0,4,3,1,7,0004-00-0001-02.png,0002-00-0000-35.png
00000009,397,0,1446752336906,1446752336946,875,462,0,0,0,1,2,1,3,0005-00-0000-76.png,0003-00-0000-99.png
00000009,398,1,1446752339900,1446752340617,944,408,0,0,0,2,1,1,3,0003-00-0001-42.png,0005-00-0000-35.png
00000009,399,1,1446752341540,1446752341600,900,503,0,0,0,1,0,1,1,0005-00-0001-81.png,0001-00-0001-10.png
00000009,400,0,1446752342735,1446752342887,920,516,0,0,0,2,3,1,5,0003-00-0001-87.png,0002-00-0001-87.png
00000009,401,1,1446752346031,1446752346623,964,408,0,0,0,1,0,1,1,0005-00-0000-25.png,0001-00-0000-09.png
00000009,402,1,1446752347469,1446752347538,885,529,0,0,0,3,2,1,5,0002-00-0001-07.png,0003-00-0000-58.png
00000009,403,1,1446752348609,1446752348712,898,506,0,0,0,2,1,1,3,0003-00-0000-05.png,0005-00-0001-18.png
00000009,404,0,1446752349897,1446752349973,913,497,0,0,0,1,2,1,3,0005-00-0001-45.png,0003-00-0001-33.png
00000009,405,1,1446752352919,1446752353404,504,263,0,0,0,3,4,1,7,0002-00-0000-00.png,0004-00-0001-98.png
00000009,406,0,1446752354246,1446752355431,966,326,0,0,0,2,3,1,5,0003-00-0001-80.png,0002-00-0000-11.png
00000009,407,0,1446752358633,1446752359150,510,244,0,0,0,4,3,1,7,0004-00-0000-95.png,0002-00-0000-96.png
00000009,408,1,1446752362029,1446752362594,504,265,0,0,0,0,1,1,1,0001-00-0001-04.png,0005-00-0001-83.png
00000009,409,1,1446752364021,1446752364763,494,261,0,0,0,1,2,1,3,0005-00-0001-33.png,0003-00-0000-39.png
00000009,410,1,1446752365677,1446752365745,860,464,0,0,0,4,3,1,7,0004-00-0001-49.png,0002-00-0001-97.png
00000009,411,1,1446752366834,1446752366921,888,514,0,0,0,3,2,1,5,0002-00-0000-93.png,0003-00-0000-99.png
00000009,412,1,1446752368132,1446752368180,913,541,0,0,0,1,0,1,1,0005-00-0000-43.png,0001-00-0000-23.png
00000009,413,1,1446752369534,1446752369645,912,540,0,0,0,2,1,1,3,0003-00-0001-96.png,0005-00-0001-98.png
00000009,414,0,1446752370934,1446752370962,907,518,0,0,0,0,1,1,1,0001-00-0000-05.png,0005-00-0000-38.png
00000009,415,0,1446752373905,1446752374488,1063,277,0,0,0,2,3,1,5,0003-00-0001-27.png,0002-00-0001-60.png
00000009,416,1,1446752377770,1446752378384,399,405,0,0,0,3,4,1,7,0002-00-0000-82.png,0004-00-0001-47.png
00000009,417,1,1446752379209,1446752380032,495,227,0,0,0,0,1,1,1,0001-00-0001-48.png,0005-00-0001-49.png
00000009,418,1,1446752380931,1446752380967,858,497,0,0,0,4,3,1,7,0004-00-0001-09.png,0002-00-0001-14.png
00000009,419,1,1446752382104,1446752382140,885,520,0,0,0,2,1,1,3,0003-00-0001-16.png,0005-00-0000-91.png
00000009,420,1,1446752383432,1446752383518,906,526,0,0,0,3,2,1,5,0002-00-0001-82.png,0003-00-0001-03.png
00000009,421,1,1446752385323,1446752385371,867,530,0,0,0,1,0,1,1,0005-00-0000-09.png,0001-00-0000-67.png
00000009,422,0,1446752386508,1446752386566,888,504,0,0,0,3,4,1,7,0002-00-0001-51.png,0004-00-0000-84.png
00000009,423,1,1446752389532,1446752390003,432,401,0,0,0,1,2,1,3,0005-00-0001-56.png,0003-00-0001-80.png
00000009,424,1,1446752391354,1446752392124,491,278,0,0,0,2,3,1,5,0003-00-0000-40.png,0002-00-0000-46.png
00000009,425,1,1446752392962,1446752393034,861,467,0,0,0,4,3,1,7,0004-00-0001-80.png,0002-00-0001-43.png
00000009,426,0,1446752394078,1446752394116,888,473,0,0,0,2,3,1,5,0003-00-0000-66.png,0002-00-0000-85.png
00000009,427,1,1446752397308,1446752397791,412,362,0,0,0,3,4,1,7,0002-00-0001-14.png,0004-00-0001-15.png
00000009,428,0,1446752398617,1446752398680,860,514,0,0,0,0,1,1,1,0001-00-0000-56.png,0005-00-0000-91.png
00000009,429,1,1446752401548,1446752402157,964,332,0,0,0,2,1,1,3,0003-00-0000-79.png,0005-00-0001-74.png
00000009,430,0,1446752403470,1446752403756,942,541,0,0,0,1,2,1,3,0005-00-0001-48.png,0003-00-0000-96.png
00000009,431,0,1446752406779,1446752407274,464,422,0,0,0,1,0,1,1,0005-00-0001-17.png,0001-00-0001-30.png
00000009,432,0,1446752410255,1446752410891,403,373,0,0,0,3,2,1,5,0002-00-0000-07.png,0003-00-0000-15.png
00000009,433,0,1446752413931,1446752414467,493,277,0,0,0,4,3,1,7,0004-00-0001-07.png,0002-00-0000-01.png
00000009,434,1,1446752417471,1446752417988,434,350,0,0,0,3,4,1,7,0002-00-0000-86.png,0004-00-0000-93.png
00000009,435,1,1446752418821,1446752418857,865,484,0,0,0,3,2,1,5,0002-00-0000-03.png,0003-00-0001-71.png
00000009,436,0,1446752419835,1446752419952,896,491,0,0,0,1,2,1,3,0005-00-0001-69.png,0003-00-0000-03.png
00000009,437,0,1446752422978,1446752423702,487,278,0,0,0,1,0,1,1,0005-00-0000-42.png,0001-00-0000-57.png
00000009,438,0,1446752426812,1446752426860,914,323,0,0,0,0,1,1,1,0001-00-0001-49.png,0005-00-0001-89.png
00000009,439,0,1446752429955,1446752430464,1066,283,0,0,0,2,3,1,5,0003-00-0001-05.png,0002-00-0000-54.png
00000009,440,1,1446752435589,1446752435633,888,320,0,0,0,2,1,1,3,0003-00-0001-52.png,0005-00-0000-58.png
00000009,441,1,1446752436593,1446752437516,480,275,0,0,0,1,2,1,3,0005-00-0001-17.png,0003-00-0001-31.png
00000009,442,1,1446752438378,1446752439377,949,327,0,0,0,3,2,1,5,0002-00-0000-07.png,0003-00-0001-01.png
00000009,443,1,1446752440279,1446752440307,893,435,0,0,0,1,0,1,1,0005-00-0000-24.png,0001-00-0000-96.png
00000009,444,0,1446752441393,1446752441468,879,488,0,0,0,2,3,1,5,0003-00-0001-56.png,0002-00-0001-76.png
00000009,445,1,1446752447463,1446752447491,871,328,0,0,0,4,3,1,7,0004-00-0000-12.png,0002-00-0000-95.png
00000009,446,1,1446752448408,1446752449289,940,339,0,0,0,2,1,1,3,0003-00-0000-62.png,0005-00-0001-26.png
00000009,447,0,1446752450122,1446752450182,919,429,0,0,0,3,4,1,7,0002-00-0001-56.png,0004-00-0000-14.png
00000009,448,1,1446752453735,1446752454176,473,290,0,0,0,0,1,1,1,0001-00-0000-58.png,0005-00-0001-42.png
00000009,449,1,1446752455464,1446752456193,948,351,0,0,0,4,3,1,7,0004-00-0000-22.png,0002-00-0001-09.png
00000009,450,0,1446752457040,1446752457927,961,433,0,0,0,1,2,1,3,0005-00-0001-38.png,0003-00-0001-36.png
00000009,451,1,1446752461046,1446752461074,870,325,0,0,0,1,0,1,1,0005-00-0000-12.png,0001-00-0000-89.png
00000009,452,1,1446752462449,1446752463393,945,348,0,0,0,3,2,1,5,0002-00-0000-63.png,0003-00-0001-14.png
00000009,453,0,1446752464784,1446752465733,1042,284,0,0,0,0,1,1,1,0001-00-0000-37.png,0005-00-0000-81.png
00000009,454,0,1446752468829,1446752468857,862,322,0,0,0,3,4,1,7,0002-00-0000-33.png,0004-00-0001-95.png
00000009,455,1,1446752471930,1446752472051,893,284,0,0,0,2,1,1,3,0003-00-0000-97.png,0005-00-0001-32.png
00000009,456,1,1446752472942,1446752473885,366,354,0,0,0,2,3,1,5,0003-00-0000-09.png,0002-00-0000-65.png
00000009,457,1,1446752474718,1446752475864,964,349,0,0,0,4,3,1,7,0004-00-0001-02.png,0002-00-0000-50.png
00000009,458,0,1446752476717,1446752477615,507,261,0,0,0,3,2,1,5,0002-00-0001-33.png,0003-00-0000-42.png
00000009,459,1,1446752480794,1446752480818,877,332,0,0,0,2,1,1,3,0003-00-0000-05.png,0005-00-0001-05.png
00000009,460,1,1446752481716,1446752482849,495,253,0,0,0,2,3,1,5,0003-00-0000-66.png,0002-00-0001-99.png
00000009,461,0,1446752483743,1446752483812,858,470,0,0,0,3,4,1,7,0002-00-0001-45.png,0004-00-0001-89.png
00000009,462,1,1446752486697,1446752487249,462,404,0,0,0,1,2,1,3,0005-00-0000-27.png,0003-00-0000-78.png
00000009,463,1,1446752488734,1446752489329,1078,279,0,0,0,1,0,1,1,0005-00-0000-62.png,0001-00-0001-43.png
00000009,464,0,1446752490703,1446752491043,940,545,0,0,0,0,1,1,1,0001-00-0001-67.png,0005-00-0001-20.png
00000009,465,1,1446752494198,1446752494761,964,398,0,0,0,4,3,1,7,0004-00-0000-25.png,0002-00-0001-83.png
00000009,466,1,1446752496030,1446752496913,1017,289,0,0,0,2,1,1,3,0003-00-0000-77.png,0005-00-0000-78.png
00000009,467,1,1446752497774,1446752497857,911,438,0,0,0,3,2,1,5,0002-00-0000-97.png,0003-00-0001-24.png
00000009,468,0,1446752499825,1446752499873,871,493,0,0,0,0,1,1,1,0001-00-0001-82.png,0005-00-0001-01.png
00000009,469,1,1446752502857,1446752503324,487,280,0,0,0,1,2,1,3,0005-00-0001-91.png,0003-00-0001-74.png
00000009,470,1,1446752504576,1446752505199,399,361,0,0,0,3,4,1,7,0002-00-0001-16.png,0004-00-0001-88.png
00000009,471,0,1446752506046,1446752506098,859,462,0,0,0,2,3,1,5,0003-00-0000-94.png,0002-00-0001-14.png
00000009,472,1,1446752509019,1446752509716,990,322,0,0,0,1,0,1,1,0005-00-0000-31.png,0001-00-0001-61.png
00000009,473,0,1446752510886,1446752511627,501,459,0,0,0,3,2,1,5,0002-00-0000-83.png,0003-00-0000-25.png
00000009,474,1,1446752514750,1446752515298,1091,258,0,0,0,2,1,1,3,0003-00-0000-19.png,0005-00-0001-35.png
00000009,475,0,1446752516161,1446752516244,887,517,0,0,0,1,2,1,3,0005-00-0001-83.png,0003-00-0001-07.png
00000009,476,0,1446752519354,1446752519984,964,399,0,0,0,0,1,1,1,0001-00-0000-41.png,0005-00-0001-24.png
00000009,477,0,1446752524016,1446752524582,978,410,0,0,0,2,3,1,5,0003-00-0000-08.png,0002-00-0001-07.png
00000009,478,1,1446752527781,1446752527801,902,358,0,0,0,4,3,1,7,0004-00-0000-55.png,0002-00-0001-68.png
00000009,479,0,1446752529210,1446752530032,514,227,0,0,0,1,0,1,1,0005-00-0000-38.png,0001-00-0000-00.png
00000009,480,0,1446752532966,1446752533499,1073,278,0,0,0,3,4,1,7,0002-00-0001-70.png,0004-00-0000-11.png
00000009,481,0,1446752536488,1446752537101,947,403,0,0,0,2,3,1,5,0003-00-0001-90.png,0002-00-0000-48.png
00000009,482,1,1446752540094,1446752540707,967,324,0,0,0,3,2,1,5,0002-00-0000-03.png,0003-00-0001-89.png
00000009,483,0,1446752541531,1446752541601,888,474,0,0,0,1,2,1,3,0005-00-0000-15.png,0003-00-0001-40.png
00000009,484,0,1446752544751,1446752545284,964,425,0,0,0,0,1,1,1,0001-00-0001-75.png,0005-00-0000-62.png
00000009,485,0,1446752548372,1446752548874,441,436,0,0,0,1,0,1,1,0005-00-0001-96.png,0001-00-0000-40.png
00000009,486,0,1446752551900,1446752551916,867,354,0,0,0,3,4,1,7,0002-00-0001-46.png,0004-00-0001-60.png
00000009,487,1,1446752555021,1446752555688,943,385,0,0,0,4,3,1,7,0004-00-0001-50.png,0002-00-0000-58.png
00000009,488,1,1446752556559,1446752556579,860,448,0,0,0,2,1,1,3,0003-00-0001-32.png,0005-00-0001-99.png
00000009,489,1,1446752557602,1446752558822,504,239,0,0,0,3,4,1,7,0002-00-0001-92.png,0004-00-0000-11.png
00000009,490,0,1446752559747,1446752560710,939,347,0,0,0,0,1,1,1,0001-00-0001-06.png,0005-00-0000-38.png
00000009,491,1,1446752563581,1446752564158,1067,280,0,0,0,2,1,1,3,0003-00-0000-61.png,0005-00-0001-72.png
00000009,492,0,1446752565014,1446752565042,884,442,0,0,0,2,3,1,5,0003-00-0001-90.png,0002-00-0001-83.png
00000009,493,1,1446752568026,1446752568576,504,268,0,0,0,1,2,1,3,0005-00-0000-42.png,0003-00-0000-76.png
00000009,494,1,1446752569393,1446752569433,892,457,0,0,0,1,0,1,1,0005-00-0000-30.png,0001-00-0000-74.png
00000009,495,1,1446752570371,1446752570469,871,454,0,0,0,3,2,1,5,0002-00-0000-78.png,0003-00-0000-92.png
00000009,496,1,1446752571645,1446752574033,939,381,0,0,0,4,3,1,7,0004-00-0001-28.png,0002-00-0000-65.png
00000009,497,0,1446752574881,1446752574933,871,443,0,0,0,2,3,1,5,0003-00-0000-07.png,0002-00-0001-65.png
00000009,498,0,1446752577762,1446752578633,377,358,0,0,0,3,2,1,5,0002-00-0001-06.png,0003-00-0001-80.png
00000009,499,1,1446752581873,1446752582930,478,243,0,0,0,1,2,1,3,0005-00-0001-08.png,0003-00-0001-53.png
00000009,500,1,1446752583755,1446752584693,501,245,0,0,0,3,4,1,7,0002-00-0001-43.png,0004-00-0001-22.png
00000009,501,1,1446752585635,1446752585675,891,460,0,0,0,1,0,1,1,0005-00-0001-82.png,0001-00-0001-20.png
00000009,502,1,1446752586707,1446752586776,888,462,0,0,0,2,1,1,3,0003-00-0001-24.png,0005-00-0000-29.png
00000009,503,1,1446752587960,1446752588000,890,478,0,0,0,4,3,1,7,0004-00-0001-96.png,0002-00-0001-55.png
00000009,504,0,1446752589224,1446752589280,888,501,0,0,0,0,1,1,1,0001-00-0001-54.png,0005-00-0001-88.png
00000009,505,1,1446752592271,1446752592855,1078,306,0,0,0,1,0,1,1,0005-00-0000-94.png,0001-00-0000-43.png
00000009,506,0,1446752594182,1446752594261,913,451,0,0,0,1,2,1,3,0005-00-0001-12.png,0003-00-0000-79.png
00000009,507,1,1446752597110,1446752597684,516,268,0,0,0,3,4,1,7,0002-00-0000-23.png,0004-00-0001-94.png
00000009,508,1,1446752599052,1446752599147,886,465,0,0,0,3,2,1,5,0002-00-0001-02.png,0003-00-0001-25.png
00000009,509,1,1446752600065,1446752601016,939,370,0,0,0,4,3,1,7,0004-00-0000-40.png,0002-00-0001-55.png
00000009,510,0,1446752610841,1446752611307,1018,279,0,0,0,0,1,1,1,0001-00-0000-48.png,0005-00-0001-40.png
00000009,511,0,1446752614431,1446752615114,1092,279,0,0,0,2,3,1,5,0003-00-0001-73.png,0002-00-0000-18.png
00000009,512,1,1446752618241,1446752618257,882,337,0,0,0,2,1,1,3,0003-00-0000-29.png,0005-00-0001-02.png
00000009,513,1,1446752619580,1446752620266,943,330,0,0,0,2,1,1,3,0003-00-0001-52.png,0005-00-0000-60.png
00000009,514,1,1446752621608,1446752621945,986,515,0,0,0,3,2,1,5,0002-00-0000-21.png,0003-00-0001-29.png
00000009,515,1,1446752622900,1446752623959,501,261,0,0,0,0,1,1,1,0001-00-0000-59.png,0005-00-0000-15.png
00000009,516,0,1446752624838,1446752624854,864,442,0,0,0,1,2,1,3,0005-00-0000-58.png,0003-00-0001-74.png
00000009,517,1,1446752627748,1446752628341,944,327,0,0,0,1,0,1,1,0005-00-0000-81.png,0001-00-0001-80.png
00000009,518,0,1446752629549,1446752630664,953,358,0,0,0,3,4,1,7,0002-00-0001-85.png,0004-00-0001-45.png
00000009,519,0,1446752633800,1446752633828,882,316,0,0,0,2,3,1,5,0003-00-0000-38.png,0002-00-0000-69.png
00000009,520,1,1446752644501,1446752644569,883,303,0,0,0,4,3,1,7,0004-00-0001-93.png,0002-00-0000-13.png
00000009,521,1,1446752645554,1446752645634,888,410,0,0,0,2,1,1,3,0003-00-0000-31.png,0005-00-0000-99.png
00000009,522,0,1446752646621,1446752646637,897,464,0,0,0,3,4,1,7,0002-00-0000-57.png,0004-00-0001-72.png
00000009,523,0,1446752649729,1446752650292,1072,276,0,0,0,2,3,1,5,0003-00-0001-89.png,0002-00-0001-32.png
00000009,524,1,1446752653397,1446752653869,479,282,0,0,0,0,1,1,1,0001-00-0000-20.png,0005-00-0000-05.png
00000009,525,0,1446752655096,1446752655890,478,262,0,0,0,3,2,1,5,0002-00-0001-75.png,0003-00-0001-40.png
00000009,526,0,1446752659053,1446752659657,502,254,0,0,0,4,3,1,7,0004-00-0001-52.png,0002-00-0001-11.png
00000009,527,1,1446752662639,1446752663197,487,261,0,0,0,1,2,1,3,0005-00-0001-01.png,0003-00-0001-98.png
00000009,528,0,1446752664538,1446752665363,482,263,0,0,0,1,0,1,1,0005-00-0000-30.png,0001-00-0000-85.png
00000009,529,1,1446752668294,1446752668915,478,265,0,0,0,3,4,1,7,0002-00-0000-26.png,0004-00-0000-40.png
00000009,530,1,1446752670189,1446752670354,913,488,0,0,0,4,3,1,7,0004-00-0001-13.png,0002-00-0001-26.png
00000009,531,0,1446752671353,1446752671404,863,438,0,0,0,2,3,1,5,0003-00-0001-67.png,0002-00-0001-90.png
00000009,532,1,1446752674552,1446752675094,964,336,0,0,0,1,0,1,1,0005-00-0000-71.png,0001-00-0001-19.png
00000009,533,1,1446752676502,1446752676659,939,514,0,0,0,3,2,1,5,0002-00-0000-32.png,0003-00-0001-41.png
00000009,534,0,1446752677653,1446752677711,870,466,0,0,0,0,1,1,1,0001-00-0000-01.png,0005-00-0000-18.png
00000009,535,1,1446752680815,1446752681377,1086,299,0,0,0,2,1,1,3,0003-00-0001-73.png,0005-00-0001-92.png
00000009,536,0,1446752682244,1446752682277,867,492,0,0,0,1,2,1,3,0005-00-0001-38.png,0003-00-0001-48.png
00000009,537,1,1446752685408,1446752685956,990,343,0,0,0,2,1,1,3,0003-00-0001-78.png,0005-00-0001-32.png
00000009,538,0,1446752687236,1446752687528,939,517,0,0,0,2,3,1,5,0003-00-0000-97.png,0002-00-0001-81.png
00000009,539,0,1446752690433,1446752691077,424,358,0,0,0,4,3,1,7,0004-00-0001-90.png,0002-00-0001-89.png
00000009,540,1,1446752693914,1446752694543,507,277,0,0,0,3,4,1,7,0002-00-0000-52.png,0004-00-0000-78.png
00000009,541,0,1446752695822,1446752695905,915,487,0,0,0,0,1,1,1,0001-00-0000-45.png,0005-00-0000-03.png
00000009,542,1,1446752698791,1446752699406,478,276,0,0,0,1,2,1,3,0005-00-0000-63.png,0003-00-0001-50.png
00000009,543,1,1446752700769,1446752700856,911,436,0,0,0,1,0,1,1,0005-00-0001-12.png,0001-00-0000-26.png
00000009,544,1,1446752701884,1446752701944,911,449,0,0,0,3,2,1,5,0002-00-0001-92.png,0003-00-0000-30.png
00000009,545,0,1446752703055,1446752703099,895,481,0,0,0,2,3,1,5,0003-00-0001-01.png,0002-00-0001-61.png
00000009,546,1,1446752706066,1446752706648,421,378,0,0,0,0,1,1,1,0001-00-0000-63.png,0005-00-0000-78.png
00000009,547,1,1446752707984,1446752708414,943,527,0,0,0,2,1,1,3,0003-00-0000-81.png,0005-00-0001-97.png
00000009,548,1,1446752709367,1446752709383,865,440,0,0,0,4,3,1,7,0004-00-0001-14.png,0002-00-0000-94.png
00000009,549,0,1446752710429,1446752710449,888,436,0,0,0,1,2,1,3,0005-00-0001-04.png,0003-00-0001-47.png
00000009,550,1,1446752713479,1446752714047,474,452,0,0,0,3,4,1,7,0002-00-0001-10.png,0004-00-0000-31.png
00000009,551,0,1446752714899,1446752715776,497,289,0,0,0,1,0,1,1,0005-00-0001-41.png,0001-00-0001-65.png
00000009,552,0,1446752718756,1446752719620,504,265,0,0,0,3,2,1,5,0002-00-0001-40.png,0003-00-0001-27.png
00000009,553,1,1446752722750,1446752723673,471,299,0,0,0,0,1,1,1,0001-00-0001-45.png,0005-00-0001-70.png
00000009,554,1,1446752724507,1446752725474,939,436,0,0,0,4,3,1,7,0004-00-0001-96.png,0002-00-0000-47.png
00000009,555,1,1446752726315,1446752727478,960,415,0,0,0,2,1,1,3,0003-00-0001-69.png,0005-00-0001-68.png
00000009,556,0,1446752728416,1446752728444,894,457,0,0,0,2,3,1,5,0003-00-0001-37.png,0002-00-0001-18.png
00000009,557,1,1446752731277,1446752731751,507,282,0,0,0,3,4,1,7,0002-00-0000-08.png,0004-00-0000-34.png
00000009,558,1,1446752733086,1446752733164,888,436,0,0,0,1,0,1,1,0005-00-0001-60.png,0001-00-0001-03.png
00000009,559,0,1446752734886,1446752734954,902,473,0,0,0,1,2,1,3,0005-00-0000-43.png,0003-00-0001-02.png
00000009,560,1,1446752737785,1446752738546,1065,257,0,0,0,3,2,1,5,0002-00-0001-92.png,0003-00-0001-12.png
00000009,561,1,1446752739969,1446752740021,907,417,0,0,0,2,1,1,3,0003-00-0001-23.png,0005-00-0000-99.png
00000009,562,1,1446752741028,1446752741076,879,436,0,0,0,1,0,1,1,0005-00-0000-13.png,0001-00-0001-30.png
00000009,563,1,1446752742935,1446752743018,936,461,0,0,0,3,2,1,5,0002-00-0001-86.png,0003-00-0000-00.png
00000009,564,1,1446752744008,1446752744917,518,237,0,0,0,3,4,1,7,0002-00-0000-60.png,0004-00-0001-81.png
00000009,565,1,1446752745834,1446752746677,412,369,0,0,0,0,1,1,1,0001-00-0000-41.png,0005-00-0001-30.png
00000009,566,0,1446752747601,1446752747653,888,451,0,0,0,1,2,1,3,0005-00-0001-73.png,0003-00-0000-22.png
00000009,567,0,1446752750574,1446752751142,1071,281,0,0,0,2,3,1,5,0003-00-0000-87.png,0002-00-0001-96.png
00000009,568,1,1446752754102,1446752754564,991,302,0,0,0,4,3,1,7,0004-00-0001-63.png,0002-00-0000-05.png
00000009,569,0,1446752755872,1446752755951,912,430,0,0,0,1,2,1,3,0005-00-0001-74.png,0003-00-0001-25.png
00000009,570,0,1446752759004,1446752760082,492,290,0,0,0,3,2,1,5,0002-00-0000-07.png,0003-00-0001-14.png
00000009,571,1,1446752764090,1446752764835,504,270,0,0,0,0,1,1,1,0001-00-0001-05.png,0005-00-0000-11.png
00000009,572,1,1446752766292,1446752766320,887,473,0,0,0,1,0,1,1,0005-00-0000-55.png,0001-00-0000-96.png
00000009,573,0,1446752768068,1446752768096,888,421,0,0,0,3,4,1,7,0002-00-0001-65.png,0004-00-0000-45.png
00000009,574,0,1446752771168,1446752771212,892,330,0,0,0,2,3,1,5,0003-00-0000-94.png,0002-00-0000-31.png
00000009,575,1,1446752774208,1446752774734,992,328,0,0,0,4,3,1,7,0004-00-0001-29.png,0002-00-0000-23.png
00000009,576,1,1446752775967,1446752776158,943,468,0,0,0,2,1,1,3,0003-00-0000-43.png,0005-00-0001-25.png
00000009,577,0,1446752777128,1446752777195,862,462,0,0,0,0,1,1,1,0001-00-0001-00.png,0005-00-0001-97.png
00000009,578,1,1446752780068,1446752780597,391,355,0,0,0,1,2,1,3,0005-00-0001-89.png,0003-00-0001-62.png
00000009,579,1,1446752781899,1446752782017,913,462,0,0,0,3,2,1,5,0002-00-0001-28.png,0003-00-0000-38.png
00000009,580,1,1446752782914,1446752783032,904,488,0,0,0,4,3,1,7,0004-00-0001-02.png,0002-00-0000-32.png
00000009,581,0,1446752784186,1446752784222,925,467,0,0,0,3,4,1,7,0002-00-0001-10.png,0004-00-0000-18.png
00000009,582,0,1446752787335,1446752787989,488,276,0,0,0,1,0,1,1,0005-00-0001-45.png,0001-00-0001-51.png
00000009,583,0,1446752790954,1446752791606,514,240,0,0,0,2,1,1,3,0003-00-0001-87.png,0005-00-0000-80.png
00000009,584,0,1446752794709,1446752795209,1067,279,0,0,0,2,3,1,5,0003-00-0000-32.png,0002-00-0000-76.png
00000009,585,0,1446752798099,1446752798123,888,358,0,0,0,3,4,1,7,0002-00-0001-33.png,0004-00-0000-74.png
00000009,586,0,1446752801058,1446752801617,990,323,0,0,0,1,2,1,3,0005-00-0000-19.png,0003-00-0001-36.png
00000009,587,1,1446752804659,1446752805183,967,329,0,0,0,2,1,1,3,0003-00-0000-22.png,0005-00-0001-59.png
00000009,588,1,1446752806009,1446752806037,866,412,0,0,0,3,2,1,5,0002-00-0000-45.png,0003-00-0000-67.png
00000009,589,0,1446752807192,1446752807259,880,436,0,0,0,0,1,1,1,0001-00-0000-43.png,0005-00-0001-01.png
00000009,590,1,1446752810451,1446752811035,964,395,0,0,0,4,3,1,7,0004-00-0001-80.png,0002-00-0001-78.png
00000009,591,1,1446752812340,1446752813343,964,305,0,0,0,1,0,1,1,0005-00-0000-27.png,0001-00-0000-04.png
00000009,592,0,1446752814212,1446752814255,919,403,0,0,0,2,3,1,5,0003-00-0000-24.png,0002-00-0001-31.png
00000009,593,1,1446752817336,1446752817952,932,400,0,0,0,2,1,1,3,0003-00-0000-09.png,0005-00-0000-86.png
00000009,594,1,1446752819256,1446752819521,917,518,0,0,0,4,3,1,7,0004-00-0001-32.png,0002-00-0000-96.png
00000009,595,0,1446752820487,1446752820597,883,492,0,0,0,0,1,1,1,0001-00-0000-76.png,0005-00-0001-07.png
00000009,596,1,1446752823457,1446752824027,506,282,0,0,0,1,2,1,3,0005-00-0000-19.png,0003-00-0001-16.png
00000009,597,1,1446752825358,1446752826281,939,319,0,0,0,3,2,1,5,0002-00-0001-84.png,0003-00-0000-96.png
00000009,598,0,1446752827104,1446752827179,888,472,0,0,0,2,3,1,5,0003-00-0001-56.png,0002-00-0000-04.png
00000009,599,1,1446752830532,1446752831186,487,279,0,0,0,3,4,1,7,0002-00-0000-68.png,0004-00-0000-81.png
00000009,600,1,1446752832589,1446752832665,912,478,0,0,0,1,0,1,1,0005-00-0000-83.png,0001-00-0001-59.png
00000009,601,0,1446752833630,1446752833677,862,447,0,0,0,1,2,1,3,0005-00-0001-99.png,0003-00-0001-56.png
00000009,602,0,1446752836805,1446752836997,862,425,0,0,0,3,4,1,7,0002-00-0001-31.png,0004-00-0001-50.png
00000009,603,1,1446752840174,1446752840690,479,278,0,0,0,0,1,1,1,0001-00-0001-59.png,0005-00-0000-84.png
00000009,604,1,1446752841891,1446752842636,943,354,0,0,0,1,0,1,1,0005-00-0000-18.png,0001-00-0001-14.png
00000009,605,1,1446752844085,1446752844254,909,513,0,0,0,2,1,1,3,0003-00-0001-46.png,0005-00-0001-30.png
00000009,606,0,1446752845302,1446752845357,926,463,0,0,0,2,3,1,5,0003-00-0001-19.png,0002-00-0000-39.png
00000009,607,0,1446752848637,1446752849154,461,428,0,0,0,3,2,1,5,0002-00-0001-95.png,0003-00-0001-15.png
00000009,608,1,1446752852246,1446752852761,968,304,0,0,0,4,3,1,7,0004-00-0001-56.png,0002-00-0001-95.png
00000009,609,0,1446752853996,1446752854448,964,541,0,0,0,3,4,1,7,0002-00-0001-07.png,0004-00-0001-75.png
00000009,610,0,1446752857524,1446752858050,939,372,0,0,0,0,1,1,1,0001-00-0001-97.png,0005-00-0000-44.png
00000009,611,1,1446752861101,1446752861891,939,376,0,0,0,4,3,1,7,0004-00-0000-72.png,0002-00-0001-21.png
00000009,612,1,1446752862778,1446752862840,862,503,0,0,0,2,1,1,3,0003-00-0000-06.png,0005-00-0000-35.png
00000009,613,1,1446752863743,1446752863775,883,439,0,0,0,3,2,1,5,0002-00-0000-16.png,0003-00-0001-32.png
00000009,614,1,1446752864945,1446752864985,949,468,0,0,0,1,0,1,1,0005-00-0001-25.png,0001-00-0001-61.png
00000009,615,0,1446752866120,1446752866198,922,462,0,0,0,1,2,1,3,0005-00-0000-34.png,0003-00-0001-48.png
00000009,616,0,1446752869261,1446752869757,1064,279,0,0,0,2,3,1,5,0003-00-0001-25.png,0002-00-0000-32.png
00000009,617,1,1446752872739,1446752873227,515,315,0,0,0,1,2,1,3,0005-00-0000-16.png,0003-00-0001-09.png
00000009,618,1,1446752874111,1446752875112,1045,288,0,0,0,2,1,1,3,0003-00-0000-55.png,0005-00-0000-62.png
00000009,619,0,1446752875967,1446752875999,879,443,0,0,0,0,1,1,1,0001-00-0001-85.png,0005-00-0000-15.png
00000009,620,1,1446752879406,1446752879453,934,296,0,0,0,1,0,1,1,0005-00-0000-04.png,0001-00-0001-50.png
00000009,621,1,1446752880318,1446752881254,477,280,0,0,0,3,4,1,7,0002-00-0000-75.png,0004-00-0000-92.png
00000009,622,0,1446752882089,1446752883193,502,247,0,0,0,4,3,1,7,0004-00-0000-10.png,0002-00-0001-78.png
00000009,623,0,1446752886291,1446752886820,965,330,0,0,0,2,3,1,5,0003-00-0001-48.png,0002-00-0001-37.png
00000009,624,1,1446752890328,1446752890357,876,306,0,0,0,3,2,1,5,0002-00-0001-12.png,0003-00-0000-48.png
00000009,625,1,1446752891240,1446752892113,1041,287,0,0,0,2,1,1,3,0003-00-0001-96.png,0005-00-0001-07.png
00000009,626,1,1446752893611,1446752893663,888,473,0,0,0,3,2,1,5,0002-00-0000-52.png,0003-00-0001-35.png
00000009,627,0,1446752894693,1446752894733,893,482,0,0,0,3,4,1,7,0002-00-0000-69.png,0004-00-0001-66.png
00000009,628,0,1446752897942,1446752898545,501,256,0,0,0,4,3,1,7,0004-00-0000-32.png,0002-00-0001-36.png
00000009,629,1,1446752901668,1446752902284,414,378,0,0,0,0,1,1,1,0001-00-0001-30.png,0005-00-0000-71.png
00000009,630,0,1446752903664,1446752904695,961,319,0,0,0,2,3,1,5,0003-00-0001-58.png,0002-00-0000-68.png
00000009,631,1,1446752907671,1446752908161,409,357,0,0,0,1,2,1,3,0005-00-0001-43.png,0003-00-0001-47.png
00000009,632,1,1446752909006,1446752909999,964,422,0,0,0,1,0,1,1,0005-00-0000-80.png,0001-00-0001-31.png
00000009,633,0,1446752910910,1446752910930,859,395,0,0,0,0,1,1,1,0001-00-0000-53.png,0005-00-0001-70.png
00000009,634,0,1446752913922,1446752914661,939,374,0,0,0,3,4,1,7,0002-00-0001-15.png,0004-00-0001-21.png
00000009,635,0,1446752917640,1446752918237,442,389,0,0,0,3,2,1,5,0002-00-0001-57.png,0003-00-0001-29.png
00000009,636,0,1446752921283,1446752921773,964,371,0,0,0,2,3,1,5,0003-00-0001-21.png,0002-00-0000-99.png
00000009,637,1,1446752924781,1446752925027,958,329,0,0,0,2,1,1,3,0003-00-0001-58.png,0005-00-0000-36.png
00000009,638,1,1446752925945,1446752926915,942,341,0,0,0,4,3,1,7,0004-00-0000-24.png,0002-00-0000-52.png
00000009,639,1,1446752927762,1446752927814,897,409,0,0,0,1,0,1,1,0005-00-0000-88.png,0001-00-0001-12.png
00000009,640,0,1446752928992,1446752929161,921,543,0,0,0,1,2,1,3,0005-00-0001-74.png,0003-00-0000-76.png
00000009,641,0,1446752932287,1446752932875,1067,279,0,0,0,2,3,1,5,0003-00-0001-82.png,0002-00-0000-15.png
00000009,642,1,1446752935914,1446752937071,1037,280,0,0,0,3,2,1,5,0002-00-0000-00.png,0003-00-0000-06.png
00000009,643,0,1446752937907,1446752937931,865,466,0,0,0,3,4,1,7,0002-00-0000-57.png,0004-00-0001-00.png
00000009,644,1,1446752941022,1446752941077,930,353,0,0,0,1,0,1,1,0005-00-0000-62.png,0001-00-0001-70.png
00000009,645,1,1446752941942,1446752942932,941,411,0,0,0,4,3,1,7,0004-00-0000-94.png,0002-00-0001-65.png
00000009,646,0,1446752943840,1446752943864,893,395,0,0,0,0,1,1,1,0001-00-0001-14.png,0005-00-0001-05.png
00000009,647,1,1446752946963,1446752947465,504,262,0,0,0,1,2,1,3,0005-00-0000-38.png,0003-00-0001-01.png
00000009,648,1,1446752948723,1446752949428,943,322,0,0,0,2,1,1,3,0003-00-0000-80.png,0005-00-0001-18.png
00000009,649,1,1446752950301,1446752950341,878,412,0,0,0,4,3,1,7,0004-00-0000-83.png,0002-00-0000-06.png
00000009,650,1,1446752951442,1446752951579,931,518,0,0,0,1,0,1,1,0005-00-0000-09.png,0001-00-0001-56.png
00000009,651,1,1446752952720,1446752952776,881,517,0,0,0,2,1,1,3,0003-00-0001-05.png,0005-00-0000-18.png
00000009,652,0,1446752953959,1446752953995,892,491,0,0,0,3,4,1,7,0002-00-0000-75.png,0004-00-0001-28.png
00000009,653,1,1446752956860,1446752957450,1039,276,0,0,0,3,2,1,5,0002-00-0001-12.png,0003-00-0000-26.png
00000009,654,0,1446752958298,1446752959262,938,358,0,0,0,2,3,1,5,0003-00-0000-64.png,0002-00-0000-52.png
00000009,655,1,1446752962368,1446752962854,498,279,0,0,0,0,1,1,1,0001-00-0001-11.png,0005-00-0000-26.png
00000009,656,1,1446752963727,1446752964499,491,248,0,0,0,1,2,1,3,0005-00-0000-46.png,0003-00-0000-77.png
00000009,657,0,1446752965337,1446752966787,897,486,0,0,0,1,2,1,3,0005-00-0001-16.png,0003-00-0001-72.png
00000009,658,1,1446752969881,1446752970422,964,397,0,0,0,1,0,1,1,0005-00-0001-65.png,0001-00-0000-71.png
00000009,659,0,1446752971748,1446752971871,908,455,0,0,0,2,3,1,5,0003-00-0000-53.png,0002-00-0000-95.png
00000009,660,0,1446752975138,1446752975664,502,307,0,0,0,4,3,1,7,0004-00-0000-34.png,0002-00-0000-98.png
00000009,661,0,1446752978775,1446752978828,907,309,0,0,0,0,1,1,1,0001-00-0000-99.png,0005-00-0000-76.png
00000009,662,1,1446752981787,1446752982329,964,345,0,0,0,2,1,1,3,0003-00-0000-35.png,0005-00-0001-60.png
00000009,663,0,1446752983645,1446752984669,1076,306,0,0,0,3,4,1,7,0002-00-0001-54.png,0004-00-0001-82.png
00000009,664,0,1446752988218,1446752988711,482,253,0,0,0,3,2,1,5,0002-00-0000-69.png,0003-00-0000-14.png
00000009,665,1,1446752991891,1446752991943,907,306,0,0,0,3,2,1,5,0002-00-0000-84.png,0003-00-0000-51.png
00000009,666,1,1446752992844,1446752992892,864,461,0,0,0,4,3,1,7,0004-00-0001-14.png,0002-00-0000-84.png
00000009,667,1,1446752993799,1446752994756,911,357,0,0,0,2,1,1,3,0003-00-0000-26.png,0005-00-0000-06.png
00000009,668,0,1446752995667,1446752995699,884,435,0,0,0,3,4,1,7,0002-00-0001-78.png,0004-00-0001-71.png
00000009,669,0,1446752998538,1446752999124,500,249,0,0,0,1,0,1,1,0005-00-0000-24.png,0001-00-0000-32.png
00000009,670,1,1446753002110,1446753002814,488,257,0,0,0,0,1,1,1,0001-00-0000-37.png,0005-00-0001-57.png
00000009,671,0,1446753004127,1446753004417,919,547,0,0,0,2,3,1,5,0003-00-0000-03.png,0002-00-0001-91.png
00000009,672,1,1446753007534,1446753008047,486,241,0,0,0,1,2,1,3,0005-00-0000-33.png,0003-00-0000-14.png
00000009,673,1,1446753009450,1446753009768,913,541,0,0,0,3,2,1,5,0002-00-0001-13.png,0003-00-0000-26.png
00000009,674,1,1446753010804,1446753011754,457,258,0,0,0,1,2,1,3,0005-00-0001-53.png,0003-00-0000-50.png
00000009,675,1,1446753012639,1446753013555,938,334,0,0,0,2,1,1,3,0003-00-0001-49.png,0005-00-0001-02.png
00000009,676,0,1446753014480,1446753015819,957,408,0,0,0,3,4,1,7,0002-00-0001-74.png,0004-00-0001-62.png
00000009,677,0,1446753019001,1446753019034,862,332,0,0,0,0,1,1,1,0001-00-0000-29.png,0005-00-0000-82.png
00000009,678,0,1446753021991,1446753022912,496,253,0,0,0,1,0,1,1,0005-00-0000-95.png,0001-00-0000-86.png
00000009,679,1,1446753025877,1446753026387,1066,281,0,0,0,4,3,1,7,0004-00-0001-00.png,0002-00-0001-93.png
00000009,680,1,1446753027776,1446753028655,506,257,0,0,0,2,3,1,5,0003-00-0000-72.png,0002-00-0000-18.png
00000009,681,0,1446753029512,1446753030687,488,247,0,0,0,4,3,1,7,0004-00-0000-21.png,0002-00-0000-17.png
00000009,682,1,1446753033849,1446753034486,1064,283,0,0,0,3,2,1,5,0002-00-0001-62.png,0003-00-0000-48.png
00000009,683,0,1446753035316,1446753035368,862,501,0,0,0,1,2,1,3,0005-00-0000-08.png,0003-00-0001-53.png
00000009,684,1,1446753038371,1446753038387,911,388,0,0,0,2,1,1,3,0003-00-0000-91.png,0005-00-0000-37.png
00000009,685,1,1446753039323,1446753040208,1052,301,0,0,0,1,0,1,1,0005-00-0000-64.png,0001-00-0001-67.png
00000009,686,0,1446753041648,1446753041692,888,452,0,0,0,0,1,1,1,0001-00-0000-68.png,0005-00-0001-66.png
00000009,687,1,1446753044557,1446753045117,504,264,0,0,0,2,3,1,5,0003-00-0000-44.png,0002-00-0000-49.png
00000009,688,0,1446753045970,1446753046788,1040,277,0,0,0,3,4,1,7,0002-00-0001-13.png,0004-00-0000-63.png
00000009,689,1,1446753049895,1446753050510,939,399,0,0,0,3,2,1,5,0002-00-0000-11.png,0003-00-0000-52.png
00000009,690,1,1446753051362,1446753052297,1069,306,0,0,0,2,1,1,3,0003-00-0000-01.png,0005-00-0000-24.png
00000009,691,1,1446753053196,1446753053228,913,411,0,0,0,4,3,1,7,0004-00-0000-45.png,0002-00-0000-50.png
00000009,692,0,1446753054457,1446753054564,913,514,0,0,0,1,2,1,3,0005-00-0001-38.png,0003-00-0001-10.png
00000009,693,1,1446753057610,1446753058096,1042,278,0,0,0,1,0,1,1,0005-00-0000-01.png,0001-00-0000-51.png
00000009,694,0,1446753059335,1446753059413,891,443,0,0,0,0,1,1,1,0001-00-0001-75.png,0005-00-0001-69.png
00000009,695,0,1446753062275,1446753062883,945,335,0,0,0,2,3,1,5,0003-00-0000-16.png,0002-00-0000-55.png
00000009,696,0,1446753066041,1446753066337,909,355,0,0,0,3,4,1,7,0002-00-0001-41.png,0004-00-0001-10.png
00000009,697,1,1446753069733,1446753069741,889,332,0,0,0,2,1,1,3,0003-00-0000-79.png,0005-00-0000-56.png
00000009,698,1,1446753070637,1446753071625,959,358,0,0,0,1,0,1,1,0005-00-0001-66.png,0001-00-0000-88.png
00000009,699,0,1446753072452,1446753072490,883,421,0,0,0,2,3,1,5,0003-00-0000-30.png,0002-00-0000-60.png
00000009,700,1,1446753075597,1446753076330,478,288,0,0,0,3,4,1,7,0002-00-0000-68.png,0004-00-0000-24.png
00000009,701,0,1446753077190,1446753078392,404,330,0,0,0,4,3,1,7,0004-00-0000-09.png,0002-00-0001-58.png
00000009,702,0,1446753081271,1446753081897,398,372,0,0,0,3,2,1,5,0002-00-0000-85.png,0003-00-0001-45.png
00000009,703,1,1446753085063,1446753085898,493,278,0,0,0,1,2,1,3,0005-00-0000-35.png,0003-00-0001-29.png
00000009,704,1,1446753086731,1446753087924,468,241,0,0,0,0,1,1,1,0001-00-0000-97.png,0005-00-0000-19.png
00000009,705,1,1446753088825,1446753089776,502,258,0,0,0,1,2,1,3,0005-00-0000-22.png,0003-00-0001-41.png
00000009,706,0,1446753090733,1446753090777,894,478,0,0,0,3,4,1,7,0002-00-0000-99.png,0004-00-0000-02.png
00000009,707,0,1446753093869,1446753094540,1062,296,0,0,0,0,1,1,1,0001-00-0001-26.png,0005-00-0000-58.png
00000009,708,1,1446753097514,1446753098083,1069,280,0,0,0,3,2,1,5,0002-00-0000-13.png,0003-00-0001-61.png
00000009,709,1,1446753099435,1446753099637,915,517,0,0,0,1,0,1,1,0005-00-0000-76.png,0001-00-0000-07.png
00000009,710,0,1446753100653,1446753100705,867,447,0,0,0,2,3,1,5,0003-00-0001-81.png,0002-00-0000-41.png
00000009,711,1,1446753103785,1446753104463,1067,307,0,0,0,4,3,1,7,0004-00-0001-40.png,0002-00-0000-59.png
00000009,712,1,1446753105865,1446753106029,912,491,0,0,0,2,1,1,3,0003-00-0001-58.png,0005-00-0000-00.png
00000009,713,0,1446753107008,1446753107061,866,435,0,0,0,2,3,1,5,0003-00-0000-67.png,0002-00-0001-85.png
00000009,714,1,1446753109904,1446753110243,925,308,0,0,0,3,2,1,5,0002-00-0000-93.png,0003-00-0000-90.png
00000009,715,1,1446753111202,1446753111218,888,487,0,0,0,2,1,1,3,0003-00-0000-66.png,0005-00-0001-75.png
00000009,716,0,1446753112165,1446753112216,869,495,0,0,0,0,1,1,1,0001-00-0000-26.png,0005-00-0001-86.png
00000009,717,1,1446753115224,1446753115742,1042,278,0,0,0,4,3,1,7,0004-00-0001-27.png,0002-00-0001-97.png
00000009,718,1,1446753117135,1446753117240,895,491,0,0,0,1,0,1,1,0005-00-0001-41.png,0001-00-0000-98.png
00000009,719,0,1446753118219,1446753118308,898,524,0,0,0,1,2,1,3,0005-00-0001-30.png,0003-00-0000-17.png
00000009,720,1,1446753121280,1446753122013,368,402,0,0,0,3,4,1,7,0002-00-0000-31.png,0004-00-0001-84.png
00000009,721,1,1446753122835,1446753124058,495,237,0,0,0,3,4,1,7,0002-00-0000-66.png,0004-00-0000-17.png
00000009,722,0,1446753124975,1446753125035,858,531,0,0,0,1,2,1,3,0005-00-0000-84.png,0003-00-0001-02.png
00000009,723,1,1446753128133,1446753128163,873,332,0,0,0,3,2,1,5,0002-00-0000-64.png,0003-00-0000-77.png
00000009,724,0,1446753129501,1446753130590,481,262,0,0,0,4,3,1,7,0004-00-0000-36.png,0002-00-0000-25.png
00000009,725,0,1446753133662,1446753134288,1067,279,0,0,0,2,3,1,5,0003-00-0001-15.png,0002-00-0001-32.png
00000009,726,1,1446753137383,1446753137447,913,333,0,0,0,2,1,1,3,0003-00-0000-12.png,0005-00-0000-41.png
00000009,727,0,1446753138342,1446753139258,421,376,0,0,0,1,0,1,1,0005-00-0001-00.png,0001-00-0000-37.png
00000009,728,1,1446753142086,1446753142648,432,445,0,0,0,0,1,1,1,0001-00-0000-93.png,0005-00-0000-22.png
00000009,729,1,1446753143485,1446753144258,509,243,0,0,0,0,1,1,1,0001-00-0001-58.png,0005-00-0001-92.png
00000009,730,0,1446753145164,1446753145228,876,501,0,0,0,3,4,1,7,0002-00-0000-58.png,0004-00-0001-52.png
00000009,731,1,1446753148168,1446753148894,486,288,0,0,0,2,3,1,5,0003-00-0001-17.png,0002-00-0001-82.png
00000009,732,0,1446753149728,1446753150820,389,325,0,0,0,1,0,1,1,0005-00-0000-51.png,0001-00-0001-04.png
00000009,733,1,1446753153772,1446753154288,933,394,0,0,0,2,1,1,3,0003-00-0000-84.png,0005-00-0000-22.png
00000009,734,1,1446753155622,1446753155791,924,514,0,0,0,3,2,1,5,0002-00-0000-32.png,0003-00-0000-33.png
00000009,735,0,1446753156816,1446753156872,862,451,0,0,0,1,2,1,3,0005-00-0001-41.png,0003-00-0000-10.png
00000009,736,0,1446753159794,1446753160453,478,262,0,0,0,4,3,1,7,0004-00-0000-64.png,0002-00-0000-30.png
00000009,737,0,1446753163603,1446753164095,987,324,0,0,0,3,4,1,7,0002-00-0000-50.png,0004-00-0000-73.png
00000009,738,1,1446753175863,1446753176401,474,296,0,0,0,1,2,1,3,0005-00-0001-53.png,0003-00-0001-11.png
00000009,739,0,1446753177351,1446753178418,939,378,0,0,0,2,3,1,5,0003-00-0000-42.png,0002-00-0001-54.png
00000009,740,1,1446753181259,1446753181275,888,343,0,0,0,2,1,1,3,0003-00-0001-16.png,0005-00-0001-88.png
00000009,741,1,1446753182231,1446753182262,873,460,0,0,0,3,2,1,5,0002-00-0000-68.png,0003-00-0000-14.png
00000009,742,0,1446753183147,1446753183213,859,467,0,0,0,0,1,1,1,0001-00-0000-48.png,0005-00-0000-34.png
00000009,743,1,1446753186160,1446753186806,939,358,0,0,0,4,3,1,7,0004-00-0000-15.png,0002-00-0000-00.png
00000009,744,1,1446753188201,1446753188541,919,544,0,0,0,1,0,1,1,0005-00-0000-53.png,0001-00-0001-02.png
00000009,745,1,1446753189509,1446753190728,507,240,0,0,0,3,4,1,7,0002-00-0000-49.png,0004-00-0000-08.png
00000009,746,0,1446753191606,1446753192566,396,364,0,0,0,1,0,1,1,0005-00-0001-45.png,0001-00-0000-67.png
00000009,747,0,1446753195481,1446753195998,1038,310,0,0,0,0,1,1,1,0001-00-0001-91.png,0005-00-0000-54.png
00000009,748,0,1446753199149,1446753199646,430,377,0,0,0,4,3,1,7,0004-00-0001-81.png,0002-00-0001-79.png
00000009,749,0,1446753202629,1446753203246,405,361,0,0,0,3,2,1,5,0002-00-0001-79.png,0003-00-0000-70.png
00000009,750,1,1446753206095,1446753206123,890,435,0,0,0,2,1,1,3,0003-00-0000-62.png,0005-00-0001-44.png
00000009,751,1,1446753207124,1446753208095,490,253,0,0,0,1,2,1,3,0005-00-0001-51.png,0003-00-0001-60.png
00000009,752,1,1446753208947,1446753210092,478,243,0,0,0,2,3,1,5,0003-00-0001-03.png,0002-00-0001-52.png
00000009,753,1,1446753211007,1446753212052,504,242,0,0,0,0,1,1,1,0001-00-0000-41.png,0005-00-0000-29.png
00000009,754,0,1446753212984,1446753213020,883,408,0,0,0,2,3,1,5,0003-00-0000-50.png,0002-00-0001-41.png
00000009,755,1,1446753216047,1446753216607,942,417,0,0,0,4,3,1,7,0004-00-0001-00.png,0002-00-0000-81.png
00000009,756,0,1446753217453,1446753217485,884,441,0,0,0,3,4,1,7,0002-00-0001-60.png,0004-00-0001-72.png
00000009,757,1,1446753220312,1446753220968,985,317,0,0,0,1,0,1,1,0005-00-0001-22.png,0001-00-0001-22.png
00000009,758,1,1446753221826,1446753221878,882,419,0,0,0,3,2,1,5,0002-00-0000-53.png,0003-00-0001-80.png
00000009,759,1,1446753222908,1446753222986,888,477,0,0,0,2,1,1,3,0003-00-0001-69.png,0005-00-0001-00.png
00000009,760,0,1446753223984,1446753224012,912,465,0,0,0,1,2,1,3,0005-00-0000-80.png,0003-00-0000-79.png
00000009,761,0,1446753226975,1446753226999,863,401,0,0,0,2,3,1,5,0003-00-0001-03.png,0002-00-0001-11.png
00000009,762,0,1446753230166,1446753230831,1105,332,0,0,0,0,1,1,1,0001-00-0000-97.png,0005-00-0001-33.png
00000009,763,1,1446753233743,1446753234260,481,269,0,0,0,1,2,1,3,0005-00-0001-06.png,0003-00-0000-60.png
00000009,764,1,1446753235672,1446753235884,921,559,0,0,0,1,0,1,1,0005-00-0000-12.png,0001-00-0000-65.png
00000009,765,0,1446753236880,1446753236910,883,421,0,0,0,3,4,1,7,0002-00-0000-68.png,0004-00-0000-80.png
00000009,766,1,1446753240003,1446753240531,1078,279,0,0,0,4,3,1,7,0004-00-0001-81.png,0002-00-0001-22.png
00000009,767,1,1446753241794,1446753241872,888,462,0,0,0,3,2,1,5,0002-00-0001-61.png,0003-00-0000-22.png
00000009,768,1,1446753242922,1446753242986,890,461,0,0,0,2,1,1,3,0003-00-0000-83.png,0005-00-0000-41.png
00000009,769,0,1446753244090,1446753244136,879,495,0,0,0,1,2,1,3,0005-00-0001-11.png,0003-00-0000-16.png
00000009,770,0,1446753247254,1446753247929,1071,279,0,0,0,3,4,1,7,0002-00-0000-37.png,0004-00-0001-84.png
00000009,771,1,1446753251025,1446753251550,519,283,0,0,0,0,1,1,1,0001-00-0001-35.png,0005-00-0000-71.png
00000009,772,1,1446753252933,1446753253926,990,427,0,0,0,3,2,1,5,0002-00-0001-61.png,0003-00-0000-22.png
00000009,773,0,1446753254824,1446753254873,899,436,0,0,0,2,3,1,5,0003-00-0000-81.png,0002-00-0000-52.png
00000009,774,0,1446753257699,1446753258255,496,257,0,0,0,1,0,1,1,0005-00-0000-06.png,0001-00-0000-69.png
00000009,775,1,1446753261387,1446753261428,934,328,0,0,0,4,3,1,7,0004-00-0001-99.png,0002-00-0000-57.png
00000009,776,1,1446753262392,1446753263314,939,400,0,0,0,2,1,1,3,0003-00-0000-94.png,0005-00-0001-34.png
00000009,777,0,1446753264212,1446753264249,862,436,0,0,0,2,3,1,5,0003-00-0001-16.png,0002-00-0001-62.png
00000009,778,0,1446753267317,1446753267970,1066,284,0,0,0,3,4,1,7,0002-00-0000-09.png,0004-00-0001-90.png
00000009,779,0,1446753270995,1446753271623,493,247,0,0,0,3,2,1,5,0002-00-0000-94.png,0003-00-0000-24.png
00000009,780,1,1446753274732,1446753274773,896,305,0,0,0,2,1,1,3,0003-00-0001-26.png,0005-00-0000-23.png
00000009,781,1,1446753275674,1446753275738,885,489,0,0,0,4,3,1,7,0004-00-0001-01.png,0002-00-0000-19.png
00000009,782,1,1446753276639,1446753276737,897,468,0,0,0,1,0,1,1,0005-00-0001-46.png,0001-00-0001-30.png
00000009,783,0,1446753277847,1446753278007,902,514,0,0,0,1,2,1,3,0005-00-0001-23.png,0003-00-0001-12.png
00000009,784,0,1446753281180,1446753281868,971,350,0,0,0,0,1,1,1,0001-00-0001-75.png,0005-00-0001-25.png
00000009,785,0,1446753284728,1446753285294,488,298,0,0,0,3,2,1,5,0002-00-0000-44.png,0003-00-0001-56.png
00000009,786,1,1446753288312,1446753288841,512,289,0,0,0,3,4,1,7,0002-00-0000-84.png,0004-00-0000-62.png
00000009,787,1,1446753290297,1446753290345,862,496,0,0,0,4,3,1,7,0004-00-0001-65.png,0002-00-0001-71.png
00000009,788,1,1446753291279,1446753291311,885,446,0,0,0,1,0,1,1,0005-00-0000-17.png,0001-00-0001-61.png
00000009,789,1,1446753292257,1446753293226,523,240,0,0,0,1,2,1,3,0005-00-0001-60.png,0003-00-0000-46.png
00000009,790,0,1446753294180,1446753295416,960,413,0,0,0,2,3,1,5,0003-00-0001-11.png,0002-00-0000-79.png
00000009,791,1,1446753298299,1446753298333,862,358,0,0,0,2,1,1,3,0003-00-0000-37.png,0005-00-0001-24.png
00000009,792,0,1446753300403,1446753300451,898,335,0,0,0,0,1,1,1,0001-00-0000-29.png,0005-00-0000-72.png
00000009,793,1,1446753303341,1446753303361,863,415,0,0,0,1,0,1,1,0005-00-0000-96.png,0001-00-0001-51.png
00000009,794,0,1446753304226,1446753304267,885,457,0,0,0,1,2,1,3,0005-00-0000-89.png,0003-00-0001-96.png
00000009,795,1,1446753307376,1446753308289,939,421,0,0,0,2,1,1,3,0003-00-0000-98.png,0005-00-0000-77.png
00000009,796,0,1446753309154,1446753309210,891,447,0,0,0,2,3,1,5,0003-00-0000-47.png,0002-00-0001-33.png
00000009,797,1,1446753312336,1446753313025,493,269,0,0,0,0,1,1,1,0001-00-0001-81.png,0005-00-0001-62.png
00000009,798,1,1446753314422,1446753314498,885,491,0,0,0,4,3,1,7,0004-00-0000-82.png,0002-00-0001-18.png
00000009,799,1,1446753315625,1446753316738,943,329,0,0,0,3,2,1,5,0002-00-0001-19.png,0003-00-0000-43.png
00000009,800,1,1446753317615,1446753318631,437,344,0,0,0,3,4,1,7,0002-00-0001-65.png,0004-00-0001-94.png
00000009,801,0,1446753319611,1446753319667,865,472,0,0,0,3,4,1,7,0002-00-0000-07.png,0004-00-0001-49.png
00000009,802,1,1446753322772,1446753323294,504,243,0,0,0,0,1,1,1,0001-00-0000-10.png,0005-00-0001-35.png
00000009,803,0,1446753324608,1446753325533,504,266,0,0,0,3,2,1,5,0002-00-0001-42.png,0003-00-0001-13.png
00000009,804,0,1446753328370,1446753328390,914,459,0,0,0,1,2,1,3,0005-00-0001-15.png,0003-00-0000-36.png
00000009,805,1,1446753331764,1446753331792,886,356,0,0,0,4,3,1,7,0004-00-0001-97.png,0002-00-0001-50.png
00000009,806,1,1446753332708,1446753332760,861,512,0,0,0,2,1,1,3,0003-00-0000-53.png,0005-00-0000-61.png
00000009,807,0,1446753333722,1446753333782,913,487,0,0,0,2,3,1,5,0003-00-0000-74.png,0002-00-0001-02.png
00000009,808,1,1446753336724,1446753337256,1085,297,0,0,0,1,0,1,1,0005-00-0001-67.png,0001-00-0001-13.png
00000009,809,1,1446753338660,1446753338704,913,436,0,0,0,1,0,1,1,0005-00-0001-56.png,0001-00-0001-93.png
00000009,810,1,1446753339742,1446753339782,913,472,0,0,0,4,3,1,7,0004-00-0000-84.png,0002-00-0000-24.png
00000009,811,0,1446753340846,1446753340882,934,495,0,0,0,2,3,1,5,0003-00-0000-22.png,0002-00-0000-97.png
00000009,812,1,1446753343936,1446753344505,479,298,0,0,0,3,4,1,7,0002-00-0000-89.png,0004-00-0000-29.png
00000009,813,1,1446753345434,1446753346496,901,353,0,0,0,2,1,1,3,0003-00-0001-30.png,0005-00-0001-25.png
00000009,814,0,1446753347445,1446753347473,909,474,0,0,0,0,1,1,1,0001-00-0000-80.png,0005-00-0001-11.png
00000009,815,0,1446753350530,1446753351006,504,279,0,0,0,3,2,1,5,0002-00-0000-90.png,0003-00-0001-58.png
00000009,816,1,1446753354212,1446753354677,494,267,0,0,0,1,2,1,3,0005-00-0001-30.png,0003-00-0001-24.png
00000009,817,0,1446753355507,1446753356938,504,262,0,0,0,3,2,1,5,0002-00-0001-09.png,0003-00-0001-46.png
00000009,818,0,1446753359975,1446753359995,879,392,0,0,0,0,1,1,1,0001-00-0000-57.png,0005-00-0001-17.png
00000009,819,0,1446753362933,1446753363511,936,333,0,0,0,2,3,1,5,0003-00-0001-66.png,0002-00-0000-75.png
00000009,820,0,1446753366906,1446753367503,520,292,0,0,0,2,1,1,3,0003-00-0001-08.png,0005-00-0000-48.png
00000009,821,0,1446753370656,1446753370791,895,289,0,0,0,3,4,1,7,0002-00-0000-24.png,0004-00-0001-60.png
00000009,822,1,1446753373985,1446753374828,1016,398,0,0,0,4,3,1,7,0004-00-0001-91.png,0002-00-0001-29.png
00000009,823,0,1446753375711,1446753375743,897,439,0,0,0,1,2,1,3,0005-00-0001-92.png,0003-00-0000-44.png
00000009,824,1,1446753379093,1446753379795,939,393,0,0,0,1,0,1,1,0005-00-0001-19.png,0001-00-0001-14.png
00000009,825,1,1446753381093,1446753382146,939,422,0,0,0,3,2,1,5,0002-00-0001-74.png,0003-00-0000-37.png
00000009,826,0,1446753383088,1446753383131,865,435,0,0,0,2,3,1,5,0003-00-0000-30.png,0002-00-0000-18.png
00000009,827,0,1446753386089,1446753386780,364,344,0,0,0,1,0,1,1,0005-00-0001-90.png,0001-00-0000-34.png
00000009,828,1,1446753389630,1446753390455,373,378,0,0,0,3,4,1,7,0002-00-0000-37.png,0004-00-0001-15.png
00000009,829,1,1446753391905,1446753392754,1041,315,0,0,0,4,3,1,7,0004-00-0001-22.png,0002-00-0000-86.png
00000009,830,1,1446753394237,1446753394293,910,469,0,0,0,2,1,1,3,0003-00-0000-02.png,0005-00-0001-88.png
00000009,831,0,1446753395429,1446753395485,881,494,0,0,0,0,1,1,1,0001-00-0000-61.png,0005-00-0000-26.png
00000009,832,1,1446753398599,1446753399096,386,360,0,0,0,1,2,1,3,0005-00-0000-13.png,0003-00-0001-48.png
00000009,833,0,1446753399939,1446753400890,497,247,0,0,0,1,0,1,1,0005-00-0001-01.png,0001-00-0000-47.png
00000009,834,0,1446753403973,1446753404021,888,342,0,0,0,2,3,1,5,0003-00-0001-34.png,0002-00-0001-30.png
00000009,835,1,1446753406857,1446753407439,964,323,0,0,0,4,3,1,7,0004-00-0000-88.png,0002-00-0000-98.png
00000009,836,0,1446753408274,1446753408310,862,478,0,0,0,1,2,1,3,0005-00-0000-11.png,0003-00-0001-18.png
00000009,837,0,1446753411439,1446753411455,888,332,0,0,0,3,4,1,7,0002-00-0000-33.png,0004-00-0001-21.png
00000009,838,1,1446753414638,1446753415172,1092,289,0,0,0,2,1,1,3,0003-00-0001-11.png,0005-00-0000-23.png
00000009,839,0,1446753416555,1446753416623,888,462,0,0,0,0,1,1,1,0001-00-0001-42.png,0005-00-0001-57.png
00000009,840,0,1446753419757,1446753420263,491,279,0,0,0,3,2,1,5,0002-00-0000-19.png,0003-00-0000-58.png
00000009,841,1,1446753423362,1446753423402,888,342,0,0,0,4,3,1,7,0004-00-0001-76.png,0002-00-0001-11.png
00000009,842,0,1446753424265,1446753425319,1047,277,0,0,0,3,4,1,7,0002-00-0000-13.png,0004-00-0000-16.png
00000009,843,0,1446753428340,1446753428874,509,284,0,0,0,1,0,1,1,0005-00-0001-44.png,0001-00-0001-74.png
00000009,844,1,1446753431741,1446753432598,478,263,0,0,0,2,3,1,5,0003-00-0000-89.png,0002-00-0001-06.png
00000009,845,0,1446753434407,1446753434966,514,253,0,0,0,3,2,1,5,0002-00-0001-46.png,0003-00-0000-54.png
00000009,846,1,1446753437809,1446753438429,1040,308,0,0,0,2,1,1,3,0003-00-0001-02.png,0005-00-0001-73.png
00000009,847,0,1446753439282,1446753439314,871,421,0,0,0,0,1,1,1,0001-00-0000-28.png,0005-00-0000-63.png
00000009,848,1,1446753442217,1446753442761,478,264,0,0,0,1,2,1,3,0005-00-0000-02.png,0003-00-0000-94.png
00000009,849,1,1446753443635,1446753444877,497,262,0,0,0,1,2,1,3,0005-00-0001-38.png,0003-00-0000-61.png
00000009,850,1,1446753445847,1446753445875,872,466,0,0,0,3,2,1,5,0002-00-0001-01.png,0003-00-0001-84.png
00000009,851,1,1446753447063,1446753448317,507,264,0,0,0,2,3,1,5,0003-00-0000-88.png,0002-00-0000-88.png
00000009,852,1,1446753449250,1446753449278,870,438,0,0,0,4,3,1,7,0004-00-0000-16.png,0002-00-0001-34.png
00000009,853,1,1446753450520,1446753450568,888,502,0,0,0,1,0,1,1,0005-00-0001-14.png,0001-00-0000-98.png
00000009,854,0,1446753451775,1446753451856,888,526,0,0,0,3,4,1,7,0002-00-0000-73.png,0004-00-0001-07.png
00000009,855,0,1446753454686,1446753455225,1016,290,0,0,0,0,1,1,1,0001-00-0000-65.png,0005-00-0001-55.png
00000009,856,1,1446753458146,1446753458739,964,321,0,0,0,2,1,1,3,0003-00-0000-51.png,0005-00-0001-03.png
00000009,857,1,1446753460152,1446753461120,1049,306,0,0,0,3,2,1,5,0002-00-0000-93.png,0003-00-0000-76.png
00000009,858,0,1446753461968,1446753461992,862,439,0,0,0,1,2,1,3,0005-00-0001-63.png,0003-00-0000-92.png
00000009,859,1,1446753465062,1446753465663,1070,275,0,0,0,4,3,1,7,0004-00-0000-03.png,0002-00-0001-17.png
00000009,860,0,1446753466514,1446753466534,897,497,0,0,0,2,3,1,5,0003-00-0001-81.png,0002-00-0001-02.png
00000009,861,1,1446753469642,1446753470169,945,350,0,0,0,2,1,1,3,0003-00-0000-66.png,0005-00-0001-35.png
00000009,862,0,1446753471502,1446753471566,920,476,0,0,0,0,1,1,1,0001-00-0000-27.png,0005-00-0001-67.png
00000009,863,1,1446753474632,1446753474664,939,358,0,0,0,1,0,1,1,0005-00-0001-24.png,0001-00-0001-14.png
00000009,864,0,1446753475512,1446753475582,888,524,0,0,0,3,4,1,7,0002-00-0001-13.png,0004-00-0000-72.png
00000009,865,1,1446753478674,1446753479229,510,274,0,0,0,3,4,1,7,0002-00-0001-35.png,0004-00-0000-38.png
00000009,866,1,1446753480073,1446753480950,516,243,0,0,0,1,2,1,3,0005-00-0001-50.png,0003-00-0000-32.png
00000009,867,1,1446753481885,1446753482907,944,336,0,0,0,2,1,1,3,0003-00-0000-14.png,0005-00-0000-70.png
00000009,868,1,1446753483880,1446753485062,922,339,0,0,0,4,3,1,7,0004-00-0000-83.png,0002-00-0001-12.png
00000009,869,0,1446753486787,1446753486823,872,510,0,0,0,2,3,1,5,0003-00-0000-25.png,0002-00-0000-44.png
00000009,870,1,1446753489692,1446753490209,1045,285,0,0,0,3,2,1,5,0002-00-0001-43.png,0003-00-0001-23.png
00000009,871,1,1446753491564,1446753491678,918,562,0,0,0,1,0,1,1,0005-00-0001-59.png,0001-00-0000-47.png
00000009,872,0,1446753492647,1446753492675,865,445,0,0,0,0,1,1,1,0001-00-0001-71.png,0005-00-0001-41.png
00000009,873,0,1446753495787,1446753496418,939,394,0,0,0,0,1,1,1,0001-00-0000-03.png,0005-00-0001-70.png
00000009,874,1,1446753499261,1446753499821,965,328,0,0,0,1,0,1,1,0005-00-0000-67.png,0001-00-0001-92.png
00000009,875,1,1446753501203,1446753501967,512,270,0,0,0,1,2,1,3,0005-00-0000-02.png,0003-00-0001-08.png
00000009,876,1,1446753502809,1446753503927,941,348,0,0,0,2,1,1,3,0003-00-0001-63.png,0005-00-0001-33.png
00000009,877,1,1446753504860,1446753504919,910,464,0,0,0,3,2,1,5,0002-00-0000-00.png,0003-00-0000-89.png
00000009,878,0,1446753505922,1446753505963,885,525,0,0,0,2,3,1,5,0003-00-0001-12.png,0002-00-0000-06.png
00000009,879,1,1446753508980,1446753509499,1078,282,0,0,0,4,3,1,7,0004-00-0001-75.png,0002-00-0001-27.png
00000009,880,0,1446753510800,1446753510868,908,494,0,0,0,3,4,1,7,0002-00-0000-77.png,0004-00-0000-95.png
00000009,881,1,1446753513809,1446753514373,460,429,0,0,0,1,2,1,3,0005-00-0001-90.png,0003-00-0000-31.png
00000009,882,0,1446753515691,1446753515806,911,546,0,0,0,0,1,1,1,0001-00-0000-86.png,0005-00-0001-31.png
00000009,883,1,1446753518929,1446753519452,967,330,0,0,0,1,0,1,1,0005-00-0000-26.png,0001-00-0001-52.png
00000009,884,1,1446753520705,1446753520807,912,494,0,0,0,4,3,1,7,0004-00-0000-74.png,0002-00-0000-05.png
00000009,885,0,1446753521752,1446753521823,883,493,0,0,0,3,4,1,7,0002-00-0001-23.png,0004-00-0001-49.png
00000009,886,1,1446753524973,1446753525479,1069,283,0,0,0,2,1,1,3,0003-00-0000-55.png,0005-00-0001-32.png
00000009,887,0,1446753526843,1446753527000,914,512,0,0,0,2,3,1,5,0003-00-0001-34.png,0002-00-0001-17.png
00000009,888,1,1446753530069,1446753530332,904,330,0,0,0,3,2,1,5,0002-00-0000-18.png,0003-00-0000-60.png
00000009,889,0,1446753531272,1446753532351,516,267,0,0,0,4,3,1,7,0004-00-0001-16.png,0002-00-0001-21.png
00000009,890,1,1446753541754,1446753542233,1041,289,0,0,0,2,1,1,3,0003-00-0001-90.png,0005-00-0001-26.png
00000009,891,0,1446753543159,1446753543194,862,410,0,0,0,2,3,1,5,0003-00-0001-42.png,0002-00-0001-86.png
00000009,892,1,1446753546358,1446753546871,502,285,0,0,0,0,1,1,1,0001-00-0001-56.png,0005-00-0001-25.png
00000009,893,0,1446753547707,1446753547765,868,399,0,0,0,1,2,1,3,0005-00-0001-86.png,0003-00-0001-33.png
00000009,894,1,1446753550928,1446753551505,935,402,0,0,0,3,2,1,5,0002-00-0001-68.png,0003-00-0001-64.png
00000009,895,1,1446753552405,1446753552439,888,483,0,0,0,1,0,1,1,0005-00-0001-92.png,0001-00-0000-69.png
00000009,896,0,1446753553544,1446753553584,862,462,0,0,0,3,4,1,7,0002-00-0000-56.png,0004-00-0000-32.png
00000009,897,0,1446753556547,1446753556575,859,413,0,0,0,3,4,1,7,0002-00-0000-53.png,0004-00-0001-78.png
00000009,898,0,1446753559605,1446753560140,368,350,0,0,0,1,0,1,1,0005-00-0001-92.png,0001-00-0000-67.png
00000009,899,1,1446753563628,1446753564143,942,330,0,0,0,2,1,1,3,0003-00-0001-11.png,0005-00-0001-10.png
00000009,900,1,1446753565022,1446753565090,866,475,0,0,0,4,3,1,7,0004-00-0001-17.png,0002-00-0000-52.png
00000009,901,0,1446753566014,1446753566081,862,447,0,0,0,1,2,1,3,0005-00-0001-79.png,0003-00-0000-14.png
00000009,902,1,1446753569255,1446753569740,490,283,0,0,0,0,1,1,1,0001-00-0000-28.png,0005-00-0001-66.png
00000009,903,0,1446753571113,1446753571226,891,492,0,0,0,2,3,1,5,0003-00-0000-34.png,0002-00-0000-57.png
00000009,904,0,1446753574192,1446753574690,366,358,0,0,0,3,2,1,5,0002-00-0001-66.png,0003-00-0001-46.png
00000009,905,0,1446753577902,1446753578414,968,336,0,0,0,2,3,1,5,0003-00-0001-56.png,0002-00-0000-22.png
00000009,906,0,1446753581477,1446753581535,877,392,0,0,0,1,2,1,3,0005-00-0000-85.png,0003-00-0001-46.png
00000009,907,1,1446753584394,1446753584980,964,332,0,0,0,1,0,1,1,0005-00-0000-45.png,0001-00-0000-93.png
00000009,908,1,1446753586365,1446753586452,906,476,0,0,0,2,1,1,3,0003-00-0001-39.png,0005-00-0001-71.png
00000009,909,1,1446753587429,1446753587516,903,474,0,0,0,4,3,1,7,0004-00-0000-84.png,0002-00-0000-84.png
00000009,910,0,1446753588595,1446753588632,896,484,0,0,0,3,4,1,7,0002-00-0000-53.png,0004-00-0000-36.png
00000009,911,1,1446753591481,1446753591967,484,260,0,0,0,0,1,1,1,0001-00-0000-76.png,0005-00-0001-88.png
00000009,912,1,1446753592812,1446753593950,937,357,0,0,0,3,2,1,5,0002-00-0000-74.png,0003-00-0001-43.png
00000009,913,1,1446753594842,1446753594862,892,386,0,0,0,2,1,1,3,0003-00-0001-13.png,0005-00-0001-57.png
00000009,914,1,1446753595942,1446753595974,866,459,0,0,0,4,3,1,7,0004-00-0001-80.png,0002-00-0000-52.png
00000009,915,1,1446753597951,1446753598003,883,462,0,0,0,1,0,1,1,0005-00-0001-59.png,0001-00-0001-70.png
00000009,916,0,1446753599129,1446753599162,904,503,0,0,0,2,3,1,5,0003-00-0001-03.png,0002-00-0000-78.png
00000009,917,0,1446753602024,1446753602716,945,433,0,0,0,1,2,1,3,0005-00-0000-78.png,0003-00-0001-02.png
00000009,918,0,1446753605873,1446753606636,931,386,0,0,0,3,4,1,7,0002-00-0001-47.png,0004-00-0001-98.png
00000009,919,0,1446753609608,1446753610162,964,401,0,0,0,0,1,1,1,0001-00-0001-33.png,0005-00-0001-92.png
00000009,920,1,1446753613116,1446753613733,1043,255,0,0,0,3,2,1,5,0002-00-0000-95.png,0003-00-0001-83.png
00000009,921,1,1446753614631,1446753615585,1072,301,0,0,0,1,0,1,1,0005-00-0001-31.png,0001-00-0001-45.png
00000009,922,0,1446753616465,1446753616533,885,451,0,0,0,1,2,1,3,0005-00-0001-47.png,0003-00-0001-32.png
00000009,923,0,1446753619374,1446753619943,500,268,0,0,0,3,2,1,5,0002-00-0000-05.png,0003-00-0001-80.png
00000009,924,0,1446753622825,1446753622873,884,294,0,0,0,2,3,1,5,0003-00-0001-71.png,0002-00-0000-58.png
00000009,925,0,1446753626004,1446753626016,866,336,0,0,0,0,1,1,1,0001-00-0000-39.png,0005-00-0000-60.png
00000009,926,1,1446753629117,1446753629177,938,328,0,0,0,4,3,1,7,0004-00-0000-87.png,0002-00-0001-29.png
00000009,927,0,1446753630051,1446753630163,876,541,0,0,0,3,4,1,7,0002-00-0000-42.png,0004-00-0001-42.png
00000009,928,1,1446753633420,1446753634019,1060,290,0,0,0,2,1,1,3,0003-00-0001-93.png,0005-00-0000-49.png
00000009,929,0,1446753635490,1446753635691,914,488,0,0,0,3,4,1,7,0002-00-0000-02.png,0004-00-0001-47.png
00000009,930,1,1446753638786,1446753638806,888,358,0,0,0,2,1,1,3,0003-00-0000-00.png,0005-00-0001-55.png
00000009,931,1,1446753639741,1446753640702,492,227,0,0,0,2,3,1,5,0003-00-0001-06.png,0002-00-0001-96.png
00000009,932,1,1446753641587,1446753642996,444,261,0,0,0,0,1,1,1,0001-00-0001-92.png,0005-00-0001-45.png
00000009,933,1,1446753643861,1446753644907,1058,323,0,0,0,1,0,1,1,0005-00-0000-19.png,0001-00-0001-26.png
00000009,934,0,1446753645812,1446753645820,860,434,0,0,0,1,2,1,3,0005-00-0001-37.png,0003-00-0000-81.png
00000009,935,1,1446753648842,1446753649428,1041,279,0,0,0,4,3,1,7,0004-00-0000-50.png,0002-00-0001-78.png
00000009,936,1,1446753650760,1446753650808,888,501,0,0,0,3,2,1,5,0002-00-0000-10.png,0003-00-0001-30.png
00000009,937,0,1446753651775,1446753651870,886,532,0,0,0,3,4,1,7,0002-00-0000-38.png,0004-00-0000-50.png
00000009,938,0,1446753654932,1446753655626,471,456,0,0,0,3,2,1,5,0002-00-0000-67.png,0003-00-0000-65.png
00000009,939,0,1446753658787,1446753658831,908,355,0,0,0,1,2,1,3,0005-00-0001-54.png,0003-00-0001-00.png
00000009,940,0,1446753661760,1446753662289,484,284,0,0,0,1,0,1,1,0005-00-0001-37.png,0001-00-0001-76.png
00000009,941,1,1446753665427,1446753666027,501,251,0,0,0,0,1,1,1,0001-00-0000-38.png,0005-00-0000-97.png
00000009,942,1,1446753667298,1446753668040,1009,315,0,0,0,4,3,1,7,0004-00-0000-08.png,0002-00-0001-42.png
00000009,943,1,1446753668925,1446753668953,873,393,0,0,0,2,1,1,3,0003-00-0001-80.png,0005-00-0001-48.png
00000009,944,0,1446753670057,1446753670145,888,475,0,0,0,2,3,1,5,0003-00-0001-84.png,0002-00-0000-92.png
00000009,945,1,1446753673090,1446753673349,859,333,0,0,0,4,3,1,7,0004-00-0001-80.png,0002-00-0001-46.png
00000009,946,0,1446753674240,1446753674252,862,465,0,0,0,0,1,1,1,0001-00-0000-13.png,0005-00-0001-81.png
00000009,947,1,1446753677363,1446753677880,1077,279,0,0,0,2,1,1,3,0003-00-0001-25.png,0005-00-0001-14.png
00000009,948,0,1446753678713,1446753678725,889,436,0,0,0,2,3,1,5,0003-00-0001-86.png,0002-00-0001-59.png
00000009,949,0,1446753681593,1446753682344,409,363,0,0,0,3,2,1,5,0002-00-0001-62.png,0003-00-0000-22.png
00000009,950,1,1446753685499,1446753686097,478,262,0,0,0,3,4,1,7,0002-00-0000-33.png,0004-00-0000-46.png
