subject_id,trial,correct_response,stim_time,response_time,x_coord,y_coord,trial_timeout,timeout_time,interTrial_timeout,left_rank,right_rank,distance,joint_rank,left_image,right_image
00000014,1,0,1447178960113,1447178961468,355,437,0,0,0,2,1,1,3,0003-00-0001-45.png,0005-00-0001-09.png
00000014,2,0,1447178964782,1447178965397,968,439,0,0,0,0,1,1,1,0001-00-0000-73.png,0005-00-0000-18.png
00000014,3,1,1447178968640,1447178969190,393,434,0,0,0,2,3,1,5,0003-00-0000-13.png,0002-00-0000-94.png
00000014,4,0,1447179216658,1447179224320,351,500,0,0,0,3,2,1,5,0002-00-0001-91.png,0003-00-0001-93.png
00000014,5,1,1447179227378,1447179227814,316,402,0,0,0,3,4,1,7,0002-00-0001-32.png,0004-00-0001-83.png
00000014,6,1,1447179228777,1447179229259,922,472,0,0,0,4,3,1,7,0004-00-0001-20.png,0002-00-0001-21.png
00000014,7,1,1447179230472,1447179230954,884,508,0,0,0,1,0,1,1,0005-00-0001-56.png,0001-00-0000-60.png
00000014,8,0,1447179231802,1447179232380,860,459,0,0,0,1,2,1,3,0005-00-0001-54.png,0003-00-0000-42.png
00000014,9,0,1447179235346,1447179235730,385,432,0,0,0,3,2,1,5,0002-00-0000-55.png,0003-00-0001-47.png
00000014,10,0,1447179238691,1447179238711,504,436,0,0,0,4,3,1,7,0004-00-0000-61.png,0002-00-0000-22.png
00000014,11,0,1447179241976,1447179242421,937,456,0,0,0,2,3,1,5,0003-00-0001-18.png,0002-00-0001-29.png
00000014,12,1,1447179245346,1447179245728,376,384,0,0,0,1,2,1,3,0005-00-0001-61.png,0003-00-0001-92.png
00000014,13,0,1447179246618,1447179247135,900,410,0,0,0,3,4,1,7,0002-00-0001-55.png,0004-00-0001-78.png
00000014,14,1,1447179250425,1447179250854,880,508,0,0,0,1,0,1,1,0005-00-0001-93.png,0001-00-0000-08.png
00000014,15,1,1447179252312,1447179252814,329,392,0,0,0,0,1,1,1,0001-00-0001-32.png,0005-00-0000-23.png
00000014,16,1,1447179253780,1447179254798,878,470,0,0,0,2,1,1,3,0003-00-0000-67.png,0005-00-0001-04.png
00000014,17,1,1447179255697,1447179256286,358,424,0,0,0,1,2,1,3,0005-00-0000-91.png,0003-00-0000-54.png
00000014,18,1,1447179257193,1447179257785,900,463,0,0,0,4,3,1,7,0004-00-0000-22.png,0002-00-0000-37.png
00000014,19,1,1447179258714,1447179259233,878,414,0,0,0,3,2,1,5,0002-00-0001-03.png,0003-00-0001-84.png
00000014,20,0,1447179260131,1447179260619,871,512,0,0,0,0,1,1,1,0001-00-0000-44.png,0005-00-0001-35.png
00000014,21,1,1447179263484,1447179263859,899,410,0,0,0,1,0,1,1,0005-00-0001-61.png,0001-00-0001-02.png
00000014,22,0,1447179264703,1447179265747,452,513,0,0,0,2,1,1,3,0003-00-0001-20.png,0005-00-0000-17.png
00000014,23,1,1447179269119,1447179270050,401,407,0,0,0,3,4,1,7,0002-00-0000-75.png,0004-00-0000-34.png
00000014,24,1,1447179270967,1447179271461,427,476,0,0,0,2,3,1,5,0003-00-0000-79.png,0002-00-0001-63.png
00000014,25,0,1447179272357,1447179272800,325,448,0,0,0,1,0,1,1,0005-00-0000-84.png,0001-00-0001-61.png
00000014,26,1,1447179275676,1447179276095,922,322,0,0,0,3,2,1,5,0002-00-0001-29.png,0003-00-0000-34.png
00000014,27,0,1447179277000,1447179277493,401,476,0,0,0,4,3,1,7,0004-00-0001-33.png,0002-00-0001-15.png
00000014,28,1,1447179280416,1447179280843,390,353,0,0,0,1,2,1,3,0005-00-0000-39.png,0003-00-0001-47.png
00000014,29,1,1447179281728,1447179282297,419,549,0,0,0,0,1,1,1,0001-00-0000-44.png,0005-00-0000-23.png
00000014,30,0,1447179283241,1447179283735,877,522,0,0,0,2,3,1,5,0003-00-0000-74.png,0002-00-0001-92.png
00000014,31,0,1447179286980,1447179287424,902,468,0,0,0,3,4,1,7,0002-00-0000-43.png,0004-00-0001-32.png
00000014,32,0,1447179290415,1447179290874,376,374,0,0,0,2,1,1,3,0003-00-0001-36.png,0005-00-0000-87.png
00000014,33,0,1447179293935,1447179294403,935,365,0,0,0,0,1,1,1,0001-00-0001-95.png,0005-00-0000-76.png
00000014,34,0,1447179297680,1447179298128,917,453,0,0,0,2,3,1,5,0003-00-0001-25.png,0002-00-0000-45.png
00000014,35,0,1447179301111,1447179301583,862,358,0,0,0,3,4,1,7,0002-00-0000-87.png,0004-00-0001-66.png
00000014,36,1,1447179305000,1447179305597,361,414,0,0,0,1,2,1,3,0005-00-0001-12.png,0003-00-0001-10.png
00000014,37,0,1447179306619,1447179307143,422,541,0,0,0,3,2,1,5,0002-00-0000-62.png,0003-00-0000-94.png
00000014,38,1,1447179310055,1447179310454,963,372,0,0,0,2,1,1,3,0003-00-0000-05.png,0005-00-0000-03.png
00000014,39,0,1447179311387,1447179312021,427,410,0,0,0,1,0,1,1,0005-00-0001-17.png,0001-00-0001-81.png
00000014,40,1,1447179314995,1447179315419,876,467,0,0,0,4,3,1,7,0004-00-0001-65.png,0002-00-0000-94.png
00000014,41,1,1447179316364,1447179317120,874,463,0,0,0,4,3,1,7,0004-00-0000-01.png,0002-00-0000-60.png
00000014,42,0,1447179318076,1447179318522,407,551,0,0,0,3,2,1,5,0002-00-0000-01.png,0003-00-0001-05.png
00000014,43,1,1447179321894,1447179322337,929,365,0,0,0,1,0,1,1,0005-00-0001-52.png,0001-00-0000-42.png
00000014,44,0,1447179323304,1447179323818,905,428,0,0,0,2,3,1,5,0003-00-0000-87.png,0002-00-0000-00.png
00000014,45,1,1447179333892,1447179334288,423,408,0,0,0,1,2,1,3,0005-00-0001-78.png,0003-00-0001-23.png
00000014,46,1,1447179335154,1447179335615,386,513,0,0,0,3,4,1,7,0002-00-0001-67.png,0004-00-0001-35.png
00000014,47,0,1447179336697,1447179337269,386,554,0,0,0,2,1,1,3,0003-00-0001-35.png,0005-00-0001-71.png
00000014,48,1,1447179340145,1447179340534,315,353,0,0,0,0,1,1,1,0001-00-0000-71.png,0005-00-0000-91.png
00000014,49,1,1447179341866,1447179342369,923,416,0,0,0,2,1,1,3,0003-00-0001-37.png,0005-00-0000-93.png
00000014,50,1,1447179343308,1447179343813,896,420,0,0,0,1,0,1,1,0005-00-0000-98.png,0001-00-0000-68.png
00000014,51,1,1447179344768,1447179345186,445,453,0,0,0,1,2,1,3,0005-00-0000-20.png,0003-00-0000-47.png
00000014,52,1,1447179346188,1447179346603,346,425,0,0,0,0,1,1,1,0001-00-0001-28.png,0005-00-0000-76.png
00000014,53,0,1447179347759,1447179348260,896,498,0,0,0,3,4,1,7,0002-00-0001-02.png,0004-00-0000-32.png
00000014,54,0,1447179352425,1447179352931,422,375,0,0,0,3,2,1,5,0002-00-0000-67.png,0003-00-0000-57.png
00000014,55,0,1447179356088,1447179356566,887,476,0,0,0,2,3,1,5,0003-00-0001-86.png,0002-00-0001-61.png
00000014,56,0,1447179359458,1447179359889,439,398,0,0,0,4,3,1,7,0004-00-0000-46.png,0002-00-0000-47.png
00000014,57,1,1447179362916,1447179363402,891,441,0,0,0,1,0,1,1,0005-00-0000-61.png,0001-00-0001-99.png
00000014,58,1,1447179364308,1447179364829,903,416,0,0,0,4,3,1,7,0004-00-0000-71.png,0002-00-0001-08.png
00000014,59,0,1447179365919,1447179366386,905,427,0,0,0,3,4,1,7,0002-00-0001-01.png,0004-00-0000-34.png
00000014,60,0,1447179369584,1447179370237,902,409,0,0,0,0,1,1,1,0001-00-0000-48.png,0005-00-0001-55.png
00000014,61,0,1447179373223,1447179373736,944,347,0,0,0,2,3,1,5,0003-00-0000-28.png,0002-00-0000-68.png
00000014,62,0,1447179376609,1447179377049,442,483,0,0,0,3,2,1,5,0002-00-0001-22.png,0003-00-0001-34.png
00000014,63,1,1447179380776,1447179381193,369,436,0,0,0,1,2,1,3,0005-00-0001-08.png,0003-00-0000-43.png
00000014,64,1,1447179382157,1447179382684,926,408,0,0,0,2,1,1,3,0003-00-0000-94.png,0005-00-0000-77.png
00000014,65,1,1447179383689,1447179384265,900,429,0,0,0,2,1,1,3,0003-00-0001-94.png,0005-00-0000-00.png
00000014,66,0,1447179385265,1447179385764,874,528,0,0,0,3,4,1,7,0002-00-0000-59.png,0004-00-0000-35.png
00000014,67,0,1447179390696,1447179391208,913,332,0,0,0,0,1,1,1,0001-00-0000-39.png,0005-00-0000-55.png
00000014,68,0,1447179394960,1447179395375,888,481,0,0,0,2,3,1,5,0003-00-0001-37.png,0002-00-0001-20.png
00000014,69,0,1447179398916,1447179399450,383,386,0,0,0,3,2,1,5,0002-00-0000-05.png,0003-00-0001-80.png
00000014,70,1,1447179402582,1447179403048,902,495,0,0,0,1,0,1,1,0005-00-0000-64.png,0001-00-0000-78.png
00000014,71,1,1447179404074,1447179404515,383,447,0,0,0,1,2,1,3,0005-00-0000-61.png,0003-00-0001-83.png
00000014,72,1,1447179405554,1447179406085,872,510,0,0,0,4,3,1,7,0004-00-0001-28.png,0002-00-0001-17.png
00000014,73,1,1447179407174,1447179407684,878,441,0,0,0,2,1,1,3,0003-00-0000-14.png,0005-00-0000-75.png
00000014,74,1,1447179408734,1447179409405,886,424,0,0,0,1,0,1,1,0005-00-0000-01.png,0001-00-0000-32.png
00000014,75,1,1447179410415,1447179410933,878,439,0,0,0,4,3,1,7,0004-00-0000-85.png,0002-00-0000-81.png
00000014,76,1,1447179412001,1447179412511,359,440,0,0,0,0,1,1,1,0001-00-0000-89.png,0005-00-0001-68.png
00000014,77,1,1447179413525,1447179413981,367,410,0,0,0,1,2,1,3,0005-00-0001-07.png,0003-00-0001-62.png
00000014,78,0,1447179415035,1447179415507,880,453,0,0,0,2,3,1,5,0003-00-0001-10.png,0002-00-0001-86.png
00000014,79,0,1447179418675,1447179419474,336,371,0,0,0,3,2,1,5,0002-00-0000-59.png,0003-00-0000-06.png
00000014,80,0,1447179422549,1447179423015,877,469,0,0,0,3,4,1,7,0002-00-0000-63.png,0004-00-0000-74.png
00000014,81,1,1447179425966,1447179426385,357,373,0,0,0,1,2,1,3,0005-00-0001-55.png,0003-00-0000-05.png
00000014,82,1,1447179427266,1447179428394,413,359,0,0,0,3,4,1,7,0002-00-0000-28.png,0004-00-0001-10.png
00000014,83,1,1447179429874,1447179430337,870,498,0,0,0,2,1,1,3,0003-00-0001-50.png,0005-00-0000-64.png
00000014,84,1,1447179431374,1447179431775,427,450,0,0,0,0,1,1,1,0001-00-0000-54.png,0005-00-0001-61.png
00000014,85,1,1447179432887,1447179433395,880,427,0,0,0,1,0,1,1,0005-00-0001-74.png,0001-00-0000-36.png
00000014,86,0,1447179434416,1447179434940,386,457,0,0,0,3,2,1,5,0002-00-0000-56.png,0003-00-0001-47.png
00000014,87,0,1447179438719,1447179439210,872,516,0,0,0,2,3,1,5,0003-00-0000-05.png,0002-00-0001-21.png
00000014,88,1,1447179442536,1447179442963,881,474,0,0,0,4,3,1,7,0004-00-0001-65.png,0002-00-0000-28.png
00000014,89,0,1447179444073,1447179444443,401,462,0,0,0,4,3,1,7,0004-00-0000-67.png,0002-00-0000-87.png
00000014,90,0,1447179448133,1447179448560,924,378,0,0,0,3,4,1,7,0002-00-0001-04.png,0004-00-0000-16.png
00000014,91,1,1447179451549,1447179451972,888,476,0,0,0,1,0,1,1,0005-00-0000-98.png,0001-00-0000-60.png
00000014,92,0,1447179452961,1447179453664,366,382,0,0,0,3,2,1,5,0002-00-0001-81.png,0003-00-0000-59.png
00000014,93,0,1447179456738,1447179457210,913,396,0,0,0,1,2,1,3,0005-00-0000-15.png,0003-00-0000-36.png
00000014,94,1,1447179460069,1447179460486,401,410,0,0,0,0,1,1,1,0001-00-0001-63.png,0005-00-0000-75.png
00000014,95,0,1447179461408,1447179461961,901,409,0,0,0,2,3,1,5,0003-00-0001-74.png,0002-00-0001-42.png
00000014,96,1,1447179465791,1447179466225,920,389,0,0,0,2,1,1,3,0003-00-0000-46.png,0005-00-0001-31.png
00000014,97,0,1447179467243,1447179467643,414,450,0,0,0,3,2,1,5,0002-00-0001-86.png,0003-00-0001-56.png
00000014,98,0,1447179470830,1447179471324,379,381,0,0,0,1,0,1,1,0005-00-0000-38.png,0001-00-0001-78.png
00000014,99,1,1447179474478,1447179474937,926,398,0,0,0,4,3,1,7,0004-00-0001-45.png,0002-00-0000-80.png
00000014,100,1,1447179475909,1447179476454,398,426,0,0,0,1,2,1,3,0005-00-0000-08.png,0003-00-0000-83.png
00000014,101,0,1447179477491,1447179477987,878,416,0,0,0,2,3,1,5,0003-00-0000-18.png,0002-00-0000-33.png
00000014,102,1,1447179481208,1447179481663,427,525,0,0,0,3,4,1,7,0002-00-0000-03.png,0004-00-0000-30.png
00000014,103,1,1447179482746,1447179483277,860,508,0,0,0,2,1,1,3,0003-00-0000-66.png,0005-00-0000-37.png
00000014,104,0,1447179484298,1447179484799,887,450,0,0,0,0,1,1,1,0001-00-0001-38.png,0005-00-0001-98.png
00000014,105,0,1447179487857,1447179488276,411,529,0,0,0,4,3,1,7,0004-00-0001-78.png,0002-00-0000-77.png
00000014,106,1,1447179492036,1447179492438,394,408,0,0,0,0,1,1,1,0001-00-0001-17.png,0005-00-0000-23.png
00000014,107,1,1447179493404,1447179494443,391,378,0,0,0,2,3,1,5,0003-00-0001-31.png,0002-00-0001-60.png
00000014,108,0,1447179495461,1447179496008,875,383,0,0,0,1,2,1,3,0005-00-0001-79.png,0003-00-0001-28.png
00000014,109,1,1447179499287,1447179499728,376,372,0,0,0,3,4,1,7,0002-00-0001-44.png,0004-00-0000-35.png
00000014,110,1,1447179500648,1447179501184,900,437,0,0,0,2,1,1,3,0003-00-0001-99.png,0005-00-0000-63.png
00000014,111,1,1447179502209,1447179502750,870,524,0,0,0,3,2,1,5,0002-00-0001-25.png,0003-00-0001-02.png
00000014,112,0,1447179503789,1447179504272,436,422,0,0,0,1,0,1,1,0005-00-0000-91.png,0001-00-0000-03.png
00000014,113,1,1447179507279,1447179507758,398,399,0,0,0,0,1,1,1,0001-00-0000-33.png,0005-00-0001-72.png
00000014,114,1,1447179508748,1447179509285,895,420,0,0,0,3,2,1,5,0002-00-0001-96.png,0003-00-0000-77.png
00000014,115,1,1447179510365,1447179510846,880,402,0,0,0,4,3,1,7,0004-00-0000-35.png,0002-00-0001-89.png
00000014,116,0,1447179511890,1447179512395,877,415,0,0,0,2,3,1,5,0003-00-0000-56.png,0002-00-0001-31.png
00000014,117,0,1447179516283,1447179516738,925,386,0,0,0,3,4,1,7,0002-00-0001-06.png,0004-00-0000-65.png
00000014,118,1,1447179520119,1447179520517,371,389,0,0,0,1,2,1,3,0005-00-0000-60.png,0003-00-0001-93.png
00000014,119,1,1447179521558,1447179522228,887,398,0,0,0,1,0,1,1,0005-00-0000-27.png,0001-00-0000-86.png
00000014,120,0,1447179523279,1447179524137,458,403,0,0,0,2,1,1,3,0003-00-0001-59.png,0005-00-0000-84.png
00000014,121,0,1447179527103,1447179527519,926,383,0,0,0,2,3,1,5,0003-00-0001-01.png,0002-00-0000-55.png
00000014,122,1,1447179531300,1447179531707,913,371,0,0,0,4,3,1,7,0004-00-0001-65.png,0002-00-0000-28.png
00000014,123,1,1447179532782,1447179533234,365,430,0,0,0,0,1,1,1,0001-00-0001-79.png,0005-00-0001-36.png
00000014,124,1,1447179534243,1447179534791,350,476,0,0,0,1,2,1,3,0005-00-0000-83.png,0003-00-0001-30.png
00000014,125,1,1447179535852,1447179536366,880,419,0,0,0,1,0,1,1,0005-00-0000-04.png,0001-00-0001-71.png
00000014,126,1,1447179537443,1447179537918,427,462,0,0,0,3,4,1,7,0002-00-0001-85.png,0004-00-0000-94.png
00000014,127,0,1447179539024,1447179540005,420,401,0,0,0,2,1,1,3,0003-00-0001-29.png,0005-00-0000-81.png
00000014,128,1,1447179543198,1447179543677,903,364,0,0,0,3,2,1,5,0002-00-0001-28.png,0003-00-0001-02.png
00000014,129,1,1447179544669,1447179545233,874,527,0,0,0,1,0,1,1,0005-00-0000-03.png,0001-00-0000-56.png
00000014,130,0,1447179546256,1447179547219,401,410,0,0,0,2,1,1,3,0003-00-0001-41.png,0005-00-0000-85.png
00000014,131,1,1447179550264,1447179550828,862,292,0,0,0,4,3,1,7,0004-00-0001-64.png,0002-00-0000-65.png
00000014,132,0,1447179551820,1447179552271,376,462,0,0,0,3,2,1,5,0002-00-0000-32.png,0003-00-0001-94.png
00000014,133,0,1447179555739,1447179556135,901,383,0,0,0,2,3,1,5,0003-00-0001-86.png,0002-00-0001-06.png
00000014,134,1,1447179559239,1447179559678,414,450,0,0,0,1,2,1,3,0005-00-0001-22.png,0003-00-0001-27.png
00000014,135,1,1447179560607,1447179561055,325,443,0,0,0,0,1,1,1,0001-00-0000-72.png,0005-00-0001-46.png
00000014,136,1,1447179562091,1447179562643,348,446,0,0,0,3,4,1,7,0002-00-0000-00.png,0004-00-0001-39.png
00000014,137,0,1447179563663,1447179564205,401,384,0,0,0,1,0,1,1,0005-00-0001-51.png,0001-00-0000-59.png
00000014,138,1,1447179567300,1447179567774,875,450,0,0,0,2,1,1,3,0003-00-0000-16.png,0005-00-0001-14.png
00000014,139,1,1447179568811,1447179569218,383,471,0,0,0,0,1,1,1,0001-00-0000-60.png,0005-00-0001-63.png
00000014,140,1,1447179570262,1447179570755,397,465,0,0,0,1,2,1,3,0005-00-0000-53.png,0003-00-0001-30.png
00000014,141,0,1447179571824,1447179572413,862,502,0,0,0,3,4,1,7,0002-00-0000-57.png,0004-00-0001-33.png
00000014,142,0,1447179575561,1447179576047,428,529,0,0,0,3,2,1,5,0002-00-0001-93.png,0003-00-0000-87.png
00000014,143,0,1447179579039,1447179579455,897,354,0,0,0,2,3,1,5,0003-00-0000-01.png,0002-00-0000-16.png
00000014,144,1,1447179582596,1447179583049,925,397,0,0,0,4,3,1,7,0004-00-0001-96.png,0002-00-0001-51.png
00000014,145,1,1447179584217,1447179585183,872,482,0,0,0,1,0,1,1,0005-00-0000-19.png,0001-00-0000-38.png
00000014,146,1,1447179586264,1447179586770,881,418,0,0,0,2,1,1,3,0003-00-0000-84.png,0005-00-0001-55.png
00000014,147,0,1447179587805,1447179588408,325,436,0,0,0,3,2,1,5,0002-00-0000-35.png,0003-00-0000-60.png
00000014,148,1,1447179591760,1447179592224,350,462,0,0,0,0,1,1,1,0001-00-0001-26.png,0005-00-0001-50.png
00000014,149,0,1447179593283,1447179593833,874,423,0,0,0,2,3,1,5,0003-00-0000-17.png,0002-00-0001-55.png
00000014,150,1,1447179597422,1447179597920,384,471,0,0,0,1,2,1,3,0005-00-0000-50.png,0003-00-0001-48.png
00000014,151,0,1447179598955,1447179599529,377,455,0,0,0,4,3,1,7,0004-00-0000-93.png,0002-00-0000-83.png
00000014,152,0,1447179602733,1447179603206,899,489,0,0,0,3,4,1,7,0002-00-0000-89.png,0004-00-0001-01.png
00000014,153,0,1447179608388,1447179608839,939,395,0,0,0,3,4,1,7,0002-00-0000-59.png,0004-00-0001-43.png
00000014,154,0,1447179611776,1447179612352,379,336,0,0,0,1,0,1,1,0005-00-0001-84.png,0001-00-0000-22.png
00000014,155,1,1447179615445,1447179615887,395,420,0,0,0,1,2,1,3,0005-00-0000-89.png,0003-00-0000-90.png
00000014,156,0,1447179616945,1447179617524,878,420,0,0,0,2,3,1,5,0003-00-0001-31.png,0002-00-0000-35.png
00000014,157,0,1447179620882,1447179621293,427,424,0,0,0,3,2,1,5,0002-00-0001-41.png,0003-00-0001-30.png
00000014,158,1,1447179624499,1447179624985,923,409,0,0,0,2,1,1,3,0003-00-0001-22.png,0005-00-0001-54.png
00000014,159,1,1447179626000,1447179626432,417,468,0,0,0,0,1,1,1,0001-00-0000-66.png,0005-00-0000-10.png
00000014,160,0,1447179627412,1447179627883,444,454,0,0,0,4,3,1,7,0004-00-0001-95.png,0002-00-0001-76.png
00000014,161,1,1447179630839,1447179631246,901,477,0,0,0,1,0,1,1,0005-00-0001-60.png,0001-00-0000-42.png
00000014,162,1,1447179632233,1447179633182,391,397,0,0,0,2,3,1,5,0003-00-0001-08.png,0002-00-0001-64.png
00000014,163,0,1447179634160,1447179634718,880,427,0,0,0,3,4,1,7,0002-00-0001-08.png,0004-00-0001-86.png
00000014,164,0,1447179637699,1447179638148,325,398,0,0,0,3,2,1,5,0002-00-0000-46.png,0003-00-0000-49.png
00000014,165,1,1447179641357,1447179641868,900,411,0,0,0,2,1,1,3,0003-00-0001-68.png,0005-00-0001-76.png
00000014,166,1,1447179642786,1447179643394,879,427,0,0,0,4,3,1,7,0004-00-0001-30.png,0002-00-0000-19.png
00000014,167,0,1447179644375,1447179644991,857,417,0,0,0,0,1,1,1,0001-00-0000-75.png,0005-00-0000-72.png
00000014,168,1,1447179648829,1447179649259,386,532,0,0,0,1,2,1,3,0005-00-0001-87.png,0003-00-0001-45.png
00000014,169,0,1447179650220,1447179650874,904,401,0,0,0,0,1,1,1,0001-00-0001-82.png,0005-00-0000-95.png
00000014,170,1,1447179653977,1447179654387,862,475,0,0,0,1,0,1,1,0005-00-0001-78.png,0001-00-0001-76.png
00000014,171,0,1447179655397,1447179655973,900,413,0,0,0,1,2,1,3,0005-00-0001-84.png,0003-00-0001-50.png
00000014,172,1,1447179659643,1447179660095,929,390,0,0,0,4,3,1,7,0004-00-0001-41.png,0002-00-0000-28.png
00000014,173,0,1447179661143,1447179661687,900,423,0,0,0,2,3,1,5,0003-00-0000-57.png,0002-00-0001-16.png
00000014,174,1,1447179667384,1447179667806,862,410,0,0,0,2,1,1,3,0003-00-0000-74.png,0005-00-0000-40.png
00000014,175,0,1447179668826,1447179669380,404,417,0,0,0,3,2,1,5,0002-00-0000-60.png,0003-00-0001-46.png
00000014,176,0,1447179672473,1447179672887,862,475,0,0,0,3,4,1,7,0002-00-0001-12.png,0004-00-0000-16.png
00000014,177,1,1447179685974,1447179686384,414,378,0,0,0,1,2,1,3,0005-00-0001-17.png,0003-00-0001-91.png
00000014,178,1,1447179687427,1447179687972,870,498,0,0,0,1,0,1,1,0005-00-0000-82.png,0001-00-0000-40.png
00000014,179,1,1447179688916,1447179689390,378,466,0,0,0,2,3,1,5,0003-00-0000-71.png,0002-00-0001-43.png
00000014,180,1,1447179690398,1447179690861,415,564,0,0,0,0,1,1,1,0001-00-0000-42.png,0005-00-0000-71.png
00000014,181,0,1447179691862,1447179692348,401,436,0,0,0,3,2,1,5,0002-00-0000-19.png,0003-00-0001-33.png
00000014,182,0,1447179695307,1447179695851,381,380,0,0,0,4,3,1,7,0004-00-0000-01.png,0002-00-0001-08.png
00000014,183,1,1447179699414,1447179699869,929,388,0,0,0,2,1,1,3,0003-00-0000-94.png,0005-00-0000-64.png
00000014,184,0,1447179700834,1447179701426,878,364,0,0,0,3,4,1,7,0002-00-0001-08.png,0004-00-0001-73.png
00000014,185,0,1447179704324,1447179704790,363,348,0,0,0,1,0,1,1,0005-00-0001-84.png,0001-00-0000-09.png
00000014,186,1,1447179709801,1447179710303,954,362,0,0,0,2,1,1,3,0003-00-0001-63.png,0005-00-0001-36.png
00000014,187,1,1447179711241,1447179711861,925,385,0,0,0,4,3,1,7,0004-00-0001-94.png,0002-00-0001-65.png
00000014,188,1,1447179712880,1447179713303,416,448,0,0,0,1,2,1,3,0005-00-0000-74.png,0003-00-0001-92.png
00000014,189,0,1447179714412,1447179714898,887,424,0,0,0,2,3,1,5,0003-00-0000-84.png,0002-00-0000-93.png
00000014,190,1,1447179718170,1447179718643,372,397,0,0,0,3,4,1,7,0002-00-0000-15.png,0004-00-0000-70.png
00000014,191,1,1447179719686,1447179720263,903,414,0,0,0,3,2,1,5,0002-00-0001-09.png,0003-00-0001-32.png
00000014,192,1,1447179721247,1447179721660,376,449,0,0,0,0,1,1,1,0001-00-0000-28.png,0005-00-0001-88.png
00000014,193,1,1447179722803,1447179723254,363,464,0,0,0,2,3,1,5,0003-00-0001-55.png,0002-00-0001-90.png
00000014,194,1,1447179724402,1447179724853,385,470,0,0,0,3,4,1,7,0002-00-0000-15.png,0004-00-0000-51.png
00000014,195,0,1447179725972,1447179726413,413,466,0,0,0,3,2,1,5,0002-00-0000-01.png,0003-00-0000-43.png
00000014,196,1,1447179729462,1447179730014,863,449,0,0,0,1,0,1,1,0005-00-0000-67.png,0001-00-0001-66.png
00000014,197,1,1447179731071,1447179731475,407,460,0,0,0,1,2,1,3,0005-00-0000-68.png,0003-00-0000-47.png
00000014,198,0,1447179732522,1447179732996,418,471,0,0,0,4,3,1,7,0004-00-0000-44.png,0002-00-0000-63.png
00000014,199,0,1447179736160,1447179736667,896,418,0,0,0,0,1,1,1,0001-00-0001-82.png,0005-00-0000-03.png
00000014,200,1,1447179740475,1447179740904,888,370,0,0,0,2,1,1,3,0003-00-0000-25.png,0005-00-0001-35.png
00000014,201,1,1447179741885,1447179742405,903,413,0,0,0,4,3,1,7,0004-00-0000-99.png,0002-00-0000-27.png
00000014,202,0,1447179743414,1447179744042,862,502,0,0,0,3,4,1,7,0002-00-0000-80.png,0004-00-0000-21.png
00000014,203,1,1447179747711,1447179748290,920,394,0,0,0,2,1,1,3,0003-00-0000-82.png,0005-00-0001-21.png
00000014,204,0,1447179749288,1447179749819,889,429,0,0,0,2,3,1,5,0003-00-0000-32.png,0002-00-0000-03.png
00000014,205,1,1447179752818,1447179753288,921,368,0,0,0,1,0,1,1,0005-00-0000-59.png,0001-00-0001-09.png
00000014,206,0,1447179754328,1447179754929,877,415,0,0,0,1,2,1,3,0005-00-0001-19.png,0003-00-0001-35.png
00000014,207,1,1447179758731,1447179759176,411,507,0,0,0,0,1,1,1,0001-00-0000-87.png,0005-00-0000-02.png
00000014,208,1,1447179760159,1447179760706,882,418,0,0,0,3,2,1,5,0002-00-0000-46.png,0003-00-0000-27.png
00000014,209,1,1447179761723,1447179762361,862,358,0,0,0,3,2,1,5,0002-00-0001-10.png,0003-00-0000-43.png
00000014,210,0,1447179763363,1447179764039,872,367,0,0,0,1,2,1,3,0005-00-0000-15.png,0003-00-0000-92.png
00000014,211,0,1447179767110,1447179767535,871,472,0,0,0,3,4,1,7,0002-00-0001-22.png,0004-00-0001-64.png
00000014,212,1,1447179770638,1447179771114,874,488,0,0,0,4,3,1,7,0004-00-0001-05.png,0002-00-0001-88.png
00000014,213,0,1447179772149,1447179772636,899,410,0,0,0,2,3,1,5,0003-00-0000-46.png,0002-00-0000-12.png
00000014,214,1,1447179775884,1447179776318,880,401,0,0,0,1,0,1,1,0005-00-0000-01.png,0001-00-0001-15.png
00000014,215,1,1447179777295,1447179778376,888,475,0,0,0,2,1,1,3,0003-00-0000-65.png,0005-00-0001-95.png
00000014,216,1,1447179779363,1447179779768,408,457,0,0,0,0,1,1,1,0001-00-0000-39.png,0005-00-0000-13.png
00000014,217,1,1447179781164,1447179781630,879,402,0,0,0,4,3,1,7,0004-00-0000-66.png,0002-00-0001-36.png
00000014,218,1,1447179783360,1447179783878,880,419,0,0,0,1,0,1,1,0005-00-0001-33.png,0001-00-0001-40.png
00000014,219,1,1447179785102,1447179785578,433,559,0,0,0,1,2,1,3,0005-00-0000-63.png,0003-00-0000-44.png
00000014,220,1,1447179787125,1447179787547,427,462,0,0,0,0,1,1,1,0001-00-0001-62.png,0005-00-0001-21.png
00000014,221,1,1447179788609,1447179789375,880,401,0,0,0,3,2,1,5,0002-00-0001-69.png,0003-00-0001-54.png
00000014,222,0,1447179790428,1447179790914,894,454,0,0,0,3,4,1,7,0002-00-0000-74.png,0004-00-0000-63.png
00000014,223,0,1447179794321,1447179794819,876,468,0,0,0,2,3,1,5,0003-00-0001-88.png,0002-00-0001-06.png
00000014,224,1,1447179797911,1447179798435,926,384,0,0,0,2,1,1,3,0003-00-0000-39.png,0005-00-0000-56.png
00000014,225,1,1447179799452,1447179799962,894,415,0,0,0,1,0,1,1,0005-00-0001-58.png,0001-00-0000-15.png
00000014,226,1,1447179801049,1447179801574,902,442,0,0,0,2,1,1,3,0003-00-0000-55.png,0005-00-0001-96.png
00000014,227,0,1447179802642,1447179803295,884,368,0,0,0,2,3,1,5,0003-00-0000-49.png,0002-00-0001-29.png
00000014,228,0,1447179806589,1447179807065,427,449,0,0,0,3,2,1,5,0002-00-0000-24.png,0003-00-0001-69.png
00000014,229,1,1447179810227,1447179811325,388,485,0,0,0,3,4,1,7,0002-00-0001-48.png,0004-00-0000-26.png
00000014,230,1,1447179812599,1447179813083,902,442,0,0,0,4,3,1,7,0004-00-0001-38.png,0002-00-0001-46.png
00000014,231,1,1447179814161,1447179814605,377,459,0,0,0,1,2,1,3,0005-00-0000-54.png,0003-00-0000-82.png
00000014,232,1,1447179815759,1447179816206,329,434,0,0,0,0,1,1,1,0001-00-0000-82.png,0005-00-0000-53.png
00000014,233,1,1447179817423,1447179817938,874,516,0,0,0,1,0,1,1,0005-00-0001-26.png,0001-00-0001-40.png
00000014,234,0,1447179819092,1447179819495,444,480,0,0,0,2,1,1,3,0003-00-0001-36.png,0005-00-0001-84.png
00000014,235,1,1447179822492,1447179822939,401,528,0,0,0,0,1,1,1,0001-00-0000-69.png,0005-00-0000-53.png
00000014,236,1,1447179823993,1447179824581,376,482,0,0,0,3,4,1,7,0002-00-0001-85.png,0004-00-0000-41.png
00000014,237,1,1447179825699,1447179826199,893,432,0,0,0,3,2,1,5,0002-00-0000-88.png,0003-00-0001-50.png
00000014,238,0,1447179827263,1447179827798,881,445,0,0,0,2,3,1,5,0003-00-0001-73.png,0002-00-0000-78.png
00000014,239,0,1447179832855,1447179833291,384,445,0,0,0,4,3,1,7,0004-00-0000-50.png,0002-00-0001-78.png
00000014,240,1,1447179837100,1447179837584,366,411,0,0,0,1,2,1,3,0005-00-0001-69.png,0003-00-0000-74.png
00000014,241,1,1447179838730,1447179839161,377,467,0,0,0,1,2,1,3,0005-00-0001-16.png,0003-00-0000-10.png
00000014,242,1,1447179840190,1447179840747,392,461,0,0,0,0,1,1,1,0001-00-0000-67.png,0005-00-0000-21.png
00000014,243,0,1447179841889,1447179842377,897,458,0,0,0,2,3,1,5,0003-00-0001-30.png,0002-00-0000-55.png
00000014,244,0,1447179845560,1447179846044,401,527,0,0,0,3,2,1,5,0002-00-0001-24.png,0003-00-0000-24.png
00000014,245,1,1447179848916,1447179849342,927,383,0,0,0,1,0,1,1,0005-00-0001-39.png,0001-00-0000-54.png
00000014,246,1,1447179850301,1447179850716,427,462,0,0,0,3,4,1,7,0002-00-0001-57.png,0004-00-0001-42.png
00000014,247,1,1447179851752,1447179852343,875,410,0,0,0,2,1,1,3,0003-00-0000-35.png,0005-00-0001-40.png
00000014,248,1,1447179853400,1447179853927,875,434,0,0,0,4,3,1,7,0004-00-0000-30.png,0002-00-0000-02.png
00000014,249,0,1447179855031,1447179856303,857,474,0,0,0,2,3,1,5,0003-00-0000-56.png,0002-00-0001-25.png
00000014,250,1,1447179864241,1447179864689,931,500,0,0,0,1,0,1,1,0005-00-0000-01.png,0001-00-0000-52.png
00000014,251,1,1447179865750,1447179866173,372,445,0,0,0,0,1,1,1,0001-00-0000-18.png,0005-00-0000-85.png
00000014,252,1,1447179867195,1447179867811,880,401,0,0,0,3,2,1,5,0002-00-0001-52.png,0003-00-0001-12.png
00000014,253,1,1447179868885,1447179869427,896,444,0,0,0,4,3,1,7,0004-00-0000-33.png,0002-00-0000-77.png
00000014,254,1,1447179870466,1447179870932,412,498,0,0,0,3,4,1,7,0002-00-0001-61.png,0004-00-0000-66.png
00000014,255,0,1447179871936,1447179872585,869,376,0,0,0,1,2,1,3,0005-00-0000-62.png,0003-00-0001-11.png
00000014,256,1,1447179875656,1447179876049,913,398,0,0,0,2,1,1,3,0003-00-0001-37.png,0005-00-0000-69.png
00000014,257,0,1447179877025,1447179877444,397,453,0,0,0,4,3,1,7,0004-00-0000-94.png,0002-00-0000-31.png
00000014,258,0,1447179881172,1447179881622,422,440,0,0,0,3,2,1,5,0002-00-0000-71.png,0003-00-0001-18.png
00000014,259,0,1447179884849,1447179885395,350,410,0,0,0,1,0,1,1,0005-00-0000-34.png,0001-00-0000-37.png
00000014,260,1,1447179889309,1447179890309,357,420,0,0,0,1,2,1,3,0005-00-0000-82.png,0003-00-0000-20.png
00000014,261,0,1447179891365,1447179891883,903,404,0,0,0,3,4,1,7,0002-00-0000-08.png,0004-00-0000-52.png
00000014,262,0,1447179895424,1447179895934,917,415,0,0,0,2,3,1,5,0003-00-0001-28.png,0002-00-0001-58.png
00000014,263,1,1447179898989,1447179899447,411,428,0,0,0,0,1,1,1,0001-00-0001-17.png,0005-00-0001-94.png
00000014,264,1,1447179900391,1447179900905,900,463,0,0,0,2,1,1,3,0003-00-0000-55.png,0005-00-0001-37.png
00000014,265,0,1447179901921,1447179902527,881,393,0,0,0,0,1,1,1,0001-00-0001-51.png,0005-00-0000-02.png
00000014,266,0,1447179905578,1447179906052,438,436,0,0,0,3,2,1,5,0002-00-0000-15.png,0003-00-0001-59.png
00000014,267,1,1447179913943,1447179914447,902,438,0,0,0,1,0,1,1,0005-00-0001-43.png,0001-00-0001-80.png
00000014,268,1,1447179915485,1447179915936,889,449,0,0,0,4,3,1,7,0004-00-0000-66.png,0002-00-0001-97.png
00000014,269,1,1447179916866,1447179917272,409,423,0,0,0,1,2,1,3,0005-00-0000-40.png,0003-00-0001-78.png
00000014,270,0,1447179918309,1447179918759,870,471,0,0,0,2,3,1,5,0003-00-0001-62.png,0002-00-0000-98.png
00000014,271,0,1447179923984,1447179924435,952,434,0,0,0,3,4,1,7,0002-00-0001-60.png,0004-00-0001-46.png
00000014,272,0,1447179929787,1447179930240,436,521,0,0,0,2,1,1,3,0003-00-0000-00.png,0005-00-0001-24.png
00000014,273,0,1447179937012,1447179937511,913,410,0,0,0,3,4,1,7,0002-00-0000-97.png,0004-00-0001-15.png
00000014,274,1,1447179941167,1447179941636,924,429,0,0,0,1,0,1,1,0005-00-0001-78.png,0001-00-0001-93.png
00000014,275,1,1447179942667,1447179943110,396,416,0,0,0,1,2,1,3,0005-00-0000-61.png,0003-00-0001-13.png
00000014,276,0,1447179944088,1447179944594,877,441,0,0,0,2,3,1,5,0003-00-0000-18.png,0002-00-0000-92.png
00000014,277,1,1447179947726,1447179948172,359,460,0,0,0,0,1,1,1,0001-00-0000-20.png,0005-00-0001-50.png
00000014,278,0,1447179949187,1447179949621,408,459,0,0,0,3,2,1,5,0002-00-0001-47.png,0003-00-0000-86.png
00000014,279,1,1447179955070,1447179955529,877,546,0,0,0,2,1,1,3,0003-00-0000-39.png,0005-00-0001-28.png
00000014,280,1,1447179956512,1447179957076,920,481,0,0,0,4,3,1,7,0004-00-0000-32.png,0002-00-0000-81.png
00000014,281,1,1447179958050,1447179958592,876,554,0,0,0,3,2,1,5,0002-00-0000-68.png,0003-00-0001-57.png
00000014,282,1,1447179959693,1447179960097,398,445,0,0,0,1,2,1,3,0005-00-0001-78.png,0003-00-0001-08.png
00000014,283,1,1447179961181,1447179961698,880,427,0,0,0,2,1,1,3,0003-00-0000-49.png,0005-00-0000-57.png
00000014,284,0,1447179962954,1447179963440,900,429,0,0,0,3,4,1,7,0002-00-0001-47.png,0004-00-0001-32.png
00000014,285,0,1447179967138,1447179967642,402,458,0,0,0,4,3,1,7,0004-00-0001-85.png,0002-00-0001-34.png
00000014,286,1,1447179971463,1447179971825,402,442,0,0,0,0,1,1,1,0001-00-0000-40.png,0005-00-0001-79.png
00000014,287,1,1447179973139,1447179973845,900,423,0,0,0,1,0,1,1,0005-00-0001-55.png,0001-00-0001-66.png
00000014,288,0,1447179974847,1447179975871,895,394,0,0,0,2,3,1,5,0003-00-0000-91.png,0002-00-0000-86.png
00000014,289,0,1447179997154,1447179997609,933,331,0,0,0,1,2,1,3,0005-00-0001-49.png,0003-00-0001-66.png
00000014,290,1,1447180000528,1447180001042,350,363,0,0,0,3,4,1,7,0002-00-0000-33.png,0004-00-0000-06.png
00000014,291,1,1447180001919,1447180002440,904,416,0,0,0,1,0,1,1,0005-00-0001-05.png,0001-00-0000-50.png
00000014,292,1,1447180003379,1447180003949,891,430,0,0,0,4,3,1,7,0004-00-0001-20.png,0002-00-0001-51.png
00000014,293,0,1447180004920,1447180005831,359,333,0,0,0,2,1,1,3,0003-00-0001-14.png,0005-00-0001-57.png
00000014,294,0,1447180013904,1447180014303,388,476,0,0,0,3,2,1,5,0002-00-0001-60.png,0003-00-0000-06.png
00000014,295,0,1447180018292,1447180018707,900,489,0,0,0,2,3,1,5,0003-00-0000-93.png,0002-00-0000-16.png
00000014,296,0,1447180022336,1447180022818,898,486,0,0,0,0,1,1,1,0001-00-0000-43.png,0005-00-0001-01.png
00000014,297,1,1447180027017,1447180027466,870,419,0,0,0,1,0,1,1,0005-00-0000-79.png,0001-00-0000-97.png
00000014,298,1,1447180028459,1447180029042,905,376,0,0,0,2,1,1,3,0003-00-0001-84.png,0005-00-0001-80.png
00000014,299,1,1447180030020,1447180030462,453,462,0,0,0,0,1,1,1,0001-00-0000-56.png,0005-00-0001-48.png
00000014,300,0,1447180031411,1447180031943,872,439,0,0,0,2,3,1,5,0003-00-0000-06.png,0002-00-0000-87.png
00000014,301,1,1447180038874,1447180039349,925,352,0,0,0,3,2,1,5,0002-00-0001-15.png,0003-00-0001-86.png
00000014,302,1,1447180040578,1447180041048,900,413,0,0,0,4,3,1,7,0004-00-0000-49.png,0002-00-0000-28.png
00000014,303,1,1447180041979,1447180042415,420,453,0,0,0,1,2,1,3,0005-00-0000-29.png,0003-00-0001-51.png
00000014,304,0,1447180043438,1447180043959,899,430,0,0,0,3,4,1,7,0002-00-0001-99.png,0004-00-0001-20.png
00000014,305,0,1447180047311,1447180047694,920,377,0,0,0,2,3,1,5,0003-00-0001-22.png,0002-00-0000-61.png
00000014,306,1,1447180053430,1447180053866,381,359,0,0,0,0,1,1,1,0001-00-0000-82.png,0005-00-0001-47.png
00000014,307,0,1447180054795,1447180055936,414,475,0,0,0,3,2,1,5,0002-00-0000-20.png,0003-00-0000-28.png
00000014,308,1,1447180059942,1447180060385,924,431,0,0,0,2,1,1,3,0003-00-0000-85.png,0005-00-0001-21.png
00000014,309,0,1447180061315,1447180061743,401,475,0,0,0,4,3,1,7,0004-00-0000-21.png,0002-00-0001-13.png
00000014,310,1,1447180067119,1447180067720,367,376,0,0,0,3,4,1,7,0002-00-0000-38.png,0004-00-0001-63.png
00000014,311,1,1447180068647,1447180069062,389,449,0,0,0,1,2,1,3,0005-00-0001-36.png,0003-00-0001-72.png
00000014,312,1,1447180069999,1447180070500,901,436,0,0,0,1,0,1,1,0005-00-0001-16.png,0001-00-0000-46.png
00000014,313,1,1447180071430,1447180071899,455,473,0,0,0,0,1,1,1,0001-00-0001-25.png,0005-00-0001-33.png
00000014,314,0,1447180072892,1447180073469,900,437,0,0,0,2,3,1,5,0003-00-0001-56.png,0002-00-0000-39.png
00000014,315,1,1447180078080,1447180078538,905,414,0,0,0,4,3,1,7,0004-00-0001-84.png,0002-00-0000-10.png
00000014,316,1,1447180079549,1447180080508,442,425,0,0,0,1,2,1,3,0005-00-0000-66.png,0003-00-0000-94.png
00000014,317,1,1447180081469,1447180081958,895,449,0,0,0,2,1,1,3,0003-00-0001-35.png,0005-00-0001-07.png
00000014,318,0,1447180082999,1447180083419,438,482,0,0,0,3,2,1,5,0002-00-0000-62.png,0003-00-0001-80.png
00000014,319,1,1447180086661,1447180087065,872,507,0,0,0,1,0,1,1,0005-00-0001-14.png,0001-00-0000-39.png
00000014,320,0,1447180088018,1447180088607,866,439,0,0,0,3,4,1,7,0002-00-0001-70.png,0004-00-0001-12.png
00000014,321,1,1447180092734,1447180093567,358,419,0,0,0,0,1,1,1,0001-00-0000-46.png,0005-00-0000-06.png
00000014,322,1,1447180094507,1447180094990,441,479,0,0,0,1,2,1,3,0005-00-0000-58.png,0003-00-0001-42.png
00000014,323,0,1447180095982,1447180096863,401,398,0,0,0,1,0,1,1,0005-00-0001-03.png,0001-00-0001-83.png
00000014,324,0,1447180100272,1447180100662,876,469,0,0,0,2,3,1,5,0003-00-0000-90.png,0002-00-0001-42.png
00000014,325,1,1447180103959,1447180104471,898,380,0,0,0,4,3,1,7,0004-00-0000-74.png,0002-00-0001-84.png
00000014,326,1,1447180105512,1447180105994,902,462,0,0,0,3,2,1,5,0002-00-0000-17.png,0003-00-0001-07.png
00000014,327,1,1447180107004,1447180107538,861,450,0,0,0,2,1,1,3,0003-00-0000-54.png,0005-00-0000-72.png
00000014,328,0,1447180108631,1447180109136,893,468,0,0,0,3,4,1,7,0002-00-0001-73.png,0004-00-0000-23.png
00000014,329,1,1447180113807,1447180114267,927,383,0,0,0,2,1,1,3,0003-00-0001-10.png,0005-00-0000-03.png
00000014,330,0,1447180115293,1447180115915,384,383,0,0,0,3,2,1,5,0002-00-0001-61.png,0003-00-0001-24.png
00000014,331,1,1447180118819,1447180119277,931,375,0,0,0,1,0,1,1,0005-00-0000-70.png,0001-00-0000-16.png
00000014,332,1,1447180120212,1447180120803,904,401,0,0,0,4,3,1,7,0004-00-0001-47.png,0002-00-0000-70.png
00000014,333,0,1447180121823,1447180122340,893,456,0,0,0,3,4,1,7,0002-00-0001-82.png,0004-00-0001-09.png
00000014,334,0,1447180147267,1447180147723,924,405,0,0,0,1,2,1,3,0005-00-0001-29.png,0003-00-0000-76.png
00000014,335,0,1447180150887,1447180151334,881,436,0,0,0,2,3,1,5,0003-00-0001-65.png,0002-00-0001-48.png
00000014,336,0,1447180156794,1447180157257,911,496,0,0,0,0,1,1,1,0001-00-0000-07.png,0005-00-0000-88.png
00000014,337,0,1447180160139,1447180160551,396,374,0,0,0,2,1,1,3,0003-00-0000-98.png,0005-00-0000-71.png
00000014,338,0,1447180163610,1447180164125,393,420,0,0,0,3,2,1,5,0002-00-0000-16.png,0003-00-0000-11.png
00000014,339,1,1447180167267,1447180168151,390,488,0,0,0,1,2,1,3,0005-00-0000-19.png,0003-00-0001-16.png
00000014,340,1,1447180178577,1447180178997,386,410,0,0,0,0,1,1,1,0001-00-0001-11.png,0005-00-0000-25.png
00000014,341,1,1447180179953,1447180180485,931,454,0,0,0,4,3,1,7,0004-00-0000-16.png,0002-00-0000-71.png
00000014,342,1,1447180181445,1447180181902,907,471,0,0,0,1,0,1,1,0005-00-0001-51.png,0001-00-0000-18.png
00000014,343,0,1447180182946,1447180183448,901,410,0,0,0,3,4,1,7,0002-00-0000-75.png,0004-00-0000-31.png
00000014,344,0,1447180189905,1447180190290,901,385,0,0,0,2,3,1,5,0003-00-0000-04.png,0002-00-0000-65.png
00000014,345,0,1447180194856,1447180195366,908,501,0,0,0,3,4,1,7,0002-00-0000-21.png,0004-00-0000-19.png
00000014,346,1,1447180198376,1447180198805,907,475,0,0,0,2,1,1,3,0003-00-0001-11.png,0005-00-0001-74.png
00000014,347,0,1447180199793,1447180200288,897,412,0,0,0,0,1,1,1,0001-00-0000-43.png,0005-00-0000-44.png
00000014,348,1,1447180207463,1447180207900,900,461,0,0,0,1,0,1,1,0005-00-0000-13.png,0001-00-0001-93.png
00000014,349,0,1447180208774,1447180209206,470,505,0,0,0,3,2,1,5,0002-00-0000-54.png,0003-00-0000-83.png
00000014,350,0,1447180213598,1447180214031,898,483,0,0,0,2,3,1,5,0003-00-0001-98.png,0002-00-0001-32.png
00000014,351,1,1447180217296,1447180217866,925,358,0,0,0,4,3,1,7,0004-00-0001-83.png,0002-00-0000-47.png
00000014,352,0,1447180218854,1447180219520,880,401,0,0,0,1,2,1,3,0005-00-0000-47.png,0003-00-0000-63.png
00000014,353,1,1447180222931,1447180223322,873,490,0,0,0,3,2,1,5,0002-00-0000-60.png,0003-00-0000-12.png
00000014,354,1,1447180224340,1447180224910,873,509,0,0,0,4,3,1,7,0004-00-0001-17.png,0002-00-0000-59.png
00000014,355,0,1447180225882,1447180226348,869,550,0,0,0,3,4,1,7,0002-00-0001-08.png,0004-00-0001-01.png
00000014,356,1,1447180229735,1447180230161,874,475,0,0,0,1,0,1,1,0005-00-0000-93.png,0001-00-0001-77.png
00000014,357,1,1447180231139,1447180231604,874,437,0,0,0,2,1,1,3,0003-00-0001-12.png,0005-00-0000-40.png
00000014,358,1,1447180232576,1447180233078,383,453,0,0,0,1,2,1,3,0005-00-0001-75.png,0003-00-0001-02.png
00000014,359,0,1447180234090,1447180234592,871,420,0,0,0,2,3,1,5,0003-00-0000-37.png,0002-00-0000-31.png
00000014,360,0,1447180238472,1447180238995,927,384,0,0,0,0,1,1,1,0001-00-0000-74.png,0005-00-0001-24.png
00000014,361,1,1447180242538,1447180242965,878,495,0,0,0,1,0,1,1,0005-00-0000-79.png,0001-00-0001-84.png
00000014,362,1,1447180243978,1447180244384,337,462,0,0,0,0,1,1,1,0001-00-0000-38.png,0005-00-0001-34.png
00000014,363,0,1447180245350,1447180245860,888,410,0,0,0,3,4,1,7,0002-00-0001-12.png,0004-00-0001-63.png
00000014,364,0,1447180249136,1447180249610,431,419,0,0,0,3,2,1,5,0002-00-0001-93.png,0003-00-0000-77.png
00000014,365,1,1447180252995,1447180253462,866,490,0,0,0,2,1,1,3,0003-00-0000-51.png,0005-00-0000-51.png
00000014,366,1,1447180254511,1447180255040,876,435,0,0,0,4,3,1,7,0004-00-0001-91.png,0002-00-0001-50.png
00000014,367,1,1447180256025,1447180256474,399,466,0,0,0,1,2,1,3,0005-00-0000-92.png,0003-00-0000-05.png
00000014,368,0,1447180257575,1447180258069,900,455,0,0,0,2,3,1,5,0003-00-0001-01.png,0002-00-0001-74.png
00000014,369,0,1447180261004,1447180261422,902,469,0,0,0,2,3,1,5,0003-00-0000-22.png,0002-00-0000-61.png
00000014,370,0,1447180264473,1447180264913,405,397,0,0,0,4,3,1,7,0004-00-0000-37.png,0002-00-0001-04.png
00000014,371,1,1447180267782,1447180268240,905,375,0,0,0,2,1,1,3,0003-00-0000-87.png,0005-00-0000-37.png
00000014,372,1,1447180269225,1447180269800,878,415,0,0,0,3,2,1,5,0002-00-0000-40.png,0003-00-0000-93.png
00000014,373,1,1447180270765,1447180271214,427,488,0,0,0,0,1,1,1,0001-00-0001-74.png,0005-00-0001-81.png
00000014,374,1,1447180272217,1447180272641,431,478,0,0,0,1,2,1,3,0005-00-0001-02.png,0003-00-0001-48.png
00000014,375,1,1447180274092,1447180274532,879,428,0,0,0,1,0,1,1,0005-00-0000-47.png,0001-00-0001-53.png
00000014,376,1,1447180275588,1447180276471,504,410,0,0,0,3,4,1,7,0002-00-0000-20.png,0004-00-0001-91.png
00000014,377,0,1447180277475,1447180277998,395,440,0,0,0,1,0,1,1,0005-00-0001-84.png,0001-00-0001-06.png
00000014,378,1,1447180282405,1447180282849,325,396,0,0,0,0,1,1,1,0001-00-0001-13.png,0005-00-0001-41.png
00000014,379,1,1447180283826,1447180284278,888,463,0,0,0,2,1,1,3,0003-00-0000-49.png,0005-00-0000-99.png
00000014,380,0,1447180285359,1447180285874,889,449,0,0,0,3,4,1,7,0002-00-0001-35.png,0004-00-0000-19.png
00000014,381,1,1447180288945,1447180289352,384,409,0,0,0,1,2,1,3,0005-00-0001-88.png,0003-00-0000-84.png
00000014,382,1,1447180290334,1447180290896,869,403,0,0,0,3,2,1,5,0002-00-0000-30.png,0003-00-0000-74.png
00000014,383,1,1447180291924,1447180292430,880,418,0,0,0,4,3,1,7,0004-00-0001-97.png,0002-00-0000-13.png
00000014,384,0,1447180293466,1447180293987,898,438,0,0,0,2,3,1,5,0003-00-0001-61.png,0002-00-0000-25.png
00000014,385,1,1447180297005,1447180297465,875,371,0,0,0,2,1,1,3,0003-00-0000-92.png,0005-00-0001-29.png
00000014,386,1,1447180298484,1447180298947,451,463,0,0,0,0,1,1,1,0001-00-0001-69.png,0005-00-0001-67.png
00000014,387,1,1447180299987,1447180300570,890,423,0,0,0,1,0,1,1,0005-00-0001-26.png,0001-00-0001-77.png
00000014,388,0,1447180301596,1447180302084,861,450,0,0,0,2,3,1,5,0003-00-0000-04.png,0002-00-0000-45.png
00000014,389,0,1447180304916,1447180305430,415,354,0,0,0,3,2,1,5,0002-00-0000-42.png,0003-00-0001-43.png
00000014,390,0,1447180308914,1447180309349,900,462,0,0,0,3,4,1,7,0002-00-0001-63.png,0004-00-0000-24.png
00000014,391,1,1447180313177,1447180313736,883,448,0,0,0,4,3,1,7,0004-00-0000-17.png,0002-00-0000-11.png
00000014,392,1,1447180314809,1447180315269,435,446,0,0,0,1,2,1,3,0005-00-0000-11.png,0003-00-0000-23.png
00000014,393,1,1447180316259,1447180316733,905,428,0,0,0,1,0,1,1,0005-00-0001-22.png,0001-00-0001-63.png
00000014,394,1,1447180317729,1447180318242,900,436,0,0,0,4,3,1,7,0004-00-0001-31.png,0002-00-0000-25.png
00000014,395,0,1447180319350,1447180319860,875,423,0,0,0,2,3,1,5,0003-00-0000-99.png,0002-00-0001-12.png
00000014,396,1,1447180323670,1447180324109,365,410,0,0,0,1,2,1,3,0005-00-0001-77.png,0003-00-0000-92.png
00000014,397,0,1447180325153,1447180325655,899,411,0,0,0,3,4,1,7,0002-00-0001-39.png,0004-00-0001-67.png
00000014,398,1,1447180330105,1447180330546,897,443,0,0,0,2,1,1,3,0003-00-0000-83.png,0005-00-0001-21.png
00000014,399,1,1447180331595,1447180332005,440,449,0,0,0,0,1,1,1,0001-00-0001-04.png,0005-00-0001-81.png
00000014,400,0,1447180333056,1447180333589,376,455,0,0,0,3,2,1,5,0002-00-0001-19.png,0003-00-0000-73.png
00000014,401,1,1447180336679,1447180337111,441,538,0,0,0,0,1,1,1,0001-00-0000-73.png,0005-00-0000-58.png
00000014,402,1,1447180338058,1447180338560,903,444,0,0,0,1,0,1,1,0005-00-0001-30.png,0001-00-0001-65.png
00000014,403,1,1447180339636,1447180340168,875,410,0,0,0,4,3,1,7,0004-00-0000-22.png,0002-00-0001-04.png
00000014,404,0,1447180341278,1447180341767,877,439,0,0,0,3,4,1,7,0002-00-0001-01.png,0004-00-0001-42.png
00000014,405,1,1447180349006,1447180349461,341,389,0,0,0,1,2,1,3,0005-00-0001-70.png,0003-00-0001-46.png
00000014,406,0,1447180350559,1447180351649,414,411,0,0,0,3,2,1,5,0002-00-0001-77.png,0003-00-0001-12.png
00000014,407,0,1447180354714,1447180355385,899,384,0,0,0,2,3,1,5,0003-00-0001-38.png,0002-00-0001-41.png
00000014,408,1,1447180358717,1447180359238,887,488,0,0,0,2,1,1,3,0003-00-0000-98.png,0005-00-0000-85.png
00000014,409,1,1447180360477,1447180360965,900,435,0,0,0,2,1,1,3,0003-00-0000-98.png,0005-00-0001-71.png
00000014,410,1,1447180361966,1447180362407,404,458,0,0,0,2,3,1,5,0003-00-0001-36.png,0002-00-0001-64.png
00000014,411,1,1447180363448,1447180363973,876,528,0,0,0,1,0,1,1,0005-00-0000-16.png,0001-00-0001-74.png
00000014,412,0,1447180365021,1447180365584,874,436,0,0,0,3,4,1,7,0002-00-0000-14.png,0004-00-0000-43.png
00000014,413,0,1447180370475,1447180370931,389,397,0,0,0,3,2,1,5,0002-00-0001-37.png,0003-00-0001-50.png
00000014,414,1,1447180379884,1447180380305,893,477,0,0,0,4,3,1,7,0004-00-0000-99.png,0002-00-0001-28.png
00000014,415,1,1447180381404,1447180381840,413,556,0,0,0,0,1,1,1,0001-00-0000-72.png,0005-00-0000-49.png
00000014,416,1,1447180382888,1447180383362,417,462,0,0,0,1,2,1,3,0005-00-0000-83.png,0003-00-0000-74.png
00000014,417,1,1447180384359,1447180384845,905,427,0,0,0,1,0,1,1,0005-00-0000-61.png,0001-00-0000-14.png
00000014,418,1,1447180385807,1447180386334,900,437,0,0,0,4,3,1,7,0004-00-0001-12.png,0002-00-0001-86.png
00000014,419,1,1447180387321,1447180387783,439,488,0,0,0,0,1,1,1,0001-00-0000-21.png,0005-00-0000-58.png
00000014,420,0,1447180388869,1447180389456,877,467,0,0,0,2,3,1,5,0003-00-0001-80.png,0002-00-0000-97.png
00000014,421,1,1447180392518,1447180392943,948,367,0,0,0,2,1,1,3,0003-00-0000-03.png,0005-00-0001-08.png
00000014,422,1,1447180393881,1447180394330,448,455,0,0,0,1,2,1,3,0005-00-0001-62.png,0003-00-0000-63.png
00000014,423,1,1447180395527,1447180395948,419,480,0,0,0,3,4,1,7,0002-00-0000-44.png,0004-00-0001-38.png
00000014,424,0,1447180396981,1447180397866,468,413,0,0,0,3,2,1,5,0002-00-0001-28.png,0003-00-0000-62.png
00000014,425,0,1447180400828,1447180401277,370,447,0,0,0,3,2,1,5,0002-00-0001-17.png,0003-00-0000-32.png
00000014,426,0,1447180405200,1447180405603,925,386,0,0,0,0,1,1,1,0001-00-0001-82.png,0005-00-0001-25.png
00000014,427,0,1447180408879,1447180409273,922,380,0,0,0,2,3,1,5,0003-00-0001-33.png,0002-00-0001-88.png
00000014,428,1,1447180412754,1447180413226,884,515,0,0,0,1,0,1,1,0005-00-0001-83.png,0001-00-0001-86.png
00000014,429,0,1447180414145,1447180414623,392,488,0,0,0,4,3,1,7,0004-00-0000-76.png,0002-00-0000-89.png
00000014,430,1,1447180417714,1447180418174,925,396,0,0,0,2,1,1,3,0003-00-0000-09.png,0005-00-0001-45.png
00000014,431,1,1447180419204,1447180419608,387,449,0,0,0,1,2,1,3,0005-00-0000-63.png,0003-00-0000-25.png
00000014,432,0,1447180420587,1447180421151,878,417,0,0,0,3,4,1,7,0002-00-0001-95.png,0004-00-0000-67.png
00000014,433,0,1447180424043,1447180424424,926,382,0,0,0,3,4,1,7,0002-00-0000-74.png,0004-00-0001-18.png
00000014,434,0,1447180427293,1447180427705,922,379,0,0,0,2,3,1,5,0003-00-0000-45.png,0002-00-0001-42.png
00000014,435,0,1447180431945,1447180432385,440,449,0,0,0,3,2,1,5,0002-00-0000-86.png,0003-00-0001-62.png
00000014,436,1,1447180435564,1447180436013,926,409,0,0,0,2,1,1,3,0003-00-0000-98.png,0005-00-0001-66.png
00000014,437,1,1447180437178,1447180437615,903,441,0,0,0,4,3,1,7,0004-00-0000-07.png,0002-00-0000-81.png
00000014,438,0,1447180438659,1447180439126,418,461,0,0,0,1,0,1,1,0005-00-0001-55.png,0001-00-0000-34.png
00000014,439,0,1447180442302,1447180442763,875,462,0,0,0,1,2,1,3,0005-00-0001-09.png,0003-00-0000-11.png
00000014,440,1,1447180446158,1447180446612,435,446,0,0,0,0,1,1,1,0001-00-0000-46.png,0005-00-0001-46.png
00000014,441,1,1447180447691,1447180448187,900,410,0,0,0,1,0,1,1,0005-00-0000-80.png,0001-00-0001-55.png
00000014,442,1,1447180449183,1447180450085,358,392,0,0,0,2,3,1,5,0003-00-0001-71.png,0002-00-0001-96.png
00000014,443,1,1447180451099,1447180452069,900,434,0,0,0,2,1,1,3,0003-00-0000-56.png,0005-00-0000-99.png
00000014,444,1,1447180453084,1447180453539,423,438,0,0,0,0,1,1,1,0001-00-0001-49.png,0005-00-0000-12.png
00000014,445,1,1447180454565,1447180455039,404,440,0,0,0,3,4,1,7,0002-00-0001-81.png,0004-00-0001-33.png
00000014,446,1,1447180456148,1447180456543,413,450,0,0,0,1,2,1,3,0005-00-0000-81.png,0003-00-0000-01.png
00000014,447,1,1447180457649,1447180458205,863,397,0,0,0,4,3,1,7,0004-00-0000-46.png,0002-00-0000-07.png
00000014,448,0,1447180459300,1447180460298,358,399,0,0,0,3,2,1,5,0002-00-0001-85.png,0003-00-0000-39.png
00000014,449,1,1447180463533,1447180463936,406,451,0,0,0,1,2,1,3,0005-00-0000-18.png,0003-00-0001-28.png
00000014,450,1,1447180465002,1447180465698,861,398,0,0,0,3,2,1,5,0002-00-0000-59.png,0003-00-0000-11.png
00000014,451,0,1447180466763,1447180467237,900,429,0,0,0,2,3,1,5,0003-00-0000-28.png,0002-00-0000-84.png
00000014,452,1,1447180470270,1447180470705,403,439,0,0,0,0,1,1,1,0001-00-0000-87.png,0005-00-0000-03.png
00000014,453,1,1447180471722,1447180472204,880,427,0,0,0,2,1,1,3,0003-00-0000-93.png,0005-00-0001-56.png
00000014,454,0,1447180473266,1447180473683,440,451,0,0,0,1,0,1,1,0005-00-0001-27.png,0001-00-0001-90.png
00000014,455,1,1447180478273,1447180478762,356,361,0,0,0,3,4,1,7,0002-00-0000-76.png,0004-00-0000-29.png
00000014,456,1,1447180479903,1447180480423,879,427,0,0,0,4,3,1,7,0004-00-0001-20.png,0002-00-0000-64.png
00000014,457,1,1447180481434,1447180482438,376,411,0,0,0,0,1,1,1,0001-00-0001-31.png,0005-00-0000-53.png
00000014,458,0,1447180483579,1447180483983,366,454,0,0,0,4,3,1,7,0004-00-0001-41.png,0002-00-0001-43.png
00000014,459,0,1447180486865,1447180487383,925,462,0,0,0,2,3,1,5,0003-00-0000-36.png,0002-00-0000-75.png
00000014,460,1,1447180490493,1447180490981,870,472,0,0,0,2,1,1,3,0003-00-0001-68.png,0005-00-0000-58.png
00000014,461,1,1447180491958,1447180492527,899,439,0,0,0,1,0,1,1,0005-00-0001-82.png,0001-00-0000-83.png
00000014,462,0,1447180493529,1447180494121,899,385,0,0,0,3,4,1,7,0002-00-0001-26.png,0004-00-0000-13.png
00000014,463,1,1447180497972,1447180498480,906,401,0,0,0,3,2,1,5,0002-00-0001-72.png,0003-00-0000-85.png
00000014,464,1,1447180499486,1447180500181,426,388,0,0,0,1,2,1,3,0005-00-0000-47.png,0003-00-0000-95.png
00000014,465,0,1447180501164,1447180502195,931,401,0,0,0,2,3,1,5,0003-00-0001-68.png,0002-00-0000-50.png
00000014,466,1,1447180505396,1447180505823,902,495,0,0,0,1,0,1,1,0005-00-0000-52.png,0001-00-0001-71.png
00000014,467,1,1447180506786,1447180507263,427,555,0,0,0,1,2,1,3,0005-00-0000-33.png,0003-00-0001-96.png
00000014,468,1,1447180508348,1447180508841,899,437,0,0,0,3,2,1,5,0002-00-0001-48.png,0003-00-0000-07.png
00000014,469,1,1447180509848,1447180510461,881,393,0,0,0,2,1,1,3,0003-00-0001-72.png,0005-00-0001-11.png
00000014,470,0,1447180511487,1447180511860,460,471,0,0,0,4,3,1,7,0004-00-0000-37.png,0002-00-0001-48.png
00000014,471,0,1447180515297,1447180515788,881,501,0,0,0,0,1,1,1,0001-00-0001-72.png,0005-00-0001-71.png
00000014,472,0,1447180518994,1447180519432,903,400,0,0,0,3,4,1,7,0002-00-0000-08.png,0004-00-0001-22.png
00000014,473,1,1447180522469,1447180522866,418,403,0,0,0,3,4,1,7,0002-00-0000-84.png,0004-00-0001-33.png
00000014,474,0,1447180523842,1447180524301,396,470,0,0,0,4,3,1,7,0004-00-0001-59.png,0002-00-0001-04.png
00000014,475,0,1447180527589,1447180528172,895,498,0,0,0,0,1,1,1,0001-00-0001-62.png,0005-00-0001-13.png
00000014,476,1,1447180531316,1447180531821,902,426,0,0,0,2,1,1,3,0003-00-0001-82.png,0005-00-0001-47.png
00000014,477,0,1447180532889,1447180533461,875,436,0,0,0,2,3,1,5,0003-00-0000-26.png,0002-00-0001-00.png
00000014,478,0,1447180536643,1447180537221,431,383,0,0,0,3,2,1,5,0002-00-0001-43.png,0003-00-0000-39.png
00000014,479,1,1447180540749,1447180541254,388,548,0,0,0,1,2,1,3,0005-00-0000-42.png,0003-00-0001-94.png
00000014,480,0,1447180542208,1447180542612,397,467,0,0,0,1,0,1,1,0005-00-0000-68.png,0001-00-0001-00.png
00000014,481,1,1447180546174,1447180546703,357,362,0,0,0,1,2,1,3,0005-00-0001-61.png,0003-00-0001-39.png
00000014,482,1,1447180547734,1447180548213,439,450,0,0,0,3,4,1,7,0002-00-0001-23.png,0004-00-0000-05.png
00000014,483,0,1447180549174,1447180549921,912,399,0,0,0,2,3,1,5,0003-00-0000-89.png,0002-00-0001-43.png
00000014,484,1,1447180553002,1447180553604,881,400,0,0,0,3,2,1,5,0002-00-0001-06.png,0003-00-0000-68.png
00000014,485,1,1447180554711,1447180555123,439,502,0,0,0,0,1,1,1,0001-00-0000-73.png,0005-00-0000-03.png
00000014,486,0,1447180556143,1447180556599,411,471,0,0,0,4,3,1,7,0004-00-0001-64.png,0002-00-0000-35.png
00000014,487,1,1447180560021,1447180560544,870,472,0,0,0,2,1,1,3,0003-00-0000-42.png,0005-00-0001-39.png
00000014,488,1,1447180561530,1447180561999,903,441,0,0,0,1,0,1,1,0005-00-0001-61.png,0001-00-0001-65.png
00000014,489,1,1447180563139,1447180563593,894,455,0,0,0,1,0,1,1,0005-00-0000-57.png,0001-00-0000-13.png
00000014,490,1,1447180564676,1447180565126,384,472,0,0,0,1,2,1,3,0005-00-0000-31.png,0003-00-0001-94.png
00000014,491,0,1447180566222,1447180566784,875,539,0,0,0,3,4,1,7,0002-00-0000-19.png,0004-00-0000-19.png
00000014,492,1,1447180570107,1447180570605,928,410,0,0,0,4,3,1,7,0004-00-0001-70.png,0002-00-0001-87.png
00000014,493,0,1447180572087,1447180572532,900,410,0,0,0,2,3,1,5,0003-00-0001-82.png,0002-00-0001-26.png
00000014,494,1,1447180579710,1447180580140,927,435,0,0,0,3,2,1,5,0002-00-0000-82.png,0003-00-0001-57.png
00000014,495,1,1447180581225,1447180581754,876,450,0,0,0,2,1,1,3,0003-00-0000-81.png,0005-00-0001-93.png
00000014,496,1,1447180582744,1447180583182,410,471,0,0,0,0,1,1,1,0001-00-0001-99.png,0005-00-0000-89.png
00000014,497,0,1447180584227,1447180584879,882,410,0,0,0,2,3,1,5,0003-00-0001-13.png,0002-00-0001-84.png
00000014,498,1,1447180588093,1447180588485,413,449,0,0,0,0,1,1,1,0001-00-0000-67.png,0005-00-0000-11.png
00000014,499,1,1447180589924,1447180590349,900,431,0,0,0,4,3,1,7,0004-00-0000-41.png,0002-00-0001-90.png
00000014,500,1,1447180591872,1447180592354,896,446,0,0,0,1,0,1,1,0005-00-0001-68.png,0001-00-0001-09.png
00000014,501,1,1447180593443,1447180593944,875,462,0,0,0,2,1,1,3,0003-00-0000-60.png,0005-00-0000-21.png
00000014,502,1,1447180595151,1447180595637,391,473,0,0,0,1,2,1,3,0005-00-0001-15.png,0003-00-0001-12.png
00000014,503,1,1447180596712,1447180597154,445,454,0,0,0,3,4,1,7,0002-00-0001-56.png,0004-00-0000-08.png
00000014,504,0,1447180598322,1447180598800,419,487,0,0,0,3,2,1,5,0002-00-0001-84.png,0003-00-0000-84.png
00000014,505,0,1447180602178,1447180602989,412,398,0,0,0,3,2,1,5,0002-00-0001-04.png,0003-00-0000-07.png
00000014,506,1,1447180610144,1447180610546,427,410,0,0,0,1,2,1,3,0005-00-0000-66.png,0003-00-0000-32.png
00000014,507,1,1447180611644,1447180612081,331,445,0,0,0,0,1,1,1,0001-00-0001-05.png,0005-00-0000-23.png
00000014,508,1,1447180613155,1447180613766,887,424,0,0,0,2,1,1,3,0003-00-0000-64.png,0005-00-0000-11.png
00000014,509,1,1447180614745,1447180615763,903,415,0,0,0,1,0,1,1,0005-00-0001-56.png,0001-00-0000-03.png
00000014,510,0,1447180616753,1447180617389,869,423,0,0,0,3,4,1,7,0002-00-0001-79.png,0004-00-0001-14.png
00000014,511,0,1447180620410,1447180620870,928,417,0,0,0,2,3,1,5,0003-00-0001-90.png,0002-00-0001-88.png
00000014,512,0,1447180623817,1447180624826,376,461,0,0,0,4,3,1,7,0004-00-0001-68.png,0002-00-0001-47.png
00000014,513,1,1447180628809,1447180629271,903,390,0,0,0,1,0,1,1,0005-00-0001-54.png,0001-00-0000-59.png
00000014,514,1,1447180630248,1447180630909,888,501,0,0,0,4,3,1,7,0004-00-0001-15.png,0002-00-0000-54.png
00000014,515,1,1447180631946,1447180632460,873,463,0,0,0,2,1,1,3,0003-00-0000-53.png,0005-00-0001-40.png
00000014,516,0,1447180633459,1447180633988,875,465,0,0,0,2,3,1,5,0003-00-0001-63.png,0002-00-0001-93.png
00000014,517,0,1447180637276,1447180637739,905,401,0,0,0,0,1,1,1,0001-00-0001-24.png,0005-00-0001-50.png
00000014,518,0,1447180641332,1447180641787,358,391,0,0,0,3,2,1,5,0002-00-0001-55.png,0003-00-0001-67.png
00000014,519,1,1447180645177,1447180645689,376,436,0,0,0,3,4,1,7,0002-00-0000-73.png,0004-00-0001-09.png
00000014,520,0,1447180646737,1447180647248,899,438,0,0,0,1,2,1,3,0005-00-0000-30.png,0003-00-0000-31.png
00000014,521,1,1447180659670,1447180660105,902,394,0,0,0,1,0,1,1,0005-00-0001-08.png,0001-00-0000-56.png
00000014,522,1,1447180661155,1447180661609,391,443,0,0,0,0,1,1,1,0001-00-0000-32.png,0005-00-0001-24.png
00000014,523,1,1447180662628,1447180663555,345,386,0,0,0,2,3,1,5,0003-00-0001-68.png,0002-00-0000-18.png
00000014,524,1,1447180664555,1447180665117,874,410,0,0,0,2,1,1,3,0003-00-0001-52.png,0005-00-0000-94.png
00000014,525,0,1447180666136,1447180666560,376,449,0,0,0,3,2,1,5,0002-00-0001-53.png,0003-00-0000-65.png
00000014,526,1,1447180669982,1447180670479,875,476,0,0,0,4,3,1,7,0004-00-0001-41.png,0002-00-0000-39.png
00000014,527,1,1447180671462,1447180671898,376,433,0,0,0,3,4,1,7,0002-00-0001-67.png,0004-00-0001-24.png
00000014,528,0,1447180672885,1447180673858,899,370,0,0,0,1,2,1,3,0005-00-0000-49.png,0003-00-0001-12.png
00000014,529,0,1447180677067,1447180677512,870,524,0,0,0,3,4,1,7,0002-00-0001-96.png,0004-00-0000-28.png
00000014,530,1,1447180680623,1447180681143,421,419,0,0,0,0,1,1,1,0001-00-0000-58.png,0005-00-0000-78.png
00000014,531,1,1447180682175,1447180682603,424,445,0,0,0,1,2,1,3,0005-00-0000-84.png,0003-00-0000-87.png
00000014,532,1,1447180683608,1447180684090,903,480,0,0,0,1,0,1,1,0005-00-0000-71.png,0001-00-0001-30.png
00000014,533,0,1447180685168,1447180685623,401,488,0,0,0,4,3,1,7,0004-00-0000-76.png,0002-00-0001-97.png
00000014,534,1,1447180688950,1447180689357,906,426,0,0,0,2,1,1,3,0003-00-0001-33.png,0005-00-0001-49.png
00000014,535,0,1447180690715,1447180691191,895,441,0,0,0,2,3,1,5,0003-00-0000-24.png,0002-00-0001-23.png
00000014,536,0,1447180699360,1447180699753,378,384,0,0,0,3,2,1,5,0002-00-0000-00.png,0003-00-0001-47.png
00000014,537,1,1447180703003,1447180703477,369,362,0,0,0,0,1,1,1,0001-00-0000-13.png,0005-00-0001-72.png
00000014,538,0,1447180704544,1447180705434,900,409,0,0,0,1,2,1,3,0005-00-0001-20.png,0003-00-0001-87.png
00000014,539,1,1447180708678,1447180709141,938,459,0,0,0,4,3,1,7,0004-00-0000-43.png,0002-00-0000-39.png
00000014,540,0,1447180710267,1447180710757,897,433,0,0,0,3,4,1,7,0002-00-0001-95.png,0004-00-0000-40.png
00000014,541,1,1447180713804,1447180714304,868,525,0,0,0,2,1,1,3,0003-00-0000-57.png,0005-00-0001-78.png
00000014,542,0,1447180715376,1447180715762,357,453,0,0,0,3,2,1,5,0002-00-0000-84.png,0003-00-0001-21.png
00000014,543,0,1447180719145,1447180719593,903,415,0,0,0,2,3,1,5,0003-00-0000-64.png,0002-00-0001-59.png
00000014,544,1,1447180723068,1447180723515,925,436,0,0,0,1,0,1,1,0005-00-0000-16.png,0001-00-0000-73.png
00000014,545,0,1447180724729,1447180725167,379,466,0,0,0,3,2,1,5,0002-00-0001-45.png,0003-00-0000-86.png
00000014,546,0,1447180728013,1447180728682,926,397,0,0,0,3,4,1,7,0002-00-0000-94.png,0004-00-0001-14.png
00000014,547,1,1447180731725,1447180732285,862,476,0,0,0,4,3,1,7,0004-00-0001-10.png,0002-00-0000-88.png
00000014,548,1,1447180733402,1447180733852,409,449,0,0,0,0,1,1,1,0001-00-0001-48.png,0005-00-0000-54.png
00000014,549,1,1447180734946,1447180735486,868,442,0,0,0,1,0,1,1,0005-00-0000-77.png,0001-00-0001-15.png
00000014,550,1,1447180736517,1447180737057,879,428,0,0,0,2,1,1,3,0003-00-0000-31.png,0005-00-0001-51.png
00000014,551,1,1447180738134,1447180738593,464,481,0,0,0,1,2,1,3,0005-00-0000-28.png,0003-00-0001-94.png
00000014,552,0,1447180739696,1447180740260,882,452,0,0,0,2,3,1,5,0003-00-0001-06.png,0002-00-0001-91.png
00000014,553,0,1447180743553,1447180743981,913,423,0,0,0,0,1,1,1,0001-00-0001-30.png,0005-00-0000-28.png
00000014,554,0,1447180750248,1447180750662,911,463,0,0,0,1,2,1,3,0005-00-0001-14.png,0003-00-0000-96.png
00000014,555,1,1447180753780,1447180754172,926,383,0,0,0,1,0,1,1,0005-00-0001-14.png,0001-00-0000-89.png
00000014,556,0,1447180755219,1447180755652,419,480,0,0,0,3,2,1,5,0002-00-0000-35.png,0003-00-0000-50.png
00000014,557,1,1447180759017,1447180759479,861,502,0,0,0,4,3,1,7,0004-00-0001-31.png,0002-00-0000-67.png
00000014,558,1,1447180760567,1447180761070,899,437,0,0,0,2,1,1,3,0003-00-0000-84.png,0005-00-0001-50.png
00000014,559,0,1447180762085,1447180762672,909,415,0,0,0,3,4,1,7,0002-00-0000-09.png,0004-00-0001-06.png
00000014,560,0,1447180765795,1447180766270,870,472,0,0,0,2,3,1,5,0003-00-0001-65.png,0002-00-0001-67.png
00000014,561,0,1447180769484,1447180769916,900,436,0,0,0,1,2,1,3,0005-00-0000-13.png,0003-00-0000-61.png
00000014,562,1,1447180773695,1447180774252,376,436,0,0,0,0,1,1,1,0001-00-0001-56.png,0005-00-0000-36.png
00000014,563,0,1447180775247,1447180775784,403,466,0,0,0,3,2,1,5,0002-00-0001-98.png,0003-00-0000-02.png
00000014,564,0,1447180778863,1447180779371,884,458,0,0,0,2,3,1,5,0003-00-0000-28.png,0002-00-0000-42.png
00000014,565,1,1447180782402,1447180783055,874,487,0,0,0,4,3,1,7,0004-00-0000-92.png,0002-00-0001-46.png
00000014,566,1,1447180784082,1447180784569,898,457,0,0,0,1,0,1,1,0005-00-0000-82.png,0001-00-0000-06.png
00000014,567,0,1447180785653,1447180786217,874,412,0,0,0,3,4,1,7,0002-00-0001-39.png,0004-00-0001-33.png
00000014,568,1,1447180789340,1447180789754,878,494,0,0,0,2,1,1,3,0003-00-0001-86.png,0005-00-0000-35.png
00000014,569,1,1447180790820,1447180791520,859,399,0,0,0,3,2,1,5,0002-00-0001-73.png,0003-00-0001-43.png
00000014,570,1,1447180792560,1447180792995,413,475,0,0,0,1,2,1,3,0005-00-0000-64.png,0003-00-0001-72.png
00000014,571,0,1447180794190,1447180794660,871,446,0,0,0,2,3,1,5,0003-00-0001-37.png,0002-00-0000-29.png
00000014,572,1,1447180797618,1447180798154,870,498,0,0,0,4,3,1,7,0004-00-0000-62.png,0002-00-0001-90.png
00000014,573,1,1447180799227,1447180800089,389,397,0,0,0,0,1,1,1,0001-00-0001-17.png,0005-00-0001-91.png
00000014,574,1,1447180801160,1447180801654,878,454,0,0,0,1,0,1,1,0005-00-0000-87.png,0001-00-0001-14.png
00000014,575,0,1447180802756,1447180803136,459,492,0,0,0,2,1,1,3,0003-00-0000-81.png,0005-00-0000-11.png
00000014,576,0,1447180806096,1447180806593,869,497,0,0,0,3,4,1,7,0002-00-0001-20.png,0004-00-0000-23.png
00000014,577,1,1447180809776,1447180810287,421,461,0,0,0,3,4,1,7,0002-00-0000-94.png,0004-00-0000-61.png
00000014,578,0,1447180811763,1447180812251,368,445,0,0,0,3,2,1,5,0002-00-0001-66.png,0003-00-0000-48.png
00000014,579,1,1447180816485,1447180816980,900,423,0,0,0,1,0,1,1,0005-00-0001-39.png,0001-00-0000-47.png
00000014,580,0,1447180818143,1447180818857,861,424,0,0,0,2,3,1,5,0003-00-0000-65.png,0002-00-0001-49.png
00000014,581,1,1447180821722,1447180822452,919,365,0,0,0,4,3,1,7,0004-00-0000-38.png,0002-00-0001-91.png
00000014,582,1,1447180823539,1447180823954,395,449,0,0,0,0,1,1,1,0001-00-0000-58.png,0005-00-0000-91.png
00000014,583,1,1447180826850,1447180827255,368,481,0,0,0,1,2,1,3,0005-00-0000-14.png,0003-00-0000-85.png
00000014,584,1,1447180828370,1447180829006,862,421,0,0,0,2,1,1,3,0003-00-0001-58.png,0005-00-0001-58.png
00000014,585,1,1447180830587,1447180831056,389,496,0,0,0,0,1,1,1,0001-00-0001-26.png,0005-00-0001-47.png
00000014,586,1,1447180832415,1447180833488,440,410,0,0,0,1,2,1,3,0005-00-0000-24.png,0003-00-0000-53.png
00000014,587,1,1447180834972,1447180835512,877,442,0,0,0,1,0,1,1,0005-00-0000-54.png,0001-00-0000-31.png
00000014,588,0,1447180836796,1447180837280,872,457,0,0,0,3,4,1,7,0002-00-0000-32.png,0004-00-0001-87.png
00000014,589,0,1447180840791,1447180841287,904,401,0,0,0,2,3,1,5,0003-00-0001-09.png,0002-00-0001-85.png
00000014,590,1,1447180844409,1447180844979,876,466,0,0,0,2,1,1,3,0003-00-0001-87.png,0005-00-0001-58.png
00000014,591,0,1447180846297,1447180847402,414,423,0,0,0,3,2,1,5,0002-00-0001-54.png,0003-00-0000-41.png
00000014,592,1,1447180850624,1447180851062,888,501,0,0,0,4,3,1,7,0004-00-0000-18.png,0002-00-0000-78.png
00000014,593,0,1447180852124,1447180852649,862,449,0,0,0,0,1,1,1,0001-00-0000-02.png,0005-00-0001-16.png
00000014,594,1,1447180856694,1447180857108,421,437,0,0,0,1,2,1,3,0005-00-0000-64.png,0003-00-0000-33.png
00000014,595,0,1447180858295,1447180858714,325,436,0,0,0,3,2,1,5,0002-00-0001-21.png,0003-00-0001-62.png
00000014,596,1,1447180861933,1447180862401,913,372,0,0,0,2,1,1,3,0003-00-0001-83.png,0005-00-0000-74.png
00000014,597,1,1447180863465,1447180864054,885,431,0,0,0,1,0,1,1,0005-00-0001-84.png,0001-00-0000-29.png
00000014,598,0,1447180865114,1447180865682,893,433,0,0,0,3,4,1,7,0002-00-0001-41.png,0004-00-0001-25.png
00000014,599,1,1447180868891,1447180869291,387,434,0,0,0,2,3,1,5,0003-00-0001-94.png,0002-00-0000-13.png
00000014,600,1,1447180870381,1447180870878,875,423,0,0,0,4,3,1,7,0004-00-0000-85.png,0002-00-0000-61.png
00000014,601,1,1447180871985,1447180872425,401,488,0,0,0,1,2,1,3,0005-00-0001-63.png,0003-00-0001-34.png
00000014,602,0,1447180873513,1447180874036,869,482,0,0,0,3,4,1,7,0002-00-0001-32.png,0004-00-0000-52.png
00000014,603,1,1447180877137,1447180877632,884,396,0,0,0,4,3,1,7,0004-00-0000-87.png,0002-00-0000-40.png
00000014,604,0,1447180878691,1447180879236,886,458,0,0,0,0,1,1,1,0001-00-0000-52.png,0005-00-0001-52.png
00000014,605,0,1447180882388,1447180882821,900,408,0,0,0,2,3,1,5,0003-00-0000-18.png,0002-00-0001-51.png
00000014,606,0,1447180886732,1447180887644,409,445,0,0,0,1,0,1,1,0005-00-0001-33.png,0001-00-0000-30.png
00000014,607,1,1447180890828,1447180891289,878,459,0,0,0,2,1,1,3,0003-00-0001-67.png,0005-00-0001-48.png
00000014,608,0,1447180892416,1447180892863,450,470,0,0,0,3,2,1,5,0002-00-0001-26.png,0003-00-0000-33.png
00000014,609,1,1447180896660,1447180897086,877,492,0,0,0,4,3,1,7,0004-00-0000-46.png,0002-00-0000-55.png
00000014,610,0,1447180898160,1447180898998,905,401,0,0,0,0,1,1,1,0001-00-0001-95.png,0005-00-0001-97.png
00000014,611,0,1447180901948,1447180902589,401,358,0,0,0,2,1,1,3,0003-00-0000-82.png,0005-00-0000-02.png
00000014,612,0,1447180905584,1447180906014,379,418,0,0,0,3,2,1,5,0002-00-0000-15.png,0003-00-0000-97.png
00000014,613,1,1447180910305,1447180910803,360,380,0,0,0,1,2,1,3,0005-00-0001-10.png,0003-00-0000-24.png
00000014,614,1,1447180911935,1447180912520,882,447,0,0,0,1,0,1,1,0005-00-0000-47.png,0001-00-0000-03.png
00000014,615,1,1447180913636,1447180914153,376,462,0,0,0,3,4,1,7,0002-00-0000-67.png,0004-00-0001-95.png
00000014,616,0,1447180915338,1447180915862,878,441,0,0,0,2,3,1,5,0003-00-0001-54.png,0002-00-0001-48.png
00000014,617,0,1447180918921,1447180919336,872,509,0,0,0,3,4,1,7,0002-00-0001-00.png,0004-00-0001-19.png
00000014,618,1,1447180922859,1447180923393,383,397,0,0,0,0,1,1,1,0001-00-0001-22.png,0005-00-0000-47.png
00000014,619,1,1447180924644,1447180925170,892,443,0,0,0,3,2,1,5,0002-00-0000-67.png,0003-00-0001-02.png
00000014,620,0,1447180926335,1447180926974,869,472,0,0,0,2,3,1,5,0003-00-0000-99.png,0002-00-0000-53.png
00000014,621,1,1447180930266,1447180930675,413,462,0,0,0,1,2,1,3,0005-00-0000-68.png,0003-00-0000-49.png
00000014,622,1,1447180931740,1447180932218,900,450,0,0,0,1,0,1,1,0005-00-0001-61.png,0001-00-0000-66.png
00000014,623,0,1447180933226,1447180934244,446,420,0,0,0,2,1,1,3,0003-00-0000-99.png,0005-00-0001-31.png
00000014,624,1,1447180940230,1447180940736,927,442,0,0,0,4,3,1,7,0004-00-0000-27.png,0002-00-0000-62.png
00000014,625,1,1447180941813,1447180942389,900,437,0,0,0,1,0,1,1,0005-00-0000-80.png,0001-00-0000-85.png
00000014,626,0,1447180943373,1447180943827,376,476,0,0,0,4,3,1,7,0004-00-0000-64.png,0002-00-0001-14.png
00000014,627,0,1447180946948,1447180947442,925,411,0,0,0,0,1,1,1,0001-00-0000-44.png,0005-00-0001-26.png
00000014,628,0,1447180950688,1447180951138,915,443,0,0,0,2,3,1,5,0003-00-0001-71.png,0002-00-0001-26.png
00000014,629,1,1447180954343,1447180954756,900,397,0,0,0,2,1,1,3,0003-00-0001-37.png,0005-00-0000-57.png
00000014,630,1,1447180955815,1447180957087,401,319,0,0,0,1,2,1,3,0005-00-0001-72.png,0003-00-0001-58.png
00000014,631,0,1447180958568,1447180959371,870,472,0,0,0,3,4,1,7,0002-00-0001-44.png,0004-00-0001-38.png
00000014,632,0,1447180962551,1447180963072,344,413,0,0,0,3,2,1,5,0002-00-0001-46.png,0003-00-0000-33.png
00000014,633,1,1447180967671,1447180968121,904,411,0,0,0,3,2,1,5,0002-00-0001-47.png,0003-00-0001-61.png
00000014,634,1,1447180969160,1447180969661,895,420,0,0,0,2,1,1,3,0003-00-0001-39.png,0005-00-0001-15.png
00000014,635,1,1447180970718,1447180971156,401,436,0,0,0,0,1,1,1,0001-00-0000-25.png,0005-00-0001-20.png
00000014,636,1,1447180972284,1447180973103,487,406,0,0,0,2,3,1,5,0003-00-0001-04.png,0002-00-0001-43.png
00000014,637,1,1447180974163,1447180974987,382,403,0,0,0,1,2,1,3,0005-00-0000-52.png,0003-00-0000-73.png
00000014,638,0,1447180976057,1447180976682,872,483,0,0,0,3,4,1,7,0002-00-0000-74.png,0004-00-0001-38.png
00000014,639,0,1447180980320,1447180980802,420,462,0,0,0,4,3,1,7,0004-00-0000-84.png,0002-00-0000-97.png
00000014,640,1,1447180984139,1447180984624,877,492,0,0,0,1,0,1,1,0005-00-0000-26.png,0001-00-0000-03.png
00000014,641,0,1447180985781,1447180986360,886,419,0,0,0,2,3,1,5,0003-00-0000-37.png,0002-00-0001-29.png
00000014,642,0,1447180989417,1447180989912,926,371,0,0,0,3,4,1,7,0002-00-0001-19.png,0004-00-0001-76.png
00000014,643,1,1447180993572,1447180994106,906,402,0,0,0,4,3,1,7,0004-00-0000-74.png,0002-00-0001-18.png
00000014,644,0,1447180995253,1447180995882,343,384,0,0,0,3,2,1,5,0002-00-0000-42.png,0003-00-0001-10.png
00000014,645,0,1447180999568,1447181000093,875,410,0,0,0,0,1,1,1,0001-00-0000-12.png,0005-00-0000-95.png
00000014,646,1,1447181003262,1447181003720,393,454,0,0,0,1,2,1,3,0005-00-0000-59.png,0003-00-0001-53.png
00000014,647,1,1447181004853,1447181005367,900,474,0,0,0,1,0,1,1,0005-00-0001-86.png,0001-00-0001-84.png
00000014,648,1,1447181006570,1447181007009,895,470,0,0,0,2,1,1,3,0003-00-0001-49.png,0005-00-0000-91.png
00000014,649,1,1447181008064,1447181008664,880,418,0,0,0,4,3,1,7,0004-00-0000-27.png,0002-00-0000-05.png
00000014,650,1,1447181009825,1447181010295,370,464,0,0,0,1,2,1,3,0005-00-0000-12.png,0003-00-0001-53.png
00000014,651,1,1447181011431,1447181012376,453,518,0,0,0,3,4,1,7,0002-00-0000-13.png,0004-00-0000-30.png
00000014,652,0,1447181013531,1447181014015,370,452,0,0,0,3,2,1,5,0002-00-0001-98.png,0003-00-0001-66.png
00000014,653,1,1447181017606,1447181018019,894,393,0,0,0,2,1,1,3,0003-00-0000-47.png,0005-00-0000-58.png
00000014,654,1,1447181019277,1447181019700,338,462,0,0,0,0,1,1,1,0001-00-0001-64.png,0005-00-0000-23.png
00000014,655,1,1447181020767,1447181021730,289,514,0,0,0,2,3,1,5,0003-00-0000-36.png,0002-00-0001-88.png
00000014,656,0,1447181022734,1447181023143,373,458,0,0,0,1,0,1,1,0005-00-0001-16.png,0001-00-0000-53.png
00000014,657,0,1447181026184,1447181026644,887,398,0,0,0,3,4,1,7,0002-00-0000-66.png,0004-00-0000-25.png
00000014,658,0,1447181029751,1447181030330,401,462,0,0,0,4,3,1,7,0004-00-0001-63.png,0002-00-0000-93.png
00000014,659,1,1447181033698,1447181034191,880,347,0,0,0,1,0,1,1,0005-00-0000-35.png,0001-00-0001-30.png
00000014,660,0,1447181035498,1447181036154,899,384,0,0,0,1,2,1,3,0005-00-0000-02.png,0003-00-0000-71.png
00000014,661,1,1447181039241,1447181039814,952,436,0,0,0,2,1,1,3,0003-00-0001-23.png,0005-00-0000-41.png
00000014,662,1,1447181040852,1447181041345,417,560,0,0,0,0,1,1,1,0001-00-0000-50.png,0005-00-0000-85.png
00000014,663,1,1447181042473,1447181043313,463,380,0,0,0,2,3,1,5,0003-00-0001-72.png,0002-00-0000-48.png
00000014,664,0,1447181044310,1447181045406,401,398,0,0,0,3,2,1,5,0002-00-0001-53.png,0003-00-0001-18.png
00000014,665,1,1447181048668,1447181049234,929,363,0,0,0,1,0,1,1,0005-00-0000-80.png,0001-00-0000-01.png
00000014,666,1,1447181050415,1447181051534,460,470,0,0,0,2,3,1,5,0003-00-0000-71.png,0002-00-0000-41.png
00000014,667,1,1447181052698,1447181053228,863,450,0,0,0,4,3,1,7,0004-00-0000-65.png,0002-00-0001-72.png
00000014,668,1,1447181054430,1447181055042,452,414,0,0,0,0,1,1,1,0001-00-0001-07.png,0005-00-0001-21.png
00000014,669,1,1447181056247,1447181057312,350,368,0,0,0,3,4,1,7,0002-00-0001-26.png,0004-00-0001-71.png
00000014,670,0,1447181059472,1447181059945,368,453,0,0,0,3,2,1,5,0002-00-0000-05.png,0003-00-0001-97.png
00000014,671,1,1447181062858,1447181063273,380,393,0,0,0,1,2,1,3,0005-00-0001-15.png,0003-00-0000-55.png
00000014,672,0,1447181064448,1447181065359,398,396,0,0,0,2,1,1,3,0003-00-0001-94.png,0005-00-0001-23.png
00000014,673,1,1447181068277,1447181068789,901,423,0,0,0,1,0,1,1,0005-00-0000-01.png,0001-00-0000-15.png
00000014,674,1,1447181069827,1447181070490,879,402,0,0,0,3,2,1,5,0002-00-0001-49.png,0003-00-0001-40.png
00000014,675,1,1447181071734,1447181072134,387,467,0,0,0,0,1,1,1,0001-00-0000-21.png,0005-00-0001-00.png
00000014,676,1,1447181073742,1447181074193,901,461,0,0,0,2,1,1,3,0003-00-0001-04.png,0005-00-0000-88.png
00000014,677,0,1447181075352,1447181077904,864,319,0,0,0,2,3,1,5,0003-00-0001-69.png,0002-00-0000-45.png
00000014,678,1,1447181081949,1447181082387,862,476,0,0,0,4,3,1,7,0004-00-0000-94.png,0002-00-0001-15.png
00000014,679,1,1447181083671,1447181084165,427,555,0,0,0,1,2,1,3,0005-00-0000-07.png,0003-00-0001-89.png
00000014,680,0,1447181085400,1447181086388,901,384,0,0,0,3,4,1,7,0002-00-0001-10.png,0004-00-0001-98.png
00000014,681,1,1447181089881,1447181090574,882,472,0,0,0,2,1,1,3,0003-00-0000-79.png,0005-00-0001-14.png
00000014,682,0,1447181091729,1447181092221,874,540,0,0,0,2,3,1,5,0003-00-0001-34.png,0002-00-0000-78.png
00000014,683,0,1447181095459,1447181095962,902,501,0,0,0,1,2,1,3,0005-00-0001-68.png,0003-00-0000-87.png
00000014,684,1,1447181099136,1447181099563,857,488,0,0,0,1,0,1,1,0005-00-0000-52.png,0001-00-0000-04.png
00000014,685,1,1447181100764,1447181101728,420,409,0,0,0,3,4,1,7,0002-00-0001-28.png,0004-00-0000-94.png
00000014,686,1,1447181102792,1447181103691,453,398,0,0,0,0,1,1,1,0001-00-0001-50.png,0005-00-0001-54.png
00000014,687,0,1447181104859,1447181105272,419,454,0,0,0,3,2,1,5,0002-00-0000-52.png,0003-00-0001-65.png
00000014,688,1,1447181108840,1447181109396,888,423,0,0,0,4,3,1,7,0004-00-0001-18.png,0002-00-0001-34.png
00000014,689,0,1447181110403,1447181110928,879,427,0,0,0,2,3,1,5,0003-00-0001-90.png,0002-00-0001-44.png
00000014,690,1,1447181114151,1447181114662,904,428,0,0,0,3,2,1,5,0002-00-0001-63.png,0003-00-0001-96.png
00000014,691,1,1447181116496,1447181116946,868,508,0,0,0,4,3,1,7,0004-00-0000-18.png,0002-00-0000-37.png
00000014,692,1,1447181118137,1447181118620,876,539,0,0,0,1,0,1,1,0005-00-0000-04.png,0001-00-0000-30.png
00000014,693,1,1447181119927,1447181120343,360,479,0,0,0,0,1,1,1,0001-00-0000-18.png,0005-00-0000-58.png
00000014,694,1,1447181121497,1447181122585,401,408,0,0,0,3,4,1,7,0002-00-0001-70.png,0004-00-0001-81.png
00000014,695,1,1447181123721,1447181124167,873,457,0,0,0,2,1,1,3,0003-00-0000-77.png,0005-00-0001-77.png
00000014,696,1,1447181125848,1447181126336,421,452,0,0,0,1,2,1,3,0005-00-0001-39.png,0003-00-0001-69.png
00000014,697,1,1447181127520,1447181127912,418,480,0,0,0,1,2,1,3,0005-00-0000-64.png,0003-00-0000-33.png
00000014,698,0,1447181129092,1447181129505,410,471,0,0,0,4,3,1,7,0004-00-0001-41.png,0002-00-0001-67.png
00000014,699,1,1447181133644,1447181134097,876,538,0,0,0,2,1,1,3,0003-00-0000-82.png,0005-00-0001-25.png
00000014,700,1,1447181135159,1447181136064,421,391,0,0,0,3,4,1,7,0002-00-0001-57.png,0004-00-0000-25.png
00000014,701,0,1447181137272,1447181138292,901,385,0,0,0,2,3,1,5,0003-00-0001-02.png,0002-00-0000-61.png
00000014,702,0,1447181141733,1447181142375,341,384,0,0,0,3,2,1,5,0002-00-0000-38.png,0003-00-0001-72.png
00000014,703,1,1447181145331,1447181145805,922,446,0,0,0,1,0,1,1,0005-00-0000-24.png,0001-00-0001-42.png
00000014,704,1,1447181146882,1447181147348,381,481,0,0,0,0,1,1,1,0001-00-0000-85.png,0005-00-0000-67.png
00000014,705,0,1447181148651,1447181149137,387,483,0,0,0,2,1,1,3,0003-00-0000-44.png,0005-00-0001-43.png
00000014,706,1,1447181152090,1447181152591,936,400,0,0,0,4,3,1,7,0004-00-0001-37.png,0002-00-0000-22.png
00000014,707,1,1447181153720,1447181154156,422,489,0,0,0,3,4,1,7,0002-00-0000-71.png,0004-00-0000-34.png
00000014,708,0,1447181155329,1447181155882,891,452,0,0,0,2,3,1,5,0003-00-0000-29.png,0002-00-0001-56.png
00000014,709,0,1447181158857,1447181160002,337,388,0,0,0,3,2,1,5,0002-00-0000-94.png,0003-00-0001-93.png
00000014,710,1,1447181163112,1447181163655,874,430,0,0,0,1,0,1,1,0005-00-0000-28.png,0001-00-0000-24.png
00000014,711,0,1447181164843,1447181165412,875,488,0,0,0,1,2,1,3,0005-00-0000-91.png,0003-00-0000-89.png
00000014,712,1,1447181168871,1447181169292,396,398,0,0,0,0,1,1,1,0001-00-0001-09.png,0005-00-0000-74.png
00000014,713,0,1447181170817,1447181171338,900,463,0,0,0,3,4,1,7,0002-00-0000-97.png,0004-00-0001-54.png
00000014,714,1,1447181175843,1447181176350,878,400,0,0,0,4,3,1,7,0004-00-0001-48.png,0002-00-0000-39.png
00000014,715,1,1447181177452,1447181177954,895,446,0,0,0,3,2,1,5,0002-00-0000-19.png,0003-00-0000-37.png
00000014,716,1,1447181179441,1447181179926,326,427,0,0,0,0,1,1,1,0001-00-0001-53.png,0005-00-0001-47.png
00000014,717,0,1447181181103,1447181181658,872,431,0,0,0,1,2,1,3,0005-00-0001-09.png,0003-00-0001-50.png
00000014,718,0,1447181184681,1447181185631,396,431,0,0,0,2,1,1,3,0003-00-0001-53.png,0005-00-0000-77.png
00000014,719,0,1447181189441,1447181189900,932,427,0,0,0,2,3,1,5,0003-00-0001-25.png,0002-00-0000-01.png
00000014,720,1,1447181193155,1447181193585,927,408,0,0,0,1,0,1,1,0005-00-0000-30.png,0001-00-0001-94.png
00000014,721,0,1447181195136,1447181195905,900,434,0,0,0,0,1,1,1,0001-00-0000-01.png,0005-00-0000-89.png
00000014,722,1,1447181222882,1447181223349,971,401,0,0,0,2,1,1,3,0003-00-0001-55.png,0005-00-0001-60.png
00000014,723,0,1447181224502,1447181224968,920,470,0,0,0,2,3,1,5,0003-00-0000-47.png,0002-00-0000-73.png
00000014,724,0,1447181228189,1447181228611,873,384,0,0,0,3,4,1,7,0002-00-0000-60.png,0004-00-0001-11.png
00000014,725,1,1447181232194,1447181232638,924,404,0,0,0,4,3,1,7,0004-00-0000-47.png,0002-00-0000-88.png
00000014,726,1,1447181233854,1447181234503,901,383,0,0,0,3,2,1,5,0002-00-0001-80.png,0003-00-0001-93.png
00000014,727,1,1447181236038,1447181236498,369,427,0,0,0,1,2,1,3,0005-00-0001-12.png,0003-00-0001-91.png
00000014,728,1,1447181237670,1447181238326,857,447,0,0,0,1,0,1,1,0005-00-0001-90.png,0001-00-0001-77.png
00000014,729,1,1447181239649,1447181240130,874,437,0,0,0,1,0,1,1,0005-00-0001-78.png,0001-00-0001-79.png
00000014,730,1,1447181241279,1447181241797,376,462,0,0,0,1,2,1,3,0005-00-0000-27.png,0003-00-0000-42.png
00000014,731,1,1447181243015,1447181243513,875,436,0,0,0,3,2,1,5,0002-00-0001-78.png,0003-00-0000-49.png
00000014,732,0,1447181244795,1447181245286,469,506,0,0,0,4,3,1,7,0004-00-0000-79.png,0002-00-0000-97.png
00000014,733,0,1447181248796,1447181249861,400,420,0,0,0,2,1,1,3,0003-00-0000-51.png,0005-00-0000-24.png
00000014,734,0,1447181253349,1447181253818,868,506,0,0,0,3,4,1,7,0002-00-0000-53.png,0004-00-0001-16.png
00000014,735,1,1447181256772,1447181257346,373,394,0,0,0,0,1,1,1,0001-00-0000-27.png,0005-00-0000-29.png
00000014,736,1,1447181258428,1447181258847,401,436,0,0,0,2,3,1,5,0003-00-0001-07.png,0002-00-0000-87.png
00000014,737,1,1447181259953,1447181260468,884,443,0,0,0,1,0,1,1,0005-00-0001-36.png,0001-00-0000-87.png
00000014,738,0,1447181261842,1447181262333,919,460,0,0,0,3,4,1,7,0002-00-0000-97.png,0004-00-0001-78.png
00000014,739,1,1447181265569,1447181265990,383,460,0,0,0,0,1,1,1,0001-00-0000-66.png,0005-00-0000-03.png
00000014,740,0,1447181267090,1447181268066,391,380,0,0,0,3,2,1,5,0002-00-0000-05.png,0003-00-0001-92.png
00000014,741,1,1447181271173,1447181271857,445,406,0,0,0,1,2,1,3,0005-00-0001-17.png,0003-00-0001-77.png
00000014,742,1,1447181272833,1447181273435,875,438,0,0,0,2,1,1,3,0003-00-0000-10.png,0005-00-0001-29.png
00000014,743,0,1447181274647,1447181275068,390,469,0,0,0,4,3,1,7,0004-00-0001-77.png,0002-00-0000-47.png
00000014,744,0,1447181278290,1447181278743,879,403,0,0,0,2,3,1,5,0003-00-0000-62.png,0002-00-0000-81.png
00000014,745,1,1447181281937,1447181282399,903,390,0,0,0,2,1,1,3,0003-00-0000-18.png,0005-00-0001-27.png
00000014,746,0,1447181283805,1447181284237,325,450,0,0,0,4,3,1,7,0004-00-0001-99.png,0002-00-0001-69.png
00000014,747,0,1447181287711,1447181288143,885,438,0,0,0,2,3,1,5,0003-00-0000-45.png,0002-00-0000-03.png
00000014,748,0,1447181291410,1447181291970,371,331,0,0,0,3,2,1,5,0002-00-0001-79.png,0003-00-0000-59.png
00000014,749,1,1447181295510,1447181295931,377,467,0,0,0,0,1,1,1,0001-00-0001-91.png,0005-00-0000-25.png
00000014,750,1,1447181297002,1447181297491,902,441,0,0,0,1,0,1,1,0005-00-0000-23.png,0001-00-0001-69.png
00000014,751,1,1447181298762,1447181299302,376,462,0,0,0,1,2,1,3,0005-00-0001-84.png,0003-00-0000-90.png
00000014,752,1,1447181300691,1447181301096,400,496,0,0,0,3,4,1,7,0002-00-0001-86.png,0004-00-0000-72.png
00000014,753,0,1447181302312,1447181302774,363,508,0,0,0,3,2,1,5,0002-00-0000-53.png,0003-00-0001-62.png
00000014,754,1,1447181305981,1447181306402,876,415,0,0,0,1,0,1,1,0005-00-0001-03.png,0001-00-0000-85.png
00000014,755,1,1447181307481,1447181308020,876,460,0,0,0,2,1,1,3,0003-00-0001-41.png,0005-00-0001-26.png
00000014,756,1,1447181309102,1447181309587,403,469,0,0,0,3,4,1,7,0002-00-0000-18.png,0004-00-0000-91.png
00000014,757,1,1447181310621,1447181311116,427,464,0,0,0,1,2,1,3,0005-00-0000-06.png,0003-00-0000-45.png
00000014,758,1,1447181312374,1447181312760,416,468,0,0,0,0,1,1,1,0001-00-0000-40.png,0005-00-0000-77.png
00000014,759,0,1447181313921,1447181314806,878,400,0,0,0,2,3,1,5,0003-00-0001-29.png,0002-00-0001-70.png
00000014,760,1,1447181318306,1447181318922,874,449,0,0,0,4,3,1,7,0004-00-0001-25.png,0002-00-0001-70.png
00000014,761,0,1447181320234,1447181320754,869,524,0,0,0,2,3,1,5,0003-00-0001-20.png,0002-00-0001-80.png
00000014,762,1,1447181325480,1447181326006,883,418,0,0,0,4,3,1,7,0004-00-0000-42.png,0002-00-0001-09.png
00000014,763,0,1447181327203,1447181327653,375,488,0,0,0,3,2,1,5,0002-00-0001-29.png,0003-00-0000-09.png
00000014,764,1,1447181330945,1447181331471,348,386,0,0,0,1,2,1,3,0005-00-0001-16.png,0003-00-0001-17.png
00000014,765,0,1447181332757,1447181333240,901,438,0,0,0,3,4,1,7,0002-00-0001-25.png,0004-00-0000-68.png
00000014,766,1,1447181336155,1447181336693,902,398,0,0,0,2,1,1,3,0003-00-0000-25.png,0005-00-0001-20.png
00000014,767,1,1447181337987,1447181338479,883,394,0,0,0,1,0,1,1,0005-00-0000-67.png,0001-00-0001-67.png
00000014,768,1,1447181339681,1447181340099,350,474,0,0,0,0,1,1,1,0001-00-0001-33.png,0005-00-0001-21.png
00000014,769,1,1447181341701,1447181342125,901,435,0,0,0,1,0,1,1,0005-00-0001-20.png,0001-00-0001-43.png
00000014,770,1,1447181343283,1447181343816,875,461,0,0,0,2,1,1,3,0003-00-0000-38.png,0005-00-0001-87.png
00000014,771,1,1447181345071,1447181345557,395,514,0,0,0,1,2,1,3,0005-00-0001-69.png,0003-00-0001-97.png
00000014,772,0,1447181346791,1447181347830,874,489,0,0,0,0,1,1,1,0001-00-0000-43.png,0005-00-0000-59.png
00000014,773,1,1447181351004,1447181351537,334,385,0,0,0,3,4,1,7,0002-00-0000-46.png,0004-00-0001-39.png
00000014,774,0,1447181352676,1447181353262,875,397,0,0,0,2,3,1,5,0003-00-0000-68.png,0002-00-0000-83.png
00000014,775,1,1447181356473,1447181356933,892,416,0,0,0,3,2,1,5,0002-00-0000-24.png,0003-00-0001-13.png
00000014,776,0,1447181358040,1447181358483,364,469,0,0,0,4,3,1,7,0004-00-0001-46.png,0002-00-0001-40.png
00000014,777,1,1447181361722,1447181362205,432,429,0,0,0,3,4,1,7,0002-00-0001-57.png,0004-00-0001-76.png
00000014,778,0,1447181363380,1447181363800,364,450,0,0,0,3,2,1,5,0002-00-0000-58.png,0003-00-0000-84.png
00000014,779,0,1447181366718,1447181367811,370,382,0,0,0,1,0,1,1,0005-00-0000-22.png,0001-00-0001-14.png
00000014,780,1,1447181371523,1447181371935,362,436,0,0,0,0,1,1,1,0001-00-0001-99.png,0005-00-0000-61.png
00000014,781,0,1447181373429,1447181373933,901,436,0,0,0,2,3,1,5,0003-00-0001-73.png,0002-00-0001-14.png
00000014,782,1,1447181378536,1447181378997,898,456,0,0,0,2,1,1,3,0003-00-0000-76.png,0005-00-0000-31.png
00000014,783,1,1447181380066,1447181380555,875,461,0,0,0,4,3,1,7,0004-00-0000-61.png,0002-00-0000-15.png
00000014,784,0,1447181381725,1447181382326,879,402,0,0,0,1,2,1,3,0005-00-0001-38.png,0003-00-0001-99.png
00000014,785,0,1447181385545,1447181385950,900,449,0,0,0,1,2,1,3,0005-00-0000-02.png,0003-00-0000-17.png
00000014,786,1,1447181389274,1447181389719,870,550,0,0,0,2,1,1,3,0003-00-0000-41.png,0005-00-0000-48.png
00000014,787,0,1447181390781,1447181391284,878,442,0,0,0,2,3,1,5,0003-00-0000-04.png,0002-00-0001-56.png
00000014,788,1,1447181394504,1447181395341,370,357,0,0,0,3,4,1,7,0002-00-0000-88.png,0004-00-0001-61.png
00000014,789,1,1447181396516,1447181397486,900,397,0,0,0,1,0,1,1,0005-00-0001-53.png,0001-00-0001-31.png
00000014,790,0,1447181398571,1447181399010,393,497,0,0,0,4,3,1,7,0004-00-0001-60.png,0002-00-0000-42.png
00000014,791,1,1447181402230,1447181402661,901,384,0,0,0,3,2,1,5,0002-00-0000-86.png,0003-00-0001-50.png
00000014,792,1,1447181404051,1447181404477,394,479,0,0,0,0,1,1,1,0001-00-0001-94.png,0005-00-0000-75.png
00000014,793,0,1447181405611,1447181406053,468,520,0,0,0,3,2,1,5,0002-00-0001-05.png,0003-00-0001-78.png
00000014,794,1,1447181408979,1447181409400,413,429,0,0,0,1,2,1,3,0005-00-0001-55.png,0003-00-0001-90.png
00000014,795,1,1447181410629,1447181411132,868,524,0,0,0,4,3,1,7,0004-00-0001-77.png,0002-00-0001-38.png
00000014,796,1,1447181412307,1447181413132,471,401,0,0,0,3,4,1,7,0002-00-0001-01.png,0004-00-0001-15.png
00000014,797,1,1447181414538,1447181415009,881,445,0,0,0,1,0,1,1,0005-00-0001-90.png,0001-00-0000-19.png
00000014,798,0,1447181416286,1447181416812,884,443,0,0,0,2,3,1,5,0003-00-0001-48.png,0002-00-0001-62.png
00000014,799,1,1447181419792,1447181420292,886,420,0,0,0,2,1,1,3,0003-00-0000-38.png,0005-00-0000-33.png
00000014,800,1,1447181421503,1447181421951,350,455,0,0,0,0,1,1,1,0001-00-0001-18.png,0005-00-0000-01.png
00000014,801,0,1447181423096,1447181423528,427,462,0,0,0,2,1,1,3,0003-00-0001-46.png,0005-00-0001-98.png
00000014,802,1,1447181426582,1447181427078,925,413,0,0,0,1,0,1,1,0005-00-0001-02.png,0001-00-0000-96.png
00000014,803,1,1447181428234,1447181429148,409,406,0,0,0,2,3,1,5,0003-00-0001-89.png,0002-00-0000-29.png
00000014,804,1,1447181430339,1447181430744,445,505,0,0,0,1,2,1,3,0005-00-0001-94.png,0003-00-0000-68.png
00000014,805,1,1447181432160,1447181432641,311,472,0,0,0,0,1,1,1,0001-00-0001-35.png,0005-00-0001-77.png
00000014,806,0,1447181433779,1447181434181,354,484,0,0,0,3,2,1,5,0002-00-0000-89.png,0003-00-0000-16.png
00000014,807,0,1447181437208,1447181437689,389,436,0,0,0,4,3,1,7,0004-00-0001-54.png,0002-00-0000-77.png
00000014,808,0,1447181445154,1447181445590,894,420,0,0,0,3,4,1,7,0002-00-0001-11.png,0004-00-0001-99.png
00000014,809,1,1447181448882,1447181449440,900,437,0,0,0,2,1,1,3,0003-00-0001-39.png,0005-00-0000-41.png
00000014,810,0,1447181450524,1447181451197,406,359,0,0,0,3,2,1,5,0002-00-0000-64.png,0003-00-0000-39.png
00000014,811,0,1447181454529,1447181455043,931,402,0,0,0,0,1,1,1,0001-00-0000-48.png,0005-00-0001-93.png
00000014,812,1,1447181466186,1447181466657,901,466,0,0,0,1,0,1,1,0005-00-0001-14.png,0001-00-0000-99.png
00000014,813,0,1447181467939,1447181468573,923,469,0,0,0,3,4,1,7,0002-00-0000-17.png,0004-00-0001-91.png
00000014,814,1,1447181471614,1447181472161,355,376,0,0,0,2,3,1,5,0003-00-0000-71.png,0002-00-0001-04.png
00000014,815,0,1447181473286,1447181473761,344,460,0,0,0,4,3,1,7,0004-00-0001-06.png,0002-00-0000-35.png
00000014,816,1,1447181476673,1447181477078,346,419,0,0,0,1,2,1,3,0005-00-0001-14.png,0003-00-0000-39.png
00000014,817,1,1447181478117,1447181478568,359,470,0,0,0,1,2,1,3,0005-00-0000-65.png,0003-00-0000-21.png
00000014,818,1,1447181479705,1447181480553,392,414,0,0,0,3,4,1,7,0002-00-0001-16.png,0004-00-0000-58.png
00000014,819,0,1447181481757,1447181482498,874,413,0,0,0,2,3,1,5,0003-00-0001-27.png,0002-00-0001-16.png
00000014,820,0,1447181485454,1447181485934,408,532,0,0,0,3,2,1,5,0002-00-0000-26.png,0003-00-0001-48.png
00000014,821,1,1447181489373,1447181489980,858,445,0,0,0,4,3,1,7,0004-00-0001-06.png,0002-00-0000-40.png
00000014,822,1,1447181491128,1447181491768,857,469,0,0,0,2,1,1,3,0003-00-0001-99.png,0005-00-0000-81.png
00000014,823,0,1447181493343,1447181493808,411,435,0,0,0,1,0,1,1,0005-00-0001-79.png,0001-00-0000-02.png
00000014,824,1,1447181496779,1447181497193,376,462,0,0,0,0,1,1,1,0001-00-0001-61.png,0005-00-0000-43.png
00000014,825,0,1447181498283,1447181498702,453,502,0,0,0,3,2,1,5,0002-00-0001-51.png,0003-00-0000-99.png
00000014,826,1,1447181502677,1447181503202,899,386,0,0,0,4,3,1,7,0004-00-0000-22.png,0002-00-0001-31.png
00000014,827,1,1447181504436,1447181505004,898,543,0,0,0,2,1,1,3,0003-00-0001-09.png,0005-00-0000-98.png
00000014,828,0,1447181506096,1447181506605,901,462,0,0,0,0,1,1,1,0001-00-0001-83.png,0005-00-0001-77.png
00000014,829,0,1447181509703,1447181510138,915,449,0,0,0,3,4,1,7,0002-00-0001-70.png,0004-00-0001-47.png
00000014,830,1,1447181513509,1447181514136,372,383,0,0,0,1,2,1,3,0005-00-0000-57.png,0003-00-0000-53.png
00000014,831,1,1447181515265,1447181515660,365,468,0,0,0,2,3,1,5,0003-00-0001-36.png,0002-00-0001-40.png
00000014,832,1,1447181516779,1447181517278,905,444,0,0,0,1,0,1,1,0005-00-0000-63.png,0001-00-0001-13.png
00000014,833,1,1447181518407,1447181519082,869,472,0,0,0,2,1,1,3,0003-00-0001-75.png,0005-00-0001-66.png
00000014,834,1,1447181520175,1447181520638,894,455,0,0,0,1,0,1,1,0005-00-0000-71.png,0001-00-0000-81.png
00000014,835,1,1447181521898,1447181522291,409,471,0,0,0,3,4,1,7,0002-00-0000-46.png,0004-00-0001-44.png
00000014,836,1,1447181523450,1447181523863,388,478,0,0,0,0,1,1,1,0001-00-0000-68.png,0005-00-0000-47.png
00000014,837,0,1447181525156,1447181526230,413,450,0,0,0,4,3,1,7,0004-00-0001-69.png,0002-00-0001-49.png
00000014,838,0,1447181538779,1447181539218,862,488,0,0,0,2,3,1,5,0003-00-0001-46.png,0002-00-0001-78.png
00000014,839,1,1447181542561,1447181542981,906,427,0,0,0,3,2,1,5,0002-00-0000-88.png,0003-00-0000-79.png
00000014,840,1,1447181544099,1447181544498,385,451,0,0,0,1,2,1,3,0005-00-0000-96.png,0003-00-0001-17.png
00000014,841,0,1447181545540,1447181546017,902,441,0,0,0,2,3,1,5,0003-00-0000-37.png,0002-00-0001-23.png
00000014,842,1,1447181550997,1447181551416,876,422,0,0,0,1,0,1,1,0005-00-0001-31.png,0001-00-0001-92.png
00000014,843,1,1447181552406,1447181552794,427,502,0,0,0,3,4,1,7,0002-00-0000-18.png,0004-00-0000-30.png
00000014,844,1,1447181553749,1447181554235,879,480,0,0,0,2,1,1,3,0003-00-0001-91.png,0005-00-0001-27.png
00000014,845,0,1447181555213,1447181555611,359,491,0,0,0,4,3,1,7,0004-00-0001-42.png,0002-00-0001-13.png
00000014,846,0,1447181559901,1447181560307,890,419,0,0,0,0,1,1,1,0001-00-0001-54.png,0005-00-0000-91.png
00000014,847,1,1447181566342,1447181567232,366,380,0,0,0,1,2,1,3,0005-00-0000-70.png,0003-00-0001-46.png
00000014,848,0,1447181568322,1447181568713,340,490,0,0,0,3,2,1,5,0002-00-0000-69.png,0003-00-0000-16.png
00000014,849,1,1447181575895,1447181576362,342,392,0,0,0,1,2,1,3,0005-00-0000-31.png,0003-00-0001-48.png
00000014,850,1,1447181577358,1447181577806,452,465,0,0,0,2,3,1,5,0003-00-0001-79.png,0002-00-0001-10.png
00000014,851,1,1447181578836,1447181579300,872,497,0,0,0,1,0,1,1,0005-00-0001-06.png,0001-00-0000-22.png
00000014,852,0,1447181580326,1447181580733,412,465,0,0,0,3,2,1,5,0002-00-0000-93.png,0003-00-0000-56.png
00000014,853,1,1447181584641,1447181585077,401,447,0,0,0,0,1,1,1,0001-00-0001-50.png,0005-00-0000-76.png
00000014,854,1,1447181586168,1447181586608,878,442,0,0,0,2,1,1,3,0003-00-0001-20.png,0005-00-0001-59.png
00000014,855,0,1447181587776,1447181588323,887,467,0,0,0,3,4,1,7,0002-00-0000-58.png,0004-00-0000-24.png
00000014,856,0,1447181592388,1447181593226,341,407,0,0,0,4,3,1,7,0004-00-0001-40.png,0002-00-0000-79.png
00000014,857,1,1447181596385,1447181596754,453,470,0,0,0,1,2,1,3,0005-00-0001-98.png,0003-00-0001-40.png
00000014,858,1,1447181597778,1447181598284,452,462,0,0,0,0,1,1,1,0001-00-0001-58.png,0005-00-0001-15.png
00000014,859,0,1447181599660,1447181600156,925,438,0,0,0,2,3,1,5,0003-00-0000-05.png,0002-00-0001-23.png
00000014,860,1,1447181603555,1447181603997,907,426,0,0,0,2,1,1,3,0003-00-0001-50.png,0005-00-0001-67.png
00000014,861,0,1447181605155,1447181605552,417,486,0,0,0,3,2,1,5,0002-00-0000-90.png,0003-00-0001-37.png
00000014,862,1,1447181608703,1447181609327,898,409,0,0,0,4,3,1,7,0004-00-0000-08.png,0002-00-0001-41.png
00000014,863,1,1447181610463,1447181610941,902,466,0,0,0,1,0,1,1,0005-00-0000-75.png,0001-00-0001-13.png
00000014,864,1,1447181612004,1447181612538,389,478,0,0,0,3,4,1,7,0002-00-0001-83.png,0004-00-0000-59.png
00000014,865,1,1447181614011,1447181614632,903,400,0,0,0,4,3,1,7,0004-00-0000-14.png,0002-00-0000-15.png
00000014,866,0,1447181615762,1447181616247,469,458,0,0,0,2,1,1,3,0003-00-0000-67.png,0005-00-0000-41.png
00000014,867,0,1447181619620,1447181620090,874,527,0,0,0,2,3,1,5,0003-00-0001-31.png,0002-00-0001-43.png
00000014,868,1,1447181624178,1447181625034,376,424,0,0,0,1,2,1,3,0005-00-0000-39.png,0003-00-0001-02.png
00000014,869,0,1447181626167,1447181626637,469,535,0,0,0,3,2,1,5,0002-00-0000-63.png,0003-00-0000-55.png
00000014,870,0,1447181630293,1447181630751,868,414,0,0,0,3,4,1,7,0002-00-0000-41.png,0004-00-0000-76.png
00000014,871,1,1447181638352,1447181638736,938,424,0,0,0,1,0,1,1,0005-00-0001-49.png,0001-00-0000-38.png
00000014,872,1,1447181639923,1447181640326,350,474,0,0,0,0,1,1,1,0001-00-0001-86.png,0005-00-0001-35.png
00000014,873,1,1447181641525,1447181642115,380,431,0,0,0,3,4,1,7,0002-00-0000-41.png,0004-00-0001-32.png
00000014,874,1,1447181644496,1447181644900,369,459,0,0,0,0,1,1,1,0001-00-0001-14.png,0005-00-0001-49.png
00000014,875,1,1447181645987,1447181646472,880,453,0,0,0,2,1,1,3,0003-00-0001-83.png,0005-00-0001-73.png
00000014,876,1,1447181647519,1447181647909,376,475,0,0,0,1,2,1,3,0005-00-0000-42.png,0003-00-0000-54.png
00000014,877,1,1447181648999,1447181649398,439,502,0,0,0,2,3,1,5,0003-00-0000-51.png,0002-00-0001-03.png
00000014,878,1,1447181650638,1447181651142,886,451,0,0,0,4,3,1,7,0004-00-0000-62.png,0002-00-0000-94.png
00000014,879,1,1447181652289,1447181653291,874,474,0,0,0,1,0,1,1,0005-00-0000-20.png,0001-00-0001-26.png
00000014,880,0,1447181654328,1447181654735,500,510,0,0,0,3,2,1,5,0002-00-0000-24.png,0003-00-0001-11.png
00000014,881,1,1447181658562,1447181658994,864,471,0,0,0,4,3,1,7,0004-00-0001-11.png,0002-00-0001-92.png
00000014,882,0,1447181660202,1447181660643,453,541,0,0,0,3,2,1,5,0002-00-0000-66.png,0003-00-0000-54.png
00000014,883,1,1447181679975,1447181681003,407,389,0,0,0,1,2,1,3,0005-00-0000-52.png,0003-00-0001-52.png
00000014,884,1,1447181682046,1447181682451,331,453,0,0,0,0,1,1,1,0001-00-0001-92.png,0005-00-0000-74.png
00000014,885,1,1447181683488,1447181684132,369,385,0,0,0,3,4,1,7,0002-00-0000-34.png,0004-00-0001-68.png
00000014,886,1,1447181685228,1447181685705,878,444,0,0,0,2,1,1,3,0003-00-0000-20.png,0005-00-0000-54.png
00000014,887,1,1447181686759,1447181687392,880,475,0,0,0,1,0,1,1,0005-00-0001-92.png,0001-00-0000-55.png
00000014,888,0,1447181688378,1447181688857,868,473,0,0,0,2,3,1,5,0003-00-0001-21.png,0002-00-0000-55.png
00000014,889,1,1447181695017,1447181695462,914,420,0,0,0,2,1,1,3,0003-00-0001-49.png,0005-00-0001-30.png
00000014,890,0,1447181696435,1447181697312,444,401,0,0,0,4,3,1,7,0004-00-0001-50.png,0002-00-0000-48.png
00000014,891,1,1447181700214,1447181700264,504,496,0,0,0,1,2,1,3,0005-00-0001-36.png,0003-00-0001-74.png
00000014,892,0,1447181701369,1447181701746,427,488,0,0,0,3,2,1,5,0002-00-0000-84.png,0003-00-0001-56.png
00000014,893,0,1447181709364,1447181709753,944,404,0,0,0,3,4,1,7,0002-00-0000-02.png,0004-00-0001-05.png
00000014,894,1,1447181720625,1447181721120,354,377,0,0,0,0,1,1,1,0001-00-0001-41.png,0005-00-0000-24.png
00000014,895,1,1447181722167,1447181722762,894,423,0,0,0,1,0,1,1,0005-00-0001-05.png,0001-00-0001-97.png
00000014,896,0,1447181723810,1447181724280,870,524,0,0,0,2,3,1,5,0003-00-0001-05.png,0002-00-0000-74.png
00000014,897,0,1447181727786,1447181728186,872,407,0,0,0,2,3,1,5,0003-00-0001-24.png,0002-00-0000-36.png
00000014,898,1,1447181736342,1447181736814,897,408,0,0,0,1,0,1,1,0005-00-0000-32.png,0001-00-0000-19.png
00000014,899,1,1447181737874,1447181738311,316,495,0,0,0,1,2,1,3,0005-00-0000-99.png,0003-00-0001-45.png
00000014,900,1,1447181739306,1447181739908,875,449,0,0,0,2,1,1,3,0003-00-0000-65.png,0005-00-0000-97.png
00000014,901,1,1447181740964,1447181741405,363,489,0,0,0,3,4,1,7,0002-00-0000-69.png,0004-00-0001-78.png
00000014,902,1,1447181742405,1447181742847,388,483,0,0,0,0,1,1,1,0001-00-0001-45.png,0005-00-0000-35.png
00000014,903,0,1447181743851,1447181744250,376,454,0,0,0,3,2,1,5,0002-00-0001-62.png,0003-00-0001-49.png
00000014,904,0,1447181747923,1447181749240,418,385,0,0,0,4,3,1,7,0004-00-0000-17.png,0002-00-0001-80.png
00000014,905,1,1447181753232,1447181753674,447,462,0,0,0,1,2,1,3,0005-00-0000-06.png,0003-00-0001-06.png
00000014,906,0,1447181754860,1447181755984,378,378,0,0,0,3,2,1,5,0002-00-0000-79.png,0003-00-0001-81.png
00000014,907,0,1447181776126,1447181776562,891,508,0,0,0,2,3,1,5,0003-00-0001-62.png,0002-00-0001-33.png
00000014,908,1,1447181784095,1447181784582,951,385,0,0,0,4,3,1,7,0004-00-0000-23.png,0002-00-0000-26.png
00000014,909,0,1447181785687,1447181786109,887,450,0,0,0,0,1,1,1,0001-00-0001-08.png,0005-00-0000-91.png
00000014,910,0,1447181789006,1447181789625,872,483,0,0,0,3,4,1,7,0002-00-0001-52.png,0004-00-0000-93.png
00000014,911,0,1447181803209,1447181809713,341,368,0,0,0,2,1,1,3,0003-00-0000-12.png,0005-00-0001-64.png
00000014,912,1,1447181831599,1447181831976,970,364,0,0,0,1,0,1,1,0005-00-0001-27.png,0001-00-0001-58.png
00000014,913,0,1447181833145,1447181833547,951,449,0,0,0,2,3,1,5,0003-00-0001-24.png,0002-00-0000-55.png
00000014,914,1,1447181848577,1447181848957,956,349,0,0,0,4,3,1,7,0004-00-0001-76.png,0002-00-0001-26.png
00000014,915,1,1447181850280,1447181850875,891,429,0,0,0,1,0,1,1,0005-00-0000-36.png,0001-00-0000-92.png
00000014,916,0,1447181852018,1447181852433,404,462,0,0,0,2,1,1,3,0003-00-0000-89.png,0005-00-0001-73.png
00000014,917,0,1447181856045,1447181856479,398,455,0,0,0,3,2,1,5,0002-00-0001-33.png,0003-00-0001-62.png
00000014,918,0,1447181860973,1447181861397,873,485,0,0,0,1,2,1,3,0005-00-0000-85.png,0003-00-0001-39.png
00000014,919,0,1447181864238,1447181864673,921,368,0,0,0,3,4,1,7,0002-00-0000-74.png,0004-00-0001-41.png
00000014,920,0,1447181868007,1447181868414,874,462,0,0,0,0,1,1,1,0001-00-0001-95.png,0005-00-0000-83.png
00000014,921,0,1447181874202,1447181874607,436,393,0,0,0,3,2,1,5,0002-00-0000-98.png,0003-00-0000-04.png
00000014,922,1,1447181878525,1447181878996,921,342,0,0,0,1,0,1,1,0005-00-0001-43.png,0001-00-0001-81.png
00000014,923,1,1447181880221,1447181880694,418,470,0,0,0,0,1,1,1,0001-00-0001-29.png,0005-00-0000-69.png
00000014,924,0,1447181881765,1447181882358,392,473,0,0,0,2,1,1,3,0003-00-0000-19.png,0005-00-0000-46.png
00000014,925,0,1447181886884,1447181887346,946,446,0,0,0,1,2,1,3,0005-00-0000-25.png,0003-00-0001-38.png
00000014,926,0,1447181891524,1447181891944,379,411,0,0,0,4,3,1,7,0004-00-0000-82.png,0002-00-0001-08.png
00000014,927,0,1447181898923,1447181899394,877,547,0,0,0,2,3,1,5,0003-00-0001-24.png,0002-00-0001-87.png
00000014,928,1,1447181904222,1447181904624,383,393,0,0,0,3,4,1,7,0002-00-0001-14.png,0004-00-0000-01.png
00000014,929,0,1447181906268,1447181906723,405,418,0,0,0,3,2,1,5,0002-00-0000-67.png,0003-00-0000-59.png
00000014,930,1,1447181924298,1447181924737,921,425,0,0,0,4,3,1,7,0004-00-0001-26.png,0002-00-0000-98.png
00000014,931,1,1447181926089,1447181926509,438,493,0,0,0,0,1,1,1,0001-00-0001-17.png,0005-00-0000-57.png
00000014,932,0,1447181927638,1447181928261,870,430,0,0,0,3,4,1,7,0002-00-0000-15.png,0004-00-0000-32.png
00000014,933,1,1447181933079,1447181933622,415,344,0,0,0,2,3,1,5,0003-00-0001-12.png,0002-00-0001-91.png
00000014,934,1,1447181934787,1447181935455,416,386,0,0,0,1,2,1,3,0005-00-0001-75.png,0003-00-0000-30.png
00000014,935,1,1447181936606,1447181937088,900,449,0,0,0,2,1,1,3,0003-00-0000-84.png,0005-00-0001-92.png
00000014,936,1,1447181938199,1447181938670,903,442,0,0,0,1,0,1,1,0005-00-0000-45.png,0001-00-0000-60.png
00000014,937,1,1447181939764,1447181940273,877,464,0,0,0,3,2,1,5,0002-00-0000-07.png,0003-00-0001-32.png
00000014,938,1,1447181941823,1447181942250,376,436,0,0,0,0,1,1,1,0001-00-0001-73.png,0005-00-0001-17.png
00000014,939,1,1447181943332,1447181943879,883,391,0,0,0,2,1,1,3,0003-00-0001-60.png,0005-00-0001-21.png
00000014,940,1,1447181944895,1447181945309,422,478,0,0,0,1,2,1,3,0005-00-0000-43.png,0003-00-0000-97.png
00000014,941,1,1447181946436,1447181946878,406,460,0,0,0,3,4,1,7,0002-00-0001-32.png,0004-00-0000-46.png
00000014,942,1,1447181948134,1447181948607,476,463,0,0,0,2,3,1,5,0003-00-0001-07.png,0002-00-0000-86.png
00000014,943,0,1447181949746,1447181950254,418,468,0,0,0,4,3,1,7,0004-00-0001-69.png,0002-00-0000-68.png
00000014,944,0,1447181961320,1447181961855,378,355,0,0,0,1,0,1,1,0005-00-0001-11.png,0001-00-0000-01.png
00000014,945,1,1447181964829,1447181965491,289,353,0,0,0,3,4,1,7,0002-00-0001-51.png,0004-00-0001-63.png
00000014,946,1,1447181966607,1447181967042,423,475,0,0,0,1,2,1,3,0005-00-0000-56.png,0003-00-0000-14.png
00000014,947,0,1447181968139,1447181968732,404,370,0,0,0,1,0,1,1,0005-00-0001-89.png,0001-00-0000-53.png
00000014,948,1,1447181971867,1447181972298,876,528,0,0,0,2,1,1,3,0003-00-0000-03.png,0005-00-0000-19.png
00000014,949,1,1447181973845,1447181974285,906,418,0,0,0,4,3,1,7,0004-00-0000-57.png,0002-00-0001-86.png
00000014,950,0,1447181975497,1447181976483,912,423,0,0,0,2,3,1,5,0003-00-0000-83.png,0002-00-0000-70.png
00000014,951,1,1447181985989,1447181986396,875,450,0,0,0,3,2,1,5,0002-00-0000-53.png,0003-00-0000-93.png
