subject_id,trial,correct_response,stim_time,response_time,x_coord,y_coord,trial_timeout,timeout_time,interTrial_timeout,left_rank,right_rank,distance,joint_rank,left_image,right_image
00000009,1,1,1446832100267,1446832101354,466,256,0,0,0,0,1,1,1,0001-00-0001-44.png,0005-00-0001-12.png
00000009,2,0,1446832102747,1446832102763,892,260,0,0,0,1,2,1,3,0005-00-0001-07.png,0003-00-0000-63.png
00000009,3,1,1446832105938,1446832106543,1039,332,0,0,0,3,2,1,5,0002-00-0000-83.png,0003-00-0000-34.png
00000009,4,1,1446832107626,1446832108248,379,387,0,0,0,3,4,1,7,0002-00-0001-37.png,0004-00-0000-11.png
00000009,5,1,1446832109524,1446832109528,871,258,0,0,0,4,3,1,7,0004-00-0000-01.png,0002-00-0001-10.png
00000009,6,1,1446832110770,1446832111611,940,355,0,0,0,2,1,1,3,0003-00-0001-38.png,0005-00-0000-88.png
00000009,7,0,1446832112536,1446832112560,898,357,0,0,0,2,3,1,5,0003-00-0001-47.png,0002-00-0000-58.png
00000009,8,1,1446832115741,1446832116336,1064,253,0,0,0,1,0,1,1,0005-00-0001-56.png,0001-00-0001-53.png
00000009,9,1,1446832117335,1446832118443,441,256,0,0,0,1,2,1,3,0005-00-0000-97.png,0003-00-0000-12.png
00000009,10,0,1446832119382,1446832120249,1043,246,0,0,0,2,3,1,5,0003-00-0001-61.png,0002-00-0001-45.png
00000009,11,0,1446832123444,1446832124136,474,276,0,0,0,4,3,1,7,0004-00-0000-13.png,0002-00-0000-03.png
00000009,12,1,1446832127232,1446832127753,960,361,0,0,0,2,1,1,3,0003-00-0000-62.png,0005-00-0001-03.png
00000009,13,0,1446832129095,1446832129169,900,408,0,0,0,0,1,1,1,0001-00-0000-14.png,0005-00-0000-94.png
00000009,14,0,1446832132349,1446832132565,932,292,0,0,0,3,4,1,7,0002-00-0000-36.png,0004-00-0000-96.png
00000009,15,1,1446832135567,1446832135608,954,327,0,0,0,1,0,1,1,0005-00-0000-57.png,0001-00-0001-20.png
00000009,16,1,1446832136513,1446832137508,1048,290,0,0,0,3,2,1,5,0002-00-0000-77.png,0003-00-0001-35.png
00000009,17,0,1446832138422,1446832138466,872,394,0,0,0,0,1,1,1,0001-00-0001-59.png,0005-00-0000-66.png
00000009,18,1,1446832141591,1446832142155,1062,280,0,0,0,2,1,1,3,0003-00-0001-77.png,0005-00-0000-09.png
00000009,19,1,1446832142992,1446832143734,936,328,0,0,0,4,3,1,7,0004-00-0000-35.png,0002-00-0000-73.png
00000009,20,1,1446832144662,1446832144718,898,390,0,0,0,3,2,1,5,0002-00-0001-07.png,0003-00-0001-88.png
00000009,21,1,1446832145948,1446832146643,379,374,0,0,0,3,4,1,7,0002-00-0001-42.png,0004-00-0001-12.png
00000009,22,0,1446832147583,1446832148488,1020,280,0,0,0,2,3,1,5,0003-00-0001-25.png,0002-00-0001-60.png
00000009,23,0,1446832151556,1446832152152,1052,300,0,0,0,1,2,1,3,0005-00-0000-36.png,0003-00-0001-02.png
00000009,24,1,1446832155195,1446832155790,964,346,0,0,0,1,0,1,1,0005-00-0000-90.png,0001-00-0000-31.png
00000009,25,0,1446832156706,1446832157087,953,529,0,0,0,0,1,1,1,0001-00-0001-46.png,0005-00-0000-66.png
00000009,26,1,1446832160223,1446832160752,1069,250,0,0,0,1,0,1,1,0005-00-0000-20.png,0001-00-0001-57.png
00000009,27,0,1446832161622,1446832161662,862,381,0,0,0,2,3,1,5,0003-00-0000-75.png,0002-00-0000-94.png
00000009,28,0,1446832164502,1446832165614,378,403,0,0,0,3,2,1,5,0002-00-0001-87.png,0003-00-0000-08.png
00000009,29,0,1446832168562,1446832169963,464,268,0,0,0,2,1,1,3,0003-00-0001-00.png,0005-00-0000-67.png
00000009,30,0,1446832172800,1446832172892,960,297,0,0,0,3,4,1,7,0002-00-0000-93.png,0004-00-0000-31.png
00000009,31,1,1446832176402,1446832177205,455,234,0,0,0,1,2,1,3,0005-00-0000-93.png,0003-00-0000-15.png
00000009,32,1,1446832178091,1446832179024,964,410,0,0,0,4,3,1,7,0004-00-0001-55.png,0002-00-0001-27.png
00000009,33,1,1446832180071,1446832180186,878,410,0,0,0,1,0,1,1,0005-00-0001-63.png,0001-00-0001-51.png
00000009,34,1,1446832181391,1446832182094,383,378,0,0,0,3,4,1,7,0002-00-0000-06.png,0004-00-0001-11.png
00000009,35,1,1446832183040,1446832183836,1012,283,0,0,0,2,1,1,3,0003-00-0000-59.png,0005-00-0001-93.png
00000009,36,0,1446832184728,1446832184764,892,354,0,0,0,1,2,1,3,0005-00-0001-11.png,0003-00-0000-05.png
00000009,37,0,1446832187818,1446832188363,1041,264,0,0,0,0,1,1,1,0001-00-0000-86.png,0005-00-0001-41.png
00000009,38,0,1446832191218,1446832191775,915,359,0,0,0,2,3,1,5,0003-00-0001-66.png,0002-00-0000-73.png
00000009,39,0,1446832194889,1446832195364,457,273,0,0,0,3,2,1,5,0002-00-0000-41.png,0003-00-0000-90.png
00000009,40,1,1446832198607,1446832199186,941,354,0,0,0,4,3,1,7,0004-00-0001-70.png,0002-00-0001-76.png
00000009,41,1,1446832200095,1446832200171,894,431,0,0,0,2,1,1,3,0003-00-0001-99.png,0005-00-0001-31.png
00000009,42,0,1446832201130,1446832201945,934,332,0,0,0,0,1,1,1,0001-00-0001-47.png,0005-00-0000-60.png
00000009,43,1,1446832205031,1446832205623,915,357,0,0,0,3,2,1,5,0002-00-0000-71.png,0003-00-0001-01.png
00000009,44,0,1446832206483,1446832207408,445,262,0,0,0,1,0,1,1,0005-00-0001-07.png,0001-00-0000-27.png
00000009,45,0,1446832210453,1446832210577,1016,253,0,0,0,2,3,1,5,0003-00-0000-31.png,0002-00-0001-79.png
00000009,46,1,1446832213650,1446832214219,446,283,0,0,0,3,4,1,7,0002-00-0001-95.png,0004-00-0000-28.png
00000009,47,1,1446832215100,1446832216121,390,400,0,0,0,1,2,1,3,0005-00-0001-70.png,0003-00-0000-82.png
00000009,48,1,1446832217029,1446832217839,1053,276,0,0,0,4,3,1,7,0004-00-0001-97.png,0002-00-0000-83.png
00000009,49,1,1446832218739,1446832219640,938,405,0,0,0,4,3,1,7,0004-00-0001-82.png,0002-00-0000-91.png
00000009,50,0,1446832220695,1446832220775,891,466,0,0,0,1,2,1,3,0005-00-0000-50.png,0003-00-0001-27.png
00000009,51,1,1446832224163,1446832224687,919,352,0,0,0,2,1,1,3,0003-00-0000-53.png,0005-00-0001-79.png
00000009,52,1,1446832225614,1446832226320,463,268,0,0,0,0,1,1,1,0001-00-0001-58.png,0005-00-0001-35.png
00000009,53,0,1446832227271,1446832228107,1022,316,0,0,0,2,3,1,5,0003-00-0000-85.png,0002-00-0000-60.png
00000009,54,1,1446832231178,1446832231238,908,309,0,0,0,1,0,1,1,0005-00-0000-00.png,0001-00-0001-24.png
00000009,55,1,1446832232175,1446832233611,988,435,0,0,0,3,2,1,5,0002-00-0000-97.png,0003-00-0000-68.png
00000009,56,0,1446832234462,1446832235462,918,333,0,0,0,3,4,1,7,0002-00-0000-94.png,0004-00-0000-80.png
00000009,57,0,1446832238333,1446832238370,885,352,0,0,0,3,4,1,7,0002-00-0001-70.png,0004-00-0001-36.png
00000009,58,1,1446832241524,1446832241803,941,277,0,0,0,3,2,1,5,0002-00-0001-71.png,0003-00-0001-02.png
00000009,59,0,1446832242777,1446832243569,916,383,0,0,0,0,1,1,1,0001-00-0000-98.png,0005-00-0000-76.png
00000009,60,1,1446832246693,1446832247308,941,290,0,0,0,1,0,1,1,0005-00-0001-36.png,0001-00-0001-53.png
00000009,61,1,1446832248149,1446832249023,363,378,0,0,0,1,2,1,3,0005-00-0000-26.png,0003-00-0000-65.png
00000009,62,0,1446832249932,1446832250832,1043,287,0,0,0,2,3,1,5,0003-00-0000-61.png,0002-00-0001-59.png
00000009,63,1,1446832253823,1446832254341,1043,275,0,0,0,2,1,1,3,0003-00-0000-16.png,0005-00-0000-66.png
00000009,64,1,1446832255163,1446832256057,1024,271,0,0,0,4,3,1,7,0004-00-0001-31.png,0002-00-0001-02.png
00000009,65,1,1446832257015,1446832257881,498,235,0,0,0,0,1,1,1,0001-00-0001-37.png,0005-00-0000-71.png
00000009,66,0,1446832258814,1446832259649,1030,279,0,0,0,3,4,1,7,0002-00-0000-51.png,0004-00-0001-92.png
00000009,67,0,1446832262722,1446832263315,461,279,0,0,0,3,2,1,5,0002-00-0001-40.png,0003-00-0001-54.png
00000009,68,1,1446832266464,1446832267357,1013,266,0,0,0,1,0,1,1,0005-00-0000-41.png,0001-00-0001-19.png
00000009,69,0,1446832268238,1446832269067,479,263,0,0,0,4,3,1,7,0004-00-0000-97.png,0002-00-0000-53.png
00000009,70,1,1446832272046,1446832272119,982,333,0,0,0,2,1,1,3,0003-00-0001-70.png,0005-00-0000-12.png
00000009,71,0,1446832273094,1446832273895,929,345,0,0,0,2,3,1,5,0003-00-0000-59.png,0002-00-0001-14.png
00000009,72,1,1446832276931,1446832277512,427,410,0,0,0,1,2,1,3,0005-00-0001-20.png,0003-00-0001-97.png
00000009,73,1,1446832278354,1446832279182,1041,296,0,0,0,2,1,1,3,0003-00-0001-65.png,0005-00-0000-06.png
00000009,74,0,1446832280170,1446832280279,873,436,0,0,0,3,4,1,7,0002-00-0000-71.png,0004-00-0000-33.png
00000009,75,0,1446832283242,1446832283254,862,410,0,0,0,0,1,1,1,0001-00-0001-30.png,0005-00-0001-39.png
00000009,76,1,1446832286416,1446832286930,946,400,0,0,0,1,0,1,1,0005-00-0000-35.png,0001-00-0000-64.png
00000009,77,1,1446832287782,1446832287853,870,454,0,0,0,3,2,1,5,0002-00-0000-96.png,0003-00-0001-57.png
00000009,78,0,1446832288921,1446832290119,964,426,0,0,0,1,2,1,3,0005-00-0001-02.png,0003-00-0001-39.png
00000009,79,0,1446832293190,1446832293258,883,333,0,0,0,2,3,1,5,0003-00-0000-59.png,0002-00-0000-90.png
00000009,80,1,1446832296102,1446832297010,911,326,0,0,0,4,3,1,7,0004-00-0000-99.png,0002-00-0001-60.png
00000009,81,1,1446832297904,1446832298736,1038,282,0,0,0,2,1,1,3,0003-00-0000-35.png,0005-00-0000-54.png
00000009,82,1,1446832299682,1446832300512,940,355,0,0,0,4,3,1,7,0004-00-0000-69.png,0002-00-0000-86.png
00000009,83,1,1446832301520,1446832301544,868,393,0,0,0,3,2,1,5,0002-00-0000-41.png,0003-00-0000-17.png
00000009,84,1,1446832302712,1446832302740,866,442,0,0,0,1,0,1,1,0005-00-0000-59.png,0001-00-0000-53.png
00000009,85,0,1446832303876,1446832303924,859,478,0,0,0,3,4,1,7,0002-00-0000-25.png,0004-00-0001-22.png
00000009,86,0,1446832306915,1446832307432,1050,284,0,0,0,2,3,1,5,0003-00-0001-43.png,0002-00-0001-22.png
00000009,87,1,1446832310491,1446832311036,371,404,0,0,0,1,2,1,3,0005-00-0001-10.png,0003-00-0001-54.png
00000009,88,1,1446832311955,1446832312705,456,239,0,0,0,0,1,1,1,0001-00-0000-22.png,0005-00-0000-45.png
00000009,89,1,1446832313617,1446832314688,1064,277,0,0,0,1,0,1,1,0005-00-0000-20.png,0001-00-0001-09.png
00000009,90,0,1446832315579,1446832316447,382,350,0,0,0,3,2,1,5,0002-00-0001-24.png,0003-00-0001-12.png
00000009,91,0,1446832319315,1446832319355,905,307,0,0,0,0,1,1,1,0001-00-0000-62.png,0005-00-0001-03.png
00000009,92,1,1446832322538,1446832322566,876,304,0,0,0,2,1,1,3,0003-00-0000-94.png,0005-00-0001-14.png
00000009,93,0,1446832323551,1446832324460,935,306,0,0,0,1,2,1,3,0005-00-0001-31.png,0003-00-0000-38.png
00000009,94,0,1446832327677,1446832327705,903,308,0,0,0,2,3,1,5,0003-00-0000-41.png,0002-00-0000-62.png
00000009,95,0,1446832330883,1446832330907,863,284,0,0,0,3,4,1,7,0002-00-0000-43.png,0004-00-0001-75.png
00000009,96,1,1446832333917,1446832334204,897,321,0,0,0,4,3,1,7,0004-00-0001-48.png,0002-00-0000-15.png
00000009,97,0,1446832335679,1446832336275,490,237,0,0,0,1,0,1,1,0005-00-0001-59.png,0001-00-0001-23.png
00000009,98,0,1446832339441,1446832339481,869,291,0,0,0,3,4,1,7,0002-00-0001-15.png,0004-00-0000-80.png
00000009,99,0,1446832342630,1446832342662,867,309,0,0,0,2,3,1,5,0003-00-0000-42.png,0002-00-0000-01.png
00000009,100,0,1446832345624,1446832345701,876,292,0,0,0,0,1,1,1,0001-00-0001-55.png,0005-00-0000-86.png
00000009,101,1,1446832348663,1446832349215,446,264,0,0,0,1,2,1,3,0005-00-0000-42.png,0003-00-0000-41.png
00000009,102,0,1446832350733,1446832351975,375,358,0,0,0,3,2,1,5,0002-00-0001-75.png,0003-00-0000-96.png
00000009,103,1,1446832354817,1446832355351,1041,277,0,0,0,4,3,1,7,0004-00-0001-49.png,0002-00-0001-08.png
00000009,104,1,1446832356198,1446832356283,898,453,0,0,0,2,1,1,3,0003-00-0000-31.png,0005-00-0001-95.png
00000009,105,1,1446832357213,1446832358190,1017,281,0,0,0,4,3,1,7,0004-00-0001-21.png,0002-00-0001-72.png
00000009,106,1,1446832359182,1446832359246,862,422,0,0,0,2,1,1,3,0003-00-0000-21.png,0005-00-0001-13.png
00000009,107,0,1446832360336,1446832360438,862,462,0,0,0,1,2,1,3,0005-00-0001-51.png,0003-00-0001-65.png
00000009,108,0,1446832363301,1446832363839,916,301,0,0,0,2,3,1,5,0003-00-0001-07.png,0002-00-0000-15.png
00000009,109,1,1446832366952,1446832367012,896,294,0,0,0,3,2,1,5,0002-00-0001-58.png,0003-00-0000-78.png
00000009,110,1,1446832367904,1446832368836,381,380,0,0,0,3,4,1,7,0002-00-0000-30.png,0004-00-0001-23.png
00000009,111,1,1446832369745,1446832370640,407,361,0,0,0,0,1,1,1,0001-00-0001-30.png,0005-00-0000-97.png
00000009,112,1,1446832371564,1446832372670,935,326,0,0,0,1,0,1,1,0005-00-0001-89.png,0001-00-0000-40.png
00000009,113,1,1446832373612,1446832373664,862,421,0,0,0,3,2,1,5,0002-00-0000-71.png,0003-00-0001-26.png
00000009,114,1,1446832374734,1446832375780,473,231,0,0,0,3,4,1,7,0002-00-0000-75.png,0004-00-0000-90.png
00000009,115,1,1446832376692,1446832377767,937,323,0,0,0,4,3,1,7,0004-00-0000-89.png,0002-00-0001-63.png
00000009,116,1,1446832378768,1446832378788,858,412,0,0,0,1,0,1,1,0005-00-0001-86.png,0001-00-0000-25.png
00000009,117,1,1446832379945,1446832380815,493,232,0,0,0,2,3,1,5,0003-00-0001-98.png,0002-00-0001-63.png
00000009,118,1,1446832381778,1446832382691,483,244,0,0,0,0,1,1,1,0001-00-0001-27.png,0005-00-0001-53.png
00000009,119,1,1446832383650,1446832383685,871,429,0,0,0,2,1,1,3,0003-00-0001-67.png,0005-00-0000-98.png
00000009,120,1,1446832384720,1446832385545,505,224,0,0,0,1,2,1,3,0005-00-0001-07.png,0003-00-0000-89.png
00000009,121,1,1446832386528,1446832387453,944,361,0,0,0,2,1,1,3,0003-00-0000-10.png,0005-00-0001-49.png
00000009,122,0,1446832388345,1446832388417,874,449,0,0,0,0,1,1,1,0001-00-0000-59.png,0005-00-0000-23.png
00000009,123,0,1446832391293,1446832391872,1023,268,0,0,0,1,2,1,3,0005-00-0000-15.png,0003-00-0000-43.png
00000009,124,0,1446832395055,1446832395584,485,282,0,0,0,1,0,1,1,0005-00-0000-93.png,0001-00-0000-44.png
00000009,125,1,1446832398471,1446832398519,1094,353,0,0,0,3,2,1,5,0002-00-0001-25.png,0003-00-0000-63.png
00000009,126,1,1446832399423,1446832400332,373,370,0,0,0,3,4,1,7,0002-00-0000-33.png,0004-00-0000-13.png
00000009,127,0,1446832401243,1446832402154,964,462,0,0,0,2,3,1,5,0003-00-0001-41.png,0002-00-0001-92.png
00000009,128,1,1446832405269,1446832405289,932,325,0,0,0,4,3,1,7,0004-00-0001-70.png,0002-00-0001-73.png
00000009,129,1,1446832406225,1446832407218,1062,282,0,0,0,4,3,1,7,0004-00-0000-42.png,0002-00-0000-44.png
00000009,130,1,1446832408103,1446832409239,478,225,0,0,0,1,2,1,3,0005-00-0000-04.png,0003-00-0001-30.png
00000009,131,1,1446832410219,1446832411222,921,327,0,0,0,2,1,1,3,0003-00-0000-77.png,0005-00-0000-55.png
00000009,132,1,1446832412148,1446832412168,858,417,0,0,0,3,2,1,5,0002-00-0001-62.png,0003-00-0000-54.png
00000009,133,1,1446832413241,1446832414299,397,355,0,0,0,2,3,1,5,0003-00-0001-04.png,0002-00-0000-64.png
00000009,134,0,1446832415237,1446832416491,885,319,0,0,0,3,4,1,7,0002-00-0001-21.png,0004-00-0000-21.png
00000009,135,1,1446832419673,1446832420176,500,274,0,0,0,0,1,1,1,0001-00-0000-89.png,0005-00-0000-26.png
00000009,136,1,1446832421010,1446832421805,1044,307,0,0,0,1,0,1,1,0005-00-0001-70.png,0001-00-0000-74.png
00000009,137,1,1446832422680,1446832423584,943,357,0,0,0,2,1,1,3,0003-00-0001-21.png,0005-00-0001-67.png
00000009,138,1,1446832424589,1446832425427,436,347,0,0,0,1,2,1,3,0005-00-0001-37.png,0003-00-0001-32.png
00000009,139,1,1446832426388,1446832427479,949,340,0,0,0,3,2,1,5,0002-00-0001-89.png,0003-00-0000-38.png
00000009,140,1,1446832428445,1446832428453,916,413,0,0,0,1,0,1,1,0005-00-0001-23.png,0001-00-0000-21.png
00000009,141,1,1446832429549,1446832430700,930,335,0,0,0,4,3,1,7,0004-00-0001-74.png,0002-00-0001-18.png
00000009,142,0,1446832431655,1446832431699,862,423,0,0,0,0,1,1,1,0001-00-0001-82.png,0005-00-0001-58.png
00000009,143,0,1446832434705,1446832435239,911,346,0,0,0,2,3,1,5,0003-00-0000-13.png,0002-00-0001-35.png
00000009,144,1,1446832438184,1446832438735,374,349,0,0,0,3,4,1,7,0002-00-0000-44.png,0004-00-0001-19.png
00000009,145,1,1446832439579,1446832440435,475,260,0,0,0,1,2,1,3,0005-00-0000-28.png,0003-00-0001-42.png
00000009,146,0,1446832441292,1446832442204,971,375,0,0,0,3,4,1,7,0002-00-0000-42.png,0004-00-0001-06.png
00000009,147,0,1446832445170,1446832445696,1015,274,0,0,0,2,3,1,5,0003-00-0000-80.png,0002-00-0001-89.png
00000009,148,0,1446832448628,1446832449094,475,310,0,0,0,3,2,1,5,0002-00-0001-14.png,0003-00-0000-90.png
00000009,149,0,1446832452221,1446832452233,868,333,0,0,0,0,1,1,1,0001-00-0000-20.png,0005-00-0001-29.png
00000009,150,1,1446832455364,1446832455393,869,316,0,0,0,1,0,1,1,0005-00-0000-05.png,0001-00-0001-43.png
00000009,151,1,1446832456350,1446832457470,973,370,0,0,0,4,3,1,7,0004-00-0001-41.png,0002-00-0000-97.png
00000009,152,1,1446832458405,1446832459255,909,332,0,0,0,2,1,1,3,0003-00-0001-78.png,0005-00-0001-61.png
00000009,153,1,1446832460196,1446832460244,892,398,0,0,0,4,3,1,7,0004-00-0000-50.png,0002-00-0001-36.png
00000009,154,1,1446832461247,1446832462401,453,384,0,0,0,3,4,1,7,0002-00-0001-83.png,0004-00-0001-67.png
00000009,155,1,1446832463294,1446832464044,404,374,0,0,0,1,2,1,3,0005-00-0001-49.png,0003-00-0000-45.png
00000009,156,1,1446832465004,1446832465868,913,331,0,0,0,1,0,1,1,0005-00-0001-86.png,0001-00-0000-05.png
00000009,157,0,1446832466835,1446832466859,865,468,0,0,0,2,3,1,5,0003-00-0001-78.png,0002-00-0000-82.png
00000009,158,0,1446832469806,1446832470272,492,250,0,0,0,3,2,1,5,0002-00-0001-13.png,0003-00-0001-26.png
00000009,159,0,1446832473392,1446832473420,901,288,0,0,0,0,1,1,1,0001-00-0001-90.png,0005-00-0000-69.png
00000009,160,1,1446832476541,1446832476561,877,308,0,0,0,2,1,1,3,0003-00-0001-06.png,0005-00-0001-74.png
00000009,161,1,1446832477415,1446832478245,486,268,0,0,0,3,4,1,7,0002-00-0001-16.png,0004-00-0001-77.png
00000009,162,1,1446832479105,1446832480162,917,353,0,0,0,4,3,1,7,0004-00-0001-37.png,0002-00-0000-11.png
00000009,163,1,1446832481021,1446832482023,940,351,0,0,0,2,1,1,3,0003-00-0000-00.png,0005-00-0000-29.png
00000009,164,0,1446832482952,1446832483008,881,414,0,0,0,0,1,1,1,0001-00-0001-87.png,0005-00-0000-80.png
00000009,165,1,1446832486142,1446832486640,912,301,0,0,0,3,2,1,5,0002-00-0001-59.png,0003-00-0001-12.png
00000009,166,1,1446832487521,1446832487541,863,407,0,0,0,1,0,1,1,0005-00-0001-89.png,0001-00-0001-82.png
00000009,167,1,1446832488576,1446832489440,515,245,0,0,0,1,2,1,3,0005-00-0001-26.png,0003-00-0000-53.png
00000009,168,0,1446832490792,1446832491527,1011,289,0,0,0,2,3,1,5,0003-00-0001-42.png,0002-00-0000-59.png
00000009,169,0,1446832494556,1446832495045,963,327,0,0,0,2,3,1,5,0003-00-0000-48.png,0002-00-0001-56.png
00000009,170,1,1446832497905,1446832498399,403,384,0,0,0,3,4,1,7,0002-00-0001-22.png,0004-00-0001-66.png
00000009,171,1,1446832499221,1446832500112,934,329,0,0,0,2,1,1,3,0003-00-0000-01.png,0005-00-0001-14.png
00000009,172,1,1446832501017,1446832502003,483,235,0,0,0,0,1,1,1,0001-00-0000-83.png,0005-00-0000-18.png
00000009,173,1,1446832502946,1446832503820,1018,267,0,0,0,4,3,1,7,0004-00-0000-03.png,0002-00-0000-41.png
00000009,174,1,1446832504802,1446832504845,913,531,0,0,0,3,2,1,5,0002-00-0001-69.png,0003-00-0001-26.png
00000009,175,1,1446832506015,1446832507264,1058,291,0,0,0,1,0,1,1,0005-00-0001-30.png,0001-00-0001-93.png
00000009,176,0,1446832508139,1446832508179,862,418,0,0,0,1,2,1,3,0005-00-0000-10.png,0003-00-0001-01.png
00000009,177,0,1446832511162,1446832511182,949,352,0,0,0,1,2,1,3,0005-00-0001-31.png,0003-00-0000-93.png
00000009,178,1,1446832514115,1446832514151,963,324,0,0,0,2,1,1,3,0003-00-0000-76.png,0005-00-0000-87.png
00000009,179,0,1446832515070,1446832515840,1016,296,0,0,0,2,3,1,5,0003-00-0001-48.png,0002-00-0000-13.png
00000009,180,1,1446832518741,1446832519373,1040,278,0,0,0,3,2,1,5,0002-00-0001-84.png,0003-00-0000-29.png
00000009,181,0,1446832520226,1446832520934,496,235,0,0,0,1,0,1,1,0005-00-0001-44.png,0001-00-0001-75.png
00000009,182,0,1446832523982,1446832524479,944,337,0,0,0,3,4,1,7,0002-00-0000-34.png,0004-00-0000-16.png
00000009,183,1,1446832527322,1446832528155,1067,277,0,0,0,4,3,1,7,0004-00-0001-39.png,0002-00-0000-93.png
00000009,184,1,1446832528980,1446832529846,492,229,0,0,0,0,1,1,1,0001-00-0001-44.png,0005-00-0001-52.png
00000009,185,0,1446832530760,1446832531754,1050,284,0,0,0,2,3,1,5,0003-00-0001-62.png,0002-00-0001-90.png
00000009,186,0,1446832534953,1446832535551,468,265,0,0,0,3,2,1,5,0002-00-0000-61.png,0003-00-0001-44.png
00000009,187,0,1446832538494,1446832538510,889,335,0,0,0,0,1,1,1,0001-00-0000-10.png,0005-00-0000-46.png
00000009,188,1,1446832541383,1446832541854,382,389,0,0,0,3,4,1,7,0002-00-0000-15.png,0004-00-0001-95.png
00000009,189,0,1446832542697,1446832543791,509,244,0,0,0,4,3,1,7,0004-00-0000-47.png,0002-00-0001-65.png
00000009,190,0,1446832546815,1446832547435,1063,260,0,0,0,1,2,1,3,0005-00-0001-20.png,0003-00-0000-19.png
00000009,191,1,1446832551104,1446832551658,1026,281,0,0,0,1,0,1,1,0005-00-0001-78.png,0001-00-0001-96.png
00000009,192,1,1446832552512,1446832553336,916,382,0,0,0,2,1,1,3,0003-00-0001-80.png,0005-00-0001-41.png
00000009,193,0,1446832554215,1446832554251,872,439,0,0,0,0,1,1,1,0001-00-0001-40.png,0005-00-0000-46.png
00000009,194,1,1446832557156,1446832557204,913,358,0,0,0,1,0,1,1,0005-00-0001-51.png,0001-00-0001-80.png
00000009,195,1,1446832558191,1446832559075,489,254,0,0,0,1,2,1,3,0005-00-0000-07.png,0003-00-0000-82.png
00000009,196,1,1446832560011,1446832560805,909,381,0,0,0,4,3,1,7,0004-00-0000-91.png,0002-00-0001-50.png
00000009,197,1,1446832561665,1446832561685,903,405,0,0,0,3,2,1,5,0002-00-0001-33.png,0003-00-0000-66.png
00000009,198,0,1446832562820,1446832563937,1041,296,0,0,0,3,4,1,7,0002-00-0000-64.png,0004-00-0000-10.png
00000009,199,0,1446832566904,1446832567421,1041,298,0,0,0,2,3,1,5,0003-00-0001-58.png,0002-00-0000-58.png
00000009,200,1,1446832570949,1446832570973,879,304,0,0,0,2,1,1,3,0003-00-0000-61.png,0005-00-0001-94.png
00000009,201,1,1446832571921,1446832572893,388,306,0,0,0,3,4,1,7,0002-00-0001-34.png,0004-00-0000-88.png
00000009,202,0,1446832573738,1446832574744,944,404,0,0,0,2,3,1,5,0003-00-0001-87.png,0002-00-0001-93.png
00000009,203,1,1446832577677,1446832578336,957,413,0,0,0,4,3,1,7,0004-00-0001-40.png,0002-00-0001-75.png
00000009,204,1,1446832579683,1446832580343,896,331,0,0,0,2,1,1,3,0003-00-0001-52.png,0005-00-0001-78.png
00000009,205,1,1446832581278,1446832582185,936,347,0,0,0,1,0,1,1,0005-00-0001-66.png,0001-00-0000-47.png
00000009,206,0,1446832583073,1446832583960,1034,277,0,0,0,0,1,1,1,0001-00-0000-67.png,0005-00-0001-02.png
00000009,207,0,1446832586856,1446832587582,939,345,0,0,0,1,2,1,3,0005-00-0000-15.png,0003-00-0000-85.png
00000009,208,1,1446832590685,1446832590745,910,310,0,0,0,3,2,1,5,0002-00-0000-26.png,0003-00-0000-40.png
00000009,209,0,1446832591637,1446832592480,934,375,0,0,0,2,3,1,5,0003-00-0001-74.png,0002-00-0000-26.png
00000009,210,1,1446832595614,1446832595638,890,325,0,0,0,4,3,1,7,0004-00-0001-58.png,0002-00-0001-27.png
00000009,211,1,1446832596557,1446832597412,518,258,0,0,0,3,4,1,7,0002-00-0000-08.png,0004-00-0001-22.png
00000009,212,1,1446832598305,1446832599348,492,269,0,0,0,1,2,1,3,0005-00-0001-22.png,0003-00-0000-14.png
00000009,213,0,1446832600282,1446832601104,512,240,0,0,0,3,2,1,5,0002-00-0001-33.png,0003-00-0000-19.png
00000009,214,1,1446832604158,1446832604700,488,265,0,0,0,0,1,1,1,0001-00-0001-35.png,0005-00-0000-01.png
00000009,215,1,1446832606118,1446832606661,935,326,0,0,0,2,1,1,3,0003-00-0000-45.png,0005-00-0000-33.png
00000009,216,1,1446832607588,1446832608460,1036,281,0,0,0,1,0,1,1,0005-00-0001-02.png,0001-00-0001-70.png
00000009,217,1,1446832609426,1446832609498,862,462,0,0,0,3,2,1,5,0002-00-0000-84.png,0003-00-0000-22.png
00000009,218,1,1446832610580,1446832611749,937,435,0,0,0,4,3,1,7,0004-00-0000-29.png,0002-00-0000-16.png
00000009,219,1,1446832612685,1446832613544,495,233,0,0,0,1,2,1,3,0005-00-0001-40.png,0003-00-0000-50.png
00000009,220,1,1446832614436,1446832615299,417,366,0,0,0,0,1,1,1,0001-00-0000-08.png,0005-00-0001-12.png
00000009,221,1,1446832616211,1446832617037,493,242,0,0,0,3,4,1,7,0002-00-0001-37.png,0004-00-0000-41.png
00000009,222,1,1446832617932,1446832617972,858,516,0,0,0,2,1,1,3,0003-00-0000-10.png,0005-00-0001-19.png
00000009,223,0,1446832619184,1446832619852,479,252,0,0,0,1,0,1,1,0005-00-0001-33.png,0001-00-0000-08.png
00000009,224,0,1446832622718,1446832623235,1069,318,0,0,0,2,3,1,5,0003-00-0001-54.png,0002-00-0000-77.png
00000009,225,1,1446832626295,1446832626311,861,339,0,0,0,1,0,1,1,0005-00-0001-28.png,0001-00-0000-09.png
00000009,226,1,1446832627152,1446832628246,393,360,0,0,0,3,4,1,7,0002-00-0000-13.png,0004-00-0000-42.png
00000009,227,0,1446832629066,1446832629978,903,360,0,0,0,2,3,1,5,0003-00-0001-09.png,0002-00-0001-75.png
00000009,228,1,1446832633099,1446832633560,937,342,0,0,0,2,1,1,3,0003-00-0000-40.png,0005-00-0001-51.png
00000009,229,0,1446832634405,1446832635188,1029,284,0,0,0,0,1,1,1,0001-00-0000-12.png,0005-00-0000-96.png
00000009,230,1,1446832638357,1446832638852,427,374,0,0,0,1,2,1,3,0005-00-0001-96.png,0003-00-0001-93.png
00000009,231,1,1446832639680,1446832640446,1039,257,0,0,0,4,3,1,7,0004-00-0000-21.png,0002-00-0001-57.png
00000009,232,0,1446832641385,1446832642222,494,255,0,0,0,3,2,1,5,0002-00-0000-54.png,0003-00-0000-75.png
00000009,233,1,1446832645331,1446832645944,1067,279,0,0,0,1,0,1,1,0005-00-0000-65.png,0001-00-0000-58.png
00000009,234,0,1446832647367,1446832647431,888,462,0,0,0,3,4,1,7,0002-00-0001-39.png,0004-00-0000-36.png
00000009,235,1,1446832650439,1446832650467,866,321,0,0,0,4,3,1,7,0004-00-0001-49.png,0002-00-0001-52.png
00000009,236,0,1446832651930,1446832652476,930,328,0,0,0,2,3,1,5,0003-00-0001-29.png,0002-00-0000-28.png
00000009,237,1,1446832655678,1446832656218,967,350,0,0,0,2,1,1,3,0003-00-0000-90.png,0005-00-0000-04.png
00000009,238,1,1446832657043,1446832657862,520,256,0,0,0,1,2,1,3,0005-00-0000-96.png,0003-00-0001-86.png
00000009,239,1,1446832658865,1446832659655,498,238,0,0,0,0,1,1,1,0001-00-0001-86.png,0005-00-0000-24.png
00000009,240,1,1446832660545,1446832660612,868,495,0,0,0,3,2,1,5,0002-00-0001-02.png,0003-00-0001-91.png
00000009,241,0,1446832661746,1446832661806,862,541,0,0,0,3,4,1,7,0002-00-0001-71.png,0004-00-0001-72.png
00000009,242,1,1446832664956,1446832665004,939,300,0,0,0,2,1,1,3,0003-00-0000-85.png,0005-00-0000-70.png
00000009,243,1,1446832666496,1446832667174,967,344,0,0,0,4,3,1,7,0004-00-0000-79.png,0002-00-0001-33.png
00000009,244,1,1446832668016,1446832668902,395,354,0,0,0,1,2,1,3,0005-00-0000-91.png,0003-00-0000-73.png
00000009,245,0,1446832669846,1446832670756,939,354,0,0,0,2,3,1,5,0003-00-0001-09.png,0002-00-0000-79.png
00000009,246,1,1446832673681,1446832673700,875,360,0,0,0,3,2,1,5,0002-00-0001-00.png,0003-00-0001-81.png
00000009,247,1,1446832674608,1446832675462,480,269,0,0,0,0,1,1,1,0001-00-0001-31.png,0005-00-0001-34.png
00000009,248,0,1446832676365,1446832677267,490,272,0,0,0,1,0,1,1,0005-00-0000-00.png,0001-00-0001-30.png
00000009,249,0,1446832680438,1446832681000,478,249,0,0,0,3,2,1,5,0002-00-0001-78.png,0003-00-0000-58.png
00000009,250,1,1446832683853,1446832684410,912,352,0,0,0,2,1,1,3,0003-00-0000-51.png,0005-00-0001-39.png
00000009,251,0,1446832685813,1446832685841,891,328,0,0,0,1,2,1,3,0005-00-0000-13.png,0003-00-0000-99.png
00000009,252,0,1446832688706,1446832689274,430,369,0,0,0,4,3,1,7,0004-00-0000-45.png,0002-00-0000-75.png
00000009,253,0,1446832692187,1446832692964,916,351,0,0,0,0,1,1,1,0001-00-0000-75.png,0005-00-0000-34.png
00000009,254,0,1446832695850,1446832695890,1044,355,0,0,0,3,4,1,7,0002-00-0000-46.png,0004-00-0001-41.png
00000009,255,0,1446832698903,1446832699658,478,262,0,0,0,1,0,1,1,0005-00-0001-38.png,0001-00-0001-87.png
00000009,256,0,1446832702514,1446832703292,960,358,0,0,0,2,3,1,5,0003-00-0001-60.png,0002-00-0001-01.png
00000009,257,0,1446832706219,1446832706262,916,388,0,0,0,3,4,1,7,0002-00-0001-08.png,0004-00-0001-19.png
00000009,258,1,1446832709277,1446832709345,964,358,0,0,0,2,1,1,3,0003-00-0001-63.png,0005-00-0000-29.png
00000009,259,1,1446832710306,1446832711405,417,343,0,0,0,1,2,1,3,0005-00-0000-70.png,0003-00-0001-52.png
00000009,260,1,1446832712380,1446832713311,1029,297,0,0,0,1,0,1,1,0005-00-0001-28.png,0001-00-0001-20.png
00000009,261,1,1446832714183,1446832715547,489,241,0,0,0,2,3,1,5,0003-00-0000-56.png,0002-00-0001-63.png
00000009,262,1,1446832716595,1446832716680,857,492,0,0,0,4,3,1,7,0004-00-0001-94.png,0002-00-0001-25.png
00000009,263,1,1446832717666,1446832718809,485,262,0,0,0,0,1,1,1,0001-00-0001-15.png,0005-00-0001-73.png
00000009,264,1,1446832719753,1446832719812,862,493,0,0,0,3,2,1,5,0002-00-0001-67.png,0003-00-0000-99.png
00000009,265,0,1446832720965,1446832721001,874,495,0,0,0,1,2,1,3,0005-00-0000-43.png,0003-00-0000-84.png
00000009,266,1,1446832724143,1446832724156,867,332,0,0,0,4,3,1,7,0004-00-0000-63.png,0002-00-0001-66.png
00000009,267,1,1446832725631,1446832726181,496,256,0,0,0,0,1,1,1,0001-00-0001-94.png,0005-00-0000-26.png
00000009,268,1,1446832727064,1446832727092,860,433,0,0,0,3,2,1,5,0002-00-0000-99.png,0003-00-0001-33.png
00000009,269,0,1446832728139,1446832729013,515,221,0,0,0,1,0,1,1,0005-00-0001-96.png,0001-00-0000-80.png
00000009,270,1,1446832732096,1446832732746,486,282,0,0,0,3,4,1,7,0002-00-0001-53.png,0004-00-0000-07.png
00000009,271,1,1446832734197,1446832734908,944,327,0,0,0,2,1,1,3,0003-00-0001-03.png,0005-00-0000-02.png
00000009,272,0,1446832735742,1446832736752,931,335,0,0,0,2,3,1,5,0003-00-0000-61.png,0002-00-0001-11.png
00000009,273,1,1446832739777,1446832739993,876,352,0,0,0,3,2,1,5,0002-00-0001-90.png,0003-00-0000-29.png
00000009,274,0,1446832740933,1446832741898,940,368,0,0,0,2,3,1,5,0003-00-0001-83.png,0002-00-0001-76.png
00000009,275,0,1446832744984,1446832745032,908,307,0,0,0,3,4,1,7,0002-00-0001-47.png,0004-00-0001-01.png
00000009,276,1,1446832748142,1446832748201,943,311,0,0,0,2,1,1,3,0003-00-0001-88.png,0005-00-0000-61.png
00000009,277,0,1446832749146,1446832750060,969,332,0,0,0,0,1,1,1,0001-00-0000-64.png,0005-00-0001-83.png
00000009,278,1,1446832753224,1446832753772,938,336,0,0,0,4,3,1,7,0004-00-0001-08.png,0002-00-0000-93.png
00000009,279,0,1446832754632,1446832754676,857,440,0,0,0,1,2,1,3,0005-00-0000-83.png,0003-00-0001-72.png
00000009,280,0,1446832757625,1446832758170,417,349,0,0,0,1,0,1,1,0005-00-0000-64.png,0001-00-0001-52.png
00000009,281,0,1446832761040,1446832761957,507,267,0,0,0,4,3,1,7,0004-00-0001-94.png,0002-00-0000-66.png
00000009,282,1,1446832764979,1446832765513,1052,291,0,0,0,2,1,1,3,0003-00-0000-83.png,0005-00-0001-48.png
00000009,283,0,1446832766362,1446832766398,862,446,0,0,0,2,3,1,5,0003-00-0001-77.png,0002-00-0001-88.png
00000009,284,1,1446832769333,1446832769865,396,392,0,0,0,1,2,1,3,0005-00-0000-23.png,0003-00-0001-45.png
00000009,285,0,1446832770741,1446832771722,1032,332,0,0,0,0,1,1,1,0001-00-0000-99.png,0005-00-0000-06.png
00000009,286,1,1446832774807,1446832774848,873,332,0,0,0,1,0,1,1,0005-00-0000-17.png,0001-00-0001-06.png
00000009,287,0,1446832775842,1446832776731,396,348,0,0,0,3,2,1,5,0002-00-0000-76.png,0003-00-0000-01.png
00000009,288,0,1446832779675,1446832780377,941,312,0,0,0,3,4,1,7,0002-00-0000-80.png,0004-00-0001-09.png
00000009,289,1,1446832783296,1446832783304,516,476,0,0,0,3,4,1,7,0002-00-0000-05.png,0004-00-0001-97.png
00000009,290,0,1446832784211,1446832785171,966,336,0,0,0,0,1,1,1,0001-00-0000-37.png,0005-00-0000-22.png
00000009,291,1,1446832788114,1446832788126,952,377,0,0,0,1,0,1,1,0005-00-0000-50.png,0001-00-0001-79.png
00000009,292,0,1446832789102,1446832790074,1024,305,0,0,0,2,3,1,5,0003-00-0001-88.png,0002-00-0000-68.png
00000009,293,1,1446832793240,1446832793816,915,330,0,0,0,2,1,1,3,0003-00-0001-11.png,0005-00-0000-49.png
00000009,294,1,1446832794672,1446832795832,416,314,0,0,0,1,2,1,3,0005-00-0000-29.png,0003-00-0000-82.png
00000009,295,1,1446832796701,1446832797794,1040,277,0,0,0,4,3,1,7,0004-00-0001-38.png,0002-00-0000-44.png
00000009,296,1,1446832798778,1446832799990,913,329,0,0,0,3,2,1,5,0002-00-0000-17.png,0003-00-0001-40.png
00000009,297,0,1446832800965,1446832801782,511,253,0,0,0,3,2,1,5,0002-00-0001-27.png,0003-00-0001-78.png
00000009,298,0,1446832804921,1446832805585,1039,268,0,0,0,3,4,1,7,0002-00-0000-10.png,0004-00-0000-18.png
00000009,299,1,1446832808516,1446832808576,862,362,0,0,0,4,3,1,7,0004-00-0001-15.png,0002-00-0001-99.png
00000009,300,1,1446832810049,1446832810828,456,391,0,0,0,1,2,1,3,0005-00-0001-08.png,0003-00-0001-91.png
00000009,301,1,1446832811717,1446832812719,945,449,0,0,0,2,1,1,3,0003-00-0001-34.png,0005-00-0001-88.png
00000009,302,1,1446832813680,1446832813732,859,409,0,0,0,1,0,1,1,0005-00-0000-59.png,0001-00-0001-53.png
00000009,303,0,1446832814886,1446832814944,867,479,0,0,0,2,3,1,5,0003-00-0001-30.png,0002-00-0000-57.png
00000009,304,1,1446832817804,1446832818363,441,381,0,0,0,0,1,1,1,0001-00-0000-15.png,0005-00-0001-47.png
00000009,305,1,1446832819837,1446832820814,496,259,0,0,0,1,2,1,3,0005-00-0001-03.png,0003-00-0001-82.png
00000009,306,0,1446832821726,1446832822684,504,265,0,0,0,3,2,1,5,0002-00-0001-31.png,0003-00-0001-21.png
00000009,307,1,1446832825679,1446832826158,916,356,0,0,0,2,1,1,3,0003-00-0000-34.png,0005-00-0000-52.png
00000009,308,1,1446832826996,1446832827861,499,241,0,0,0,3,4,1,7,0002-00-0000-41.png,0004-00-0001-52.png
00000009,309,0,1446832828750,1446832829641,937,353,0,0,0,2,3,1,5,0003-00-0000-29.png,0002-00-0001-33.png
00000009,310,0,1446832832754,1446832832810,898,325,0,0,0,0,1,1,1,0001-00-0000-75.png,0005-00-0000-75.png
00000009,311,0,1446832836003,1446832836698,401,353,0,0,0,1,0,1,1,0005-00-0000-39.png,0001-00-0000-64.png
00000009,312,1,1446832839880,1446832839904,955,316,0,0,0,4,3,1,7,0004-00-0000-70.png,0002-00-0001-43.png
00000009,313,1,1446832840893,1446832840953,861,437,0,0,0,4,3,1,7,0004-00-0001-14.png,0002-00-0000-48.png
00000009,314,1,1446832841985,1446832843691,421,378,0,0,0,0,1,1,1,0001-00-0001-42.png,0005-00-0000-36.png
00000009,315,1,1446832844581,1446832845672,1037,305,0,0,0,3,2,1,5,0002-00-0001-88.png,0003-00-0000-38.png
00000009,316,0,1446832846536,1446832847671,402,333,0,0,0,2,1,1,3,0003-00-0001-32.png,0005-00-0000-36.png
00000009,317,1,1446832850788,1446832851824,434,410,0,0,0,1,2,1,3,0005-00-0000-40.png,0003-00-0001-82.png
00000009,318,1,1446832852729,1446832853814,939,349,0,0,0,1,0,1,1,0005-00-0000-80.png,0001-00-0001-96.png
00000009,319,0,1446832854667,1446832855497,1046,270,0,0,0,2,3,1,5,0003-00-0000-97.png,0002-00-0001-92.png
00000009,320,1,1446832858701,1446832859237,499,273,0,0,0,3,4,1,7,0002-00-0001-72.png,0004-00-0000-29.png
00000009,321,1,1446832860130,1446832861171,417,379,0,0,0,3,4,1,7,0002-00-0000-13.png,0004-00-0001-20.png
00000009,322,0,1446832862040,1446832862076,866,387,0,0,0,0,1,1,1,0001-00-0001-60.png,0005-00-0000-25.png
00000009,323,1,1446832865228,1446832865300,914,308,0,0,0,1,0,1,1,0005-00-0000-77.png,0001-00-0000-48.png
00000009,324,1,1446832866312,1446832867535,939,358,0,0,0,4,3,1,7,0004-00-0001-20.png,0002-00-0000-01.png
00000009,325,1,1446832868486,1446832868530,931,475,0,0,0,3,2,1,5,0002-00-0001-79.png,0003-00-0000-53.png
00000009,326,0,1446832869669,1446832869702,864,463,0,0,0,2,3,1,5,0003-00-0001-92.png,0002-00-0001-58.png
00000009,327,1,1446832872541,1446832873076,405,363,0,0,0,1,2,1,3,0005-00-0000-37.png,0003-00-0001-43.png
00000009,328,1,1446832873945,1446832874878,1041,306,0,0,0,2,1,1,3,0003-00-0000-68.png,0005-00-0000-23.png
00000009,329,1,1446832875813,1446832876676,939,311,0,0,0,2,1,1,3,0003-00-0001-27.png,0005-00-0001-10.png
00000009,330,1,1446832877849,1446832877900,871,457,0,0,0,4,3,1,7,0004-00-0001-67.png,0002-00-0000-90.png
00000009,331,0,1446832878903,1446832880188,470,410,0,0,0,3,2,1,5,0002-00-0000-89.png,0003-00-0000-57.png
00000009,332,0,1446832883353,1446832883373,870,321,0,0,0,3,4,1,7,0002-00-0000-51.png,0004-00-0000-77.png
00000009,333,0,1446832886511,1446832887010,1041,278,0,0,0,2,3,1,5,0003-00-0001-84.png,0002-00-0001-89.png
00000009,334,1,1446832890152,1446832890671,1039,277,0,0,0,1,0,1,1,0005-00-0000-05.png,0001-00-0000-22.png
00000009,335,0,1446832891572,1446832891619,873,410,0,0,0,0,1,1,1,0001-00-0001-31.png,0005-00-0001-83.png
00000009,336,1,1446832894781,1446832895745,475,282,0,0,0,1,2,1,3,0005-00-0001-00.png,0003-00-0001-62.png
00000009,337,0,1446832896640,1446832896668,867,387,0,0,0,2,3,1,5,0003-00-0001-03.png,0002-00-0001-42.png
00000009,338,0,1446832899748,1446832900207,438,363,0,0,0,3,2,1,5,0002-00-0000-98.png,0003-00-0001-40.png
00000009,339,1,1446832903210,1446832903250,910,355,0,0,0,4,3,1,7,0004-00-0000-64.png,0002-00-0001-59.png
00000009,340,1,1446832904192,1446832905045,510,234,0,0,0,0,1,1,1,0001-00-0001-16.png,0005-00-0001-05.png
00000009,341,0,1446832905907,1446832905959,857,498,0,0,0,3,4,1,7,0002-00-0000-34.png,0004-00-0001-00.png
00000009,342,1,1446832909171,1446832909686,1042,256,0,0,0,2,1,1,3,0003-00-0001-44.png,0005-00-0001-16.png
00000009,343,0,1446832911125,1446832911145,888,447,0,0,0,1,2,1,3,0005-00-0001-93.png,0003-00-0000-37.png
00000009,344,1,1446832914257,1446832914316,892,309,0,0,0,1,0,1,1,0005-00-0000-47.png,0001-00-0001-61.png
00000009,345,0,1446832915860,1446832916622,418,383,0,0,0,3,2,1,5,0002-00-0000-32.png,0003-00-0000-19.png
00000009,346,1,1446832919645,1446832920165,1078,322,0,0,0,4,3,1,7,0004-00-0000-70.png,0002-00-0000-86.png
00000009,347,1,1446832921023,1446832921043,858,490,0,0,0,1,0,1,1,0005-00-0000-71.png,0001-00-0001-08.png
00000009,348,1,1446832922253,1446832922276,858,465,0,0,0,2,1,1,3,0003-00-0001-23.png,0005-00-0001-90.png
00000009,349,0,1446832923421,1446832924571,916,340,0,0,0,2,3,1,5,0003-00-0001-67.png,0002-00-0001-30.png
00000009,350,1,1446832927474,1446832928032,518,260,0,0,0,0,1,1,1,0001-00-0000-21.png,0005-00-0001-24.png
00000009,351,1,1446832928872,1446832930049,509,244,0,0,0,1,2,1,3,0005-00-0001-19.png,0003-00-0001-43.png
00000009,352,1,1446832931003,1446832932330,511,250,0,0,0,3,4,1,7,0002-00-0001-88.png,0004-00-0001-37.png
00000009,353,1,1446832933288,1446832933327,884,467,0,0,0,1,0,1,1,0005-00-0000-49.png,0001-00-0000-80.png
00000009,354,0,1446832934446,1446832934501,862,503,0,0,0,2,3,1,5,0003-00-0001-03.png,0002-00-0000-18.png
00000009,355,1,1446832937400,1446832937932,1042,279,0,0,0,2,1,1,3,0003-00-0000-77.png,0005-00-0001-83.png
00000009,356,0,1446832938770,1446832938790,858,435,0,0,0,1,2,1,3,0005-00-0001-16.png,0003-00-0001-03.png
00000009,357,0,1446832941933,1446832941973,962,276,0,0,0,0,1,1,1,0001-00-0000-45.png,0005-00-0001-94.png
00000009,358,0,1446832944885,1446832944893,872,388,0,0,0,3,4,1,7,0002-00-0001-48.png,0004-00-0001-52.png
00000009,359,1,1446832948043,1446832948063,892,325,0,0,0,3,2,1,5,0002-00-0000-92.png,0003-00-0001-57.png
00000009,360,1,1446832949068,1446832950039,939,339,0,0,0,4,3,1,7,0004-00-0001-88.png,0002-00-0000-37.png
00000009,361,1,1446832950941,1446832950974,913,384,0,0,0,3,2,1,5,0002-00-0000-96.png,0003-00-0001-29.png
00000009,362,0,1446832952009,1446832952045,866,446,0,0,0,2,3,1,5,0003-00-0001-90.png,0002-00-0000-49.png
00000009,363,1,1446832954913,1446832955455,939,372,0,0,0,2,1,1,3,0003-00-0001-42.png,0005-00-0000-03.png
00000009,364,0,1446832956322,1446832957349,1067,270,0,0,0,0,1,1,1,0001-00-0000-45.png,0005-00-0001-02.png
00000009,365,0,1446832960269,1446832960823,491,270,0,0,0,1,0,1,1,0005-00-0001-32.png,0001-00-0001-47.png
00000009,366,1,1446832963926,1446832964579,939,351,0,0,0,4,3,1,7,0004-00-0001-39.png,0002-00-0001-77.png
00000009,367,1,1446832966141,1446832966695,508,243,0,0,0,3,4,1,7,0002-00-0000-05.png,0004-00-0001-16.png
00000009,368,1,1446832967627,1446832968512,506,238,0,0,0,1,2,1,3,0005-00-0001-97.png,0003-00-0001-85.png
00000009,369,0,1446832969458,1446832970463,1041,253,0,0,0,2,3,1,5,0003-00-0001-69.png,0002-00-0000-86.png
00000009,370,0,1446832973652,1446832973660,905,322,0,0,0,1,2,1,3,0005-00-0000-73.png,0003-00-0001-46.png
00000009,371,1,1446832976647,1446832977170,918,370,0,0,0,1,0,1,1,0005-00-0001-54.png,0001-00-0000-03.png
00000009,372,0,1446832978593,1446832978677,866,463,0,0,0,0,1,1,1,0001-00-0000-29.png,0005-00-0000-82.png
00000009,373,0,1446832981842,1446832982391,510,277,0,0,0,3,2,1,5,0002-00-0001-46.png,0003-00-0000-95.png
00000009,374,1,1446832985269,1446832985736,388,358,0,0,0,3,4,1,7,0002-00-0000-13.png,0004-00-0001-65.png
00000009,375,1,1446832986667,1446832987677,1016,315,0,0,0,4,3,1,7,0004-00-0001-70.png,0002-00-0001-15.png
00000009,376,1,1446832988591,1446832988619,875,493,0,0,0,2,1,1,3,0003-00-0001-24.png,0005-00-0001-54.png
00000009,377,0,1446832989706,1446832990788,428,343,0,0,0,3,2,1,5,0002-00-0000-63.png,0003-00-0001-00.png
00000009,378,1,1446832993878,1446832993930,871,324,0,0,0,1,0,1,1,0005-00-0001-23.png,0001-00-0001-66.png
00000009,379,0,1446832995456,1446832996095,1039,257,0,0,0,1,2,1,3,0005-00-0000-53.png,0003-00-0001-81.png
00000009,380,1,1446832999102,1446832999856,496,273,0,0,0,3,4,1,7,0002-00-0001-54.png,0004-00-0001-11.png
00000009,381,1,1446833000703,1446833000765,902,496,0,0,0,4,3,1,7,0004-00-0000-97.png,0002-00-0001-50.png
00000009,382,1,1446833002047,1446833002966,908,313,0,0,0,2,1,1,3,0003-00-0001-44.png,0005-00-0000-35.png
00000009,383,0,1446833003902,1446833003952,888,463,0,0,0,2,3,1,5,0003-00-0000-57.png,0002-00-0000-41.png
00000009,384,0,1446833007232,1446833007260,867,334,0,0,0,0,1,1,1,0001-00-0000-98.png,0005-00-0000-28.png
00000009,385,1,1446833010325,1446833010363,912,325,0,0,0,4,3,1,7,0004-00-0000-88.png,0002-00-0001-47.png
00000009,386,0,1446833011258,1446833011306,864,468,0,0,0,1,2,1,3,0005-00-0000-21.png,0003-00-0000-81.png
00000009,387,1,1446833014280,1446833014388,868,420,0,0,0,2,1,1,3,0003-00-0000-03.png,0005-00-0000-43.png
00000009,388,1,1446833015432,1446833016316,933,366,0,0,0,1,0,1,1,0005-00-0001-54.png,0001-00-0000-31.png
00000009,389,1,1446833017227,1446833018271,442,341,0,0,0,3,4,1,7,0002-00-0001-59.png,0004-00-0001-71.png
00000009,390,1,1446833019295,1446833019315,862,488,0,0,0,3,2,1,5,0002-00-0001-17.png,0003-00-0001-22.png
00000009,391,1,1446833020535,1446833021486,515,253,0,0,0,0,1,1,1,0001-00-0000-98.png,0005-00-0000-39.png
00000009,392,0,1446833022404,1446833022487,865,529,0,0,0,2,3,1,5,0003-00-0000-22.png,0002-00-0001-33.png
00000009,393,1,1446833025358,1446833025883,1041,253,0,0,0,3,2,1,5,0002-00-0001-38.png,0003-00-0000-48.png
00000009,394,1,1446833027385,1446833027945,925,328,0,0,0,2,1,1,3,0003-00-0000-93.png,0005-00-0000-83.png
00000009,395,0,1446833028827,1446833028863,887,463,0,0,0,3,4,1,7,0002-00-0000-15.png,0004-00-0001-43.png
00000009,396,1,1446833032005,1446833032036,896,294,0,0,0,4,3,1,7,0004-00-0001-70.png,0002-00-0001-43.png
00000009,397,1,1446833032912,1446833033931,1039,310,0,0,0,1,0,1,1,0005-00-0001-80.png,0001-00-0000-23.png
00000009,398,0,1446833034857,1446833034873,870,448,0,0,0,1,2,1,3,0005-00-0000-05.png,0003-00-0001-56.png
00000009,399,1,1446833038009,1446833038510,507,280,0,0,0,0,1,1,1,0001-00-0000-58.png,0005-00-0001-98.png
00000009,400,0,1446833039334,1446833040241,1055,295,0,0,0,2,3,1,5,0003-00-0001-69.png,0002-00-0000-82.png
00000009,401,1,1446833043433,1446833044001,939,342,0,0,0,4,3,1,7,0004-00-0001-49.png,0002-00-0001-86.png
00000009,402,0,1446833044862,1446833045654,1036,282,0,0,0,2,3,1,5,0003-00-0001-57.png,0002-00-0000-84.png
00000009,403,1,1446833048733,1446833049227,478,277,0,0,0,0,1,1,1,0001-00-0001-79.png,0005-00-0001-92.png
00000009,404,1,1446833050620,1446833051267,1044,306,0,0,0,2,1,1,3,0003-00-0000-70.png,0005-00-0000-32.png
00000009,405,1,1446833052096,1446833052865,1063,255,0,0,0,1,0,1,1,0005-00-0000-77.png,0001-00-0001-58.png
00000009,406,1,1446833053791,1446833053827,913,452,0,0,0,3,2,1,5,0002-00-0000-00.png,0003-00-0001-41.png
00000009,407,0,1446833055022,1446833055068,875,473,0,0,0,3,4,1,7,0002-00-0000-90.png,0004-00-0000-99.png
00000009,408,0,1446833058008,1446833058062,910,331,0,0,0,1,2,1,3,0005-00-0001-92.png,0003-00-0000-36.png
00000009,409,1,1446833061214,1446833061716,510,272,0,0,0,1,2,1,3,0005-00-0000-99.png,0003-00-0001-01.png
00000009,410,1,1446833062543,1446833063727,517,231,0,0,0,3,4,1,7,0002-00-0000-99.png,0004-00-0000-20.png
00000009,411,1,1446833064603,1446833064639,861,455,0,0,0,1,0,1,1,0005-00-0001-22.png,0001-00-0001-08.png
00000009,412,1,1446833065702,1446833065765,862,477,0,0,0,3,2,1,5,0002-00-0000-96.png,0003-00-0000-18.png
00000009,413,1,1446833066966,1446833067015,888,514,0,0,0,4,3,1,7,0004-00-0000-17.png,0002-00-0001-50.png
00000009,414,1,1446833068175,1446833068191,886,528,0,0,0,2,1,1,3,0003-00-0000-09.png,0005-00-0000-10.png
00000009,415,1,1446833070751,1446833071785,477,267,0,0,0,2,3,1,5,0003-00-0001-19.png,0002-00-0001-17.png
00000009,416,0,1446833072677,1446833072717,860,495,0,0,0,0,1,1,1,0001-00-0000-02.png,0005-00-0001-55.png
00000009,417,0,1446833075692,1446833076377,942,340,0,0,0,3,4,1,7,0002-00-0001-89.png,0004-00-0001-48.png
00000009,418,1,1446833079478,1446833080050,510,270,0,0,0,1,2,1,3,0005-00-0001-78.png,0003-00-0001-10.png
00000009,419,1,1446833081508,1446833083083,447,245,0,0,0,2,3,1,5,0003-00-0001-12.png,0002-00-0000-10.png
00000009,420,1,1446833084049,1446833085059,939,328,0,0,0,4,3,1,7,0004-00-0001-25.png,0002-00-0001-34.png
00000009,421,1,1446833085997,1446833086013,859,462,0,0,0,2,1,1,3,0003-00-0000-94.png,0005-00-0001-84.png
00000009,422,0,1446833087110,1446833088202,523,255,0,0,0,1,0,1,1,0005-00-0001-66.png,0001-00-0000-06.png
00000009,423,0,1446833091950,1446833092524,501,277,0,0,0,3,2,1,5,0002-00-0001-26.png,0003-00-0001-53.png
00000009,424,0,1446833095567,1446833095587,865,382,0,0,0,0,1,1,1,0001-00-0000-95.png,0005-00-0001-93.png
00000009,425,0,1446833098737,1446833098765,906,288,0,0,0,0,1,1,1,0001-00-0000-83.png,0005-00-0001-24.png
00000009,426,0,1446833101879,1446833101919,923,327,0,0,0,1,2,1,3,0005-00-0000-37.png,0003-00-0000-22.png
00000009,427,1,1446833104906,1446833104926,943,337,0,0,0,4,3,1,7,0004-00-0001-26.png,0002-00-0001-97.png
00000009,428,1,1446833105863,1446833106794,1047,245,0,0,0,3,2,1,5,0002-00-0001-18.png,0003-00-0000-10.png
00000009,429,1,1446833107741,1446833107781,872,414,0,0,0,2,1,1,3,0003-00-0000-90.png,0005-00-0000-81.png
00000009,430,1,1446833108764,1446833108812,872,488,0,0,0,1,0,1,1,0005-00-0001-21.png,0001-00-0000-53.png
00000009,431,0,1446833109978,1446833110070,877,488,0,0,0,2,3,1,5,0003-00-0000-94.png,0002-00-0001-81.png
00000009,432,0,1446833113000,1446833113580,913,401,0,0,0,3,4,1,7,0002-00-0001-49.png,0004-00-0001-66.png
00000009,433,0,1446833116675,1446833117188,478,262,0,0,0,1,0,1,1,0005-00-0001-71.png,0001-00-0000-19.png
00000009,434,0,1446833120329,1446833120369,886,306,0,0,0,3,4,1,7,0002-00-0001-64.png,0004-00-0001-44.png
00000009,435,0,1446833123549,1446833123580,944,305,0,0,0,1,2,1,3,0005-00-0000-69.png,0003-00-0000-82.png
00000009,436,1,1446833126750,1446833126790,913,279,0,0,0,3,2,1,5,0002-00-0001-59.png,0003-00-0000-86.png
00000009,437,0,1446833127673,1446833127742,858,414,0,0,0,0,1,1,1,0001-00-0000-85.png,0005-00-0000-14.png
00000009,438,0,1446833130872,1446833130923,862,342,0,0,0,2,3,1,5,0003-00-0000-67.png,0002-00-0000-22.png
00000009,439,1,1446833133982,1446833134042,925,354,0,0,0,2,1,1,3,0003-00-0000-25.png,0005-00-0000-24.png
00000009,440,1,1446833134966,1446833135006,862,438,0,0,0,4,3,1,7,0004-00-0000-76.png,0002-00-0001-84.png
00000009,441,0,1446833136063,1446833136993,507,258,0,0,0,2,1,1,3,0003-00-0000-66.png,0005-00-0000-75.png
00000009,442,1,1446833140008,1446833140594,488,231,0,0,0,3,4,1,7,0002-00-0001-10.png,0004-00-0000-50.png
00000009,443,1,1446833141504,1446833141576,861,517,0,0,0,4,3,1,7,0004-00-0000-98.png,0002-00-0000-62.png
00000009,444,0,1446833142552,1446833142629,862,504,0,0,0,2,3,1,5,0003-00-0000-08.png,0002-00-0001-36.png
00000009,445,1,1446833145799,1446833145830,886,329,0,0,0,3,2,1,5,0002-00-0001-11.png,0003-00-0001-57.png
00000009,446,0,1446833146724,1446833146780,862,494,0,0,0,0,1,1,1,0001-00-0001-02.png,0005-00-0001-21.png
00000009,447,1,1446833149904,1446833150466,1092,290,0,0,0,1,0,1,1,0005-00-0001-85.png,0001-00-0000-09.png
00000009,448,0,1446833151941,1446833152075,886,554,0,0,0,1,2,1,3,0005-00-0000-93.png,0003-00-0001-12.png
00000009,449,1,1446833155171,1446833155207,888,358,0,0,0,3,2,1,5,0002-00-0001-22.png,0003-00-0001-38.png
00000009,450,1,1446833156096,1446833157382,489,251,0,0,0,3,4,1,7,0002-00-0001-18.png,0004-00-0000-11.png
00000009,451,1,1446833158320,1446833159422,510,235,0,0,0,0,1,1,1,0001-00-0001-37.png,0005-00-0001-29.png
00000009,452,1,1446833160378,1446833161859,434,417,0,0,0,2,3,1,5,0003-00-0000-57.png,0002-00-0000-92.png
00000009,453,0,1446833163399,1446833163465,862,502,0,0,0,1,2,1,3,0005-00-0000-79.png,0003-00-0001-54.png
00000009,454,1,1446833166529,1446833166596,909,337,0,0,0,1,0,1,1,0005-00-0000-05.png,0001-00-0000-70.png
00000009,455,1,1446833168108,1446833169116,950,426,0,0,0,4,3,1,7,0004-00-0001-81.png,0002-00-0000-93.png
00000009,456,1,1446833170016,1446833170040,863,387,0,0,0,2,1,1,3,0003-00-0000-89.png,0005-00-0000-95.png
00000009,457,1,1446833171176,1446833171200,886,494,0,0,0,1,0,1,1,0005-00-0000-35.png,0001-00-0001-77.png
00000009,458,1,1446833172448,1446833173286,436,353,0,0,0,2,3,1,5,0003-00-0001-11.png,0002-00-0001-26.png
00000009,459,1,1446833174299,1446833174336,859,504,0,0,0,4,3,1,7,0004-00-0000-29.png,0002-00-0000-94.png
00000009,460,0,1446833176787,1446833177380,934,330,0,0,0,1,2,1,3,0005-00-0001-24.png,0003-00-0000-86.png
00000009,461,1,1446833180280,1446833180852,514,282,0,0,0,3,4,1,7,0002-00-0001-98.png,0004-00-0000-75.png
00000009,462,1,1446833181700,1446833182704,1036,307,0,0,0,2,1,1,3,0003-00-0001-52.png,0005-00-0000-63.png
00000009,463,0,1446833183621,1446833183661,862,466,0,0,0,0,1,1,1,0001-00-0000-30.png,0005-00-0001-34.png
00000009,464,0,1446833186692,1446833187204,440,347,0,0,0,3,2,1,5,0002-00-0000-58.png,0003-00-0001-99.png
00000009,465,0,1446833190180,1446833190412,865,357,0,0,0,3,4,1,7,0002-00-0000-35.png,0004-00-0001-31.png
00000009,466,0,1446833193639,1446833193647,860,340,0,0,0,2,3,1,5,0003-00-0000-26.png,0002-00-0000-53.png
00000009,467,1,1446833196529,1446833196562,882,410,0,0,0,3,2,1,5,0002-00-0001-34.png,0003-00-0001-69.png
00000009,468,1,1446833197535,1446833198443,910,358,0,0,0,1,0,1,1,0005-00-0001-06.png,0001-00-0001-60.png
00000009,469,0,1446833199369,1446833199393,866,436,0,0,0,0,1,1,1,0001-00-0001-84.png,0005-00-0001-80.png
00000009,470,1,1446833202574,1446833203076,493,279,0,0,0,1,2,1,3,0005-00-0000-82.png,0003-00-0001-81.png
00000009,471,1,1446833203966,1446833204913,1016,293,0,0,0,4,3,1,7,0004-00-0001-32.png,0002-00-0001-65.png
00000009,472,1,1446833205803,1446833206770,1026,279,0,0,0,2,1,1,3,0003-00-0001-74.png,0005-00-0000-58.png
00000009,473,0,1446833207711,1446833208686,1039,271,0,0,0,2,3,1,5,0003-00-0001-84.png,0002-00-0001-80.png
00000009,474,1,1446833211723,1446833212274,509,262,0,0,0,0,1,1,1,0001-00-0000-46.png,0005-00-0001-32.png
00000009,475,1,1446833213111,1446833213884,939,328,0,0,0,2,1,1,3,0003-00-0000-25.png,0005-00-0001-32.png
00000009,476,0,1446833214794,1446833215974,939,337,0,0,0,3,4,1,7,0002-00-0000-13.png,0004-00-0000-65.png
00000009,477,1,1446833219100,1446833219672,943,328,0,0,0,1,0,1,1,0005-00-0000-74.png,0001-00-0000-55.png
00000009,478,1,1446833221171,1446833221271,897,561,0,0,0,4,3,1,7,0004-00-0001-05.png,0002-00-0001-91.png
00000009,479,0,1446833222368,1446833222392,861,498,0,0,0,1,2,1,3,0005-00-0000-06.png,0003-00-0000-60.png
00000009,480,0,1446833225568,1446833226042,504,291,0,0,0,3,2,1,5,0002-00-0000-84.png,0003-00-0000-05.png
00000009,481,0,1446833229115,1446833229661,931,348,0,0,0,2,3,1,5,0003-00-0000-26.png,0002-00-0000-67.png
00000009,482,1,1446833232683,1446833233426,919,403,0,0,0,3,2,1,5,0002-00-0001-47.png,0003-00-0000-26.png
00000009,483,1,1446833234300,1446833235107,501,263,0,0,0,1,2,1,3,0005-00-0000-31.png,0003-00-0001-86.png
00000009,484,0,1446833236041,1446833237361,373,342,0,0,0,4,3,1,7,0004-00-0001-34.png,0002-00-0000-09.png
00000009,485,0,1446833240443,1446833240483,981,359,0,0,0,0,1,1,1,0001-00-0001-20.png,0005-00-0000-92.png
00000009,486,0,1446833243377,1446833243911,1027,296,0,0,0,3,4,1,7,0002-00-0001-38.png,0004-00-0001-95.png
00000009,487,0,1446833246983,1446833247525,462,244,0,0,0,1,0,1,1,0005-00-0000-46.png,0001-00-0001-46.png
00000009,488,1,1446833250661,1446833251313,1057,300,0,0,0,2,1,1,3,0003-00-0000-75.png,0005-00-0000-14.png
00000009,489,1,1446833252747,1446833252867,913,488,0,0,0,1,0,1,1,0005-00-0001-98.png,0001-00-0000-72.png
00000009,490,0,1446833253937,1446833253961,866,486,0,0,0,0,1,1,1,0001-00-0001-58.png,0005-00-0000-51.png
00000009,491,1,1446833256811,1446833257352,1044,268,0,0,0,4,3,1,7,0004-00-0000-61.png,0002-00-0000-98.png
00000009,492,1,1446833258796,1446833259623,401,354,0,0,0,3,4,1,7,0002-00-0001-50.png,0004-00-0000-16.png
00000009,493,1,1446833261024,1446833261080,866,465,0,0,0,2,1,1,3,0003-00-0001-42.png,0005-00-0001-24.png
00000009,494,0,1446833262078,1446833262134,862,488,0,0,0,2,3,1,5,0003-00-0000-95.png,0002-00-0000-65.png
00000009,495,1,1446833265197,1446833265229,877,356,0,0,0,3,2,1,5,0002-00-0001-98.png,0003-00-0001-48.png
00000009,496,1,1446833266695,1446833267400,507,263,0,0,0,1,2,1,3,0005-00-0001-38.png,0003-00-0001-76.png
00000009,497,0,1446833268925,1446833269012,904,508,0,0,0,0,1,1,1,0001-00-0001-66.png,0005-00-0000-45.png
00000009,498,1,1446833272294,1446833272310,892,326,0,0,0,2,1,1,3,0003-00-0000-12.png,0005-00-0000-10.png
00000009,499,0,1446833273861,1446833274450,919,337,0,0,0,2,3,1,5,0003-00-0001-55.png,0002-00-0000-34.png
00000009,500,0,1446833277297,1446833277317,930,428,0,0,0,3,4,1,7,0002-00-0000-34.png,0004-00-0001-39.png
00000009,501,0,1446833280440,1446833280468,888,332,0,0,0,1,2,1,3,0005-00-0001-60.png,0003-00-0001-90.png
00000009,502,1,1446833283361,1446833283479,979,329,0,0,0,3,2,1,5,0002-00-0000-94.png,0003-00-0001-78.png
00000009,503,1,1446833284415,1446833285397,910,343,0,0,0,4,3,1,7,0004-00-0000-69.png,0002-00-0001-97.png
00000009,504,1,1446833286302,1446833286354,904,462,0,0,0,1,0,1,1,0005-00-0000-76.png,0001-00-0000-37.png
00000009,505,1,1446833287444,1446833287459,857,490,0,0,0,3,2,1,5,0002-00-0000-90.png,0003-00-0000-13.png
00000009,506,1,1446833288798,1446833288886,862,557,0,0,0,4,3,1,7,0004-00-0000-72.png,0002-00-0000-03.png
00000009,507,0,1446833290050,1446833290110,867,522,0,0,0,1,2,1,3,0005-00-0000-44.png,0003-00-0000-13.png
00000009,508,1,1446833292939,1446833292967,865,437,0,0,0,2,1,1,3,0003-00-0001-91.png,0005-00-0000-05.png
00000009,509,1,1446833293876,1446833294752,911,341,0,0,0,1,0,1,1,0005-00-0000-08.png,0001-00-0001-05.png
00000009,510,1,1446833295604,1446833296558,493,241,0,0,0,3,4,1,7,0002-00-0001-19.png,0004-00-0001-67.png
00000009,511,0,1446833297490,1446833297538,883,486,0,0,0,2,3,1,5,0003-00-0001-36.png,0002-00-0000-72.png
00000009,512,0,1446833300674,1446833301843,990,239,0,0,0,0,1,1,1,0001-00-0001-80.png,0005-00-0001-58.png
00000009,513,1,1446833304692,1446833305339,935,350,0,0,0,3,2,1,5,0002-00-0000-97.png,0003-00-0000-98.png
00000009,514,1,1446833306766,1446833307680,917,349,0,0,0,4,3,1,7,0004-00-0001-88.png,0002-00-0000-88.png
00000009,515,0,1446833308542,1446833308574,881,454,0,0,0,3,4,1,7,0002-00-0000-35.png,0004-00-0001-24.png
00000009,516,0,1446833311713,1446833311765,888,306,0,0,0,1,2,1,3,0005-00-0001-44.png,0003-00-0001-49.png
00000009,517,0,1446833314924,1446833314983,924,307,0,0,0,0,1,1,1,0001-00-0001-87.png,0005-00-0000-53.png
00000009,518,1,1446833318101,1446833318395,936,335,0,0,0,1,0,1,1,0005-00-0000-54.png,0001-00-0001-93.png
00000009,519,0,1446833319286,1446833319302,889,449,0,0,0,2,3,1,5,0003-00-0001-56.png,0002-00-0000-53.png
00000009,520,1,1446833322287,1446833322784,938,325,0,0,0,2,1,1,3,0003-00-0000-91.png,0005-00-0000-41.png
00000009,521,0,1446833324213,1446833324273,887,493,0,0,0,0,1,1,1,0001-00-0001-96.png,0005-00-0000-54.png
00000009,522,0,1446833327424,1446833327960,1039,286,0,0,0,2,3,1,5,0003-00-0000-53.png,0002-00-0000-26.png
00000009,523,1,1446833330901,1446833331396,1016,307,0,0,0,4,3,1,7,0004-00-0001-63.png,0002-00-0001-10.png
00000009,524,0,1446833332894,1446833333644,496,280,0,0,0,1,0,1,1,0005-00-0000-08.png,0001-00-0001-75.png
00000009,525,1,1446833337165,1446833337871,1086,316,0,0,0,3,2,1,5,0002-00-0001-55.png,0003-00-0001-33.png
00000009,526,1,1446833339342,1446833340375,487,238,0,0,0,1,2,1,3,0005-00-0000-13.png,0003-00-0000-76.png
00000009,527,1,1446833341745,1446833342415,935,356,0,0,0,2,1,1,3,0003-00-0000-94.png,0005-00-0000-44.png
00000009,528,1,1446833343369,1446833344551,507,247,0,0,0,3,4,1,7,0002-00-0001-94.png,0004-00-0001-91.png
00000009,529,1,1446833345540,1446833346631,522,267,0,0,0,2,3,1,5,0003-00-0000-05.png,0002-00-0001-04.png
00000009,530,0,1446833347578,1446833349061,493,251,0,0,0,2,1,1,3,0003-00-0001-39.png,0005-00-0001-25.png
00000009,531,0,1446833352229,1446833352265,879,318,0,0,0,3,4,1,7,0002-00-0001-73.png,0004-00-0001-44.png
00000009,532,1,1446833355209,1446833355766,923,328,0,0,0,4,3,1,7,0004-00-0000-60.png,0002-00-0001-87.png
00000009,533,1,1446833356629,1446833356669,875,437,0,0,0,3,2,1,5,0002-00-0000-53.png,0003-00-0000-07.png
00000009,534,0,1446833357643,1446833357671,863,464,0,0,0,0,1,1,1,0001-00-0000-74.png,0005-00-0001-53.png
00000009,535,1,1446833360725,1446833361222,949,298,0,0,0,1,0,1,1,0005-00-0001-08.png,0001-00-0001-30.png
00000009,536,1,1446833362524,1446833363506,493,240,0,0,0,1,2,1,3,0005-00-0000-15.png,0003-00-0001-63.png
00000009,537,1,1446833364480,1446833365538,1041,306,0,0,0,1,0,1,1,0005-00-0000-49.png,0001-00-0001-76.png
00000009,538,0,1446833367163,1446833367207,862,447,0,0,0,1,2,1,3,0005-00-0001-30.png,0003-00-0000-36.png
00000009,539,0,1446833370193,1446833370688,417,365,0,0,0,3,2,1,5,0002-00-0000-28.png,0003-00-0001-92.png
00000009,540,0,1446833373723,1446833374423,1089,264,0,0,0,0,1,1,1,0001-00-0001-15.png,0005-00-0001-56.png
00000009,541,0,1446833377558,1446833377586,907,356,0,0,0,2,3,1,5,0003-00-0001-61.png,0002-00-0000-29.png
00000009,542,1,1446833380706,1446833381488,497,267,0,0,0,3,4,1,7,0002-00-0000-24.png,0004-00-0000-44.png
00000009,543,1,1446833382315,1446833383299,934,320,0,0,0,2,1,1,3,0003-00-0001-20.png,0005-00-0001-78.png
00000009,544,1,1446833384196,1446833384240,892,435,0,0,0,4,3,1,7,0004-00-0001-19.png,0002-00-0000-37.png
00000009,545,1,1446833385290,1446833386827,1049,278,0,0,0,4,3,1,7,0004-00-0000-34.png,0002-00-0001-18.png
00000009,546,0,1446833387785,1446833388852,938,333,0,0,0,2,3,1,5,0003-00-0001-93.png,0002-00-0001-95.png
00000009,547,0,1446833391986,1446833392642,1092,279,0,0,0,0,1,1,1,0001-00-0001-97.png,0005-00-0000-82.png
00000009,548,0,1446833395700,1446833395776,882,338,0,0,0,3,4,1,7,0002-00-0001-86.png,0004-00-0001-74.png
00000009,549,0,1446833398925,1446833399414,500,258,0,0,0,3,2,1,5,0002-00-0001-33.png,0003-00-0000-35.png
00000009,550,1,1446833402380,1446833402412,909,357,0,0,0,1,0,1,1,0005-00-0001-60.png,0001-00-0001-66.png
00000009,551,1,1446833403314,1446833404076,917,348,0,0,0,2,1,1,3,0003-00-0001-94.png,0005-00-0001-37.png
00000009,552,1,1446833405014,1446833406055,507,249,0,0,0,1,2,1,3,0005-00-0001-17.png,0003-00-0000-79.png
00000009,553,1,1446833406971,1446833407047,888,475,0,0,0,1,0,1,1,0005-00-0001-57.png,0001-00-0001-46.png
00000009,554,0,1446833408186,1446833409115,1042,275,0,0,0,2,3,1,5,0003-00-0001-98.png,0002-00-0000-19.png
00000009,555,1,1446833412239,1446833412804,477,269,0,0,0,3,4,1,7,0002-00-0000-44.png,0004-00-0000-32.png
00000009,556,1,1446833413648,1446833414589,1025,280,0,0,0,3,2,1,5,0002-00-0000-83.png,0003-00-0001-04.png
00000009,557,1,1446833415578,1446833415634,878,469,0,0,0,2,1,1,3,0003-00-0000-23.png,0005-00-0000-24.png
00000009,558,0,1446833416591,1446833417463,438,331,0,0,0,4,3,1,7,0004-00-0000-00.png,0002-00-0000-26.png
00000009,559,1,1446833420406,1446833420943,414,400,0,0,0,0,1,1,1,0001-00-0001-20.png,0005-00-0000-88.png
00000009,560,1,1446833421798,1446833422586,418,384,0,0,0,1,2,1,3,0005-00-0000-27.png,0003-00-0001-34.png
00000009,561,0,1446833423530,1446833423554,881,438,0,0,0,0,1,1,1,0001-00-0000-21.png,0005-00-0000-63.png
00000009,562,0,1446833426478,1446833427001,444,417,0,0,0,2,1,1,3,0003-00-0001-07.png,0005-00-0001-50.png
00000009,563,1,1446833430224,1446833430232,898,304,0,0,0,1,0,1,1,0005-00-0000-08.png,0001-00-0001-71.png
00000009,564,1,1446833431187,1446833431948,393,363,0,0,0,3,4,1,7,0002-00-0000-32.png,0004-00-0000-90.png
00000009,565,1,1446833432857,1446833433995,1045,304,0,0,0,4,3,1,7,0004-00-0000-79.png,0002-00-0000-29.png
00000009,566,0,1446833434934,1446833434942,882,436,0,0,0,1,2,1,3,0005-00-0000-66.png,0003-00-0000-07.png
00000009,567,0,1446833437927,1446833437965,890,396,0,0,0,2,3,1,5,0003-00-0000-79.png,0002-00-0000-51.png
00000009,568,1,1446833441103,1446833441115,869,327,0,0,0,3,2,1,5,0002-00-0000-95.png,0003-00-0000-72.png
00000009,569,0,1446833442033,1446833442896,1032,303,0,0,0,1,2,1,3,0005-00-0001-37.png,0003-00-0000-40.png
00000009,570,0,1446833445987,1446833446011,900,352,0,0,0,2,3,1,5,0003-00-0001-64.png,0002-00-0000-07.png
00000009,571,0,1446833449155,1446833449253,884,291,0,0,0,3,4,1,7,0002-00-0001-01.png,0004-00-0000-11.png
00000009,572,1,1446833452155,1446833452203,859,407,0,0,0,2,1,1,3,0003-00-0001-88.png,0005-00-0001-99.png
00000009,573,0,1446833453140,1446833453176,886,427,0,0,0,0,1,1,1,0001-00-0000-94.png,0005-00-0000-87.png
00000009,574,1,1446833456081,1446833456109,891,367,0,0,0,3,2,1,5,0002-00-0000-64.png,0003-00-0000-27.png
00000009,575,0,1446833457042,1446833458197,509,259,0,0,0,4,3,1,7,0004-00-0000-58.png,0002-00-0000-74.png
00000009,576,1,1446833461288,1446833461588,980,253,0,0,0,1,0,1,1,0005-00-0001-91.png,0001-00-0000-53.png
00000009,577,1,1446833462489,1446833462545,865,490,0,0,0,1,0,1,1,0005-00-0001-04.png,0001-00-0000-99.png
00000009,578,0,1446833463511,1446833463563,862,451,0,0,0,3,4,1,7,0002-00-0001-55.png,0004-00-0001-27.png
00000009,579,0,1446833466720,1446833467226,918,348,0,0,0,2,3,1,5,0003-00-0001-37.png,0002-00-0000-98.png
00000009,580,1,1446833470064,1446833470713,476,227,0,0,0,1,2,1,3,0005-00-0001-80.png,0003-00-0000-53.png
00000009,581,1,1446833471551,1446833472499,915,359,0,0,0,2,1,1,3,0003-00-0000-48.png,0005-00-0001-25.png
00000009,582,1,1446833473459,1446833474312,940,319,0,0,0,4,3,1,7,0004-00-0001-40.png,0002-00-0001-41.png
00000009,583,1,1446833475322,1446833476484,496,261,0,0,0,0,1,1,1,0001-00-0001-68.png,0005-00-0001-56.png
00000009,584,1,1446833477882,1446833477946,888,451,0,0,0,3,2,1,5,0002-00-0000-26.png,0003-00-0000-65.png
00000009,585,1,1446833478944,1446833479866,417,366,0,0,0,0,1,1,1,0001-00-0000-07.png,0005-00-0001-81.png
00000009,586,0,1446833480804,1446833480844,862,500,0,0,0,2,3,1,5,0003-00-0001-66.png,0002-00-0001-62.png
00000009,587,1,1446833483745,1446833484298,508,264,0,0,0,1,2,1,3,0005-00-0001-16.png,0003-00-0000-61.png
00000009,588,1,1446833485144,1446833485978,412,363,0,0,0,3,4,1,7,0002-00-0000-38.png,0004-00-0001-20.png
00000009,589,1,1446833486883,1446833486891,859,447,0,0,0,4,3,1,7,0004-00-0001-97.png,0002-00-0001-87.png
00000009,590,1,1446833487968,1446833488027,860,489,0,0,0,3,2,1,5,0002-00-0001-81.png,0003-00-0000-00.png
00000009,591,1,1446833489407,1446833489439,878,514,0,0,0,2,1,1,3,0003-00-0000-41.png,0005-00-0001-02.png
00000009,592,0,1446833490588,1446833491851,389,345,0,0,0,1,0,1,1,0005-00-0001-66.png,0001-00-0000-93.png
00000009,593,0,1446833494990,1446833495529,497,267,0,0,0,4,3,1,7,0004-00-0001-21.png,0002-00-0000-70.png
00000009,594,0,1446833498732,1446833499272,939,332,0,0,0,0,1,1,1,0001-00-0001-78.png,0005-00-0000-35.png
00000009,595,0,1446833502396,1446833502432,895,316,0,0,0,3,4,1,7,0002-00-0001-27.png,0004-00-0001-49.png
00000009,596,0,1446833505269,1446833505796,1045,273,0,0,0,2,3,1,5,0003-00-0000-51.png,0002-00-0001-08.png
00000009,597,1,1446833509245,1446833509289,869,279,0,0,0,2,1,1,3,0003-00-0000-62.png,0005-00-0000-64.png
00000009,598,0,1446833510230,1446833511256,403,325,0,0,0,1,0,1,1,0005-00-0000-04.png,0001-00-0000-57.png
00000009,599,0,1446833514193,1446833514739,1065,259,0,0,0,1,2,1,3,0005-00-0001-73.png,0003-00-0001-83.png
00000009,600,1,1446833517860,1446833517916,877,303,0,0,0,3,2,1,5,0002-00-0001-37.png,0003-00-0001-76.png
00000009,601,1,1446833518801,1446833519607,404,352,0,0,0,3,4,1,7,0002-00-0000-86.png,0004-00-0000-06.png
00000009,602,1,1446833520524,1446833520552,884,415,0,0,0,3,2,1,5,0002-00-0000-61.png,0003-00-0001-26.png
00000009,603,1,1446833521525,1446833521592,878,471,0,0,0,1,0,1,1,0005-00-0000-95.png,0001-00-0001-35.png
00000009,604,1,1446833522741,1446833523553,439,320,0,0,0,1,2,1,3,0005-00-0001-22.png,0003-00-0001-46.png
00000009,605,0,1446833524497,1446833524557,881,466,0,0,0,2,3,1,5,0003-00-0000-44.png,0002-00-0001-01.png
00000009,606,1,1446833527469,1446833528113,481,289,0,0,0,0,1,1,1,0001-00-0000-63.png,0005-00-0001-68.png
00000009,607,1,1446833529585,1446833529673,885,454,0,0,0,4,3,1,7,0004-00-0000-86.png,0002-00-0001-30.png
00000009,608,1,1446833530610,1446833530671,867,484,0,0,0,2,1,1,3,0003-00-0001-26.png,0005-00-0000-91.png
00000009,609,1,1446833531700,1446833532536,411,350,0,0,0,3,4,1,7,0002-00-0000-08.png,0004-00-0000-04.png
00000009,610,0,1446833533518,1446833534618,1040,264,0,0,0,2,3,1,5,0003-00-0001-79.png,0002-00-0000-52.png
00000009,611,0,1446833537855,1446833538396,460,275,0,0,0,1,0,1,1,0005-00-0001-97.png,0001-00-0001-24.png
00000009,612,1,1446833541412,1446833541946,1013,289,0,0,0,4,3,1,7,0004-00-0001-43.png,0002-00-0000-29.png
00000009,613,1,1446833543296,1446833543368,862,462,0,0,0,3,2,1,5,0002-00-0001-51.png,0003-00-0001-87.png
00000009,614,1,1446833544412,1446833545154,486,269,0,0,0,0,1,1,1,0001-00-0000-18.png,0005-00-0000-09.png
00000009,615,0,1446833545978,1446833546045,862,489,0,0,0,1,2,1,3,0005-00-0000-34.png,0003-00-0000-65.png
00000009,616,1,1446833548930,1446833549460,1016,281,0,0,0,2,1,1,3,0003-00-0000-07.png,0005-00-0001-00.png
00000009,617,1,1446833550643,1446833551357,918,329,0,0,0,1,0,1,1,0005-00-0001-08.png,0001-00-0001-97.png
00000009,618,0,1446833552758,1446833552818,860,489,0,0,0,1,2,1,3,0005-00-0000-69.png,0003-00-0001-62.png
00000009,619,0,1446833556119,1446833556701,1016,301,0,0,0,0,1,1,1,0001-00-0000-22.png,0005-00-0001-90.png
00000009,620,1,1446833559832,1446833559901,900,328,0,0,0,4,3,1,7,0004-00-0000-94.png,0002-00-0001-46.png
00000009,621,0,1446833561331,1446833561383,888,418,0,0,0,3,4,1,7,0002-00-0001-48.png,0004-00-0001-15.png
00000009,622,0,1446833564317,1446833564861,502,252,0,0,0,3,2,1,5,0002-00-0001-45.png,0003-00-0001-32.png
00000009,623,1,1446833568387,1446833568864,1037,274,0,0,0,2,1,1,3,0003-00-0000-85.png,0005-00-0000-44.png
00000009,624,0,1446833570248,1446833570945,921,350,0,0,0,2,3,1,5,0003-00-0000-35.png,0002-00-0001-42.png
00000009,625,1,1446833573814,1446833573830,862,332,0,0,0,3,2,1,5,0002-00-0001-95.png,0003-00-0000-24.png
00000009,626,1,1446833574731,1446833575662,500,233,0,0,0,1,2,1,3,0005-00-0000-91.png,0003-00-0000-34.png
00000009,627,1,1446833576580,1446833577393,906,331,0,0,0,4,3,1,7,0004-00-0001-28.png,0002-00-0001-14.png
00000009,628,1,1446833578394,1446833579456,504,239,0,0,0,3,4,1,7,0002-00-0001-56.png,0004-00-0000-04.png
00000009,629,0,1446833580366,1446833581159,510,245,0,0,0,1,0,1,1,0005-00-0000-88.png,0001-00-0000-31.png
00000009,630,0,1446833584359,1446833584418,917,309,0,0,0,0,1,1,1,0001-00-0001-40.png,0005-00-0001-53.png
00000009,631,0,1446833587529,1446833587549,892,310,0,0,0,2,3,1,5,0003-00-0001-65.png,0002-00-0001-28.png
00000009,632,1,1446833590543,1446833590579,869,379,0,0,0,2,1,1,3,0003-00-0001-27.png,0005-00-0001-29.png
00000009,633,1,1446833591497,1446833592429,1041,300,0,0,0,2,1,1,3,0003-00-0000-04.png,0005-00-0001-91.png
00000009,634,0,1446833593414,1446833593433,869,386,0,0,0,0,1,1,1,0001-00-0000-05.png,0005-00-0000-20.png
00000009,635,1,1446833596486,1446833597070,1042,283,0,0,0,3,2,1,5,0002-00-0001-85.png,0003-00-0001-33.png
00000009,636,1,1446833597967,1446833597987,893,400,0,0,0,4,3,1,7,0004-00-0000-94.png,0002-00-0001-03.png
00000009,637,1,1446833598987,1446833599874,505,251,0,0,0,1,2,1,3,0005-00-0001-37.png,0003-00-0001-73.png
00000009,638,1,1446833600730,1446833601817,490,252,0,0,0,3,4,1,7,0002-00-0000-79.png,0004-00-0000-77.png
00000009,639,0,1446833602822,1446833603655,430,337,0,0,0,1,0,1,1,0005-00-0000-30.png,0001-00-0001-84.png
00000009,640,0,1446833606770,1446833607331,960,407,0,0,0,2,3,1,5,0003-00-0000-18.png,0002-00-0001-94.png
00000009,641,1,1446833610218,1446833610752,507,267,0,0,0,1,2,1,3,0005-00-0000-34.png,0003-00-0000-26.png
00000009,642,1,1446833611646,1446833612415,940,347,0,0,0,2,1,1,3,0003-00-0001-37.png,0005-00-0001-24.png
00000009,643,1,1446833613284,1446833614060,516,239,0,0,0,0,1,1,1,0001-00-0001-36.png,0005-00-0000-44.png
00000009,644,0,1446833614945,1446833615943,493,246,0,0,0,3,2,1,5,0002-00-0000-58.png,0003-00-0001-79.png
00000009,645,1,1446833618883,1446833619477,513,262,0,0,0,2,3,1,5,0003-00-0001-47.png,0002-00-0001-39.png
00000009,646,1,1446833620312,1446833621209,926,364,0,0,0,4,3,1,7,0004-00-0000-35.png,0002-00-0000-48.png
00000009,647,1,1446833622070,1446833622884,504,264,0,0,0,3,4,1,7,0002-00-0001-02.png,0004-00-0001-01.png
00000009,648,0,1446833623738,1446833624622,522,260,0,0,0,1,0,1,1,0005-00-0001-32.png,0001-00-0001-22.png
00000009,649,0,1446833627656,1446833628154,935,355,0,0,0,2,3,1,5,0003-00-0000-79.png,0002-00-0000-84.png
00000009,650,0,1446833631414,1446833631430,926,313,0,0,0,0,1,1,1,0001-00-0001-66.png,0005-00-0001-15.png
00000009,651,1,1446833634613,1446833634641,868,332,0,0,0,3,2,1,5,0002-00-0000-11.png,0003-00-0001-84.png
00000009,652,0,1446833635558,1446833636348,489,226,0,0,0,1,0,1,1,0005-00-0001-86.png,0001-00-0001-34.png
00000009,653,1,1446833639432,1446833639926,912,330,0,0,0,2,1,1,3,0003-00-0000-24.png,0005-00-0000-76.png
00000009,654,0,1446833640781,1446833641717,486,244,0,0,0,4,3,1,7,0004-00-0001-12.png,0002-00-0001-77.png
00000009,655,0,1446833644622,1446833644642,862,369,0,0,0,1,2,1,3,0005-00-0000-11.png,0003-00-0000-10.png
00000009,656,1,1446833647490,1446833648040,496,246,0,0,0,3,4,1,7,0002-00-0001-73.png,0004-00-0001-37.png
00000009,657,1,1446833648881,1446833649719,1044,274,0,0,0,2,1,1,3,0003-00-0000-06.png,0005-00-0001-54.png
00000009,658,0,1446833650610,1446833650650,903,429,0,0,0,3,4,1,7,0002-00-0000-56.png,0004-00-0001-01.png
00000009,659,0,1446833653712,1446833654236,952,326,0,0,0,2,3,1,5,0003-00-0000-99.png,0002-00-0000-63.png
00000009,660,0,1446833657415,1446833657864,482,301,0,0,0,3,2,1,5,0002-00-0001-81.png,0003-00-0000-06.png
00000009,661,0,1446833661066,1446833661526,1047,261,0,0,0,0,1,1,1,0001-00-0001-37.png,0005-00-0000-37.png
00000009,662,0,1446833665138,1446833665158,886,328,0,0,0,1,2,1,3,0005-00-0001-64.png,0003-00-0001-59.png
00000009,663,1,1446833668237,1446833668257,888,358,0,0,0,4,3,1,7,0004-00-0000-82.png,0002-00-0000-61.png
00000009,664,1,1446833669242,1446833669262,858,414,0,0,0,1,0,1,1,0005-00-0000-18.png,0001-00-0001-98.png
00000009,665,1,1446833670304,1446833671409,1041,245,0,0,0,2,1,1,3,0003-00-0000-91.png,0005-00-0001-35.png
00000009,666,1,1446833672304,1446833672316,885,421,0,0,0,1,0,1,1,0005-00-0000-14.png,0001-00-0001-65.png
00000009,667,0,1446833673327,1446833673383,862,452,0,0,0,1,2,1,3,0005-00-0000-24.png,0003-00-0001-68.png
00000009,668,1,1446833676396,1446833676916,509,242,0,0,0,3,4,1,7,0002-00-0000-66.png,0004-00-0001-89.png
00000009,669,1,1446833678286,1446833679105,501,270,0,0,0,0,1,1,1,0001-00-0000-13.png,0005-00-0000-88.png
00000009,670,0,1446833679941,1446833680718,434,368,0,0,0,4,3,1,7,0004-00-0001-66.png,0002-00-0001-34.png
00000009,671,0,1446833683949,1446833683969,907,307,0,0,0,2,3,1,5,0003-00-0001-26.png,0002-00-0000-90.png
00000009,672,0,1446833687169,1446833687708,505,290,0,0,0,3,2,1,5,0002-00-0000-01.png,0003-00-0001-16.png
00000009,673,1,1446833690784,1446833691268,1065,278,0,0,0,1,0,1,1,0005-00-0000-02.png,0001-00-0000-58.png
00000009,674,0,1446833692097,1446833692173,868,448,0,0,0,1,2,1,3,0005-00-0001-40.png,0003-00-0000-11.png
00000009,675,0,1446833695147,1446833696118,387,372,0,0,0,4,3,1,7,0004-00-0000-77.png,0002-00-0001-26.png
00000009,676,1,1446833699264,1446833699292,913,341,0,0,0,3,2,1,5,0002-00-0000-47.png,0003-00-0000-76.png
00000009,677,0,1446833700267,1446833700995,888,336,0,0,0,2,3,1,5,0003-00-0000-97.png,0002-00-0000-54.png
00000009,678,1,1446833703891,1446833704429,921,340,0,0,0,2,1,1,3,0003-00-0000-77.png,0005-00-0000-88.png
00000009,679,0,1446833705272,1446833705304,858,419,0,0,0,0,1,1,1,0001-00-0001-66.png,0005-00-0001-25.png
00000009,680,1,1446833708145,1446833708635,410,389,0,0,0,3,4,1,7,0002-00-0001-50.png,0004-00-0001-54.png
00000009,681,1,1446833709975,1446833710058,888,462,0,0,0,2,1,1,3,0003-00-0001-42.png,0005-00-0001-80.png
00000009,682,0,1446833710976,1446833711036,866,478,0,0,0,2,3,1,5,0003-00-0000-46.png,0002-00-0000-51.png
00000009,683,0,1446833714057,1446833714607,495,274,0,0,0,3,2,1,5,0002-00-0000-82.png,0003-00-0000-62.png
00000009,684,0,1446833717606,1446833717630,877,388,0,0,0,3,4,1,7,0002-00-0001-83.png,0004-00-0001-96.png
00000009,685,0,1446833720740,1446833721421,510,248,0,0,0,1,0,1,1,0005-00-0000-27.png,0001-00-0001-53.png
00000009,686,0,1446833724373,1446833724385,916,395,0,0,0,1,2,1,3,0005-00-0001-02.png,0003-00-0000-80.png
00000009,687,0,1446833727476,1446833727731,934,302,0,0,0,0,1,1,1,0001-00-0000-44.png,0005-00-0001-00.png
00000009,688,1,1446833730745,1446833731352,964,373,0,0,0,4,3,1,7,0004-00-0000-04.png,0002-00-0000-81.png
00000009,689,0,1446833732234,1446833733083,939,348,0,0,0,2,3,1,5,0003-00-0001-69.png,0002-00-0000-33.png
00000009,690,1,1446833736269,1446833736318,926,310,0,0,0,3,2,1,5,0002-00-0001-35.png,0003-00-0001-48.png
00000009,691,0,1446833737304,1446833737372,871,475,0,0,0,1,2,1,3,0005-00-0000-95.png,0003-00-0001-13.png
00000009,692,1,1446833740402,1446833740431,913,345,0,0,0,1,0,1,1,0005-00-0001-39.png,0001-00-0001-76.png
00000009,693,1,1446833741347,1446833742197,927,327,0,0,0,4,3,1,7,0004-00-0000-25.png,0002-00-0000-81.png
00000009,694,1,1446833743144,1446833744280,913,349,0,0,0,2,1,1,3,0003-00-0000-76.png,0005-00-0001-76.png
00000009,695,1,1446833745204,1446833746043,516,241,0,0,0,3,4,1,7,0002-00-0000-00.png,0004-00-0001-82.png
00000009,696,0,1446833746992,1446833747032,863,409,0,0,0,0,1,1,1,0001-00-0001-89.png,0005-00-0001-52.png
00000009,697,1,1446833750214,1446833750757,1043,295,0,0,0,2,1,1,3,0003-00-0001-96.png,0005-00-0001-30.png
00000009,698,1,1446833752277,1446833752811,502,265,0,0,0,1,2,1,3,0005-00-0000-88.png,0003-00-0000-07.png
00000009,699,0,1446833753720,1446833754542,504,264,0,0,0,1,0,1,1,0005-00-0001-74.png,0001-00-0000-36.png
00000009,700,1,1446833757464,1446833757492,862,394,0,0,0,4,3,1,7,0004-00-0000-44.png,0002-00-0001-78.png
00000009,701,1,1446833758419,1446833759410,483,246,0,0,0,3,4,1,7,0002-00-0001-87.png,0004-00-0000-35.png
00000009,702,0,1446833760326,1446833761191,523,270,0,0,0,3,2,1,5,0002-00-0001-31.png,0003-00-0001-26.png
00000009,703,0,1446833764206,1446833764272,880,366,0,0,0,2,3,1,5,0003-00-0001-02.png,0002-00-0001-05.png
00000009,704,0,1446833767153,1446833767672,1065,272,0,0,0,0,1,1,1,0001-00-0000-53.png,0005-00-0001-23.png
00000009,705,0,1446833770792,1446833770812,866,332,0,0,0,1,2,1,3,0005-00-0000-89.png,0003-00-0000-30.png
00000009,706,0,1446833773964,1446833773993,915,277,0,0,0,3,4,1,7,0002-00-0001-96.png,0004-00-0000-24.png
00000009,707,0,1446833776925,1446833776981,932,387,0,0,0,2,3,1,5,0003-00-0000-32.png,0002-00-0000-19.png
00000009,708,1,1446833780172,1446833780224,988,287,0,0,0,4,3,1,7,0004-00-0000-35.png,0002-00-0001-61.png
00000009,709,1,1446833781167,1446833781991,924,335,0,0,0,3,2,1,5,0002-00-0000-92.png,0003-00-0001-25.png
00000009,710,1,1446833782876,1446833782916,906,429,0,0,0,1,0,1,1,0005-00-0000-08.png,0001-00-0000-30.png
00000009,711,1,1446833783987,1446833784031,862,488,0,0,0,2,1,1,3,0003-00-0000-18.png,0005-00-0001-14.png
00000009,712,1,1446833785102,1446833786093,511,239,0,0,0,0,1,1,1,0001-00-0000-26.png,0005-00-0000-39.png
00000009,713,1,1446833787001,1446833787998,918,321,0,0,0,3,2,1,5,0002-00-0001-19.png,0003-00-0000-04.png
00000009,714,1,1446833788846,1446833789721,1047,276,0,0,0,4,3,1,7,0004-00-0001-56.png,0002-00-0000-06.png
00000009,715,1,1446833790765,1446833792238,1041,241,0,0,0,1,0,1,1,0005-00-0001-35.png,0001-00-0001-18.png
00000009,716,0,1446833793122,1446833793142,889,431,0,0,0,2,3,1,5,0003-00-0001-86.png,0002-00-0001-54.png
00000009,717,1,1446833797654,1446833798181,412,332,0,0,0,0,1,1,1,0001-00-0000-09.png,0005-00-0001-70.png
00000009,718,1,1446833799053,1446833799838,520,273,0,0,0,1,2,1,3,0005-00-0000-86.png,0003-00-0001-47.png
00000009,719,1,1446833800753,1446833801526,941,345,0,0,0,2,1,1,3,0003-00-0000-86.png,0005-00-0001-58.png
00000009,720,0,1446833802400,1446833802428,865,428,0,0,0,3,4,1,7,0002-00-0000-99.png,0004-00-0001-22.png
00000009,721,1,1446833805613,1446833805649,929,306,0,0,0,4,3,1,7,0004-00-0001-99.png,0002-00-0000-64.png
00000009,722,1,1446833806536,1446833807536,481,251,0,0,0,3,4,1,7,0002-00-0000-69.png,0004-00-0000-74.png
00000009,723,0,1446833808393,1446833809139,518,260,0,0,0,3,2,1,5,0002-00-0001-85.png,0003-00-0001-91.png
00000009,724,1,1446833812181,1446833812742,1043,294,0,0,0,2,1,1,3,0003-00-0000-47.png,0005-00-0001-55.png
00000009,725,0,1446833814165,1446833814227,862,462,0,0,0,0,1,1,1,0001-00-0001-19.png,0005-00-0000-65.png
00000009,726,0,1446833817336,1446833817356,859,325,0,0,0,1,2,1,3,0005-00-0000-48.png,0003-00-0001-68.png
00000009,727,0,1446833820560,1446833820584,904,329,0,0,0,2,3,1,5,0003-00-0000-80.png,0002-00-0000-77.png
00000009,728,1,1446833823729,1446833823769,888,317,0,0,0,1,0,1,1,0005-00-0000-89.png,0001-00-0000-41.png
00000009,729,1,1446833824763,1446833825608,490,239,0,0,0,1,2,1,3,0005-00-0000-19.png,0003-00-0001-68.png
00000009,730,1,1446833826469,1446833826493,864,454,0,0,0,3,2,1,5,0002-00-0000-12.png,0003-00-0000-72.png
00000009,731,1,1446833827696,1446833827760,888,488,0,0,0,4,3,1,7,0004-00-0000-56.png,0002-00-0000-19.png
00000009,732,1,1446833828894,1446833828947,888,488,0,0,0,2,1,1,3,0003-00-0001-44.png,0005-00-0001-04.png
00000009,733,1,1446833830336,1446833830386,874,496,0,0,0,1,0,1,1,0005-00-0000-27.png,0001-00-0000-17.png
00000009,734,0,1446833831488,1446833831548,877,524,0,0,0,3,4,1,7,0002-00-0000-71.png,0004-00-0001-98.png
00000009,735,1,1446833834435,1446833835131,484,266,0,0,0,0,1,1,1,0001-00-0000-39.png,0005-00-0001-49.png
00000009,736,0,1446833836009,1446833836867,1046,309,0,0,0,2,3,1,5,0003-00-0001-92.png,0002-00-0001-10.png
00000009,737,0,1446833840155,1446833840223,913,373,0,0,0,2,3,1,5,0003-00-0000-16.png,0002-00-0001-46.png
00000009,738,1,1446833843360,1446833843882,1023,286,0,0,0,1,0,1,1,0005-00-0000-66.png,0001-00-0001-26.png
00000009,739,1,1446833845272,1446833846031,489,429,0,0,0,1,2,1,3,0005-00-0001-58.png,0003-00-0000-38.png
00000009,740,1,1446833846942,1446833847913,917,350,0,0,0,2,1,1,3,0003-00-0001-11.png,0005-00-0000-56.png
00000009,741,0,1446833848840,1446833849897,453,396,0,0,0,3,2,1,5,0002-00-0001-25.png,0003-00-0000-38.png
00000009,742,1,1446833852934,1446833853468,517,236,0,0,0,0,1,1,1,0001-00-0001-39.png,0005-00-0001-95.png
00000009,743,1,1446833854903,1446833855814,522,261,0,0,0,3,4,1,7,0002-00-0001-60.png,0004-00-0001-33.png
00000009,744,1,1446833857236,1446833858179,1038,311,0,0,0,4,3,1,7,0004-00-0001-77.png,0002-00-0001-74.png
00000009,745,1,1446833859083,1446833859125,875,462,0,0,0,3,2,1,5,0002-00-0001-27.png,0003-00-0000-36.png
00000009,746,0,1446833860129,1446833860173,877,488,0,0,0,1,2,1,3,0005-00-0000-15.png,0003-00-0000-94.png
00000009,747,0,1446833863251,1446833863750,935,355,0,0,0,3,4,1,7,0002-00-0001-68.png,0004-00-0001-95.png
00000009,748,1,1446833866945,1446833866965,865,329,0,0,0,2,1,1,3,0003-00-0000-22.png,0005-00-0001-71.png
00000009,749,1,1446833867827,1446833868664,520,241,0,0,0,0,1,1,1,0001-00-0000-64.png,0005-00-0000-94.png
00000009,750,0,1446833869568,1446833870332,522,251,0,0,0,1,0,1,1,0005-00-0001-35.png,0001-00-0000-32.png
00000009,751,1,1446833873280,1446833873846,1019,297,0,0,0,4,3,1,7,0004-00-0000-89.png,0002-00-0001-33.png
00000009,752,1,1446833874675,1446833875510,467,384,0,0,0,2,3,1,5,0003-00-0001-13.png,0002-00-0001-68.png
00000009,753,1,1446833876427,1446833877330,514,222,0,0,0,0,1,1,1,0001-00-0000-61.png,0005-00-0000-47.png
00000009,754,1,1446833878194,1446833879273,505,271,0,0,0,1,2,1,3,0005-00-0001-53.png,0003-00-0000-21.png
00000009,755,1,1446833880272,1446833880319,862,498,0,0,0,1,0,1,1,0005-00-0000-30.png,0001-00-0000-47.png
00000009,756,1,1446833881383,1446833881423,866,474,0,0,0,3,2,1,5,0002-00-0000-59.png,0003-00-0000-64.png
00000009,757,1,1446833882559,1446833883358,464,410,0,0,0,3,4,1,7,0002-00-0001-85.png,0004-00-0000-49.png
00000009,758,1,1446833884295,1446833885102,1030,330,0,0,0,2,1,1,3,0003-00-0001-79.png,0005-00-0001-87.png
00000009,759,0,1446833886075,1446833886864,931,336,0,0,0,2,3,1,5,0003-00-0001-37.png,0002-00-0000-91.png
00000009,760,1,1446833889909,1446833890484,1069,304,0,0,0,4,3,1,7,0004-00-0001-48.png,0002-00-0001-17.png
00000009,761,0,1446833891880,1446833891896,864,440,0,0,0,0,1,1,1,0001-00-0000-39.png,0005-00-0001-67.png
00000009,762,1,1446833895377,1446833895385,906,314,0,0,0,4,3,1,7,0004-00-0000-74.png,0002-00-0000-51.png
00000009,763,1,1446833896322,1446833897186,930,347,0,0,0,3,2,1,5,0002-00-0000-35.png,0003-00-0000-36.png
00000009,764,0,1446833898140,1446833898189,911,440,0,0,0,2,3,1,5,0003-00-0001-91.png,0002-00-0000-93.png
00000009,765,1,1446833901099,1446833901119,858,352,0,0,0,2,1,1,3,0003-00-0000-65.png,0005-00-0001-43.png
00000009,766,1,1446833902054,1446833902839,940,358,0,0,0,1,0,1,1,0005-00-0000-47.png,0001-00-0000-10.png
00000009,767,0,1446833903804,1446833903852,896,429,0,0,0,3,4,1,7,0002-00-0000-07.png,0004-00-0000-54.png
00000009,768,1,1446833906812,1446833907331,427,368,0,0,0,1,2,1,3,0005-00-0001-32.png,0003-00-0000-77.png
00000009,769,0,1446833908163,1446833908980,478,384,0,0,0,1,0,1,1,0005-00-0001-22.png,0001-00-0001-95.png
00000009,770,1,1446833912170,1446833912202,920,320,0,0,0,2,1,1,3,0003-00-0001-17.png,0005-00-0001-12.png
00000009,771,1,1446833913123,1446833914152,519,221,0,0,0,0,1,1,1,0001-00-0000-88.png,0005-00-0000-81.png
00000009,772,1,1446833915012,1446833915930,514,271,0,0,0,3,4,1,7,0002-00-0001-35.png,0004-00-0000-92.png
00000009,773,1,1446833916898,1446833917784,469,410,0,0,0,1,2,1,3,0005-00-0001-21.png,0003-00-0000-48.png
00000009,774,0,1446833918668,1446833919477,511,245,0,0,0,3,2,1,5,0002-00-0001-37.png,0003-00-0001-22.png
00000009,775,0,1446833922544,1446833923222,469,286,0,0,0,4,3,1,7,0004-00-0000-29.png,0002-00-0001-29.png
00000009,776,0,1446833926618,1446833926638,888,315,0,0,0,2,3,1,5,0003-00-0000-49.png,0002-00-0001-12.png
00000009,777,1,1446833929848,1446833930385,510,269,0,0,0,0,1,1,1,0001-00-0001-97.png,0005-00-0000-24.png
00000009,778,0,1446833931257,1446833932249,1042,288,0,0,0,3,4,1,7,0002-00-0001-53.png,0004-00-0001-07.png
00000009,779,0,1446833935176,1446833935728,504,279,0,0,0,4,3,1,7,0004-00-0000-46.png,0002-00-0001-21.png
00000009,780,0,1446833938821,1446833938861,878,357,0,0,0,1,2,1,3,0005-00-0001-42.png,0003-00-0000-10.png
00000009,781,1,1446833941994,1446833942014,872,358,0,0,0,3,2,1,5,0002-00-0000-35.png,0003-00-0000-11.png
00000009,782,1,1446833942947,1446833942986,864,428,0,0,0,2,1,1,3,0003-00-0000-90.png,0005-00-0000-47.png
00000009,783,1,1446833943944,1446833944756,918,282,0,0,0,1,0,1,1,0005-00-0000-39.png,0001-00-0001-67.png
00000009,784,0,1446833945612,1446833945675,862,435,0,0,0,2,3,1,5,0003-00-0001-17.png,0002-00-0000-85.png
00000009,785,0,1446833948606,1446833949153,429,365,0,0,0,2,1,1,3,0003-00-0001-01.png,0005-00-0000-71.png
00000009,786,0,1446833952038,1446833952066,888,370,0,0,0,1,2,1,3,0005-00-0001-41.png,0003-00-0000-10.png
00000009,787,1,1446833955605,1446833956166,499,280,0,0,0,3,4,1,7,0002-00-0001-02.png,0004-00-0000-38.png
00000009,788,1,1446833957118,1446833957847,514,241,0,0,0,0,1,1,1,0001-00-0000-80.png,0005-00-0001-81.png
00000009,789,0,1446833958744,1446833959765,938,331,0,0,0,2,3,1,5,0003-00-0000-36.png,0002-00-0000-91.png
00000009,790,1,1446833962816,1446833963595,1020,264,0,0,0,4,3,1,7,0004-00-0000-25.png,0002-00-0001-87.png
00000009,791,1,1446833964491,1446833964543,910,446,0,0,0,3,2,1,5,0002-00-0001-25.png,0003-00-0001-39.png
00000009,792,1,1446833965485,1446833966534,1046,306,0,0,0,1,0,1,1,0005-00-0001-66.png,0001-00-0001-79.png
00000009,793,0,1446833967555,1446833968863,918,332,0,0,0,2,3,1,5,0003-00-0000-30.png,0002-00-0001-33.png
00000009,794,1,1446833971749,1446833971852,913,347,0,0,0,2,1,1,3,0003-00-0001-07.png,0005-00-0001-64.png
00000009,795,1,1446833972800,1446833972844,874,410,0,0,0,1,0,1,1,0005-00-0001-74.png,0001-00-0000-27.png
00000009,796,1,1446833973815,1446833974624,521,257,0,0,0,0,1,1,1,0001-00-0000-21.png,0005-00-0000-31.png
00000009,797,0,1446833975496,1446833976444,940,330,0,0,0,1,2,1,3,0005-00-0000-06.png,0003-00-0000-76.png
00000009,798,0,1446833979835,1446833979847,861,329,0,0,0,3,4,1,7,0002-00-0000-78.png,0004-00-0001-85.png
00000009,799,0,1446833982955,1446833983442,496,257,0,0,0,3,2,1,5,0002-00-0001-64.png,0003-00-0000-34.png
00000009,800,1,1446833997569,1446833998045,1016,317,0,0,0,4,3,1,7,0004-00-0000-86.png,0002-00-0000-43.png
00000009,801,1,1446833998992,1446833999012,862,427,0,0,0,3,2,1,5,0002-00-0001-76.png,0003-00-0000-99.png
00000009,802,1,1446833999884,1446834000719,497,276,0,0,0,0,1,1,1,0001-00-0001-07.png,0005-00-0000-37.png
00000009,803,0,1446834001574,1446834002445,916,355,0,0,0,2,3,1,5,0003-00-0000-81.png,0002-00-0000-00.png
00000009,804,1,1446834005283,1446834005885,1038,288,0,0,0,4,3,1,7,0004-00-0001-23.png,0002-00-0000-04.png
00000009,805,1,1446834006708,1446834006799,862,449,0,0,0,1,0,1,1,0005-00-0001-47.png,0001-00-0001-60.png
00000009,806,1,1446834007705,1446834008512,919,326,0,0,0,2,1,1,3,0003-00-0000-21.png,0005-00-0000-24.png
00000009,807,0,1446834009364,1446834009376,883,420,0,0,0,1,2,1,3,0005-00-0001-41.png,0003-00-0001-82.png
00000009,808,1,1446834012296,1446834012844,480,267,0,0,0,3,4,1,7,0002-00-0000-48.png,0004-00-0001-72.png
00000009,809,0,1446834014234,1446834015027,512,268,0,0,0,1,0,1,1,0005-00-0000-73.png,0001-00-0001-71.png
00000009,810,1,1446834017871,1446834018441,1021,289,0,0,0,2,1,1,3,0003-00-0000-56.png,0005-00-0000-40.png
00000009,811,0,1446834019811,1446834019859,858,430,0,0,0,1,2,1,3,0005-00-0000-00.png,0003-00-0000-52.png
00000009,812,0,1446834022899,1446834022962,862,332,0,0,0,3,4,1,7,0002-00-0000-29.png,0004-00-0001-07.png
00000009,813,1,1446834026546,1446834027152,499,295,0,0,0,0,1,1,1,0001-00-0000-89.png,0005-00-0001-12.png
00000009,814,1,1446834028049,1446834028945,478,267,0,0,0,2,3,1,5,0003-00-0000-72.png,0002-00-0001-85.png
00000009,815,1,1446834029804,1446834030699,911,376,0,0,0,4,3,1,7,0004-00-0000-26.png,0002-00-0001-84.png
00000009,816,1,1446834031685,1446834031742,875,447,0,0,0,3,2,1,5,0002-00-0000-38.png,0003-00-0001-95.png
00000009,817,0,1446834032739,1446834033864,523,262,0,0,0,3,2,1,5,0002-00-0000-23.png,0003-00-0001-20.png
00000009,818,1,1446834036731,1446834037337,1030,306,0,0,0,4,3,1,7,0004-00-0000-31.png,0002-00-0001-01.png
00000009,819,1,1446834038740,1446834038864,865,558,0,0,0,1,0,1,1,0005-00-0001-75.png,0001-00-0001-01.png
00000009,820,0,1446834039842,1446834039898,865,466,0,0,0,3,4,1,7,0002-00-0000-39.png,0004-00-0000-04.png
00000009,821,1,1446834043120,1446834043144,885,320,0,0,0,2,1,1,3,0003-00-0001-21.png,0005-00-0001-22.png
00000009,822,0,1446834044006,1446834044941,1015,316,0,0,0,2,3,1,5,0003-00-0001-48.png,0002-00-0000-46.png
00000009,823,0,1446834048152,1446834048168,883,326,0,0,0,0,1,1,1,0001-00-0001-25.png,0005-00-0000-24.png
00000009,824,1,1446834051019,1446834051588,514,252,0,0,0,1,2,1,3,0005-00-0001-60.png,0003-00-0001-96.png
00000009,825,1,1446834052491,1446834053551,510,234,0,0,0,2,3,1,5,0003-00-0000-58.png,0002-00-0001-79.png
00000009,826,0,1446834054461,1446834054493,912,392,0,0,0,0,1,1,1,0001-00-0001-81.png,0005-00-0000-09.png
00000009,827,0,1446834057908,1446834057928,888,317,0,0,0,3,4,1,7,0002-00-0001-21.png,0004-00-0001-98.png
00000009,828,1,1446834061039,1446834061524,924,355,0,0,0,1,0,1,1,0005-00-0000-88.png,0001-00-0000-46.png
00000009,829,1,1446834062420,1446834062440,862,410,0,0,0,4,3,1,7,0004-00-0000-75.png,0002-00-0000-93.png
00000009,830,1,1446834063415,1446834064364,511,256,0,0,0,1,2,1,3,0005-00-0000-40.png,0003-00-0000-04.png
00000009,831,1,1446834065304,1446834065336,873,449,0,0,0,3,2,1,5,0002-00-0000-03.png,0003-00-0000-83.png
00000009,832,1,1446834066375,1446834066395,878,488,0,0,0,2,1,1,3,0003-00-0001-14.png,0005-00-0001-16.png
00000009,833,0,1446834067621,1446834067637,861,515,0,0,0,1,2,1,3,0005-00-0001-14.png,0003-00-0001-05.png
00000009,834,1,1446834070640,1446834071203,1020,300,0,0,0,2,1,1,3,0003-00-0000-17.png,0005-00-0001-30.png
00000009,835,0,1446834072677,1446834073580,926,335,0,0,0,2,3,1,5,0003-00-0001-93.png,0002-00-0001-03.png
00000009,836,0,1446834076469,1446834076513,862,399,0,0,0,3,4,1,7,0002-00-0000-91.png,0004-00-0000-67.png
00000009,837,1,1446834079629,1446834079673,862,346,0,0,0,3,2,1,5,0002-00-0001-05.png,0003-00-0000-37.png
00000009,838,0,1446834080595,1446834081366,506,258,0,0,0,1,0,1,1,0005-00-0000-28.png,0001-00-0001-44.png
00000009,839,1,1446834084489,1446834084530,877,339,0,0,0,4,3,1,7,0004-00-0001-41.png,0002-00-0001-38.png
00000009,840,0,1446834085892,1446834086519,1020,277,0,0,0,0,1,1,1,0001-00-0001-64.png,0005-00-0000-13.png
00000009,841,1,1446834089569,1446834090089,922,352,0,0,0,2,1,1,3,0003-00-0001-80.png,0005-00-0000-92.png
00000009,842,1,1446834090915,1446834092004,508,260,0,0,0,1,2,1,3,0005-00-0000-75.png,0003-00-0000-91.png
00000009,843,1,1446834092939,1446834092996,910,446,0,0,0,3,2,1,5,0002-00-0000-75.png,0003-00-0000-82.png
00000009,844,0,1446834093991,1446834094011,905,467,0,0,0,3,4,1,7,0002-00-0000-19.png,0004-00-0001-70.png
00000009,845,1,1446834097192,1446834097764,962,340,0,0,0,4,3,1,7,0004-00-0001-15.png,0002-00-0000-28.png
00000009,846,0,1446834098671,1446834098707,884,452,0,0,0,0,1,1,1,0001-00-0000-60.png,0005-00-0000-00.png
00000009,847,1,1446834101571,1446834102142,1041,318,0,0,0,1,0,1,1,0005-00-0000-87.png,0001-00-0001-43.png
00000009,848,0,1446834103500,1446834103559,892,494,0,0,0,2,3,1,5,0003-00-0001-78.png,0002-00-0000-28.png
00000009,849,0,1446834106669,1446834106697,902,332,0,0,0,3,4,1,7,0002-00-0001-08.png,0004-00-0001-32.png
00000009,850,1,1446834109819,1446834110347,915,327,0,0,0,3,2,1,5,0002-00-0000-97.png,0003-00-0001-12.png
00000009,851,1,1446834111177,1446834111209,861,446,0,0,0,2,1,1,3,0003-00-0001-42.png,0005-00-0001-09.png
00000009,852,0,1446834112126,1446834112205,877,462,0,0,0,0,1,1,1,0001-00-0001-65.png,0005-00-0000-34.png
00000009,853,0,1446834115043,1446834115087,860,400,0,0,0,2,3,1,5,0003-00-0000-65.png,0002-00-0001-66.png
00000009,854,1,1446834118634,1446834118650,873,334,0,0,0,1,0,1,1,0005-00-0000-02.png,0001-00-0001-22.png
00000009,855,0,1446834119579,1446834120333,517,253,0,0,0,4,3,1,7,0004-00-0000-29.png,0002-00-0001-30.png
00000009,856,0,1446834123513,1446834123544,891,320,0,0,0,1,2,1,3,0005-00-0001-21.png,0003-00-0001-16.png
00000009,857,1,1446834126745,1446834126777,884,317,0,0,0,4,3,1,7,0004-00-0001-86.png,0002-00-0001-25.png
00000009,858,0,1446834127775,1446834127851,870,428,0,0,0,0,1,1,1,0001-00-0000-27.png,0005-00-0000-63.png
00000009,859,1,1446834131025,1446834131077,888,327,0,0,0,3,2,1,5,0002-00-0001-26.png,0003-00-0001-49.png
00000009,860,1,1446834131971,1446834131991,859,414,0,0,0,2,1,1,3,0003-00-0001-49.png,0005-00-0000-58.png
00000009,861,0,1446834132933,1446834133943,920,362,0,0,0,3,4,1,7,0002-00-0001-74.png,0004-00-0001-11.png
00000009,862,0,1446834136939,1446834137461,480,280,0,0,0,1,0,1,1,0005-00-0001-50.png,0001-00-0000-50.png
00000009,863,0,1446834140314,1446834140342,862,358,0,0,0,2,3,1,5,0003-00-0001-72.png,0002-00-0001-20.png
00000009,864,0,1446834143359,1446834143399,939,358,0,0,0,1,2,1,3,0005-00-0001-78.png,0003-00-0000-20.png
00000009,865,0,1446834146252,1446834146324,878,376,0,0,0,2,3,1,5,0003-00-0001-34.png,0002-00-0001-08.png
00000009,866,1,1446834149661,1446834150232,502,287,0,0,0,3,4,1,7,0002-00-0001-70.png,0004-00-0000-12.png
00000009,867,1,1446834151121,1446834151954,516,243,0,0,0,1,2,1,3,0005-00-0001-48.png,0003-00-0001-82.png
00000009,868,1,1446834152808,1446834152866,862,436,0,0,0,3,2,1,5,0002-00-0001-54.png,0003-00-0001-17.png
00000009,869,1,1446834153802,1446834153854,868,442,0,0,0,2,1,1,3,0003-00-0001-50.png,0005-00-0000-39.png
00000009,870,1,1446834155025,1446834155085,903,488,0,0,0,4,3,1,7,0004-00-0001-05.png,0002-00-0000-20.png
00000009,871,0,1446834156179,1446834156231,888,474,0,0,0,0,1,1,1,0001-00-0001-14.png,0005-00-0001-74.png
00000009,872,1,1446834159995,1446834160015,862,358,0,0,0,1,0,1,1,0005-00-0000-33.png,0001-00-0000-98.png
00000009,873,0,1446834160988,1446834161004,864,463,0,0,0,2,3,1,5,0003-00-0000-92.png,0002-00-0000-67.png
00000009,874,0,1446834163989,1446834164009,867,403,0,0,0,0,1,1,1,0001-00-0000-41.png,0005-00-0000-83.png
00000009,875,1,1446834166868,1446834167488,484,267,0,0,0,1,2,1,3,0005-00-0000-86.png,0003-00-0001-79.png
00000009,876,1,1446834168340,1446834169285,944,374,0,0,0,1,0,1,1,0005-00-0000-09.png,0001-00-0000-59.png
00000009,877,1,1446834170888,1446834171073,925,547,0,0,0,4,3,1,7,0004-00-0001-13.png,0002-00-0001-18.png
00000009,878,1,1446834172027,1446834172063,865,474,0,0,0,2,1,1,3,0003-00-0001-91.png,0005-00-0001-54.png
00000009,879,1,1446834173104,1446834174123,453,426,0,0,0,3,4,1,7,0002-00-0001-33.png,0004-00-0000-01.png
00000009,880,0,1446834175019,1446834175817,516,265,0,0,0,3,2,1,5,0002-00-0001-13.png,0003-00-0001-16.png
00000009,881,0,1446834179016,1446834179044,905,325,0,0,0,3,4,1,7,0002-00-0001-70.png,0004-00-0001-06.png
00000009,882,0,1446834182006,1446834182018,913,422,0,0,0,0,1,1,1,0001-00-0000-48.png,0005-00-0000-44.png
00000009,883,0,1446834185086,1446834185588,916,355,0,0,0,1,2,1,3,0005-00-0000-48.png,0003-00-0001-91.png
00000009,884,1,1446834188623,1446834188635,867,400,0,0,0,1,0,1,1,0005-00-0001-62.png,0001-00-0000-23.png
00000009,885,1,1446834189576,1446834190364,942,335,0,0,0,2,1,1,3,0003-00-0001-40.png,0005-00-0000-88.png
00000009,886,1,1446834191356,1446834191396,876,436,0,0,0,3,2,1,5,0002-00-0001-70.png,0003-00-0000-97.png
00000009,887,1,1446834192342,1446834193173,888,343,0,0,0,4,3,1,7,0004-00-0001-91.png,0002-00-0001-66.png
00000009,888,0,1446834194796,1446834194836,896,436,0,0,0,2,3,1,5,0003-00-0000-31.png,0002-00-0001-97.png
00000009,889,1,1446834197936,1446834198412,1050,286,0,0,0,1,0,1,1,0005-00-0000-25.png,0001-00-0001-39.png
00000009,890,0,1446834199803,1446834199851,868,466,0,0,0,0,1,1,1,0001-00-0000-19.png,0005-00-0000-62.png
00000009,891,1,1446834203025,1446834203045,868,341,0,0,0,4,3,1,7,0004-00-0001-04.png,0002-00-0000-27.png
00000009,892,0,1446834203959,1446834205078,480,252,0,0,0,3,2,1,5,0002-00-0000-68.png,0003-00-0000-77.png
00000009,893,1,1446834208369,1446834208902,477,277,0,0,0,3,4,1,7,0002-00-0001-25.png,0004-00-0000-87.png
00000009,894,0,1446834209749,1446834210676,1069,278,0,0,0,1,2,1,3,0005-00-0000-56.png,0003-00-0000-13.png
00000009,895,0,1446834213815,1446834214393,1054,279,0,0,0,2,3,1,5,0003-00-0000-54.png,0002-00-0000-71.png
00000009,896,1,1446834217365,1446834217898,1018,295,0,0,0,2,1,1,3,0003-00-0000-34.png,0005-00-0000-71.png
00000009,897,1,1446834218826,1446834218846,862,398,0,0,0,3,2,1,5,0002-00-0001-62.png,0003-00-0000-28.png
00000009,898,1,1446834219769,1446834220670,468,391,0,0,0,2,3,1,5,0003-00-0000-42.png,0002-00-0000-69.png
00000009,899,1,1446834221635,1446834222575,905,341,0,0,0,2,1,1,3,0003-00-0001-93.png,0005-00-0001-30.png
00000009,900,0,1446834223643,1446834224535,920,316,0,0,0,0,1,1,1,0001-00-0000-94.png,0005-00-0000-19.png
00000009,901,1,1446834227508,1446834227568,964,384,0,0,0,1,0,1,1,0005-00-0001-96.png,0001-00-0000-03.png
00000009,902,0,1446834228473,1446834228493,862,371,0,0,0,1,2,1,3,0005-00-0000-02.png,0003-00-0001-90.png
00000009,903,1,1446834231476,1446834232006,1040,305,0,0,0,4,3,1,7,0004-00-0001-32.png,0002-00-0001-07.png
00000009,904,0,1446834232884,1446834232904,904,440,0,0,0,3,4,1,7,0002-00-0001-11.png,0004-00-0001-37.png
00000009,905,1,1446834235756,1446834236466,496,261,0,0,0,3,4,1,7,0002-00-0001-65.png,0004-00-0001-75.png
00000009,906,1,1446834237316,1446834238186,939,340,0,0,0,3,2,1,5,0002-00-0000-64.png,0003-00-0000-20.png
00000009,907,0,1446834239087,1446834239127,881,400,0,0,0,2,3,1,5,0003-00-0000-28.png,0002-00-0001-43.png
00000009,908,0,1446834242215,1446834242267,888,306,0,0,0,0,1,1,1,0001-00-0001-09.png,0005-00-0001-88.png
00000009,909,1,1446834245239,1446834245766,486,275,0,0,0,1,2,1,3,0005-00-0001-42.png,0003-00-0001-06.png
00000009,910,0,1446834246656,1446834247620,490,253,0,0,0,4,3,1,7,0004-00-0000-38.png,0002-00-0001-51.png
00000009,911,0,1446834250489,1446834251192,409,383,0,0,0,1,0,1,1,0005-00-0001-23.png,0001-00-0001-75.png
00000009,912,1,1446834254299,1446834254331,888,384,0,0,0,2,1,1,3,0003-00-0001-82.png,0005-00-0000-39.png
00000009,913,0,1446834255233,1446834255269,862,456,0,0,0,1,2,1,3,0005-00-0000-30.png,0003-00-0000-94.png
00000009,914,0,1446834258405,1446834258441,890,320,0,0,0,2,3,1,5,0003-00-0000-12.png,0002-00-0000-49.png
00000009,915,1,1446834261405,1446834261425,871,384,0,0,0,2,1,1,3,0003-00-0000-80.png,0005-00-0000-10.png
00000009,916,1,1446834262360,1446834263171,1022,272,0,0,0,1,0,1,1,0005-00-0000-59.png,0001-00-0001-53.png
00000009,917,0,1446834264039,1446834264059,943,386,0,0,0,3,4,1,7,0002-00-0001-44.png,0004-00-0001-22.png
00000009,918,1,1446834267182,1446834267733,1046,296,0,0,0,3,2,1,5,0002-00-0001-39.png,0003-00-0000-56.png
00000009,919,0,1446834268631,1446834268660,888,444,0,0,0,0,1,1,1,0001-00-0001-02.png,0005-00-0000-80.png
00000009,920,1,1446834271700,1446834272265,1041,277,0,0,0,4,3,1,7,0004-00-0001-92.png,0002-00-0001-19.png
00000009,921,1,1446834273130,1446834273154,888,369,0,0,0,2,1,1,3,0003-00-0000-08.png,0005-00-0001-29.png
00000009,922,1,1446834274133,1446834274204,879,514,0,0,0,3,2,1,5,0002-00-0000-62.png,0003-00-0001-54.png
00000009,923,1,1446834275257,1446834275286,888,488,0,0,0,1,0,1,1,0005-00-0001-85.png,0001-00-0001-87.png
00000009,924,0,1446834276716,1446834276786,888,557,0,0,0,3,4,1,7,0002-00-0001-22.png,0004-00-0001-83.png
00000009,925,1,1446834280016,1446834280494,489,278,0,0,0,1,2,1,3,0005-00-0000-11.png,0003-00-0000-15.png
00000009,926,1,1446834281340,1446834282092,521,272,0,0,0,0,1,1,1,0001-00-0001-74.png,0005-00-0000-07.png
00000009,927,1,1446834283007,1446834283899,947,353,0,0,0,4,3,1,7,0004-00-0001-74.png,0002-00-0000-83.png
00000009,928,0,1446834284818,1446834284846,881,418,0,0,0,2,3,1,5,0003-00-0000-38.png,0002-00-0001-05.png
00000009,929,0,1446834287957,1446834288540,506,280,0,0,0,1,0,1,1,0005-00-0000-60.png,0001-00-0001-23.png
00000009,930,1,1446834291655,1446834292246,1037,288,0,0,0,4,3,1,7,0004-00-0001-85.png,0002-00-0000-88.png
00000009,931,0,1446834293095,1446834293768,917,332,0,0,0,2,3,1,5,0003-00-0000-34.png,0002-00-0001-19.png
00000009,932,1,1446834297639,1446834297712,884,352,0,0,0,3,2,1,5,0002-00-0000-03.png,0003-00-0001-83.png
00000009,933,1,1446834298691,1446834304861,457,306,0,0,0,3,4,1,7,0002-00-0000-12.png,0004-00-0001-37.png
00000009,934,1,1446834305753,1446834306517,484,244,0,0,0,0,1,1,1,0001-00-0000-62.png,0005-00-0000-02.png
00000009,935,1,1446834307443,1446834308141,510,263,0,0,0,1,2,1,3,0005-00-0000-65.png,0003-00-0001-13.png
00000009,936,1,1446834309033,1446834309739,1048,283,0,0,0,2,1,1,3,0003-00-0001-03.png,0005-00-0000-87.png
00000009,937,0,1446834310607,1446834311500,945,330,0,0,0,3,4,1,7,0002-00-0001-39.png,0004-00-0001-20.png
00000009,938,1,1446834314562,1446834315144,1069,276,0,0,0,1,0,1,1,0005-00-0001-38.png,0001-00-0001-21.png
00000009,939,1,1446834316040,1446834316815,943,335,0,0,0,2,1,1,3,0003-00-0000-35.png,0005-00-0001-13.png
00000009,940,0,1446834317711,1446834317834,932,491,0,0,0,0,1,1,1,0001-00-0001-55.png,0005-00-0001-24.png
00000009,941,1,1446834330843,1446834331346,483,276,0,0,0,1,2,1,3,0005-00-0001-15.png,0003-00-0000-18.png
00000009,942,0,1446834332426,1446834333106,915,343,0,0,0,2,3,1,5,0003-00-0001-45.png,0002-00-0000-29.png
00000009,943,1,1446834339781,1446834340358,887,377,0,0,0,4,3,1,7,0004-00-0000-90.png,0002-00-0000-48.png
00000009,944,1,1446834341235,1446834341251,870,410,0,0,0,3,2,1,5,0002-00-0000-18.png,0003-00-0001-66.png
00000009,945,0,1446834342188,1446834342268,874,462,0,0,0,2,3,1,5,0003-00-0000-55.png,0002-00-0000-02.png
00000009,946,1,1446834345281,1446834345816,486,266,0,0,0,0,1,1,1,0001-00-0001-61.png,0005-00-0001-93.png
00000009,947,0,1446834347258,1446834347303,892,331,0,0,0,1,2,1,3,0005-00-0001-39.png,0003-00-0000-30.png
00000009,948,0,1446834350716,1446834351264,483,255,0,0,0,3,2,1,5,0002-00-0001-59.png,0003-00-0000-11.png
00000009,949,0,1446834354215,1446834354823,888,373,0,0,0,3,4,1,7,0002-00-0001-11.png,0004-00-0001-53.png
00000009,950,1,1446834357741,1446834357793,880,388,0,0,0,1,0,1,1,0005-00-0001-37.png,0001-00-0001-51.png
