subject_id,trial,correct_response,stim_time,response_time,x_coord,y_coord,trial_timeout,timeout_time,interTrial_timeout,left_rank,right_rank,distance,joint_rank,left_image,right_image
00000014,1,1,1446651057188,1446651057660,423,336,0,0,0,3,4,1,7,0002-00-0000-07.png,0004-00-0000-49.png
00000014,2,0,1446651058779,1446651059259,330,382,0,0,0,1,0,1,1,0005-00-0000-78.png,0001-00-0000-56.png
00000014,3,0,1446651062213,1446651062598,383,361,0,0,0,4,3,1,7,0004-00-0001-39.png,0002-00-0001-97.png
00000014,4,1,1446651065662,1446651066149,350,429,0,0,0,0,1,1,1,0001-00-0000-30.png,0005-00-0000-84.png
00000014,5,0,1446651067053,1446651067674,352,415,0,0,0,3,2,1,5,0002-00-0001-64.png,0003-00-0000-17.png
00000014,6,1,1446651070701,1446651071223,378,384,0,0,0,1,2,1,3,0005-00-0001-34.png,0003-00-0001-34.png
00000014,7,0,1446651072222,1446651072709,925,410,0,0,0,2,3,1,5,0003-00-0000-83.png,0002-00-0001-97.png
00000014,8,0,1446651075601,1446651076144,399,374,0,0,0,2,1,1,3,0003-00-0000-52.png,0005-00-0001-79.png
00000014,9,0,1446651079050,1446651079515,346,392,0,0,0,4,3,1,7,0004-00-0001-47.png,0002-00-0000-39.png
00000014,10,0,1446651083764,1446651084300,913,475,0,0,0,3,4,1,7,0002-00-0001-31.png,0004-00-0000-55.png
00000014,11,0,1446651087435,1446651088048,896,419,0,0,0,1,2,1,3,0005-00-0000-32.png,0003-00-0001-01.png
00000014,12,0,1446651091127,1446651091629,384,438,0,0,0,1,0,1,1,0005-00-0001-49.png,0001-00-0000-63.png
00000014,13,0,1446651094528,1446651094992,927,410,0,0,0,2,3,1,5,0003-00-0000-31.png,0002-00-0001-49.png
00000014,14,1,1446651098040,1446651098581,376,491,0,0,0,0,1,1,1,0001-00-0000-92.png,0005-00-0000-41.png
00000014,15,1,1446651099518,1446651100308,896,375,0,0,0,2,1,1,3,0003-00-0001-47.png,0005-00-0001-51.png
00000014,16,0,1446651101235,1446651101743,371,419,0,0,0,3,2,1,5,0002-00-0001-46.png,0003-00-0000-30.png
00000014,17,1,1446651104762,1446651105246,352,403,0,0,0,1,2,1,3,0005-00-0001-63.png,0003-00-0001-53.png
00000014,18,0,1446651106204,1446651106838,929,442,0,0,0,3,4,1,7,0002-00-0001-05.png,0004-00-0000-75.png
00000014,19,0,1446651109831,1446651110287,404,370,0,0,0,2,1,1,3,0003-00-0001-60.png,0005-00-0001-00.png
00000014,20,1,1446651113233,1446651113729,896,393,0,0,0,1,0,1,1,0005-00-0000-44.png,0001-00-0001-35.png
00000014,21,0,1446651114633,1446651115294,906,446,0,0,0,2,3,1,5,0003-00-0001-89.png,0002-00-0000-38.png
00000014,22,0,1446651118136,1446651118736,393,456,0,0,0,3,2,1,5,0002-00-0001-29.png,0003-00-0001-33.png
00000014,23,1,1446651122028,1446651122801,416,342,0,0,0,0,1,1,1,0001-00-0001-81.png,0005-00-0000-98.png
00000014,24,1,1446651124028,1446651124939,915,417,0,0,0,4,3,1,7,0004-00-0001-40.png,0002-00-0001-39.png
00000014,25,1,1446651125894,1446651126496,888,480,0,0,0,1,0,1,1,0005-00-0001-14.png,0001-00-0001-34.png
00000014,26,0,1446651127494,1446651128119,879,428,0,0,0,1,2,1,3,0005-00-0001-43.png,0003-00-0001-01.png
00000014,27,0,1446651131121,1446651131724,897,360,0,0,0,2,3,1,5,0003-00-0001-37.png,0002-00-0001-98.png
00000014,28,0,1446651135462,1446651136128,434,497,0,0,0,4,3,1,7,0004-00-0000-76.png,0002-00-0000-41.png
00000014,29,1,1446651139869,1446651140448,351,397,0,0,0,0,1,1,1,0001-00-0000-15.png,0005-00-0000-83.png
00000014,30,1,1446651141369,1446651142043,428,516,0,0,0,3,4,1,7,0002-00-0001-57.png,0004-00-0000-57.png
00000014,31,1,1446651143547,1446651144217,916,491,0,0,0,2,1,1,3,0003-00-0000-62.png,0005-00-0001-69.png
00000014,32,0,1446651145119,1446651145755,376,436,0,0,0,3,2,1,5,0002-00-0001-47.png,0003-00-0000-10.png
00000014,33,1,1446651148903,1446651149499,872,366,0,0,0,1,0,1,1,0005-00-0000-37.png,0001-00-0001-49.png
00000014,34,0,1446651150444,1446651151196,874,358,0,0,0,2,3,1,5,0003-00-0001-09.png,0002-00-0000-06.png
00000014,35,1,1446651154220,1446651155022,877,357,0,0,0,4,3,1,7,0004-00-0000-20.png,0002-00-0000-12.png
00000014,36,1,1446651155980,1446651156625,396,504,0,0,0,0,1,1,1,0001-00-0001-45.png,0005-00-0000-19.png
00000014,37,0,1446651157662,1446651158531,888,383,0,0,0,1,2,1,3,0005-00-0001-27.png,0003-00-0001-82.png
00000014,38,0,1446651161566,1446651162342,928,387,0,0,0,3,4,1,7,0002-00-0001-39.png,0004-00-0000-95.png
00000014,39,1,1446651165551,1446651166232,895,343,0,0,0,2,1,1,3,0003-00-0001-40.png,0005-00-0000-92.png
00000014,40,0,1446651167309,1446651167931,371,393,0,0,0,3,2,1,5,0002-00-0001-85.png,0003-00-0001-76.png
00000014,41,0,1446651171089,1446651171789,378,370,0,0,0,3,2,1,5,0002-00-0001-87.png,0003-00-0001-46.png
00000014,42,1,1446651174751,1446651175351,913,371,0,0,0,2,1,1,3,0003-00-0001-16.png,0005-00-0001-94.png
00000014,43,0,1446651176343,1446651176977,875,476,0,0,0,2,3,1,5,0003-00-0000-85.png,0002-00-0000-74.png
00000014,44,0,1446651179999,1446651180623,336,379,0,0,0,1,0,1,1,0005-00-0001-62.png,0001-00-0000-16.png
00000014,45,1,1446651184026,1446651184581,898,391,0,0,0,4,3,1,7,0004-00-0001-11.png,0002-00-0000-09.png
00000014,46,0,1446651185705,1446651186270,949,432,0,0,0,1,2,1,3,0005-00-0001-86.png,0003-00-0001-50.png
00000014,47,1,1446651189152,1446651189925,348,403,0,0,0,3,4,1,7,0002-00-0000-95.png,0004-00-0000-86.png
00000014,48,1,1446651191042,1446651191713,311,443,0,0,0,0,1,1,1,0001-00-0000-68.png,0005-00-0001-90.png
00000014,49,1,1446651192807,1446651193384,311,424,0,0,0,0,1,1,1,0001-00-0001-91.png,0005-00-0000-90.png
00000014,50,0,1446651194389,1446651195001,862,396,0,0,0,2,3,1,5,0003-00-0000-66.png,0002-00-0000-83.png
00000014,51,1,1446651198282,1446651199184,902,416,0,0,0,4,3,1,7,0004-00-0001-23.png,0002-00-0001-85.png
00000014,52,1,1446651200217,1446651200867,900,438,0,0,0,2,1,1,3,0003-00-0001-25.png,0005-00-0001-60.png
00000014,53,1,1446651201959,1446651202760,427,529,0,0,0,3,4,1,7,0002-00-0001-05.png,0004-00-0000-17.png
00000014,54,1,1446651203805,1446651204754,376,410,0,0,0,1,2,1,3,0005-00-0000-79.png,0003-00-0000-54.png
00000014,55,1,1446651205793,1446651206616,901,412,0,0,0,1,0,1,1,0005-00-0000-00.png,0001-00-0000-66.png
00000014,56,0,1446651207623,1446651208247,376,449,0,0,0,3,2,1,5,0002-00-0001-15.png,0003-00-0001-33.png
00000014,57,1,1446651211646,1446651212234,350,423,0,0,0,0,1,1,1,0001-00-0001-45.png,0005-00-0000-03.png
00000014,58,1,1446651213296,1446651214425,926,513,0,0,0,4,3,1,7,0004-00-0000-39.png,0002-00-0000-09.png
00000014,59,1,1446651215533,1446651216142,925,438,0,0,0,2,1,1,3,0003-00-0000-34.png,0005-00-0001-75.png
00000014,60,1,1446651217103,1446651217904,383,427,0,0,0,1,2,1,3,0005-00-0000-19.png,0003-00-0001-80.png
00000014,61,1,1446651219023,1446651219579,896,446,0,0,0,1,0,1,1,0005-00-0000-16.png,0001-00-0000-80.png
00000014,62,0,1446651220811,1446651221366,901,450,0,0,0,2,3,1,5,0003-00-0000-67.png,0002-00-0000-14.png
00000014,63,0,1446651227630,1446651228256,346,382,0,0,0,3,2,1,5,0002-00-0000-90.png,0003-00-0000-35.png
00000014,64,1,1446651232079,1446651232858,346,392,0,0,0,3,4,1,7,0002-00-0001-61.png,0004-00-0000-55.png
00000014,65,0,1446651234008,1446651234948,427,410,0,0,0,3,2,1,5,0002-00-0000-34.png,0003-00-0001-31.png
00000014,66,1,1446651239362,1446651239974,915,423,0,0,0,2,1,1,3,0003-00-0001-47.png,0005-00-0001-87.png
00000014,67,0,1446651240901,1446651241818,886,483,0,0,0,2,3,1,5,0003-00-0000-61.png,0002-00-0001-46.png
00000014,68,1,1446651244908,1446651245482,365,431,0,0,0,1,2,1,3,0005-00-0001-44.png,0003-00-0000-21.png
00000014,69,0,1446651246487,1446651247401,948,394,0,0,0,3,4,1,7,0002-00-0001-03.png,0004-00-0000-93.png
00000014,70,1,1446651251193,1446651251811,325,410,0,0,0,0,1,1,1,0001-00-0000-96.png,0005-00-0001-59.png
00000014,71,1,1446651252751,1446651253306,904,413,0,0,0,1,0,1,1,0005-00-0001-93.png,0001-00-0001-65.png
00000014,72,1,1446651254393,1446651255105,878,375,0,0,0,4,3,1,7,0004-00-0000-08.png,0002-00-0001-71.png
00000014,73,0,1446651256040,1446651256643,881,511,0,0,0,2,3,1,5,0003-00-0000-53.png,0002-00-0001-48.png
00000014,74,1,1446651260146,1446651260811,347,371,0,0,0,3,4,1,7,0002-00-0001-37.png,0004-00-0001-40.png
00000014,75,0,1446651262036,1446651262620,324,381,0,0,0,1,0,1,1,0005-00-0001-69.png,0001-00-0000-37.png
00000014,76,1,1446651265641,1446651266399,927,390,0,0,0,4,3,1,7,0004-00-0000-57.png,0002-00-0000-06.png
00000014,77,0,1446651267370,1446651268410,367,406,0,0,0,2,1,1,3,0003-00-0001-19.png,0005-00-0000-46.png
00000014,78,0,1446651272164,1446651273070,927,382,0,0,0,0,1,1,1,0001-00-0000-59.png,0005-00-0000-09.png
00000014,79,0,1446651276117,1446651276768,318,401,0,0,0,3,2,1,5,0002-00-0000-42.png,0003-00-0001-68.png
00000014,80,0,1446651279933,1446651280685,897,340,0,0,0,1,2,1,3,0005-00-0001-78.png,0003-00-0001-93.png
00000014,81,0,1446651283669,1446651284250,356,423,0,0,0,3,2,1,5,0002-00-0000-66.png,0003-00-0000-19.png
00000014,82,0,1446651287319,1446651288082,886,358,0,0,0,3,4,1,7,0002-00-0001-40.png,0004-00-0000-14.png
00000014,83,1,1446651291126,1446651291639,371,514,0,0,0,0,1,1,1,0001-00-0001-05.png,0005-00-0001-79.png
00000014,84,1,1446651292820,1446651293448,895,524,0,0,0,1,0,1,1,0005-00-0001-05.png,0001-00-0000-51.png
00000014,85,0,1446651294374,1446651295046,898,507,0,0,0,2,3,1,5,0003-00-0000-20.png,0002-00-0000-23.png
00000014,86,1,1446651298044,1446651298689,383,403,0,0,0,1,2,1,3,0005-00-0000-94.png,0003-00-0001-98.png
00000014,87,1,1446651299823,1446651300647,931,418,0,0,0,4,3,1,7,0004-00-0000-37.png,0002-00-0000-45.png
00000014,88,1,1446651301733,1446651302365,897,506,0,0,0,2,1,1,3,0003-00-0001-73.png,0005-00-0000-29.png
00000014,89,0,1446651303451,1446651304395,916,431,0,0,0,0,1,1,1,0001-00-0001-24.png,0005-00-0000-57.png
00000014,90,0,1446651307567,1446651308580,903,392,0,0,0,1,2,1,3,0005-00-0000-52.png,0003-00-0000-09.png
00000014,91,1,1446651311834,1446651312623,957,401,0,0,0,1,0,1,1,0005-00-0001-25.png,0001-00-0001-87.png
00000014,92,0,1446651313800,1446651314434,929,415,0,0,0,2,3,1,5,0003-00-0000-36.png,0002-00-0000-04.png
00000014,93,1,1446651317596,1446651318435,376,410,0,0,0,3,4,1,7,0002-00-0000-31.png,0004-00-0001-72.png
00000014,94,1,1446651319493,1446651320278,904,499,0,0,0,2,1,1,3,0003-00-0001-75.png,0005-00-0001-33.png
00000014,95,0,1446651321293,1446651321893,374,406,0,0,0,3,2,1,5,0002-00-0001-33.png,0003-00-0001-73.png
00000014,96,0,1446651325459,1446651326076,358,410,0,0,0,4,3,1,7,0004-00-0001-43.png,0002-00-0001-80.png
00000014,97,1,1446651329671,1446651330549,873,361,0,0,0,3,2,1,5,0002-00-0000-81.png,0003-00-0000-07.png
00000014,98,1,1446651331651,1446651332189,376,410,0,0,0,1,2,1,3,0005-00-0000-35.png,0003-00-0000-33.png
00000014,99,0,1446651333212,1446651333862,876,503,0,0,0,2,3,1,5,0003-00-0000-39.png,0002-00-0000-07.png
00000014,100,1,1446651337841,1446651338665,946,420,0,0,0,4,3,1,7,0004-00-0000-60.png,0002-00-0000-91.png
00000014,101,1,1446651339685,1446651340253,872,366,0,0,0,2,1,1,3,0003-00-0000-10.png,0005-00-0000-35.png
00000014,102,1,1446651341262,1446651341913,357,403,0,0,0,0,1,1,1,0001-00-0000-81.png,0005-00-0000-53.png
00000014,103,1,1446651343031,1446651343655,897,406,0,0,0,1,0,1,1,0005-00-0001-41.png,0001-00-0001-92.png
00000014,104,0,1446651344804,1446651345378,903,415,0,0,0,3,4,1,7,0002-00-0000-07.png,0004-00-0001-56.png
00000014,105,0,1446651348446,1446651349001,369,413,0,0,0,4,3,1,7,0004-00-0000-73.png,0002-00-0001-42.png
00000014,106,0,1446651351986,1446651352993,426,388,0,0,0,2,1,1,3,0003-00-0001-82.png,0005-00-0001-20.png
00000014,107,1,1446651359490,1446651360041,360,389,0,0,0,1,2,1,3,0005-00-0001-91.png,0003-00-0000-66.png
00000014,108,1,1446651361056,1446651361760,358,408,0,0,0,3,4,1,7,0002-00-0000-23.png,0004-00-0000-56.png
00000014,109,0,1446651362731,1446651363375,877,425,0,0,0,2,3,1,5,0003-00-0001-11.png,0002-00-0000-89.png
00000014,110,0,1446651366886,1446651367507,350,423,0,0,0,3,2,1,5,0002-00-0000-17.png,0003-00-0001-86.png
00000014,111,1,1446651370360,1446651370900,299,397,0,0,0,0,1,1,1,0001-00-0000-56.png,0005-00-0000-86.png
00000014,112,1,1446651371887,1446651372481,900,501,0,0,0,1,0,1,1,0005-00-0000-66.png,0001-00-0001-16.png
00000014,113,1,1446651373518,1446651374340,862,369,0,0,0,4,3,1,7,0004-00-0000-17.png,0002-00-0000-72.png
00000014,114,0,1446651375325,1446651376644,924,379,0,0,0,2,3,1,5,0003-00-0001-57.png,0002-00-0001-67.png
00000014,115,1,1446651379927,1446651380542,366,415,0,0,0,3,4,1,7,0002-00-0001-62.png,0004-00-0001-06.png
00000014,116,0,1446651381516,1446651382167,355,402,0,0,0,3,2,1,5,0002-00-0000-19.png,0003-00-0000-86.png
00000014,117,1,1446651387061,1446651388049,906,399,0,0,0,1,0,1,1,0005-00-0001-58.png,0001-00-0000-53.png
00000014,118,1,1446651389012,1446651389821,350,408,0,0,0,0,1,1,1,0001-00-0001-68.png,0005-00-0001-08.png
00000014,119,0,1446651390886,1446651391521,427,544,0,0,0,2,1,1,3,0003-00-0001-15.png,0005-00-0000-19.png
00000014,120,1,1446651397320,1446651397893,368,534,0,0,0,1,2,1,3,0005-00-0000-67.png,0003-00-0000-26.png
00000014,121,0,1446651398871,1446651399474,348,419,0,0,0,3,2,1,5,0002-00-0001-99.png,0003-00-0000-21.png
00000014,122,0,1446651408257,1446651408729,876,464,0,0,0,3,4,1,7,0002-00-0001-42.png,0004-00-0001-25.png
00000014,123,1,1446651411655,1446651412165,371,411,0,0,0,1,2,1,3,0005-00-0001-19.png,0003-00-0001-97.png
00000014,124,1,1446651413120,1446651413637,372,419,0,0,0,0,1,1,1,0001-00-0000-28.png,0005-00-0000-37.png
00000014,125,1,1446651414748,1446651415969,926,438,0,0,0,2,1,1,3,0003-00-0000-69.png,0005-00-0000-19.png
00000014,126,1,1446651416938,1446651417525,901,441,0,0,0,1,0,1,1,0005-00-0001-02.png,0001-00-0000-20.png
00000014,127,0,1446651418497,1446651419097,886,563,0,0,0,2,3,1,5,0003-00-0001-71.png,0002-00-0001-63.png
00000014,128,1,1446651422474,1446651423167,873,384,0,0,0,4,3,1,7,0004-00-0001-89.png,0002-00-0000-99.png
00000014,129,1,1446651424101,1446651424967,875,410,0,0,0,2,1,1,3,0003-00-0000-00.png,0005-00-0001-51.png
00000014,130,1,1446651425932,1446651426854,416,386,0,0,0,3,4,1,7,0002-00-0000-91.png,0004-00-0001-38.png
00000014,131,0,1446651428316,1446651428944,913,411,0,0,0,2,3,1,5,0003-00-0000-98.png,0002-00-0001-90.png
00000014,132,0,1446651432113,1446651432744,399,469,0,0,0,1,0,1,1,0005-00-0000-63.png,0001-00-0001-72.png
00000014,133,1,1446651435600,1446651436123,338,380,0,0,0,0,1,1,1,0001-00-0001-89.png,0005-00-0000-94.png
00000014,134,1,1446651437032,1446651437728,953,413,0,0,0,4,3,1,7,0004-00-0001-38.png,0002-00-0001-58.png
00000014,135,0,1446651438733,1446651439816,866,482,0,0,0,1,2,1,3,0005-00-0000-27.png,0003-00-0000-61.png
00000014,136,0,1446651444031,1446651444636,362,475,0,0,0,3,2,1,5,0002-00-0000-99.png,0003-00-0000-97.png
00000014,137,0,1446651449904,1446651450668,928,398,0,0,0,2,3,1,5,0003-00-0001-05.png,0002-00-0000-51.png
00000014,138,1,1446651455668,1446651456469,938,397,0,0,0,3,2,1,5,0002-00-0000-46.png,0003-00-0000-40.png
00000014,139,1,1446651457476,1446651458277,931,419,0,0,0,2,1,1,3,0003-00-0000-42.png,0005-00-0000-48.png
00000014,140,1,1446651459222,1446651459940,332,397,0,0,0,3,4,1,7,0002-00-0000-06.png,0004-00-0000-58.png
00000014,141,1,1446651460973,1446651461801,913,424,0,0,0,4,3,1,7,0004-00-0001-37.png,0002-00-0001-72.png
00000014,142,1,1446651462803,1446651463473,888,423,0,0,0,1,0,1,1,0005-00-0000-95.png,0001-00-0001-37.png
00000014,143,1,1446651464390,1446651465145,379,422,0,0,0,1,2,1,3,0005-00-0001-27.png,0003-00-0001-96.png
00000014,144,1,1446651466132,1446651466661,378,413,0,0,0,0,1,1,1,0001-00-0001-60.png,0005-00-0001-24.png
00000014,145,1,1446651467694,1446651468265,901,410,0,0,0,1,0,1,1,0005-00-0001-66.png,0001-00-0001-44.png
00000014,146,0,1446651469386,1446651470030,357,434,0,0,0,3,2,1,5,0002-00-0000-01.png,0003-00-0001-52.png
00000014,147,0,1446651473055,1446651473665,898,511,0,0,0,2,3,1,5,0003-00-0000-85.png,0002-00-0001-13.png
00000014,148,1,1446651476767,1446651477349,312,416,0,0,0,1,2,1,3,0005-00-0000-35.png,0003-00-0001-33.png
00000014,149,1,1446651478308,1446651479363,879,481,0,0,0,4,3,1,7,0004-00-0001-78.png,0002-00-0001-57.png
00000014,150,0,1446651480386,1446651481411,905,402,0,0,0,0,1,1,1,0001-00-0000-52.png,0005-00-0001-26.png
00000014,151,1,1446651484551,1446651485167,351,398,0,0,0,3,4,1,7,0002-00-0001-49.png,0004-00-0001-73.png
00000014,152,1,1446651486117,1446651487125,903,416,0,0,0,2,1,1,3,0003-00-0001-37.png,0005-00-0000-93.png
00000014,153,0,1446651488210,1446651488796,381,436,0,0,0,3,2,1,5,0002-00-0000-50.png,0003-00-0001-68.png
00000014,154,0,1446651492295,1446651493179,878,466,0,0,0,1,2,1,3,0005-00-0000-82.png,0003-00-0001-48.png
00000014,155,0,1446651496259,1446651497076,923,378,0,0,0,2,3,1,5,0003-00-0001-74.png,0002-00-0000-47.png
00000014,156,1,1446651500821,1446651501660,900,319,0,0,0,4,3,1,7,0004-00-0001-65.png,0002-00-0001-98.png
00000014,157,0,1446651502778,1446651503814,869,367,0,0,0,0,1,1,1,0001-00-0001-38.png,0005-00-0001-97.png
00000014,158,1,1446651507152,1446651507783,354,427,0,0,0,3,4,1,7,0002-00-0000-80.png,0004-00-0000-96.png
00000014,159,1,1446651508773,1446651509442,887,450,0,0,0,2,1,1,3,0003-00-0000-30.png,0005-00-0001-81.png
00000014,160,1,1446651510422,1446651511382,915,415,0,0,0,1,0,1,1,0005-00-0001-86.png,0001-00-0001-75.png
00000014,161,0,1446651512775,1446651513395,899,457,0,0,0,2,3,1,5,0003-00-0000-77.png,0002-00-0001-52.png
00000014,162,0,1446651516864,1446651518214,415,383,0,0,0,2,1,1,3,0003-00-0001-44.png,0005-00-0000-18.png
00000014,163,0,1446651522081,1446651522937,925,422,0,0,0,3,4,1,7,0002-00-0000-09.png,0004-00-0000-52.png
00000014,164,0,1446651526460,1446651527059,330,358,0,0,0,3,2,1,5,0002-00-0000-93.png,0003-00-0001-83.png
00000014,165,0,1446651530474,1446651531352,900,475,0,0,0,1,2,1,3,0005-00-0000-88.png,0003-00-0001-23.png
00000014,166,1,1446651534495,1446651535229,947,366,0,0,0,1,0,1,1,0005-00-0001-66.png,0001-00-0000-79.png
00000014,167,1,1446651536247,1446651537093,874,498,0,0,0,4,3,1,7,0004-00-0001-48.png,0002-00-0001-22.png
00000014,168,1,1446651538004,1446651538601,350,450,0,0,0,0,1,1,1,0001-00-0001-82.png,0005-00-0000-88.png
00000014,169,1,1446651539634,1446651540248,332,422,0,0,0,1,2,1,3,0005-00-0001-35.png,0003-00-0001-05.png
00000014,170,0,1446651541352,1446651542008,372,505,0,0,0,3,2,1,5,0002-00-0001-29.png,0003-00-0001-93.png
00000014,171,0,1446651545090,1446651545981,888,397,0,0,0,0,1,1,1,0001-00-0001-08.png,0005-00-0000-72.png
00000014,172,0,1446651548856,1446651549641,902,398,0,0,0,3,4,1,7,0002-00-0001-91.png,0004-00-0000-74.png
00000014,173,1,1446651552695,1446651553452,928,364,0,0,0,2,1,1,3,0003-00-0000-62.png,0005-00-0001-97.png
00000014,174,1,1446651554442,1446651555156,928,387,0,0,0,1,0,1,1,0005-00-0000-38.png,0001-00-0001-89.png
00000014,175,1,1446651556100,1446651557142,909,416,0,0,0,4,3,1,7,0004-00-0000-25.png,0002-00-0001-30.png
00000014,176,1,1446651558100,1446651559475,416,415,0,0,0,2,3,1,5,0003-00-0000-04.png,0002-00-0000-89.png
00000014,177,0,1446651560525,1446651561088,861,476,0,0,0,1,2,1,3,0005-00-0001-43.png,0003-00-0000-25.png
00000014,178,0,1446651564421,1446651565383,901,513,0,0,0,3,4,1,7,0002-00-0001-95.png,0004-00-0001-09.png
00000014,179,1,1446651568747,1446651569608,899,489,0,0,0,4,3,1,7,0004-00-0001-70.png,0002-00-0000-83.png
00000014,180,1,1446651570680,1446651571584,951,370,0,0,0,2,1,1,3,0003-00-0001-70.png,0005-00-0000-12.png
00000014,181,1,1446651572644,1446651573256,903,416,0,0,0,1,0,1,1,0005-00-0001-93.png,0001-00-0001-17.png
00000014,182,1,1446651574379,1446651575321,901,359,0,0,0,3,2,1,5,0002-00-0001-10.png,0003-00-0000-81.png
00000014,183,0,1446651576320,1446651577018,898,405,0,0,0,2,3,1,5,0003-00-0001-79.png,0002-00-0001-06.png
00000014,184,1,1446651580064,1446651580691,353,350,0,0,0,0,1,1,1,0001-00-0000-01.png,0005-00-0001-10.png
00000014,185,0,1446651581756,1446651582314,325,421,0,0,0,3,2,1,5,0002-00-0001-88.png,0003-00-0000-67.png
00000014,186,0,1446651585396,1446651586227,868,477,0,0,0,1,2,1,3,0005-00-0001-78.png,0003-00-0001-90.png
00000014,187,1,1446651590154,1446651590719,875,513,0,0,0,4,3,1,7,0004-00-0000-11.png,0002-00-0000-66.png
00000014,188,1,1446651591604,1446651592512,331,498,0,0,0,3,4,1,7,0002-00-0001-81.png,0004-00-0001-88.png
00000014,189,0,1446651593686,1446651594226,888,528,0,0,0,2,3,1,5,0003-00-0001-25.png,0002-00-0000-01.png
00000014,190,1,1446651597566,1446651598491,869,523,0,0,0,1,0,1,1,0005-00-0001-18.png,0001-00-0001-74.png
00000014,191,1,1446651599507,1446651600145,387,410,0,0,0,0,1,1,1,0001-00-0000-46.png,0005-00-0001-54.png
00000014,192,1,1446651601165,1446651602226,908,408,0,0,0,2,1,1,3,0003-00-0000-68.png,0005-00-0001-97.png
00000014,193,0,1446651603726,1446651604268,350,436,0,0,0,3,2,1,5,0002-00-0000-80.png,0003-00-0000-26.png
00000014,194,1,1446651607363,1446651608056,347,423,0,0,0,0,1,1,1,0001-00-0001-06.png,0005-00-0000-79.png
00000014,195,1,1446651609172,1446651609930,908,431,0,0,0,1,0,1,1,0005-00-0001-04.png,0001-00-0001-61.png
00000014,196,0,1446651610908,1446651611599,350,403,0,0,0,4,3,1,7,0004-00-0000-08.png,0002-00-0001-98.png
00000014,197,0,1446651614886,1446651615585,904,348,0,0,0,1,2,1,3,0005-00-0000-06.png,0003-00-0001-57.png
00000014,198,0,1446651618644,1446651619251,870,367,0,0,0,2,3,1,5,0003-00-0000-55.png,0002-00-0001-19.png
00000014,199,0,1446651622461,1446651623291,874,489,0,0,0,3,4,1,7,0002-00-0000-32.png,0004-00-0001-62.png
00000014,200,0,1446651626193,1446651626758,312,382,0,0,0,2,1,1,3,0003-00-0000-68.png,0005-00-0001-66.png
00000014,201,1,1446651630170,1446651630789,334,372,0,0,0,0,1,1,1,0001-00-0001-11.png,0005-00-0000-56.png
00000014,202,1,1446651631822,1446651632499,919,404,0,0,0,4,3,1,7,0004-00-0000-17.png,0002-00-0000-05.png
00000014,203,0,1446651633436,1446651634167,905,427,0,0,0,3,4,1,7,0002-00-0000-76.png,0004-00-0001-06.png
00000014,204,1,1446651637527,1446651638626,951,412,0,0,0,1,0,1,1,0005-00-0000-09.png,0001-00-0001-39.png
00000014,205,0,1446651639620,1446651640344,381,434,0,0,0,3,2,1,5,0002-00-0001-54.png,0003-00-0000-75.png
00000014,206,1,1446651643541,1446651644420,892,440,0,0,0,2,1,1,3,0003-00-0000-73.png,0005-00-0001-41.png
00000014,207,0,1446651645487,1446651646040,924,431,0,0,0,2,3,1,5,0003-00-0001-30.png,0002-00-0001-92.png
00000014,208,0,1446651649047,1446651649938,869,366,0,0,0,1,2,1,3,0005-00-0000-57.png,0003-00-0000-69.png
00000014,209,0,1446651653966,1446651655067,439,362,0,0,0,2,1,1,3,0003-00-0001-07.png,0005-00-0001-50.png
00000014,210,1,1446651658284,1446651659043,888,502,0,0,0,1,0,1,1,0005-00-0001-70.png,0001-00-0001-13.png
00000014,211,1,1446651659991,1446651660998,323,411,0,0,0,3,4,1,7,0002-00-0001-24.png,0004-00-0000-82.png
00000014,212,0,1446651661934,1446651662975,902,356,0,0,0,1,2,1,3,0005-00-0001-11.png,0003-00-0000-67.png
00000014,213,1,1446651666083,1446651666780,327,379,0,0,0,0,1,1,1,0001-00-0001-93.png,0005-00-0001-40.png
00000014,214,0,1446651667801,1446651668561,897,431,0,0,0,2,3,1,5,0003-00-0001-85.png,0002-00-0000-86.png
00000014,215,0,1446651672315,1446651672986,376,436,0,0,0,3,2,1,5,0002-00-0001-13.png,0003-00-0000-14.png
00000014,216,1,1446651676949,1446651677575,900,384,0,0,0,4,3,1,7,0004-00-0000-31.png,0002-00-0001-21.png
00000014,217,0,1446651678556,1446651679156,364,406,0,0,0,3,2,1,5,0002-00-0001-22.png,0003-00-0001-26.png
00000014,218,1,1446651682232,1446651683128,902,407,0,0,0,2,1,1,3,0003-00-0000-85.png,0005-00-0000-55.png
00000014,219,0,1446651684191,1446651685293,379,398,0,0,0,4,3,1,7,0004-00-0000-03.png,0002-00-0001-41.png
00000014,220,1,1446651688384,1446651688991,325,394,0,0,0,0,1,1,1,0001-00-0001-84.png,0005-00-0000-46.png
00000014,221,0,1446651689974,1446651690570,947,367,0,0,0,2,3,1,5,0003-00-0000-52.png,0002-00-0000-52.png
00000014,222,1,1446651693533,1446651694573,931,401,0,0,0,1,0,1,1,0005-00-0001-61.png,0001-00-0001-87.png
00000014,223,1,1446651695519,1446651696531,351,350,0,0,0,1,2,1,3,0005-00-0001-56.png,0003-00-0000-80.png
00000014,224,1,1446651697571,1446651698185,356,397,0,0,0,3,4,1,7,0002-00-0000-38.png,0004-00-0000-26.png
00000014,225,1,1446651699323,1446651700174,325,398,0,0,0,3,4,1,7,0002-00-0000-27.png,0004-00-0000-31.png
00000014,226,0,1446651701227,1446651701912,415,529,0,0,0,2,1,1,3,0003-00-0001-01.png,0005-00-0000-47.png
00000014,227,1,1446651704928,1446651705495,360,405,0,0,0,0,1,1,1,0001-00-0000-69.png,0005-00-0001-66.png
00000014,228,0,1446651706552,1446651707119,344,423,0,0,0,3,2,1,5,0002-00-0001-15.png,0003-00-0001-75.png
00000014,229,0,1446651710055,1446651710922,957,401,0,0,0,2,3,1,5,0003-00-0000-30.png,0002-00-0001-95.png
00000014,230,1,1446651714131,1446651715043,875,358,0,0,0,4,3,1,7,0004-00-0000-43.png,0002-00-0001-92.png
00000014,231,0,1446651716044,1446651716961,877,469,0,0,0,1,2,1,3,0005-00-0000-27.png,0003-00-0001-21.png
00000014,232,1,1446651719877,1446651720713,891,485,0,0,0,1,0,1,1,0005-00-0001-95.png,0001-00-0001-21.png
00000014,233,0,1446651721804,1446651722764,877,494,0,0,0,0,1,1,1,0001-00-0000-81.png,0005-00-0001-15.png
00000014,234,0,1446651725725,1446651726471,892,482,0,0,0,1,2,1,3,0005-00-0000-06.png,0003-00-0000-51.png
00000014,235,1,1446651729908,1446651730793,940,396,0,0,0,4,3,1,7,0004-00-0001-26.png,0002-00-0001-47.png
00000014,236,1,1446651732025,1446651732560,375,412,0,0,0,3,4,1,7,0002-00-0000-17.png,0004-00-0000-80.png
00000014,237,0,1446651733646,1446651738768,499,393,0,0,0,3,2,1,5,0002-00-0000-79.png,0003-00-0001-59.png
00000014,238,0,1446651742149,1446651742627,927,398,0,0,0,2,3,1,5,0003-00-0001-74.png,0002-00-0000-05.png
00000014,239,1,1446651745527,1446651745959,920,375,0,0,0,2,1,1,3,0003-00-0000-65.png,0005-00-0001-04.png
00000014,240,0,1446651747074,1446651747600,416,528,0,0,0,1,0,1,1,0005-00-0000-27.png,0001-00-0000-49.png
00000014,241,0,1446651750714,1446651751202,334,380,0,0,0,2,1,1,3,0003-00-0001-90.png,0005-00-0001-09.png
00000014,242,0,1446651754875,1446651759694,363,358,0,0,0,1,0,1,1,0005-00-0000-24.png,0001-00-0001-23.png
00000014,243,1,1446651762914,1446651763443,331,383,0,0,0,1,2,1,3,0005-00-0001-79.png,0003-00-0001-91.png
00000014,244,0,1446651764447,1446651765037,376,449,0,0,0,3,2,1,5,0002-00-0001-92.png,0003-00-0001-43.png
00000014,245,1,1446651768292,1446651768867,356,375,0,0,0,0,1,1,1,0001-00-0001-88.png,0005-00-0000-80.png
00000014,246,0,1446651769889,1446651770478,902,424,0,0,0,2,3,1,5,0003-00-0001-14.png,0002-00-0001-76.png
00000014,247,1,1446651773542,1446651774153,930,416,0,0,0,4,3,1,7,0004-00-0001-82.png,0002-00-0000-74.png
00000014,248,0,1446651775124,1446651776005,926,425,0,0,0,3,4,1,7,0002-00-0001-88.png,0004-00-0000-27.png
00000014,249,1,1446651779287,1446651779897,340,408,0,0,0,0,1,1,1,0001-00-0001-47.png,0005-00-0001-88.png
00000014,250,1,1446651780872,1446651781583,880,401,0,0,0,2,1,1,3,0003-00-0000-80.png,0005-00-0000-40.png
00000014,251,0,1446651782703,1446651783420,889,388,0,0,0,2,3,1,5,0003-00-0001-18.png,0002-00-0001-19.png
00000014,252,0,1446651786938,1446651787587,352,407,0,0,0,4,3,1,7,0004-00-0001-62.png,0002-00-0000-67.png
00000014,253,1,1446651790465,1446651791074,895,498,0,0,0,1,0,1,1,0005-00-0001-41.png,0001-00-0001-37.png
00000014,254,0,1446651792074,1446651793001,953,416,0,0,0,3,4,1,7,0002-00-0001-97.png,0004-00-0001-16.png
00000014,255,1,1446651796332,1446651797083,928,413,0,0,0,3,2,1,5,0002-00-0000-42.png,0003-00-0000-16.png
00000014,256,0,1446651798146,1446651799123,947,393,0,0,0,1,2,1,3,0005-00-0001-91.png,0003-00-0001-63.png
00000014,257,1,1446651802550,1446651803182,348,389,0,0,0,0,1,1,1,0001-00-0001-00.png,0005-00-0000-91.png
00000014,258,0,1446651804225,1446651804991,336,410,0,0,0,1,0,1,1,0005-00-0000-10.png,0001-00-0001-14.png
00000014,259,0,1446651808054,1446651808750,905,349,0,0,0,1,2,1,3,0005-00-0000-08.png,0003-00-0001-28.png
00000014,260,0,1446651812375,1446651813305,936,381,0,0,0,3,4,1,7,0002-00-0001-62.png,0004-00-0000-40.png
00000014,261,1,1446651816379,1446651817080,865,514,0,0,0,3,2,1,5,0002-00-0001-69.png,0003-00-0001-52.png
00000014,262,0,1446651818036,1446651818650,869,369,0,0,0,2,3,1,5,0003-00-0001-98.png,0002-00-0000-24.png
00000014,263,1,1446651821976,1446651823225,896,472,0,0,0,2,1,1,3,0003-00-0001-17.png,0005-00-0000-30.png
00000014,264,1,1446651824118,1446651825112,905,401,0,0,0,4,3,1,7,0004-00-0000-33.png,0002-00-0000-60.png
00000014,265,0,1446651826152,1446651826757,878,522,0,0,0,3,4,1,7,0002-00-0000-22.png,0004-00-0001-01.png
00000014,266,1,1446651830099,1446651830752,913,463,0,0,0,1,0,1,1,0005-00-0000-47.png,0001-00-0000-20.png
00000014,267,1,1446651831692,1446651832762,883,392,0,0,0,2,1,1,3,0003-00-0000-09.png,0005-00-0000-46.png
00000014,268,0,1446651833769,1446651834672,914,371,0,0,0,2,3,1,5,0003-00-0000-42.png,0002-00-0001-72.png
00000014,269,1,1446651837906,1446651838759,881,513,0,0,0,4,3,1,7,0004-00-0000-04.png,0002-00-0000-37.png
00000014,270,0,1446651839793,1446651840417,371,408,0,0,0,3,2,1,5,0002-00-0001-18.png,0003-00-0000-70.png
00000014,271,1,1446651843548,1446651844139,354,365,0,0,0,1,2,1,3,0005-00-0000-44.png,0003-00-0000-04.png
00000014,272,0,1446651845139,1446651846022,905,375,0,0,0,0,1,1,1,0001-00-0000-53.png,0005-00-0000-67.png
00000014,273,0,1446651849222,1446651849878,324,339,0,0,0,3,2,1,5,0002-00-0000-02.png,0003-00-0001-13.png
00000014,274,1,1446651852993,1446651853598,326,384,0,0,0,0,1,1,1,0001-00-0001-86.png,0005-00-0001-76.png
00000014,275,0,1446651854692,1446651855534,351,402,0,0,0,1,0,1,1,0005-00-0001-02.png,0001-00-0000-79.png
00000014,276,1,1446651858711,1446651859487,369,488,0,0,0,3,4,1,7,0002-00-0000-16.png,0004-00-0000-06.png
00000014,277,1,1446651860452,1446651861282,901,357,0,0,0,2,1,1,3,0003-00-0000-03.png,0005-00-0001-92.png
00000014,278,0,1446651862344,1446651863260,876,364,0,0,0,1,2,1,3,0005-00-0001-39.png,0003-00-0000-54.png
00000014,279,0,1446651866412,1446651867091,325,358,0,0,0,4,3,1,7,0004-00-0001-77.png,0002-00-0000-64.png
00000014,280,0,1446651870331,1446651871059,916,440,0,0,0,2,3,1,5,0003-00-0001-35.png,0002-00-0000-10.png
00000014,281,1,1446651874242,1446651875157,888,476,0,0,0,1,0,1,1,0005-00-0000-67.png,0001-00-0000-86.png
00000014,282,1,1446651876526,1446651877649,376,370,0,0,0,1,2,1,3,0005-00-0001-03.png,0003-00-0000-62.png
00000014,283,0,1446651878820,1446651879768,898,361,0,0,0,2,3,1,5,0003-00-0000-99.png,0002-00-0000-83.png
00000014,284,0,1446651883194,1446651883759,363,423,0,0,0,3,2,1,5,0002-00-0000-23.png,0003-00-0000-25.png
00000014,285,1,1446651886788,1446651887425,332,396,0,0,0,0,1,1,1,0001-00-0001-83.png,0005-00-0001-03.png
00000014,286,0,1446651888635,1446651889954,365,388,0,0,0,4,3,1,7,0004-00-0001-37.png,0002-00-0000-87.png
00000014,287,1,1446651894200,1446651894861,923,433,0,0,0,2,1,1,3,0003-00-0000-76.png,0005-00-0001-37.png
00000014,288,0,1446651895859,1446651896682,921,394,0,0,0,3,4,1,7,0002-00-0000-93.png,0004-00-0000-37.png
00000014,289,0,1446651899975,1446651900684,923,429,0,0,0,3,4,1,7,0002-00-0000-42.png,0004-00-0001-41.png
00000014,290,0,1446651903836,1446651904412,365,421,0,0,0,3,2,1,5,0002-00-0000-04.png,0003-00-0001-12.png
00000014,291,1,1446651907497,1446651908180,879,480,0,0,0,2,1,1,3,0003-00-0000-49.png,0005-00-0001-26.png
00000014,292,1,1446651909187,1446651909876,364,408,0,0,0,1,2,1,3,0005-00-0001-13.png,0003-00-0000-43.png
00000014,293,1,1446651910967,1446651911590,902,416,0,0,0,1,0,1,1,0005-00-0000-70.png,0001-00-0001-02.png
00000014,294,0,1446651912686,1446651913332,921,367,0,0,0,2,3,1,5,0003-00-0001-08.png,0002-00-0001-38.png
00000014,295,1,1446651916320,1446651917098,927,370,0,0,0,4,3,1,7,0004-00-0001-24.png,0002-00-0001-38.png
00000014,296,1,1446651918122,1446651918643,407,437,0,0,0,0,1,1,1,0001-00-0000-85.png,0005-00-0001-38.png
00000014,297,0,1446651919673,1446651920496,462,557,0,0,0,2,1,1,3,0003-00-0001-90.png,0005-00-0000-13.png
00000014,298,0,1446651924226,1446651924984,887,366,0,0,0,3,4,1,7,0002-00-0001-49.png,0004-00-0000-83.png
00000014,299,1,1446651928175,1446651928965,875,365,0,0,0,3,2,1,5,0002-00-0000-63.png,0003-00-0001-22.png
00000014,300,1,1446651930087,1446651930670,288,412,0,0,0,0,1,1,1,0001-00-0000-18.png,0005-00-0000-43.png
00000014,301,1,1446651931811,1446651932539,875,371,0,0,0,1,0,1,1,0005-00-0000-03.png,0001-00-0000-01.png
00000014,302,0,1446651933595,1446651934499,873,413,0,0,0,1,2,1,3,0005-00-0001-39.png,0003-00-0000-74.png
00000014,303,1,1446651939171,1446651939985,902,408,0,0,0,4,3,1,7,0004-00-0001-68.png,0002-00-0000-89.png
00000014,304,0,1446651940951,1446651941578,899,385,0,0,0,2,3,1,5,0003-00-0000-95.png,0002-00-0001-00.png
00000014,305,0,1446651945212,1446651945968,862,320,0,0,0,1,2,1,3,0005-00-0000-08.png,0003-00-0001-81.png
00000014,306,1,1446651949141,1446651949846,899,430,0,0,0,4,3,1,7,0004-00-0001-67.png,0002-00-0000-03.png
00000014,307,0,1446651950919,1446651951726,939,399,0,0,0,3,4,1,7,0002-00-0000-55.png,0004-00-0001-37.png
00000014,308,1,1446651955581,1446651956142,300,413,0,0,0,0,1,1,1,0001-00-0001-99.png,0005-00-0000-02.png
00000014,309,0,1446651957132,1446651957707,878,489,0,0,0,2,3,1,5,0003-00-0001-69.png,0002-00-0001-94.png
00000014,310,1,1446651961284,1446651962492,877,469,0,0,0,2,1,1,3,0003-00-0000-97.png,0005-00-0000-48.png
00000014,311,0,1446651963650,1446651964134,376,462,0,0,0,3,2,1,5,0002-00-0000-09.png,0003-00-0000-65.png
00000014,312,1,1446651967072,1446651967524,868,484,0,0,0,1,0,1,1,0005-00-0000-07.png,0001-00-0000-85.png
00000014,313,0,1446651968501,1446651969132,401,436,0,0,0,3,2,1,5,0002-00-0000-74.png,0003-00-0001-42.png
00000014,314,1,1446651972813,1446651973967,453,410,0,0,0,2,3,1,5,0003-00-0001-52.png,0002-00-0000-85.png
00000014,315,0,1446651974890,1446651975755,875,472,0,0,0,1,2,1,3,0005-00-0001-72.png,0003-00-0000-55.png
00000014,316,1,1446651978858,1446651979443,929,414,0,0,0,2,1,1,3,0003-00-0000-70.png,0005-00-0001-95.png
00000014,317,0,1446651980378,1446651981221,863,391,0,0,0,3,4,1,7,0002-00-0001-94.png,0004-00-0001-15.png
00000014,318,0,1446651985793,1446651986565,376,410,0,0,0,4,3,1,7,0004-00-0000-16.png,0002-00-0001-63.png
00000014,319,1,1446651990490,1446651991028,338,400,0,0,0,0,1,1,1,0001-00-0001-52.png,0005-00-0001-96.png
00000014,320,1,1446651992005,1446651992653,908,427,0,0,0,1,0,1,1,0005-00-0000-00.png,0001-00-0000-49.png
00000014,321,1,1446651993709,1446651994590,928,399,0,0,0,3,2,1,5,0002-00-0000-41.png,0003-00-0001-28.png
00000014,322,0,1446651995573,1446651996157,877,390,0,0,0,2,3,1,5,0003-00-0000-66.png,0002-00-0000-45.png
00000014,323,1,1446652000329,1446652000957,881,504,0,0,0,2,1,1,3,0003-00-0000-43.png,0005-00-0000-77.png
00000014,324,1,1446652001967,1446652002617,350,413,0,0,0,0,1,1,1,0001-00-0000-33.png,0005-00-0001-46.png
00000014,325,1,1446652003798,1446652004428,887,508,0,0,0,1,0,1,1,0005-00-0001-40.png,0001-00-0001-39.png
00000014,326,1,1446652005485,1446652006169,385,416,0,0,0,3,4,1,7,0002-00-0000-15.png,0004-00-0000-97.png
00000014,327,1,1446652007223,1446652008007,875,357,0,0,0,4,3,1,7,0004-00-0000-89.png,0002-00-0000-18.png
00000014,328,1,1446652009023,1446652010438,440,391,0,0,0,1,2,1,3,0005-00-0001-20.png,0003-00-0000-02.png
00000014,329,1,1446652011498,1446652011969,342,423,0,0,0,3,4,1,7,0002-00-0001-64.png,0004-00-0000-26.png
00000014,330,0,1446652013098,1446652013764,431,535,0,0,0,3,2,1,5,0002-00-0000-85.png,0003-00-0001-28.png
00000014,331,0,1446652017987,1446652019065,418,403,0,0,0,4,3,1,7,0004-00-0001-31.png,0002-00-0000-36.png
00000014,332,0,1446652022599,1446652023220,877,414,0,0,0,1,2,1,3,0005-00-0000-47.png,0003-00-0001-18.png
00000014,333,1,1446652026196,1446652026751,870,341,0,0,0,1,0,1,1,0005-00-0000-21.png,0001-00-0000-00.png
00000014,334,1,1446652027817,1446652028569,902,360,0,0,0,2,1,1,3,0003-00-0001-69.png,0005-00-0001-86.png
00000014,335,1,1446652029557,1446652030151,350,423,0,0,0,0,1,1,1,0001-00-0001-36.png,0005-00-0000-72.png
00000014,336,0,1446652031236,1446652031849,887,398,0,0,0,2,3,1,5,0003-00-0001-53.png,0002-00-0000-23.png
00000014,337,1,1446652035252,1446652035878,901,426,0,0,0,2,1,1,3,0003-00-0001-63.png,0005-00-0000-82.png
00000014,338,1,1446652036891,1446652037612,884,367,0,0,0,1,0,1,1,0005-00-0001-09.png,0001-00-0001-30.png
00000014,339,0,1446652038669,1446652039342,333,409,0,0,0,4,3,1,7,0004-00-0000-32.png,0002-00-0001-52.png
00000014,340,0,1446652042382,1446652043119,875,453,0,0,0,1,2,1,3,0005-00-0000-29.png,0003-00-0000-13.png
00000014,341,1,1446652046561,1446652047260,385,353,0,0,0,0,1,1,1,0001-00-0001-85.png,0005-00-0000-92.png
00000014,342,0,1446652048311,1446652049054,361,387,0,0,0,3,2,1,5,0002-00-0001-84.png,0003-00-0000-28.png
00000014,343,0,1446652053984,1446652054669,884,448,0,0,0,2,3,1,5,0003-00-0000-64.png,0002-00-0001-09.png
00000014,344,1,1446652060048,1446652060681,363,406,0,0,0,3,4,1,7,0002-00-0001-76.png,0004-00-0000-07.png
00000014,345,1,1446652061676,1446652062598,873,482,0,0,0,4,3,1,7,0004-00-0001-50.png,0002-00-0001-69.png
00000014,346,0,1446652063769,1446652064381,899,397,0,0,0,2,3,1,5,0003-00-0001-54.png,0002-00-0001-42.png
00000014,347,1,1446652067940,1446652068774,926,370,0,0,0,1,0,1,1,0005-00-0000-22.png,0001-00-0000-83.png
00000014,348,0,1446652069871,1446652070688,888,410,0,0,0,1,2,1,3,0005-00-0000-88.png,0003-00-0001-42.png
00000014,349,1,1446652074302,1446652074956,875,489,0,0,0,2,1,1,3,0003-00-0000-36.png,0005-00-0000-10.png
00000014,350,1,1446652075968,1446652076659,299,397,0,0,0,0,1,1,1,0001-00-0001-29.png,0005-00-0000-30.png
00000014,351,0,1446652077689,1446652078632,874,502,0,0,0,3,4,1,7,0002-00-0000-59.png,0004-00-0001-30.png
00000014,352,0,1446652083018,1446652083649,392,522,0,0,0,3,2,1,5,0002-00-0001-49.png,0003-00-0000-32.png
00000014,353,1,1446652087388,1446652088210,883,378,0,0,0,1,0,1,1,0005-00-0000-99.png,0001-00-0000-87.png
00000014,354,1,1446652089269,1446652090595,896,462,0,0,0,4,3,1,7,0004-00-0000-29.png,0002-00-0000-66.png
00000014,355,1,1446652091625,1446652092527,362,391,0,0,0,3,4,1,7,0002-00-0000-80.png,0004-00-0000-72.png
00000014,356,0,1446652093465,1446652094055,370,408,0,0,0,3,2,1,5,0002-00-0001-72.png,0003-00-0000-57.png
00000014,357,1,1446652097520,1446652098350,880,348,0,0,0,2,1,1,3,0003-00-0001-72.png,0005-00-0001-79.png
00000014,358,1,1446652099477,1446652100022,376,462,0,0,0,0,1,1,1,0001-00-0001-41.png,0005-00-0001-00.png
00000014,359,0,1446652101054,1446652101888,888,384,0,0,0,1,2,1,3,0005-00-0001-92.png,0003-00-0000-54.png
00000014,360,0,1446652105749,1446652106377,864,387,0,0,0,2,3,1,5,0003-00-0000-49.png,0002-00-0000-62.png
00000014,361,1,1446652109336,1446652109364,461,444,0,0,0,1,2,1,3,0005-00-0000-14.png,0003-00-0000-78.png
00000014,362,0,1446652110451,1446652111186,349,369,0,0,0,4,3,1,7,0004-00-0000-09.png,0002-00-0000-82.png
00000014,363,0,1446652114891,1446652115526,914,397,0,0,0,3,4,1,7,0002-00-0001-68.png,0004-00-0001-76.png
00000014,364,1,1446652118447,1446652118868,904,401,0,0,0,2,1,1,3,0003-00-0000-50.png,0005-00-0000-70.png
00000014,365,1,1446652119820,1446652120426,872,512,0,0,0,1,0,1,1,0005-00-0000-43.png,0001-00-0001-42.png
00000014,366,1,1446652121520,1446652122039,376,436,0,0,0,0,1,1,1,0001-00-0000-24.png,0005-00-0000-79.png
00000014,367,0,1446652123170,1446652123704,918,391,0,0,0,2,3,1,5,0003-00-0000-49.png,0002-00-0000-16.png
00000014,368,0,1446652126718,1446652127146,357,354,0,0,0,3,2,1,5,0002-00-0000-12.png,0003-00-0001-12.png
00000014,369,1,1446652130921,1446652131696,388,405,0,0,0,1,2,1,3,0005-00-0001-76.png,0003-00-0000-19.png
00000014,370,0,1446652132767,1446652133496,352,385,0,0,0,1,0,1,1,0005-00-0000-05.png,0001-00-0000-53.png
00000014,371,0,1446652137144,1446652137658,335,419,0,0,0,3,2,1,5,0002-00-0000-23.png,0003-00-0000-80.png
00000014,372,1,1446652147055,1446652147577,918,507,0,0,0,4,3,1,7,0004-00-0001-97.png,0002-00-0000-43.png
00000014,373,1,1446652148552,1446652149215,381,423,0,0,0,0,1,1,1,0001-00-0000-25.png,0005-00-0001-92.png
00000014,374,0,1446652150307,1446652150926,903,417,0,0,0,2,3,1,5,0003-00-0000-76.png,0002-00-0001-20.png
00000014,375,0,1446652154606,1446652155375,906,364,0,0,0,3,4,1,7,0002-00-0001-94.png,0004-00-0000-89.png
00000014,376,1,1446652158937,1446652159661,870,367,0,0,0,2,1,1,3,0003-00-0000-51.png,0005-00-0001-33.png
00000014,377,1,1446652160718,1446652161231,362,410,0,0,0,0,1,1,1,0001-00-0001-78.png,0005-00-0001-78.png
00000014,378,1,1446652162276,1446652163111,924,377,0,0,0,4,3,1,7,0004-00-0001-85.png,0002-00-0001-69.png
00000014,379,1,1446652164087,1446652164644,343,414,0,0,0,3,4,1,7,0002-00-0000-09.png,0004-00-0000-55.png
00000014,380,1,1446652165701,1446652166425,391,389,0,0,0,1,2,1,3,0005-00-0001-49.png,0003-00-0001-75.png
00000014,381,0,1446652167470,1446652168054,860,527,0,0,0,2,3,1,5,0003-00-0000-06.png,0002-00-0001-63.png
00000014,382,1,1446652171115,1446652171671,871,365,0,0,0,1,0,1,1,0005-00-0000-27.png,0001-00-0000-61.png
00000014,383,0,1446652172675,1446652173967,436,392,0,0,0,2,1,1,3,0003-00-0001-42.png,0005-00-0000-08.png
00000014,384,0,1446652176969,1446652177824,334,353,0,0,0,3,2,1,5,0002-00-0000-39.png,0003-00-0000-52.png
00000014,385,1,1446652182324,1446652183576,918,483,0,0,0,2,1,1,3,0003-00-0001-34.png,0005-00-0000-04.png
00000014,386,1,1446652184521,1446652185276,375,441,0,0,0,1,2,1,3,0005-00-0001-89.png,0003-00-0000-20.png
00000014,387,0,1446652186321,1446652187223,906,367,0,0,0,3,4,1,7,0002-00-0001-15.png,0004-00-0001-51.png
00000014,388,1,1446652190955,1446652191494,912,426,0,0,0,4,3,1,7,0004-00-0000-11.png,0002-00-0001-36.png
00000014,389,1,1446652192522,1446652192999,361,422,0,0,0,0,1,1,1,0001-00-0000-60.png,0005-00-0000-08.png
00000014,390,0,1446652194050,1446652194594,347,411,0,0,0,3,2,1,5,0002-00-0000-56.png,0003-00-0000-11.png
00000014,391,0,1446652199102,1446652199745,952,383,0,0,0,2,3,1,5,0003-00-0000-92.png,0002-00-0000-91.png
00000014,392,1,1446652203047,1446652203669,913,409,0,0,0,1,0,1,1,0005-00-0001-03.png,0001-00-0000-62.png
00000014,393,0,1446652204676,1446652205552,902,382,0,0,0,3,4,1,7,0002-00-0001-56.png,0004-00-0001-36.png
00000014,394,0,1446652208741,1446652209502,389,476,0,0,0,4,3,1,7,0004-00-0001-27.png,0002-00-0001-60.png
00000014,395,0,1446652213384,1446652213975,324,439,0,0,0,3,2,1,5,0002-00-0000-36.png,0003-00-0001-30.png
00000014,396,1,1446652217083,1446652217919,880,357,0,0,0,1,0,1,1,0005-00-0001-70.png,0001-00-0001-30.png
00000014,397,0,1446652219109,1446652219686,939,424,0,0,0,2,3,1,5,0003-00-0000-06.png,0002-00-0001-90.png
00000014,398,1,1446652223555,1446652224199,369,408,0,0,0,1,2,1,3,0005-00-0001-16.png,0003-00-0000-48.png
00000014,399,1,1446652225161,1446652225912,902,396,0,0,0,2,1,1,3,0003-00-0001-31.png,0005-00-0001-84.png
00000014,400,0,1446652226950,1446652227604,876,383,0,0,0,0,1,1,1,0001-00-0000-22.png,0005-00-0001-75.png
00000014,401,1,1446652230847,1446652231394,901,409,0,0,0,1,0,1,1,0005-00-0001-15.png,0001-00-0000-58.png
00000014,402,0,1446652232357,1446652232854,324,394,0,0,0,4,3,1,7,0004-00-0001-42.png,0002-00-0000-41.png
00000014,403,0,1446652236055,1446652236669,345,400,0,0,0,3,2,1,5,0002-00-0000-21.png,0003-00-0000-47.png
00000014,404,0,1446652240092,1446652240640,882,517,0,0,0,2,3,1,5,0003-00-0001-91.png,0002-00-0001-71.png
00000014,405,1,1446652249631,1446652250105,375,430,0,0,0,0,1,1,1,0001-00-0000-37.png,0005-00-0000-31.png
00000014,406,1,1446652251014,1446652251729,439,564,0,0,0,1,2,1,3,0005-00-0000-83.png,0003-00-0001-38.png
00000014,407,1,1446652252601,1446652253142,403,434,0,0,0,3,4,1,7,0002-00-0000-59.png,0004-00-0001-27.png
00000014,408,0,1446652254655,1446652257550,423,492,0,0,0,2,1,1,3,0003-00-0000-39.png,0005-00-0001-04.png
00000014,409,0,1446652266588,1446652267011,324,431,0,0,0,3,2,1,5,0002-00-0000-25.png,0003-00-0001-90.png
00000014,410,1,1446652273840,1446652274289,360,425,0,0,0,0,1,1,1,0001-00-0001-30.png,0005-00-0000-47.png
00000014,411,0,1446652275195,1446652275722,904,428,0,0,0,3,4,1,7,0002-00-0001-31.png,0004-00-0001-33.png
00000014,412,1,1446652280803,1446652281302,881,513,0,0,0,1,0,1,1,0005-00-0000-48.png,0001-00-0000-77.png
00000014,413,1,1446652282214,1446652282858,452,543,0,0,0,1,2,1,3,0005-00-0001-19.png,0003-00-0000-92.png
00000014,414,0,1446652283754,1446652284346,886,425,0,0,0,2,3,1,5,0003-00-0000-34.png,0002-00-0001-15.png
00000014,415,0,1446652289047,1446652289666,463,423,0,0,0,2,1,1,3,0003-00-0000-60.png,0005-00-0000-23.png
00000014,416,0,1446652293721,1446652294145,323,371,0,0,0,4,3,1,7,0004-00-0000-89.png,0002-00-0000-59.png
00000014,417,1,1446652297538,1446652298153,902,391,0,0,0,4,3,1,7,0004-00-0000-30.png,0002-00-0000-78.png
00000014,418,1,1446652299097,1446652299656,389,405,0,0,0,0,1,1,1,0001-00-0001-73.png,0005-00-0000-74.png
00000014,419,0,1446652300609,1446652301154,904,402,0,0,0,2,3,1,5,0003-00-0001-05.png,0002-00-0000-20.png
00000014,420,1,1446652306214,1446652306768,353,423,0,0,0,1,2,1,3,0005-00-0000-84.png,0003-00-0000-65.png
00000014,421,1,1446652307716,1446652308300,873,490,0,0,0,1,0,1,1,0005-00-0000-64.png,0001-00-0000-19.png
00000014,422,0,1446652309304,1446652310085,910,374,0,0,0,3,4,1,7,0002-00-0000-09.png,0004-00-0001-37.png
00000014,423,1,1446652314433,1446652314996,911,474,0,0,0,2,1,1,3,0003-00-0000-50.png,0005-00-0001-95.png
00000014,424,1,1446652316085,1446652316873,876,392,0,0,0,3,2,1,5,0002-00-0001-38.png,0003-00-0001-89.png
00000014,425,0,1446652317772,1446652318359,876,410,0,0,0,3,4,1,7,0002-00-0000-90.png,0004-00-0000-41.png
00000014,426,1,1446652323529,1446652324043,325,397,0,0,0,1,2,1,3,0005-00-0001-13.png,0003-00-0001-37.png
00000014,427,0,1446652324971,1446652325656,363,410,0,0,0,3,2,1,5,0002-00-0000-45.png,0003-00-0000-54.png
00000014,428,1,1446652330694,1446652331376,907,364,0,0,0,4,3,1,7,0004-00-0000-60.png,0002-00-0001-39.png
00000014,429,1,1446652332482,1446652333287,913,424,0,0,0,1,0,1,1,0005-00-0001-81.png,0001-00-0001-48.png
00000014,430,0,1446652334157,1446652335501,376,384,0,0,0,2,1,1,3,0003-00-0001-40.png,0005-00-0001-17.png
00000014,431,0,1446652338848,1446652339440,942,392,0,0,0,2,3,1,5,0003-00-0001-85.png,0002-00-0000-77.png
00000014,432,1,1446652343035,1446652343631,379,374,0,0,0,0,1,1,1,0001-00-0000-41.png,0005-00-0000-08.png
00000014,433,1,1446652344597,1446652345309,888,398,0,0,0,1,0,1,1,0005-00-0000-70.png,0001-00-0001-04.png
00000014,434,1,1446652346276,1446652347127,871,456,0,0,0,4,3,1,7,0004-00-0000-69.png,0002-00-0000-67.png
00000014,435,0,1446652348116,1446652348783,889,398,0,0,0,2,3,1,5,0003-00-0000-15.png,0002-00-0000-73.png
00000014,436,1,1446652352750,1446652353345,383,402,0,0,0,0,1,1,1,0001-00-0000-98.png,0005-00-0001-53.png
00000014,437,0,1446652354285,1446652354900,929,415,0,0,0,3,4,1,7,0002-00-0001-85.png,0004-00-0001-43.png
00000014,438,0,1446652358043,1446652359308,334,412,0,0,0,3,2,1,5,0002-00-0001-13.png,0003-00-0001-00.png
00000014,439,0,1446652363252,1446652363945,873,430,0,0,0,1,2,1,3,0005-00-0000-48.png,0003-00-0000-78.png
00000014,440,1,1446652367752,1446652368377,929,389,0,0,0,2,1,1,3,0003-00-0001-68.png,0005-00-0000-98.png
00000014,441,1,1446652369455,1446652369995,371,407,0,0,0,1,2,1,3,0005-00-0000-33.png,0003-00-0001-66.png
00000014,442,0,1446652371045,1446652371619,901,398,0,0,0,2,3,1,5,0003-00-0000-43.png,0002-00-0001-65.png
00000014,443,0,1446652375068,1446652375807,376,383,0,0,0,3,2,1,5,0002-00-0000-59.png,0003-00-0001-49.png
00000014,444,0,1446652380256,1446652381252,876,421,0,0,0,3,4,1,7,0002-00-0001-51.png,0004-00-0001-92.png
00000014,445,1,1446652385456,1446652386288,971,378,0,0,0,2,1,1,3,0003-00-0000-71.png,0005-00-0000-68.png
00000014,446,1,1446652387366,1446652387914,364,502,0,0,0,0,1,1,1,0001-00-0001-26.png,0005-00-0001-36.png
00000014,447,1,1446652388976,1446652389811,888,457,0,0,0,1,0,1,1,0005-00-0000-50.png,0001-00-0001-20.png
00000014,448,1,1446652390812,1446652391745,925,345,0,0,0,4,3,1,7,0004-00-0000-09.png,0002-00-0001-60.png
00000014,449,1,1446652392793,1446652393593,863,335,0,0,0,4,3,1,7,0004-00-0000-43.png,0002-00-0001-98.png
00000014,450,0,1446652394610,1446652395168,358,419,0,0,0,3,2,1,5,0002-00-0001-51.png,0003-00-0000-46.png
00000014,451,1,1446652399352,1446652399974,363,361,0,0,0,0,1,1,1,0001-00-0000-65.png,0005-00-0001-26.png
00000014,452,1,1446652401024,1446652401791,382,436,0,0,0,3,4,1,7,0002-00-0000-16.png,0004-00-0000-92.png
00000014,453,0,1446652402831,1446652403491,900,409,0,0,0,2,3,1,5,0003-00-0001-71.png,0002-00-0000-60.png
00000014,454,1,1446652406676,1446652407217,376,398,0,0,0,1,2,1,3,0005-00-0001-87.png,0003-00-0000-96.png
00000014,455,1,1446652408427,1446652409197,879,350,0,0,0,1,0,1,1,0005-00-0000-13.png,0001-00-0000-83.png
00000014,456,1,1446652410324,1446652411147,887,372,0,0,0,2,1,1,3,0003-00-0000-08.png,0005-00-0001-73.png
00000014,457,1,1446652412105,1446652413031,913,332,0,0,0,1,0,1,1,0005-00-0000-61.png,0001-00-0000-96.png
00000014,458,0,1446652414141,1446652414887,897,405,0,0,0,3,4,1,7,0002-00-0000-39.png,0004-00-0000-81.png
00000014,459,1,1446652417851,1446652418499,898,501,0,0,0,2,1,1,3,0003-00-0000-24.png,0005-00-0001-23.png
00000014,460,1,1446652419553,1446652420132,345,427,0,0,0,0,1,1,1,0001-00-0000-12.png,0005-00-0000-30.png
00000014,461,0,1446652421227,1446652421831,870,524,0,0,0,2,3,1,5,0003-00-0001-50.png,0002-00-0001-20.png
00000014,462,0,1446652425418,1446652426039,868,472,0,0,0,1,2,1,3,0005-00-0000-14.png,0003-00-0000-77.png
00000014,463,1,1446652429457,1446652430266,873,475,0,0,0,3,2,1,5,0002-00-0001-32.png,0003-00-0000-56.png
00000014,464,1,1446652431353,1446652432037,879,376,0,0,0,4,3,1,7,0004-00-0000-23.png,0002-00-0000-55.png
00000014,465,1,1446652432983,1446652433747,880,375,0,0,0,2,1,1,3,0003-00-0000-33.png,0005-00-0000-40.png
00000014,466,0,1446652434823,1446652435516,859,494,0,0,0,2,3,1,5,0003-00-0000-61.png,0002-00-0001-86.png
00000014,467,1,1446652439717,1446652440348,883,362,0,0,0,4,3,1,7,0004-00-0000-96.png,0002-00-0001-80.png
00000014,468,1,1446652441472,1446652442085,318,435,0,0,0,0,1,1,1,0001-00-0000-54.png,0005-00-0000-36.png
00000014,469,1,1446652443143,1446652443721,370,430,0,0,0,1,2,1,3,0005-00-0000-68.png,0003-00-0000-83.png
00000014,470,0,1446652444902,1446652445604,899,439,0,0,0,3,4,1,7,0002-00-0001-94.png,0004-00-0000-93.png
00000014,471,1,1446652449337,1446652450064,862,462,0,0,0,3,2,1,5,0002-00-0000-66.png,0003-00-0000-59.png
00000014,472,1,1446652451695,1446652452346,872,509,0,0,0,1,0,1,1,0005-00-0000-14.png,0001-00-0001-44.png
00000014,473,0,1446652453418,1446652454018,359,422,0,0,0,1,0,1,1,0005-00-0001-13.png,0001-00-0000-03.png
00000014,474,0,1446652456987,1446652457582,886,489,0,0,0,2,3,1,5,0003-00-0001-85.png,0002-00-0000-39.png
00000014,475,0,1446652461730,1446652462467,901,408,0,0,0,3,4,1,7,0002-00-0000-41.png,0004-00-0000-39.png
00000014,476,1,1446652467239,1446652468134,392,419,0,0,0,1,2,1,3,0005-00-0000-98.png,0003-00-0001-05.png
00000014,477,0,1446652469339,1446652469940,356,401,0,0,0,3,2,1,5,0002-00-0000-57.png,0003-00-0000-03.png
00000014,478,1,1446652473061,1446652473814,875,475,0,0,0,4,3,1,7,0004-00-0000-72.png,0002-00-0000-39.png
00000014,479,1,1446652474914,1446652475522,324,428,0,0,0,0,1,1,1,0001-00-0001-98.png,0005-00-0001-73.png
00000014,480,1,1446652476557,1446652477400,902,467,0,0,0,2,1,1,3,0003-00-0001-10.png,0005-00-0000-98.png
00000014,481,0,1446652478516,1446652479428,412,381,0,0,0,3,2,1,5,0002-00-0000-68.png,0003-00-0001-82.png
00000014,482,0,1446652483396,1446652484565,409,381,0,0,0,2,1,1,3,0003-00-0000-87.png,0005-00-0001-18.png
00000014,483,1,1446652487837,1446652489002,924,405,0,0,0,1,0,1,1,0005-00-0000-32.png,0001-00-0001-61.png
00000014,484,1,1446652490057,1446652490621,369,421,0,0,0,0,1,1,1,0001-00-0001-46.png,0005-00-0000-82.png
00000014,485,1,1446652491694,1446652492310,879,427,0,0,0,4,3,1,7,0004-00-0001-08.png,0002-00-0000-59.png
00000014,486,1,1446652493355,1446652494135,432,488,0,0,0,3,4,1,7,0002-00-0001-19.png,0004-00-0001-26.png
00000014,487,0,1446652495271,1446652495876,881,393,0,0,0,2,3,1,5,0003-00-0001-48.png,0002-00-0001-12.png
00000014,488,1,1446652499008,1446652499843,372,345,0,0,0,1,2,1,3,0005-00-0001-08.png,0003-00-0001-75.png
00000014,489,1,1446652500835,1446652501425,913,410,0,0,0,1,0,1,1,0005-00-0001-32.png,0001-00-0000-41.png
00000014,490,1,1446652502569,1446652503994,913,398,0,0,0,2,1,1,3,0003-00-0000-26.png,0005-00-0000-61.png
00000014,491,0,1446652504933,1446652505464,364,438,0,0,0,3,2,1,5,0002-00-0001-57.png,0003-00-0001-98.png
00000014,492,0,1446652508664,1446652509726,440,391,0,0,0,4,3,1,7,0004-00-0000-87.png,0002-00-0001-00.png
00000014,493,0,1446652512627,1446652513311,907,362,0,0,0,2,3,1,5,0003-00-0000-06.png,0002-00-0001-82.png
00000014,494,1,1446652516243,1446652516323,462,417,0,0,0,0,1,1,1,0001-00-0000-72.png,0005-00-0001-90.png
00000014,495,0,1446652517269,1446652518124,899,345,0,0,0,3,4,1,7,0002-00-0000-35.png,0004-00-0000-03.png
00000014,496,0,1446652525080,1446652525555,864,388,0,0,0,1,2,1,3,0005-00-0000-94.png,0003-00-0000-22.png
00000014,497,0,1446652532019,1446652532603,393,366,0,0,0,1,0,1,1,0005-00-0001-33.png,0001-00-0000-95.png
00000014,498,1,1446652535736,1446652536808,358,377,0,0,0,3,4,1,7,0002-00-0000-31.png,0004-00-0000-78.png
00000014,499,1,1446652537965,1446652538447,347,420,0,0,0,1,2,1,3,0005-00-0001-66.png,0003-00-0001-21.png
00000014,500,1,1446652539842,1446652540366,324,423,0,0,0,0,1,1,1,0001-00-0000-11.png,0005-00-0000-54.png
00000014,501,0,1446652541353,1446652541835,386,429,0,0,0,3,2,1,5,0002-00-0000-77.png,0003-00-0000-82.png
00000014,502,0,1446652545290,1446652545871,927,383,0,0,0,2,3,1,5,0003-00-0001-21.png,0002-00-0000-66.png
00000014,503,0,1446652548795,1446652549329,360,380,0,0,0,2,1,1,3,0003-00-0001-37.png,0005-00-0000-20.png
00000014,504,0,1446652552445,1446652553414,427,410,0,0,0,4,3,1,7,0004-00-0001-93.png,0002-00-0000-63.png
00000014,505,0,1446652557021,1446652557683,899,437,0,0,0,1,2,1,3,0005-00-0001-93.png,0003-00-0000-38.png
00000014,506,1,1446652561717,1446652562243,899,456,0,0,0,4,3,1,7,0004-00-0000-33.png,0002-00-0001-19.png
00000014,507,0,1446652563308,1446652563877,927,435,0,0,0,2,3,1,5,0003-00-0000-09.png,0002-00-0001-52.png
00000014,508,1,1446652567582,1446652568092,359,366,0,0,0,3,4,1,7,0002-00-0001-93.png,0004-00-0001-71.png
00000014,509,1,1446652569081,1446652569655,875,501,0,0,0,2,1,1,3,0003-00-0001-33.png,0005-00-0001-09.png
00000014,510,0,1446652570664,1446652571488,875,345,0,0,0,0,1,1,1,0001-00-0001-41.png,0005-00-0000-40.png
00000014,511,0,1446652576051,1446652576645,346,388,0,0,0,1,0,1,1,0005-00-0000-10.png,0001-00-0001-72.png
00000014,512,1,1446652581139,1446652581860,916,440,0,0,0,3,2,1,5,0002-00-0001-05.png,0003-00-0001-46.png
00000014,513,0,1446652582917,1446652583511,367,428,0,0,0,2,1,1,3,0003-00-0001-65.png,0005-00-0001-85.png
00000014,514,1,1446652593899,1446652594263,329,340,0,0,0,3,4,1,7,0002-00-0000-09.png,0004-00-0001-05.png
00000014,515,1,1446652595328,1446652595836,881,488,0,0,0,4,3,1,7,0004-00-0000-21.png,0002-00-0000-17.png
00000014,516,0,1446652596892,1446652597982,366,375,0,0,0,1,0,1,1,0005-00-0000-19.png,0001-00-0001-18.png
00000014,517,0,1446652657575,1446652658031,901,514,0,0,0,2,3,1,5,0003-00-0000-65.png,0002-00-0000-80.png
00000014,518,1,1446652761713,1446652764589,342,332,0,0,0,1,2,1,3,0005-00-0001-42.png,0003-00-0001-03.png
00000014,519,0,1446652765800,1446652766239,365,405,0,0,0,3,2,1,5,0002-00-0001-24.png,0003-00-0001-76.png
00000014,520,1,1446652771602,1446652772032,396,486,0,0,0,0,1,1,1,0001-00-0000-51.png,0005-00-0000-45.png
00000014,521,1,1446652773131,1446652773719,902,495,0,0,0,4,3,1,7,0004-00-0001-12.png,0002-00-0000-70.png
00000014,522,0,1446652774681,1446652775249,465,528,0,0,0,2,1,1,3,0003-00-0000-91.png,0005-00-0001-39.png
00000014,523,1,1446652811704,1446652812122,306,320,0,0,0,0,1,1,1,0001-00-0000-44.png,0005-00-0001-12.png
00000014,524,0,1446652813308,1446652813739,382,431,0,0,0,3,2,1,5,0002-00-0000-10.png,0003-00-0001-71.png
00000014,525,0,1446652838772,1446652839245,866,456,0,0,0,1,2,1,3,0005-00-0000-67.png,0003-00-0001-39.png
00000014,526,1,1446652918977,1446652920337,276,427,0,0,0,3,4,1,7,0002-00-0000-28.png,0004-00-0000-08.png
00000014,527,0,1446652926333,1446652926753,390,488,0,0,0,1,0,1,1,0005-00-0000-31.png,0001-00-0001-91.png
00000014,528,0,1446652929959,1446652930431,880,386,0,0,0,2,3,1,5,0003-00-0000-64.png,0002-00-0001-95.png
00000014,529,1,1446652933268,1446652933875,901,383,0,0,0,1,0,1,1,0005-00-0001-70.png,0001-00-0000-57.png
00000014,530,0,1446652934720,1446652935220,932,418,0,0,0,2,3,1,5,0003-00-0001-06.png,0002-00-0001-71.png
00000014,531,0,1446652938258,1446652938674,385,378,0,0,0,3,2,1,5,0002-00-0000-05.png,0003-00-0001-53.png
00000014,532,1,1446652941521,1446652941948,401,410,0,0,0,0,1,1,1,0001-00-0000-69.png,0005-00-0000-92.png
00000014,533,0,1446652943159,1446652943749,925,437,0,0,0,3,4,1,7,0002-00-0000-92.png,0004-00-0001-60.png
00000014,534,0,1446652954940,1446652955410,354,386,0,0,0,2,1,1,3,0003-00-0001-55.png,0005-00-0001-85.png
00000014,535,1,1446652962305,1446652962674,348,376,0,0,0,1,2,1,3,0005-00-0000-62.png,0003-00-0001-78.png
00000014,536,1,1446652963649,1446652964213,883,486,0,0,0,4,3,1,7,0004-00-0001-96.png,0002-00-0001-93.png
00000014,537,1,1446652965129,1446652965940,501,534,0,0,0,2,3,1,5,0003-00-0001-09.png,0002-00-0000-66.png
00000014,538,1,1446652967215,1446652992105,1005,453,0,0,0,1,0,1,1,0005-00-0000-97.png,0001-00-0000-62.png
00000014,539,0,1446652996948,1446652997353,336,398,0,0,0,3,2,1,5,0002-00-0000-62.png,0003-00-0001-76.png
00000014,540,1,1446653003795,1446653004299,440,387,0,0,0,1,2,1,3,0005-00-0000-50.png,0003-00-0000-42.png
00000014,541,0,1446653005239,1446653005740,391,422,0,0,0,4,3,1,7,0004-00-0001-86.png,0002-00-0001-31.png
00000014,542,1,1446653030545,1446653031041,940,446,0,0,0,2,1,1,3,0003-00-0000-05.png,0005-00-0001-68.png
00000014,543,1,1446653032007,1446653032483,388,410,0,0,0,0,1,1,1,0001-00-0001-25.png,0005-00-0000-10.png
00000014,544,1,1446653033306,1446653033892,432,536,0,0,0,3,4,1,7,0002-00-0000-84.png,0004-00-0000-00.png
00000014,545,1,1446653034889,1446653035439,376,476,0,0,0,2,3,1,5,0003-00-0000-60.png,0002-00-0000-47.png
00000014,546,1,1446653036409,1446653036988,386,437,0,0,0,1,2,1,3,0005-00-0000-03.png,0003-00-0000-44.png
00000014,547,0,1446653037892,1446653039031,372,385,0,0,0,4,3,1,7,0004-00-0001-71.png,0002-00-0000-35.png
00000014,548,1,1446653044835,1446653045370,907,390,0,0,0,2,1,1,3,0003-00-0000-72.png,0005-00-0000-63.png
00000014,549,1,1446653046398,1446653047050,897,495,0,0,0,1,0,1,1,0005-00-0000-71.png,0001-00-0000-32.png
00000014,550,0,1446653048030,1446653048572,470,545,0,0,0,3,2,1,5,0002-00-0001-95.png,0003-00-0001-36.png
00000014,551,1,1446653056648,1446653057100,319,383,0,0,0,0,1,1,1,0001-00-0000-42.png,0005-00-0000-51.png
00000014,552,0,1446653058082,1446653058634,874,442,0,0,0,3,4,1,7,0002-00-0001-21.png,0004-00-0001-13.png
00000014,553,1,1446653061599,1446653062075,888,370,0,0,0,2,1,1,3,0003-00-0001-93.png,0005-00-0001-29.png
00000014,554,1,1446653062949,1446653063534,903,416,0,0,0,4,3,1,7,0004-00-0001-09.png,0002-00-0000-32.png
00000014,555,0,1446653064401,1446653064908,440,410,0,0,0,3,2,1,5,0002-00-0001-12.png,0003-00-0001-96.png
00000014,556,1,1446653067808,1446653068265,929,389,0,0,0,1,0,1,1,0005-00-0000-67.png,0001-00-0001-13.png
00000014,557,0,1446653069560,1446653070054,927,383,0,0,0,2,3,1,5,0003-00-0001-98.png,0002-00-0001-23.png
00000014,558,0,1446653073087,1446653073651,947,339,0,0,0,0,1,1,1,0001-00-0001-31.png,0005-00-0000-81.png
00000014,559,1,1446653077383,1446653078363,420,373,0,0,0,3,4,1,7,0002-00-0001-91.png,0004-00-0001-03.png
00000014,560,0,1446653079359,1446653080083,935,308,0,0,0,1,2,1,3,0005-00-0000-39.png,0003-00-0000-40.png
00000014,561,0,1446653083205,1446653083653,389,476,0,0,0,1,0,1,1,0005-00-0000-33.png,0001-00-0001-87.png
00000014,562,0,1446653089298,1446653090018,401,306,0,0,0,4,3,1,7,0004-00-0001-85.png,0002-00-0001-32.png
00000014,563,0,1446653093135,1446653093745,944,312,0,0,0,1,2,1,3,0005-00-0000-96.png,0003-00-0000-25.png
00000014,564,0,1446653096852,1446653097565,899,440,0,0,0,3,4,1,7,0002-00-0001-63.png,0004-00-0001-16.png
00000014,565,0,1446653100796,1446653101411,913,306,0,0,0,2,3,1,5,0003-00-0000-81.png,0002-00-0001-48.png
00000014,566,1,1446653104374,1446653104792,949,352,0,0,0,2,1,1,3,0003-00-0000-14.png,0005-00-0000-84.png
00000014,567,0,1446653105756,1446653106327,334,366,0,0,0,3,2,1,5,0002-00-0000-18.png,0003-00-0000-01.png
00000014,568,1,1446653109798,1446653110343,341,381,0,0,0,0,1,1,1,0001-00-0000-19.png,0005-00-0000-42.png
00000014,569,1,1446653111332,1446653111891,357,400,0,0,0,3,4,1,7,0002-00-0000-27.png,0004-00-0000-26.png
00000014,570,0,1446653112873,1446653113409,901,409,0,0,0,2,3,1,5,0003-00-0001-35.png,0002-00-0000-58.png
00000014,571,1,1446653117911,1446653118416,910,400,0,0,0,1,0,1,1,0005-00-0000-00.png,0001-00-0000-55.png
00000014,572,1,1446653119828,1446653120536,864,397,0,0,0,4,3,1,7,0004-00-0000-74.png,0002-00-0000-63.png
00000014,573,1,1446653121639,1446653122195,869,472,0,0,0,2,1,1,3,0003-00-0001-75.png,0005-00-0000-37.png
00000014,574,1,1446653123149,1446653123700,376,406,0,0,0,0,1,1,1,0001-00-0000-37.png,0005-00-0001-88.png
00000014,575,0,1446653124789,1446653125312,370,412,0,0,0,3,2,1,5,0002-00-0001-70.png,0003-00-0001-35.png
00000014,576,1,1446653129019,1446653129525,369,420,0,0,0,1,2,1,3,0005-00-0000-34.png,0003-00-0000-96.png
00000014,577,1,1446653130547,1446653131044,929,389,0,0,0,1,0,1,1,0005-00-0001-42.png,0001-00-0001-93.png
00000014,578,0,1446653131955,1446653132466,894,506,0,0,0,3,4,1,7,0002-00-0000-20.png,0004-00-0001-42.png
00000014,579,0,1446653135373,1446653135836,952,382,0,0,0,2,3,1,5,0003-00-0000-01.png,0002-00-0000-80.png
00000014,580,1,1446653139021,1446653139949,931,297,0,0,0,2,1,1,3,0003-00-0001-27.png,0005-00-0000-91.png
00000014,581,0,1446653140889,1446653141540,424,532,0,0,0,4,3,1,7,0004-00-0001-59.png,0002-00-0001-96.png
00000014,582,0,1446653148705,1446653149109,432,426,0,0,0,3,2,1,5,0002-00-0000-71.png,0003-00-0001-59.png
00000014,583,1,1446653155980,1446653156364,360,332,0,0,0,0,1,1,1,0001-00-0000-79.png,0005-00-0000-65.png
00000014,584,0,1446653157465,1446653158117,899,354,0,0,0,1,2,1,3,0005-00-0000-27.png,0003-00-0000-97.png
00000014,585,0,1446653161140,1446653161716,398,351,0,0,0,3,2,1,5,0002-00-0001-87.png,0003-00-0001-08.png
00000014,586,0,1446653164662,1446653165738,954,523,0,0,0,3,4,1,7,0002-00-0001-38.png,0004-00-0000-70.png
00000014,587,1,1446653169496,1446653170889,324,358,0,0,0,0,1,1,1,0001-00-0001-42.png,0005-00-0001-85.png
00000014,588,1,1446653171756,1446653172348,926,417,0,0,0,2,1,1,3,0003-00-0001-81.png,0005-00-0000-06.png
00000014,589,1,1446653173287,1446653174417,931,384,0,0,0,4,3,1,7,0004-00-0000-02.png,0002-00-0000-72.png
00000014,590,1,1446653175326,1446653175830,427,462,0,0,0,1,2,1,3,0005-00-0000-04.png,0003-00-0000-04.png
00000014,591,0,1446653176806,1446653177460,866,432,0,0,0,2,3,1,5,0003-00-0000-28.png,0002-00-0000-79.png
00000014,592,1,1446653181168,1446653181793,873,333,0,0,0,1,0,1,1,0005-00-0001-77.png,0001-00-0000-26.png
00000014,593,0,1446653182807,1446653183330,878,495,0,0,0,2,3,1,5,0003-00-0001-14.png,0002-00-0000-29.png
00000014,594,1,1446653186455,1446653186973,925,475,0,0,0,1,0,1,1,0005-00-0000-63.png,0001-00-0000-76.png
00000014,595,0,1446653187930,1446653188869,879,381,0,0,0,3,4,1,7,0002-00-0000-51.png,0004-00-0001-69.png
00000014,596,1,1446653192677,1446653193170,376,491,0,0,0,0,1,1,1,0001-00-0000-58.png,0005-00-0000-11.png
00000014,597,1,1446653194080,1446653194855,895,437,0,0,0,4,3,1,7,0004-00-0000-07.png,0002-00-0000-51.png
00000014,598,0,1446653195817,1446653196486,907,392,0,0,0,1,2,1,3,0005-00-0000-73.png,0003-00-0000-85.png
00000014,599,1,1446653199666,1446653200232,906,453,0,0,0,2,1,1,3,0003-00-0001-01.png,0005-00-0001-75.png
00000014,600,1,1446653201210,1446653202139,926,319,0,0,0,3,2,1,5,0002-00-0000-72.png,0003-00-0000-88.png
00000014,601,1,1446653203214,1446653203846,401,385,0,0,0,2,3,1,5,0003-00-0001-59.png,0002-00-0001-39.png
00000014,602,0,1446653204782,1446653205330,383,437,0,0,0,1,0,1,1,0005-00-0001-81.png,0001-00-0000-94.png
00000014,603,1,1446653208372,1446653209174,873,431,0,0,0,2,1,1,3,0003-00-0000-60.png,0005-00-0001-24.png
00000014,604,1,1446653210309,1446653210891,905,418,0,0,0,4,3,1,7,0004-00-0001-98.png,0002-00-0000-29.png
00000014,605,1,1446653211891,1446653212677,401,370,0,0,0,1,2,1,3,0005-00-0001-23.png,0003-00-0000-32.png
00000014,606,1,1446653213756,1446653214255,339,424,0,0,0,0,1,1,1,0001-00-0001-39.png,0005-00-0000-28.png
00000014,607,0,1446653215240,1446653215764,392,457,0,0,0,3,2,1,5,0002-00-0000-48.png,0003-00-0000-16.png
00000014,608,0,1446653219653,1446653220407,939,398,0,0,0,3,4,1,7,0002-00-0001-03.png,0004-00-0001-85.png
00000014,609,0,1446653223610,1446653224310,356,381,0,0,0,3,2,1,5,0002-00-0001-73.png,0003-00-0000-59.png
00000014,610,1,1446653227274,1446653227892,928,391,0,0,0,1,0,1,1,0005-00-0001-26.png,0001-00-0001-44.png
00000014,611,1,1446653228805,1446653229500,913,359,0,0,0,4,3,1,7,0004-00-0000-13.png,0002-00-0001-76.png
00000014,612,0,1446653230446,1446653231399,872,411,0,0,0,3,4,1,7,0002-00-0000-59.png,0004-00-0001-98.png
00000014,613,1,1446653234888,1446653235557,926,345,0,0,0,2,1,1,3,0003-00-0000-93.png,0005-00-0001-27.png
00000014,614,1,1446653236566,1446653237126,349,397,0,0,0,1,2,1,3,0005-00-0001-59.png,0003-00-0000-19.png
00000014,615,0,1446653238129,1446653238762,925,385,0,0,0,2,3,1,5,0003-00-0000-62.png,0002-00-0000-96.png
00000014,616,0,1446653242861,1446653243472,870,341,0,0,0,0,1,1,1,0001-00-0001-83.png,0005-00-0001-08.png
00000014,617,1,1446653247381,1446653247984,897,456,0,0,0,2,1,1,3,0003-00-0000-24.png,0005-00-0000-29.png
00000014,618,1,1446653248961,1446653249680,902,357,0,0,0,4,3,1,7,0004-00-0000-10.png,0002-00-0000-56.png
00000014,619,1,1446653250591,1446653251101,358,428,0,0,0,0,1,1,1,0001-00-0001-05.png,0005-00-0001-50.png
00000014,620,0,1446653252212,1446653252987,904,453,0,0,0,3,4,1,7,0002-00-0001-40.png,0004-00-0000-94.png
00000014,621,1,1446653255895,1446653256388,407,464,0,0,0,1,2,1,3,0005-00-0001-43.png,0003-00-0000-57.png
00000014,622,1,1446653257410,1446653257916,928,416,0,0,0,1,0,1,1,0005-00-0001-23.png,0001-00-0001-91.png
00000014,623,0,1446653258861,1446653259517,879,389,0,0,0,2,3,1,5,0003-00-0000-30.png,0002-00-0000-11.png
00000014,624,0,1446653262358,1446653262875,367,400,0,0,0,3,2,1,5,0002-00-0000-58.png,0003-00-0001-22.png
00000014,625,1,1446653266603,1446653267292,899,344,0,0,0,4,3,1,7,0004-00-0001-30.png,0002-00-0001-42.png
00000014,626,1,1446653268541,1446653269086,388,516,0,0,0,0,1,1,1,0001-00-0000-75.png,0005-00-0000-04.png
00000014,627,1,1446653270081,1446653270728,873,353,0,0,0,3,2,1,5,0002-00-0001-70.png,0003-00-0000-24.png
00000014,628,0,1446653271631,1446653272488,894,361,0,0,0,2,3,1,5,0003-00-0000-99.png,0002-00-0001-40.png
00000014,629,0,1446653275388,1446653275922,896,497,0,0,0,3,4,1,7,0002-00-0000-57.png,0004-00-0001-81.png
00000014,630,1,1446653279721,1446653280386,942,390,0,0,0,2,1,1,3,0003-00-0001-01.png,0005-00-0001-57.png
00000014,631,0,1446653281412,1446653282225,903,361,0,0,0,1,2,1,3,0005-00-0001-24.png,0003-00-0000-21.png
00000014,632,1,1446653285288,1446653286028,877,334,0,0,0,1,0,1,1,0005-00-0000-43.png,0001-00-0001-14.png
00000014,633,1,1446653287030,1446653287932,900,449,0,0,0,4,3,1,7,0004-00-0000-27.png,0002-00-0000-48.png
00000014,634,1,1446653288946,1446653289487,359,410,0,0,0,1,2,1,3,0005-00-0001-85.png,0003-00-0001-28.png
00000014,635,0,1446653290526,1446653291082,401,410,0,0,0,3,2,1,5,0002-00-0000-14.png,0003-00-0001-80.png
00000014,636,0,1446653294185,1446653294927,990,423,0,0,0,2,3,1,5,0003-00-0000-45.png,0002-00-0000-41.png
00000014,637,1,1446653298248,1446653298846,870,315,0,0,0,1,0,1,1,0005-00-0001-49.png,0001-00-0001-05.png
00000014,638,1,1446653299857,1446653300647,925,385,0,0,0,2,1,1,3,0003-00-0000-66.png,0005-00-0001-66.png
00000014,639,1,1446653301655,1446653302213,377,415,0,0,0,0,1,1,1,0001-00-0001-20.png,0005-00-0001-65.png
00000014,640,0,1446653303187,1446653303794,941,430,0,0,0,3,4,1,7,0002-00-0000-65.png,0004-00-0001-18.png
00000014,641,1,1446653307630,1446653308467,361,365,0,0,0,1,2,1,3,0005-00-0001-59.png,0003-00-0001-79.png
00000014,642,1,1446653309508,1446653310074,903,416,0,0,0,1,0,1,1,0005-00-0001-73.png,0001-00-0000-49.png
00000014,643,1,1446653310989,1446653312550,361,369,0,0,0,3,4,1,7,0002-00-0001-30.png,0004-00-0000-34.png
00000014,644,1,1446653313723,1446653314464,896,367,0,0,0,4,3,1,7,0004-00-0001-32.png,0002-00-0001-67.png
00000014,645,0,1446653315430,1446653316140,875,397,0,0,0,0,1,1,1,0001-00-0001-72.png,0005-00-0001-29.png
00000014,646,0,1446653319526,1446653320070,902,440,0,0,0,2,3,1,5,0003-00-0001-34.png,0002-00-0001-01.png
00000014,647,0,1446653323472,1446653324192,366,356,0,0,0,3,2,1,5,0002-00-0000-29.png,0003-00-0001-15.png
00000014,648,1,1446653327566,1446653328432,898,490,0,0,0,2,1,1,3,0003-00-0001-72.png,0005-00-0001-25.png
00000014,649,1,1446653329755,1446653330576,873,457,0,0,0,3,2,1,5,0002-00-0001-29.png,0003-00-0000-62.png
00000014,650,1,1446653331792,1446653332562,927,390,0,0,0,4,3,1,7,0004-00-0001-86.png,0002-00-0000-30.png
00000014,651,0,1446653333533,1446653334247,881,418,0,0,0,2,3,1,5,0003-00-0001-93.png,0002-00-0000-27.png
00000014,652,1,1446653340161,1446653340688,959,396,0,0,0,2,1,1,3,0003-00-0001-14.png,0005-00-0001-91.png
00000014,653,1,1446653341813,1446653342646,357,402,0,0,0,0,1,1,1,0001-00-0000-63.png,0005-00-0000-20.png
00000014,654,0,1446653343613,1446653344358,921,367,0,0,0,3,4,1,7,0002-00-0001-28.png,0004-00-0001-46.png
00000014,655,1,1446653347262,1446653347830,876,502,0,0,0,1,0,1,1,0005-00-0000-26.png,0001-00-0001-61.png
00000014,656,0,1446653348749,1446653349573,927,390,0,0,0,1,2,1,3,0005-00-0001-31.png,0003-00-0001-77.png
00000014,657,0,1446653352758,1446653353410,907,474,0,0,0,2,3,1,5,0003-00-0001-10.png,0002-00-0001-28.png
00000014,658,0,1446653356971,1446653357557,392,392,0,0,0,3,2,1,5,0002-00-0001-29.png,0003-00-0000-95.png
00000014,659,1,1446653361054,1446653361603,325,383,0,0,0,0,1,1,1,0001-00-0001-58.png,0005-00-0001-52.png
00000014,660,0,1446653362533,1446653363215,929,363,0,0,0,1,2,1,3,0005-00-0001-81.png,0003-00-0000-62.png
00000014,661,1,1446653367799,1446653368420,956,375,0,0,0,2,1,1,3,0003-00-0001-75.png,0005-00-0001-48.png
00000014,662,1,1446653369465,1446653370088,366,418,0,0,0,3,4,1,7,0002-00-0001-99.png,0004-00-0000-57.png
00000014,663,1,1446653371103,1446653371868,900,489,0,0,0,4,3,1,7,0004-00-0000-88.png,0002-00-0001-98.png
00000014,664,1,1446653372834,1446653373358,873,507,0,0,0,1,0,1,1,0005-00-0000-20.png,0001-00-0000-42.png
00000014,665,1,1446653374373,1446653375216,878,389,0,0,0,2,1,1,3,0003-00-0001-22.png,0005-00-0001-86.png
00000014,666,1,1446653376255,1446653376855,382,460,0,0,0,1,2,1,3,0005-00-0000-45.png,0003-00-0000-23.png
00000014,667,0,1446653377954,1446653378522,876,417,0,0,0,2,3,1,5,0003-00-0001-90.png,0002-00-0000-16.png
00000014,668,1,1446653381499,1446653382175,878,365,0,0,0,4,3,1,7,0004-00-0001-93.png,0002-00-0001-78.png
00000014,669,0,1446653383429,1446653383954,386,437,0,0,0,3,2,1,5,0002-00-0000-74.png,0003-00-0001-81.png
00000014,670,0,1446653386849,1446653387533,903,339,0,0,0,0,1,1,1,0001-00-0000-23.png,0005-00-0001-50.png
00000014,671,0,1446653391341,1446653391955,388,515,0,0,0,1,0,1,1,0005-00-0000-54.png,0001-00-0001-31.png
00000014,672,0,1446653395425,1446653396148,953,363,0,0,0,3,4,1,7,0002-00-0001-71.png,0004-00-0000-25.png
00000014,673,1,1446653400045,1446653400619,929,390,0,0,0,1,0,1,1,0005-00-0000-77.png,0001-00-0001-00.png
00000014,674,1,1446653401536,1446653402231,907,392,0,0,0,4,3,1,7,0004-00-0001-86.png,0002-00-0001-41.png
00000014,675,0,1446653403156,1446653403709,344,426,0,0,0,3,2,1,5,0002-00-0000-26.png,0003-00-0001-63.png
00000014,676,1,1446653407142,1446653407801,299,371,0,0,0,0,1,1,1,0001-00-0000-80.png,0005-00-0000-64.png
00000014,677,0,1446653408791,1446653409391,873,491,0,0,0,2,3,1,5,0003-00-0001-68.png,0002-00-0000-05.png
00000014,678,1,1446653412428,1446653413256,376,488,0,0,0,1,2,1,3,0005-00-0000-22.png,0003-00-0001-93.png
00000014,679,1,1446653414317,1446653415050,903,381,0,0,0,2,1,1,3,0003-00-0001-53.png,0005-00-0001-23.png
00000014,680,0,1446653415988,1446653416755,927,371,0,0,0,3,4,1,7,0002-00-0001-87.png,0004-00-0001-29.png
00000014,681,0,1446653419815,1446653420387,949,379,0,0,0,2,3,1,5,0003-00-0000-47.png,0002-00-0000-70.png
00000014,682,1,1446653423396,1446653423973,370,391,0,0,0,3,4,1,7,0002-00-0001-56.png,0004-00-0000-13.png
00000014,683,1,1446653424963,1446653425526,926,410,0,0,0,4,3,1,7,0004-00-0000-72.png,0002-00-0000-14.png
00000014,684,0,1446653426544,1446653427178,366,429,0,0,0,1,0,1,1,0005-00-0001-98.png,0001-00-0000-36.png
00000014,685,0,1446653431514,1446653432255,927,334,0,0,0,1,2,1,3,0005-00-0000-17.png,0003-00-0000-66.png
00000014,686,1,1446653435249,1446653435686,871,367,0,0,0,2,1,1,3,0003-00-0000-95.png,0005-00-0001-95.png
00000014,687,1,1446653436590,1446653437443,908,429,0,0,0,3,2,1,5,0002-00-0000-85.png,0003-00-0000-40.png
00000014,688,0,1446653438359,1446653439161,877,362,0,0,0,0,1,1,1,0001-00-0000-22.png,0005-00-0001-64.png
00000014,689,1,1446653444036,1446653444539,299,384,0,0,0,3,4,1,7,0002-00-0000-99.png,0004-00-0001-72.png
00000014,690,1,1446653445545,1446653446351,908,408,0,0,0,4,3,1,7,0004-00-0000-67.png,0002-00-0000-73.png
00000014,691,0,1446653447244,1446653448070,884,402,0,0,0,1,2,1,3,0005-00-0001-80.png,0003-00-0001-89.png
00000014,692,1,1446653452195,1446653452918,926,488,0,0,0,1,0,1,1,0005-00-0001-25.png,0001-00-0000-96.png
00000014,693,1,1446653454034,1446653454588,899,516,0,0,0,2,1,1,3,0003-00-0000-20.png,0005-00-0001-75.png
00000014,694,0,1446653455544,1446653456303,894,377,0,0,0,2,3,1,5,0003-00-0001-66.png,0002-00-0000-50.png
00000014,695,1,1446653459539,1446653460228,874,359,0,0,0,3,2,1,5,0002-00-0001-39.png,0003-00-0000-37.png
00000014,696,1,1446653461229,1446653461739,349,398,0,0,0,0,1,1,1,0001-00-0000-15.png,0005-00-0000-93.png
00000014,697,1,1446653462775,1446653463575,876,355,0,0,0,2,1,1,3,0003-00-0001-19.png,0005-00-0001-21.png
00000014,698,0,1446653464590,1446653465119,867,536,0,0,0,2,3,1,5,0003-00-0000-62.png,0002-00-0001-07.png
00000014,699,0,1446653468247,1446653468957,358,392,0,0,0,3,2,1,5,0002-00-0001-80.png,0003-00-0000-75.png
00000014,700,0,1446653472928,1446653473617,922,340,0,0,0,3,4,1,7,0002-00-0000-05.png,0004-00-0000-92.png
00000014,701,0,1446653476949,1446653477800,318,395,0,0,0,1,0,1,1,0005-00-0000-85.png,0001-00-0000-63.png
00000014,702,1,1446653480760,1446653481511,369,394,0,0,0,1,2,1,3,0005-00-0001-19.png,0003-00-0000-97.png
00000014,703,1,1446653482547,1446653483086,918,429,0,0,0,4,3,1,7,0004-00-0000-26.png,0002-00-0000-98.png
00000014,704,1,1446653484001,1446653484537,387,426,0,0,0,0,1,1,1,0001-00-0001-41.png,0005-00-0000-47.png
00000014,705,0,1446653485629,1446653486182,875,502,0,0,0,3,4,1,7,0002-00-0000-46.png,0004-00-0000-06.png
00000014,706,0,1446653492551,1446653493355,345,360,0,0,0,4,3,1,7,0004-00-0001-32.png,0002-00-0001-60.png
00000014,707,1,1446653496999,1446653497572,929,389,0,0,0,1,0,1,1,0005-00-0001-76.png,0001-00-0000-85.png
00000014,708,0,1446653498508,1446653499017,376,402,0,0,0,3,2,1,5,0002-00-0000-58.png,0003-00-0001-89.png
00000014,709,1,1446653502186,1446653502670,376,410,0,0,0,1,2,1,3,0005-00-0000-00.png,0003-00-0001-16.png
00000014,710,1,1446653503629,1446653504171,331,412,0,0,0,0,1,1,1,0001-00-0000-82.png,0005-00-0000-21.png
00000014,711,0,1446653505158,1446653505839,877,423,0,0,0,2,3,1,5,0003-00-0001-82.png,0002-00-0000-75.png
00000014,712,1,1446653509053,1446653509884,928,390,0,0,0,2,1,1,3,0003-00-0000-98.png,0005-00-0001-43.png
00000014,713,1,1446653510843,1446653511688,928,391,0,0,0,4,3,1,7,0004-00-0001-79.png,0002-00-0001-03.png
00000014,714,1,1446653512703,1446653513853,401,384,0,0,0,1,2,1,3,0005-00-0001-89.png,0003-00-0001-92.png
00000014,715,0,1446653514809,1446653515372,382,437,0,0,0,3,2,1,5,0002-00-0000-62.png,0003-00-0000-16.png
00000014,716,0,1446653519473,1446653520133,898,458,0,0,0,2,3,1,5,0003-00-0000-74.png,0002-00-0000-20.png
00000014,717,1,1446653523833,1446653524470,950,378,0,0,0,1,0,1,1,0005-00-0000-38.png,0001-00-0000-09.png
00000014,718,0,1446653525425,1446653526173,904,364,0,0,0,3,4,1,7,0002-00-0001-47.png,0004-00-0001-97.png
00000014,719,1,1446653530123,1446653530804,376,358,0,0,0,0,1,1,1,0001-00-0001-72.png,0005-00-0001-73.png
00000014,720,0,1446653531956,1446653532738,366,427,0,0,0,2,1,1,3,0003-00-0000-07.png,0005-00-0000-69.png
00000014,721,0,1446653537161,1446653537778,895,497,0,0,0,0,1,1,1,0001-00-0000-88.png,0005-00-0001-90.png
00000014,722,1,1446653540803,1446653541374,895,472,0,0,0,4,3,1,7,0004-00-0001-13.png,0002-00-0000-53.png
00000014,723,0,1446653542368,1446653542944,912,424,0,0,0,3,4,1,7,0002-00-0000-49.png,0004-00-0000-06.png
00000014,724,1,1446653546476,1446653547102,389,410,0,0,0,1,2,1,3,0005-00-0001-33.png,0003-00-0000-99.png
00000014,725,0,1446653548335,1446653548835,366,403,0,0,0,3,2,1,5,0002-00-0000-64.png,0003-00-0000-14.png
00000014,726,1,1446653551963,1446653552635,874,332,0,0,0,2,1,1,3,0003-00-0000-22.png,0005-00-0001-52.png
00000014,727,1,1446653553751,1446653554540,877,467,0,0,0,1,0,1,1,0005-00-0001-52.png,0001-00-0001-17.png
00000014,728,0,1446653555489,1446653556272,877,370,0,0,0,2,3,1,5,0003-00-0001-34.png,0002-00-0000-68.png
00000014,729,1,1446653559504,1446653560166,927,383,0,0,0,2,1,1,3,0003-00-0001-85.png,0005-00-0001-78.png
00000014,730,0,1446653561244,1446653561795,408,550,0,0,0,1,0,1,1,0005-00-0000-84.png,0001-00-0001-33.png
00000014,731,1,1446653565516,1446653566102,916,428,0,0,0,4,3,1,7,0004-00-0000-95.png,0002-00-0000-29.png
00000014,732,1,1446653567116,1446653567983,938,345,0,0,0,3,2,1,5,0002-00-0001-58.png,0003-00-0000-16.png
00000014,733,0,1446653569148,1446653569782,902,371,0,0,0,3,4,1,7,0002-00-0000-25.png,0004-00-0000-04.png
00000014,734,0,1446653579279,1446653579782,947,393,0,0,0,2,3,1,5,0003-00-0000-00.png,0002-00-0001-83.png
00000014,735,0,1446653587321,1446653587780,924,406,0,0,0,1,2,1,3,0005-00-0000-08.png,0003-00-0000-17.png
00000014,736,0,1446653591131,1446653591856,925,386,0,0,0,0,1,1,1,0001-00-0000-37.png,0005-00-0001-35.png
00000014,737,0,1446653594848,1446653595583,938,397,0,0,0,0,1,1,1,0001-00-0001-77.png,0005-00-0001-26.png
00000014,738,1,1446653598453,1446653598864,337,372,0,0,0,1,2,1,3,0005-00-0001-68.png,0003-00-0001-37.png
00000014,739,1,1446653599817,1446653600378,945,404,0,0,0,1,0,1,1,0005-00-0000-32.png,0001-00-0000-35.png
00000014,740,1,1446653601348,1446653602054,921,394,0,0,0,4,3,1,7,0004-00-0000-55.png,0002-00-0000-38.png
00000014,741,1,1446653602934,1446653603739,900,396,0,0,0,2,1,1,3,0003-00-0000-13.png,0005-00-0000-76.png
00000014,742,0,1446653604767,1446653605422,900,390,0,0,0,2,3,1,5,0003-00-0000-46.png,0002-00-0001-11.png
00000014,743,0,1446653614644,1446653615077,365,376,0,0,0,3,2,1,5,0002-00-0001-11.png,0003-00-0000-52.png
00000014,744,1,1446653618879,1446653619425,389,410,0,0,0,3,4,1,7,0002-00-0000-33.png,0004-00-0001-37.png
00000014,745,1,1446653620489,1446653621073,368,448,0,0,0,0,1,1,1,0001-00-0001-01.png,0005-00-0001-58.png
00000014,746,1,1446653622037,1446653622569,406,538,0,0,0,3,4,1,7,0002-00-0001-05.png,0004-00-0001-83.png
00000014,747,0,1446653623469,1446653624085,421,531,0,0,0,3,2,1,5,0002-00-0001-25.png,0003-00-0001-54.png
00000014,748,1,1446653627398,1446653628129,921,446,0,0,0,2,1,1,3,0003-00-0000-22.png,0005-00-0000-42.png
00000014,749,1,1446653629839,1446653630453,926,410,0,0,0,4,3,1,7,0004-00-0000-36.png,0002-00-0000-56.png
00000014,750,1,1446653631450,1446653632785,369,372,0,0,0,1,2,1,3,0005-00-0000-01.png,0003-00-0000-32.png
00000014,751,0,1446653633767,1446653634419,904,421,0,0,0,2,3,1,5,0003-00-0001-26.png,0002-00-0001-75.png
00000014,752,1,1446653637823,1446653638314,901,409,0,0,0,1,0,1,1,0005-00-0001-46.png,0001-00-0000-38.png
00000014,753,1,1446653639263,1446653639860,923,380,0,0,0,1,0,1,1,0005-00-0001-91.png,0001-00-0001-79.png
00000014,754,1,1446653640702,1446653641506,921,426,0,0,0,4,3,1,7,0004-00-0000-54.png,0002-00-0001-06.png
00000014,755,0,1446653642527,1446653643051,382,435,0,0,0,3,2,1,5,0002-00-0000-84.png,0003-00-0000-52.png
00000014,756,0,1446653646181,1446653647040,886,457,0,0,0,1,2,1,3,0005-00-0000-18.png,0003-00-0000-41.png
00000014,757,0,1446653651368,1446653651923,980,390,0,0,0,3,4,1,7,0002-00-0001-40.png,0004-00-0000-45.png
00000014,758,1,1446653662445,1446653662924,951,473,0,0,0,2,1,1,3,0003-00-0001-92.png,0005-00-0001-82.png
00000014,759,0,1446653664755,1446653665221,905,402,0,0,0,2,3,1,5,0003-00-0000-53.png,0002-00-0001-48.png
00000014,760,0,1446653671743,1446653672481,935,439,0,0,0,0,1,1,1,0001-00-0000-03.png,0005-00-0001-65.png
00000014,761,1,1446653676208,1446653676792,925,405,0,0,0,4,3,1,7,0004-00-0000-61.png,0002-00-0001-73.png
00000014,762,1,1446653677968,1446653678529,376,436,0,0,0,1,2,1,3,0005-00-0000-72.png,0003-00-0001-22.png
00000014,763,1,1446653679967,1446653680481,325,394,0,0,0,0,1,1,1,0001-00-0001-27.png,0005-00-0000-20.png
00000014,764,0,1446653681596,1446653682539,413,346,0,0,0,2,1,1,3,0003-00-0000-82.png,0005-00-0000-11.png
00000014,765,1,1446653690043,1446653690819,899,379,0,0,0,1,0,1,1,0005-00-0001-83.png,0001-00-0001-11.png
00000014,766,0,1446653692274,1446653693009,870,366,0,0,0,2,3,1,5,0003-00-0001-44.png,0002-00-0001-93.png
00000014,767,1,1446653696527,1446653697382,952,410,0,0,0,3,2,1,5,0002-00-0000-33.png,0003-00-0000-98.png
00000014,768,1,1446653698718,1446653699339,354,413,0,0,0,3,4,1,7,0002-00-0001-66.png,0004-00-0001-03.png
00000014,769,1,1446653700795,1446653701531,920,472,0,0,0,3,2,1,5,0002-00-0000-39.png,0003-00-0000-10.png
00000014,770,0,1446653703367,1446653704106,904,428,0,0,0,3,4,1,7,0002-00-0000-61.png,0004-00-0001-79.png
00000014,771,1,1446653716003,1446653716537,926,409,0,0,0,2,1,1,3,0003-00-0000-75.png,0005-00-0000-15.png
00000014,772,1,1446653717781,1446653718377,914,430,0,0,0,4,3,1,7,0004-00-0001-48.png,0002-00-0001-01.png
00000014,773,0,1446653721787,1446653722406,965,449,0,0,0,0,1,1,1,0001-00-0000-95.png,0005-00-0001-05.png
00000014,774,0,1446653726420,1446653726937,896,420,0,0,0,1,2,1,3,0005-00-0000-08.png,0003-00-0001-52.png
00000014,775,0,1446653730852,1446653731596,366,344,0,0,0,1,0,1,1,0005-00-0000-98.png,0001-00-0000-53.png
00000014,776,0,1446653735265,1446653735877,918,492,0,0,0,2,3,1,5,0003-00-0000-40.png,0002-00-0001-87.png
00000014,777,1,1446653739617,1446653740185,949,406,0,0,0,4,3,1,7,0004-00-0000-02.png,0002-00-0000-99.png
00000014,778,0,1446653741432,1446653742287,906,454,0,0,0,3,4,1,7,0002-00-0000-64.png,0004-00-0000-76.png
00000014,779,1,1446653745521,1446653746157,926,436,0,0,0,2,1,1,3,0003-00-0001-80.png,0005-00-0000-86.png
00000014,780,0,1446653747449,1446653747990,900,437,0,0,0,2,3,1,5,0003-00-0001-69.png,0002-00-0001-91.png
00000014,781,1,1446653753849,1446653754397,354,395,0,0,0,0,1,1,1,0001-00-0000-25.png,0005-00-0001-02.png
00000014,782,1,1446653755325,1446653755991,895,478,0,0,0,1,0,1,1,0005-00-0001-82.png,0001-00-0001-84.png
00000014,783,0,1446653756887,1446653757587,389,419,0,0,0,3,2,1,5,0002-00-0000-66.png,0003-00-0000-52.png
00000014,784,0,1446653761298,1446653761994,928,390,0,0,0,1,2,1,3,0005-00-0001-56.png,0003-00-0001-07.png
00000014,785,0,1446653768405,1446653768972,975,381,0,0,0,2,3,1,5,0003-00-0000-26.png,0002-00-0001-17.png
00000014,786,1,1446653772542,1446653773347,939,423,0,0,0,4,3,1,7,0004-00-0000-54.png,0002-00-0000-21.png
00000014,787,0,1446653774594,1446653775230,926,429,0,0,0,0,1,1,1,0001-00-0001-10.png,0005-00-0001-58.png
00000014,788,0,1446653779143,1446653779818,927,382,0,0,0,3,4,1,7,0002-00-0000-12.png,0004-00-0000-82.png
00000014,789,0,1446653783575,1446653784105,307,392,0,0,0,3,2,1,5,0002-00-0001-05.png,0003-00-0001-75.png
00000014,790,1,1446653788049,1446653788698,939,455,0,0,0,2,1,1,3,0003-00-0000-23.png,0005-00-0000-77.png
00000014,791,1,1446653790008,1446653790760,937,398,0,0,0,1,0,1,1,0005-00-0001-60.png,0001-00-0001-14.png
00000014,792,0,1446653792092,1446653793013,921,389,0,0,0,1,2,1,3,0005-00-0000-76.png,0003-00-0001-47.png
00000014,793,1,1446653797402,1446653798126,901,402,0,0,0,2,1,1,3,0003-00-0000-58.png,0005-00-0000-79.png
00000014,794,1,1446653799220,1446653799955,901,398,0,0,0,1,0,1,1,0005-00-0001-83.png,0001-00-0000-22.png
00000014,795,1,1446653802509,1446653803134,394,381,0,0,0,1,2,1,3,0005-00-0000-13.png,0003-00-0000-46.png
00000014,796,1,1446653804237,1446653804910,363,482,0,0,0,0,1,1,1,0001-00-0001-37.png,0005-00-0000-66.png
00000014,797,1,1446653805838,1446653806611,922,393,0,0,0,4,3,1,7,0004-00-0000-22.png,0002-00-0001-37.png
00000014,798,0,1446653807667,1446653808249,900,436,0,0,0,3,4,1,7,0002-00-0001-05.png,0004-00-0000-34.png
00000014,799,0,1446653811432,1446653812091,858,386,0,0,0,2,3,1,5,0003-00-0001-14.png,0002-00-0001-97.png
00000014,800,0,1446653816780,1446653817377,338,408,0,0,0,3,2,1,5,0002-00-0000-98.png,0003-00-0000-62.png
00000014,801,1,1446653821451,1446653822112,356,353,0,0,0,1,2,1,3,0005-00-0001-35.png,0003-00-0000-36.png
00000014,802,1,1446653823261,1446653824315,350,370,0,0,0,3,4,1,7,0002-00-0001-17.png,0004-00-0001-33.png
00000014,803,0,1446653825493,1446653826101,872,430,0,0,0,2,3,1,5,0003-00-0001-15.png,0002-00-0000-46.png
00000014,804,1,1446653829442,1446653830144,923,380,0,0,0,4,3,1,7,0004-00-0000-44.png,0002-00-0001-13.png
00000014,805,1,1446653831174,1446653831730,902,397,0,0,0,1,0,1,1,0005-00-0000-25.png,0001-00-0000-49.png
00000014,806,1,1446653832675,1446653833238,877,414,0,0,0,2,1,1,3,0003-00-0000-26.png,0005-00-0001-35.png
00000014,807,0,1446653834164,1446653834956,892,383,0,0,0,0,1,1,1,0001-00-0000-03.png,0005-00-0001-26.png
00000014,808,0,1446653839043,1446653839867,363,501,0,0,0,3,2,1,5,0002-00-0000-29.png,0003-00-0001-06.png
00000014,809,1,1446653843354,1446653844157,938,419,0,0,0,2,1,1,3,0003-00-0001-45.png,0005-00-0000-33.png
00000014,810,1,1446653845358,1446653845918,860,368,0,0,0,1,0,1,1,0005-00-0000-40.png,0001-00-0000-28.png
00000014,811,1,1446653847124,1446653847995,387,371,0,0,0,0,1,1,1,0001-00-0000-44.png,0005-00-0000-11.png
00000014,812,1,1446653849045,1446653850014,389,371,0,0,0,3,4,1,7,0002-00-0001-26.png,0004-00-0001-54.png
00000014,813,0,1446653851111,1446653851623,395,449,0,0,0,3,2,1,5,0002-00-0000-77.png,0003-00-0000-73.png
00000014,814,0,1446653855165,1446653855696,408,315,0,0,0,4,3,1,7,0004-00-0000-78.png,0002-00-0000-92.png
00000014,815,0,1446653858931,1446653859552,931,376,0,0,0,2,3,1,5,0003-00-0000-55.png,0002-00-0001-08.png
00000014,816,1,1446653863067,1446653863557,352,424,0,0,0,1,2,1,3,0005-00-0001-32.png,0003-00-0000-40.png
00000014,817,1,1446653864475,1446653865161,884,381,0,0,0,3,2,1,5,0002-00-0000-12.png,0003-00-0000-60.png
00000014,818,0,1446653866127,1446653867380,395,435,0,0,0,2,1,1,3,0003-00-0000-05.png,0005-00-0001-91.png
00000014,819,0,1446653870520,1446653871040,878,501,0,0,0,3,4,1,7,0002-00-0001-46.png,0004-00-0000-81.png
00000014,820,1,1446653878912,1446653879454,375,416,0,0,0,2,3,1,5,0003-00-0000-97.png,0002-00-0000-82.png
00000014,821,0,1446653880603,1446653881288,418,456,0,0,0,1,0,1,1,0005-00-0001-70.png,0001-00-0001-66.png
00000014,822,1,1446653885027,1446653886176,375,351,0,0,0,1,2,1,3,0005-00-0001-90.png,0003-00-0000-42.png
00000014,823,0,1446653887244,1446653887810,915,471,0,0,0,0,1,1,1,0001-00-0001-36.png,0005-00-0001-08.png
00000014,824,0,1446653891211,1446653891858,369,421,0,0,0,4,3,1,7,0004-00-0001-67.png,0002-00-0000-52.png
00000014,825,0,1446653894924,1446653895390,379,384,0,0,0,1,0,1,1,0005-00-0000-40.png,0001-00-0001-75.png
00000014,826,0,1446653899984,1446653900474,904,387,0,0,0,2,3,1,5,0003-00-0000-78.png,0002-00-0001-10.png
00000014,827,0,1446653910217,1446653910771,341,367,0,0,0,4,3,1,7,0004-00-0000-54.png,0002-00-0000-75.png
00000014,828,0,1446653915338,1446653916129,331,337,0,0,0,3,2,1,5,0002-00-0001-07.png,0003-00-0000-82.png
00000014,829,1,1446653920268,1446653920757,405,504,0,0,0,3,4,1,7,0002-00-0000-03.png,0004-00-0001-87.png
00000014,830,1,1446653922054,1446653922745,373,404,0,0,0,1,2,1,3,0005-00-0001-02.png,0003-00-0000-15.png
00000014,831,1,1446653924005,1446653924636,333,412,0,0,0,0,1,1,1,0001-00-0001-14.png,0005-00-0000-83.png
00000014,832,1,1446653925855,1446653926541,878,337,0,0,0,2,1,1,3,0003-00-0000-65.png,0005-00-0001-67.png
00000014,833,1,1446653927592,1446653928287,894,371,0,0,0,4,3,1,7,0004-00-0000-07.png,0002-00-0001-01.png
00000014,834,0,1446653929818,1446653930492,870,393,0,0,0,3,4,1,7,0002-00-0000-55.png,0004-00-0000-23.png
00000014,835,1,1446653934629,1446653935229,949,485,0,0,0,1,0,1,1,0005-00-0000-04.png,0001-00-0000-61.png
00000014,836,0,1446653936577,1446653937165,932,402,0,0,0,2,3,1,5,0003-00-0001-22.png,0002-00-0001-04.png
00000014,837,1,1446653940722,1446653941453,931,382,0,0,0,2,1,1,3,0003-00-0000-07.png,0005-00-0001-15.png
00000014,838,1,1446653942708,1446653943262,331,408,0,0,0,0,1,1,1,0001-00-0000-86.png,0005-00-0001-39.png
00000014,839,1,1446653944396,1446653944995,366,510,0,0,0,1,2,1,3,0005-00-0000-68.png,0003-00-0001-28.png
00000014,840,0,1446653946209,1446653946813,352,394,0,0,0,3,2,1,5,0002-00-0000-77.png,0003-00-0001-40.png
00000014,841,1,1446653950154,1446653950900,964,430,0,0,0,3,2,1,5,0002-00-0000-77.png,0003-00-0001-66.png
00000014,842,1,1446653952053,1446653952619,890,517,0,0,0,4,3,1,7,0004-00-0000-43.png,0002-00-0000-59.png
00000014,843,0,1446653953780,1446653954472,871,486,0,0,0,3,4,1,7,0002-00-0001-11.png,0004-00-0000-95.png
00000014,844,1,1446653960033,1446653960673,366,411,0,0,0,2,3,1,5,0003-00-0000-37.png,0002-00-0000-27.png
00000014,845,0,1446653961931,1446653962626,882,417,0,0,0,0,1,1,1,0001-00-0000-02.png,0005-00-0000-21.png
00000014,846,1,1446653966214,1446653967012,926,391,0,0,0,2,1,1,3,0003-00-0001-32.png,0005-00-0000-34.png
00000014,847,1,1446653968062,1446653968757,928,503,0,0,0,1,0,1,1,0005-00-0000-25.png,0001-00-0001-55.png
00000014,848,0,1446653970099,1446653970869,879,338,0,0,0,1,2,1,3,0005-00-0000-38.png,0003-00-0001-48.png
00000014,849,1,1446653975318,1446653975925,922,433,0,0,0,1,0,1,1,0005-00-0001-90.png,0001-00-0001-57.png
00000014,850,1,1446653977136,1446653977927,951,386,0,0,0,3,2,1,5,0002-00-0001-09.png,0003-00-0000-83.png
00000014,851,0,1446653979164,1446653979968,893,373,0,0,0,2,3,1,5,0003-00-0000-81.png,0002-00-0000-80.png
00000014,852,0,1446653983069,1446653983603,951,411,0,0,0,3,4,1,7,0002-00-0000-39.png,0004-00-0001-62.png
00000014,853,1,1446653986817,1446653987408,400,410,0,0,0,0,1,1,1,0001-00-0000-38.png,0005-00-0000-02.png
00000014,854,1,1446653988786,1446653989602,402,527,0,0,0,1,2,1,3,0005-00-0000-61.png,0003-00-0001-11.png
00000014,855,1,1446653990705,1446653991324,902,397,0,0,0,4,3,1,7,0004-00-0000-47.png,0002-00-0000-20.png
00000014,856,1,1446653992414,1446653993102,877,371,0,0,0,2,1,1,3,0003-00-0000-46.png,0005-00-0001-50.png
00000014,857,1,1446653994252,1446653994736,360,419,0,0,0,0,1,1,1,0001-00-0000-25.png,0005-00-0001-90.png
00000014,858,1,1446653995842,1446653996614,410,455,0,0,0,1,2,1,3,0005-00-0001-94.png,0003-00-0001-21.png
00000014,859,1,1446653997661,1446653998354,857,383,0,0,0,3,2,1,5,0002-00-0000-13.png,0003-00-0000-60.png
00000014,860,0,1446654000693,1446654001202,357,417,0,0,0,4,3,1,7,0004-00-0000-10.png,0002-00-0001-69.png
00000014,861,1,1446654004536,1446654005211,392,418,0,0,0,3,4,1,7,0002-00-0001-43.png,0004-00-0000-70.png
00000014,862,0,1446654006448,1446654007059,926,464,0,0,0,2,3,1,5,0003-00-0001-91.png,0002-00-0001-93.png
00000014,863,1,1446654010363,1446654010999,919,422,0,0,0,1,0,1,1,0005-00-0001-69.png,0001-00-0001-19.png
00000014,864,0,1446654012247,1446654013222,368,394,0,0,0,2,1,1,3,0003-00-0001-68.png,0005-00-0000-62.png
00000014,865,0,1446654017378,1446654018095,906,401,0,0,0,0,1,1,1,0001-00-0001-75.png,0005-00-0000-72.png
00000014,866,1,1446654021355,1446654021909,360,415,0,0,0,1,2,1,3,0005-00-0001-48.png,0003-00-0001-16.png
00000014,867,1,1446654023084,1446654023635,906,419,0,0,0,2,1,1,3,0003-00-0000-66.png,0005-00-0001-77.png
00000014,868,0,1446654024975,1446654025651,879,363,0,0,0,2,3,1,5,0003-00-0001-47.png,0002-00-0001-13.png
00000014,869,0,1446654028934,1446654029473,389,424,0,0,0,4,3,1,7,0004-00-0001-46.png,0002-00-0001-94.png
00000014,870,0,1446654032505,1446654033281,964,369,0,0,0,3,4,1,7,0002-00-0000-93.png,0004-00-0001-26.png
00000014,871,1,1446654036740,1446654037546,939,396,0,0,0,1,0,1,1,0005-00-0001-06.png,0001-00-0001-78.png
00000014,872,0,1446654038720,1446654039579,351,362,0,0,0,3,2,1,5,0002-00-0000-39.png,0003-00-0001-11.png
00000014,873,1,1446654044393,1446654044987,317,426,0,0,0,0,1,1,1,0001-00-0001-61.png,0005-00-0000-74.png
00000014,874,0,1446654046075,1446654046816,400,500,0,0,0,3,2,1,5,0002-00-0000-53.png,0003-00-0000-01.png
00000014,875,0,1446654051329,1446654051880,957,502,0,0,0,2,3,1,5,0003-00-0001-34.png,0002-00-0001-12.png
00000014,876,0,1446654054909,1446654055436,418,418,0,0,0,2,1,1,3,0003-00-0000-12.png,0005-00-0000-88.png
00000014,877,1,1446654059262,1446654059924,376,384,0,0,0,1,2,1,3,0005-00-0001-16.png,0003-00-0000-64.png
00000014,878,0,1446654061252,1446654061864,926,384,0,0,0,3,4,1,7,0002-00-0000-31.png,0004-00-0001-60.png
00000014,879,1,1446654064896,1446654065549,900,438,0,0,0,1,0,1,1,0005-00-0000-19.png,0001-00-0000-93.png
00000014,880,0,1446654066687,1446654067814,349,355,0,0,0,4,3,1,7,0004-00-0001-06.png,0002-00-0000-01.png
00000014,881,0,1446654071833,1446654072519,913,351,0,0,0,2,3,1,5,0003-00-0000-54.png,0002-00-0000-41.png
00000014,882,0,1446654075740,1446654076474,311,443,0,0,0,4,3,1,7,0004-00-0001-62.png,0002-00-0001-62.png
00000014,883,1,1446654079493,1446654080112,897,330,0,0,0,1,0,1,1,0005-00-0000-83.png,0001-00-0001-91.png
00000014,884,1,1446654081356,1446654082175,340,379,0,0,0,3,4,1,7,0002-00-0001-94.png,0004-00-0001-31.png
00000014,885,1,1446654083524,1446654084101,314,398,0,0,0,0,1,1,1,0001-00-0001-63.png,0005-00-0001-48.png
00000014,886,0,1446654085451,1446654086142,406,364,0,0,0,3,2,1,5,0002-00-0000-59.png,0003-00-0000-97.png
00000014,887,1,1446654089166,1446654089732,869,400,0,0,0,2,1,1,3,0003-00-0001-95.png,0005-00-0001-95.png
00000014,888,0,1446654090829,1446654091820,906,406,0,0,0,1,2,1,3,0005-00-0000-78.png,0003-00-0001-72.png
00000014,889,0,1446654096782,1446654097484,879,458,0,0,0,3,4,1,7,0002-00-0001-07.png,0004-00-0001-62.png
00000014,890,1,1446654101089,1446654101916,916,431,0,0,0,2,1,1,3,0003-00-0001-06.png,0005-00-0001-44.png
00000014,891,1,1446654103110,1446654103998,875,442,0,0,0,1,0,1,1,0005-00-0001-49.png,0001-00-0000-07.png
00000014,892,1,1446654105030,1446654105600,348,424,0,0,0,1,2,1,3,0005-00-0001-55.png,0003-00-0001-09.png
00000014,893,1,1446654106611,1446654107150,344,424,0,0,0,0,1,1,1,0001-00-0001-68.png,0005-00-0001-01.png
00000014,894,0,1446654108122,1446654108726,344,433,0,0,0,4,3,1,7,0004-00-0001-95.png,0002-00-0000-48.png
00000014,895,0,1446654112465,1446654112943,905,401,0,0,0,2,3,1,5,0003-00-0000-41.png,0002-00-0001-09.png
00000014,896,0,1446654119378,1446654120152,340,366,0,0,0,3,2,1,5,0002-00-0001-48.png,0003-00-0000-10.png
00000014,897,0,1446654126752,1446654127484,1002,470,0,0,0,2,3,1,5,0003-00-0000-13.png,0002-00-0001-23.png
00000014,898,1,1446654131138,1446654131775,949,397,0,0,0,2,1,1,3,0003-00-0001-43.png,0005-00-0001-23.png
00000014,899,0,1446654134996,1446654135538,348,423,0,0,0,3,2,1,5,0002-00-0000-25.png,0003-00-0000-21.png
00000014,900,0,1446654139764,1446654140387,893,437,0,0,0,3,4,1,7,0002-00-0000-99.png,0004-00-0001-43.png
00000014,901,0,1446654143762,1446654144579,952,384,0,0,0,0,1,1,1,0001-00-0000-47.png,0005-00-0001-09.png
00000014,902,1,1446654149486,1446654149996,948,392,0,0,0,1,0,1,1,0005-00-0000-87.png,0001-00-0000-13.png
00000014,903,0,1446654151229,1446654152137,874,445,0,0,0,1,2,1,3,0005-00-0000-72.png,0003-00-0001-82.png
00000014,904,1,1446654156182,1446654157078,988,350,0,0,0,4,3,1,7,0004-00-0001-02.png,0002-00-0000-69.png
00000014,905,0,1446654159238,1446654159867,952,372,0,0,0,3,4,1,7,0002-00-0000-21.png,0004-00-0001-03.png
00000014,906,1,1446654164474,1446654164998,913,371,0,0,0,2,1,1,3,0003-00-0001-63.png,0005-00-0001-07.png
00000014,907,1,1446654166244,1446654167066,904,392,0,0,0,1,0,1,1,0005-00-0000-67.png,0001-00-0001-46.png
00000014,908,0,1446654168244,1446654169171,263,407,0,0,0,4,3,1,7,0004-00-0000-65.png,0002-00-0000-53.png
00000014,909,0,1446654172284,1446654172809,945,378,0,0,0,2,3,1,5,0003-00-0001-18.png,0002-00-0000-13.png
00000014,910,0,1446654176611,1446654177152,413,523,0,0,0,3,2,1,5,0002-00-0000-02.png,0003-00-0001-65.png
00000014,911,1,1446654180982,1446654181896,350,346,0,0,0,1,2,1,3,0005-00-0001-45.png,0003-00-0001-05.png
00000014,912,1,1446654185016,1446654185881,390,441,0,0,0,0,1,1,1,0001-00-0001-78.png,0005-00-0000-04.png
00000014,913,1,1446654187194,1446654187813,392,488,0,0,0,0,1,1,1,0001-00-0000-62.png,0005-00-0001-62.png
00000014,914,1,1446654188755,1446654189391,876,338,0,0,0,4,3,1,7,0004-00-0000-00.png,0002-00-0000-38.png
00000014,915,0,1446654190456,1446654191276,929,363,0,0,0,3,4,1,7,0002-00-0000-30.png,0004-00-0000-78.png
00000014,916,0,1446654194630,1446654195399,907,366,0,0,0,1,2,1,3,0005-00-0000-59.png,0003-00-0001-79.png
00000014,917,1,1446654198982,1446654199571,939,450,0,0,0,1,0,1,1,0005-00-0000-87.png,0001-00-0001-73.png
00000014,918,1,1446654200702,1446654201314,872,510,0,0,0,2,1,1,3,0003-00-0001-75.png,0005-00-0001-04.png
00000014,919,0,1446654202712,1446654203308,901,437,0,0,0,2,3,1,5,0003-00-0001-76.png,0002-00-0000-77.png
00000014,920,1,1446654207590,1446654208154,930,427,0,0,0,3,2,1,5,0002-00-0000-02.png,0003-00-0001-66.png
00000014,921,1,1446654209270,1446654210590,393,398,0,0,0,2,3,1,5,0003-00-0000-60.png,0002-00-0001-47.png
00000014,922,0,1446654211660,1446654212327,880,373,0,0,0,1,2,1,3,0005-00-0001-12.png,0003-00-0001-22.png
00000014,923,0,1446654215800,1446654216594,385,349,0,0,0,2,1,1,3,0003-00-0001-72.png,0005-00-0001-24.png
00000014,924,0,1446654219924,1446654220552,353,432,0,0,0,4,3,1,7,0004-00-0000-60.png,0002-00-0001-18.png
00000014,925,0,1446654224175,1446654224823,928,414,0,0,0,3,4,1,7,0002-00-0000-28.png,0004-00-0000-62.png
00000014,926,1,1446654227875,1446654228348,350,395,0,0,0,0,1,1,1,0001-00-0000-48.png,0005-00-0000-13.png
00000014,927,1,1446654229535,1446654230121,906,427,0,0,0,1,0,1,1,0005-00-0001-76.png,0001-00-0000-66.png
00000014,928,0,1446654231393,1446654232084,352,420,0,0,0,3,2,1,5,0002-00-0000-14.png,0003-00-0000-13.png
00000014,929,1,1446654235107,1446654235715,929,364,0,0,0,3,2,1,5,0002-00-0001-42.png,0003-00-0001-71.png
00000014,930,0,1446654236704,1446654237384,862,482,0,0,0,3,4,1,7,0002-00-0000-14.png,0004-00-0001-99.png
00000014,931,1,1446654241094,1446654241980,413,384,0,0,0,0,1,1,1,0001-00-0001-29.png,0005-00-0001-96.png
00000014,932,1,1446654244484,1446654245056,939,424,0,0,0,4,3,1,7,0004-00-0001-93.png,0002-00-0000-45.png
00000014,933,0,1446654246341,1446654247111,903,450,0,0,0,1,2,1,3,0005-00-0000-62.png,0003-00-0000-95.png
00000014,934,0,1446654250614,1446654251387,521,372,0,0,0,2,1,1,3,0003-00-0000-04.png,0005-00-0000-80.png
00000014,935,0,1446654255215,1446654255844,882,462,0,0,0,2,3,1,5,0003-00-0001-75.png,0002-00-0001-00.png
00000014,936,1,1446654259300,1446654259861,959,378,0,0,0,1,0,1,1,0005-00-0000-57.png,0001-00-0000-42.png
00000014,937,1,1446654261148,1446654262110,920,437,0,0,0,2,1,1,3,0003-00-0000-07.png,0005-00-0001-51.png
00000014,938,0,1446654263407,1446654264064,874,476,0,0,0,3,4,1,7,0002-00-0000-65.png,0004-00-0001-34.png
00000014,939,1,1446654267493,1446654268007,956,453,0,0,0,1,0,1,1,0005-00-0000-36.png,0001-00-0000-78.png
00000014,940,1,1446654269060,1446654269635,381,437,0,0,0,0,1,1,1,0001-00-0000-77.png,0005-00-0001-48.png
00000014,941,1,1446654270600,1446654271427,875,450,0,0,0,4,3,1,7,0004-00-0001-97.png,0002-00-0000-63.png
00000014,942,1,1446654272410,1446654273737,238,473,0,0,0,1,2,1,3,0005-00-0000-38.png,0003-00-0000-76.png
00000014,943,0,1446654275236,1446654275807,401,446,0,0,0,3,2,1,5,0002-00-0001-37.png,0003-00-0001-37.png
00000014,944,1,1446654280172,1446654281682,408,517,0,0,0,2,3,1,5,0003-00-0001-00.png,0002-00-0000-36.png
00000014,945,1,1446654282944,1446654284234,260,462,0,0,0,1,2,1,3,0005-00-0001-50.png,0003-00-0000-73.png
00000014,946,1,1446654285899,1446654286718,897,513,0,0,0,3,2,1,5,0002-00-0000-33.png,0003-00-0001-28.png
00000014,947,1,1446654287873,1446654288472,872,458,0,0,0,4,3,1,7,0004-00-0000-39.png,0002-00-0000-21.png
00000014,948,0,1446654289526,1446654290177,882,437,0,0,0,2,3,1,5,0003-00-0001-56.png,0002-00-0000-73.png
00000014,949,1,1446654295682,1446654296118,341,392,0,0,0,0,1,1,1,0001-00-0001-86.png,0005-00-0001-39.png
00000014,950,1,1446654298290,1446654298803,926,437,0,0,0,1,0,1,1,0005-00-0001-20.png,0001-00-0001-49.png
00000014,951,1,1446654300009,1446654300587,888,410,0,0,0,2,1,1,3,0003-00-0000-26.png,0005-00-0001-45.png
