subject_id,trial,correct_response,stim_time,response_time,x_coord,y_coord,trial_timeout,timeout_time,interTrial_timeout,left_rank,right_rank,distance,joint_rank,left_image,right_image
00000009,1,1,1447087246960,1447087248297,394,269,0,0,0,3,4,1,7,0002-00-0001-23.png,0004-00-0001-66.png
00000009,2,0,1447087249891,1447087250746,963,327,0,0,0,2,3,1,5,0003-00-0000-33.png,0002-00-0000-03.png
00000009,3,1,1447087253605,1447087254112,963,408,0,0,0,4,3,1,7,0004-00-0001-00.png,0002-00-0001-58.png
00000009,4,1,1447087255177,1447087255235,862,394,0,0,0,1,0,1,1,0005-00-0001-15.png,0001-00-0000-32.png
00000009,5,1,1447087257216,1447087257788,943,381,0,0,0,2,1,1,3,0003-00-0001-67.png,0005-00-0000-76.png
00000009,6,0,1447087258988,1447087259040,870,453,0,0,0,1,2,1,3,0005-00-0001-39.png,0003-00-0001-92.png
00000009,7,1,1447087262195,1447087262800,476,249,0,0,0,0,1,1,1,0001-00-0001-57.png,0005-00-0001-79.png
00000009,8,1,1447087263805,1447087264752,1070,299,0,0,0,3,2,1,5,0002-00-0000-18.png,0003-00-0000-58.png
00000009,9,0,1447087265840,1447087265919,925,453,0,0,0,0,1,1,1,0001-00-0001-72.png,0005-00-0000-81.png
00000009,10,0,1447087268981,1447087269532,1092,292,0,0,0,2,3,1,5,0003-00-0000-29.png,0002-00-0000-17.png
00000009,11,1,1447087272392,1447087272897,414,366,0,0,0,3,4,1,7,0002-00-0000-19.png,0004-00-0001-90.png
00000009,12,1,1447087273859,1447087273939,860,421,0,0,0,1,0,1,1,0005-00-0000-53.png,0001-00-0000-90.png
00000009,13,1,1447087275065,1447087275982,422,353,0,0,0,1,2,1,3,0005-00-0000-38.png,0003-00-0001-86.png
00000009,14,0,1447087276963,1447087277806,487,254,0,0,0,3,2,1,5,0002-00-0000-60.png,0003-00-0000-52.png
00000009,15,1,1447087280896,1447087280944,910,242,0,0,0,4,3,1,7,0004-00-0001-47.png,0002-00-0001-91.png
00000009,16,1,1447087281963,1447087282580,903,333,0,0,0,2,1,1,3,0003-00-0000-80.png,0005-00-0000-32.png
00000009,17,1,1447087283581,1447087283629,913,397,0,0,0,3,2,1,5,0002-00-0001-02.png,0003-00-0001-31.png
00000009,18,0,1447087284822,1447087284850,898,358,0,0,0,2,3,1,5,0003-00-0000-64.png,0002-00-0001-46.png
00000009,19,1,1447087287754,1447087288312,941,330,0,0,0,2,1,1,3,0003-00-0001-02.png,0005-00-0001-87.png
00000009,20,1,1447087289176,1447087289232,888,395,0,0,0,4,3,1,7,0004-00-0000-63.png,0002-00-0001-18.png
00000009,21,0,1447087290319,1447087290778,902,522,0,0,0,3,4,1,7,0002-00-0000-43.png,0004-00-0000-61.png
00000009,22,0,1447087293945,1447087293973,915,266,0,0,0,0,1,1,1,0001-00-0001-22.png,0005-00-0000-14.png
00000009,23,0,1447087297088,1447087297705,478,250,0,0,0,1,0,1,1,0005-00-0001-71.png,0001-00-0000-67.png
00000009,24,1,1447087300784,1447087301428,388,385,0,0,0,1,2,1,3,0005-00-0000-40.png,0003-00-0001-44.png
00000009,25,1,1447087302387,1447087303378,396,355,0,0,0,0,1,1,1,0001-00-0000-88.png,0005-00-0000-79.png
00000009,26,1,1447087304311,1447087304367,871,410,0,0,0,2,1,1,3,0003-00-0000-03.png,0005-00-0001-56.png
00000009,27,0,1447087305415,1447087306416,1018,269,0,0,0,1,2,1,3,0005-00-0000-31.png,0003-00-0000-85.png
00000009,28,1,1447087314448,1447087314934,968,408,0,0,0,4,3,1,7,0004-00-0000-99.png,0002-00-0000-83.png
00000009,29,0,1447087315819,1447087316611,1036,305,0,0,0,2,3,1,5,0003-00-0000-20.png,0002-00-0000-03.png
00000009,30,1,1447087319736,1447087320236,453,239,0,0,0,3,4,1,7,0002-00-0001-46.png,0004-00-0001-40.png
00000009,31,1,1447087321130,1447087321931,958,350,0,0,0,1,0,1,1,0005-00-0001-99.png,0001-00-0001-13.png
00000009,32,1,1447087322835,1447087322891,904,384,0,0,0,3,2,1,5,0002-00-0000-32.png,0003-00-0000-80.png
00000009,33,0,1447087324018,1447087324074,865,412,0,0,0,3,4,1,7,0002-00-0000-01.png,0004-00-0001-78.png
00000009,34,0,1447087327138,1447087327814,484,244,0,0,0,4,3,1,7,0004-00-0001-48.png,0002-00-0000-49.png
00000009,35,1,1447087330894,1447087330936,891,293,0,0,0,3,2,1,5,0002-00-0000-41.png,0003-00-0000-94.png
00000009,36,1,1447087331899,1447087332594,470,227,0,0,0,0,1,1,1,0001-00-0001-76.png,0005-00-0001-53.png
00000009,37,0,1447087333541,1447087334449,405,331,0,0,0,2,1,1,3,0003-00-0000-37.png,0005-00-0001-47.png
00000009,38,1,1447087337343,1447087337363,883,347,0,0,0,1,0,1,1,0005-00-0000-21.png,0001-00-0000-44.png
00000009,39,0,1447087338389,1447087338437,868,457,0,0,0,2,3,1,5,0003-00-0001-32.png,0002-00-0000-95.png
00000009,40,0,1447087341289,1447087341514,916,335,0,0,0,1,2,1,3,0005-00-0001-23.png,0003-00-0000-53.png
00000009,41,1,1447087344380,1447087344498,888,436,0,0,0,3,2,1,5,0002-00-0000-61.png,0003-00-0000-72.png
00000009,42,1,1447087345458,1447087346098,477,233,0,0,0,1,2,1,3,0005-00-0000-00.png,0003-00-0000-01.png
00000009,43,1,1447087346964,1447087347064,997,558,0,0,0,1,0,1,1,0005-00-0000-04.png,0001-00-0000-44.png
00000009,44,0,1447087348339,1447087349127,453,358,0,0,0,4,3,1,7,0004-00-0000-53.png,0002-00-0001-26.png
00000009,45,0,1447087352618,1447087352757,873,253,0,0,0,0,1,1,1,0001-00-0000-68.png,0005-00-0000-56.png
00000009,46,1,1447087355789,1447087356334,383,395,0,0,0,2,3,1,5,0003-00-0001-76.png,0002-00-0001-60.png
00000009,47,0,1447087357263,1447087357307,876,415,0,0,0,3,4,1,7,0002-00-0001-34.png,0004-00-0000-78.png
00000009,48,1,1447087360250,1447087360799,1068,286,0,0,0,2,1,1,3,0003-00-0001-93.png,0005-00-0001-00.png
00000009,49,0,1447087361675,1447087362337,919,344,0,0,0,2,3,1,5,0003-00-0001-42.png,0002-00-0001-23.png
00000009,50,0,1447087365680,1447087365728,898,303,0,0,0,3,4,1,7,0002-00-0001-19.png,0004-00-0000-21.png
00000009,51,1,1447087368700,1447087369206,964,320,0,0,0,1,0,1,1,0005-00-0001-64.png,0001-00-0000-12.png
00000009,52,0,1447087370058,1447087370118,862,414,0,0,0,0,1,1,1,0001-00-0000-39.png,0005-00-0000-58.png
00000009,53,1,1447087373241,1447087373329,889,273,0,0,0,2,1,1,3,0003-00-0000-70.png,0005-00-0000-83.png
00000009,54,1,1447087374245,1447087374313,873,443,0,0,0,3,2,1,5,0002-00-0000-81.png,0003-00-0000-43.png
00000009,55,0,1447087375658,1447087375710,872,428,0,0,0,1,2,1,3,0005-00-0000-70.png,0003-00-0001-19.png
00000009,56,1,1447087378867,1447087379014,862,358,0,0,0,4,3,1,7,0004-00-0000-17.png,0002-00-0000-23.png
00000009,57,0,1447087379980,1447087380016,895,459,0,0,0,2,3,1,5,0003-00-0001-32.png,0002-00-0000-19.png
00000009,58,1,1447087383100,1447087383656,494,251,0,0,0,1,2,1,3,0005-00-0001-92.png,0003-00-0001-46.png
00000009,59,1,1447087384510,1447087385370,404,343,0,0,0,0,1,1,1,0001-00-0000-90.png,0005-00-0001-84.png
00000009,60,1,1447087386400,1447087386424,867,407,0,0,0,4,3,1,7,0004-00-0001-19.png,0002-00-0000-72.png
00000009,61,1,1447087387491,1447087387551,888,422,0,0,0,3,2,1,5,0002-00-0001-93.png,0003-00-0000-39.png
00000009,62,0,1447087388693,1447087388761,868,440,0,0,0,3,4,1,7,0002-00-0000-37.png,0004-00-0000-87.png
00000009,63,1,1447087391885,1447087392419,962,373,0,0,0,2,1,1,3,0003-00-0001-93.png,0005-00-0000-66.png
00000009,64,1,1447087393325,1447087393373,888,436,0,0,0,1,0,1,1,0005-00-0000-00.png,0001-00-0000-15.png
00000009,65,0,1447087394360,1447087395321,435,324,0,0,0,1,0,1,1,0005-00-0000-60.png,0001-00-0001-01.png
00000009,66,0,1447087398374,1447087398976,499,244,0,0,0,4,3,1,7,0004-00-0000-64.png,0002-00-0000-11.png
00000009,67,0,1447087401943,1447087402503,1037,277,0,0,0,1,2,1,3,0005-00-0001-44.png,0003-00-0000-20.png
00000009,68,1,1447087405481,1447087406440,372,380,0,0,0,3,4,1,7,0002-00-0001-93.png,0004-00-0001-68.png
00000009,69,0,1447087407367,1447087408222,964,420,0,0,0,2,3,1,5,0003-00-0001-50.png,0002-00-0000-02.png
00000009,70,1,1447087411362,1447087411929,970,313,0,0,0,2,1,1,3,0003-00-0001-61.png,0005-00-0000-44.png
00000009,71,0,1447087412882,1447087412921,897,388,0,0,0,0,1,1,1,0001-00-0001-06.png,0005-00-0000-14.png
00000009,72,1,1447087416180,1447087416386,940,273,0,0,0,3,2,1,5,0002-00-0001-43.png,0003-00-0000-76.png
00000009,73,0,1447087417345,1447087417413,889,438,0,0,0,3,4,1,7,0002-00-0000-23.png,0004-00-0000-94.png
00000009,74,0,1447087420693,1447087421329,1096,325,0,0,0,0,1,1,1,0001-00-0001-35.png,0005-00-0001-98.png
00000009,75,0,1447087424492,1447087424705,913,332,0,0,0,2,3,1,5,0003-00-0001-12.png,0002-00-0000-92.png
00000009,76,1,1447087427831,1447087428358,939,394,0,0,0,1,0,1,1,0005-00-0001-86.png,0001-00-0000-12.png
00000009,77,1,1447087429289,1447087429373,913,448,0,0,0,3,2,1,5,0002-00-0001-66.png,0003-00-0000-60.png
00000009,78,1,1447087430343,1447087430419,866,424,0,0,0,4,3,1,7,0004-00-0000-93.png,0002-00-0000-69.png
00000009,79,1,1447087431577,1447087431653,872,462,0,0,0,2,1,1,3,0003-00-0001-33.png,0005-00-0000-06.png
00000009,80,0,1447087432737,1447087432805,878,462,0,0,0,1,2,1,3,0005-00-0001-32.png,0003-00-0001-60.png
00000009,81,0,1447087435927,1447087436476,478,266,0,0,0,3,2,1,5,0002-00-0000-68.png,0003-00-0000-84.png
00000009,82,0,1447087439705,1447087439741,866,328,0,0,0,2,3,1,5,0003-00-0001-94.png,0002-00-0000-35.png
00000009,83,1,1447087442762,1447087443222,1064,280,0,0,0,1,0,1,1,0005-00-0000-79.png,0001-00-0001-73.png
00000009,84,1,1447087444819,1447087445457,1041,284,0,0,0,4,3,1,7,0004-00-0001-82.png,0002-00-0001-72.png
00000009,85,1,1447087446443,1447087447407,964,372,0,0,0,2,1,1,3,0003-00-0001-42.png,0005-00-0001-93.png
00000009,86,0,1447087448430,1447087448506,909,422,0,0,0,3,4,1,7,0002-00-0000-78.png,0004-00-0001-04.png
00000009,87,1,1447087451501,1447087452011,416,379,0,0,0,1,2,1,3,0005-00-0001-26.png,0003-00-0001-24.png
00000009,88,0,1447087452943,1447087453007,871,498,0,0,0,0,1,1,1,0001-00-0000-65.png,0005-00-0001-50.png
00000009,89,1,1447087456526,1447087457124,984,415,0,0,0,2,1,1,3,0003-00-0000-06.png,0005-00-0001-97.png
00000009,90,1,1447087458006,1447087458788,495,225,0,0,0,1,2,1,3,0005-00-0000-17.png,0003-00-0000-75.png
00000009,91,0,1447087459799,1447087460857,963,306,0,0,0,2,3,1,5,0003-00-0001-03.png,0002-00-0000-46.png
00000009,92,1,1447087464014,1447087464114,904,279,0,0,0,1,0,1,1,0005-00-0000-27.png,0001-00-0001-50.png
00000009,93,0,1447087465109,1447087465176,886,472,0,0,0,0,1,1,1,0001-00-0001-11.png,0005-00-0000-32.png
00000009,94,1,1447087468286,1447087468832,1016,358,0,0,0,4,3,1,7,0004-00-0001-97.png,0002-00-0001-76.png
00000009,95,1,1447087469694,1447087469763,862,474,0,0,0,3,2,1,5,0002-00-0000-57.png,0003-00-0000-30.png
00000009,96,0,1447087470798,1447087471092,888,553,0,0,0,3,4,1,7,0002-00-0001-97.png,0004-00-0000-96.png
00000009,97,0,1447087474427,1447087474934,1066,252,0,0,0,1,2,1,3,0005-00-0001-92.png,0003-00-0001-36.png
00000009,98,1,1447087477906,1447087478506,939,375,0,0,0,4,3,1,7,0004-00-0001-86.png,0002-00-0000-46.png
00000009,99,1,1447087479417,1447087480205,911,348,0,0,0,2,1,1,3,0003-00-0000-93.png,0005-00-0001-85.png
00000009,100,0,1447087482109,1447087482663,1041,279,0,0,0,2,3,1,5,0003-00-0000-64.png,0002-00-0000-13.png
00000009,101,1,1447087485796,1447087486425,478,276,0,0,0,0,1,1,1,0001-00-0000-19.png,0005-00-0001-52.png
00000009,102,1,1447087487283,1447087487353,897,436,0,0,0,1,0,1,1,0005-00-0001-48.png,0001-00-0001-57.png
00000009,103,1,1447087488360,1447087488468,889,432,0,0,0,3,2,1,5,0002-00-0001-19.png,0003-00-0001-70.png
00000009,104,0,1447087489533,1447087489577,871,451,0,0,0,3,4,1,7,0002-00-0000-83.png,0004-00-0000-62.png
00000009,105,1,1447087492899,1447087493415,409,384,0,0,0,3,4,1,7,0002-00-0000-30.png,0004-00-0001-91.png
00000009,106,0,1447087494255,1447087495105,506,220,0,0,0,1,0,1,1,0005-00-0000-03.png,0001-00-0001-80.png
00000009,107,1,1447087501895,1447087502429,943,355,0,0,0,4,3,1,7,0004-00-0001-23.png,0002-00-0001-04.png
00000009,108,1,1447087503395,1447087503471,862,488,0,0,0,2,1,1,3,0003-00-0000-49.png,0005-00-0000-25.png
00000009,109,0,1447087504409,1447087505353,906,366,0,0,0,2,3,1,5,0003-00-0000-73.png,0002-00-0001-99.png
00000009,110,0,1447087508372,1447087508400,877,330,0,0,0,0,1,1,1,0001-00-0001-06.png,0005-00-0000-29.png
00000009,111,1,1447087511434,1447087511931,493,269,0,0,0,1,2,1,3,0005-00-0001-15.png,0003-00-0000-34.png
00000009,112,1,1447087512771,1447087512823,883,444,0,0,0,3,2,1,5,0002-00-0000-14.png,0003-00-0001-43.png
00000009,113,1,1447087513895,1447087514868,492,241,0,0,0,3,4,1,7,0002-00-0001-42.png,0004-00-0001-33.png
00000009,114,1,1447087516378,1447087517204,1033,285,0,0,0,1,0,1,1,0005-00-0001-68.png,0001-00-0000-12.png
00000009,115,1,1447087518121,1447087518176,886,395,0,0,0,3,2,1,5,0002-00-0000-41.png,0003-00-0001-95.png
00000009,116,1,1447087519222,1447087520205,956,315,0,0,0,2,1,1,3,0003-00-0001-05.png,0005-00-0001-56.png
00000009,117,0,1447087521222,1447087521258,888,441,0,0,0,1,2,1,3,0005-00-0000-50.png,0003-00-0001-76.png
00000009,118,1,1447087524259,1447087524844,946,320,0,0,0,4,3,1,7,0004-00-0000-16.png,0002-00-0001-81.png
00000009,119,0,1447087525721,1447087525769,914,423,0,0,0,0,1,1,1,0001-00-0000-29.png,0005-00-0001-65.png
00000009,120,0,1447087528756,1447087529269,1059,290,0,0,0,2,3,1,5,0003-00-0001-89.png,0002-00-0000-08.png
00000009,121,0,1447087532341,1447087532849,990,374,0,0,0,2,3,1,5,0003-00-0001-21.png,0002-00-0000-52.png
00000009,122,0,1447087536009,1447087536282,948,352,0,0,0,1,2,1,3,0005-00-0001-14.png,0003-00-0001-97.png
00000009,123,1,1447087539247,1447087539255,866,304,0,0,0,1,0,1,1,0005-00-0001-71.png,0001-00-0001-90.png
00000009,124,1,1447087540233,1447087540289,913,448,0,0,0,3,2,1,5,0002-00-0001-05.png,0003-00-0001-96.png
00000009,125,1,1447087541276,1447087542380,948,304,0,0,0,4,3,1,7,0004-00-0000-92.png,0002-00-0000-18.png
00000009,126,1,1447087543971,1447087544667,947,348,0,0,0,2,1,1,3,0003-00-0000-95.png,0005-00-0001-88.png
00000009,127,0,1447087545650,1447087545726,943,477,0,0,0,3,4,1,7,0002-00-0000-81.png,0004-00-0000-54.png
00000009,128,0,1447087548858,1447087548874,892,333,0,0,0,0,1,1,1,0001-00-0000-45.png,0005-00-0000-28.png
00000009,129,0,1447087552087,1447087552577,460,279,0,0,0,3,2,1,5,0002-00-0000-23.png,0003-00-0000-48.png
00000009,130,0,1447087555497,1447087555505,862,333,0,0,0,3,4,1,7,0002-00-0001-04.png,0004-00-0000-74.png
00000009,131,1,1447087558568,1447087559044,945,333,0,0,0,4,3,1,7,0004-00-0000-04.png,0002-00-0000-32.png
00000009,132,1,1447087559918,1447087559946,886,389,0,0,0,1,0,1,1,0005-00-0000-16.png,0001-00-0001-91.png
00000009,133,0,1447087560982,1447087561058,860,460,0,0,0,2,3,1,5,0003-00-0001-73.png,0002-00-0001-21.png
00000009,134,1,1447087564163,1447087564736,499,260,0,0,0,1,2,1,3,0005-00-0000-03.png,0003-00-0000-64.png
00000009,135,0,1447087565634,1447087565755,886,465,0,0,0,0,1,1,1,0001-00-0001-14.png,0005-00-0001-92.png
00000009,136,1,1447087568785,1447087568829,868,383,0,0,0,2,1,1,3,0003-00-0001-98.png,0005-00-0001-53.png
00000009,137,1,1447087569777,1447087569821,888,453,0,0,0,1,0,1,1,0005-00-0000-26.png,0001-00-0000-92.png
00000009,138,0,1447087570820,1447087571772,490,231,0,0,0,3,2,1,5,0002-00-0001-14.png,0003-00-0001-32.png
00000009,139,0,1447087574706,1447087575235,939,320,0,0,0,2,3,1,5,0003-00-0001-59.png,0002-00-0001-69.png
00000009,140,0,1447087578362,1447087579068,417,381,0,0,0,2,1,1,3,0003-00-0001-01.png,0005-00-0000-51.png
00000009,141,0,1447087582309,1447087582835,913,396,0,0,0,0,1,1,1,0001-00-0001-74.png,0005-00-0001-17.png
00000009,142,0,1447087585661,1447087586359,952,319,0,0,0,1,2,1,3,0005-00-0001-42.png,0003-00-0000-42.png
00000009,143,1,1447087589683,1447087589707,875,332,0,0,0,4,3,1,7,0004-00-0001-07.png,0002-00-0001-02.png
00000009,144,0,1447087590644,1447087590672,879,409,0,0,0,3,4,1,7,0002-00-0001-67.png,0004-00-0000-86.png
00000009,145,1,1447087593785,1447087594298,437,390,0,0,0,3,4,1,7,0002-00-0000-73.png,0004-00-0001-26.png
00000009,146,1,1447087595135,1447087596009,399,348,0,0,0,1,2,1,3,0005-00-0001-39.png,0003-00-0000-68.png
00000009,147,1,1447087596985,1447087597033,867,409,0,0,0,2,1,1,3,0003-00-0000-54.png,0005-00-0000-39.png
00000009,148,0,1447087598198,1447087598273,897,462,0,0,0,0,1,1,1,0001-00-0001-45.png,0005-00-0000-50.png
00000009,149,0,1447087601454,1447087602121,509,248,0,0,0,1,0,1,1,0005-00-0001-83.png,0001-00-0001-71.png
00000009,150,1,1447087605000,1447087605530,1032,264,0,0,0,3,2,1,5,0002-00-0001-03.png,0003-00-0000-48.png
00000009,151,0,1447087606395,1447087606467,925,470,0,0,0,2,3,1,5,0003-00-0000-88.png,0002-00-0000-81.png
00000009,152,1,1447087609617,1447087610120,1067,273,0,0,0,4,3,1,7,0004-00-0000-54.png,0002-00-0000-83.png
00000009,153,1,1447087611021,1447087611065,916,481,0,0,0,4,3,1,7,0004-00-0000-52.png,0002-00-0000-53.png
00000009,154,1,1447087612100,1447087612128,858,443,0,0,0,3,2,1,5,0002-00-0001-99.png,0003-00-0000-52.png
00000009,155,1,1447087613193,1447087614103,432,354,0,0,0,3,4,1,7,0002-00-0001-75.png,0004-00-0000-04.png
00000009,156,1,1447087615073,1447087615117,862,436,0,0,0,1,0,1,1,0005-00-0001-31.png,0001-00-0001-44.png
00000009,157,0,1447087616285,1447087616329,874,462,0,0,0,2,3,1,5,0003-00-0001-52.png,0002-00-0001-44.png
00000009,158,0,1447087619366,1447087619374,888,346,0,0,0,1,2,1,3,0005-00-0001-93.png,0003-00-0000-00.png
00000009,159,1,1447087622506,1447087622973,962,303,0,0,0,2,1,1,3,0003-00-0000-39.png,0005-00-0000-67.png
00000009,160,0,1447087624433,1447087625190,938,330,0,0,0,0,1,1,1,0001-00-0000-02.png,0005-00-0000-15.png
00000009,161,0,1447087628320,1447087628816,944,279,0,0,0,0,1,1,1,0001-00-0001-82.png,0005-00-0000-40.png
00000009,162,0,1447087631655,1447087632154,939,322,0,0,0,2,3,1,5,0003-00-0000-00.png,0002-00-0001-22.png
00000009,163,0,1447087635277,1447087635293,893,309,0,0,0,3,4,1,7,0002-00-0001-59.png,0004-00-0000-05.png
00000009,164,0,1447087638424,1447087639021,505,256,0,0,0,3,2,1,5,0002-00-0000-94.png,0003-00-0000-29.png
00000009,165,1,1447087642164,1447087642724,973,384,0,0,0,1,0,1,1,0005-00-0000-21.png,0001-00-0001-68.png
00000009,166,1,1447087644270,1447087644934,944,325,0,0,0,4,3,1,7,0004-00-0001-86.png,0002-00-0001-45.png
00000009,167,0,1447087645858,1447087645922,921,436,0,0,0,1,2,1,3,0005-00-0000-27.png,0003-00-0001-68.png
00000009,168,1,1447087648798,1447087649282,1068,281,0,0,0,2,1,1,3,0003-00-0000-18.png,0005-00-0000-79.png
00000009,169,1,1447087650140,1447087650160,891,408,0,0,0,1,0,1,1,0005-00-0000-10.png,0001-00-0001-84.png
00000009,170,1,1447087651205,1447087651289,866,487,0,0,0,2,1,1,3,0003-00-0001-88.png,0005-00-0001-20.png
00000009,171,1,1447087652477,1447087652541,871,494,0,0,0,3,2,1,5,0002-00-0000-34.png,0003-00-0001-67.png
00000009,172,1,1447087653829,1447087653865,883,461,0,0,0,4,3,1,7,0004-00-0000-14.png,0002-00-0001-45.png
00000009,173,0,1447087655009,1447087655057,873,496,0,0,0,1,2,1,3,0005-00-0000-94.png,0003-00-0000-17.png
00000009,174,1,1447087658020,1447087658623,506,265,0,0,0,0,1,1,1,0001-00-0000-28.png,0005-00-0000-89.png
00000009,175,0,1447087660132,1447087660820,935,344,0,0,0,2,3,1,5,0003-00-0001-70.png,0002-00-0000-13.png
00000009,176,1,1447087663737,1447087664368,399,374,0,0,0,3,4,1,7,0002-00-0000-93.png,0004-00-0000-80.png
00000009,177,0,1447087665285,1447087665321,899,444,0,0,0,0,1,1,1,0001-00-0000-41.png,0005-00-0001-80.png
00000009,178,1,1447087668448,1447087669024,447,368,0,0,0,3,4,1,7,0002-00-0001-54.png,0004-00-0001-20.png
00000009,179,1,1447087669854,1447087669934,888,462,0,0,0,3,2,1,5,0002-00-0000-86.png,0003-00-0000-16.png
00000009,180,0,1447087670861,1447087670929,862,488,0,0,0,1,2,1,3,0005-00-0001-45.png,0003-00-0001-40.png
00000009,181,0,1447087674089,1447087674704,932,403,0,0,0,2,3,1,5,0003-00-0001-15.png,0002-00-0001-39.png
00000009,182,1,1447087677740,1447087678251,1046,310,0,0,0,4,3,1,7,0004-00-0000-54.png,0002-00-0000-41.png
00000009,183,1,1447087679132,1447087679415,939,553,0,0,0,2,1,1,3,0003-00-0001-90.png,0005-00-0001-30.png
00000009,184,1,1447087680598,1447087680654,884,447,0,0,0,1,0,1,1,0005-00-0001-03.png,0001-00-0000-30.png
00000009,185,0,1447087681765,1447087681797,896,491,0,0,0,3,4,1,7,0002-00-0000-46.png,0004-00-0001-03.png
00000009,186,1,1447087684722,1447087685206,1043,307,0,0,0,2,1,1,3,0003-00-0001-19.png,0005-00-0001-65.png
00000009,187,0,1447087686053,1447087686160,915,485,0,0,0,2,3,1,5,0003-00-0000-31.png,0002-00-0000-65.png
00000009,188,1,1447087689410,1447087689866,482,282,0,0,0,1,2,1,3,0005-00-0000-89.png,0003-00-0000-75.png
00000009,189,0,1447087690724,1447087691627,408,338,0,0,0,4,3,1,7,0004-00-0001-84.png,0002-00-0000-40.png
00000009,190,1,1447087694710,1447087694738,894,329,0,0,0,3,2,1,5,0002-00-0001-11.png,0003-00-0001-38.png
00000009,191,0,1447087695693,1447087695769,891,461,0,0,0,0,1,1,1,0001-00-0001-86.png,0005-00-0001-21.png
00000009,192,1,1447087698883,1447087699586,964,384,0,0,0,1,0,1,1,0005-00-0001-54.png,0001-00-0001-62.png
00000009,193,1,1447087701000,1447087701891,964,399,0,0,0,1,0,1,1,0005-00-0000-45.png,0001-00-0000-38.png
00000009,194,0,1447087702830,1447087702874,895,437,0,0,0,0,1,1,1,0001-00-0000-03.png,0005-00-0001-47.png
00000009,195,1,1447087705840,1447087706701,1063,255,0,0,0,4,3,1,7,0004-00-0001-91.png,0002-00-0001-18.png
00000009,196,0,1447087707556,1447087707624,892,456,0,0,0,1,2,1,3,0005-00-0000-95.png,0003-00-0001-32.png
00000009,197,0,1447087710758,1447087711219,967,298,0,0,0,3,4,1,7,0002-00-0000-94.png,0004-00-0001-03.png
00000009,198,1,1447087714602,1447087715177,967,305,0,0,0,3,2,1,5,0002-00-0001-06.png,0003-00-0001-38.png
00000009,199,1,1447087716084,1447087716160,909,493,0,0,0,2,1,1,3,0003-00-0000-70.png,0005-00-0001-29.png
00000009,200,0,1447087717244,1447087717304,910,485,0,0,0,2,3,1,5,0003-00-0001-70.png,0002-00-0001-07.png
00000009,201,1,1447087720426,1447087720979,964,332,0,0,0,2,1,1,3,0003-00-0001-20.png,0005-00-0000-30.png
00000009,202,1,1447087721857,1447087721885,888,436,0,0,0,1,0,1,1,0005-00-0000-06.png,0001-00-0000-30.png
00000009,203,1,1447087722993,1447087723126,891,502,0,0,0,4,3,1,7,0004-00-0000-51.png,0002-00-0000-79.png
00000009,204,0,1447087724293,1447087724402,904,541,0,0,0,2,3,1,5,0003-00-0000-23.png,0002-00-0001-39.png
00000009,205,0,1447087727402,1447087727914,965,327,0,0,0,3,4,1,7,0002-00-0001-96.png,0004-00-0001-81.png
00000009,206,0,1447087731021,1447087731525,916,319,0,0,0,0,1,1,1,0001-00-0001-97.png,0005-00-0000-09.png
00000009,207,1,1447087734598,1447087734622,943,351,0,0,0,3,2,1,5,0002-00-0001-92.png,0003-00-0000-85.png
00000009,208,0,1447087735642,1447087735690,867,460,0,0,0,1,2,1,3,0005-00-0001-56.png,0003-00-0000-41.png
00000009,209,0,1447087738790,1447087739318,1082,276,0,0,0,0,1,1,1,0001-00-0001-51.png,0005-00-0000-22.png
00000009,210,1,1447087742351,1447087742359,864,434,0,0,0,1,0,1,1,0005-00-0000-09.png,0001-00-0001-83.png
00000009,211,0,1447087743312,1447087743388,873,462,0,0,0,1,2,1,3,0005-00-0001-61.png,0003-00-0001-53.png
00000009,212,0,1447087746554,1447087747453,388,387,0,0,0,3,2,1,5,0002-00-0001-27.png,0003-00-0001-30.png
00000009,213,0,1447087750419,1447087750915,934,351,0,0,0,2,3,1,5,0003-00-0001-69.png,0002-00-0000-41.png
00000009,214,1,1447087754094,1447087754592,507,265,0,0,0,3,4,1,7,0002-00-0000-95.png,0004-00-0001-09.png
00000009,215,1,1447087755454,1447087755486,861,441,0,0,0,4,3,1,7,0004-00-0001-83.png,0002-00-0001-05.png
00000009,216,1,1447087756630,1447087756740,888,488,0,0,0,2,1,1,3,0003-00-0000-15.png,0005-00-0001-93.png
00000009,217,1,1447087757883,1447087757966,898,480,0,0,0,3,2,1,5,0002-00-0001-21.png,0003-00-0001-93.png
00000009,218,1,1447087759133,1447087759181,891,465,0,0,0,2,1,1,3,0003-00-0000-18.png,0005-00-0001-36.png
00000009,219,1,1447087760387,1447087760435,899,499,0,0,0,4,3,1,7,0004-00-0000-54.png,0002-00-0000-03.png
00000009,220,1,1447087761638,1447087761714,909,518,0,0,0,1,0,1,1,0005-00-0000-91.png,0001-00-0000-81.png
00000009,221,0,1447087763883,1447087764491,935,331,0,0,0,2,3,1,5,0003-00-0001-70.png,0002-00-0001-97.png
00000009,222,1,1447087767642,1447087768127,432,323,0,0,0,1,2,1,3,0005-00-0000-52.png,0003-00-0000-41.png
00000009,223,1,1447087768988,1447087769852,436,375,0,0,0,0,1,1,1,0001-00-0001-25.png,0005-00-0000-15.png
00000009,224,0,1447087770830,1447087770914,862,498,0,0,0,3,4,1,7,0002-00-0000-67.png,0004-00-0001-77.png
00000009,225,1,1447087773795,1447087774315,494,265,0,0,0,1,2,1,3,0005-00-0001-45.png,0003-00-0001-73.png
00000009,226,0,1447087775161,1447087776200,1056,303,0,0,0,3,4,1,7,0002-00-0001-20.png,0004-00-0000-98.png
00000009,227,1,1447087779306,1447087779826,1075,279,0,0,0,3,2,1,5,0002-00-0001-90.png,0003-00-0000-31.png
00000009,228,0,1447087780667,1447087780710,885,466,0,0,0,0,1,1,1,0001-00-0001-35.png,0005-00-0000-58.png
00000009,229,1,1447087783827,1447087783887,920,329,0,0,0,4,3,1,7,0004-00-0001-04.png,0002-00-0001-59.png
00000009,230,0,1447087784803,1447087784847,866,493,0,0,0,2,3,1,5,0003-00-0000-98.png,0002-00-0001-58.png
00000009,231,1,1447087787932,1447087788485,1068,279,0,0,0,2,1,1,3,0003-00-0001-26.png,0005-00-0000-21.png
00000009,232,1,1447087789362,1447087789450,909,491,0,0,0,1,0,1,1,0005-00-0000-85.png,0001-00-0001-49.png
00000009,233,1,1447087790495,1447087790532,859,462,0,0,0,2,1,1,3,0003-00-0000-23.png,0005-00-0001-99.png
00000009,234,1,1447087791604,1447087792889,944,334,0,0,0,1,0,1,1,0005-00-0001-66.png,0001-00-0000-59.png
00000009,235,0,1447087793776,1447087793812,923,442,0,0,0,0,1,1,1,0001-00-0001-29.png,0005-00-0001-25.png
00000009,236,1,1447087796916,1447087797383,484,270,0,0,0,3,4,1,7,0002-00-0000-81.png,0004-00-0001-73.png
00000009,237,0,1447087798893,1447087799650,941,339,0,0,0,2,3,1,5,0003-00-0000-28.png,0002-00-0000-16.png
00000009,238,1,1447087802794,1447087803560,1039,273,0,0,0,4,3,1,7,0004-00-0000-98.png,0002-00-0000-38.png
00000009,239,0,1447087804417,1447087804505,906,461,0,0,0,1,2,1,3,0005-00-0000-68.png,0003-00-0001-49.png
00000009,240,1,1447087807598,1447087807650,948,356,0,0,0,3,2,1,5,0002-00-0000-15.png,0003-00-0000-86.png
00000009,241,1,1447087808621,1447087808711,909,490,0,0,0,3,2,1,5,0002-00-0001-19.png,0003-00-0000-58.png
00000009,242,1,1447087809817,1447087809921,908,490,0,0,0,1,0,1,1,0005-00-0000-88.png,0001-00-0000-20.png
00000009,243,0,1447087811006,1447087811097,919,496,0,0,0,0,1,1,1,0001-00-0000-86.png,0005-00-0001-29.png
00000009,244,0,1447087814237,1447087814273,918,329,0,0,0,3,4,1,7,0002-00-0001-54.png,0004-00-0000-64.png
00000009,245,0,1447087817124,1447087817669,964,348,0,0,0,2,3,1,5,0003-00-0001-30.png,0002-00-0001-64.png
00000009,246,1,1447087820764,1447087820792,887,360,0,0,0,2,1,1,3,0003-00-0000-82.png,0005-00-0000-07.png
00000009,247,0,1447087821748,1447087821784,888,448,0,0,0,1,2,1,3,0005-00-0000-16.png,0003-00-0001-67.png
00000009,248,1,1447087824649,1447087825174,1067,306,0,0,0,4,3,1,7,0004-00-0001-24.png,0002-00-0000-41.png
00000009,249,1,1447087826637,1447087827243,430,328,0,0,0,3,4,1,7,0002-00-0000-34.png,0004-00-0000-39.png
00000009,250,1,1447087828096,1447087828144,888,488,0,0,0,3,2,1,5,0002-00-0000-18.png,0003-00-0001-50.png
00000009,251,1,1447087829242,1447087829463,885,550,0,0,0,2,1,1,3,0003-00-0001-36.png,0005-00-0000-59.png
00000009,252,1,1447087830653,1447087830674,863,469,0,0,0,1,0,1,1,0005-00-0000-38.png,0001-00-0001-93.png
00000009,253,0,1447087832720,1447087833361,419,334,0,0,0,4,3,1,7,0004-00-0001-17.png,0002-00-0000-27.png
00000009,254,1,1447087836553,1447087837109,504,270,0,0,0,1,2,1,3,0005-00-0000-73.png,0003-00-0001-58.png
00000009,255,0,1447087837996,1447087838851,1051,312,0,0,0,2,3,1,5,0003-00-0000-61.png,0002-00-0001-70.png
00000009,256,1,1447087842211,1447087842690,391,406,0,0,0,0,1,1,1,0001-00-0001-72.png,0005-00-0000-66.png
00000009,257,1,1447087843527,1447087843588,861,469,0,0,0,1,0,1,1,0005-00-0000-57.png,0001-00-0001-75.png
00000009,258,1,1447087844554,1447087844611,862,488,0,0,0,3,2,1,5,0002-00-0000-46.png,0003-00-0001-55.png
00000009,259,1,1447087845736,1447087845752,865,489,0,0,0,2,1,1,3,0003-00-0000-67.png,0005-00-0001-01.png
00000009,260,0,1447087847556,1447087848271,922,344,0,0,0,0,1,1,1,0001-00-0001-53.png,0005-00-0001-65.png
00000009,261,0,1447087851363,1447087851391,914,338,0,0,0,2,3,1,5,0003-00-0000-22.png,0002-00-0000-92.png
00000009,262,1,1447087854230,1447087854871,921,403,0,0,0,4,3,1,7,0004-00-0000-97.png,0002-00-0000-79.png
00000009,263,0,1447087855721,1447087855761,913,436,0,0,0,3,4,1,7,0002-00-0001-71.png,0004-00-0001-02.png
00000009,264,1,1447087858633,1447087859170,399,356,0,0,0,1,2,1,3,0005-00-0000-57.png,0003-00-0000-70.png
00000009,265,0,1447087860033,1447087860085,873,410,0,0,0,0,1,1,1,0001-00-0000-80.png,0005-00-0000-03.png
00000009,266,0,1447087862933,1447087863572,939,398,0,0,0,2,3,1,5,0003-00-0001-54.png,0002-00-0000-88.png
00000009,267,1,1447087866475,1447087867025,511,263,0,0,0,1,2,1,3,0005-00-0001-94.png,0003-00-0000-74.png
00000009,268,0,1447087867905,1447087867969,888,462,0,0,0,3,4,1,7,0002-00-0000-86.png,0004-00-0000-50.png
00000009,269,1,1447087871097,1447087871608,945,339,0,0,0,2,1,1,3,0003-00-0000-88.png,0005-00-0000-01.png
00000009,270,0,1447087873030,1447087873818,498,246,0,0,0,1,0,1,1,0005-00-0001-51.png,0001-00-0000-95.png
00000009,271,1,1447087877218,1447087877246,863,350,0,0,0,3,2,1,5,0002-00-0000-71.png,0003-00-0001-75.png
00000009,272,1,1447087878161,1447087878225,873,447,0,0,0,4,3,1,7,0004-00-0000-77.png,0002-00-0000-52.png
00000009,273,0,1447087879342,1447087879433,862,488,0,0,0,2,3,1,5,0003-00-0001-04.png,0002-00-0001-70.png
00000009,274,1,1447087882544,1447087882690,881,410,0,0,0,2,1,1,3,0003-00-0000-64.png,0005-00-0001-75.png
00000009,275,1,1447087883640,1447087883664,893,443,0,0,0,3,2,1,5,0002-00-0001-46.png,0003-00-0001-45.png
00000009,276,1,1447087884670,1447087885833,1035,279,0,0,0,1,0,1,1,0005-00-0001-01.png,0001-00-0001-06.png
00000009,277,0,1447087886797,1447087886853,896,436,0,0,0,1,2,1,3,0005-00-0000-43.png,0003-00-0001-12.png
00000009,278,0,1447087889956,1447087889980,877,336,0,0,0,0,1,1,1,0001-00-0000-62.png,0005-00-0001-80.png
00000009,279,1,1447087893079,1447087893570,990,369,0,0,0,4,3,1,7,0004-00-0000-96.png,0002-00-0001-62.png
00000009,280,1,1447087894423,1447087895208,427,306,0,0,0,3,4,1,7,0002-00-0000-38.png,0004-00-0000-24.png
00000009,281,0,1447087896166,1447087896230,862,462,0,0,0,2,3,1,5,0003-00-0001-52.png,0002-00-0001-08.png
00000009,282,1,1447087899297,1447087899908,506,272,0,0,0,0,1,1,1,0001-00-0000-75.png,0005-00-0001-38.png
00000009,283,1,1447087901296,1447087902025,493,248,0,0,0,3,4,1,7,0002-00-0000-48.png,0004-00-0000-94.png
00000009,284,0,1447087902916,1447087902972,896,466,0,0,0,1,2,1,3,0005-00-0001-29.png,0003-00-0001-77.png
00000009,285,0,1447087905847,1447087906424,388,351,0,0,0,2,1,1,3,0003-00-0000-98.png,0005-00-0001-50.png
00000009,286,1,1447087909532,1447087910042,1071,274,0,0,0,1,0,1,1,0005-00-0001-30.png,0001-00-0000-09.png
00000009,287,0,1447087911381,1447087912081,445,392,0,0,0,3,2,1,5,0002-00-0001-15.png,0003-00-0001-29.png
00000009,288,0,1447087915200,1447087915829,479,306,0,0,0,4,3,1,7,0004-00-0000-11.png,0002-00-0001-88.png
00000009,289,1,1447087918935,1447087919499,502,273,0,0,0,3,4,1,7,0002-00-0001-09.png,0004-00-0001-26.png
00000009,290,1,1447087920363,1447087921254,939,410,0,0,0,1,0,1,1,0005-00-0001-06.png,0001-00-0001-26.png
00000009,291,1,1447087922213,1447087922249,880,410,0,0,0,3,2,1,5,0002-00-0001-76.png,0003-00-0000-88.png
00000009,292,0,1447087923327,1447087923383,865,488,0,0,0,1,2,1,3,0005-00-0001-11.png,0003-00-0001-37.png
00000009,293,1,1447087926364,1447087926901,1037,288,0,0,0,4,3,1,7,0004-00-0000-71.png,0002-00-0001-57.png
00000009,294,0,1447087927766,1447087927822,904,436,0,0,0,0,1,1,1,0001-00-0001-51.png,0005-00-0000-06.png
00000009,295,0,1447087930889,1447087931521,959,299,0,0,0,2,3,1,5,0003-00-0001-60.png,0002-00-0001-86.png
00000009,296,1,1447087934723,1447087934731,891,333,0,0,0,2,1,1,3,0003-00-0001-87.png,0005-00-0001-59.png
00000009,297,0,1447087935696,1447087936446,419,392,0,0,0,3,2,1,5,0002-00-0001-14.png,0003-00-0001-69.png
00000009,298,0,1447087939383,1447087939419,914,378,0,0,0,2,3,1,5,0003-00-0001-44.png,0002-00-0000-23.png
00000009,299,1,1447087942258,1447087942860,486,284,0,0,0,1,2,1,3,0005-00-0001-50.png,0003-00-0000-91.png
00000009,300,1,1447087944365,1447087945030,1039,295,0,0,0,2,1,1,3,0003-00-0001-08.png,0005-00-0001-93.png
00000009,301,1,1447087945955,1447087945991,893,442,0,0,0,4,3,1,7,0004-00-0001-66.png,0002-00-0000-15.png
00000009,302,1,1447087947058,1447087947114,888,488,0,0,0,1,0,1,1,0005-00-0001-61.png,0001-00-0001-04.png
00000009,303,0,1447087948218,1447087948285,901,469,0,0,0,0,1,1,1,0001-00-0001-67.png,0005-00-0001-38.png
00000009,304,0,1447087951391,1447087951403,863,331,0,0,0,3,4,1,7,0002-00-0000-11.png,0004-00-0001-60.png
00000009,305,0,1447087954521,1447087954549,891,330,0,0,0,1,2,1,3,0005-00-0001-65.png,0003-00-0000-90.png
00000009,306,0,1447087957630,1447087958218,939,373,0,0,0,0,1,1,1,0001-00-0000-84.png,0005-00-0000-97.png
00000009,307,1,1447087961129,1447087961725,939,395,0,0,0,2,1,1,3,0003-00-0001-16.png,0005-00-0000-25.png
00000009,308,0,1447087962658,1447087962694,888,447,0,0,0,3,4,1,7,0002-00-0000-00.png,0004-00-0000-37.png
00000009,309,1,1447087965799,1447087966504,964,323,0,0,0,4,3,1,7,0004-00-0000-38.png,0002-00-0001-85.png
00000009,310,1,1447087967379,1447087967435,889,495,0,0,0,3,2,1,5,0002-00-0000-46.png,0003-00-0001-65.png
00000009,311,0,1447087968442,1447087968470,862,449,0,0,0,2,3,1,5,0003-00-0000-99.png,0002-00-0000-95.png
00000009,312,1,1447087971364,1447087971428,928,410,0,0,0,1,0,1,1,0005-00-0001-21.png,0001-00-0001-19.png
00000009,313,0,1447087972399,1447087972497,897,485,0,0,0,1,2,1,3,0005-00-0001-86.png,0003-00-0001-96.png
00000009,314,1,1447087975647,1447087976212,1101,297,0,0,0,2,1,1,3,0003-00-0001-83.png,0005-00-0000-52.png
00000009,315,1,1447087977117,1447087977205,933,466,0,0,0,3,2,1,5,0002-00-0000-55.png,0003-00-0001-34.png
00000009,316,1,1447087978409,1447087978445,898,442,0,0,0,4,3,1,7,0004-00-0001-32.png,0002-00-0000-17.png
00000009,317,0,1447087979512,1447087979577,901,465,0,0,0,3,4,1,7,0002-00-0001-21.png,0004-00-0000-11.png
00000009,318,1,1447087982640,1447087983243,1092,279,0,0,0,1,0,1,1,0005-00-0000-58.png,0001-00-0000-83.png
00000009,319,0,1447087984132,1447087984180,891,410,0,0,0,0,1,1,1,0001-00-0001-30.png,0005-00-0000-16.png
00000009,320,0,1447087987251,1447087987753,936,335,0,0,0,2,3,1,5,0003-00-0001-43.png,0002-00-0001-01.png
00000009,321,1,1447087990630,1447087991271,939,410,0,0,0,2,1,1,3,0003-00-0001-02.png,0005-00-0001-22.png
00000009,322,1,1447087992150,1447087992191,938,451,0,0,0,3,2,1,5,0002-00-0001-61.png,0003-00-0000-05.png
00000009,323,0,1447087993126,1447087993162,890,443,0,0,0,2,3,1,5,0003-00-0001-46.png,0002-00-0000-35.png
00000009,324,1,1447087996035,1447087996691,392,339,0,0,0,3,4,1,7,0002-00-0001-04.png,0004-00-0001-71.png
00000009,325,0,1447087997557,1447087997605,863,440,0,0,0,0,1,1,1,0001-00-0000-36.png,0005-00-0001-88.png
00000009,326,1,1447088000569,1447088001098,508,258,0,0,0,1,2,1,3,0005-00-0001-81.png,0003-00-0000-52.png
00000009,327,1,1447088001927,1447088001967,898,474,0,0,0,1,0,1,1,0005-00-0001-55.png,0001-00-0001-86.png
00000009,328,1,1447088003104,1447088003128,889,488,0,0,0,4,3,1,7,0004-00-0000-94.png,0002-00-0001-29.png
00000009,329,0,1447088004206,1447088004240,890,465,0,0,0,1,2,1,3,0005-00-0000-83.png,0003-00-0001-19.png
00000009,330,0,1447088007384,1447088007416,913,332,0,0,0,3,4,1,7,0002-00-0001-58.png,0004-00-0001-68.png
00000009,331,1,1447088010417,1447088010945,429,342,0,0,0,2,3,1,5,0003-00-0001-15.png,0002-00-0000-00.png
00000009,332,0,1447088011826,1447088011934,875,462,0,0,0,0,1,1,1,0001-00-0001-69.png,0005-00-0001-96.png
00000009,333,1,1447088014919,1447088014947,861,405,0,0,0,1,0,1,1,0005-00-0000-39.png,0001-00-0000-27.png
00000009,334,1,1447088015892,1447088015940,863,461,0,0,0,3,2,1,5,0002-00-0001-11.png,0003-00-0001-89.png
00000009,335,1,1447088016948,1447088017012,888,472,0,0,0,4,3,1,7,0004-00-0001-50.png,0002-00-0001-07.png
00000009,336,1,1447088018107,1447088018206,909,516,0,0,0,2,1,1,3,0003-00-0001-16.png,0005-00-0000-02.png
00000009,337,0,1447088019400,1447088019497,908,513,0,0,0,2,3,1,5,0003-00-0000-63.png,0002-00-0001-87.png
00000009,338,0,1447088022471,1447088023062,1028,306,0,0,0,3,4,1,7,0002-00-0000-24.png,0004-00-0000-53.png
00000009,339,0,1447088025978,1447088026465,395,354,0,0,0,1,0,1,1,0005-00-0000-82.png,0001-00-0000-98.png
00000009,340,0,1447088029613,1447088030201,491,252,0,0,0,4,3,1,7,0004-00-0000-02.png,0002-00-0000-51.png
00000009,341,1,1447088033302,1447088033824,494,286,0,0,0,1,2,1,3,0005-00-0001-71.png,0003-00-0000-25.png
00000009,342,1,1447088034733,1447088035574,1000,278,0,0,0,2,1,1,3,0003-00-0000-52.png,0005-00-0001-87.png
00000009,343,0,1447088036532,1447088036595,889,491,0,0,0,0,1,1,1,0001-00-0000-88.png,0005-00-0000-16.png
00000009,344,1,1447088039811,1447088040419,953,384,0,0,0,3,2,1,5,0002-00-0001-48.png,0003-00-0001-43.png
00000009,345,0,1447088041310,1447088041354,918,466,0,0,0,2,3,1,5,0003-00-0000-90.png,0002-00-0000-83.png
00000009,346,1,1447088044548,1447088045023,490,272,0,0,0,1,2,1,3,0005-00-0001-51.png,0003-00-0001-69.png
00000009,347,1,1447088045870,1447088045894,872,467,0,0,0,1,0,1,1,0005-00-0001-58.png,0001-00-0001-16.png
00000009,348,1,1447088046796,1447088046945,880,493,0,0,0,2,1,1,3,0003-00-0000-22.png,0005-00-0000-76.png
00000009,349,1,1447088047978,1447088048045,893,488,0,0,0,3,2,1,5,0002-00-0000-41.png,0003-00-0000-43.png
00000009,350,1,1447088049899,1447088050627,958,357,0,0,0,4,3,1,7,0004-00-0001-91.png,0002-00-0000-86.png
00000009,351,0,1447088051534,1447088051593,886,491,0,0,0,0,1,1,1,0001-00-0001-76.png,0005-00-0001-15.png
00000009,352,1,1447088054875,1447088055319,488,275,0,0,0,3,4,1,7,0002-00-0001-93.png,0004-00-0001-83.png
00000009,353,1,1447088056712,1447088057430,1067,306,0,0,0,1,0,1,1,0005-00-0001-95.png,0001-00-0001-14.png
00000009,354,0,1447088058323,1447088058386,927,471,0,0,0,1,2,1,3,0005-00-0001-94.png,0003-00-0001-90.png
00000009,355,0,1447088061303,1447088061815,1062,281,0,0,0,2,3,1,5,0003-00-0000-03.png,0002-00-0000-32.png
00000009,356,0,1447088064988,1447088065477,511,275,0,0,0,3,2,1,5,0002-00-0001-69.png,0003-00-0001-47.png
00000009,357,1,1447088068420,1447088068984,419,339,0,0,0,3,4,1,7,0002-00-0000-89.png,0004-00-0000-98.png
00000009,358,1,1447088069841,1447088069861,886,415,0,0,0,4,3,1,7,0004-00-0001-73.png,0002-00-0000-92.png
00000009,359,0,1447088070820,1447088070917,862,477,0,0,0,0,1,1,1,0001-00-0000-19.png,0005-00-0001-28.png
00000009,360,1,1447088074432,1447088074930,1077,306,0,0,0,2,1,1,3,0003-00-0001-46.png,0005-00-0001-66.png
00000009,361,0,1447088075841,1447088075869,862,476,0,0,0,3,4,1,7,0002-00-0001-34.png,0004-00-0000-51.png
00000009,362,1,1447088078972,1447088078988,907,329,0,0,0,3,2,1,5,0002-00-0000-09.png,0003-00-0001-26.png
00000009,363,1,1447088079927,1447088079963,871,436,0,0,0,4,3,1,7,0004-00-0001-31.png,0002-00-0000-08.png
00000009,364,0,1447088080902,1447088081864,1035,307,0,0,0,2,3,1,5,0003-00-0001-04.png,0002-00-0000-41.png
00000009,365,1,1447088084895,1447088085411,971,322,0,0,0,1,0,1,1,0005-00-0001-38.png,0001-00-0001-49.png
00000009,366,0,1447088086244,1447088086320,913,514,0,0,0,1,2,1,3,0005-00-0001-37.png,0003-00-0000-49.png
00000009,367,0,1447088089153,1447088089197,886,434,0,0,0,0,1,1,1,0001-00-0000-57.png,0005-00-0000-39.png
00000009,368,1,1447088092149,1447088092733,935,326,0,0,0,2,1,1,3,0003-00-0001-05.png,0005-00-0001-95.png
00000009,369,0,1447088093625,1447088094448,428,298,0,0,0,1,0,1,1,0005-00-0001-47.png,0001-00-0001-75.png
00000009,370,0,1447088097397,1447088097405,893,359,0,0,0,2,3,1,5,0003-00-0001-13.png,0002-00-0000-50.png
00000009,371,0,1447088100426,1447088100945,1093,303,0,0,0,1,2,1,3,0005-00-0000-66.png,0003-00-0001-96.png
00000009,372,1,1447088104092,1447088104141,950,333,0,0,0,3,2,1,5,0002-00-0000-82.png,0003-00-0001-09.png
00000009,373,1,1447088105089,1447088105117,882,436,0,0,0,2,1,1,3,0003-00-0000-10.png,0005-00-0000-63.png
00000009,374,0,1447088106228,1447088106257,862,440,0,0,0,3,4,1,7,0002-00-0001-60.png,0004-00-0001-32.png
00000009,375,1,1447088109321,1447088109855,1069,281,0,0,0,4,3,1,7,0004-00-0001-20.png,0002-00-0000-12.png
00000009,376,0,1447088110731,1447088110834,906,495,0,0,0,0,1,1,1,0001-00-0000-12.png,0005-00-0000-51.png
00000009,377,1,1447088113883,1447088114404,1040,283,0,0,0,2,1,1,3,0003-00-0000-27.png,0005-00-0001-26.png
00000009,378,1,1447088115283,1447088115369,908,464,0,0,0,4,3,1,7,0004-00-0000-62.png,0002-00-0001-24.png
00000009,379,0,1447088116266,1447088116353,883,465,0,0,0,3,4,1,7,0002-00-0001-19.png,0004-00-0000-33.png
00000009,380,1,1447088119429,1447088119929,1042,286,0,0,0,1,0,1,1,0005-00-0000-36.png,0001-00-0000-05.png
00000009,381,0,1447088120797,1447088120853,918,452,0,0,0,2,3,1,5,0003-00-0001-28.png,0002-00-0001-24.png
00000009,382,1,1447088123680,1447088124277,515,253,0,0,0,1,2,1,3,0005-00-0001-59.png,0003-00-0000-86.png
00000009,383,1,1447088125107,1447088125206,926,466,0,0,0,3,2,1,5,0002-00-0000-90.png,0003-00-0001-83.png
00000009,384,0,1447088126154,1447088126230,862,480,0,0,0,0,1,1,1,0001-00-0000-94.png,0005-00-0000-23.png
00000009,385,1,1447088129364,1447088129969,1058,283,0,0,0,4,3,1,7,0004-00-0000-18.png,0002-00-0000-77.png
00000009,386,0,1447088131423,1447088132005,910,343,0,0,0,0,1,1,1,0001-00-0000-95.png,0005-00-0000-00.png
00000009,387,1,1447088134853,1447088135352,964,326,0,0,0,2,1,1,3,0003-00-0001-22.png,0005-00-0001-62.png
00000009,388,0,1447088136790,1447088137464,1048,297,0,0,0,3,4,1,7,0002-00-0001-62.png,0004-00-0001-76.png
00000009,389,0,1447088140424,1447088140945,453,400,0,0,0,3,2,1,5,0002-00-0000-30.png,0003-00-0001-80.png
00000009,390,0,1447088143873,1447088144397,945,404,0,0,0,2,3,1,5,0003-00-0001-42.png,0002-00-0001-02.png
00000009,391,1,1447088147392,1447088147849,494,252,0,0,0,1,2,1,3,0005-00-0000-94.png,0003-00-0000-25.png
00000009,392,1,1447088148803,1447088148868,866,485,0,0,0,1,0,1,1,0005-00-0000-10.png,0001-00-0000-26.png
00000009,393,0,1447088149793,1447088149885,858,513,0,0,0,3,4,1,7,0002-00-0000-43.png,0004-00-0001-11.png
00000009,394,1,1447088153024,1447088153072,907,329,0,0,0,4,3,1,7,0004-00-0000-45.png,0002-00-0001-10.png
00000009,395,1,1447088154059,1447088154111,913,474,0,0,0,2,1,1,3,0003-00-0000-07.png,0005-00-0001-63.png
00000009,396,0,1447088155053,1447088155946,510,245,0,0,0,1,0,1,1,0005-00-0000-60.png,0001-00-0001-28.png
00000009,397,0,1447088158830,1447088158868,857,376,0,0,0,0,1,1,1,0001-00-0000-41.png,0005-00-0001-85.png
00000009,398,0,1447088161980,1447088162674,512,292,0,0,0,3,2,1,5,0002-00-0001-06.png,0003-00-0000-21.png
00000009,399,1,1447088166103,1447088166647,506,287,0,0,0,1,2,1,3,0005-00-0000-43.png,0003-00-0000-02.png
00000009,400,0,1447088167563,1447088167587,863,411,0,0,0,2,3,1,5,0003-00-0000-80.png,0002-00-0001-00.png
00000009,401,0,1447088170653,1447088171211,1077,279,0,0,0,2,3,1,5,0003-00-0001-06.png,0002-00-0001-30.png
00000009,402,0,1447088174354,1447088174949,419,366,0,0,0,3,2,1,5,0002-00-0000-40.png,0003-00-0000-77.png
00000009,403,0,1447088177961,1447088177989,1019,354,0,0,0,0,1,1,1,0001-00-0001-80.png,0005-00-0001-67.png
00000009,404,1,1447088181089,1447088181574,504,279,0,0,0,1,2,1,3,0005-00-0001-20.png,0003-00-0001-41.png
00000009,405,1,1447088182429,1447088182469,864,447,0,0,0,1,0,1,1,0005-00-0000-23.png,0001-00-0000-33.png
00000009,406,1,1447088183525,1447088183612,882,489,0,0,0,4,3,1,7,0004-00-0000-29.png,0002-00-0001-69.png
00000009,407,1,1447088184618,1447088184708,883,514,0,0,0,2,1,1,3,0003-00-0000-39.png,0005-00-0001-06.png
00000009,408,0,1447088185869,1447088185937,884,490,0,0,0,3,4,1,7,0002-00-0001-83.png,0004-00-0001-18.png
00000009,409,1,1447088188831,1447088189363,1040,274,0,0,0,1,0,1,1,0005-00-0000-86.png,0001-00-0000-70.png
00000009,410,0,1447088190201,1447088190229,866,439,0,0,0,3,4,1,7,0002-00-0001-74.png,0004-00-0001-98.png
00000009,411,0,1447088193080,1447088193653,939,399,0,0,0,2,3,1,5,0003-00-0001-73.png,0002-00-0000-01.png
00000009,412,0,1447088196762,1447088196790,890,342,0,0,0,0,1,1,1,0001-00-0000-99.png,0005-00-0001-61.png
00000009,413,1,1447088199639,1447088200196,513,266,0,0,0,1,2,1,3,0005-00-0000-96.png,0003-00-0000-96.png
00000009,414,1,1447088201073,1447088201129,862,452,0,0,0,3,2,1,5,0002-00-0001-94.png,0003-00-0000-03.png
00000009,415,1,1447088202104,1447088202191,905,488,0,0,0,4,3,1,7,0004-00-0000-25.png,0002-00-0000-00.png
00000009,416,1,1447088203386,1447088203406,892,467,0,0,0,2,1,1,3,0003-00-0001-46.png,0005-00-0000-23.png
00000009,417,1,1447088205327,1447088205906,1059,314,0,0,0,1,0,1,1,0005-00-0001-68.png,0001-00-0000-88.png
00000009,418,0,1447088206916,1447088206928,888,444,0,0,0,2,3,1,5,0003-00-0000-10.png,0002-00-0000-04.png
00000009,419,1,1447088209947,1447088210939,446,390,0,0,0,3,4,1,7,0002-00-0000-70.png,0004-00-0001-40.png
00000009,420,1,1447088211803,1447088211823,858,442,0,0,0,2,1,1,3,0003-00-0001-67.png,0005-00-0001-80.png
00000009,421,0,1447088212810,1447088212870,888,488,0,0,0,1,2,1,3,0005-00-0000-85.png,0003-00-0000-99.png
00000009,422,0,1447088215969,1447088216091,913,296,0,0,0,0,1,1,1,0001-00-0001-74.png,0005-00-0001-09.png
00000009,423,1,1447088219070,1447088219572,1067,289,0,0,0,4,3,1,7,0004-00-0000-21.png,0002-00-0000-60.png
00000009,424,1,1447088220471,1447088220536,891,498,0,0,0,3,2,1,5,0002-00-0001-30.png,0003-00-0000-49.png
00000009,425,0,1447088221472,1447088221516,882,493,0,0,0,2,3,1,5,0003-00-0000-29.png,0002-00-0000-41.png
00000009,426,0,1447088224655,1447088225155,962,328,0,0,0,0,1,1,1,0001-00-0001-89.png,0005-00-0001-21.png
00000009,427,0,1447088228329,1447088228449,874,287,0,0,0,1,2,1,3,0005-00-0000-71.png,0003-00-0000-24.png
00000009,428,1,1447088231553,1447088231597,893,350,0,0,0,3,2,1,5,0002-00-0001-86.png,0003-00-0000-74.png
00000009,429,1,1447088232567,1447088232595,866,470,0,0,0,2,1,1,3,0003-00-0001-71.png,0005-00-0000-03.png
00000009,430,0,1447088233538,1447088234686,1032,253,0,0,0,3,4,1,7,0002-00-0000-93.png,0004-00-0000-61.png
00000009,431,1,1447088237585,1447088237621,915,377,0,0,0,1,0,1,1,0005-00-0001-08.png,0001-00-0000-21.png
00000009,432,1,1447088238608,1447088238676,886,465,0,0,0,4,3,1,7,0004-00-0000-58.png,0002-00-0001-88.png
00000009,433,1,1447088239692,1447088239712,865,469,0,0,0,1,0,1,1,0005-00-0001-65.png,0001-00-0000-75.png
00000009,434,0,1447088240945,1447088240999,862,488,0,0,0,3,4,1,7,0002-00-0001-60.png,0004-00-0001-64.png
00000009,435,1,1447088243832,1447088244707,486,274,0,0,0,1,2,1,3,0005-00-0001-39.png,0003-00-0000-09.png
00000009,436,1,1447088245642,1447088245670,862,435,0,0,0,3,2,1,5,0002-00-0001-61.png,0003-00-0000-54.png
00000009,437,0,1447088246658,1447088246714,864,512,0,0,0,2,3,1,5,0003-00-0000-23.png,0002-00-0001-53.png
00000009,438,1,1447088249607,1447088250192,523,246,0,0,0,0,1,1,1,0001-00-0000-00.png,0005-00-0000-10.png
00000009,439,1,1447088251088,1447088252238,909,321,0,0,0,4,3,1,7,0004-00-0000-07.png,0002-00-0001-84.png
00000009,440,1,1447088253216,1447088253287,946,491,0,0,0,2,1,1,3,0003-00-0000-17.png,0005-00-0000-53.png
00000009,441,0,1447088254262,1447088254290,879,514,0,0,0,0,1,1,1,0001-00-0001-32.png,0005-00-0001-96.png
00000009,442,1,1447088257408,1447088258068,422,351,0,0,0,3,4,1,7,0002-00-0001-00.png,0004-00-0001-77.png
00000009,443,1,1447088258908,1447088258948,860,491,0,0,0,2,1,1,3,0003-00-0000-80.png,0005-00-0001-13.png
00000009,444,1,1447088259854,1447088259902,863,484,0,0,0,1,0,1,1,0005-00-0000-77.png,0001-00-0000-41.png
00000009,445,0,1447088260937,1447088261016,871,514,0,0,0,1,2,1,3,0005-00-0000-77.png,0003-00-0000-86.png
00000009,446,0,1447088264168,1447088264694,943,328,0,0,0,2,3,1,5,0003-00-0001-92.png,0002-00-0000-05.png
00000009,447,1,1447088267724,1447088268274,1064,305,0,0,0,4,3,1,7,0004-00-0000-68.png,0002-00-0000-72.png
00000009,448,1,1447088269186,1447088269222,880,472,0,0,0,3,2,1,5,0002-00-0001-95.png,0003-00-0001-03.png
00000009,449,0,1447088270218,1447088270278,868,493,0,0,0,1,2,1,3,0005-00-0001-46.png,0003-00-0000-29.png
00000009,450,0,1447088274793,1447088274829,879,338,0,0,0,3,4,1,7,0002-00-0001-01.png,0004-00-0001-22.png
00000009,451,0,1447088277730,1447088278678,1071,304,0,0,0,0,1,1,1,0001-00-0001-74.png,0005-00-0000-32.png
00000009,452,1,1447088281786,1447088282315,1087,318,0,0,0,1,0,1,1,0005-00-0000-52.png,0001-00-0000-30.png
00000009,453,1,1447088283186,1447088283376,922,515,0,0,0,4,3,1,7,0004-00-0000-36.png,0002-00-0001-68.png
00000009,454,1,1447088284419,1447088284466,888,499,0,0,0,2,1,1,3,0003-00-0001-20.png,0005-00-0000-70.png
00000009,455,0,1447088285495,1447088285567,899,520,0,0,0,2,3,1,5,0003-00-0001-82.png,0002-00-0001-55.png
00000009,456,0,1447088288485,1447088288978,391,347,0,0,0,3,2,1,5,0002-00-0000-88.png,0003-00-0001-59.png
00000009,457,1,1447088294408,1447088294911,942,327,0,0,0,4,3,1,7,0004-00-0000-72.png,0002-00-0000-44.png
00000009,458,0,1447088295858,1447088296755,1032,279,0,0,0,0,1,1,1,0001-00-0001-87.png,0005-00-0000-34.png
00000009,459,1,1447088299685,1447088300211,1066,307,0,0,0,2,1,1,3,0003-00-0000-24.png,0005-00-0001-74.png
00000009,460,0,1447088301063,1447088301095,870,454,0,0,0,2,3,1,5,0003-00-0001-16.png,0002-00-0000-12.png
00000009,461,1,1447088304135,1447088304151,887,355,0,0,0,1,0,1,1,0005-00-0001-24.png,0001-00-0001-59.png
00000009,462,0,1447088305148,1447088305156,883,460,0,0,0,1,2,1,3,0005-00-0000-33.png,0003-00-0000-68.png
00000009,463,1,1447088308357,1447088308912,1056,287,0,0,0,3,2,1,5,0002-00-0001-09.png,0003-00-0001-35.png
00000009,464,0,1447088309831,1447088309934,888,488,0,0,0,3,4,1,7,0002-00-0001-34.png,0004-00-0000-88.png
00000009,465,1,1447088313030,1447088313481,1041,309,0,0,0,2,1,1,3,0003-00-0000-01.png,0005-00-0001-31.png
00000009,466,0,1447088314948,1447088315607,1019,313,0,0,0,1,2,1,3,0005-00-0001-42.png,0003-00-0001-89.png
00000009,467,0,1447088318735,1447088319273,1051,297,0,0,0,2,3,1,5,0003-00-0001-86.png,0002-00-0001-28.png
00000009,468,1,1447088322321,1447088322840,501,262,0,0,0,0,1,1,1,0001-00-0001-99.png,0005-00-0001-31.png
00000009,469,1,1447088324290,1447088324964,1036,335,0,0,0,3,2,1,5,0002-00-0000-51.png,0003-00-0000-92.png
00000009,470,1,1447088326588,1447088327197,503,266,0,0,0,3,4,1,7,0002-00-0001-95.png,0004-00-0001-00.png
00000009,471,1,1447088328136,1447088328208,906,458,0,0,0,4,3,1,7,0004-00-0001-29.png,0002-00-0000-54.png
00000009,472,1,1447088329269,1447088329369,934,455,0,0,0,1,0,1,1,0005-00-0001-69.png,0001-00-0000-23.png
00000009,473,0,1447088330540,1447088330613,908,491,0,0,0,0,1,1,1,0001-00-0001-24.png,0005-00-0000-36.png
00000009,474,1,1447088333876,1447088334434,521,261,0,0,0,1,2,1,3,0005-00-0000-64.png,0003-00-0001-18.png
00000009,475,0,1447088335266,1447088336251,963,336,0,0,0,3,4,1,7,0002-00-0001-99.png,0004-00-0000-95.png
00000009,476,1,1447088339411,1447088339954,1051,292,0,0,0,2,1,1,3,0003-00-0000-46.png,0005-00-0001-31.png
00000009,477,1,1447088341461,1447088342190,963,339,0,0,0,4,3,1,7,0004-00-0001-42.png,0002-00-0001-31.png
00000009,478,1,1447088343068,1447088343127,959,422,0,0,0,3,2,1,5,0002-00-0001-48.png,0003-00-0001-52.png
00000009,479,1,1447088344105,1447088345137,940,346,0,0,0,1,0,1,1,0005-00-0001-24.png,0001-00-0001-69.png
00000009,480,0,1447088346194,1447088347240,937,310,0,0,0,2,3,1,5,0003-00-0001-37.png,0002-00-0001-59.png
00000009,481,1,1447088350452,1447088351103,964,397,0,0,0,4,3,1,7,0004-00-0001-62.png,0002-00-0000-43.png
00000009,482,1,1447088352502,1447088353225,478,403,0,0,0,1,2,1,3,0005-00-0001-20.png,0003-00-0000-74.png
00000009,483,1,1447088354170,1447088355322,440,342,0,0,0,0,1,1,1,0001-00-0001-21.png,0005-00-0000-63.png
00000009,484,0,1447088356207,1447088356227,884,500,0,0,0,3,4,1,7,0002-00-0000-43.png,0004-00-0000-88.png
00000009,485,1,1447088359296,1447088359816,1077,279,0,0,0,2,1,1,3,0003-00-0000-36.png,0005-00-0001-82.png
00000009,486,1,1447088360688,1447088360724,889,444,0,0,0,1,0,1,1,0005-00-0000-14.png,0001-00-0001-81.png
00000009,487,0,1447088361759,1447088361819,865,488,0,0,0,2,3,1,5,0003-00-0001-27.png,0002-00-0000-59.png
00000009,488,0,1447088364992,1447088365495,511,264,0,0,0,3,2,1,5,0002-00-0001-12.png,0003-00-0001-24.png
00000009,489,0,1447088368359,1447088368965,400,340,0,0,0,3,2,1,5,0002-00-0000-99.png,0003-00-0001-77.png
00000009,490,1,1447088372148,1447088372709,489,263,0,0,0,0,1,1,1,0001-00-0001-53.png,0005-00-0000-08.png
00000009,491,1,1447088373565,1447088373658,898,444,0,0,0,1,0,1,1,0005-00-0001-29.png,0001-00-0001-51.png
00000009,492,0,1447088374611,1447088374667,870,439,0,0,0,1,2,1,3,0005-00-0001-66.png,0003-00-0000-66.png
00000009,493,1,1447088377840,1447088377883,921,358,0,0,0,2,1,1,3,0003-00-0000-68.png,0005-00-0001-48.png
00000009,494,1,1447088378832,1447088378860,871,462,0,0,0,4,3,1,7,0004-00-0000-37.png,0002-00-0000-64.png
00000009,495,0,1447088379888,1447088380894,922,333,0,0,0,2,3,1,5,0003-00-0001-58.png,0002-00-0001-74.png
00000009,496,1,1447088383751,1447088384318,521,259,0,0,0,3,4,1,7,0002-00-0000-13.png,0004-00-0000-76.png
00000009,497,0,1447088385386,1447088385418,899,481,0,0,0,3,4,1,7,0002-00-0001-94.png,0004-00-0001-54.png
00000009,498,0,1447088388441,1447088388469,1016,358,0,0,0,1,2,1,3,0005-00-0001-17.png,0003-00-0000-99.png
00000009,499,1,1447088391631,1447088392184,1066,280,0,0,0,3,2,1,5,0002-00-0001-65.png,0003-00-0000-76.png
00000009,500,0,1447088393628,1447088394411,1038,277,0,0,0,0,1,1,1,0001-00-0001-40.png,0005-00-0001-13.png
00000009,501,1,1447088409253,1447088409719,993,286,0,0,0,4,3,1,7,0004-00-0001-58.png,0002-00-0001-19.png
00000009,502,1,1447088410618,1447088410639,863,451,0,0,0,1,0,1,1,0005-00-0000-91.png,0001-00-0000-10.png
00000009,503,0,1447088411572,1447088411675,859,510,0,0,0,2,3,1,5,0003-00-0000-89.png,0002-00-0000-14.png
00000009,504,1,1447088414878,1447088414965,882,301,0,0,0,2,1,1,3,0003-00-0001-83.png,0005-00-0001-50.png
00000009,505,0,1447088415831,1447088416984,484,250,0,0,0,4,3,1,7,0004-00-0000-54.png,0002-00-0000-92.png
00000009,506,1,1447088419823,1447088420484,438,356,0,0,0,1,2,1,3,0005-00-0001-82.png,0003-00-0001-91.png
00000009,507,1,1447088422327,1447088422859,1060,283,0,0,0,2,1,1,3,0003-00-0001-51.png,0005-00-0001-39.png
00000009,508,0,1447088423743,1447088423834,910,491,0,0,0,0,1,1,1,0001-00-0000-64.png,0005-00-0001-75.png
00000009,509,1,1447088426963,1447088427003,901,334,0,0,0,3,2,1,5,0002-00-0000-56.png,0003-00-0001-07.png
00000009,510,0,1447088427907,1447088427935,862,462,0,0,0,3,4,1,7,0002-00-0001-18.png,0004-00-0000-73.png
00000009,511,1,1447088430848,1447088430868,903,436,0,0,0,1,0,1,1,0005-00-0000-99.png,0001-00-0000-56.png
00000009,512,0,1447088431833,1447088431870,865,441,0,0,0,2,3,1,5,0003-00-0001-09.png,0002-00-0000-32.png
00000009,513,1,1447088434785,1447088435309,925,358,0,0,0,4,3,1,7,0004-00-0000-53.png,0002-00-0001-98.png
00000009,514,1,1447088436163,1447088437006,513,240,0,0,0,2,3,1,5,0003-00-0000-37.png,0002-00-0000-22.png
00000009,515,1,1447088437935,1447088438897,1033,290,0,0,0,2,1,1,3,0003-00-0001-12.png,0005-00-0001-50.png
00000009,516,0,1447088439920,1447088439964,915,430,0,0,0,0,1,1,1,0001-00-0001-53.png,0005-00-0001-18.png
00000009,517,0,1447088442907,1447088442964,958,437,0,0,0,1,2,1,3,0005-00-0000-08.png,0003-00-0000-30.png
00000009,518,0,1447088445801,1447088446593,1067,281,0,0,0,3,4,1,7,0002-00-0001-17.png,0004-00-0001-23.png
00000009,519,0,1447088449459,1447088450117,486,243,0,0,0,3,2,1,5,0002-00-0000-23.png,0003-00-0000-19.png
00000009,520,1,1447088453100,1447088453633,939,336,0,0,0,1,0,1,1,0005-00-0001-78.png,0001-00-0001-01.png
00000009,521,0,1447088454530,1447088454543,895,428,0,0,0,2,3,1,5,0003-00-0000-77.png,0002-00-0000-31.png
00000009,522,1,1447088457489,1447088457991,1067,288,0,0,0,4,3,1,7,0004-00-0001-91.png,0002-00-0000-91.png
00000009,523,1,1447088458828,1447088458901,918,465,0,0,0,1,0,1,1,0005-00-0000-06.png,0001-00-0001-09.png
00000009,524,1,1447088459934,1447088460957,1039,336,0,0,0,2,1,1,3,0003-00-0001-38.png,0005-00-0000-34.png
00000009,525,0,1447088461945,1447088462028,907,468,0,0,0,1,2,1,3,0005-00-0000-31.png,0003-00-0001-31.png
00000009,526,0,1447088465172,1447088465200,865,307,0,0,0,0,1,1,1,0001-00-0001-80.png,0005-00-0000-01.png
00000009,527,0,1447088468283,1447088468323,913,332,0,0,0,3,4,1,7,0002-00-0001-77.png,0004-00-0000-08.png
00000009,528,1,1447088471394,1447088471422,897,358,0,0,0,3,2,1,5,0002-00-0001-08.png,0003-00-0001-70.png
00000009,529,1,1447088472926,1447088473569,515,227,0,0,0,1,2,1,3,0005-00-0000-81.png,0003-00-0000-74.png
00000009,530,1,1447088474456,1447088474512,863,434,0,0,0,1,0,1,1,0005-00-0000-53.png,0001-00-0001-24.png
00000009,531,1,1447088475517,1447088475537,886,468,0,0,0,3,2,1,5,0002-00-0001-76.png,0003-00-0000-99.png
00000009,532,0,1447088476746,1447088476778,886,478,0,0,0,2,3,1,5,0003-00-0001-20.png,0002-00-0001-19.png
00000009,533,0,1447088479940,1447088479956,867,332,0,0,0,3,4,1,7,0002-00-0000-87.png,0004-00-0001-32.png
00000009,534,0,1447088483011,1447088483597,964,306,0,0,0,0,1,1,1,0001-00-0000-48.png,0005-00-0000-28.png
00000009,535,1,1447088486680,1447088486716,917,326,0,0,0,4,3,1,7,0004-00-0001-01.png,0002-00-0000-92.png
00000009,536,1,1447088487743,1447088487807,880,462,0,0,0,2,1,1,3,0003-00-0000-00.png,0005-00-0000-05.png
00000009,537,0,1447088488965,1447088489032,879,500,0,0,0,2,3,1,5,0003-00-0001-24.png,0002-00-0001-66.png
00000009,538,1,1447088492086,1447088492610,941,325,0,0,0,4,3,1,7,0004-00-0000-41.png,0002-00-0001-70.png
00000009,539,1,1447088494171,1447088494765,943,439,0,0,0,2,1,1,3,0003-00-0001-40.png,0005-00-0001-32.png
00000009,540,1,1447088496400,1447088496483,890,526,0,0,0,3,2,1,5,0002-00-0000-87.png,0003-00-0001-16.png
00000009,541,0,1447088497520,1447088497562,865,504,0,0,0,1,2,1,3,0005-00-0000-57.png,0003-00-0001-37.png
00000009,542,0,1447088500880,1447088501365,937,351,0,0,0,0,1,1,1,0001-00-0001-89.png,0005-00-0000-99.png
00000009,543,1,1447088504588,1447088504636,898,332,0,0,0,1,0,1,1,0005-00-0001-49.png,0001-00-0001-01.png
00000009,544,1,1447088505579,1447088506648,495,246,0,0,0,3,4,1,7,0002-00-0001-79.png,0004-00-0001-75.png
00000009,545,1,1447088507589,1447088508558,1019,255,0,0,0,2,1,1,3,0003-00-0001-48.png,0005-00-0000-36.png
00000009,546,1,1447088509594,1447088509614,915,411,0,0,0,3,2,1,5,0002-00-0001-23.png,0003-00-0001-39.png
00000009,547,0,1447088510789,1447088510817,913,488,0,0,0,0,1,1,1,0001-00-0001-13.png,0005-00-0000-74.png
00000009,548,0,1447088514084,1447088514124,888,332,0,0,0,1,2,1,3,0005-00-0000-96.png,0003-00-0001-62.png
00000009,549,0,1447088517089,1447088518216,440,436,0,0,0,4,3,1,7,0004-00-0001-62.png,0002-00-0000-12.png
00000009,550,0,1447088521352,1447088521827,1044,286,0,0,0,2,3,1,5,0003-00-0001-37.png,0002-00-0001-64.png
00000009,551,1,1447088524737,1447088525312,476,261,0,0,0,3,4,1,7,0002-00-0000-50.png,0004-00-0000-53.png
00000009,552,1,1447088526137,1447088526207,888,445,0,0,0,1,0,1,1,0005-00-0000-23.png,0001-00-0000-30.png
00000009,553,1,1447088527182,1447088527242,862,488,0,0,0,4,3,1,7,0004-00-0001-29.png,0002-00-0001-43.png
00000009,554,1,1447088528267,1447088528323,868,488,0,0,0,3,2,1,5,0002-00-0001-65.png,0003-00-0001-60.png
00000009,555,0,1447088529646,1447088529753,897,509,0,0,0,1,2,1,3,0005-00-0000-23.png,0003-00-0000-70.png
00000009,556,1,1447088532914,1447088533445,508,256,0,0,0,0,1,1,1,0001-00-0000-69.png,0005-00-0000-45.png
00000009,557,0,1447088534288,1447088534352,858,501,0,0,0,3,4,1,7,0002-00-0000-51.png,0004-00-0000-79.png
00000009,558,1,1447088537457,1447088537477,894,353,0,0,0,2,1,1,3,0003-00-0000-19.png,0005-00-0000-01.png
00000009,559,1,1447088538363,1447088538430,893,459,0,0,0,1,0,1,1,0005-00-0001-20.png,0001-00-0001-69.png
00000009,560,0,1447088539316,1447088540332,1052,311,0,0,0,2,3,1,5,0003-00-0001-42.png,0002-00-0000-79.png
00000009,561,1,1447088543236,1447088543268,956,438,0,0,0,4,3,1,7,0004-00-0000-30.png,0002-00-0001-15.png
00000009,562,0,1447088544234,1447088544303,884,494,0,0,0,0,1,1,1,0001-00-0000-85.png,0005-00-0000-31.png
00000009,563,1,1447088547507,1447088548129,502,260,0,0,0,2,3,1,5,0003-00-0001-99.png,0002-00-0001-47.png
00000009,564,0,1447088548984,1447088549913,501,231,0,0,0,3,2,1,5,0002-00-0000-18.png,0003-00-0001-24.png
00000009,565,0,1447088552818,1447088552862,887,410,0,0,0,1,2,1,3,0005-00-0001-02.png,0003-00-0000-05.png
00000009,566,1,1447088555889,1447088556468,934,337,0,0,0,2,1,1,3,0003-00-0000-16.png,0005-00-0000-54.png
00000009,567,1,1447088557900,1447088558622,471,261,0,0,0,3,4,1,7,0002-00-0001-85.png,0004-00-0001-55.png
00000009,568,0,1447088559485,1447088560382,490,238,0,0,0,1,0,1,1,0005-00-0001-31.png,0001-00-0000-67.png
00000009,569,0,1447088563512,1447088563532,888,341,0,0,0,0,1,1,1,0001-00-0001-11.png,0005-00-0001-89.png
00000009,570,1,1447088566574,1447088567073,491,280,0,0,0,1,2,1,3,0005-00-0000-91.png,0003-00-0001-82.png
00000009,571,0,1447088567945,1447088567993,876,493,0,0,0,3,4,1,7,0002-00-0000-20.png,0004-00-0001-82.png
00000009,572,1,1447088570844,1447088571363,938,335,0,0,0,2,1,1,3,0003-00-0000-61.png,0005-00-0000-12.png
00000009,573,0,1447088572195,1447088572227,888,454,0,0,0,2,3,1,5,0003-00-0001-29.png,0002-00-0001-55.png
00000009,574,1,1447088575397,1447088575425,872,329,0,0,0,1,0,1,1,0005-00-0001-15.png,0001-00-0000-70.png
00000009,575,1,1447088576355,1447088576399,870,503,0,0,0,4,3,1,7,0004-00-0001-50.png,0002-00-0000-07.png
00000009,576,1,1447088577399,1447088577670,871,543,0,0,0,3,2,1,5,0002-00-0001-37.png,0003-00-0000-64.png
00000009,577,0,1447088578887,1447088578935,862,514,0,0,0,1,2,1,3,0005-00-0000-93.png,0003-00-0000-55.png
00000009,578,1,1447088582056,1447088582595,504,292,0,0,0,0,1,1,1,0001-00-0000-72.png,0005-00-0001-66.png
00000009,579,1,1447088583445,1447088583517,887,489,0,0,0,1,0,1,1,0005-00-0001-19.png,0001-00-0000-78.png
00000009,580,1,1447088584432,1447088584726,880,537,0,0,0,2,1,1,3,0003-00-0000-53.png,0005-00-0000-56.png
00000009,581,0,1447088585879,1447088585931,870,513,0,0,0,3,4,1,7,0002-00-0001-63.png,0004-00-0000-71.png
00000009,582,1,1447088588835,1447088588930,939,447,0,0,0,4,3,1,7,0004-00-0001-49.png,0002-00-0000-05.png
00000009,583,1,1447088589847,1447088589887,862,488,0,0,0,3,2,1,5,0002-00-0001-36.png,0003-00-0000-72.png
00000009,584,0,1447088590819,1447088592111,1014,305,0,0,0,2,3,1,5,0003-00-0001-36.png,0002-00-0000-37.png
00000009,585,1,1447088594993,1447088595044,913,384,0,0,0,1,0,1,1,0005-00-0000-34.png,0001-00-0001-97.png
00000009,586,1,1447088596443,1447088596503,862,462,0,0,0,4,3,1,7,0004-00-0000-03.png,0002-00-0001-24.png
00000009,587,0,1447088597377,1447088597481,885,515,0,0,0,2,3,1,5,0003-00-0001-05.png,0002-00-0000-62.png
00000009,588,0,1447088600548,1447088601085,511,260,0,0,0,3,2,1,5,0002-00-0001-64.png,0003-00-0001-02.png
00000009,589,1,1447088603956,1447088604476,1059,311,0,0,0,2,1,1,3,0003-00-0000-31.png,0005-00-0001-56.png
00000009,590,1,1447088605345,1447088606170,514,240,0,0,0,3,4,1,7,0002-00-0000-04.png,0004-00-0000-07.png
00000009,591,0,1447088607066,1447088607126,872,497,0,0,0,1,2,1,3,0005-00-0001-42.png,0003-00-0001-47.png
00000009,592,0,1447088610234,1447088610258,900,326,0,0,0,0,1,1,1,0001-00-0000-99.png,0005-00-0001-51.png
00000009,593,1,1447088613375,1447088613965,488,266,0,0,0,3,4,1,7,0002-00-0000-31.png,0004-00-0001-14.png
00000009,594,0,1447088615443,1447088616283,933,344,0,0,0,1,2,1,3,0005-00-0000-78.png,0003-00-0001-98.png
00000009,595,1,1447088619436,1447088619464,939,332,0,0,0,4,3,1,7,0004-00-0001-17.png,0002-00-0000-35.png
00000009,596,0,1447088620364,1447088620432,862,506,0,0,0,0,1,1,1,0001-00-0000-52.png,0005-00-0000-17.png
00000009,597,0,1447088623455,1447088623977,478,410,0,0,0,3,2,1,5,0002-00-0000-84.png,0003-00-0001-75.png
00000009,598,1,1447088627097,1447088627591,960,306,0,0,0,2,1,1,3,0003-00-0000-01.png,0005-00-0000-46.png
00000009,599,0,1447088628452,1447088628528,913,488,0,0,0,2,3,1,5,0003-00-0001-87.png,0002-00-0000-47.png
00000009,600,1,1447088631712,1447088631728,930,332,0,0,0,1,0,1,1,0005-00-0001-93.png,0001-00-0000-53.png
00000009,601,0,1447088632695,1447088632723,884,488,0,0,0,0,1,1,1,0001-00-0000-28.png,0005-00-0000-47.png
00000009,602,1,1447088635896,1447088635912,905,322,0,0,0,2,1,1,3,0003-00-0000-89.png,0005-00-0000-23.png
00000009,603,0,1447088636839,1447088636895,884,467,0,0,0,2,3,1,5,0003-00-0001-49.png,0002-00-0001-56.png
00000009,604,0,1447088640000,1447088640544,506,266,0,0,0,3,2,1,5,0002-00-0001-16.png,0003-00-0001-56.png
00000009,605,0,1447088643446,1447088643560,933,361,0,0,0,1,2,1,3,0005-00-0001-67.png,0003-00-0001-03.png
00000009,606,1,1447088646636,1447088646656,868,361,0,0,0,1,0,1,1,0005-00-0001-90.png,0001-00-0001-43.png
00000009,607,1,1447088647552,1447088648571,913,422,0,0,0,4,3,1,7,0004-00-0000-11.png,0002-00-0001-89.png
00000009,608,0,1447088649569,1447088649617,888,448,0,0,0,3,4,1,7,0002-00-0000-42.png,0004-00-0000-70.png
00000009,609,1,1447088652751,1447088653288,500,237,0,0,0,0,1,1,1,0001-00-0001-55.png,0005-00-0001-24.png
00000009,610,1,1447088654156,1447088654349,883,534,0,0,0,4,3,1,7,0004-00-0001-00.png,0002-00-0001-04.png
00000009,611,0,1447088655382,1447088655448,882,518,0,0,0,3,4,1,7,0002-00-0001-54.png,0004-00-0001-22.png
00000009,612,0,1447088658373,1447088658936,490,228,0,0,0,1,0,1,1,0005-00-0000-75.png,0001-00-0000-74.png
00000009,613,0,1447088661960,1447088662498,1039,275,0,0,0,2,3,1,5,0003-00-0000-38.png,0002-00-0000-47.png
00000009,614,1,1447088665450,1447088666017,937,331,0,0,0,3,2,1,5,0002-00-0001-89.png,0003-00-0000-87.png
00000009,615,1,1447088666885,1447088667768,1011,302,0,0,0,2,1,1,3,0003-00-0000-38.png,0005-00-0001-86.png
00000009,616,0,1447088668700,1447088668736,884,395,0,0,0,1,2,1,3,0005-00-0000-98.png,0003-00-0000-63.png
00000009,617,0,1447088671628,1447088671660,924,371,0,0,0,0,1,1,1,0001-00-0001-87.png,0005-00-0000-78.png
00000009,618,1,1447088674773,1447088675268,941,343,0,0,0,2,1,1,3,0003-00-0000-08.png,0005-00-0000-32.png
00000009,619,0,1447088676130,1447088676142,883,468,0,0,0,1,2,1,3,0005-00-0001-89.png,0003-00-0001-36.png
00000009,620,1,1447088679299,1447088679799,1063,279,0,0,0,4,3,1,7,0004-00-0001-47.png,0002-00-0000-90.png
00000009,621,1,1447088680622,1447088680641,885,436,0,0,0,3,2,1,5,0002-00-0000-89.png,0003-00-0000-49.png
00000009,622,1,1447088681696,1447088681736,862,459,0,0,0,1,0,1,1,0005-00-0001-79.png,0001-00-0001-55.png
00000009,623,0,1447088683089,1447088683129,873,488,0,0,0,2,3,1,5,0003-00-0001-55.png,0002-00-0000-08.png
00000009,624,1,1447088686037,1447088686596,504,260,0,0,0,3,4,1,7,0002-00-0001-44.png,0004-00-0001-15.png
00000009,625,1,1447088687447,1447088687531,864,498,0,0,0,4,3,1,7,0004-00-0001-78.png,0002-00-0001-33.png
00000009,626,1,1447088688564,1447088688628,863,521,0,0,0,2,1,1,3,0003-00-0001-67.png,0005-00-0000-39.png
00000009,627,1,1447088689715,1447088689786,873,514,0,0,0,3,2,1,5,0002-00-0001-43.png,0003-00-0000-37.png
00000009,628,0,1447088691059,1447088691115,888,529,0,0,0,1,2,1,3,0005-00-0000-90.png,0003-00-0000-63.png
00000009,629,0,1447088694236,1447088694260,898,347,0,0,0,3,4,1,7,0002-00-0000-04.png,0004-00-0000-81.png
00000009,630,1,1447088697437,1447088697933,938,335,0,0,0,1,0,1,1,0005-00-0001-94.png,0001-00-0000-18.png
00000009,631,0,1447088698767,1447088698811,888,462,0,0,0,2,3,1,5,0003-00-0000-39.png,0002-00-0001-41.png
00000009,632,0,1447088701989,1447088702017,896,348,0,0,0,0,1,1,1,0001-00-0000-83.png,0005-00-0001-18.png
00000009,633,0,1447088705128,1447088705180,933,329,0,0,0,2,3,1,5,0003-00-0001-10.png,0002-00-0001-73.png
00000009,634,0,1447088708288,1447088708800,1067,279,0,0,0,0,1,1,1,0001-00-0001-87.png,0005-00-0000-14.png
00000009,635,1,1447088711914,1447088711942,888,332,0,0,0,4,3,1,7,0004-00-0001-41.png,0002-00-0001-71.png
00000009,636,1,1447088712920,1447088712999,885,492,0,0,0,1,0,1,1,0005-00-0001-75.png,0001-00-0001-07.png
00000009,637,1,1447088713871,1447088715226,1008,289,0,0,0,2,1,1,3,0003-00-0000-81.png,0005-00-0001-93.png
00000009,638,0,1447088716129,1447088716153,905,464,0,0,0,3,4,1,7,0002-00-0001-43.png,0004-00-0000-22.png
00000009,639,1,1447088719317,1447088719972,505,239,0,0,0,1,2,1,3,0005-00-0000-51.png,0003-00-0000-99.png
00000009,640,1,1447088720938,1447088721092,880,496,0,0,0,3,2,1,5,0002-00-0001-95.png,0003-00-0001-89.png
00000009,641,1,1447088722276,1447088722335,891,463,0,0,0,2,1,1,3,0003-00-0001-69.png,0005-00-0000-42.png
00000009,642,1,1447088723453,1447088723473,890,452,0,0,0,3,2,1,5,0002-00-0000-67.png,0003-00-0001-93.png
00000009,643,1,1447088724741,1447088724867,904,512,0,0,0,1,0,1,1,0005-00-0001-17.png,0001-00-0000-26.png
00000009,644,1,1447088726099,1447088727125,518,233,0,0,0,3,4,1,7,0002-00-0000-99.png,0004-00-0000-74.png
00000009,645,0,1447088728120,1447088728148,863,515,0,0,0,1,2,1,3,0005-00-0000-34.png,0003-00-0000-93.png
00000009,646,0,1447088731302,1447088731322,888,332,0,0,0,2,3,1,5,0003-00-0001-53.png,0002-00-0000-06.png
00000009,647,1,1447088734456,1447088735014,1078,279,0,0,0,4,3,1,7,0004-00-0000-23.png,0002-00-0001-10.png
00000009,648,1,1447088736437,1447088737094,488,301,0,0,0,0,1,1,1,0001-00-0000-25.png,0005-00-0000-79.png
00000009,649,1,1447088738575,1447088739299,1017,272,0,0,0,4,3,1,7,0004-00-0000-54.png,0002-00-0000-07.png
00000009,650,1,1447088740347,1447088741140,413,330,0,0,0,3,4,1,7,0002-00-0000-08.png,0004-00-0000-86.png
00000009,651,1,1447088742103,1447088743100,939,326,0,0,0,3,2,1,5,0002-00-0001-82.png,0003-00-0000-42.png
00000009,652,0,1447088744150,1447088744186,908,414,0,0,0,2,3,1,5,0003-00-0000-82.png,0002-00-0000-30.png
00000009,653,0,1447088747339,1447088747351,907,356,0,0,0,0,1,1,1,0001-00-0000-51.png,0005-00-0001-13.png
00000009,654,1,1447088750489,1447088750505,901,311,0,0,0,2,1,1,3,0003-00-0001-86.png,0005-00-0000-17.png
00000009,655,1,1447088751414,1447088751460,862,439,0,0,0,1,0,1,1,0005-00-0001-46.png,0001-00-0001-34.png
00000009,656,0,1447088752358,1447088752433,862,477,0,0,0,1,2,1,3,0005-00-0000-89.png,0003-00-0000-95.png
00000009,657,1,1447088755584,1447088755641,913,332,0,0,0,4,3,1,7,0004-00-0000-39.png,0002-00-0000-75.png
00000009,658,0,1447088756548,1447088756596,864,490,0,0,0,3,4,1,7,0002-00-0001-03.png,0004-00-0001-11.png
00000009,659,1,1447088759592,1447088760157,1052,279,0,0,0,2,1,1,3,0003-00-0001-92.png,0005-00-0001-62.png
00000009,660,1,1447088760998,1447088761793,431,354,0,0,0,1,2,1,3,0005-00-0001-39.png,0003-00-0001-33.png
00000009,661,0,1447088762821,1447088763719,931,348,0,0,0,2,3,1,5,0003-00-0000-94.png,0002-00-0000-95.png
00000009,662,0,1447088766848,1447088766872,913,347,0,0,0,0,1,1,1,0001-00-0001-05.png,0005-00-0000-58.png
00000009,663,0,1447088769936,1447088770453,453,394,0,0,0,3,2,1,5,0002-00-0000-76.png,0003-00-0001-45.png
00000009,664,1,1447088773583,1447088774097,1066,280,0,0,0,1,0,1,1,0005-00-0000-19.png,0001-00-0001-05.png
00000009,665,1,1447088774969,1447088775025,909,479,0,0,0,4,3,1,7,0004-00-0000-20.png,0002-00-0001-83.png
00000009,666,1,1447088775988,1447088777479,469,249,0,0,0,0,1,1,1,0001-00-0001-53.png,0005-00-0000-97.png
00000009,667,1,1447088778413,1447088778480,867,459,0,0,0,3,2,1,5,0002-00-0001-77.png,0003-00-0001-51.png
00000009,668,0,1447088779526,1447088779562,862,462,0,0,0,1,2,1,3,0005-00-0000-54.png,0003-00-0001-58.png
00000009,669,0,1447088782654,1447088782694,862,343,0,0,0,2,3,1,5,0003-00-0000-42.png,0002-00-0001-32.png
00000009,670,1,1447088785704,1447088786250,1056,280,0,0,0,2,1,1,3,0003-00-0001-38.png,0005-00-0001-13.png
00000009,671,1,1447088787177,1447088787961,522,235,0,0,0,3,4,1,7,0002-00-0000-88.png,0004-00-0000-03.png
00000009,672,1,1447088788924,1447088789799,1058,286,0,0,0,1,0,1,1,0005-00-0001-06.png,0001-00-0001-94.png
00000009,673,0,1447088790756,1447088790867,913,450,0,0,0,0,1,1,1,0001-00-0000-19.png,0005-00-0000-87.png
00000009,674,0,1447088793984,1447088794004,914,364,0,0,0,2,3,1,5,0003-00-0000-31.png,0002-00-0000-70.png
00000009,675,1,1447088797193,1447088797720,1067,264,0,0,0,2,1,1,3,0003-00-0001-46.png,0005-00-0000-46.png
00000009,676,1,1447088798543,1447088798607,906,436,0,0,0,3,2,1,5,0002-00-0001-51.png,0003-00-0001-83.png
00000009,677,1,1447088799648,1447088800736,1046,278,0,0,0,4,3,1,7,0004-00-0001-64.png,0002-00-0001-34.png
00000009,678,0,1447088801717,1447088801776,891,531,0,0,0,3,4,1,7,0002-00-0001-97.png,0004-00-0001-94.png
00000009,679,0,1447088804654,1447088804877,882,309,0,0,0,1,2,1,3,0005-00-0001-88.png,0003-00-0001-46.png
00000009,680,1,1447088808841,1447088809388,1062,280,0,0,0,1,0,1,1,0005-00-0000-51.png,0001-00-0000-87.png
00000009,681,1,1447088810259,1447088811393,504,262,0,0,0,0,1,1,1,0001-00-0000-06.png,0005-00-0000-26.png
00000009,682,0,1447088812287,1447088812303,858,412,0,0,0,2,3,1,5,0003-00-0000-10.png,0002-00-0001-45.png
00000009,683,0,1447088815359,1447088815852,1062,281,0,0,0,1,2,1,3,0005-00-0000-35.png,0003-00-0000-76.png
00000009,684,0,1447088818975,1447088819546,512,251,0,0,0,1,0,1,1,0005-00-0001-00.png,0001-00-0000-31.png
00000009,685,1,1447088822633,1447088822677,901,358,0,0,0,4,3,1,7,0004-00-0001-41.png,0002-00-0000-97.png
00000009,686,1,1447088823568,1447088824477,427,358,0,0,0,3,4,1,7,0002-00-0001-08.png,0004-00-0001-06.png
00000009,687,1,1447088825419,1447088826201,943,304,0,0,0,2,1,1,3,0003-00-0000-52.png,0005-00-0000-90.png
00000009,688,1,1447088827092,1447088827188,888,410,0,0,0,3,2,1,5,0002-00-0000-93.png,0003-00-0001-37.png
00000009,689,0,1447088828180,1447088828200,861,486,0,0,0,1,2,1,3,0005-00-0000-18.png,0003-00-0000-93.png
00000009,690,0,1447088831039,1447088831566,1041,270,0,0,0,2,3,1,5,0003-00-0001-85.png,0002-00-0000-76.png
00000009,691,1,1447088834421,1447088834925,423,379,0,0,0,3,4,1,7,0002-00-0000-52.png,0004-00-0000-57.png
00000009,692,1,1447088835763,1447088835811,859,453,0,0,0,3,2,1,5,0002-00-0000-74.png,0003-00-0000-80.png
00000009,693,1,1447088836772,1447088836812,862,384,0,0,0,4,3,1,7,0004-00-0000-26.png,0002-00-0001-79.png
00000009,694,1,1447088837927,1447088838874,1023,270,0,0,0,2,1,1,3,0003-00-0001-49.png,0005-00-0000-90.png
00000009,695,1,1447088839945,1447088839985,862,473,0,0,0,1,0,1,1,0005-00-0000-48.png,0001-00-0000-57.png
00000009,696,0,1447088841007,1447088841047,880,435,0,0,0,0,1,1,1,0001-00-0001-15.png,0005-00-0001-89.png
00000009,697,0,1447088844110,1447088844134,885,383,0,0,0,2,3,1,5,0003-00-0000-55.png,0002-00-0000-36.png
00000009,698,1,1447088847230,1447088847759,965,308,0,0,0,3,2,1,5,0002-00-0000-28.png,0003-00-0001-62.png
00000009,699,1,1447088849199,1447088849745,408,375,0,0,0,0,1,1,1,0001-00-0001-05.png,0005-00-0001-21.png
00000009,700,1,1447088850596,1447088851478,1020,284,0,0,0,2,1,1,3,0003-00-0001-34.png,0005-00-0001-81.png
00000009,701,0,1447088852417,1447088852480,873,462,0,0,0,1,2,1,3,0005-00-0001-94.png,0003-00-0001-70.png
00000009,702,1,1447088856478,1447088857062,1025,308,0,0,0,4,3,1,7,0004-00-0001-64.png,0002-00-0000-45.png
00000009,703,0,1447088857887,1447088858795,522,235,0,0,0,1,0,1,1,0005-00-0001-80.png,0001-00-0000-74.png
00000009,704,1,1447088861801,1447088862508,504,254,0,0,0,3,4,1,7,0002-00-0001-26.png,0004-00-0001-88.png
00000009,705,1,1447088863895,1447088864591,432,336,0,0,0,0,1,1,1,0001-00-0001-98.png,0005-00-0000-89.png
00000009,706,0,1447088865501,1447088866333,522,225,0,0,0,4,3,1,7,0004-00-0001-63.png,0002-00-0000-88.png
00000009,707,1,1447088869171,1447088869743,513,259,0,0,0,3,4,1,7,0002-00-0001-58.png,0004-00-0000-51.png
00000009,708,0,1447088870569,1447088871345,465,410,0,0,0,1,0,1,1,0005-00-0001-11.png,0001-00-0001-81.png
00000009,709,1,1447088874250,1447088874296,897,382,0,0,0,2,1,1,3,0003-00-0000-21.png,0005-00-0000-59.png
00000009,710,1,1447088875161,1447088876537,479,259,0,0,0,1,2,1,3,0005-00-0001-48.png,0003-00-0001-64.png
00000009,711,0,1447088877431,1447088878476,1056,331,0,0,0,2,3,1,5,0003-00-0001-56.png,0002-00-0001-38.png
00000009,712,0,1447088881651,1447088882178,489,239,0,0,0,3,2,1,5,0002-00-0001-39.png,0003-00-0001-66.png
00000009,713,1,1447088885017,1447088885646,1069,278,0,0,0,1,0,1,1,0005-00-0001-17.png,0001-00-0001-71.png
00000009,714,0,1447088886552,1447088886610,874,486,0,0,0,0,1,1,1,0001-00-0000-31.png,0005-00-0001-35.png
00000009,715,1,1447088889653,1447088889681,866,362,0,0,0,4,3,1,7,0004-00-0001-47.png,0002-00-0001-55.png
00000009,716,0,1447088890628,1447088891440,1032,283,0,0,0,2,3,1,5,0003-00-0000-53.png,0002-00-0000-26.png
00000009,717,0,1447088894601,1447088895207,961,305,0,0,0,3,4,1,7,0002-00-0000-46.png,0004-00-0001-92.png
00000009,718,1,1447088898129,1447088898703,1041,279,0,0,0,3,2,1,5,0002-00-0000-14.png,0003-00-0001-13.png
00000009,719,0,1447088899588,1447088899600,871,410,0,0,0,1,2,1,3,0005-00-0000-97.png,0003-00-0001-11.png
00000009,720,1,1447088902444,1447088902917,1040,277,0,0,0,2,1,1,3,0003-00-0000-21.png,0005-00-0001-28.png
00000009,721,1,1447088904338,1447088905110,495,261,0,0,0,1,2,1,3,0005-00-0001-85.png,0003-00-0001-52.png
00000009,722,0,1447088905998,1447088906895,523,261,0,0,0,3,2,1,5,0002-00-0001-65.png,0003-00-0001-59.png
00000009,723,1,1447088909917,1447088910424,509,266,0,0,0,3,4,1,7,0002-00-0001-81.png,0004-00-0001-53.png
00000009,724,0,1447088911298,1447088912057,1044,327,0,0,0,2,3,1,5,0003-00-0000-59.png,0002-00-0001-28.png
00000009,725,1,1447088914904,1447088915490,1062,304,0,0,0,2,1,1,3,0003-00-0000-40.png,0005-00-0000-96.png
00000009,726,1,1447088916933,1447088917623,515,251,0,0,0,0,1,1,1,0001-00-0001-60.png,0005-00-0000-05.png
00000009,727,0,1447088918602,1447088919328,427,335,0,0,0,1,0,1,1,0005-00-0001-11.png,0001-00-0001-24.png
00000009,728,1,1447088922174,1447088922702,1042,284,0,0,0,4,3,1,7,0004-00-0000-96.png,0002-00-0000-75.png
00000009,729,0,1447088923536,1447088923580,872,462,0,0,0,2,3,1,5,0003-00-0000-05.png,0002-00-0000-58.png
00000009,730,1,1447088926679,1447088926755,961,365,0,0,0,1,0,1,1,0005-00-0001-97.png,0001-00-0000-17.png
00000009,731,1,1447088927652,1447088928397,507,263,0,0,0,0,1,1,1,0001-00-0001-05.png,0005-00-0001-46.png
00000009,732,1,1447088929361,1447088930333,1016,282,0,0,0,3,2,1,5,0002-00-0000-87.png,0003-00-0001-94.png
00000009,733,0,1447088931293,1447088931321,894,435,0,0,0,3,4,1,7,0002-00-0000-61.png,0004-00-0000-60.png
00000009,734,0,1447088934155,1447088934243,946,359,0,0,0,1,2,1,3,0005-00-0000-37.png,0003-00-0000-35.png
00000009,735,1,1447088937192,1447088937223,982,406,0,0,0,2,1,1,3,0003-00-0000-53.png,0005-00-0000-25.png
00000009,736,1,1447088938119,1447088938237,862,543,0,0,0,4,3,1,7,0004-00-0001-40.png,0002-00-0001-14.png
00000009,737,0,1447088939262,1447088939310,862,472,0,0,0,2,3,1,5,0003-00-0000-60.png,0002-00-0001-79.png
00000009,738,1,1447088952836,1447088953404,491,288,0,0,0,0,1,1,1,0001-00-0000-71.png,0005-00-0000-02.png
00000009,739,0,1447088954410,1447088955472,505,288,0,0,0,3,2,1,5,0002-00-0001-74.png,0003-00-0000-99.png
00000009,740,1,1447088958523,1447088959047,919,358,0,0,0,1,0,1,1,0005-00-0000-20.png,0001-00-0000-27.png
00000009,741,1,1447088959880,1447088959934,885,445,0,0,0,2,1,1,3,0003-00-0001-72.png,0005-00-0000-87.png
00000009,742,1,1447088960936,1447088961879,910,333,0,0,0,4,3,1,7,0004-00-0000-14.png,0002-00-0000-54.png
00000009,743,0,1447088962847,1447088962883,922,440,0,0,0,3,4,1,7,0002-00-0000-26.png,0004-00-0000-06.png
00000009,744,1,1447088965815,1447088966799,494,286,0,0,0,1,2,1,3,0005-00-0001-01.png,0003-00-0000-84.png
00000009,745,0,1447088967677,1447088968744,932,337,0,0,0,2,3,1,5,0003-00-0000-61.png,0002-00-0000-11.png
00000009,746,0,1447088971800,1447088972285,446,359,0,0,0,1,0,1,1,0005-00-0001-56.png,0001-00-0000-96.png
00000009,747,0,1447088975488,1447088976030,1045,283,0,0,0,0,1,1,1,0001-00-0001-02.png,0005-00-0001-83.png
00000009,748,1,1447088979165,1447088979244,862,315,0,0,0,3,2,1,5,0002-00-0001-32.png,0003-00-0001-67.png
00000009,749,1,1447088980245,1447088980261,860,441,0,0,0,2,1,1,3,0003-00-0000-29.png,0005-00-0001-65.png
00000009,750,0,1447088981338,1447088981410,865,512,0,0,0,3,4,1,7,0002-00-0000-02.png,0004-00-0000-55.png
00000009,751,0,1447088984520,1447088984552,888,320,0,0,0,1,2,1,3,0005-00-0000-81.png,0003-00-0000-13.png
00000009,752,0,1447088987462,1447088988165,423,354,0,0,0,4,3,1,7,0004-00-0001-88.png,0002-00-0001-38.png
00000009,753,0,1447088991327,1447088991355,890,322,0,0,0,1,2,1,3,0005-00-0000-88.png,0003-00-0000-31.png
00000009,754,0,1447088994288,1447088994320,888,315,0,0,0,2,3,1,5,0003-00-0001-49.png,0002-00-0001-14.png
00000009,755,1,1447088997867,1447088998149,898,321,0,0,0,1,0,1,1,0005-00-0000-59.png,0001-00-0000-97.png
00000009,756,1,1447088999151,1447088999219,887,466,0,0,0,4,3,1,7,0004-00-0001-70.png,0002-00-0001-94.png
00000009,757,1,1447089000073,1447089000133,857,472,0,0,0,2,1,1,3,0003-00-0000-71.png,0005-00-0000-22.png
00000009,758,0,1447089001085,1447089001129,864,466,0,0,0,0,1,1,1,0001-00-0001-08.png,0005-00-0000-38.png
00000009,759,1,1447089004009,1447089004493,1037,304,0,0,0,3,2,1,5,0002-00-0001-09.png,0003-00-0001-36.png
00000009,760,1,1447089005989,1447089006581,475,426,0,0,0,3,4,1,7,0002-00-0000-88.png,0004-00-0001-94.png
00000009,761,0,1447089007605,1447089007673,891,512,0,0,0,2,3,1,5,0003-00-0001-50.png,0002-00-0001-31.png
00000009,762,1,1447089010666,1447089010698,888,372,0,0,0,3,2,1,5,0002-00-0001-99.png,0003-00-0000-32.png
00000009,763,1,1447089011657,1447089012457,936,340,0,0,0,2,1,1,3,0003-00-0001-61.png,0005-00-0001-17.png
00000009,764,0,1447089013460,1447089013480,867,409,0,0,0,0,1,1,1,0001-00-0000-36.png,0005-00-0000-14.png
00000009,765,1,1447089016679,1447089017225,1064,284,0,0,0,4,3,1,7,0004-00-0000-82.png,0002-00-0001-70.png
00000009,766,1,1447089018609,1447089019278,468,410,0,0,0,1,2,1,3,0005-00-0000-75.png,0003-00-0000-53.png
00000009,767,0,1447089020144,1447089020189,882,426,0,0,0,3,4,1,7,0002-00-0000-27.png,0004-00-0000-71.png
00000009,768,1,1447089024185,1447089024205,909,362,0,0,0,1,0,1,1,0005-00-0000-19.png,0001-00-0000-86.png
00000009,769,1,1447089025088,1447089025144,860,488,0,0,0,4,3,1,7,0004-00-0001-01.png,0002-00-0000-98.png
00000009,770,0,1447089026030,1447089026078,862,474,0,0,0,2,3,1,5,0003-00-0001-90.png,0002-00-0001-97.png
00000009,771,1,1447089039016,1447089039560,912,341,0,0,0,1,0,1,1,0005-00-0001-86.png,0001-00-0000-42.png
00000009,772,1,1447089040538,1447089040558,865,487,0,0,0,2,1,1,3,0003-00-0000-74.png,0005-00-0001-29.png
00000009,773,1,1447089041494,1447089041544,864,469,0,0,0,3,2,1,5,0002-00-0001-88.png,0003-00-0001-80.png
00000009,774,0,1447089042604,1447089042673,899,487,0,0,0,3,4,1,7,0002-00-0000-59.png,0004-00-0000-77.png
00000009,775,1,1447089046454,1447089047000,480,264,0,0,0,1,2,1,3,0005-00-0000-73.png,0003-00-0000-11.png
00000009,776,0,1447089048351,1447089049009,1041,321,0,0,0,0,1,1,1,0001-00-0000-80.png,0005-00-0001-59.png
00000009,777,0,1447089051906,1447089051930,862,332,0,0,0,2,3,1,5,0003-00-0001-86.png,0002-00-0001-93.png
00000009,778,0,1447089055040,1447089055635,508,256,0,0,0,3,2,1,5,0002-00-0000-69.png,0003-00-0001-16.png
00000009,779,1,1447089058874,1447089059349,937,314,0,0,0,1,0,1,1,0005-00-0000-67.png,0001-00-0000-22.png
00000009,780,1,1447089060259,1447089060283,891,438,0,0,0,4,3,1,7,0004-00-0001-28.png,0002-00-0000-99.png
00000009,781,0,1447089061219,1447089061286,863,461,0,0,0,3,4,1,7,0002-00-0001-68.png,0004-00-0001-73.png
00000009,782,1,1447089064420,1447089065005,502,268,0,0,0,1,2,1,3,0005-00-0000-63.png,0003-00-0000-30.png
00000009,783,0,1447089066428,1447089067194,1067,295,0,0,0,0,1,1,1,0001-00-0000-90.png,0005-00-0001-65.png
00000009,784,1,1447089070144,1447089070630,939,322,0,0,0,2,1,1,3,0003-00-0000-29.png,0005-00-0001-51.png
00000009,785,1,1447089072032,1447089072068,895,464,0,0,0,1,0,1,1,0005-00-0001-98.png,0001-00-0000-88.png
00000009,786,0,1447089073064,1447089073174,895,493,0,0,0,0,1,1,1,0001-00-0001-05.png,0005-00-0000-05.png
00000009,787,1,1447089076346,1447089076863,1036,280,0,0,0,3,2,1,5,0002-00-0001-07.png,0003-00-0000-34.png
00000009,788,1,1447089077725,1447089077785,933,450,0,0,0,2,1,1,3,0003-00-0000-35.png,0005-00-0001-76.png
00000009,789,0,1447089078724,1447089078755,862,462,0,0,0,2,3,1,5,0003-00-0001-96.png,0002-00-0001-51.png
00000009,790,0,1447089081821,1447089081853,899,365,0,0,0,1,2,1,3,0005-00-0000-05.png,0003-00-0000-89.png
00000009,791,1,1447089085008,1447089085833,470,268,0,0,0,3,4,1,7,0002-00-0001-22.png,0004-00-0001-66.png
00000009,792,1,1447089086727,1447089087795,938,345,0,0,0,4,3,1,7,0004-00-0000-25.png,0002-00-0000-01.png
00000009,793,1,1447089088753,1447089088849,1004,529,0,0,0,1,0,1,1,0005-00-0001-81.png,0001-00-0001-62.png
00000009,794,0,1447089089918,1447089090107,913,530,0,0,0,3,4,1,7,0002-00-0000-66.png,0004-00-0001-26.png
00000009,795,1,1447089093042,1447089093539,1041,267,0,0,0,2,1,1,3,0003-00-0001-29.png,0005-00-0000-16.png
00000009,796,0,1447089094367,1447089094446,885,468,0,0,0,1,2,1,3,0005-00-0001-89.png,0003-00-0000-76.png
00000009,797,1,1447089097318,1447089097378,888,358,0,0,0,3,2,1,5,0002-00-0000-44.png,0003-00-0000-14.png
00000009,798,0,1447089098243,1447089099099,518,264,0,0,0,4,3,1,7,0004-00-0000-96.png,0002-00-0001-88.png
00000009,799,1,1447089102361,1447089102881,476,276,0,0,0,0,1,1,1,0001-00-0000-62.png,0005-00-0001-92.png
00000009,800,0,1447089104268,1447089104944,1046,301,0,0,0,2,3,1,5,0003-00-0001-83.png,0002-00-0001-72.png
00000009,801,1,1447089108102,1447089108948,460,312,0,0,0,3,4,1,7,0002-00-0001-86.png,0004-00-0001-32.png
00000009,802,1,1447089109912,1447089110763,1020,304,0,0,0,2,1,1,3,0003-00-0001-96.png,0005-00-0001-60.png
00000009,803,0,1447089111649,1447089111704,905,445,0,0,0,1,2,1,3,0005-00-0001-92.png,0003-00-0000-16.png
00000009,804,1,1447089114561,1447089115183,1041,306,0,0,0,1,0,1,1,0005-00-0000-02.png,0001-00-0001-62.png
00000009,805,0,1447089116621,1447089117275,507,264,0,0,0,4,3,1,7,0004-00-0000-74.png,0002-00-0000-24.png
00000009,806,1,1447089120354,1447089120398,904,338,0,0,0,3,2,1,5,0002-00-0000-68.png,0003-00-0001-54.png
00000009,807,1,1447089121936,1447089122564,484,274,0,0,0,0,1,1,1,0001-00-0000-76.png,0005-00-0000-53.png
00000009,808,0,1447089123504,1447089123576,862,462,0,0,0,2,3,1,5,0003-00-0001-14.png,0002-00-0001-12.png
00000009,809,1,1447089126707,1447089127250,477,279,0,0,0,3,4,1,7,0002-00-0000-02.png,0004-00-0000-45.png
00000009,810,0,1447089128198,1447089128214,871,470,0,0,0,2,3,1,5,0003-00-0001-60.png,0002-00-0001-70.png
00000009,811,0,1447089131045,1447089131644,511,285,0,0,0,4,3,1,7,0004-00-0000-49.png,0002-00-0001-47.png
00000009,812,0,1447089134515,1447089134551,888,435,0,0,0,1,2,1,3,0005-00-0001-44.png,0003-00-0000-69.png
00000009,813,1,1447089137558,1447089138183,935,410,0,0,0,2,1,1,3,0003-00-0000-20.png,0005-00-0001-64.png
00000009,814,1,1447089139148,1447089139192,913,410,0,0,0,1,0,1,1,0005-00-0000-07.png,0001-00-0000-84.png
00000009,815,1,1447089140152,1447089140334,913,541,0,0,0,3,2,1,5,0002-00-0001-20.png,0003-00-0000-87.png
00000009,816,0,1447089141778,1447089141810,888,488,0,0,0,0,1,1,1,0001-00-0000-48.png,0005-00-0001-14.png
00000009,817,0,1447089144671,1447089144911,866,384,0,0,0,2,3,1,5,0003-00-0001-27.png,0002-00-0001-38.png
00000009,818,0,1447089147801,1447089148301,1036,282,0,0,0,1,2,1,3,0005-00-0000-77.png,0003-00-0001-71.png
00000009,819,1,1447089151201,1447089151799,939,398,0,0,0,2,1,1,3,0003-00-0000-83.png,0005-00-0001-33.png
00000009,820,0,1447089152660,1447089152709,891,468,0,0,0,3,4,1,7,0002-00-0001-12.png,0004-00-0001-24.png
00000009,821,1,1447089156438,1447089157053,964,348,0,0,0,4,3,1,7,0004-00-0001-74.png,0002-00-0001-78.png
00000009,822,1,1447089157957,1447089158013,914,492,0,0,0,3,2,1,5,0002-00-0000-37.png,0003-00-0000-80.png
00000009,823,1,1447089159032,1447089159061,887,445,0,0,0,1,0,1,1,0005-00-0000-71.png,0001-00-0000-96.png
00000009,824,1,1447089160133,1447089161139,419,344,0,0,0,0,1,1,1,0001-00-0001-38.png,0005-00-0001-05.png
00000009,825,0,1447089162203,1447089162231,911,516,0,0,0,1,2,1,3,0005-00-0001-85.png,0003-00-0001-02.png
00000009,826,1,1447089165343,1447089165862,1076,281,0,0,0,3,2,1,5,0002-00-0000-57.png,0003-00-0001-08.png
00000009,827,1,1447089167479,1447089168023,939,322,0,0,0,2,1,1,3,0003-00-0000-35.png,0005-00-0000-34.png
00000009,828,1,1447089168967,1447089168999,938,450,0,0,0,4,3,1,7,0004-00-0001-55.png,0002-00-0000-06.png
00000009,829,1,1447089170807,1447089171460,1036,283,0,0,0,1,0,1,1,0005-00-0001-22.png,0001-00-0000-62.png
00000009,830,0,1447089172488,1447089172537,913,410,0,0,0,3,4,1,7,0002-00-0000-69.png,0004-00-0000-98.png
00000009,831,0,1447089175359,1447089175379,859,438,0,0,0,2,3,1,5,0003-00-0000-42.png,0002-00-0000-47.png
00000009,832,0,1447089178529,1447089179048,1055,274,0,0,0,0,1,1,1,0001-00-0001-47.png,0005-00-0000-91.png
00000009,833,1,1447089182008,1447089182551,1078,276,0,0,0,4,3,1,7,0004-00-0001-38.png,0002-00-0001-24.png
00000009,834,0,1447089183426,1447089183532,911,488,0,0,0,3,4,1,7,0002-00-0001-88.png,0004-00-0001-60.png
00000009,835,0,1447089186787,1447089187330,934,325,0,0,0,1,2,1,3,0005-00-0000-42.png,0003-00-0001-70.png
00000009,836,0,1447089190305,1447089190334,987,403,0,0,0,2,3,1,5,0003-00-0001-77.png,0002-00-0001-45.png
00000009,837,0,1447089193298,1447089193830,453,421,0,0,0,3,2,1,5,0002-00-0001-08.png,0003-00-0000-55.png
00000009,838,1,1447089197949,1447089197985,916,337,0,0,0,2,1,1,3,0003-00-0000-42.png,0005-00-0000-92.png
00000009,839,0,1447089198982,1447089199078,888,528,0,0,0,0,1,1,1,0001-00-0001-13.png,0005-00-0001-03.png
00000009,840,1,1447089202133,1447089202173,881,380,0,0,0,1,0,1,1,0005-00-0000-44.png,0001-00-0001-42.png
00000009,841,1,1447089203134,1447089203184,877,462,0,0,0,1,0,1,1,0005-00-0001-40.png,0001-00-0000-09.png
00000009,842,0,1447089204156,1447089204224,877,462,0,0,0,1,2,1,3,0005-00-0001-67.png,0003-00-0000-26.png
00000009,843,1,1447089207396,1447089207943,485,260,0,0,0,3,4,1,7,0002-00-0001-12.png,0004-00-0001-33.png
00000009,844,1,1447089208885,1447089208933,889,441,0,0,0,2,1,1,3,0003-00-0000-48.png,0005-00-0001-23.png
00000009,845,0,1447089209871,1447089209919,862,462,0,0,0,0,1,1,1,0001-00-0000-08.png,0005-00-0000-52.png
00000009,846,0,1447089212920,1447089213409,500,272,0,0,0,3,2,1,5,0002-00-0001-56.png,0003-00-0001-85.png
00000009,847,1,1447089216569,1447089217611,379,366,0,0,0,2,3,1,5,0003-00-0001-00.png,0002-00-0000-20.png
00000009,848,1,1447089218537,1447089218605,878,470,0,0,0,4,3,1,7,0004-00-0001-25.png,0002-00-0001-37.png
00000009,849,0,1447089219541,1447089219577,883,487,0,0,0,3,4,1,7,0002-00-0001-33.png,0004-00-0000-77.png
00000009,850,0,1447089222501,1447089223054,495,259,0,0,0,1,0,1,1,0005-00-0000-37.png,0001-00-0001-51.png
00000009,851,1,1447089225909,1447089226517,521,281,0,0,0,1,2,1,3,0005-00-0000-51.png,0003-00-0000-78.png
00000009,852,1,1447089227419,1447089227467,891,432,0,0,0,3,2,1,5,0002-00-0000-30.png,0003-00-0000-51.png
00000009,853,0,1447089228551,1447089228615,862,462,0,0,0,0,1,1,1,0001-00-0000-47.png,0005-00-0000-16.png
00000009,854,1,1447089240056,1447089240554,1013,270,0,0,0,4,3,1,7,0004-00-0000-70.png,0002-00-0001-78.png
00000009,855,1,1447089241489,1447089242480,1030,306,0,0,0,2,1,1,3,0003-00-0001-99.png,0005-00-0001-04.png
00000009,856,0,1447089243426,1447089243491,927,486,0,0,0,2,3,1,5,0003-00-0000-64.png,0002-00-0001-25.png
00000009,857,1,1447089247253,1447089247320,913,381,0,0,0,1,0,1,1,0005-00-0000-68.png,0001-00-0000-66.png
00000009,858,0,1447089248415,1447089248431,862,463,0,0,0,3,4,1,7,0002-00-0001-08.png,0004-00-0001-41.png
00000009,859,1,1447089251495,1447089251542,880,391,0,0,0,3,2,1,5,0002-00-0000-59.png,0003-00-0001-42.png
00000009,860,0,1447089253037,1447089253688,998,284,0,0,0,1,2,1,3,0005-00-0001-71.png,0003-00-0000-97.png
00000009,861,1,1447089256810,1447089257314,488,279,0,0,0,0,1,1,1,0001-00-0000-97.png,0005-00-0001-15.png
00000009,862,1,1447089258651,1447089259213,916,354,0,0,0,4,3,1,7,0004-00-0001-94.png,0002-00-0000-84.png
00000009,863,1,1447089260100,1447089260140,859,435,0,0,0,2,1,1,3,0003-00-0000-91.png,0005-00-0000-41.png
00000009,864,0,1447089261122,1447089261190,862,514,0,0,0,2,3,1,5,0003-00-0001-01.png,0002-00-0000-43.png
00000009,865,0,1447089264044,1447089264653,939,428,0,0,0,2,3,1,5,0003-00-0000-77.png,0002-00-0000-03.png
00000009,866,0,1447089267880,1447089267908,875,358,0,0,0,1,2,1,3,0005-00-0000-57.png,0003-00-0001-52.png
00000009,867,1,1447089270841,1447089271316,960,328,0,0,0,3,2,1,5,0002-00-0000-35.png,0003-00-0000-11.png
00000009,868,0,1447089272205,1447089272237,916,445,0,0,0,0,1,1,1,0001-00-0000-87.png,0005-00-0001-88.png
00000009,869,0,1447089275287,1447089275298,902,333,0,0,0,3,4,1,7,0002-00-0001-38.png,0004-00-0000-46.png
00000009,870,1,1447089278348,1447089278650,963,297,0,0,0,4,3,1,7,0004-00-0000-17.png,0002-00-0001-20.png
00000009,871,1,1447089279639,1447089280532,939,400,0,0,0,1,0,1,1,0005-00-0001-40.png,0001-00-0001-29.png
00000009,872,1,1447089281477,1447089281512,870,484,0,0,0,2,1,1,3,0003-00-0000-11.png,0005-00-0000-71.png
00000009,873,1,1447089282650,1447089282721,888,488,0,0,0,3,2,1,5,0002-00-0001-02.png,0003-00-0000-32.png
00000009,874,0,1447089283759,1447089283851,880,543,0,0,0,0,1,1,1,0001-00-0000-27.png,0005-00-0001-52.png
00000009,875,0,1447089286914,1447089287415,508,246,0,0,0,1,0,1,1,0005-00-0000-95.png,0001-00-0001-34.png
00000009,876,0,1447089290577,1447089290891,949,308,0,0,0,2,3,1,5,0003-00-0001-63.png,0002-00-0000-19.png
00000009,877,1,1447089293818,1447089294315,1067,279,0,0,0,4,3,1,7,0004-00-0000-76.png,0002-00-0000-62.png
00000009,878,0,1447089295187,1447089295239,887,422,0,0,0,3,4,1,7,0002-00-0001-85.png,0004-00-0001-99.png
00000009,879,1,1447089298439,1447089299008,428,342,0,0,0,1,2,1,3,0005-00-0001-26.png,0003-00-0001-63.png
00000009,880,1,1447089300012,1447089300152,922,474,0,0,0,2,1,1,3,0003-00-0000-00.png,0005-00-0001-17.png
00000009,881,0,1447089301209,1447089301284,923,488,0,0,0,3,4,1,7,0002-00-0000-09.png,0004-00-0001-49.png
00000009,882,1,1447089304291,1447089304808,1068,285,0,0,0,1,0,1,1,0005-00-0000-71.png,0001-00-0000-84.png
00000009,883,1,1447089305733,1447089305879,937,501,0,0,0,4,3,1,7,0004-00-0000-64.png,0002-00-0000-15.png
00000009,884,1,1447089306786,1447089306866,862,436,0,0,0,3,2,1,5,0002-00-0000-34.png,0003-00-0001-04.png
00000009,885,0,1447089308115,1447089308285,887,543,0,0,0,0,1,1,1,0001-00-0000-53.png,0005-00-0000-49.png
00000009,886,1,1447089311187,1447089311706,444,384,0,0,0,1,2,1,3,0005-00-0001-26.png,0003-00-0001-25.png
00000009,887,1,1447089312617,1447089312704,913,522,0,0,0,2,1,1,3,0003-00-0000-86.png,0005-00-0000-75.png
00000009,888,0,1447089313743,1447089313763,862,462,0,0,0,2,3,1,5,0003-00-0000-95.png,0002-00-0001-08.png
00000009,889,1,1447089316804,1447089317360,507,262,0,0,0,1,2,1,3,0005-00-0001-84.png,0003-00-0000-42.png
00000009,890,0,1447089318273,1447089318364,932,515,0,0,0,3,4,1,7,0002-00-0001-90.png,0004-00-0000-68.png
00000009,891,1,1447089321430,1447089321454,910,362,0,0,0,1,0,1,1,0005-00-0000-71.png,0001-00-0000-25.png
00000009,892,0,1447089322374,1447089322458,881,522,0,0,0,0,1,1,1,0001-00-0000-85.png,0005-00-0000-70.png
00000009,893,0,1447089325584,1447089326075,950,324,0,0,0,2,3,1,5,0003-00-0001-45.png,0002-00-0001-05.png
00000009,894,0,1447089329075,1447089329589,504,290,0,0,0,3,2,1,5,0002-00-0001-42.png,0003-00-0000-97.png
00000009,895,1,1447089332611,1447089332699,905,388,0,0,0,2,1,1,3,0003-00-0000-12.png,0005-00-0000-84.png
00000009,896,1,1447089333635,1447089334730,1044,272,0,0,0,4,3,1,7,0004-00-0000-88.png,0002-00-0000-18.png
00000009,897,0,1447089335652,1447089336506,1043,252,0,0,0,0,1,1,1,0001-00-0001-12.png,0005-00-0001-46.png
00000009,898,1,1447089339630,1447089340161,522,233,0,0,0,3,4,1,7,0002-00-0001-32.png,0004-00-0000-94.png
00000009,899,1,1447089341084,1447089341136,862,509,0,0,0,1,0,1,1,0005-00-0001-59.png,0001-00-0001-90.png
00000009,900,0,1447089342061,1447089343219,523,224,0,0,0,3,2,1,5,0002-00-0000-65.png,0003-00-0000-52.png
00000009,901,1,1447089351883,1447089351910,929,337,0,0,0,2,1,1,3,0003-00-0001-70.png,0005-00-0000-39.png
00000009,902,0,1447089353376,1447089354009,886,348,0,0,0,2,3,1,5,0003-00-0000-90.png,0002-00-0000-12.png
00000009,903,1,1447089357173,1447089357201,905,307,0,0,0,4,3,1,7,0004-00-0000-11.png,0002-00-0001-90.png
00000009,904,0,1447089358137,1447089358275,890,533,0,0,0,1,2,1,3,0005-00-0001-49.png,0003-00-0000-09.png
00000009,905,1,1447089361395,1447089361880,505,250,0,0,0,1,2,1,3,0005-00-0001-33.png,0003-00-0001-21.png
00000009,906,0,1447089362788,1447089362816,899,452,0,0,0,0,1,1,1,0001-00-0000-46.png,0005-00-0001-63.png
00000009,907,1,1447089365916,1447089365936,862,384,0,0,0,4,3,1,7,0004-00-0001-15.png,0002-00-0000-54.png
00000009,908,1,1447089366891,1447089366947,888,447,0,0,0,1,0,1,1,0005-00-0001-75.png,0001-00-0000-59.png
00000009,909,0,1447089367861,1447089367901,864,488,0,0,0,3,4,1,7,0002-00-0000-54.png,0004-00-0000-23.png
00000009,910,1,1447089370855,1447089371417,1041,280,0,0,0,2,1,1,3,0003-00-0001-87.png,0005-00-0001-27.png
00000009,911,0,1447089372275,1447089372295,889,451,0,0,0,2,3,1,5,0003-00-0001-46.png,0002-00-0001-52.png
00000009,912,1,1447089380630,1447089381109,971,365,0,0,0,3,2,1,5,0002-00-0001-49.png,0003-00-0000-67.png
00000009,913,0,1447089382028,1447089382060,884,443,0,0,0,1,2,1,3,0005-00-0001-04.png,0003-00-0000-41.png
00000009,914,0,1447089385081,1447089385626,464,436,0,0,0,4,3,1,7,0004-00-0000-10.png,0002-00-0000-58.png
00000009,915,1,1447089388596,1447089388616,983,405,0,0,0,3,2,1,5,0002-00-0000-19.png,0003-00-0001-67.png
00000009,916,0,1447089389636,1447089389676,868,455,0,0,0,2,3,1,5,0003-00-0001-22.png,0002-00-0000-38.png
00000009,917,0,1447089392801,1447089392829,888,320,0,0,0,3,4,1,7,0002-00-0001-82.png,0004-00-0000-60.png
00000009,918,1,1447089396018,1447089396050,901,327,0,0,0,1,0,1,1,0005-00-0000-97.png,0001-00-0001-52.png
00000009,919,1,1447089397053,1447089397202,909,521,0,0,0,2,1,1,3,0003-00-0001-70.png,0005-00-0000-89.png
00000009,920,0,1447089398207,1447089398270,897,494,0,0,0,0,1,1,1,0001-00-0000-27.png,0005-00-0001-18.png
00000009,921,1,1447089401187,1447089401815,1037,276,0,0,0,1,0,1,1,0005-00-0000-29.png,0001-00-0001-86.png
00000009,922,1,1447089402729,1447089402757,895,422,0,0,0,2,1,1,3,0003-00-0001-22.png,0005-00-0001-63.png
00000009,923,0,1447089403693,1447089404785,1022,283,0,0,0,2,3,1,5,0003-00-0001-40.png,0002-00-0000-69.png
00000009,924,0,1447089407747,1447089407775,876,334,0,0,0,3,4,1,7,0002-00-0000-27.png,0004-00-0000-84.png
00000009,925,1,1447089410766,1447089411268,936,322,0,0,0,4,3,1,7,0004-00-0000-69.png,0002-00-0001-66.png
00000009,926,1,1447089412675,1447089413310,478,269,0,0,0,1,2,1,3,0005-00-0000-02.png,0003-00-0001-52.png
00000009,927,0,1447089414236,1447089415129,423,326,0,0,0,3,2,1,5,0002-00-0001-68.png,0003-00-0001-61.png
00000009,928,1,1447089418616,1447089419186,518,267,0,0,0,0,1,1,1,0001-00-0001-04.png,0005-00-0000-51.png
00000009,929,1,1447089420166,1447089420218,874,438,0,0,0,2,1,1,3,0003-00-0001-41.png,0005-00-0001-91.png
00000009,930,0,1447089421161,1447089421237,862,462,0,0,0,1,2,1,3,0005-00-0001-01.png,0003-00-0001-45.png
00000009,931,0,1447089424351,1447089424367,894,333,0,0,0,0,1,1,1,0001-00-0001-80.png,0005-00-0001-06.png
00000009,932,0,1447089427293,1447089427798,949,329,0,0,0,2,3,1,5,0003-00-0001-85.png,0002-00-0000-40.png
00000009,933,1,1447089430941,1447089431571,1067,295,0,0,0,1,0,1,1,0005-00-0000-44.png,0001-00-0000-52.png
00000009,934,1,1447089432542,1447089433403,504,259,0,0,0,3,4,1,7,0002-00-0000-16.png,0004-00-0000-20.png
00000009,935,1,1447089434389,1447089435349,1037,272,0,0,0,4,3,1,7,0004-00-0001-23.png,0002-00-0000-47.png
00000009,936,1,1447089436256,1447089436287,869,408,0,0,0,3,2,1,5,0002-00-0000-36.png,0003-00-0000-20.png
00000009,937,0,1447089437378,1447089438294,493,240,0,0,0,4,3,1,7,0004-00-0000-03.png,0002-00-0001-41.png
00000009,938,1,1447089441382,1447089441414,886,354,0,0,0,3,2,1,5,0002-00-0000-38.png,0003-00-0000-09.png
00000009,939,1,1447089442358,1447089443229,1035,275,0,0,0,1,0,1,1,0005-00-0001-30.png,0001-00-0000-04.png
00000009,940,0,1447089444123,1447089444159,886,432,0,0,0,0,1,1,1,0001-00-0000-32.png,0005-00-0001-81.png
00000009,941,1,1447089447474,1447089447999,1034,288,0,0,0,2,1,1,3,0003-00-0000-27.png,0005-00-0001-77.png
00000009,942,1,1447089449412,1447089450052,501,270,0,0,0,1,2,1,3,0005-00-0000-40.png,0003-00-0001-30.png
00000009,943,0,1447089451040,1447089452122,965,306,0,0,0,2,3,1,5,0003-00-0000-63.png,0002-00-0001-63.png
00000009,944,1,1447089455134,1447089455662,516,272,0,0,0,3,4,1,7,0002-00-0000-76.png,0004-00-0001-12.png
00000009,945,0,1447089456548,1447089456564,861,459,0,0,0,1,2,1,3,0005-00-0000-03.png,0003-00-0000-70.png
00000009,946,1,1447089460004,1447089460017,866,334,0,0,0,1,0,1,1,0005-00-0000-40.png,0001-00-0001-58.png
00000009,947,0,1447089460933,1447089460983,862,436,0,0,0,2,3,1,5,0003-00-0001-53.png,0002-00-0000-41.png
00000009,948,1,1447089463989,1447089464463,959,330,0,0,0,3,2,1,5,0002-00-0001-15.png,0003-00-0000-11.png
00000009,949,1,1447089465997,1447089466588,513,257,0,0,0,3,4,1,7,0002-00-0000-45.png,0004-00-0000-24.png
00000009,950,1,1447089467558,1447089468639,517,244,0,0,0,0,1,1,1,0001-00-0000-25.png,0005-00-0000-91.png
