subject_id,trial,correct_response,stim_time,response_time,x_coord,y_coord,trial_timeout,timeout_time,interTrial_timeout,left_rank,right_rank,distance,joint_rank,left_image,right_image
00000014,1,0,1446214744791,1446214745301,489,555,0,0,0,1,0,1,1,0005-00-0000-05.png,0001-00-0000-96.png
00000014,2,0,1446214748469,1446214748888,977,463,0,0,0,2,3,1,5,0003-00-0000-55.png,0002-00-0001-05.png
00000014,3,0,1446214751838,1446214752228,422,491,0,0,0,4,3,1,7,0004-00-0001-64.png,0002-00-0000-41.png
00000014,4,1,1446214755295,1446214755739,248,384,0,0,0,3,4,1,7,0002-00-0000-23.png,0004-00-0000-65.png
00000014,5,0,1446214756718,1446214757161,350,436,0,0,0,2,1,1,3,0003-00-0000-98.png,0005-00-0001-01.png
00000014,6,0,1446214760138,1446214760510,384,367,0,0,0,3,2,1,5,0002-00-0001-36.png,0003-00-0001-25.png
00000014,7,1,1446214763448,1446214763480,485,419,0,0,0,1,2,1,3,0005-00-0000-60.png,0003-00-0000-19.png
00000014,8,0,1446214764542,1446214765073,933,470,0,0,0,0,1,1,1,0001-00-0000-24.png,0005-00-0000-10.png
00000014,9,1,1446214768209,1446214768687,971,440,0,0,0,2,1,1,3,0003-00-0000-88.png,0005-00-0000-47.png
00000014,10,0,1446214769571,1446214770014,942,392,0,0,0,3,4,1,7,0002-00-0001-90.png,0004-00-0000-83.png
00000014,11,1,1446214773118,1446214773516,324,397,0,0,0,0,1,1,1,0001-00-0001-00.png,0005-00-0001-43.png
00000014,12,1,1446214774460,1446214775013,369,406,0,0,0,1,2,1,3,0005-00-0000-08.png,0003-00-0000-32.png
00000014,13,0,1446214775971,1446214776466,912,372,0,0,0,2,3,1,5,0003-00-0001-39.png,0002-00-0001-02.png
00000014,14,0,1446214779881,1446214780344,336,424,0,0,0,4,3,1,7,0004-00-0001-04.png,0002-00-0001-30.png
00000014,15,0,1446214783585,1446214784065,388,542,0,0,0,3,2,1,5,0002-00-0001-93.png,0003-00-0001-84.png
00000014,16,1,1446214787088,1446214787524,928,390,0,0,0,1,0,1,1,0005-00-0001-11.png,0001-00-0000-64.png
00000014,17,0,1446214788668,1446214789177,874,544,0,0,0,0,1,1,1,0001-00-0000-34.png,0005-00-0001-90.png
00000014,18,1,1446214792248,1446214792691,326,418,0,0,0,3,4,1,7,0002-00-0001-53.png,0004-00-0000-62.png
00000014,19,0,1446214793587,1446214794239,915,414,0,0,0,2,3,1,5,0003-00-0001-43.png,0002-00-0001-67.png
00000014,20,0,1446214797531,1446214797953,409,420,0,0,0,2,1,1,3,0003-00-0000-34.png,0005-00-0001-11.png
00000014,21,0,1446214801256,1446214801695,338,410,0,0,0,4,3,1,7,0004-00-0000-85.png,0002-00-0001-41.png
00000014,22,0,1446214806467,1446214806921,341,442,0,0,0,3,2,1,5,0002-00-0001-50.png,0003-00-0001-74.png
00000014,23,1,1446214810473,1446214810879,927,497,0,0,0,1,0,1,1,0005-00-0000-05.png,0001-00-0001-93.png
00000014,24,0,1446214811964,1446214812435,958,365,0,0,0,1,2,1,3,0005-00-0000-09.png,0003-00-0000-07.png
00000014,25,0,1446214815441,1446214815808,426,392,0,0,0,1,0,1,1,0005-00-0000-47.png,0001-00-0001-09.png
00000014,26,1,1446214818853,1446214818889,489,435,0,0,0,1,2,1,3,0005-00-0000-20.png,0003-00-0000-29.png
00000014,27,0,1446214819936,1446214820418,315,400,0,0,0,3,2,1,5,0002-00-0000-21.png,0003-00-0001-41.png
00000014,28,0,1446214823461,1446214823947,319,388,0,0,0,4,3,1,7,0004-00-0000-26.png,0002-00-0000-66.png
00000014,29,0,1446214826910,1446214826958,505,409,0,0,0,2,1,1,3,0003-00-0000-92.png,0005-00-0000-14.png
00000014,30,1,1446214829991,1446214830086,467,425,0,0,0,3,4,1,7,0002-00-0000-45.png,0004-00-0000-13.png
00000014,31,0,1446214831057,1446214831588,922,502,0,0,0,2,3,1,5,0003-00-0001-75.png,0002-00-0000-24.png
00000014,32,1,1446214834446,1446214834887,299,384,0,0,0,0,1,1,1,0001-00-0001-95.png,0005-00-0000-07.png
00000014,33,1,1446214835957,1446214836904,324,420,0,0,0,0,1,1,1,0001-00-0001-32.png,0005-00-0001-35.png
00000014,34,0,1446214838262,1446214838707,299,404,0,0,0,3,2,1,5,0002-00-0000-96.png,0003-00-0000-88.png
00000014,35,0,1446214841559,1446214841599,523,419,0,0,0,1,0,1,1,0005-00-0000-80.png,0001-00-0000-70.png
00000014,36,0,1446214844959,1446214845385,380,392,0,0,0,4,3,1,7,0004-00-0001-93.png,0002-00-0001-61.png
00000014,37,0,1446214848348,1446214849242,946,374,0,0,0,1,2,1,3,0005-00-0001-73.png,0003-00-0001-47.png
00000014,38,1,1446214852205,1446214852229,433,397,0,0,0,3,4,1,7,0002-00-0001-52.png,0004-00-0000-22.png
00000014,39,0,1446214853267,1446214853737,907,462,0,0,0,2,3,1,5,0003-00-0001-84.png,0002-00-0000-98.png
00000014,40,1,1446214856588,1446214857168,900,553,0,0,0,2,1,1,3,0003-00-0000-09.png,0005-00-0000-70.png
00000014,41,0,1446214858154,1446214858699,873,361,0,0,0,0,1,1,1,0001-00-0000-18.png,0005-00-0000-92.png
00000014,42,1,1446214861543,1446214861949,901,486,0,0,0,2,1,1,3,0003-00-0000-53.png,0005-00-0001-33.png
00000014,43,1,1446214862904,1446214863307,328,411,0,0,0,3,4,1,7,0002-00-0001-53.png,0004-00-0000-96.png
00000014,44,0,1446214864287,1446214864796,917,490,0,0,0,1,2,1,3,0005-00-0000-27.png,0003-00-0001-09.png
00000014,45,1,1446214867637,1446214868073,927,383,0,0,0,3,2,1,5,0002-00-0000-25.png,0003-00-0000-36.png
00000014,46,0,1446214869018,1446214869562,930,361,0,0,0,2,3,1,5,0003-00-0000-06.png,0002-00-0000-04.png
00000014,47,0,1446214872610,1446214873062,316,378,0,0,0,4,3,1,7,0004-00-0000-41.png,0002-00-0001-67.png
00000014,48,1,1446214876097,1446214876529,950,365,0,0,0,1,0,1,1,0005-00-0000-67.png,0001-00-0000-06.png
00000014,49,0,1446214877499,1446214877935,329,401,0,0,0,4,3,1,7,0004-00-0000-98.png,0002-00-0001-65.png
00000014,50,1,1446214880818,1446214881174,868,342,0,0,0,2,1,1,3,0003-00-0000-36.png,0005-00-0000-87.png
00000014,51,0,1446214882149,1446214882614,952,410,0,0,0,3,4,1,7,0002-00-0001-20.png,0004-00-0000-21.png
00000014,52,1,1446214885637,1446214886105,374,413,0,0,0,1,2,1,3,0005-00-0000-63.png,0003-00-0000-48.png
00000014,53,0,1446214887180,1446214887594,414,424,0,0,0,1,0,1,1,0005-00-0001-75.png,0001-00-0001-09.png
00000014,54,0,1446214890498,1446214891075,313,377,0,0,0,3,2,1,5,0002-00-0000-20.png,0003-00-0000-87.png
00000014,55,1,1446214893947,1446214894051,453,514,0,0,0,0,1,1,1,0001-00-0000-25.png,0005-00-0000-81.png
00000014,56,0,1446214895040,1446214895511,946,498,0,0,0,2,3,1,5,0003-00-0000-57.png,0002-00-0000-94.png
00000014,57,0,1446214898350,1446214899422,349,385,0,0,0,1,0,1,1,0005-00-0000-69.png,0001-00-0001-30.png
00000014,58,1,1446214902446,1446214902976,280,432,0,0,0,3,4,1,7,0002-00-0001-19.png,0004-00-0000-71.png
00000014,59,1,1446214904274,1446214904740,352,425,0,0,0,1,2,1,3,0005-00-0001-32.png,0003-00-0001-51.png
00000014,60,0,1446214905722,1446214906191,345,419,0,0,0,2,1,1,3,0003-00-0001-53.png,0005-00-0001-24.png
00000014,61,1,1446214909114,1446214909715,336,413,0,0,0,0,1,1,1,0001-00-0001-11.png,0005-00-0000-12.png
00000014,62,1,1446214910652,1446214911246,928,415,0,0,0,4,3,1,7,0004-00-0000-71.png,0002-00-0000-86.png
00000014,63,0,1446214912246,1446214912701,951,360,0,0,0,2,3,1,5,0003-00-0000-94.png,0002-00-0000-27.png
00000014,64,1,1446214915755,1446214916237,929,392,0,0,0,3,2,1,5,0002-00-0001-42.png,0003-00-0001-43.png
00000014,65,0,1446214917156,1446214917701,377,488,0,0,0,4,3,1,7,0004-00-0001-41.png,0002-00-0000-63.png
00000014,66,1,1446214920673,1446214921285,289,393,0,0,0,3,4,1,7,0002-00-0000-26.png,0004-00-0001-85.png
00000014,67,0,1446214922334,1446214922812,920,494,0,0,0,2,3,1,5,0003-00-0001-50.png,0002-00-0000-91.png
00000014,68,0,1446214925862,1446214926319,874,356,0,0,0,1,2,1,3,0005-00-0001-02.png,0003-00-0000-73.png
00000014,69,1,1446214929600,1446214930064,925,412,0,0,0,1,0,1,1,0005-00-0000-45.png,0001-00-0001-79.png
00000014,70,0,1446214931029,1446214931507,328,405,0,0,0,3,2,1,5,0002-00-0000-35.png,0003-00-0001-17.png
00000014,71,1,1446214934557,1446214935028,319,402,0,0,0,0,1,1,1,0001-00-0001-30.png,0005-00-0001-84.png
00000014,72,1,1446214936128,1446214936591,898,508,0,0,0,2,1,1,3,0003-00-0000-51.png,0005-00-0000-55.png
00000014,73,1,1446214937579,1446214938092,939,398,0,0,0,2,1,1,3,0003-00-0001-27.png,0005-00-0001-66.png
00000014,74,0,1446214939119,1446214939661,363,419,0,0,0,1,0,1,1,0005-00-0000-97.png,0001-00-0000-37.png
00000014,75,1,1446214942588,1446214943032,319,400,0,0,0,1,2,1,3,0005-00-0000-65.png,0003-00-0000-89.png
00000014,76,1,1446214944075,1446214944654,351,447,0,0,0,0,1,1,1,0001-00-0000-28.png,0005-00-0001-60.png
00000014,77,1,1446214945748,1446214946217,899,464,0,0,0,4,3,1,7,0004-00-0000-51.png,0002-00-0001-71.png
00000014,78,0,1446214947300,1446214947793,937,398,0,0,0,2,3,1,5,0003-00-0000-23.png,0002-00-0001-25.png
00000014,79,0,1446214950729,1446214951190,324,410,0,0,0,3,2,1,5,0002-00-0001-88.png,0003-00-0001-82.png
00000014,80,0,1446214954177,1446214954645,951,410,0,0,0,3,4,1,7,0002-00-0000-43.png,0004-00-0001-50.png
00000014,81,1,1446214957864,1446214958619,904,469,0,0,0,1,0,1,1,0005-00-0001-79.png,0001-00-0000-83.png
00000014,82,0,1446214959574,1446214960103,376,410,0,0,0,4,3,1,7,0004-00-0000-25.png,0002-00-0001-81.png
00000014,83,1,1446214963122,1446214963130,521,410,0,0,0,1,2,1,3,0005-00-0001-27.png,0003-00-0000-74.png
00000014,84,1,1446214964056,1446214965178,371,468,0,0,0,0,1,1,1,0001-00-0000-34.png,0005-00-0000-37.png
00000014,85,1,1446214966203,1446214966748,900,476,0,0,0,2,1,1,3,0003-00-0000-15.png,0005-00-0001-23.png
00000014,86,0,1446214967744,1446214968297,925,462,0,0,0,3,4,1,7,0002-00-0001-85.png,0004-00-0001-10.png
00000014,87,0,1446214971343,1446214971768,362,424,0,0,0,3,2,1,5,0002-00-0001-19.png,0003-00-0000-01.png
00000014,88,0,1446214974812,1446214975257,946,415,0,0,0,2,3,1,5,0003-00-0001-97.png,0002-00-0000-44.png
00000014,89,0,1446214978098,1446214978531,345,405,0,0,0,2,1,1,3,0003-00-0000-37.png,0005-00-0001-66.png
00000014,90,0,1446214981478,1446214981965,317,375,0,0,0,4,3,1,7,0004-00-0000-97.png,0002-00-0000-29.png
00000014,91,1,1446214984887,1446214984911,522,344,0,0,0,3,4,1,7,0002-00-0000-55.png,0004-00-0001-90.png
00000014,92,0,1446214985930,1446214986395,951,384,0,0,0,1,2,1,3,0005-00-0000-85.png,0003-00-0000-16.png
00000014,93,0,1446214989229,1446214989664,927,358,0,0,0,2,3,1,5,0003-00-0000-63.png,0002-00-0001-70.png
00000014,94,0,1446214992769,1446214993225,294,392,0,0,0,3,2,1,5,0002-00-0000-72.png,0003-00-0001-08.png
00000014,95,1,1446214996187,1446214996752,904,472,0,0,0,1,0,1,1,0005-00-0001-69.png,0001-00-0001-42.png
00000014,96,1,1446214997898,1446214998403,358,560,0,0,0,0,1,1,1,0001-00-0001-69.png,0005-00-0000-38.png
00000014,97,1,1446214999458,1446214999916,956,401,0,0,0,4,3,1,7,0004-00-0001-25.png,0002-00-0000-94.png
00000014,98,1,1446215001038,1446215001452,356,414,0,0,0,0,1,1,1,0001-00-0000-86.png,0005-00-0001-08.png
00000014,99,0,1446215002634,1446215003063,401,492,0,0,0,3,2,1,5,0002-00-0000-30.png,0003-00-0000-95.png
00000014,100,1,1446215007301,1446215007849,332,468,0,0,0,3,4,1,7,0002-00-0001-58.png,0004-00-0000-37.png
00000014,101,1,1446215008820,1446215009300,950,411,0,0,0,2,1,1,3,0003-00-0001-27.png,0005-00-0000-76.png
00000014,102,0,1446215010311,1446215010896,398,415,0,0,0,1,0,1,1,0005-00-0001-12.png,0001-00-0000-50.png
00000014,103,0,1446215014316,1446215014742,889,401,0,0,0,2,3,1,5,0003-00-0000-74.png,0002-00-0001-76.png
00000014,104,0,1446215017591,1446215018075,952,401,0,0,0,1,2,1,3,0005-00-0001-65.png,0003-00-0000-65.png
00000014,105,0,1446215021165,1446215021621,959,419,0,0,0,2,3,1,5,0003-00-0000-82.png,0002-00-0001-69.png
00000014,106,1,1446215024572,1446215025054,306,403,0,0,0,1,2,1,3,0005-00-0001-94.png,0003-00-0000-97.png
00000014,107,1,1446215025954,1446215026449,939,398,0,0,0,1,0,1,1,0005-00-0001-36.png,0001-00-0000-40.png
00000014,108,0,1446215027437,1446215027917,939,362,0,0,0,3,4,1,7,0002-00-0001-94.png,0004-00-0001-26.png
00000014,109,0,1446215030834,1446215031337,357,385,0,0,0,3,2,1,5,0002-00-0000-76.png,0003-00-0000-81.png
00000014,110,1,1446215034312,1446215034822,960,403,0,0,0,2,1,1,3,0003-00-0000-35.png,0005-00-0001-57.png
00000014,111,0,1446215035784,1446215036229,354,402,0,0,0,4,3,1,7,0004-00-0001-79.png,0002-00-0000-75.png
00000014,112,1,1446215039640,1446215040330,365,475,0,0,0,0,1,1,1,0001-00-0001-41.png,0005-00-0001-70.png
00000014,113,0,1446215041439,1446215041863,365,419,0,0,0,2,1,1,3,0003-00-0001-96.png,0005-00-0001-20.png
00000014,114,1,1446215045007,1446215045443,344,411,0,0,0,1,2,1,3,0005-00-0000-95.png,0003-00-0000-48.png
00000014,115,1,1446215046489,1446215046978,900,488,0,0,0,1,0,1,1,0005-00-0001-17.png,0001-00-0001-24.png
00000014,116,0,1446215048069,1446215048564,930,401,0,0,0,2,3,1,5,0003-00-0000-55.png,0002-00-0001-27.png
00000014,117,0,1446215051568,1446215051584,510,446,0,0,0,3,2,1,5,0002-00-0000-40.png,0003-00-0001-76.png
00000014,118,1,1446215054638,1446215055191,857,401,0,0,0,4,3,1,7,0004-00-0000-11.png,0002-00-0001-68.png
00000014,119,1,1446215056168,1446215056745,355,437,0,0,0,0,1,1,1,0001-00-0000-26.png,0005-00-0001-93.png
00000014,120,1,1446215057809,1446215058310,385,416,0,0,0,3,4,1,7,0002-00-0001-15.png,0004-00-0000-70.png
00000014,121,0,1446215059391,1446215059874,952,410,0,0,0,0,1,1,1,0001-00-0000-61.png,0005-00-0001-08.png
00000014,122,0,1446215062716,1446215063159,337,396,0,0,0,2,1,1,3,0003-00-0000-02.png,0005-00-0001-84.png
00000014,123,1,1446215066158,1446215066644,951,410,0,0,0,1,0,1,1,0005-00-0001-46.png,0001-00-0000-08.png
00000014,124,0,1446215067578,1446215068017,952,482,0,0,0,3,4,1,7,0002-00-0001-61.png,0004-00-0000-85.png
00000014,125,0,1446215070928,1446215070948,502,397,0,0,0,4,3,1,7,0004-00-0000-10.png,0002-00-0001-13.png
00000014,126,0,1446215074108,1446215074561,343,427,0,0,0,3,2,1,5,0002-00-0001-49.png,0003-00-0000-64.png
00000014,127,0,1446215077756,1446215078187,928,399,0,0,0,2,3,1,5,0003-00-0001-72.png,0002-00-0001-36.png
00000014,128,0,1446215081105,1446215081620,964,406,0,0,0,1,2,1,3,0005-00-0000-16.png,0003-00-0000-41.png
00000014,129,0,1446215084522,1446215084971,930,417,0,0,0,2,3,1,5,0003-00-0001-02.png,0002-00-0001-20.png
00000014,130,0,1446215087983,1446215088497,345,395,0,0,0,1,0,1,1,0005-00-0001-66.png,0001-00-0001-63.png
00000014,131,0,1446215091601,1446215092107,378,391,0,0,0,4,3,1,7,0004-00-0001-71.png,0002-00-0000-51.png
00000014,132,1,1446215095188,1446215095671,350,407,0,0,0,3,4,1,7,0002-00-0000-28.png,0004-00-0001-15.png
00000014,133,1,1446215096686,1446215097137,326,406,0,0,0,0,1,1,1,0001-00-0001-87.png,0005-00-0001-19.png
00000014,134,0,1446215098190,1446215098647,317,425,0,0,0,3,2,1,5,0002-00-0001-63.png,0003-00-0000-45.png
00000014,135,0,1446215101497,1446215101993,326,359,0,0,0,2,1,1,3,0003-00-0000-61.png,0005-00-0001-51.png
00000014,136,0,1446215104978,1446215105514,928,443,0,0,0,1,2,1,3,0005-00-0000-82.png,0003-00-0001-87.png
00000014,137,0,1446215108387,1446215108892,312,366,0,0,0,1,0,1,1,0005-00-0000-72.png,0001-00-0000-72.png
00000014,138,0,1446215111994,1446215112503,915,492,0,0,0,0,1,1,1,0001-00-0000-25.png,0005-00-0000-81.png
00000014,139,0,1446215115411,1446215115836,376,410,0,0,0,2,1,1,3,0003-00-0001-78.png,0005-00-0000-08.png
00000014,140,0,1446215118892,1446215119350,952,383,0,0,0,2,3,1,5,0003-00-0000-81.png,0002-00-0001-08.png
00000014,141,0,1446215122471,1446215123004,350,412,0,0,0,3,2,1,5,0002-00-0001-00.png,0003-00-0001-35.png
00000014,142,1,1446215126028,1446215126467,388,398,0,0,0,3,4,1,7,0002-00-0001-08.png,0004-00-0000-88.png
00000014,143,1,1446215127449,1446215127964,898,484,0,0,0,4,3,1,7,0004-00-0000-84.png,0002-00-0001-98.png
00000014,144,0,1446215128970,1446215129477,930,375,0,0,0,1,2,1,3,0005-00-0001-42.png,0003-00-0001-20.png
00000014,145,1,1446215132408,1446215132871,375,382,0,0,0,0,1,1,1,0001-00-0000-64.png,0005-00-0000-84.png
00000014,146,0,1446215133915,1446215134383,377,512,0,0,0,3,2,1,5,0002-00-0001-34.png,0003-00-0001-88.png
00000014,147,0,1446215137308,1446215137845,341,380,0,0,0,4,3,1,7,0004-00-0000-30.png,0002-00-0000-41.png
00000014,148,0,1446215140715,1446215141237,952,384,0,0,0,3,4,1,7,0002-00-0001-20.png,0004-00-0001-02.png
00000014,149,0,1446215144283,1446215144725,925,387,0,0,0,2,3,1,5,0003-00-0001-78.png,0002-00-0001-84.png
00000014,150,0,1446215147631,1446215148059,952,383,0,0,0,1,2,1,3,0005-00-0001-74.png,0003-00-0001-18.png
00000014,151,0,1446215150962,1446215151414,328,332,0,0,0,2,1,1,3,0003-00-0000-22.png,0005-00-0000-17.png
00000014,152,1,1446215154521,1446215154994,950,382,0,0,0,1,0,1,1,0005-00-0001-41.png,0001-00-0001-46.png
00000014,153,0,1446215156003,1446215156426,334,422,0,0,0,2,1,1,3,0003-00-0001-41.png,0005-00-0000-45.png
00000014,154,1,1446215159442,1446215159446,504,410,0,0,0,0,1,1,1,0001-00-0001-44.png,0005-00-0001-56.png
00000014,155,1,1446215160404,1446215160910,926,411,0,0,0,1,0,1,1,0005-00-0000-06.png,0001-00-0000-87.png
00000014,156,0,1446215161976,1446215162509,897,483,0,0,0,1,2,1,3,0005-00-0001-69.png,0003-00-0001-38.png
00000014,157,1,1446215165585,1446215166029,926,384,0,0,0,4,3,1,7,0004-00-0000-78.png,0002-00-0001-22.png
00000014,158,0,1446215167136,1446215167525,401,384,0,0,0,3,2,1,5,0002-00-0001-25.png,0003-00-0000-20.png
00000014,159,1,1446215170693,1446215171154,315,393,0,0,0,3,4,1,7,0002-00-0000-54.png,0004-00-0001-53.png
00000014,160,0,1446215172163,1446215172698,929,400,0,0,0,2,3,1,5,0003-00-0000-56.png,0002-00-0000-59.png
00000014,161,0,1446215175552,1446215176001,925,476,0,0,0,2,3,1,5,0003-00-0000-80.png,0002-00-0000-81.png
00000014,162,1,1446215179041,1446215179525,457,410,0,0,0,0,1,1,1,0001-00-0000-02.png,0005-00-0001-21.png
00000014,163,1,1446215180533,1446215181006,365,496,0,0,0,3,4,1,7,0002-00-0001-77.png,0004-00-0000-52.png
00000014,164,0,1446215182342,1446215182797,879,521,0,0,0,1,2,1,3,0005-00-0001-74.png,0003-00-0001-30.png
00000014,165,1,1446215185655,1446215186147,954,388,0,0,0,4,3,1,7,0004-00-0000-11.png,0002-00-0001-27.png
00000014,166,0,1446215187120,1446215187569,312,410,0,0,0,3,2,1,5,0002-00-0000-03.png,0003-00-0000-72.png
00000014,167,0,1446215190520,1446215191083,346,395,0,0,0,2,1,1,3,0003-00-0000-08.png,0005-00-0000-56.png
00000014,168,0,1446215194129,1446215194562,323,397,0,0,0,1,0,1,1,0005-00-0001-08.png,0001-00-0000-88.png
00000014,169,0,1446215197831,1446215198257,895,498,0,0,0,2,3,1,5,0003-00-0001-62.png,0002-00-0000-70.png
00000014,170,1,1446215201424,1446215201916,301,389,0,0,0,3,4,1,7,0002-00-0001-53.png,0004-00-0000-93.png
00000014,171,0,1446215202978,1446215203448,921,394,0,0,0,1,2,1,3,0005-00-0001-10.png,0003-00-0000-60.png
00000014,172,1,1446215206556,1446215206991,898,483,0,0,0,1,0,1,1,0005-00-0001-09.png,0001-00-0001-76.png
00000014,173,0,1446215207994,1446215208469,375,512,0,0,0,3,2,1,5,0002-00-0001-11.png,0003-00-0000-58.png
00000014,174,0,1446215211562,1446215212006,342,396,0,0,0,2,1,1,3,0003-00-0001-50.png,0005-00-0001-80.png
00000014,175,0,1446215215338,1446215216228,939,428,0,0,0,0,1,1,1,0001-00-0000-76.png,0005-00-0001-03.png
00000014,176,1,1446215219262,1446215219769,925,490,0,0,0,4,3,1,7,0004-00-0000-98.png,0002-00-0000-22.png
00000014,177,0,1446215220753,1446215221308,906,393,0,0,0,0,1,1,1,0001-00-0000-34.png,0005-00-0000-70.png
00000014,178,0,1446215224220,1446215224646,294,394,0,0,0,1,0,1,1,0005-00-0001-04.png,0001-00-0001-94.png
00000014,179,1,1446215227731,1446215228153,332,410,0,0,0,1,2,1,3,0005-00-0000-20.png,0003-00-0001-76.png
00000014,180,1,1446215229281,1446215229853,396,514,0,0,0,3,4,1,7,0002-00-0001-01.png,0004-00-0001-33.png
00000014,181,0,1446215230941,1446215231388,314,421,0,0,0,3,2,1,5,0002-00-0000-28.png,0003-00-0001-60.png
00000014,182,1,1446215234499,1446215234911,930,401,0,0,0,2,1,1,3,0003-00-0001-88.png,0005-00-0001-39.png
00000014,183,0,1446215236028,1446215236476,330,411,0,0,0,4,3,1,7,0004-00-0000-38.png,0002-00-0000-89.png
00000014,184,1,1446215239609,1446215240040,401,358,0,0,0,2,3,1,5,0003-00-0001-88.png,0002-00-0001-93.png
00000014,185,1,1446215241130,1446215241584,913,502,0,0,0,4,3,1,7,0004-00-0000-10.png,0002-00-0000-88.png
00000014,186,1,1446215242700,1446215243245,376,397,0,0,0,3,4,1,7,0002-00-0000-08.png,0004-00-0001-27.png
00000014,187,0,1446215244408,1446215244882,874,515,0,0,0,1,2,1,3,0005-00-0001-38.png,0003-00-0000-45.png
00000014,188,0,1446215247736,1446215248187,874,344,0,0,0,2,3,1,5,0003-00-0000-17.png,0002-00-0001-06.png
00000014,189,0,1446215251568,1446215251984,376,358,0,0,0,3,2,1,5,0002-00-0000-17.png,0003-00-0000-60.png
00000014,190,0,1446215254864,1446215255490,416,471,0,0,0,1,0,1,1,0005-00-0000-86.png,0001-00-0001-00.png
00000014,191,0,1446215258501,1446215258921,313,423,0,0,0,2,1,1,3,0003-00-0001-49.png,0005-00-0000-08.png
00000014,192,1,1446215261910,1446215262413,401,384,0,0,0,0,1,1,1,0001-00-0000-15.png,0005-00-0001-13.png
00000014,193,0,1446215263450,1446215263976,900,410,0,0,0,2,3,1,5,0003-00-0001-56.png,0002-00-0001-24.png
00000014,194,1,1446215266859,1446215267366,926,358,0,0,0,1,0,1,1,0005-00-0000-33.png,0001-00-0001-46.png
00000014,195,1,1446215268401,1446215268897,875,377,0,0,0,4,3,1,7,0004-00-0000-58.png,0002-00-0001-99.png
00000014,196,0,1446215269941,1446215270359,401,515,0,0,0,3,2,1,5,0002-00-0001-19.png,0003-00-0001-30.png
00000014,197,1,1446215273409,1446215273894,384,407,0,0,0,3,4,1,7,0002-00-0000-71.png,0004-00-0001-72.png
00000014,198,1,1446215274917,1446215275476,869,394,0,0,0,2,1,1,3,0003-00-0000-39.png,0005-00-0001-53.png
00000014,199,1,1446215276611,1446215277044,350,384,0,0,0,0,1,1,1,0001-00-0001-33.png,0005-00-0001-76.png
00000014,200,1,1446215278202,1446215278645,360,452,0,0,0,1,2,1,3,0005-00-0000-73.png,0003-00-0001-70.png
00000014,201,1,1446215279858,1446215280328,401,426,0,0,0,0,1,1,1,0001-00-0001-79.png,0005-00-0001-36.png
00000014,202,0,1446215281502,1446215281923,338,409,0,0,0,3,2,1,5,0002-00-0000-90.png,0003-00-0001-89.png
00000014,203,1,1446215284785,1446215285254,920,389,0,0,0,4,3,1,7,0004-00-0001-86.png,0002-00-0001-52.png
00000014,204,1,1446215286391,1446215286846,890,400,0,0,0,1,0,1,1,0005-00-0001-10.png,0001-00-0001-81.png
00000014,205,0,1446215288067,1446215288627,411,501,0,0,0,2,1,1,3,0003-00-0001-14.png,0005-00-0001-48.png
00000014,206,1,1446215291745,1446215292279,347,422,0,0,0,3,4,1,7,0002-00-0000-02.png,0004-00-0001-07.png
00000014,207,0,1446215293329,1446215293811,951,386,0,0,0,2,3,1,5,0003-00-0000-95.png,0002-00-0001-54.png
00000014,208,1,1446215296807,1446215297399,336,400,0,0,0,1,2,1,3,0005-00-0001-43.png,0003-00-0001-20.png
00000014,209,0,1446215298418,1446215299067,401,395,0,0,0,1,0,1,1,0005-00-0000-03.png,0001-00-0000-62.png
00000014,210,0,1446215301954,1446215302416,350,386,0,0,0,2,1,1,3,0003-00-0000-23.png,0005-00-0000-60.png
00000014,211,1,1446215305355,1446215305836,371,399,0,0,0,0,1,1,1,0001-00-0001-48.png,0005-00-0001-09.png
00000014,212,1,1446215306935,1446215307509,299,410,0,0,0,1,2,1,3,0005-00-0000-51.png,0003-00-0000-27.png
00000014,213,0,1446215308620,1446215309102,345,426,0,0,0,4,3,1,7,0004-00-0000-74.png,0002-00-0000-86.png
00000014,214,0,1446215311994,1446215312428,959,403,0,0,0,2,3,1,5,0003-00-0001-16.png,0002-00-0001-63.png
00000014,215,0,1446215315266,1446215315816,341,384,0,0,0,3,2,1,5,0002-00-0000-04.png,0003-00-0001-53.png
00000014,216,0,1446215318907,1446215319366,901,502,0,0,0,3,4,1,7,0002-00-0000-62.png,0004-00-0001-98.png
00000014,217,1,1446215322478,1446215322914,891,508,0,0,0,1,0,1,1,0005-00-0000-24.png,0001-00-0001-25.png
00000014,218,1,1446215323900,1446215324433,903,413,0,0,0,2,1,1,3,0003-00-0001-49.png,0005-00-0001-38.png
00000014,219,0,1446215325490,1446215325926,346,402,0,0,0,3,2,1,5,0002-00-0001-55.png,0003-00-0001-39.png
00000014,220,1,1446215329000,1446215329544,353,393,0,0,0,1,2,1,3,0005-00-0001-25.png,0003-00-0000-49.png
00000014,221,0,1446215330599,1446215331136,947,420,0,0,0,3,4,1,7,0002-00-0001-07.png,0004-00-0000-89.png
00000014,222,0,1446215333998,1446215334447,927,451,0,0,0,2,3,1,5,0003-00-0001-19.png,0002-00-0000-74.png
00000014,223,1,1446215337448,1446215337993,401,384,0,0,0,0,1,1,1,0001-00-0001-39.png,0005-00-0001-52.png
00000014,224,0,1446215339027,1446215339704,376,436,0,0,0,4,3,1,7,0004-00-0000-28.png,0002-00-0000-74.png
00000014,225,1,1446215342644,1446215343124,410,496,0,0,0,1,2,1,3,0005-00-0001-03.png,0003-00-0001-97.png
00000014,226,1,1446215344216,1446215345113,951,386,0,0,0,2,1,1,3,0003-00-0001-98.png,0005-00-0001-03.png
00000014,227,1,1446215346283,1446215346779,902,413,0,0,0,1,0,1,1,0005-00-0001-23.png,0001-00-0001-55.png
00000014,228,0,1446215347863,1446215348359,901,442,0,0,0,2,3,1,5,0003-00-0000-28.png,0002-00-0000-02.png
00000014,229,0,1446215351188,1446215351671,311,375,0,0,0,3,2,1,5,0002-00-0000-06.png,0003-00-0001-48.png
00000014,230,1,1446215354770,1446215355217,897,439,0,0,0,4,3,1,7,0004-00-0000-37.png,0002-00-0001-15.png
00000014,231,1,1446215356191,1446215356600,325,410,0,0,0,0,1,1,1,0001-00-0000-99.png,0005-00-0000-38.png
00000014,232,0,1446215357739,1446215358258,900,476,0,0,0,3,4,1,7,0002-00-0001-95.png,0004-00-0000-12.png
00000014,233,1,1446215361429,1446215361910,320,424,0,0,0,0,1,1,1,0001-00-0001-71.png,0005-00-0000-88.png
00000014,234,0,1446215362910,1446215363342,376,410,0,0,0,3,2,1,5,0002-00-0001-54.png,0003-00-0000-53.png
00000014,235,1,1446215366184,1446215366849,928,494,0,0,0,1,0,1,1,0005-00-0000-64.png,0001-00-0000-84.png
00000014,236,0,1446215367871,1446215368355,882,522,0,0,0,2,3,1,5,0003-00-0001-75.png,0002-00-0000-72.png
00000014,237,0,1446215371278,1446215371738,881,474,0,0,0,3,4,1,7,0002-00-0000-43.png,0004-00-0001-94.png
00000014,238,1,1446215374827,1446215375270,900,502,0,0,0,4,3,1,7,0004-00-0000-55.png,0002-00-0001-56.png
00000014,239,0,1446215376298,1446215376860,901,383,0,0,0,1,2,1,3,0005-00-0000-68.png,0003-00-0000-33.png
00000014,240,0,1446215379798,1446215379822,507,307,0,0,0,2,1,1,3,0003-00-0000-81.png,0005-00-0001-78.png
00000014,241,0,1446215382918,1446215383554,891,481,0,0,0,1,2,1,3,0005-00-0000-89.png,0003-00-0001-36.png
00000014,242,1,1446215386431,1446215386994,376,489,0,0,0,3,4,1,7,0002-00-0001-76.png,0004-00-0000-25.png
00000014,243,1,1446215388007,1446215388502,952,407,0,0,0,4,3,1,7,0004-00-0000-24.png,0002-00-0001-77.png
00000014,244,1,1446215389578,1446215390041,927,408,0,0,0,2,1,1,3,0003-00-0001-67.png,0005-00-0000-95.png
00000014,245,0,1446215391188,1446215391742,325,434,0,0,0,3,2,1,5,0002-00-0000-00.png,0003-00-0001-59.png
00000014,246,0,1446215394745,1446215395165,952,384,0,0,0,0,1,1,1,0001-00-0001-48.png,0005-00-0000-35.png
00000014,247,1,1446215398275,1446215398713,927,435,0,0,0,1,0,1,1,0005-00-0000-02.png,0001-00-0000-99.png
00000014,248,0,1446215399814,1446215400341,953,371,0,0,0,2,3,1,5,0003-00-0000-84.png,0002-00-0000-52.png
00000014,249,1,1446215403182,1446215403627,350,403,0,0,0,0,1,1,1,0001-00-0000-08.png,0005-00-0001-70.png
00000014,250,0,1446215404635,1446215405205,949,409,0,0,0,3,4,1,7,0002-00-0001-87.png,0004-00-0001-75.png
00000014,251,0,1446215408334,1446215408788,938,422,0,0,0,2,3,1,5,0003-00-0001-17.png,0002-00-0000-33.png
00000014,252,1,1446215411703,1446215412252,401,398,0,0,0,1,2,1,3,0005-00-0001-38.png,0003-00-0000-45.png
00000014,253,0,1446215413293,1446215413767,365,436,0,0,0,3,2,1,5,0002-00-0001-58.png,0003-00-0000-69.png
00000014,254,0,1446215416902,1446215417352,401,384,0,0,0,2,1,1,3,0003-00-0000-06.png,0005-00-0001-51.png
00000014,255,1,1446215420507,1446215420942,875,502,0,0,0,4,3,1,7,0004-00-0000-96.png,0002-00-0000-29.png
00000014,256,0,1446215422079,1446215422542,342,453,0,0,0,1,0,1,1,0005-00-0000-84.png,0001-00-0000-90.png
00000014,257,0,1446215425528,1446215425974,966,371,0,0,0,3,4,1,7,0002-00-0000-81.png,0004-00-0000-87.png
00000014,258,1,1446215428927,1446215429370,386,403,0,0,0,0,1,1,1,0001-00-0001-68.png,0005-00-0000-86.png
00000014,259,0,1446215430497,1446215431081,931,475,0,0,0,2,3,1,5,0003-00-0001-93.png,0002-00-0000-50.png
00000014,260,1,1446215433956,1446215434415,371,447,0,0,0,1,2,1,3,0005-00-0001-74.png,0003-00-0000-17.png
00000014,261,0,1446215435527,1446215436048,350,398,0,0,0,4,3,1,7,0004-00-0000-92.png,0002-00-0001-39.png
00000014,262,1,1446215439194,1446215439590,927,424,0,0,0,1,0,1,1,0005-00-0000-00.png,0001-00-0001-33.png
00000014,263,1,1446215440639,1446215441119,926,409,0,0,0,2,1,1,3,0003-00-0001-73.png,0005-00-0001-62.png
00000014,264,0,1446215442135,1446215442537,354,425,0,0,0,3,2,1,5,0002-00-0000-59.png,0003-00-0000-21.png
00000014,265,1,1446215445634,1446215446154,387,371,0,0,0,3,4,1,7,0002-00-0000-30.png,0004-00-0000-41.png
00000014,266,1,1446215447264,1446215447719,891,503,0,0,0,1,0,1,1,0005-00-0000-60.png,0001-00-0001-05.png
00000014,267,1,1446215448824,1446215449283,924,429,0,0,0,4,3,1,7,0004-00-0000-72.png,0002-00-0001-76.png
00000014,268,0,1446215450456,1446215450989,898,486,0,0,0,0,1,1,1,0001-00-0001-18.png,0005-00-0001-68.png
00000014,269,0,1446215453969,1446215454437,925,385,0,0,0,2,3,1,5,0003-00-0000-86.png,0002-00-0001-18.png
00000014,270,1,1446215457279,1446215457727,370,415,0,0,0,1,2,1,3,0005-00-0000-28.png,0003-00-0001-19.png
00000014,271,0,1446215458843,1446215459393,357,408,0,0,0,3,2,1,5,0002-00-0001-80.png,0003-00-0000-58.png
00000014,272,0,1446215462406,1446215462823,421,418,0,0,0,2,1,1,3,0003-00-0001-38.png,0005-00-0000-37.png
00000014,273,1,1446215465788,1446215466266,882,500,0,0,0,2,1,1,3,0003-00-0001-59.png,0005-00-0000-66.png
00000014,274,1,1446215467370,1446215467877,926,398,0,0,0,4,3,1,7,0004-00-0001-90.png,0002-00-0000-21.png
00000014,275,0,1446215468911,1446215469347,358,420,0,0,0,3,2,1,5,0002-00-0000-92.png,0003-00-0001-39.png
00000014,276,0,1446215472398,1446215472888,905,428,0,0,0,1,2,1,3,0005-00-0001-85.png,0003-00-0001-99.png
00000014,277,1,1446215475797,1446215476267,947,417,0,0,0,1,0,1,1,0005-00-0000-69.png,0001-00-0001-82.png
00000014,278,1,1446215477278,1446215477713,326,434,0,0,0,3,4,1,7,0002-00-0000-59.png,0004-00-0001-20.png
00000014,279,0,1446215478973,1446215479407,875,476,0,0,0,2,3,1,5,0003-00-0001-97.png,0002-00-0001-06.png
00000014,280,0,1446215482475,1446215482856,871,365,0,0,0,0,1,1,1,0001-00-0000-46.png,0005-00-0001-25.png
00000014,281,0,1446215486262,1446215486727,928,416,0,0,0,2,3,1,5,0003-00-0000-05.png,0002-00-0001-64.png
00000014,282,1,1446215489640,1446215490071,361,413,0,0,0,0,1,1,1,0001-00-0000-66.png,0005-00-0000-17.png
00000014,283,0,1446215491182,1446215491565,383,427,0,0,0,3,2,1,5,0002-00-0000-91.png,0003-00-0000-05.png
00000014,284,1,1446215494400,1446215494879,926,410,0,0,0,4,3,1,7,0004-00-0000-52.png,0002-00-0000-46.png
00000014,285,1,1446215495884,1446215496504,914,449,0,0,0,1,0,1,1,0005-00-0000-15.png,0001-00-0001-71.png
00000014,286,0,1446215497678,1446215498216,938,398,0,0,0,3,4,1,7,0002-00-0001-07.png,0004-00-0000-40.png
00000014,287,1,1446215501196,1446215501858,379,376,0,0,0,1,2,1,3,0005-00-0001-77.png,0003-00-0000-19.png
00000014,288,1,1446215502910,1446215503404,903,415,0,0,0,2,1,1,3,0003-00-0001-02.png,0005-00-0000-54.png
00000014,289,1,1446215504565,1446215505065,401,529,0,0,0,1,2,1,3,0005-00-0000-55.png,0003-00-0000-42.png
00000014,290,0,1446215506210,1446215506729,350,436,0,0,0,1,0,1,1,0005-00-0001-61.png,0001-00-0000-37.png
00000014,291,0,1446215509717,1446215510214,905,427,0,0,0,3,4,1,7,0002-00-0000-51.png,0004-00-0001-88.png
00000014,292,0,1446215513077,1446215513591,332,355,0,0,0,3,2,1,5,0002-00-0000-87.png,0003-00-0001-83.png
00000014,293,0,1446215516635,1446215517064,876,501,0,0,0,2,3,1,5,0003-00-0000-92.png,0002-00-0000-31.png
00000014,294,1,1446215520084,1446215520608,392,534,0,0,0,0,1,1,1,0001-00-0001-83.png,0005-00-0001-86.png
00000014,295,0,1446215521592,1446215522011,363,554,0,0,0,2,1,1,3,0003-00-0001-26.png,0005-00-0001-01.png
00000014,296,1,1446215525104,1446215525556,913,397,0,0,0,4,3,1,7,0004-00-0000-02.png,0002-00-0001-62.png
00000014,297,0,1446215526685,1446215527247,930,402,0,0,0,3,4,1,7,0002-00-0001-43.png,0004-00-0000-43.png
00000014,298,0,1446215530150,1446215530686,407,526,0,0,0,2,1,1,3,0003-00-0000-00.png,0005-00-0000-10.png
00000014,299,0,1446215533560,1446215534004,389,490,0,0,0,3,2,1,5,0002-00-0001-52.png,0003-00-0001-05.png
00000014,300,0,1446215537089,1446215537667,335,406,0,0,0,1,0,1,1,0005-00-0001-99.png,0001-00-0000-80.png
00000014,301,0,1446215540736,1446215541315,400,384,0,0,0,4,3,1,7,0004-00-0000-00.png,0002-00-0001-40.png
00000014,302,0,1446215544362,1446215544977,940,391,0,0,0,2,3,1,5,0003-00-0000-78.png,0002-00-0000-73.png
00000014,303,1,1446215547967,1446215548445,375,415,0,0,0,1,2,1,3,0005-00-0001-99.png,0003-00-0000-02.png
00000014,304,0,1446215549526,1446215550104,875,424,0,0,0,0,1,1,1,0001-00-0000-54.png,0005-00-0000-03.png
00000014,305,1,1446215553059,1446215553584,348,400,0,0,0,0,1,1,1,0001-00-0001-81.png,0005-00-0001-18.png
00000014,306,0,1446215554722,1446215555163,331,434,0,0,0,2,1,1,3,0003-00-0000-24.png,0005-00-0000-44.png
00000014,307,0,1446215558016,1446215558729,421,365,0,0,0,1,0,1,1,0005-00-0000-24.png,0001-00-0000-01.png
00000014,308,1,1446215561694,1446215562262,325,384,0,0,0,1,2,1,3,0005-00-0001-16.png,0003-00-0001-90.png
00000014,309,0,1446215563266,1446215563733,388,528,0,0,0,3,2,1,5,0002-00-0000-12.png,0003-00-0001-80.png
00000014,310,0,1446215566593,1446215566604,504,369,0,0,0,4,3,1,7,0004-00-0000-09.png,0002-00-0000-67.png
00000014,311,0,1446215569589,1446215569982,925,410,0,0,0,2,3,1,5,0003-00-0001-84.png,0002-00-0000-96.png
00000014,312,0,1446215573096,1446215573579,943,441,0,0,0,3,4,1,7,0002-00-0000-33.png,0004-00-0000-15.png
00000014,313,0,1446215576642,1446215577120,366,392,0,0,0,1,0,1,1,0005-00-0000-50.png,0001-00-0001-81.png
00000014,314,1,1446215580000,1446215580631,338,393,0,0,0,3,4,1,7,0002-00-0000-88.png,0004-00-0001-74.png
00000014,315,1,1446215581625,1446215582103,952,371,0,0,0,4,3,1,7,0004-00-0000-32.png,0002-00-0000-52.png
00000014,316,0,1446215583302,1446215583781,868,484,0,0,0,2,3,1,5,0003-00-0001-06.png,0002-00-0001-69.png
00000014,317,0,1446215586750,1446215587127,362,398,0,0,0,2,1,1,3,0003-00-0001-56.png,0005-00-0001-43.png
00000014,318,0,1446215590080,1446215590729,861,368,0,0,0,1,2,1,3,0005-00-0000-18.png,0003-00-0000-51.png
00000014,319,0,1446215593748,1446215594172,318,399,0,0,0,3,2,1,5,0002-00-0000-27.png,0003-00-0001-56.png
00000014,320,0,1446215597097,1446215597556,904,363,0,0,0,0,1,1,1,0001-00-0001-68.png,0005-00-0001-69.png
00000014,321,0,1446215600575,1446215601028,898,508,0,0,0,2,3,1,5,0003-00-0001-88.png,0002-00-0000-56.png
00000014,322,0,1446215603964,1446215604035,504,476,0,0,0,3,2,1,5,0002-00-0001-84.png,0003-00-0001-88.png
00000014,323,0,1446215608983,1446215609539,392,378,0,0,0,2,1,1,3,0003-00-0001-55.png,0005-00-0001-93.png
00000014,324,0,1446215612590,1446215613028,340,417,0,0,0,4,3,1,7,0004-00-0001-70.png,0002-00-0000-62.png
00000014,325,1,1446215616006,1446215616421,340,415,0,0,0,0,1,1,1,0001-00-0000-63.png,0005-00-0001-18.png
00000014,326,1,1446215617420,1446215617976,366,423,0,0,0,1,2,1,3,0005-00-0000-78.png,0003-00-0000-11.png
00000014,327,0,1446215619051,1446215619548,898,483,0,0,0,3,4,1,7,0002-00-0001-66.png,0004-00-0001-44.png
00000014,328,1,1446215622428,1446215622914,952,383,0,0,0,1,0,1,1,0005-00-0001-43.png,0001-00-0000-84.png
00000014,329,0,1446215623950,1446215624454,928,389,0,0,0,1,2,1,3,0005-00-0001-87.png,0003-00-0001-31.png
00000014,330,0,1446215627509,1446215627962,376,384,0,0,0,3,2,1,5,0002-00-0000-51.png,0003-00-0000-02.png
00000014,331,1,1446215631028,1446215631882,314,395,0,0,0,3,4,1,7,0002-00-0000-18.png,0004-00-0000-94.png
00000014,332,0,1446215633005,1446215633520,387,424,0,0,0,1,0,1,1,0005-00-0000-29.png,0001-00-0000-01.png
00000014,333,1,1446215636641,1446215637066,369,436,0,0,0,0,1,1,1,0001-00-0000-86.png,0005-00-0001-45.png
00000014,334,0,1446215638141,1446215638683,392,429,0,0,0,2,1,1,3,0003-00-0001-05.png,0005-00-0001-30.png
00000014,335,0,1446215641722,1446215642168,901,410,0,0,0,2,3,1,5,0003-00-0000-91.png,0002-00-0000-96.png
00000014,336,0,1446215645181,1446215645719,358,402,0,0,0,4,3,1,7,0004-00-0001-72.png,0002-00-0001-80.png
00000014,337,1,1446215648888,1446215649390,438,534,0,0,0,0,1,1,1,0001-00-0000-13.png,0005-00-0001-85.png
00000014,338,0,1446215650417,1446215650902,923,406,0,0,0,2,3,1,5,0003-00-0000-67.png,0002-00-0001-27.png
00000014,339,0,1446215653806,1446215654237,324,424,0,0,0,3,2,1,5,0002-00-0001-86.png,0003-00-0000-06.png
00000014,340,0,1446215657257,1446215657281,503,422,0,0,0,1,0,1,1,0005-00-0001-77.png,0001-00-0001-33.png
00000014,341,1,1446215660384,1446215660784,928,414,0,0,0,2,1,1,3,0003-00-0000-81.png,0005-00-0000-15.png
00000014,342,1,1446215661748,1446215662372,395,459,0,0,0,3,4,1,7,0002-00-0001-31.png,0004-00-0000-16.png
00000014,343,1,1446215663368,1446215663924,367,428,0,0,0,1,2,1,3,0005-00-0001-09.png,0003-00-0001-62.png
00000014,344,0,1446215665038,1446215665567,299,436,0,0,0,4,3,1,7,0004-00-0001-88.png,0002-00-0000-78.png
00000014,345,1,1446215680042,1446215680533,376,358,0,0,0,1,2,1,3,0005-00-0001-86.png,0003-00-0001-88.png
00000014,346,0,1446215681643,1446215682333,389,371,0,0,0,3,2,1,5,0002-00-0001-59.png,0003-00-0001-24.png
00000014,347,1,1446215686483,1446215686915,901,442,0,0,0,1,0,1,1,0005-00-0001-43.png,0001-00-0000-60.png
00000014,348,0,1446215687853,1446215688359,925,412,0,0,0,3,4,1,7,0002-00-0001-29.png,0004-00-0000-82.png
00000014,349,0,1446215691691,1446215692081,387,449,0,0,0,4,3,1,7,0004-00-0001-64.png,0002-00-0000-51.png
00000014,350,0,1446215695478,1446215695991,927,408,0,0,0,2,3,1,5,0003-00-0001-23.png,0002-00-0000-06.png
00000014,351,0,1446215699483,1446215699935,354,441,0,0,0,2,1,1,3,0003-00-0001-48.png,0005-00-0000-13.png
00000014,352,0,1446215713551,1446215714071,904,492,0,0,0,0,1,1,1,0001-00-0001-92.png,0005-00-0001-47.png
00000014,353,0,1446215717353,1446215717882,371,411,0,0,0,2,1,1,3,0003-00-0001-51.png,0005-00-0001-13.png
00000014,354,1,1446215721276,1446215721705,924,411,0,0,0,1,0,1,1,0005-00-0000-70.png,0001-00-0001-05.png
00000014,355,0,1446215722857,1446215723332,873,413,0,0,0,1,2,1,3,0005-00-0001-18.png,0003-00-0000-04.png
00000014,356,0,1446215728143,1446215728579,923,469,0,0,0,3,4,1,7,0002-00-0001-71.png,0004-00-0001-98.png
00000014,357,0,1446215732983,1446215733446,452,553,0,0,0,4,3,1,7,0004-00-0001-79.png,0002-00-0000-73.png
00000014,358,0,1446215736651,1446215737047,307,446,0,0,0,3,2,1,5,0002-00-0001-02.png,0003-00-0001-70.png
00000014,359,1,1446215740448,1446215740881,366,452,0,0,0,0,1,1,1,0001-00-0001-62.png,0005-00-0000-58.png
00000014,360,0,1446215741908,1446215742402,874,510,0,0,0,2,3,1,5,0003-00-0000-17.png,0002-00-0001-10.png
00000014,361,0,1446215745466,1446215746052,397,510,0,0,0,1,0,1,1,0005-00-0000-39.png,0001-00-0001-29.png
00000014,362,0,1446215749083,1446215749507,952,360,0,0,0,2,3,1,5,0003-00-0001-74.png,0002-00-0001-12.png
00000014,363,1,1446215752800,1446215753237,434,468,0,0,0,1,2,1,3,0005-00-0000-13.png,0003-00-0001-36.png
00000014,364,1,1446215754162,1446215754870,435,419,0,0,0,0,1,1,1,0001-00-0000-61.png,0005-00-0000-42.png
00000014,365,0,1446215755884,1446215756340,443,441,0,0,0,2,1,1,3,0003-00-0001-27.png,0005-00-0000-97.png
00000014,366,1,1446215759522,1446215760009,364,356,0,0,0,3,4,1,7,0002-00-0001-32.png,0004-00-0001-28.png
00000014,367,0,1446215760961,1446215761387,366,426,0,0,0,3,2,1,5,0002-00-0001-71.png,0003-00-0001-81.png
00000014,368,1,1446215764220,1446215764763,877,404,0,0,0,4,3,1,7,0004-00-0001-04.png,0002-00-0001-79.png
00000014,369,0,1446215765763,1446215766231,921,394,0,0,0,2,3,1,5,0003-00-0000-53.png,0002-00-0001-01.png
00000014,370,0,1446215769210,1446215769624,385,528,0,0,0,3,2,1,5,0002-00-0000-26.png,0003-00-0001-07.png
00000014,371,0,1446215772651,1446215773076,881,377,0,0,0,3,4,1,7,0002-00-0000-15.png,0004-00-0000-60.png
00000014,372,0,1446215776069,1446215776571,386,530,0,0,0,1,0,1,1,0005-00-0000-59.png,0001-00-0000-07.png
00000014,373,0,1446215779545,1446215779980,308,378,0,0,0,2,1,1,3,0003-00-0001-82.png,0005-00-0001-83.png
00000014,374,1,1446215782812,1446215783500,389,371,0,0,0,0,1,1,1,0001-00-0001-63.png,0005-00-0000-96.png
00000014,375,0,1446215784418,1446215784902,921,393,0,0,0,1,2,1,3,0005-00-0001-38.png,0003-00-0001-39.png
00000014,376,1,1446215787826,1446215788293,882,354,0,0,0,4,3,1,7,0004-00-0000-09.png,0002-00-0000-74.png
00000014,377,1,1446215789206,1446215789653,376,540,0,0,0,0,1,1,1,0001-00-0000-86.png,0005-00-0001-96.png
00000014,378,0,1446215790688,1446215791183,870,497,0,0,0,2,3,1,5,0003-00-0000-31.png,0002-00-0001-51.png
00000014,379,1,1446215794307,1446215795039,460,525,0,0,0,1,2,1,3,0005-00-0001-34.png,0003-00-0001-33.png
00000014,380,0,1446215795987,1446215796373,413,423,0,0,0,2,1,1,3,0003-00-0000-87.png,0005-00-0001-76.png
00000014,381,1,1446215799256,1446215799729,957,411,0,0,0,4,3,1,7,0004-00-0001-90.png,0002-00-0000-53.png
00000014,382,0,1446215800667,1446215801180,931,427,0,0,0,3,4,1,7,0002-00-0001-49.png,0004-00-0001-56.png
00000014,383,0,1446215804336,1446215804760,376,436,0,0,0,3,2,1,5,0002-00-0000-55.png,0003-00-0001-51.png
00000014,384,0,1446215807625,1446215808090,372,425,0,0,0,1,0,1,1,0005-00-0001-16.png,0001-00-0000-31.png
00000014,385,1,1446215810943,1446215811380,946,368,0,0,0,4,3,1,7,0004-00-0001-97.png,0002-00-0000-22.png
00000014,386,0,1446215812314,1446215812948,901,442,0,0,0,0,1,1,1,0001-00-0000-81.png,0005-00-0000-77.png
00000014,387,0,1446215816072,1446215816556,401,462,0,0,0,2,1,1,3,0003-00-0000-46.png,0005-00-0000-32.png
00000014,388,0,1446215819470,1446215820113,918,467,0,0,0,1,2,1,3,0005-00-0000-62.png,0003-00-0000-89.png
00000014,389,1,1446215823007,1446215823709,372,393,0,0,0,3,4,1,7,0002-00-0000-56.png,0004-00-0000-46.png
00000014,390,0,1446215824734,1446215825600,272,423,0,0,0,3,2,1,5,0002-00-0000-07.png,0003-00-0000-21.png
00000014,391,0,1446215828635,1446215829105,927,413,0,0,0,2,3,1,5,0003-00-0000-91.png,0002-00-0001-87.png
00000014,392,1,1446215832192,1446215832633,874,516,0,0,0,1,0,1,1,0005-00-0001-34.png,0001-00-0001-41.png
00000014,393,0,1446215833612,1446215834148,340,413,0,0,0,4,3,1,7,0004-00-0001-90.png,0002-00-0001-12.png
00000014,394,0,1446215837202,1446215837798,418,519,0,0,0,1,0,1,1,0005-00-0001-67.png,0001-00-0000-00.png
00000014,395,0,1446215840687,1446215841088,966,387,0,0,0,0,1,1,1,0001-00-0001-73.png,0005-00-0001-04.png
00000014,396,1,1446215844389,1446215844878,395,410,0,0,0,3,4,1,7,0002-00-0001-16.png,0004-00-0000-22.png
00000014,397,0,1446215845858,1446215846406,356,437,0,0,0,3,2,1,5,0002-00-0001-23.png,0003-00-0000-99.png
00000014,398,1,1446215849703,1446215850140,912,447,0,0,0,2,1,1,3,0003-00-0000-35.png,0005-00-0001-82.png
00000014,399,1,1446215851083,1446215851647,344,435,0,0,0,1,2,1,3,0005-00-0001-92.png,0003-00-0001-28.png
00000014,400,0,1446215852767,1446215853280,905,436,0,0,0,2,3,1,5,0003-00-0000-16.png,0002-00-0001-22.png
00000014,401,0,1446215856403,1446215856939,872,535,0,0,0,1,2,1,3,0005-00-0000-91.png,0003-00-0001-08.png
00000014,402,0,1446215859931,1446215860645,361,397,0,0,0,1,0,1,1,0005-00-0001-89.png,0001-00-0000-72.png
00000014,403,1,1446215863718,1446215864205,910,447,0,0,0,3,2,1,5,0002-00-0001-87.png,0003-00-0001-50.png
00000014,404,0,1446215865139,1446215865617,927,408,0,0,0,2,3,1,5,0003-00-0000-59.png,0002-00-0001-43.png
00000014,405,1,1446215868473,1446215868999,369,421,0,0,0,0,1,1,1,0001-00-0000-19.png,0005-00-0000-81.png
00000014,406,0,1446215870008,1446215870430,352,433,0,0,0,2,1,1,3,0003-00-0000-00.png,0005-00-0000-79.png
00000014,407,0,1446215873447,1446215873463,505,412,0,0,0,4,3,1,7,0004-00-0001-32.png,0002-00-0000-62.png
00000014,408,1,1446215876668,1446215877110,400,394,0,0,0,3,4,1,7,0002-00-0000-14.png,0004-00-0000-27.png
00000014,409,1,1446215878180,1446215878681,920,411,0,0,0,1,0,1,1,0005-00-0000-79.png,0001-00-0001-79.png
00000014,410,1,1446215879739,1446215880155,365,421,0,0,0,3,4,1,7,0002-00-0000-07.png,0004-00-0000-53.png
00000014,411,0,1446215881336,1446215881835,901,425,0,0,0,2,3,1,5,0003-00-0000-29.png,0002-00-0001-22.png
00000014,412,0,1446215884851,1446215885337,427,411,0,0,0,3,2,1,5,0002-00-0001-05.png,0003-00-0000-90.png
00000014,413,1,1446215888416,1446215889238,897,521,0,0,0,2,1,1,3,0003-00-0001-37.png,0005-00-0000-03.png
00000014,414,1,1446215890681,1446215891093,920,420,0,0,0,4,3,1,7,0004-00-0001-06.png,0002-00-0000-40.png
00000014,415,1,1446215892123,1446215892822,396,383,0,0,0,1,2,1,3,0005-00-0001-45.png,0003-00-0001-86.png
00000014,416,1,1446215893962,1446215894354,365,422,0,0,0,0,1,1,1,0001-00-0001-47.png,0005-00-0000-32.png
00000014,417,1,1446215895591,1446215896120,899,423,0,0,0,2,1,1,3,0003-00-0000-35.png,0005-00-0001-67.png
00000014,418,0,1446215897242,1446215898147,875,371,0,0,0,2,3,1,5,0003-00-0001-85.png,0002-00-0000-28.png
00000014,419,1,1446215901275,1446215901812,332,408,0,0,0,0,1,1,1,0001-00-0000-92.png,0005-00-0001-10.png
00000014,420,0,1446215902925,1446215903439,351,460,0,0,0,1,0,1,1,0005-00-0000-01.png,0001-00-0000-60.png
00000014,421,1,1446215906414,1446215906926,401,449,0,0,0,1,2,1,3,0005-00-0001-85.png,0003-00-0000-32.png
00000014,422,0,1446215908005,1446215908600,396,442,0,0,0,3,2,1,5,0002-00-0001-24.png,0003-00-0001-35.png
00000014,423,0,1446215911541,1446215911994,931,443,0,0,0,3,4,1,7,0002-00-0001-66.png,0004-00-0001-45.png
00000014,424,0,1446215914913,1446215915438,328,401,0,0,0,4,3,1,7,0004-00-0000-30.png,0002-00-0000-68.png
00000014,425,1,1446215918665,1446215919155,391,407,0,0,0,3,4,1,7,0002-00-0000-11.png,0004-00-0000-45.png
00000014,426,0,1446215920149,1446215920604,901,424,0,0,0,2,3,1,5,0003-00-0000-52.png,0002-00-0000-74.png
00000014,427,0,1446215923638,1446215924078,363,397,0,0,0,4,3,1,7,0004-00-0001-45.png,0002-00-0000-47.png
00000014,428,1,1446215926996,1446215927599,920,410,0,0,0,2,1,1,3,0003-00-0001-24.png,0005-00-0001-80.png
00000014,429,0,1446215928648,1446215929292,325,396,0,0,0,1,0,1,1,0005-00-0001-54.png,0001-00-0001-74.png
00000014,430,0,1446215932254,1446215932673,413,424,0,0,0,3,2,1,5,0002-00-0000-64.png,0003-00-0000-86.png
00000014,431,1,1446215935564,1446215935994,376,436,0,0,0,1,2,1,3,0005-00-0001-42.png,0003-00-0001-62.png
00000014,432,1,1446215937065,1446215937577,395,466,0,0,0,0,1,1,1,0001-00-0001-00.png,0005-00-0000-89.png
00000014,433,0,1446215938766,1446215939238,339,439,0,0,0,2,1,1,3,0003-00-0001-77.png,0005-00-0000-98.png
00000014,434,1,1446215942254,1446215942658,383,446,0,0,0,3,4,1,7,0002-00-0000-92.png,0004-00-0000-37.png
00000014,435,0,1446215944121,1446215944557,317,427,0,0,0,3,2,1,5,0002-00-0001-19.png,0003-00-0001-52.png
00000014,436,1,1446215947650,1446215948151,925,411,0,0,0,1,0,1,1,0005-00-0000-35.png,0001-00-0000-87.png
00000014,437,0,1446215949171,1446215949745,325,422,0,0,0,4,3,1,7,0004-00-0000-97.png,0002-00-0001-82.png
00000014,438,1,1446215952633,1446215953059,361,420,0,0,0,0,1,1,1,0001-00-0000-15.png,0005-00-0001-77.png
00000014,439,0,1446215954259,1446215954728,902,416,0,0,0,1,2,1,3,0005-00-0000-05.png,0003-00-0001-53.png
00000014,440,0,1446215958185,1446215958609,922,446,0,0,0,2,3,1,5,0003-00-0000-52.png,0002-00-0001-10.png
00000014,441,1,1446215961820,1446215962255,868,415,0,0,0,4,3,1,7,0004-00-0001-27.png,0002-00-0001-04.png
00000014,442,0,1446215963393,1446215963959,325,436,0,0,0,1,0,1,1,0005-00-0001-10.png,0001-00-0001-05.png
00000014,443,0,1446215967020,1446215967634,920,485,0,0,0,2,3,1,5,0003-00-0000-85.png,0002-00-0000-96.png
00000014,444,0,1446215970638,1446215971178,943,494,0,0,0,3,4,1,7,0002-00-0000-92.png,0004-00-0001-93.png
00000014,445,0,1446215974196,1446215974697,363,429,0,0,0,2,1,1,3,0003-00-0001-00.png,0005-00-0000-40.png
00000014,446,0,1446215977654,1446215978077,305,382,0,0,0,3,2,1,5,0002-00-0001-39.png,0003-00-0001-10.png
00000014,447,1,1446215981191,1446215981618,319,411,0,0,0,0,1,1,1,0001-00-0000-06.png,0005-00-0001-76.png
00000014,448,1,1446215982634,1446215983241,289,541,0,0,0,1,2,1,3,0005-00-0000-54.png,0003-00-0000-80.png
00000014,449,0,1446215984454,1446215984941,908,434,0,0,0,2,3,1,5,0003-00-0001-66.png,0002-00-0001-90.png
00000014,450,1,1446215987922,1446215988564,401,398,0,0,0,1,2,1,3,0005-00-0000-33.png,0003-00-0000-29.png
00000014,451,1,1446215989672,1446215990308,897,442,0,0,0,2,1,1,3,0003-00-0000-68.png,0005-00-0000-15.png
00000014,452,0,1446215991430,1446215991928,902,424,0,0,0,3,4,1,7,0002-00-0001-51.png,0004-00-0000-54.png
00000014,453,1,1446215994989,1446215995429,913,424,0,0,0,4,3,1,7,0004-00-0000-51.png,0002-00-0000-10.png
00000014,454,0,1446215996449,1446215996915,408,472,0,0,0,1,0,1,1,0005-00-0001-66.png,0001-00-0000-54.png
00000014,455,1,1446215999906,1446216000774,928,399,0,0,0,3,2,1,5,0002-00-0001-93.png,0003-00-0001-72.png
00000014,456,1,1446216001846,1446216002371,347,419,0,0,0,0,1,1,1,0001-00-0001-09.png,0005-00-0001-07.png
00000014,457,0,1446216003467,1446216003892,350,450,0,0,0,2,1,1,3,0003-00-0000-15.png,0005-00-0000-32.png
00000014,458,0,1446216007145,1446216007535,870,367,0,0,0,2,3,1,5,0003-00-0001-76.png,0002-00-0001-04.png
00000014,459,0,1446216010711,1446216011326,402,444,0,0,0,1,0,1,1,0005-00-0001-37.png,0001-00-0001-14.png
00000014,460,0,1446216014230,1446216014673,380,523,0,0,0,3,2,1,5,0002-00-0001-59.png,0003-00-0001-76.png
00000014,461,1,1446216017758,1446216018360,350,422,0,0,0,3,4,1,7,0002-00-0001-02.png,0004-00-0001-65.png
00000014,462,1,1446216019378,1446216019942,343,457,0,0,0,0,1,1,1,0001-00-0000-88.png,0005-00-0000-22.png
00000014,463,0,1446216021068,1446216021482,387,423,0,0,0,4,3,1,7,0004-00-0001-65.png,0002-00-0001-31.png
00000014,464,0,1446216024486,1446216024925,919,416,0,0,0,1,2,1,3,0005-00-0001-19.png,0003-00-0000-66.png
00000014,465,0,1446216028124,1446216028607,362,436,0,0,0,3,2,1,5,0002-00-0001-58.png,0003-00-0001-16.png
00000014,466,0,1446216031699,1446216032216,340,455,0,0,0,2,1,1,3,0003-00-0000-45.png,0005-00-0001-49.png
00000014,467,1,1446216035140,1446216035623,931,419,0,0,0,4,3,1,7,0004-00-0000-73.png,0002-00-0000-21.png
00000014,468,1,1446216036620,1446216037022,354,479,0,0,0,3,4,1,7,0002-00-0001-36.png,0004-00-0000-03.png
00000014,469,0,1446216038160,1446216038576,388,525,0,0,0,1,0,1,1,0005-00-0000-36.png,0001-00-0000-54.png
00000014,470,1,1446216041572,1446216042326,273,449,0,0,0,1,2,1,3,0005-00-0001-68.png,0003-00-0000-87.png
00000014,471,1,1446216043489,1446216043933,344,460,0,0,0,0,1,1,1,0001-00-0001-77.png,0005-00-0000-86.png
00000014,472,0,1446216045080,1446216045539,867,523,0,0,0,2,3,1,5,0003-00-0001-83.png,0002-00-0000-95.png
00000014,473,1,1446216048706,1446216049222,370,437,0,0,0,3,4,1,7,0002-00-0000-99.png,0004-00-0000-01.png
00000014,474,1,1446216050462,1446216051082,880,416,0,0,0,2,1,1,3,0003-00-0000-81.png,0005-00-0001-95.png
00000014,475,0,1446216052166,1446216052579,401,551,0,0,0,4,3,1,7,0004-00-0000-97.png,0002-00-0000-90.png
00000014,476,1,1446216055504,1446216055933,318,425,0,0,0,0,1,1,1,0001-00-0001-60.png,0005-00-0001-51.png
00000014,477,1,1446216056997,1446216057441,365,456,0,0,0,1,2,1,3,0005-00-0001-99.png,0003-00-0000-14.png
00000014,478,0,1446216058647,1446216059078,877,518,0,0,0,2,3,1,5,0003-00-0000-72.png,0002-00-0001-75.png
00000014,479,0,1446216061924,1446216062753,376,319,0,0,0,1,0,1,1,0005-00-0001-63.png,0001-00-0001-46.png
00000014,480,0,1446216065596,1446216066076,304,419,0,0,0,3,2,1,5,0002-00-0000-82.png,0003-00-0001-96.png
00000014,481,0,1446216069200,1446216069635,340,415,0,0,0,3,2,1,5,0002-00-0000-31.png,0003-00-0001-86.png
00000014,482,1,1446216072497,1446216073039,406,454,0,0,0,1,2,1,3,0005-00-0001-20.png,0003-00-0000-29.png
00000014,483,1,1446216074111,1446216074591,327,474,0,0,0,0,1,1,1,0001-00-0001-80.png,0005-00-0000-23.png
00000014,484,0,1446216075641,1446216076156,930,411,0,0,0,3,4,1,7,0002-00-0001-31.png,0004-00-0000-81.png
00000014,485,0,1446216079139,1446216079641,365,443,0,0,0,4,3,1,7,0004-00-0000-34.png,0002-00-0000-64.png
00000014,486,0,1446216082629,1446216083047,899,490,0,0,0,2,3,1,5,0003-00-0001-25.png,0002-00-0000-63.png
00000014,487,0,1446216086054,1446216086782,375,384,0,0,0,1,0,1,1,0005-00-0001-31.png,0001-00-0000-98.png
00000014,488,0,1446216089658,1446216090201,318,409,0,0,0,2,1,1,3,0003-00-0001-67.png,0005-00-0001-18.png
00000014,489,0,1446216093202,1446216093624,394,447,0,0,0,2,1,1,3,0003-00-0000-58.png,0005-00-0000-23.png
00000014,490,1,1446216096478,1446216097114,346,437,0,0,0,3,4,1,7,0002-00-0001-51.png,0004-00-0001-55.png
00000014,491,0,1446216098102,1446216098563,357,427,0,0,0,3,2,1,5,0002-00-0000-85.png,0003-00-0000-38.png
00000014,492,0,1446216101511,1446216102007,926,409,0,0,0,1,2,1,3,0005-00-0000-26.png,0003-00-0000-77.png
00000014,493,1,1446216105000,1446216105634,376,384,0,0,0,0,1,1,1,0001-00-0001-29.png,0005-00-0001-92.png
00000014,494,0,1446216106671,1446216107157,927,425,0,0,0,2,3,1,5,0003-00-0000-26.png,0002-00-0001-49.png
00000014,495,1,1446216110106,1446216110527,928,442,0,0,0,4,3,1,7,0004-00-0001-11.png,0002-00-0001-64.png
00000014,496,0,1446216111560,1446216112164,346,475,0,0,0,1,0,1,1,0005-00-0001-38.png,0001-00-0001-07.png
00000014,497,0,1446216115207,1446216115685,350,424,0,0,0,4,3,1,7,0004-00-0000-86.png,0002-00-0000-76.png
00000014,498,0,1446216119123,1446216119589,366,450,0,0,0,2,1,1,3,0003-00-0001-05.png,0005-00-0001-21.png
00000014,499,0,1446216122708,1446216123169,898,512,0,0,0,2,3,1,5,0003-00-0001-27.png,0002-00-0000-12.png
00000014,500,1,1446216126165,1446216126740,350,410,0,0,0,1,2,1,3,0005-00-0000-35.png,0003-00-0001-65.png
00000014,501,1,1446216127940,1446216128355,318,426,0,0,0,3,4,1,7,0002-00-0000-91.png,0004-00-0001-92.png
00000014,502,0,1446216129508,1446216129975,350,423,0,0,0,3,2,1,5,0002-00-0000-39.png,0003-00-0000-08.png
00000014,503,1,1446216133095,1446216133494,389,423,0,0,0,0,1,1,1,0001-00-0000-88.png,0005-00-0001-76.png
00000014,504,1,1446216134657,1446216135171,891,436,0,0,0,1,0,1,1,0005-00-0001-75.png,0001-00-0000-74.png
00000014,505,0,1446216136305,1446216136710,351,444,0,0,0,2,1,1,3,0003-00-0001-23.png,0005-00-0001-52.png
00000014,506,1,1446216139615,1446216140085,902,424,0,0,0,4,3,1,7,0004-00-0000-84.png,0002-00-0000-02.png
00000014,507,0,1446216141097,1446216141562,875,528,0,0,0,2,3,1,5,0003-00-0000-86.png,0002-00-0000-24.png
00000014,508,0,1446216144576,1446216145101,392,403,0,0,0,1,0,1,1,0005-00-0000-98.png,0001-00-0000-40.png
00000014,509,0,1446216148192,1446216148668,862,372,0,0,0,0,1,1,1,0001-00-0001-84.png,0005-00-0001-40.png
00000014,510,0,1446216151651,1446216152063,395,446,0,0,0,3,2,1,5,0002-00-0001-59.png,0003-00-0001-08.png
00000014,511,1,1446216154989,1446216155398,341,394,0,0,0,3,4,1,7,0002-00-0001-43.png,0004-00-0001-06.png
00000014,512,0,1446216156453,1446216157095,900,409,0,0,0,1,2,1,3,0005-00-0001-71.png,0003-00-0000-45.png
00000014,513,0,1446216160169,1446216160631,426,435,0,0,0,2,1,1,3,0003-00-0001-06.png,0005-00-0000-79.png
00000014,514,1,1446216163657,1446216164097,337,423,0,0,0,3,4,1,7,0002-00-0001-19.png,0004-00-0000-18.png
00000014,515,0,1446216165139,1446216165641,920,416,0,0,0,2,3,1,5,0003-00-0001-54.png,0002-00-0001-47.png
00000014,516,0,1446216169007,1446216169494,313,424,0,0,0,4,3,1,7,0004-00-0000-34.png,0002-00-0001-58.png
00000014,517,0,1446216172544,1446216172974,901,449,0,0,0,1,2,1,3,0005-00-0000-88.png,0003-00-0001-86.png
00000014,518,0,1446216175911,1446216176411,313,390,0,0,0,3,2,1,5,0002-00-0001-14.png,0003-00-0000-37.png
00000014,519,0,1446216179380,1446216179404,504,342,0,0,0,1,0,1,1,0005-00-0001-92.png,0001-00-0001-88.png
00000014,520,1,1446216182532,1446216182956,389,423,0,0,0,0,1,1,1,0001-00-0000-05.png,0005-00-0001-80.png
00000014,521,0,1446216183982,1446216184449,401,471,0,0,0,2,1,1,3,0003-00-0000-54.png,0005-00-0000-64.png
00000014,522,1,1446216187511,1446216187912,335,396,0,0,0,0,1,1,1,0001-00-0001-03.png,0005-00-0000-13.png
00000014,523,0,1446216188913,1446216189546,893,405,0,0,0,2,3,1,5,0003-00-0001-88.png,0002-00-0001-83.png
00000014,524,1,1446216192539,1446216193003,928,416,0,0,0,4,3,1,7,0004-00-0001-07.png,0002-00-0001-74.png
00000014,525,0,1446216193949,1446216194442,376,437,0,0,0,3,2,1,5,0002-00-0001-65.png,0003-00-0001-41.png
00000014,526,1,1446216197338,1446216198046,928,443,0,0,0,1,0,1,1,0005-00-0001-48.png,0001-00-0001-30.png
00000014,527,1,1446216199313,1446216199752,342,432,0,0,0,3,4,1,7,0002-00-0000-34.png,0004-00-0001-40.png
00000014,528,1,1446216200958,1446216201503,393,466,0,0,0,1,2,1,3,0005-00-0001-06.png,0003-00-0000-11.png
00000014,529,0,1446216202748,1446216203238,886,415,0,0,0,3,4,1,7,0002-00-0001-57.png,0004-00-0001-58.png
00000014,530,1,1446216206093,1446216206560,871,536,0,0,0,1,0,1,1,0005-00-0000-57.png,0001-00-0001-19.png
00000014,531,0,1446216207657,1446216208226,888,449,0,0,0,0,1,1,1,0001-00-0001-13.png,0005-00-0000-48.png
00000014,532,0,1446216211224,1446216211702,313,407,0,0,0,3,2,1,5,0002-00-0000-75.png,0003-00-0001-80.png
00000014,533,0,1446216214652,1446216215118,891,510,0,0,0,2,3,1,5,0003-00-0001-69.png,0002-00-0001-34.png
00000014,534,0,1446216218021,1446216218456,337,445,0,0,0,2,1,1,3,0003-00-0001-60.png,0005-00-0000-88.png
00000014,535,0,1446216221490,1446216221983,389,502,0,0,0,4,3,1,7,0004-00-0000-68.png,0002-00-0000-81.png
00000014,536,1,1446216225238,1446216226372,414,371,0,0,0,1,2,1,3,0005-00-0000-25.png,0003-00-0001-93.png
00000014,537,0,1446216227493,1446216227867,350,424,0,0,0,3,2,1,5,0002-00-0000-94.png,0003-00-0001-29.png
00000014,538,1,1446216230722,1446216231295,925,490,0,0,0,4,3,1,7,0004-00-0001-76.png,0002-00-0001-27.png
00000014,539,0,1446216232295,1446216232746,349,451,0,0,0,2,1,1,3,0003-00-0001-22.png,0005-00-0001-90.png
00000014,540,1,1446216235882,1446216236293,392,428,0,0,0,3,4,1,7,0002-00-0001-47.png,0004-00-0001-57.png
00000014,541,0,1446216237423,1446216237896,900,423,0,0,0,2,3,1,5,0003-00-0000-99.png,0002-00-0000-02.png
00000014,542,0,1446216240778,1446216240802,522,455,0,0,0,1,0,1,1,0005-00-0000-32.png,0001-00-0000-01.png
00000014,543,0,1446216243832,1446216244470,904,443,0,0,0,0,1,1,1,0001-00-0000-29.png,0005-00-0001-23.png
00000014,544,1,1446216247437,1446216247880,388,424,0,0,0,1,2,1,3,0005-00-0000-73.png,0003-00-0001-70.png
00000014,545,0,1446216248861,1446216249389,344,435,0,0,0,3,2,1,5,0002-00-0000-85.png,0003-00-0001-92.png
00000014,546,0,1446216252530,1446216253087,887,516,0,0,0,2,3,1,5,0003-00-0001-51.png,0002-00-0001-08.png
00000014,547,0,1446216256068,1446216256680,336,384,0,0,0,2,1,1,3,0003-00-0000-64.png,0005-00-0000-43.png
00000014,548,1,1446216259536,1446216259552,507,409,0,0,0,0,1,1,1,0001-00-0000-38.png,0005-00-0001-18.png
00000014,549,1,1446216260579,1446216261015,325,449,0,0,0,3,4,1,7,0002-00-0001-98.png,0004-00-0001-78.png
00000014,550,0,1446216262099,1446216262531,343,445,0,0,0,1,0,1,1,0005-00-0001-54.png,0001-00-0000-88.png
00000014,551,0,1446216265419,1446216265974,360,509,0,0,0,4,3,1,7,0004-00-0001-72.png,0002-00-0000-16.png
00000014,552,1,1446216268807,1446216269457,365,405,0,0,0,1,2,1,3,0005-00-0001-82.png,0003-00-0000-19.png
00000014,553,1,1446216270458,1446216270861,299,435,0,0,0,0,1,1,1,0001-00-0000-24.png,0005-00-0001-15.png
00000014,554,1,1446216271991,1446216272706,369,451,0,0,0,1,2,1,3,0005-00-0001-32.png,0003-00-0001-17.png
00000014,555,0,1446216273768,1446216274324,862,507,0,0,0,3,4,1,7,0002-00-0000-52.png,0004-00-0001-10.png
00000014,556,0,1446216277196,1446216277607,376,436,0,0,0,3,2,1,5,0002-00-0000-45.png,0003-00-0000-14.png
00000014,557,0,1446216280644,1446216281290,348,404,0,0,0,1,0,1,1,0005-00-0000-17.png,0001-00-0001-11.png
00000014,558,0,1446216284322,1446216284858,328,383,0,0,0,4,3,1,7,0004-00-0000-89.png,0002-00-0000-85.png
00000014,559,0,1446216288458,1446216289002,870,498,0,0,0,2,3,1,5,0003-00-0000-82.png,0002-00-0001-83.png
00000014,560,1,1446216291955,1446216292438,862,398,0,0,0,2,1,1,3,0003-00-0001-61.png,0005-00-0001-68.png
00000014,561,1,1446216293444,1446216293982,401,462,0,0,0,0,1,1,1,0001-00-0000-03.png,0005-00-0000-80.png
00000014,562,1,1446216295107,1446216295522,342,414,0,0,0,1,2,1,3,0005-00-0000-70.png,0003-00-0001-61.png
00000014,563,0,1446216296796,1446216297217,410,480,0,0,0,1,0,1,1,0005-00-0000-74.png,0001-00-0000-62.png
00000014,564,0,1446216300273,1446216301121,875,357,0,0,0,3,4,1,7,0002-00-0000-86.png,0004-00-0000-24.png
00000014,565,0,1446216304200,1446216304622,357,427,0,0,0,3,2,1,5,0002-00-0000-50.png,0003-00-0001-96.png
00000014,566,0,1446216307610,1446216308089,930,441,0,0,0,2,3,1,5,0003-00-0001-78.png,0002-00-0001-55.png
00000014,567,0,1446216311414,1446216311882,419,481,0,0,0,2,1,1,3,0003-00-0000-75.png,0005-00-0001-30.png
00000014,568,0,1446216314833,1446216315300,325,407,0,0,0,4,3,1,7,0004-00-0000-62.png,0002-00-0001-33.png
00000014,569,1,1446216318490,1446216319019,396,481,0,0,0,1,2,1,3,0005-00-0000-96.png,0003-00-0000-76.png
00000014,570,0,1446216320060,1446216320488,336,439,0,0,0,2,1,1,3,0003-00-0000-08.png,0005-00-0001-48.png
00000014,571,1,1446216323547,1446216323982,347,418,0,0,0,0,1,1,1,0001-00-0000-82.png,0005-00-0000-93.png
00000014,572,0,1446216324940,1446216325578,928,400,0,0,0,2,3,1,5,0003-00-0000-58.png,0002-00-0001-02.png
00000014,573,1,1446216328437,1446216328913,372,364,0,0,0,3,4,1,7,0002-00-0000-58.png,0004-00-0001-35.png
00000014,574,0,1446216329972,1446216330422,349,476,0,0,0,1,0,1,1,0005-00-0001-67.png,0001-00-0001-39.png
00000014,575,0,1446216333486,1446216333932,312,423,0,0,0,4,3,1,7,0004-00-0000-12.png,0002-00-0001-37.png
00000014,576,0,1446216336834,1446216337332,344,514,0,0,0,3,2,1,5,0002-00-0000-75.png,0003-00-0001-39.png
00000014,577,0,1446216340616,1446216341126,918,438,0,0,0,1,2,1,3,0005-00-0001-21.png,0003-00-0000-69.png
00000014,578,1,1446216344418,1446216344880,339,470,0,0,0,0,1,1,1,0001-00-0000-52.png,0005-00-0001-65.png
00000014,579,0,1446216345973,1446216346459,927,449,0,0,0,3,4,1,7,0002-00-0000-82.png,0004-00-0000-83.png
00000014,580,0,1446216349469,1446216350006,376,384,0,0,0,4,3,1,7,0004-00-0001-23.png,0002-00-0000-86.png
00000014,581,0,1446216353000,1446216353502,905,427,0,0,0,2,3,1,5,0003-00-0001-05.png,0002-00-0001-29.png
00000014,582,0,1446216356508,1446216356900,390,410,0,0,0,2,1,1,3,0003-00-0000-17.png,0005-00-0001-79.png
00000014,583,0,1446216360025,1446216360551,401,458,0,0,0,3,2,1,5,0002-00-0001-98.png,0003-00-0001-57.png
00000014,584,0,1446216363586,1446216364027,413,436,0,0,0,1,0,1,1,0005-00-0001-32.png,0001-00-0000-61.png
00000014,585,0,1446216366940,1446216367487,357,401,0,0,0,1,0,1,1,0005-00-0001-10.png,0001-00-0001-67.png
00000014,586,1,1446216370359,1446216370845,343,416,0,0,0,0,1,1,1,0001-00-0001-60.png,0005-00-0000-08.png
00000014,587,0,1446216371841,1446216372358,331,427,0,0,0,4,3,1,7,0004-00-0001-40.png,0002-00-0000-53.png
00000014,588,0,1446216375268,1446216375756,922,426,0,0,0,3,4,1,7,0002-00-0001-95.png,0004-00-0001-63.png
00000014,589,1,1446216378769,1446216379172,344,425,0,0,0,1,2,1,3,0005-00-0000-88.png,0003-00-0000-39.png
00000014,590,0,1446216380220,1446216380623,379,462,0,0,0,2,1,1,3,0003-00-0000-57.png,0005-00-0001-30.png
00000014,591,0,1446216383485,1446216384098,368,519,0,0,0,3,2,1,5,0002-00-0000-87.png,0003-00-0001-39.png
00000014,592,0,1446216387494,1446216388338,953,389,0,0,0,2,3,1,5,0003-00-0001-52.png,0002-00-0000-30.png
00000014,593,1,1446216391341,1446216391795,373,412,0,0,0,1,2,1,3,0005-00-0000-40.png,0003-00-0000-29.png
00000014,594,0,1446216392898,1446216393354,376,453,0,0,0,2,1,1,3,0003-00-0000-66.png,0005-00-0000-88.png
00000014,595,0,1446216396429,1446216396844,307,419,0,0,0,3,2,1,5,0002-00-0001-25.png,0003-00-0000-72.png
00000014,596,0,1446216399838,1446216400316,929,403,0,0,0,2,3,1,5,0003-00-0000-35.png,0002-00-0001-21.png
00000014,597,1,1446216403347,1446216403899,917,424,0,0,0,1,0,1,1,0005-00-0000-75.png,0001-00-0000-35.png
00000014,598,1,1446216404937,1446216405568,901,424,0,0,0,4,3,1,7,0004-00-0001-66.png,0002-00-0000-08.png
00000014,599,0,1446216406715,1446216407159,901,397,0,0,0,3,4,1,7,0002-00-0000-75.png,0004-00-0001-04.png
00000014,600,1,1446216410010,1446216410479,384,394,0,0,0,0,1,1,1,0001-00-0000-69.png,0005-00-0000-84.png
00000014,601,0,1446216411575,1446216412036,399,417,0,0,0,3,2,1,5,0002-00-0000-99.png,0003-00-0000-31.png
00000014,602,0,1446216414899,1446216415387,928,417,0,0,0,0,1,1,1,0001-00-0001-29.png,0005-00-0001-72.png
00000014,603,1,1446216418250,1446216418706,350,410,0,0,0,3,4,1,7,0002-00-0000-45.png,0004-00-0001-48.png
00000014,604,0,1446216419705,1446216420199,930,424,0,0,0,2,3,1,5,0003-00-0001-20.png,0002-00-0001-52.png
00000014,605,0,1446216423363,1446216424599,901,398,0,0,0,1,2,1,3,0005-00-0000-12.png,0003-00-0000-48.png
00000014,606,1,1446216427685,1446216428159,901,435,0,0,0,1,0,1,1,0005-00-0001-42.png,0001-00-0001-74.png
00000014,607,0,1446216429186,1446216429598,376,450,0,0,0,2,1,1,3,0003-00-0001-50.png,0005-00-0001-78.png
00000014,608,1,1446216432723,1446216433131,913,423,0,0,0,4,3,1,7,0004-00-0000-38.png,0002-00-0001-14.png
00000014,609,1,1446216434134,1446216434714,913,410,0,0,0,4,3,1,7,0004-00-0000-61.png,0002-00-0001-15.png
00000014,610,0,1446216435863,1446216436321,900,423,0,0,0,3,4,1,7,0002-00-0000-70.png,0004-00-0001-23.png
00000014,611,1,1446216439523,1446216440148,381,408,0,0,0,1,2,1,3,0005-00-0000-20.png,0003-00-0000-75.png
00000014,612,0,1446216441213,1446216441636,328,428,0,0,0,3,2,1,5,0002-00-0001-69.png,0003-00-0001-62.png
00000014,613,0,1446216444987,1446216445633,401,410,0,0,0,1,0,1,1,0005-00-0001-65.png,0001-00-0000-19.png
00000014,614,1,1446216448614,1446216449045,336,417,0,0,0,2,3,1,5,0003-00-0001-68.png,0002-00-0000-47.png
00000014,615,1,1446216450155,1446216450835,385,442,0,0,0,0,1,1,1,0001-00-0001-63.png,0005-00-0000-28.png
00000014,616,0,1446216451915,1446216452551,401,450,0,0,0,2,1,1,3,0003-00-0000-55.png,0005-00-0000-84.png
00000014,617,1,1446216455634,1446216456187,427,488,0,0,0,1,2,1,3,0005-00-0001-77.png,0003-00-0001-02.png
00000014,618,0,1446216457264,1446216457747,353,438,0,0,0,3,2,1,5,0002-00-0000-66.png,0003-00-0000-86.png
00000014,619,1,1446216461012,1446216461888,919,416,0,0,0,2,1,1,3,0003-00-0000-39.png,0005-00-0000-30.png
00000014,620,1,1446216462996,1446216463694,926,385,0,0,0,1,0,1,1,0005-00-0000-43.png,0001-00-0001-93.png
00000014,621,0,1446216464755,1446216465274,899,457,0,0,0,2,3,1,5,0003-00-0000-45.png,0002-00-0001-32.png
00000014,622,0,1446216468254,1446216468782,896,498,0,0,0,3,4,1,7,0002-00-0000-55.png,0004-00-0000-22.png
00000014,623,0,1446216472172,1446216473144,360,433,0,0,0,4,3,1,7,0004-00-0000-03.png,0002-00-0000-69.png
00000014,624,0,1446216476168,1446216476729,899,358,0,0,0,0,1,1,1,0001-00-0001-16.png,0005-00-0000-59.png
00000014,625,1,1446216479805,1446216480332,401,384,0,0,0,3,4,1,7,0002-00-0001-43.png,0004-00-0000-75.png
00000014,626,1,1446216481393,1446216481911,903,415,0,0,0,4,3,1,7,0004-00-0001-55.png,0002-00-0001-45.png
00000014,627,0,1446216482936,1446216483391,900,423,0,0,0,2,3,1,5,0003-00-0000-05.png,0002-00-0001-18.png
00000014,628,0,1446216486484,1446216487149,354,383,0,0,0,2,1,1,3,0003-00-0001-20.png,0005-00-0001-14.png
00000014,629,0,1446216490311,1446216490800,861,393,0,0,0,0,1,1,1,0001-00-0000-68.png,0005-00-0000-71.png
00000014,630,0,1446216493725,1446216494254,363,419,0,0,0,1,0,1,1,0005-00-0001-56.png,0001-00-0000-21.png
00000014,631,0,1446216497288,1446216497735,418,455,0,0,0,3,2,1,5,0002-00-0000-86.png,0003-00-0001-83.png
00000014,632,1,1446216500767,1446216501325,413,462,0,0,0,1,2,1,3,0005-00-0001-23.png,0003-00-0000-03.png
00000014,633,1,1446216502347,1446216502840,401,462,0,0,0,3,4,1,7,0002-00-0001-54.png,0004-00-0001-35.png
00000014,634,0,1446216504016,1446216504513,319,457,0,0,0,4,3,1,7,0004-00-0000-42.png,0002-00-0001-35.png
00000014,635,1,1446216507384,1446216508257,928,413,0,0,0,1,0,1,1,0005-00-0000-83.png,0001-00-0000-33.png
00000014,636,0,1446216509321,1446216509983,874,490,0,0,0,1,2,1,3,0005-00-0000-77.png,0003-00-0000-69.png
00000014,637,0,1446216513138,1446216513968,925,410,0,0,0,2,3,1,5,0003-00-0000-14.png,0002-00-0001-18.png
00000014,638,0,1446216517063,1446216517699,337,410,0,0,0,3,2,1,5,0002-00-0000-22.png,0003-00-0001-09.png
00000014,639,1,1446216520630,1446216521107,339,411,0,0,0,0,1,1,1,0001-00-0001-64.png,0005-00-0001-50.png
00000014,640,0,1446216522064,1446216522751,388,564,0,0,0,2,1,1,3,0003-00-0001-35.png,0005-00-0000-09.png
00000014,641,1,1446216525973,1446216526566,928,416,0,0,0,1,0,1,1,0005-00-0000-10.png,0001-00-0001-27.png
00000014,642,1,1446216527591,1446216528015,325,436,0,0,0,1,2,1,3,0005-00-0000-33.png,0003-00-0000-58.png
00000014,643,1,1446216529301,1446216529888,299,436,0,0,0,3,4,1,7,0002-00-0000-96.png,0004-00-0001-23.png
00000014,644,1,1446216531159,1446216531617,901,424,0,0,0,4,3,1,7,0004-00-0000-43.png,0002-00-0001-53.png
00000014,645,0,1446216533246,1446216533827,312,410,0,0,0,2,1,1,3,0003-00-0001-83.png,0005-00-0001-31.png
00000014,646,0,1446216536846,1446216537285,920,446,0,0,0,2,3,1,5,0003-00-0001-87.png,0002-00-0000-27.png
00000014,647,1,1446216540372,1446216540968,350,410,0,0,0,0,1,1,1,0001-00-0000-23.png,0005-00-0001-77.png
00000014,648,0,1446216542084,1446216542487,363,462,0,0,0,3,2,1,5,0002-00-0001-06.png,0003-00-0000-76.png
00000014,649,1,1446216545509,1446216545956,913,423,0,0,0,4,3,1,7,0004-00-0000-45.png,0002-00-0001-45.png
00000014,650,0,1446216547042,1446216547684,929,402,0,0,0,3,4,1,7,0002-00-0001-74.png,0004-00-0001-85.png
00000014,651,0,1446216550646,1446216551108,915,423,0,0,0,2,3,1,5,0003-00-0000-10.png,0002-00-0000-28.png
00000014,652,0,1446216554159,1446216554791,363,410,0,0,0,1,0,1,1,0005-00-0001-18.png,0001-00-0000-36.png
00000014,653,1,1446216557824,1446216558269,343,425,0,0,0,0,1,1,1,0001-00-0001-17.png,0005-00-0000-96.png
00000014,654,0,1446216559234,1446216559871,350,423,0,0,0,2,1,1,3,0003-00-0000-44.png,0005-00-0001-66.png
00000014,655,0,1446216562843,1446216563271,355,509,0,0,0,3,2,1,5,0002-00-0001-53.png,0003-00-0000-60.png
00000014,656,1,1446216566353,1446216566768,392,468,0,0,0,1,2,1,3,0005-00-0001-04.png,0003-00-0001-17.png
00000014,657,0,1446216567754,1446216568188,350,462,0,0,0,1,0,1,1,0005-00-0001-32.png,0001-00-0001-13.png
00000014,658,1,1446216571650,1446216572119,899,458,0,0,0,4,3,1,7,0004-00-0001-17.png,0002-00-0001-02.png
00000014,659,1,1446216573131,1446216573695,299,398,0,0,0,3,4,1,7,0002-00-0001-96.png,0004-00-0000-21.png
00000014,660,0,1446216574880,1446216575843,950,409,0,0,0,1,2,1,3,0005-00-0001-34.png,0003-00-0001-44.png
00000014,661,0,1446216578834,1446216579372,925,437,0,0,0,2,3,1,5,0003-00-0000-13.png,0002-00-0001-02.png
00000014,662,0,1446216582293,1446216582768,318,384,0,0,0,3,2,1,5,0002-00-0001-91.png,0003-00-0000-96.png
00000014,663,1,1446216585673,1446216585689,513,410,0,0,0,0,1,1,1,0001-00-0001-64.png,0005-00-0001-19.png
00000014,664,0,1446216586856,1446216587270,328,453,0,0,0,2,1,1,3,0003-00-0001-15.png,0005-00-0000-03.png
00000014,665,0,1446216590376,1446216590791,352,420,0,0,0,2,1,1,3,0003-00-0001-16.png,0005-00-0001-07.png
00000014,666,0,1446216593783,1446216594252,900,475,0,0,0,2,3,1,5,0003-00-0001-79.png,0002-00-0001-76.png
00000014,667,0,1446216597217,1446216597900,343,404,0,0,0,1,0,1,1,0005-00-0001-38.png,0001-00-0000-59.png
00000014,668,1,1446216600799,1446216600835,520,375,0,0,0,1,2,1,3,0005-00-0001-85.png,0003-00-0001-42.png
00000014,669,1,1446216601943,1446216602383,337,423,0,0,0,3,4,1,7,0002-00-0000-72.png,0004-00-0001-98.png
00000014,670,0,1446216603611,1446216604012,292,401,0,0,0,3,2,1,5,0002-00-0001-18.png,0003-00-0000-10.png
00000014,671,1,1446216606892,1446216607499,350,386,0,0,0,0,1,1,1,0001-00-0000-95.png,0005-00-0001-61.png
00000014,672,1,1446216608565,1446216609052,924,418,0,0,0,4,3,1,7,0004-00-0000-59.png,0002-00-0001-04.png
00000014,673,0,1446216610106,1446216610578,325,423,0,0,0,4,3,1,7,0004-00-0000-01.png,0002-00-0000-51.png
00000014,674,1,1446216613572,1446216614195,903,415,0,0,0,1,0,1,1,0005-00-0001-44.png,0001-00-0000-54.png
00000014,675,1,1446216615267,1446216615792,317,445,0,0,0,3,4,1,7,0002-00-0001-10.png,0004-00-0000-01.png
00000014,676,1,1446216616951,1446216617586,376,449,0,0,0,1,2,1,3,0005-00-0001-55.png,0003-00-0000-19.png
00000014,677,1,1446216618711,1446216619166,376,449,0,0,0,2,3,1,5,0003-00-0000-98.png,0002-00-0000-05.png
00000014,678,1,1446216620442,1446216621197,396,515,0,0,0,0,1,1,1,0001-00-0000-39.png,0005-00-0000-71.png
00000014,679,0,1446216622924,1446216623379,361,450,0,0,0,2,1,1,3,0003-00-0000-60.png,0005-00-0001-28.png
00000014,680,0,1446216626229,1446216626704,330,383,0,0,0,3,2,1,5,0002-00-0001-65.png,0003-00-0000-36.png
00000014,681,1,1446216629624,1446216630124,340,412,0,0,0,0,1,1,1,0001-00-0000-32.png,0005-00-0000-04.png
00000014,682,1,1446216631185,1446216631610,386,548,0,0,0,3,4,1,7,0002-00-0000-45.png,0004-00-0001-78.png
00000014,683,0,1446216632783,1446216633296,332,439,0,0,0,4,3,1,7,0004-00-0001-85.png,0002-00-0000-70.png
00000014,684,0,1446216636292,1446216636760,925,437,0,0,0,2,3,1,5,0003-00-0000-56.png,0002-00-0001-34.png
00000014,685,1,1446216639781,1446216640372,388,423,0,0,0,1,2,1,3,0005-00-0001-46.png,0003-00-0001-64.png
00000014,686,0,1446216641480,1446216641913,383,446,0,0,0,1,0,1,1,0005-00-0000-56.png,0001-00-0000-71.png
00000014,687,0,1446216644887,1446216645345,414,450,0,0,0,2,1,1,3,0003-00-0000-50.png,0005-00-0000-58.png
00000014,688,0,1446216648624,1446216649063,376,449,0,0,0,3,2,1,5,0002-00-0001-85.png,0003-00-0001-69.png
00000014,689,0,1446216651933,1446216652356,401,410,0,0,0,2,1,1,3,0003-00-0001-80.png,0005-00-0000-61.png
00000014,690,0,1446216655802,1446216656591,879,521,0,0,0,1,2,1,3,0005-00-0000-75.png,0003-00-0001-13.png
00000014,691,0,1446216659688,1446216660379,902,468,0,0,0,0,1,1,1,0001-00-0000-84.png,0005-00-0000-74.png
00000014,692,1,1446216663386,1446216663926,927,415,0,0,0,1,0,1,1,0005-00-0000-31.png,0001-00-0001-87.png
00000014,693,1,1446216664966,1446216665422,347,410,0,0,0,3,4,1,7,0002-00-0000-66.png,0004-00-0000-53.png
00000014,694,0,1446216666566,1446216667168,894,429,0,0,0,2,3,1,5,0003-00-0001-37.png,0002-00-0000-90.png
00000014,695,0,1446216670072,1446216670108,494,384,0,0,0,3,2,1,5,0002-00-0001-04.png,0003-00-0001-75.png
00000014,696,0,1446216673480,1446216673977,332,419,0,0,0,4,3,1,7,0004-00-0000-33.png,0002-00-0001-78.png
00000014,697,1,1446216677010,1446216677744,902,469,0,0,0,2,1,1,3,0003-00-0001-22.png,0005-00-0000-89.png
00000014,698,1,1446216679158,1446216679712,925,398,0,0,0,1,0,1,1,0005-00-0001-70.png,0001-00-0001-01.png
00000014,699,0,1446216680737,1446216681237,923,432,0,0,0,2,3,1,5,0003-00-0001-37.png,0002-00-0000-29.png
00000014,700,1,1446216684206,1446216684656,317,401,0,0,0,0,1,1,1,0001-00-0000-08.png,0005-00-0001-32.png
00000014,701,0,1446216685727,1446216686166,902,440,0,0,0,3,4,1,7,0002-00-0000-18.png,0004-00-0000-58.png
00000014,702,1,1446216689125,1446216689930,928,410,0,0,0,4,3,1,7,0004-00-0000-97.png,0002-00-0000-01.png
00000014,703,0,1446216690924,1446216691427,910,442,0,0,0,1,2,1,3,0005-00-0000-47.png,0003-00-0001-38.png
00000014,704,0,1446216694524,1446216695007,389,459,0,0,0,3,2,1,5,0002-00-0001-88.png,0003-00-0001-09.png
00000014,705,1,1446216698003,1446216698737,363,397,0,0,0,3,4,1,7,0002-00-0001-19.png,0004-00-0001-47.png
00000014,706,1,1446216699750,1446216700196,900,423,0,0,0,1,0,1,1,0005-00-0001-13.png,0001-00-0000-17.png
00000014,707,1,1446216701298,1446216701734,359,475,0,0,0,0,1,1,1,0001-00-0000-15.png,0005-00-0001-23.png
00000014,708,0,1446216702934,1446216703407,311,436,0,0,0,4,3,1,7,0004-00-0001-49.png,0002-00-0000-53.png
00000014,709,0,1446216706410,1446216706864,373,440,0,0,0,3,2,1,5,0002-00-0001-57.png,0003-00-0000-39.png
00000014,710,0,1446216709988,1446216710693,362,417,0,0,0,2,1,1,3,0003-00-0000-91.png,0005-00-0000-72.png
00000014,711,1,1446216713585,1446216713605,523,410,0,0,0,1,2,1,3,0005-00-0000-47.png,0003-00-0000-83.png
00000014,712,0,1446216714627,1446216715072,922,418,0,0,0,2,3,1,5,0003-00-0000-10.png,0002-00-0001-45.png
00000014,713,1,1446216717999,1446216718584,917,435,0,0,0,2,1,1,3,0003-00-0000-79.png,0005-00-0001-99.png
00000014,714,1,1446216720015,1446216720537,862,384,0,0,0,1,0,1,1,0005-00-0001-13.png,0001-00-0001-87.png
00000014,715,1,1446216721794,1446216722208,366,463,0,0,0,1,2,1,3,0005-00-0000-99.png,0003-00-0000-68.png
00000014,716,1,1446216723366,1446216723844,360,471,0,0,0,0,1,1,1,0001-00-0001-86.png,0005-00-0000-24.png
00000014,717,0,1446216725018,1446216725492,387,543,0,0,0,4,3,1,7,0004-00-0000-23.png,0002-00-0000-35.png
00000014,718,1,1446216728543,1446216728946,388,465,0,0,0,3,4,1,7,0002-00-0000-40.png,0004-00-0001-86.png
00000014,719,0,1446216730005,1446216730470,374,445,0,0,0,3,2,1,5,0002-00-0000-18.png,0003-00-0001-13.png
00000014,720,0,1446216733474,1446216734000,858,527,0,0,0,2,3,1,5,0003-00-0000-44.png,0002-00-0001-31.png
00000014,721,0,1446216736851,1446216737370,384,524,0,0,0,4,3,1,7,0004-00-0001-01.png,0002-00-0001-41.png
00000014,722,0,1446216740332,1446216740767,923,456,0,0,0,1,2,1,3,0005-00-0001-19.png,0003-00-0000-88.png
00000014,723,1,1446216743701,1446216744276,343,421,0,0,0,0,1,1,1,0001-00-0001-66.png,0005-00-0000-06.png
00000014,724,0,1446216745409,1446216745953,899,439,0,0,0,2,3,1,5,0003-00-0001-01.png,0002-00-0000-20.png
00000014,725,0,1446216748836,1446216749483,376,436,0,0,0,3,2,1,5,0002-00-0000-89.png,0003-00-0000-62.png
00000014,726,0,1446216752405,1446216752955,910,446,0,0,0,3,4,1,7,0002-00-0000-65.png,0004-00-0001-36.png
00000014,727,1,1446216755841,1446216757144,925,413,0,0,0,1,0,1,1,0005-00-0001-91.png,0001-00-0000-48.png
00000014,728,1,1446216758190,1446216758734,904,431,0,0,0,2,1,1,3,0003-00-0001-43.png,0005-00-0001-68.png
00000014,729,0,1446216759771,1446216760194,337,452,0,0,0,3,2,1,5,0002-00-0000-04.png,0003-00-0001-79.png
00000014,730,0,1446216763227,1446216763892,950,437,0,0,0,3,4,1,7,0002-00-0000-48.png,0004-00-0000-19.png
00000014,731,1,1446216766985,1446216767455,384,428,0,0,0,1,2,1,3,0005-00-0001-10.png,0003-00-0001-06.png
00000014,732,1,1446216768627,1446216769194,900,437,0,0,0,1,0,1,1,0005-00-0000-76.png,0001-00-0000-58.png
00000014,733,0,1446216770415,1446216770833,364,475,0,0,0,2,1,1,3,0003-00-0000-88.png,0005-00-0000-48.png
00000014,734,0,1446216773923,1446216774531,376,410,0,0,0,4,3,1,7,0004-00-0001-81.png,0002-00-0001-62.png
00000014,735,1,1446216777422,1446216777442,505,442,0,0,0,0,1,1,1,0001-00-0001-01.png,0005-00-0001-14.png
00000014,736,0,1446216778923,1446216779337,925,438,0,0,0,2,3,1,5,0003-00-0001-40.png,0002-00-0001-36.png
00000014,737,1,1446216782419,1446216783295,893,395,0,0,0,2,1,1,3,0003-00-0001-10.png,0005-00-0001-08.png
00000014,738,0,1446216784319,1446216784762,391,493,0,0,0,3,2,1,5,0002-00-0001-27.png,0003-00-0000-94.png
00000014,739,0,1446216787586,1446216788116,401,436,0,0,0,1,0,1,1,0005-00-0000-89.png,0001-00-0000-90.png
00000014,740,1,1446216791174,1446216791795,385,545,0,0,0,1,2,1,3,0005-00-0001-40.png,0003-00-0001-10.png
00000014,741,1,1446216792949,1446216793443,371,461,0,0,0,0,1,1,1,0001-00-0000-58.png,0005-00-0000-20.png
00000014,742,0,1446216794638,1446216795153,875,463,0,0,0,2,3,1,5,0003-00-0000-90.png,0002-00-0001-54.png
00000014,743,0,1446216798285,1446216798769,921,471,0,0,0,3,4,1,7,0002-00-0001-19.png,0004-00-0000-34.png
00000014,744,1,1446216801854,1446216802344,913,450,0,0,0,4,3,1,7,0004-00-0001-76.png,0002-00-0001-25.png
00000014,745,1,1446216803412,1446216804081,391,551,0,0,0,1,2,1,3,0005-00-0000-57.png,0003-00-0001-98.png
00000014,746,0,1446216805263,1446216805704,353,442,0,0,0,3,2,1,5,0002-00-0000-63.png,0003-00-0001-84.png
00000014,747,0,1446216808726,1446216809436,896,504,0,0,0,2,3,1,5,0003-00-0001-31.png,0002-00-0000-96.png
00000014,748,1,1446216812556,1446216813051,914,475,0,0,0,4,3,1,7,0004-00-0001-12.png,0002-00-0001-03.png
00000014,749,0,1446216814246,1446216814934,899,412,0,0,0,0,1,1,1,0001-00-0000-07.png,0005-00-0001-28.png
00000014,750,0,1446216817990,1446216818790,943,443,0,0,0,3,4,1,7,0002-00-0001-61.png,0004-00-0000-97.png
00000014,751,0,1446216821740,1446216822401,342,425,0,0,0,1,0,1,1,0005-00-0000-56.png,0001-00-0001-96.png
00000014,752,0,1446216825437,1446216826204,365,383,0,0,0,2,1,1,3,0003-00-0001-71.png,0005-00-0000-53.png
00000014,753,0,1446216829212,1446216829883,919,467,0,0,0,3,4,1,7,0002-00-0001-50.png,0004-00-0000-95.png
00000014,754,0,1446216832938,1446216833453,339,416,0,0,0,3,2,1,5,0002-00-0001-89.png,0003-00-0001-00.png
00000014,755,1,1446216836497,1446216837327,934,390,0,0,0,1,0,1,1,0005-00-0000-87.png,0001-00-0001-13.png
00000014,756,1,1446216838417,1446216838899,862,396,0,0,0,4,3,1,7,0004-00-0000-16.png,0002-00-0000-09.png
00000014,757,0,1446216840166,1446216840730,865,428,0,0,0,2,3,1,5,0003-00-0001-75.png,0002-00-0001-70.png
00000014,758,1,1446216843590,1446216844207,414,435,0,0,0,0,1,1,1,0001-00-0001-56.png,0005-00-0000-42.png
00000014,759,1,1446216845426,1446216846065,373,408,0,0,0,1,2,1,3,0005-00-0000-27.png,0003-00-0001-71.png
00000014,760,0,1446216847322,1446216847864,394,485,0,0,0,2,1,1,3,0003-00-0001-18.png,0005-00-0000-79.png
00000014,761,0,1446216850799,1446216850807,516,424,0,0,0,4,3,1,7,0004-00-0000-17.png,0002-00-0001-11.png
00000014,762,0,1446216853800,1446216854294,355,409,0,0,0,3,2,1,5,0002-00-0000-98.png,0003-00-0001-80.png
00000014,763,1,1446216857207,1446216858058,350,332,0,0,0,0,1,1,1,0001-00-0001-46.png,0005-00-0001-48.png
00000014,764,1,1446216859159,1446216859803,878,410,0,0,0,2,1,1,3,0003-00-0000-21.png,0005-00-0001-49.png
00000014,765,1,1446216860959,1446216861450,861,533,0,0,0,1,0,1,1,0005-00-0000-30.png,0001-00-0000-52.png
00000014,766,1,1446216862609,1446216863115,401,462,0,0,0,3,4,1,7,0002-00-0001-82.png,0004-00-0000-47.png
00000014,767,1,1446216864315,1446216864753,350,450,0,0,0,1,2,1,3,0005-00-0000-26.png,0003-00-0000-98.png
00000014,768,0,1446216866105,1446216866699,893,430,0,0,0,2,3,1,5,0003-00-0000-80.png,0002-00-0001-86.png
00000014,769,0,1446216869624,1446216870527,391,400,0,0,0,3,2,1,5,0002-00-0001-31.png,0003-00-0001-35.png
00000014,770,0,1446216873383,1446216874095,381,395,0,0,0,2,1,1,3,0003-00-0000-11.png,0005-00-0001-25.png
00000014,771,1,1446216877048,1446216877482,875,540,0,0,0,4,3,1,7,0004-00-0001-12.png,0002-00-0000-24.png
00000014,772,0,1446216878508,1446216879363,952,410,0,0,0,3,4,1,7,0002-00-0000-78.png,0004-00-0001-82.png
00000014,773,0,1446216882287,1446216882936,875,371,0,0,0,2,3,1,5,0003-00-0001-00.png,0002-00-0000-48.png
00000014,774,0,1446216885804,1446216886466,401,436,0,0,0,1,0,1,1,0005-00-0000-67.png,0001-00-0001-69.png
00000014,775,0,1446216889529,1446216890366,934,395,0,0,0,1,2,1,3,0005-00-0000-54.png,0003-00-0001-39.png
00000014,776,1,1446216893210,1446216893885,337,390,0,0,0,0,1,1,1,0001-00-0000-04.png,0005-00-0000-68.png
00000014,777,0,1446216895060,1446216895695,368,448,0,0,0,2,1,1,3,0003-00-0001-52.png,0005-00-0001-63.png
00000014,778,0,1446216898667,1446216899320,372,393,0,0,0,4,3,1,7,0004-00-0001-92.png,0002-00-0000-76.png
00000014,779,0,1446216902434,1446216903017,427,424,0,0,0,3,2,1,5,0002-00-0000-67.png,0003-00-0001-21.png
00000014,780,0,1446216906010,1446216906474,951,449,0,0,0,2,3,1,5,0003-00-0001-04.png,0002-00-0000-63.png
00000014,781,1,1446216909518,1446216910242,879,480,0,0,0,1,0,1,1,0005-00-0001-52.png,0001-00-0000-48.png
00000014,782,1,1446216911310,1446216911927,350,439,0,0,0,1,2,1,3,0005-00-0001-18.png,0003-00-0000-92.png
00000014,783,1,1446216913087,1446216913584,340,454,0,0,0,0,1,1,1,0001-00-0001-11.png,0005-00-0001-30.png
00000014,784,1,1446216914787,1446216915189,339,427,0,0,0,3,4,1,7,0002-00-0001-88.png,0004-00-0001-91.png
00000014,785,0,1446216916460,1446216916959,340,474,0,0,0,3,2,1,5,0002-00-0000-91.png,0003-00-0000-07.png
00000014,786,0,1446216920072,1446216920634,886,541,0,0,0,1,2,1,3,0005-00-0000-93.png,0003-00-0000-37.png
00000014,787,0,1446216923651,1446216924145,923,431,0,0,0,2,3,1,5,0003-00-0000-72.png,0002-00-0001-00.png
00000014,788,0,1446216927042,1446216927633,939,410,0,0,0,3,4,1,7,0002-00-0001-86.png,0004-00-0001-42.png
00000014,789,0,1446216930476,1446216930956,376,436,0,0,0,4,3,1,7,0004-00-0001-29.png,0002-00-0001-33.png
00000014,790,0,1446216933807,1446216933837,504,439,0,0,0,2,1,1,3,0003-00-0001-73.png,0005-00-0001-45.png
00000014,791,1,1446216936990,1446216937660,414,423,0,0,0,0,1,1,1,0001-00-0000-83.png,0005-00-0000-89.png
00000014,792,1,1446216938716,1446216939698,922,462,0,0,0,1,0,1,1,0005-00-0000-48.png,0001-00-0001-35.png
00000014,793,0,1446216940798,1446216941253,896,445,0,0,0,2,3,1,5,0003-00-0001-37.png,0002-00-0001-64.png
00000014,794,1,1446216944336,1446216945016,299,370,0,0,0,3,4,1,7,0002-00-0000-22.png,0004-00-0000-79.png
00000014,795,0,1446216946045,1446216946529,383,471,0,0,0,2,1,1,3,0003-00-0000-58.png,0005-00-0001-09.png
00000014,796,1,1446216949564,1446216950311,896,465,0,0,0,1,0,1,1,0005-00-0001-20.png,0001-00-0001-87.png
00000014,797,0,1446216951342,1446216951819,398,558,0,0,0,3,2,1,5,0002-00-0000-96.png,0003-00-0000-22.png
00000014,798,1,1446216954649,1446216955134,336,410,0,0,0,0,1,1,1,0001-00-0001-78.png,0005-00-0000-62.png
00000014,799,1,1446216956244,1446216956859,919,439,0,0,0,4,3,1,7,0004-00-0000-50.png,0002-00-0001-27.png
00000014,800,1,1446216958052,1446216958479,342,436,0,0,0,1,2,1,3,0005-00-0000-73.png,0003-00-0000-94.png
00000014,801,1,1446216959710,1446216960298,384,445,0,0,0,1,2,1,3,0005-00-0001-07.png,0003-00-0000-78.png
00000014,802,0,1446216961590,1446216962072,884,451,0,0,0,2,3,1,5,0003-00-0000-11.png,0002-00-0000-55.png
00000014,803,0,1446216964958,1446216965582,376,422,0,0,0,1,0,1,1,0005-00-0000-35.png,0001-00-0001-40.png
00000014,804,0,1446216968547,1446216968990,333,452,0,0,0,3,2,1,5,0002-00-0001-52.png,0003-00-0000-02.png
00000014,805,0,1446216971842,1446216972688,381,535,0,0,0,4,3,1,7,0004-00-0001-66.png,0002-00-0000-76.png
00000014,806,1,1446216975604,1446216976056,325,399,0,0,0,0,1,1,1,0001-00-0001-77.png,0005-00-0001-13.png
00000014,807,1,1446216977146,1446216977980,922,413,0,0,0,2,1,1,3,0003-00-0000-46.png,0005-00-0001-83.png
00000014,808,1,1446216979073,1446216979510,359,447,0,0,0,3,4,1,7,0002-00-0001-55.png,0004-00-0001-99.png
00000014,809,1,1446216980694,1446216981275,877,466,0,0,0,2,1,1,3,0003-00-0000-27.png,0005-00-0001-69.png
00000014,810,0,1446216982365,1446216982924,885,441,0,0,0,2,3,1,5,0003-00-0001-21.png,0002-00-0000-32.png
00000014,811,1,1446216985950,1446216986502,318,399,0,0,0,0,1,1,1,0001-00-0001-37.png,0005-00-0000-56.png
00000014,812,0,1446216987620,1446216988040,365,435,0,0,0,4,3,1,7,0004-00-0000-49.png,0002-00-0001-33.png
00000014,813,1,1446216991159,1446216991780,338,424,0,0,0,1,2,1,3,0005-00-0000-03.png,0003-00-0001-01.png
00000014,814,0,1446216992870,1446216993498,417,560,0,0,0,1,0,1,1,0005-00-0000-68.png,0001-00-0000-89.png
00000014,815,1,1446216996432,1446216997019,413,555,0,0,0,3,4,1,7,0002-00-0000-52.png,0004-00-0001-28.png
00000014,816,0,1446216998225,1446216998969,319,401,0,0,0,3,2,1,5,0002-00-0000-43.png,0003-00-0001-46.png
00000014,817,1,1446217002052,1446217002676,409,420,0,0,0,3,4,1,7,0002-00-0001-30.png,0004-00-0001-84.png
00000014,818,0,1446217003752,1446217004197,367,462,0,0,0,2,1,1,3,0003-00-0000-87.png,0005-00-0000-92.png
00000014,819,0,1446217007048,1446217007584,340,404,0,0,0,4,3,1,7,0004-00-0000-31.png,0002-00-0001-80.png
00000014,820,1,1446217010449,1446217010896,324,429,0,0,0,0,1,1,1,0001-00-0000-66.png,0005-00-0000-26.png
00000014,821,0,1446217012062,1446217012587,887,423,0,0,0,2,3,1,5,0003-00-0000-62.png,0002-00-0001-40.png
00000014,822,0,1446217015518,1446217015952,334,409,0,0,0,3,2,1,5,0002-00-0000-09.png,0003-00-0001-49.png
00000014,823,0,1446217019038,1446217019642,348,397,0,0,0,1,0,1,1,0005-00-0001-69.png,0001-00-0001-61.png
00000014,824,1,1446217022525,1446217022992,342,401,0,0,0,1,2,1,3,0005-00-0000-02.png,0003-00-0000-83.png
00000014,825,0,1446217024116,1446217024542,344,464,0,0,0,2,1,1,3,0003-00-0001-68.png,0005-00-0001-89.png
00000014,826,0,1446217027434,1446217027458,518,398,0,0,0,1,0,1,1,0005-00-0001-21.png,0001-00-0001-36.png
00000014,827,0,1446217030577,1446217031210,404,436,0,0,0,3,2,1,5,0002-00-0001-38.png,0003-00-0000-93.png
00000014,828,1,1446217034068,1446217034112,521,410,0,0,0,3,4,1,7,0002-00-0001-66.png,0004-00-0001-06.png
00000014,829,0,1446217035198,1446217035655,336,450,0,0,0,4,3,1,7,0004-00-0001-15.png,0002-00-0000-08.png
00000014,830,0,1446217038505,1446217039006,880,453,0,0,0,2,3,1,5,0003-00-0000-65.png,0002-00-0000-45.png
00000014,831,1,1446217042136,1446217042635,383,419,0,0,0,1,2,1,3,0005-00-0001-94.png,0003-00-0000-82.png
00000014,832,0,1446217043738,1446217044468,904,448,0,0,0,0,1,1,1,0001-00-0001-93.png,0005-00-0000-01.png
00000014,833,1,1446217047903,1446217048434,879,454,0,0,0,2,1,1,3,0003-00-0001-70.png,0005-00-0001-12.png
00000014,834,0,1446217049512,1446217049989,912,450,0,0,0,2,3,1,5,0003-00-0001-12.png,0002-00-0000-11.png
00000014,835,1,1446217053057,1446217053569,907,473,0,0,0,4,3,1,7,0004-00-0001-85.png,0002-00-0000-54.png
00000014,836,0,1446217054579,1446217055522,882,514,0,0,0,3,4,1,7,0002-00-0001-23.png,0004-00-0001-16.png
00000014,837,0,1446217058542,1446217059161,371,393,0,0,0,1,0,1,1,0005-00-0001-35.png,0001-00-0000-46.png
00000014,838,0,1446217062279,1446217062756,312,423,0,0,0,3,2,1,5,0002-00-0000-17.png,0003-00-0001-44.png
00000014,839,1,1446217065749,1446217066231,365,459,0,0,0,1,2,1,3,0005-00-0001-39.png,0003-00-0000-21.png
00000014,840,0,1446217067352,1446217067952,899,438,0,0,0,0,1,1,1,0001-00-0001-92.png,0005-00-0001-64.png
00000014,841,1,1446217070947,1446217071436,383,419,0,0,0,1,2,1,3,0005-00-0001-70.png,0003-00-0001-83.png
00000014,842,0,1446217072508,1446217073199,376,450,0,0,0,2,1,1,3,0003-00-0001-26.png,0005-00-0001-10.png
00000014,843,0,1446217076245,1446217076730,300,423,0,0,0,4,3,1,7,0004-00-0001-01.png,0002-00-0001-27.png
00000014,844,0,1446217079841,1446217080452,400,415,0,0,0,3,2,1,5,0002-00-0000-23.png,0003-00-0001-41.png
00000014,845,0,1446217083309,1446217083360,495,451,0,0,0,1,0,1,1,0005-00-0000-21.png,0001-00-0001-67.png
00000014,846,0,1446217086244,1446217086883,922,428,0,0,0,2,3,1,5,0003-00-0001-02.png,0002-00-0001-22.png
00000014,847,0,1446217089828,1446217090356,914,449,0,0,0,3,4,1,7,0002-00-0000-70.png,0004-00-0000-19.png
00000014,848,1,1446217093367,1446217093969,338,410,0,0,0,0,1,1,1,0001-00-0000-22.png,0005-00-0001-41.png
00000014,849,0,1446217095045,1446217095476,273,424,0,0,0,4,3,1,7,0004-00-0000-81.png,0002-00-0000-33.png
00000014,850,0,1446217099195,1446217099633,900,438,0,0,0,3,4,1,7,0002-00-0001-33.png,0004-00-0000-95.png
00000014,851,0,1446217102642,1446217103248,923,406,0,0,0,1,2,1,3,0005-00-0000-88.png,0003-00-0001-93.png
00000014,852,0,1446217106085,1446217106554,877,499,0,0,0,2,3,1,5,0003-00-0000-14.png,0002-00-0000-39.png
00000014,853,0,1446217109507,1446217110034,317,392,0,0,0,3,2,1,5,0002-00-0000-34.png,0003-00-0001-11.png
00000014,854,0,1446217113117,1446217113633,362,396,0,0,0,2,1,1,3,0003-00-0000-38.png,0005-00-0001-83.png
00000014,855,0,1446217116542,1446217117287,928,481,0,0,0,0,1,1,1,0001-00-0001-66.png,0005-00-0001-30.png
00000014,856,1,1446217120202,1446217120881,924,456,0,0,0,1,0,1,1,0005-00-0001-75.png,0001-00-0001-80.png
00000014,857,0,1446217122002,1446217122488,325,447,0,0,0,1,0,1,1,0005-00-0001-56.png,0001-00-0001-48.png
00000014,858,1,1446217125480,1446217125992,376,525,0,0,0,3,4,1,7,0002-00-0001-28.png,0004-00-0000-95.png
00000014,859,1,1446217126962,1446217127777,926,410,0,0,0,2,1,1,3,0003-00-0001-46.png,0005-00-0001-04.png
00000014,860,1,1446217128835,1446217129371,387,449,0,0,0,0,1,1,1,0001-00-0000-52.png,0005-00-0000-41.png
00000014,861,0,1446217130629,1446217131057,337,430,0,0,0,3,2,1,5,0002-00-0001-15.png,0003-00-0001-01.png
00000014,862,0,1446217134095,1446217134713,918,408,0,0,0,1,2,1,3,0005-00-0001-01.png,0003-00-0000-36.png
00000014,863,1,1446217137541,1446217137589,465,436,0,0,0,2,3,1,5,0003-00-0001-14.png,0002-00-0001-80.png
00000014,864,1,1446217139006,1446217139475,912,450,0,0,0,4,3,1,7,0004-00-0001-36.png,0002-00-0000-40.png
00000014,865,1,1446217140567,1446217141010,317,427,0,0,0,3,4,1,7,0002-00-0000-24.png,0004-00-0001-55.png
00000014,866,0,1446217142319,1446217142833,366,475,0,0,0,1,0,1,1,0005-00-0001-42.png,0001-00-0000-61.png
00000014,867,0,1446217145823,1446217146259,389,462,0,0,0,2,1,1,3,0003-00-0001-50.png,0005-00-0000-80.png
00000014,868,0,1446217149271,1446217149979,944,410,0,0,0,1,2,1,3,0005-00-0001-71.png,0003-00-0000-39.png
00000014,869,0,1446217152991,1446217153563,387,423,0,0,0,4,3,1,7,0004-00-0000-12.png,0002-00-0001-76.png
00000014,870,1,1446217156459,1446217156479,500,464,0,0,0,0,1,1,1,0001-00-0000-24.png,0005-00-0000-33.png
00000014,871,0,1446217157452,1446217157883,326,394,0,0,0,3,2,1,5,0002-00-0001-04.png,0003-00-0000-61.png
00000014,872,0,1446217160841,1446217161530,924,409,0,0,0,2,3,1,5,0003-00-0000-77.png,0002-00-0001-60.png
00000014,873,1,1446217164551,1446217165242,365,381,0,0,0,1,2,1,3,0005-00-0000-65.png,0003-00-0001-00.png
00000014,874,1,1446217166389,1446217166850,314,431,0,0,0,3,4,1,7,0002-00-0000-24.png,0004-00-0000-66.png
00000014,875,0,1446217167929,1446217168499,325,449,0,0,0,1,0,1,1,0005-00-0001-72.png,0001-00-0001-36.png
00000014,876,0,1446217171617,1446217172087,342,418,0,0,0,2,1,1,3,0003-00-0001-46.png,0005-00-0001-58.png
00000014,877,0,1446217175100,1446217175128,517,481,0,0,0,3,2,1,5,0002-00-0000-98.png,0003-00-0001-92.png
00000014,878,0,1446217178104,1446217178757,933,443,0,0,0,0,1,1,1,0001-00-0000-92.png,0005-00-0000-83.png
00000014,879,1,1446217181842,1446217182636,414,410,0,0,0,2,3,1,5,0003-00-0001-90.png,0002-00-0001-54.png
00000014,880,1,1446217183662,1446217184320,918,453,0,0,0,4,3,1,7,0004-00-0000-60.png,0002-00-0001-57.png
00000014,881,1,1446217185506,1446217186114,900,449,0,0,0,1,0,1,1,0005-00-0001-92.png,0001-00-0001-61.png
00000014,882,0,1446217187220,1446217188251,914,423,0,0,0,2,3,1,5,0003-00-0000-47.png,0002-00-0001-43.png
00000014,883,0,1446217191245,1446217191697,324,392,0,0,0,3,2,1,5,0002-00-0000-31.png,0003-00-0001-13.png
00000014,884,1,1446217194722,1446217195515,401,410,0,0,0,3,4,1,7,0002-00-0001-75.png,0004-00-0000-78.png
00000014,885,1,1446217196642,1446217197280,900,449,0,0,0,4,3,1,7,0004-00-0000-82.png,0002-00-0001-16.png
00000014,886,1,1446217198422,1446217199117,369,435,0,0,0,1,2,1,3,0005-00-0001-42.png,0003-00-0001-08.png
00000014,887,0,1446217200310,1446217200984,359,438,0,0,0,2,1,1,3,0003-00-0000-63.png,0005-00-0000-45.png
00000014,888,1,1446217203876,1446217204609,390,411,0,0,0,0,1,1,1,0001-00-0000-87.png,0005-00-0001-57.png
00000014,889,0,1446217205677,1446217206417,954,418,0,0,0,3,4,1,7,0002-00-0000-20.png,0004-00-0001-19.png
00000014,890,1,1446217209403,1446217210095,325,398,0,0,0,0,1,1,1,0001-00-0000-78.png,0005-00-0001-33.png
00000014,891,0,1446217211368,1446217212076,348,444,0,0,0,4,3,1,7,0004-00-0000-72.png,0002-00-0001-72.png
00000014,892,1,1446217214979,1446217216010,926,450,0,0,0,1,0,1,1,0005-00-0000-92.png,0001-00-0000-45.png
00000014,893,0,1446217217207,1446217217698,356,466,0,0,0,2,1,1,3,0003-00-0000-70.png,0005-00-0001-37.png
00000014,894,0,1446217220604,1446217221120,318,401,0,0,0,3,2,1,5,0002-00-0000-08.png,0003-00-0000-96.png
00000014,895,1,1446217224254,1446217224702,373,446,0,0,0,1,2,1,3,0005-00-0001-08.png,0003-00-0001-75.png
00000014,896,0,1446217225941,1446217226897,926,411,0,0,0,2,3,1,5,0003-00-0000-37.png,0002-00-0000-38.png
00000014,897,0,1446217229838,1446217230768,890,474,0,0,0,1,2,1,3,0005-00-0000-67.png,0003-00-0000-90.png
00000014,898,0,1446217233982,1446217234413,318,410,0,0,0,3,2,1,5,0002-00-0000-09.png,0003-00-0001-36.png
00000014,899,0,1446217237507,1446217238383,927,450,0,0,0,3,4,1,7,0002-00-0001-41.png,0004-00-0000-15.png
00000014,900,1,1446217241345,1446217242280,926,423,0,0,0,1,0,1,1,0005-00-0000-19.png,0001-00-0001-67.png
00000014,901,0,1446217244347,1446217244904,319,407,0,0,0,4,3,1,7,0004-00-0001-50.png,0002-00-0001-01.png
00000014,902,0,1446217248133,1446217248756,374,424,0,0,0,2,1,1,3,0003-00-0001-96.png,0005-00-0001-98.png
00000014,903,1,1446217251848,1446217252436,381,383,0,0,0,2,3,1,5,0003-00-0001-44.png,0002-00-0001-39.png
00000014,904,0,1446217253411,1446217254267,861,496,0,0,0,0,1,1,1,0001-00-0001-15.png,0005-00-0001-62.png
00000014,905,0,1446217257249,1446217257838,313,400,0,0,0,1,0,1,1,0005-00-0000-37.png,0001-00-0001-20.png
00000014,906,1,1446217260999,1446217261678,358,401,0,0,0,3,4,1,7,0002-00-0000-98.png,0004-00-0000-50.png
00000014,907,0,1446217262755,1446217263309,873,536,0,0,0,2,3,1,5,0003-00-0000-52.png,0002-00-0000-66.png
00000014,908,1,1446217266392,1446217267140,421,531,0,0,0,1,2,1,3,0005-00-0000-36.png,0003-00-0001-39.png
00000014,909,0,1446217268229,1446217268752,373,494,0,0,0,4,3,1,7,0004-00-0000-21.png,0002-00-0001-85.png
00000014,910,1,1446217272206,1446217273075,401,410,0,0,0,0,1,1,1,0001-00-0000-55.png,0005-00-0000-02.png
00000014,911,1,1446217274175,1446217274825,864,414,0,0,0,3,2,1,5,0002-00-0001-85.png,0003-00-0001-52.png
00000014,912,0,1446217275983,1446217276609,368,442,0,0,0,2,1,1,3,0003-00-0001-52.png,0005-00-0000-39.png
00000014,913,0,1446217279441,1446217279939,387,410,0,0,0,3,2,1,5,0002-00-0000-99.png,0003-00-0001-70.png
00000014,914,0,1446217282833,1446217283364,948,445,0,0,0,2,3,1,5,0003-00-0000-67.png,0002-00-0000-98.png
00000014,915,1,1446217286546,1446217287569,928,441,0,0,0,1,0,1,1,0005-00-0000-70.png,0001-00-0000-83.png
00000014,916,1,1446217288555,1446217289420,913,441,0,0,0,4,3,1,7,0004-00-0001-64.png,0002-00-0000-34.png
00000014,917,1,1446217290516,1446217291220,376,436,0,0,0,0,1,1,1,0001-00-0000-92.png,0005-00-0000-98.png
00000014,918,1,1446217293007,1446217293441,382,447,0,0,0,1,2,1,3,0005-00-0001-47.png,0003-00-0000-64.png
00000014,919,0,1446217294648,1446217295107,360,474,0,0,0,2,1,1,3,0003-00-0001-36.png,0005-00-0001-49.png
00000014,920,0,1446217298208,1446217298773,909,439,0,0,0,3,4,1,7,0002-00-0001-44.png,0004-00-0001-34.png
00000014,921,1,1446217301948,1446217302757,376,436,0,0,0,1,2,1,3,0005-00-0001-31.png,0003-00-0000-10.png
00000014,922,1,1446217304318,1446217304844,359,444,0,0,0,0,1,1,1,0001-00-0001-89.png,0005-00-0000-52.png
00000014,923,1,1446217305981,1446217306439,900,449,0,0,0,4,3,1,7,0004-00-0000-10.png,0002-00-0000-94.png
00000014,924,0,1446217307801,1446217308330,902,439,0,0,0,2,3,1,5,0003-00-0000-68.png,0002-00-0001-61.png
00000014,925,0,1446217311455,1446217312209,362,367,0,0,0,2,1,1,3,0003-00-0001-64.png,0005-00-0000-65.png
00000014,926,1,1446217315451,1446217315889,365,441,0,0,0,3,4,1,7,0002-00-0001-21.png,0004-00-0001-35.png
00000014,927,0,1446217317011,1446217317709,325,439,0,0,0,1,0,1,1,0005-00-0001-38.png,0001-00-0001-97.png
00000014,928,0,1446217320914,1446217321440,352,476,0,0,0,3,2,1,5,0002-00-0000-05.png,0003-00-0000-72.png
00000014,929,1,1446217324432,1446217324940,366,468,0,0,0,3,4,1,7,0002-00-0001-64.png,0004-00-0000-64.png
00000014,930,1,1446217325934,1446217326667,376,462,0,0,0,1,2,1,3,0005-00-0000-36.png,0003-00-0001-93.png
00000014,931,0,1446217328120,1446217328619,899,457,0,0,0,2,3,1,5,0003-00-0001-96.png,0002-00-0000-57.png
00000014,932,0,1446217331672,1446217332185,365,441,0,0,0,3,2,1,5,0002-00-0000-87.png,0003-00-0000-36.png
00000014,933,0,1446217335031,1446217336209,435,416,0,0,0,4,3,1,7,0004-00-0000-01.png,0002-00-0001-50.png
00000014,934,1,1446217339252,1446217340103,902,502,0,0,0,1,0,1,1,0005-00-0000-49.png,0001-00-0001-52.png
00000014,935,0,1446217341154,1446217341616,372,471,0,0,0,2,1,1,3,0003-00-0001-92.png,0005-00-0001-37.png
00000014,936,1,1446217346022,1446217346569,311,405,0,0,0,0,1,1,1,0001-00-0001-93.png,0005-00-0000-35.png
00000014,937,1,1446217347623,1446217348249,338,436,0,0,0,1,2,1,3,0005-00-0000-84.png,0003-00-0000-15.png
00000014,938,1,1446217349311,1446217349777,337,439,0,0,0,3,4,1,7,0002-00-0001-94.png,0004-00-0001-96.png
00000014,939,0,1446217351033,1446217352013,876,528,0,0,0,2,3,1,5,0003-00-0001-77.png,0002-00-0001-52.png
00000014,940,0,1446217355137,1446217355572,413,501,0,0,0,3,2,1,5,0002-00-0000-15.png,0003-00-0000-28.png
00000014,941,0,1446217358684,1446217359338,365,414,0,0,0,4,3,1,7,0004-00-0000-45.png,0002-00-0000-53.png
00000014,942,1,1446217362461,1446217363144,923,433,0,0,0,1,0,1,1,0005-00-0001-87.png,0001-00-0001-99.png
00000014,943,1,1446217364187,1446217364671,396,441,0,0,0,0,1,1,1,0001-00-0001-37.png,0005-00-0000-64.png
00000014,944,0,1446217365712,1446217366261,366,459,0,0,0,2,1,1,3,0003-00-0001-67.png,0005-00-0001-17.png
00000014,945,0,1446217369345,1446217369830,412,436,0,0,0,4,3,1,7,0004-00-0001-52.png,0002-00-0000-47.png
00000014,946,0,1446217373721,1446217374464,884,526,0,0,0,1,2,1,3,0005-00-0001-08.png,0003-00-0000-46.png
00000014,947,0,1446217379483,1446217380147,977,466,0,0,0,3,4,1,7,0002-00-0000-04.png,0004-00-0000-92.png
00000014,948,0,1446217383091,1446217383710,420,443,0,0,0,3,2,1,5,0002-00-0001-27.png,0003-00-0000-16.png
00000014,949,1,1446217386709,1446217387431,951,397,0,0,0,1,0,1,1,0005-00-0000-17.png,0001-00-0001-19.png
00000014,950,0,1446217388418,1446217388904,914,421,0,0,0,2,3,1,5,0003-00-0000-50.png,0002-00-0001-54.png
00000014,951,1,1446217391889,1446217392735,344,383,0,0,0,0,1,1,1,0001-00-0001-75.png,0005-00-0001-15.png
