subject_id,trial,correct_response,stim_time,response_time,x_coord,y_coord,trial_timeout,timeout_time,interTrial_timeout,left_rank,right_rank,distance,joint_rank,left_image,right_image
00000014,1,0,1447083295763,1447083295775,477,435,0,0,0,3,2,1,5,0002-00-0001-54.png,0003-00-0000-36.png
00000014,2,0,1447083299871,1447083300215,376,306,0,0,0,2,1,1,3,0003-00-0000-75.png,0005-00-0001-46.png
00000014,3,1,1447083303172,1447083303597,388,458,0,0,0,1,2,1,3,0005-00-0001-74.png,0003-00-0001-42.png
00000014,4,1,1447083304633,1447083305052,390,475,0,0,0,2,3,1,5,0003-00-0001-79.png,0002-00-0000-80.png
00000014,5,0,1447083306334,1447083306825,901,502,0,0,0,3,4,1,7,0002-00-0000-50.png,0004-00-0000-65.png
00000014,6,0,1447083309871,1447083310263,372,358,0,0,0,4,3,1,7,0004-00-0001-84.png,0002-00-0000-19.png
00000014,7,0,1447083313650,1447083314081,899,490,0,0,0,0,1,1,1,0001-00-0001-88.png,0005-00-0000-46.png
00000014,8,0,1447083317197,1447083317708,354,368,0,0,0,1,0,1,1,0005-00-0000-07.png,0001-00-0001-82.png
00000014,9,0,1447083320936,1447083321419,909,461,0,0,0,2,3,1,5,0003-00-0001-21.png,0002-00-0001-46.png
00000014,10,1,1447083324510,1447083325235,390,477,0,0,0,3,4,1,7,0002-00-0001-81.png,0004-00-0001-08.png
00000014,11,1,1447083326370,1447083326872,376,398,0,0,0,1,2,1,3,0005-00-0001-45.png,0003-00-0001-40.png
00000014,12,0,1447083328009,1447083328501,376,436,0,0,0,2,1,1,3,0003-00-0001-87.png,0005-00-0001-44.png
00000014,13,0,1447083331475,1447083332124,365,354,0,0,0,4,3,1,7,0004-00-0000-12.png,0002-00-0000-33.png
00000014,14,1,1447083335357,1447083335964,898,414,0,0,0,1,0,1,1,0005-00-0000-00.png,0001-00-0001-62.png
00000014,15,1,1447083337034,1447083337459,379,392,0,0,0,0,1,1,1,0001-00-0000-35.png,0005-00-0001-23.png
00000014,16,0,1447083338435,1447083339112,414,449,0,0,0,3,2,1,5,0002-00-0000-12.png,0003-00-0000-14.png
00000014,17,1,1447083341980,1447083342500,902,308,0,0,0,3,2,1,5,0002-00-0001-86.png,0003-00-0001-31.png
00000014,18,0,1447083343414,1447083343851,376,527,0,0,0,1,0,1,1,0005-00-0000-10.png,0001-00-0000-67.png
00000014,19,0,1447083347242,1447083347695,340,394,0,0,0,2,1,1,3,0003-00-0000-27.png,0005-00-0000-97.png
00000014,20,0,1447083350838,1447083351339,933,392,0,0,0,2,3,1,5,0003-00-0001-08.png,0002-00-0000-86.png
00000014,21,0,1447083355083,1447083355596,414,403,0,0,0,4,3,1,7,0004-00-0001-06.png,0002-00-0000-62.png
00000014,22,1,1447083358906,1447083359441,348,423,0,0,0,0,1,1,1,0001-00-0001-32.png,0005-00-0001-29.png
00000014,23,0,1447083360479,1447083361038,903,389,0,0,0,3,4,1,7,0002-00-0001-23.png,0004-00-0000-91.png
00000014,24,1,1447083364275,1447083364769,351,410,0,0,0,1,2,1,3,0005-00-0000-38.png,0003-00-0000-11.png
00000014,25,1,1447083365744,1447083366198,362,493,0,0,0,2,3,1,5,0003-00-0001-44.png,0002-00-0001-55.png
00000014,26,1,1447083367223,1447083367859,379,408,0,0,0,0,1,1,1,0001-00-0001-69.png,0005-00-0001-54.png
00000014,27,1,1447083369324,1447083369818,878,489,0,0,0,1,0,1,1,0005-00-0001-84.png,0001-00-0001-53.png
00000014,28,1,1447083370885,1447083371402,880,506,0,0,0,2,1,1,3,0003-00-0001-78.png,0005-00-0001-04.png
00000014,29,1,1447083372384,1447083372898,401,436,0,0,0,3,4,1,7,0002-00-0001-37.png,0004-00-0000-84.png
00000014,30,1,1447083373936,1447083374524,901,358,0,0,0,4,3,1,7,0004-00-0000-42.png,0002-00-0000-21.png
00000014,31,0,1447083375504,1447083375963,319,400,0,0,0,3,2,1,5,0002-00-0001-99.png,0003-00-0001-64.png
00000014,32,1,1447083378833,1447083379276,377,353,0,0,0,1,2,1,3,0005-00-0001-63.png,0003-00-0000-87.png
00000014,33,1,1447083380246,1447083380753,401,424,0,0,0,1,2,1,3,0005-00-0001-82.png,0003-00-0001-95.png
00000014,34,0,1447083381748,1447083382314,412,438,0,0,0,2,1,1,3,0003-00-0000-21.png,0005-00-0001-38.png
00000014,35,1,1447083386261,1447083386693,381,378,0,0,0,0,1,1,1,0001-00-0001-62.png,0005-00-0000-38.png
00000014,36,1,1447083387787,1447083388321,882,463,0,0,0,3,2,1,5,0002-00-0001-90.png,0003-00-0001-43.png
00000014,37,1,1447083389321,1447083389804,316,427,0,0,0,3,4,1,7,0002-00-0001-75.png,0004-00-0000-34.png
00000014,38,0,1447083390851,1447083391313,386,462,0,0,0,4,3,1,7,0004-00-0001-88.png,0002-00-0000-02.png
00000014,39,0,1447083394184,1447083394612,898,361,0,0,0,2,3,1,5,0003-00-0000-34.png,0002-00-0000-84.png
00000014,40,1,1447083397869,1447083398292,890,370,0,0,0,1,0,1,1,0005-00-0001-44.png,0001-00-0000-38.png
00000014,41,0,1447083399195,1447083399614,358,432,0,0,0,3,2,1,5,0002-00-0001-79.png,0003-00-0001-30.png
00000014,42,0,1447083403117,1447083403761,957,374,0,0,0,2,3,1,5,0003-00-0000-81.png,0002-00-0000-69.png
00000014,43,1,1447083406654,1447083407150,410,455,0,0,0,1,2,1,3,0005-00-0000-87.png,0003-00-0001-80.png
00000014,44,1,1447083408033,1447083408512,354,390,0,0,0,3,4,1,7,0002-00-0000-07.png,0004-00-0001-40.png
00000014,45,1,1447083409507,1447083409973,360,398,0,0,0,0,1,1,1,0001-00-0001-77.png,0005-00-0001-55.png
00000014,46,1,1447083410967,1447083411445,950,385,0,0,0,1,0,1,1,0005-00-0001-38.png,0001-00-0001-74.png
00000014,47,1,1447083412395,1447083413054,913,344,0,0,0,2,1,1,3,0003-00-0001-60.png,0005-00-0000-03.png
00000014,48,0,1447083414034,1447083414588,371,410,0,0,0,4,3,1,7,0004-00-0000-84.png,0002-00-0000-93.png
00000014,49,1,1447083417717,1447083418130,362,397,0,0,0,0,1,1,1,0001-00-0001-71.png,0005-00-0001-69.png
00000014,50,1,1447083419090,1447083419592,875,358,0,0,0,2,1,1,3,0003-00-0001-27.png,0005-00-0000-42.png
00000014,51,1,1447083421306,1447083421712,391,416,0,0,0,1,2,1,3,0005-00-0001-75.png,0003-00-0000-84.png
00000014,52,1,1447083422564,1447083423088,898,378,0,0,0,1,0,1,1,0005-00-0000-25.png,0001-00-0001-09.png
00000014,53,1,1447083424048,1447083424480,465,423,0,0,0,3,4,1,7,0002-00-0000-68.png,0004-00-0001-90.png
00000014,54,0,1447083426095,1447083426520,367,428,0,0,0,4,3,1,7,0004-00-0001-87.png,0002-00-0001-93.png
00000014,55,1,1447083430090,1447083436469,316,444,0,0,0,2,3,1,5,0003-00-0001-42.png,0002-00-0001-58.png
00000014,56,0,1447083437765,1447083438207,437,496,0,0,0,3,2,1,5,0002-00-0000-96.png,0003-00-0001-56.png
00000014,57,1,1447083441512,1447083441919,325,345,0,0,0,0,1,1,1,0001-00-0001-79.png,0005-00-0001-55.png
00000014,58,0,1447083442824,1447083443255,376,423,0,0,0,4,3,1,7,0004-00-0000-52.png,0002-00-0000-60.png
00000014,59,0,1447083446313,1447083446739,904,439,0,0,0,2,3,1,5,0003-00-0001-29.png,0002-00-0000-21.png
00000014,60,1,1447083451182,1447083451616,375,462,0,0,0,3,4,1,7,0002-00-0001-20.png,0004-00-0000-17.png
00000014,61,1,1447083453277,1447083453749,917,395,0,0,0,1,0,1,1,0005-00-0000-62.png,0001-00-0001-09.png
00000014,62,0,1447083454781,1447083455265,357,427,0,0,0,3,2,1,5,0002-00-0000-96.png,0003-00-0001-73.png
00000014,63,1,1447083458436,1447083458902,350,396,0,0,0,1,2,1,3,0005-00-0001-81.png,0003-00-0001-34.png
00000014,64,1,1447083459899,1447083460410,905,349,0,0,0,2,1,1,3,0003-00-0001-10.png,0005-00-0001-16.png
00000014,65,1,1447083461439,1447083461892,376,384,0,0,0,0,1,1,1,0001-00-0001-57.png,0005-00-0001-68.png
00000014,66,0,1447083462876,1447083463378,879,506,0,0,0,2,3,1,5,0003-00-0000-33.png,0002-00-0000-32.png
00000014,67,1,1447083466345,1447083466425,488,449,0,0,0,1,2,1,3,0005-00-0001-43.png,0003-00-0000-06.png
00000014,68,0,1447083467403,1447083468086,873,459,0,0,0,3,4,1,7,0002-00-0000-05.png,0004-00-0000-59.png
00000014,69,0,1447083471279,1447083471853,414,520,0,0,0,4,3,1,7,0004-00-0000-08.png,0002-00-0000-97.png
00000014,70,1,1447083475376,1447083476008,897,407,0,0,0,1,0,1,1,0005-00-0000-01.png,0001-00-0000-19.png
00000014,71,0,1447083477041,1447083477572,338,450,0,0,0,3,2,1,5,0002-00-0001-74.png,0003-00-0000-18.png
00000014,72,1,1447083480953,1447083481654,881,341,0,0,0,2,1,1,3,0003-00-0001-72.png,0005-00-0000-05.png
00000014,73,1,1447083482728,1447083483272,874,474,0,0,0,1,0,1,1,0005-00-0001-87.png,0001-00-0001-94.png
00000014,74,1,1447083484289,1447083485043,379,383,0,0,0,0,1,1,1,0001-00-0001-85.png,0005-00-0000-22.png
00000014,75,0,1447083486188,1447083486737,375,531,0,0,0,3,2,1,5,0002-00-0000-58.png,0003-00-0000-74.png
00000014,76,0,1447083490045,1447083490574,385,416,0,0,0,4,3,1,7,0004-00-0000-86.png,0002-00-0000-35.png
00000014,77,1,1447083494328,1447083495039,320,394,0,0,0,1,2,1,3,0005-00-0001-65.png,0003-00-0000-64.png
00000014,78,1,1447083496093,1447083496614,903,364,0,0,0,2,1,1,3,0003-00-0000-96.png,0005-00-0000-12.png
00000014,79,0,1447083497647,1447083498167,923,381,0,0,0,2,3,1,5,0003-00-0001-05.png,0002-00-0001-70.png
00000014,80,0,1447083502598,1447083503125,902,439,0,0,0,3,4,1,7,0002-00-0000-48.png,0004-00-0000-75.png
00000014,81,1,1447083506979,1447083507543,926,384,0,0,0,1,0,1,1,0005-00-0000-19.png,0001-00-0000-87.png
00000014,82,1,1447083508599,1447083509156,927,389,0,0,0,2,1,1,3,0003-00-0000-48.png,0005-00-0001-60.png
00000014,83,1,1447083510146,1447083510593,363,444,0,0,0,1,2,1,3,0005-00-0000-43.png,0003-00-0000-75.png
00000014,84,1,1447083511617,1447083512060,299,410,0,0,0,0,1,1,1,0001-00-0000-86.png,0005-00-0000-92.png
00000014,85,0,1447083513052,1447083513603,892,416,0,0,0,2,3,1,5,0003-00-0001-82.png,0002-00-0001-44.png
00000014,86,0,1447083517147,1447083517581,376,410,0,0,0,3,2,1,5,0002-00-0001-62.png,0003-00-0001-90.png
00000014,87,1,1447083522634,1447083523050,420,436,0,0,0,3,4,1,7,0002-00-0000-29.png,0004-00-0000-05.png
00000014,88,1,1447083524252,1447083524839,907,399,0,0,0,4,3,1,7,0004-00-0001-71.png,0002-00-0001-25.png
00000014,89,1,1447083525890,1447083526458,932,410,0,0,0,1,0,1,1,0005-00-0000-37.png,0001-00-0000-91.png
00000014,90,0,1447083527484,1447083527996,886,387,0,0,0,3,4,1,7,0002-00-0001-54.png,0004-00-0001-57.png
00000014,91,0,1447083531132,1447083531812,335,335,0,0,0,4,3,1,7,0004-00-0001-41.png,0002-00-0001-82.png
00000014,92,1,1447083535364,1447083535994,383,349,0,0,0,0,1,1,1,0001-00-0000-12.png,0005-00-0000-38.png
00000014,93,0,1447083537138,1447083537655,913,384,0,0,0,2,3,1,5,0003-00-0000-80.png,0002-00-0001-91.png
00000014,94,0,1447083540750,1447083541348,350,358,0,0,0,3,2,1,5,0002-00-0001-65.png,0003-00-0000-32.png
00000014,95,0,1447083544339,1447083544840,876,467,0,0,0,1,2,1,3,0005-00-0000-62.png,0003-00-0000-31.png
00000014,96,1,1447083547691,1447083548208,871,470,0,0,0,2,1,1,3,0003-00-0001-83.png,0005-00-0000-78.png
00000014,97,1,1447083549177,1447083549734,873,464,0,0,0,1,0,1,1,0005-00-0001-45.png,0001-00-0001-23.png
00000014,98,1,1447083550828,1447083551654,414,476,0,0,0,3,4,1,7,0002-00-0001-50.png,0004-00-0001-43.png
00000014,99,1,1447083552702,1447083553141,308,398,0,0,0,0,1,1,1,0001-00-0000-75.png,0005-00-0000-87.png
00000014,100,1,1447083554229,1447083554782,859,463,0,0,0,4,3,1,7,0004-00-0000-98.png,0002-00-0000-00.png
00000014,101,0,1447083555938,1447083556459,905,418,0,0,0,1,2,1,3,0005-00-0001-43.png,0003-00-0001-80.png
00000014,102,0,1447083559360,1447083559835,939,344,0,0,0,2,3,1,5,0003-00-0000-04.png,0002-00-0000-18.png
00000014,103,1,1447083563551,1447083564202,877,443,0,0,0,2,1,1,3,0003-00-0000-12.png,0005-00-0000-86.png
00000014,104,0,1447083565342,1447083565836,331,420,0,0,0,3,2,1,5,0002-00-0001-24.png,0003-00-0001-88.png
00000014,105,0,1447083569544,1447083569999,385,429,0,0,0,4,3,1,7,0004-00-0001-43.png,0002-00-0001-68.png
00000014,106,1,1447083573031,1447083573526,346,373,0,0,0,1,2,1,3,0005-00-0001-08.png,0003-00-0001-86.png
00000014,107,0,1447083574532,1447083575027,873,465,0,0,0,2,3,1,5,0003-00-0001-42.png,0002-00-0001-60.png
00000014,108,0,1447083578221,1447083578706,338,358,0,0,0,3,2,1,5,0002-00-0000-23.png,0003-00-0001-38.png
00000014,109,0,1447083582503,1447083583140,939,345,0,0,0,0,1,1,1,0001-00-0001-17.png,0005-00-0000-41.png
00000014,110,1,1447083586468,1447083586900,376,362,0,0,0,3,4,1,7,0002-00-0000-19.png,0004-00-0001-37.png
00000014,111,1,1447083588010,1447083588550,931,374,0,0,0,1,0,1,1,0005-00-0001-31.png,0001-00-0001-40.png
00000014,112,1,1447083589620,1447083590166,885,482,0,0,0,2,1,1,3,0003-00-0000-63.png,0005-00-0000-53.png
00000014,113,1,1447083591235,1447083591751,349,420,0,0,0,2,3,1,5,0003-00-0001-68.png,0002-00-0000-79.png
00000014,114,0,1447083592900,1447083593955,393,350,0,0,0,2,1,1,3,0003-00-0001-98.png,0005-00-0001-01.png
00000014,115,1,1447083597531,1447083598121,392,360,0,0,0,1,2,1,3,0005-00-0000-16.png,0003-00-0001-95.png
00000014,116,1,1447083599230,1447083599784,895,393,0,0,0,4,3,1,7,0004-00-0000-43.png,0002-00-0001-62.png
00000014,117,0,1447083600800,1447083601400,407,436,0,0,0,3,2,1,5,0002-00-0001-01.png,0003-00-0001-70.png
00000014,118,1,1447083605992,1447083606514,345,363,0,0,0,0,1,1,1,0001-00-0001-84.png,0005-00-0001-72.png
00000014,119,0,1447083607469,1447083608067,888,397,0,0,0,3,4,1,7,0002-00-0001-47.png,0004-00-0001-97.png
00000014,120,1,1447083611197,1447083611665,937,398,0,0,0,1,0,1,1,0005-00-0000-86.png,0001-00-0000-86.png
00000014,121,0,1447083612677,1447083613236,905,401,0,0,0,2,3,1,5,0003-00-0000-94.png,0002-00-0001-65.png
00000014,122,0,1447083617429,1447083617871,923,404,0,0,0,1,2,1,3,0005-00-0001-43.png,0003-00-0000-73.png
00000014,123,0,1447083621891,1447083622321,319,366,0,0,0,3,2,1,5,0002-00-0000-51.png,0003-00-0001-83.png
00000014,124,1,1447083625299,1447083625790,928,337,0,0,0,2,1,1,3,0003-00-0001-90.png,0005-00-0000-24.png
00000014,125,0,1447083626856,1447083627476,352,377,0,0,0,4,3,1,7,0004-00-0000-79.png,0002-00-0001-65.png
00000014,126,1,1447083630647,1447083631238,896,471,0,0,0,1,0,1,1,0005-00-0000-28.png,0001-00-0000-13.png
00000014,127,1,1447083632242,1447083632687,401,529,0,0,0,3,4,1,7,0002-00-0001-94.png,0004-00-0000-05.png
00000014,128,1,1447083633833,1447083634512,372,392,0,0,0,0,1,1,1,0001-00-0000-64.png,0005-00-0000-39.png
00000014,129,0,1447083635557,1447083636072,412,538,0,0,0,3,2,1,5,0002-00-0000-77.png,0003-00-0001-72.png
00000014,130,1,1447083639722,1447083640302,357,391,0,0,0,3,4,1,7,0002-00-0001-16.png,0004-00-0000-20.png
00000014,131,0,1447083641268,1447083641802,325,423,0,0,0,1,0,1,1,0005-00-0001-98.png,0001-00-0000-94.png
00000014,132,0,1447083645200,1447083645692,919,388,0,0,0,2,3,1,5,0003-00-0001-22.png,0002-00-0001-33.png
00000014,133,1,1447083650027,1447083650451,928,388,0,0,0,2,1,1,3,0003-00-0000-87.png,0005-00-0001-78.png
00000014,134,1,1447083651636,1447083652131,354,420,0,0,0,0,1,1,1,0001-00-0000-65.png,0005-00-0001-88.png
00000014,135,1,1447083653164,1447083653645,388,436,0,0,0,1,2,1,3,0005-00-0001-86.png,0003-00-0000-06.png
00000014,136,0,1447083654802,1447083655306,357,406,0,0,0,4,3,1,7,0004-00-0000-46.png,0002-00-0001-29.png
00000014,137,0,1447083662745,1447083663677,942,406,0,0,0,2,3,1,5,0003-00-0000-82.png,0002-00-0001-28.png
00000014,138,1,1447083667001,1447083667543,899,454,0,0,0,4,3,1,7,0004-00-0001-34.png,0002-00-0001-89.png
00000014,139,1,1447083668540,1447083669121,398,399,0,0,0,1,2,1,3,0005-00-0001-22.png,0003-00-0000-58.png
00000014,140,0,1447083670121,1447083670639,418,561,0,0,0,1,0,1,1,0005-00-0001-57.png,0001-00-0001-56.png
00000014,141,0,1447083673689,1447083674162,409,402,0,0,0,3,2,1,5,0002-00-0000-14.png,0003-00-0001-67.png
00000014,142,1,1447083677834,1447083678570,921,419,0,0,0,2,1,1,3,0003-00-0001-01.png,0005-00-0001-80.png
00000014,143,1,1447083679614,1447083680221,349,368,0,0,0,3,4,1,7,0002-00-0000-00.png,0004-00-0000-52.png
00000014,144,0,1447083681689,1447083682562,869,363,0,0,0,0,1,1,1,0001-00-0000-17.png,0005-00-0000-34.png
00000014,145,1,1447083685482,1447083685993,427,475,0,0,0,0,1,1,1,0001-00-0000-14.png,0005-00-0000-72.png
00000014,146,1,1447083686928,1447083687420,427,411,0,0,0,1,2,1,3,0005-00-0001-99.png,0003-00-0000-64.png
00000014,147,1,1447083688469,1447083688976,893,509,0,0,0,1,0,1,1,0005-00-0000-45.png,0001-00-0000-38.png
00000014,148,1,1447083690020,1447083690557,897,405,0,0,0,2,1,1,3,0003-00-0001-90.png,0005-00-0001-03.png
00000014,149,1,1447083691611,1447083692155,866,388,0,0,0,4,3,1,7,0004-00-0001-91.png,0002-00-0001-94.png
00000014,150,0,1447083693151,1447083693683,862,383,0,0,0,2,3,1,5,0003-00-0000-53.png,0002-00-0001-29.png
00000014,151,0,1447083696729,1447083697192,383,398,0,0,0,3,2,1,5,0002-00-0001-36.png,0003-00-0001-93.png
00000014,152,1,1447083700485,1447083700935,329,394,0,0,0,3,4,1,7,0002-00-0000-80.png,0004-00-0000-22.png
00000014,153,0,1447083702006,1447083702525,374,410,0,0,0,3,2,1,5,0002-00-0000-23.png,0003-00-0000-59.png
00000014,154,0,1447083706728,1447083707175,876,476,0,0,0,2,3,1,5,0003-00-0000-10.png,0002-00-0000-34.png
00000014,155,1,1447083710241,1447083710772,885,397,0,0,0,4,3,1,7,0004-00-0001-19.png,0002-00-0001-66.png
00000014,156,0,1447083711736,1447083712194,401,410,0,0,0,2,1,1,3,0003-00-0000-93.png,0005-00-0001-27.png
00000014,157,1,1447083715162,1447083716088,376,306,0,0,0,3,4,1,7,0002-00-0001-56.png,0004-00-0001-76.png
00000014,158,0,1447083717061,1447083717776,878,393,0,0,0,1,2,1,3,0005-00-0000-09.png,0003-00-0001-72.png
00000014,159,1,1447083721158,1447083721627,400,396,0,0,0,0,1,1,1,0001-00-0001-54.png,0005-00-0000-42.png
00000014,160,1,1447083722570,1447083723186,886,430,0,0,0,1,0,1,1,0005-00-0000-92.png,0001-00-0001-31.png
00000014,161,0,1447083724140,1447083725215,498,407,0,0,0,1,0,1,1,0005-00-0000-91.png,0001-00-0001-25.png
00000014,162,0,1447083729281,1447083729768,920,376,0,0,0,2,3,1,5,0003-00-0000-88.png,0002-00-0001-27.png
00000014,163,1,1447083732825,1447083733682,419,375,0,0,0,1,2,1,3,0005-00-0001-01.png,0003-00-0001-85.png
00000014,164,1,1447083734605,1447083735092,316,429,0,0,0,0,1,1,1,0001-00-0001-05.png,0005-00-0000-58.png
00000014,165,0,1447083736092,1447083736539,365,428,0,0,0,4,3,1,7,0004-00-0000-19.png,0002-00-0000-31.png
00000014,166,1,1447083777851,1447083778272,348,421,0,0,0,3,4,1,7,0002-00-0000-10.png,0004-00-0000-90.png
00000014,167,0,1447083779645,1447083780082,319,408,0,0,0,3,2,1,5,0002-00-0001-24.png,0003-00-0000-94.png
00000014,168,1,1447083783890,1447083784354,931,497,0,0,0,2,1,1,3,0003-00-0001-16.png,0005-00-0000-44.png
00000014,169,1,1447083785329,1447083785738,427,424,0,0,0,1,2,1,3,0005-00-0001-79.png,0003-00-0000-53.png
00000014,170,1,1447083786666,1447083787266,916,426,0,0,0,4,3,1,7,0004-00-0000-05.png,0002-00-0000-83.png
00000014,171,1,1447083788241,1447083788775,907,419,0,0,0,2,1,1,3,0003-00-0000-55.png,0005-00-0001-50.png
00000014,172,1,1447083789781,1447083790185,299,403,0,0,0,0,1,1,1,0001-00-0000-28.png,0005-00-0000-10.png
00000014,173,0,1447083791119,1447083791605,924,430,0,0,0,2,3,1,5,0003-00-0000-11.png,0002-00-0001-75.png
00000014,174,0,1447083796668,1447083797110,354,358,0,0,0,3,2,1,5,0002-00-0001-73.png,0003-00-0001-59.png
00000014,175,1,1447083800217,1447083800663,874,449,0,0,0,1,0,1,1,0005-00-0001-31.png,0001-00-0000-72.png
00000014,176,1,1447083801648,1447083802121,320,433,0,0,0,3,4,1,7,0002-00-0000-22.png,0004-00-0001-66.png
00000014,177,0,1447083803147,1447083803735,885,412,0,0,0,1,2,1,3,0005-00-0000-94.png,0003-00-0000-08.png
00000014,178,0,1447083806795,1447083807254,927,467,0,0,0,2,3,1,5,0003-00-0001-25.png,0002-00-0001-79.png
00000014,179,1,1447083810962,1447083811523,943,320,0,0,0,1,0,1,1,0005-00-0001-44.png,0001-00-0000-82.png
00000014,180,1,1447083812787,1447083813263,391,545,0,0,0,3,4,1,7,0002-00-0001-95.png,0004-00-0001-98.png
00000014,181,0,1447083814300,1447083814782,388,436,0,0,0,3,2,1,5,0002-00-0001-21.png,0003-00-0001-02.png
00000014,182,1,1447083818654,1447083819081,949,376,0,0,0,2,1,1,3,0003-00-0001-16.png,0005-00-0001-70.png
00000014,183,0,1447083820164,1447083820688,926,410,0,0,0,0,1,1,1,0001-00-0000-03.png,0005-00-0000-42.png
00000014,184,0,1447083823722,1447083824347,377,357,0,0,0,4,3,1,7,0004-00-0001-54.png,0002-00-0000-34.png
00000014,185,1,1447083832294,1447083832723,353,350,0,0,0,1,2,1,3,0005-00-0001-67.png,0003-00-0000-24.png
00000014,186,0,1447083833689,1447083834119,342,401,0,0,0,3,2,1,5,0002-00-0000-57.png,0003-00-0000-82.png
00000014,187,0,1447083838221,1447083838763,908,397,0,0,0,3,4,1,7,0002-00-0001-84.png,0004-00-0000-56.png
00000014,188,1,1447083848240,1447083848705,898,440,0,0,0,2,1,1,3,0003-00-0001-54.png,0005-00-0001-77.png
00000014,189,0,1447083849650,1447083850169,922,409,0,0,0,2,3,1,5,0003-00-0000-08.png,0002-00-0000-17.png
00000014,190,0,1447083854493,1447083854960,325,359,0,0,0,4,3,1,7,0004-00-0001-67.png,0002-00-0001-03.png
00000014,191,1,1447083858111,1447083858115,517,450,0,0,0,0,1,1,1,0001-00-0000-04.png,0005-00-0001-25.png
00000014,192,1,1447083859205,1447083859813,887,365,0,0,0,1,0,1,1,0005-00-0001-80.png,0001-00-0001-33.png
00000014,193,1,1447083860794,1447083861369,900,410,0,0,0,2,1,1,3,0003-00-0000-18.png,0005-00-0000-72.png
00000014,194,0,1447083862386,1447083862840,390,449,0,0,0,3,2,1,5,0002-00-0001-89.png,0003-00-0000-50.png
00000014,195,1,1447083865914,1447083866385,874,332,0,0,0,4,3,1,7,0004-00-0000-72.png,0002-00-0000-84.png
00000014,196,0,1447083867384,1447083867899,923,430,0,0,0,2,3,1,5,0003-00-0000-76.png,0002-00-0000-34.png
00000014,197,0,1447083871311,1447083871913,870,288,0,0,0,3,4,1,7,0002-00-0000-42.png,0004-00-0000-46.png
00000014,198,1,1447083875237,1447083875741,949,358,0,0,0,1,0,1,1,0005-00-0001-89.png,0001-00-0001-79.png
00000014,199,1,1447083876691,1447083877105,336,423,0,0,0,0,1,1,1,0001-00-0001-57.png,0005-00-0001-67.png
00000014,200,1,1447083878099,1447083878778,383,347,0,0,0,1,2,1,3,0005-00-0000-32.png,0003-00-0001-14.png
00000014,201,0,1447083879867,1447083880400,899,394,0,0,0,2,3,1,5,0003-00-0001-46.png,0002-00-0001-37.png
00000014,202,1,1447083883585,1447083884064,916,457,0,0,0,2,1,1,3,0003-00-0000-78.png,0005-00-0001-90.png
00000014,203,1,1447083885045,1447083885496,385,419,0,0,0,0,1,1,1,0001-00-0001-00.png,0005-00-0000-44.png
00000014,204,1,1447083886905,1447083887351,913,371,0,0,0,1,0,1,1,0005-00-0001-92.png,0001-00-0001-26.png
00000014,205,1,1447083888352,1447083888870,447,541,0,0,0,3,4,1,7,0002-00-0001-73.png,0004-00-0001-13.png
00000014,206,0,1447083889877,1447083890323,376,435,0,0,0,3,2,1,5,0002-00-0001-93.png,0003-00-0001-03.png
00000014,207,1,1447083894319,1447083894935,901,345,0,0,0,4,3,1,7,0004-00-0000-89.png,0002-00-0000-90.png
00000014,208,1,1447083895959,1447083896461,392,555,0,0,0,1,2,1,3,0005-00-0001-20.png,0003-00-0001-52.png
00000014,209,1,1447083897664,1447083898163,921,420,0,0,0,1,0,1,1,0005-00-0001-71.png,0001-00-0000-60.png
00000014,210,0,1447083899179,1447083899829,897,341,0,0,0,3,4,1,7,0002-00-0001-70.png,0004-00-0000-92.png
00000014,211,0,1447083903026,1447083903499,899,475,0,0,0,2,3,1,5,0003-00-0000-22.png,0002-00-0000-13.png
00000014,212,1,1447083907846,1447083908321,877,324,0,0,0,2,1,1,3,0003-00-0000-31.png,0005-00-0001-71.png
00000014,213,0,1447083909327,1447083909732,363,448,0,0,0,3,2,1,5,0002-00-0000-84.png,0003-00-0001-05.png
00000014,214,0,1447083912998,1447083913636,895,341,0,0,0,1,2,1,3,0005-00-0001-82.png,0003-00-0001-23.png
00000014,215,1,1447083916667,1447083917172,356,350,0,0,0,0,1,1,1,0001-00-0000-50.png,0005-00-0001-76.png
00000014,216,1,1447083918213,1447083918697,925,413,0,0,0,4,3,1,7,0004-00-0001-91.png,0002-00-0000-43.png
00000014,217,1,1447083919672,1447083920665,425,488,0,0,0,3,4,1,7,0002-00-0000-43.png,0004-00-0000-10.png
00000014,218,1,1447083921640,1447083922216,907,409,0,0,0,1,0,1,1,0005-00-0001-97.png,0001-00-0001-59.png
00000014,219,0,1447083923231,1447083923766,875,397,0,0,0,2,3,1,5,0003-00-0001-61.png,0002-00-0001-84.png
00000014,220,1,1447083926778,1447083927391,446,506,0,0,0,1,2,1,3,0005-00-0001-43.png,0003-00-0001-51.png
00000014,221,1,1447083928409,1447083928931,880,401,0,0,0,4,3,1,7,0004-00-0000-13.png,0002-00-0000-20.png
00000014,222,1,1447083929909,1447083930395,428,556,0,0,0,0,1,1,1,0001-00-0001-20.png,0005-00-0000-43.png
00000014,223,0,1447083931391,1447083932297,377,346,0,0,0,3,2,1,5,0002-00-0000-33.png,0003-00-0000-17.png
00000014,224,1,1447083935406,1447083935977,926,371,0,0,0,2,1,1,3,0003-00-0000-32.png,0005-00-0001-21.png
00000014,225,1,1447083937077,1447083937527,388,429,0,0,0,0,1,1,1,0001-00-0000-27.png,0005-00-0001-71.png
00000014,226,1,1447083938667,1447083939314,953,381,0,0,0,1,0,1,1,0005-00-0001-18.png,0001-00-0001-28.png
00000014,227,0,1447083940345,1447083941005,896,368,0,0,0,3,4,1,7,0002-00-0001-60.png,0004-00-0001-39.png
00000014,228,1,1447083944012,1447083944525,401,346,0,0,0,1,2,1,3,0005-00-0001-67.png,0003-00-0001-10.png
00000014,229,1,1447083945572,1447083946090,880,375,0,0,0,2,1,1,3,0003-00-0000-18.png,0005-00-0000-43.png
00000014,230,0,1447083947123,1447083947669,877,390,0,0,0,2,3,1,5,0003-00-0001-91.png,0002-00-0001-62.png
00000014,231,0,1447083950793,1447083951253,328,367,0,0,0,4,3,1,7,0004-00-0000-36.png,0002-00-0001-85.png
00000014,232,0,1447083954508,1447083954982,377,480,0,0,0,3,2,1,5,0002-00-0000-85.png,0003-00-0001-68.png
00000014,233,0,1447083958781,1447083959317,895,342,0,0,0,3,4,1,7,0002-00-0001-16.png,0004-00-0000-76.png
00000014,234,0,1447083962277,1447083962756,931,366,0,0,0,2,3,1,5,0003-00-0001-54.png,0002-00-0001-08.png
00000014,235,1,1447083965892,1447083966411,372,367,0,0,0,0,1,1,1,0001-00-0001-23.png,0005-00-0000-30.png
00000014,236,1,1447083967427,1447083968012,924,413,0,0,0,4,3,1,7,0004-00-0000-33.png,0002-00-0000-59.png
00000014,237,0,1447083969011,1447083969456,366,408,0,0,0,3,2,1,5,0002-00-0000-94.png,0003-00-0000-70.png
00000014,238,0,1447083972496,1447083973042,389,360,0,0,0,1,0,1,1,0005-00-0000-45.png,0001-00-0000-84.png
00000014,239,0,1447083976034,1447083976530,877,442,0,0,0,1,2,1,3,0005-00-0000-72.png,0003-00-0000-27.png
00000014,240,1,1447083979424,1447083980121,902,337,0,0,0,2,1,1,3,0003-00-0000-47.png,0005-00-0001-24.png
00000014,241,1,1447083981084,1447083981627,879,480,0,0,0,1,0,1,1,0005-00-0000-18.png,0001-00-0000-40.png
00000014,242,0,1447083982555,1447083982959,377,414,0,0,0,3,2,1,5,0002-00-0000-71.png,0003-00-0001-95.png
00000014,243,1,1447083985806,1447083986341,463,540,0,0,0,1,2,1,3,0005-00-0001-72.png,0003-00-0001-60.png
00000014,244,0,1447083987257,1447083987720,901,409,0,0,0,2,3,1,5,0003-00-0000-05.png,0002-00-0001-46.png
00000014,245,1,1447083990923,1447083991352,925,378,0,0,0,4,3,1,7,0004-00-0001-48.png,0002-00-0001-52.png
00000014,246,1,1447083992255,1447083992667,396,434,0,0,0,0,1,1,1,0001-00-0000-76.png,0005-00-0001-88.png
00000014,247,1,1447083993617,1447083994133,873,508,0,0,0,2,1,1,3,0003-00-0001-88.png,0005-00-0001-04.png
00000014,248,1,1447083995037,1447083995523,427,450,0,0,0,3,4,1,7,0002-00-0000-13.png,0004-00-0000-35.png
00000014,249,1,1447083996540,1447083996991,900,384,0,0,0,4,3,1,7,0004-00-0001-19.png,0002-00-0000-69.png
00000014,250,1,1447083997970,1447083998523,901,410,0,0,0,2,1,1,3,0003-00-0000-68.png,0005-00-0000-13.png
00000014,251,1,1447083999479,1447083999950,929,392,0,0,0,1,0,1,1,0005-00-0000-09.png,0001-00-0001-40.png
00000014,252,1,1447084000945,1447084001406,337,422,0,0,0,1,2,1,3,0005-00-0001-91.png,0003-00-0000-45.png
00000014,253,1,1447084002397,1447084002973,350,398,0,0,0,0,1,1,1,0001-00-0000-26.png,0005-00-0001-32.png
00000014,254,0,1447084003964,1447084004431,902,416,0,0,0,2,3,1,5,0003-00-0001-00.png,0002-00-0000-84.png
00000014,255,0,1447084007419,1447084007906,885,470,0,0,0,3,4,1,7,0002-00-0001-43.png,0004-00-0001-92.png
00000014,256,0,1447084017767,1447084018126,334,344,0,0,0,3,2,1,5,0002-00-0000-24.png,0003-00-0000-49.png
00000014,257,1,1447084028065,1447084028482,963,344,0,0,0,2,1,1,3,0003-00-0001-41.png,0005-00-0001-52.png
00000014,258,1,1447084029450,1447084030221,923,377,0,0,0,1,0,1,1,0005-00-0001-40.png,0001-00-0001-47.png
00000014,259,0,1447084031168,1447084031607,418,559,0,0,0,3,2,1,5,0002-00-0001-71.png,0003-00-0001-25.png
00000014,260,0,1447084034627,1447084035064,927,371,0,0,0,2,3,1,5,0003-00-0001-92.png,0002-00-0001-97.png
00000014,261,0,1447084038841,1447084039364,921,362,0,0,0,1,2,1,3,0005-00-0001-08.png,0003-00-0001-15.png
00000014,262,1,1447084042449,1447084043072,873,438,0,0,0,4,3,1,7,0004-00-0000-48.png,0002-00-0001-82.png
00000014,263,0,1447084044059,1447084044592,889,423,0,0,0,3,4,1,7,0002-00-0000-20.png,0004-00-0001-94.png
00000014,264,1,1447084047687,1447084048210,390,408,0,0,0,0,1,1,1,0001-00-0001-01.png,0005-00-0001-29.png
00000014,265,1,1447084049159,1447084049673,921,419,0,0,0,1,0,1,1,0005-00-0001-75.png,0001-00-0000-71.png
00000014,266,1,1447084050649,1447084051251,862,397,0,0,0,4,3,1,7,0004-00-0001-53.png,0002-00-0000-80.png
00000014,267,0,1447084052335,1447084052777,353,413,0,0,0,3,2,1,5,0002-00-0001-37.png,0003-00-0000-65.png
00000014,268,0,1447084056148,1447084056593,917,458,0,0,0,3,4,1,7,0002-00-0001-20.png,0004-00-0001-02.png
00000014,269,1,1447084060360,1447084060802,927,382,0,0,0,2,1,1,3,0003-00-0001-64.png,0005-00-0001-02.png
00000014,270,1,1447084061900,1447084062762,387,293,0,0,0,1,2,1,3,0005-00-0001-34.png,0003-00-0001-79.png
00000014,271,0,1447084063820,1447084064381,865,494,0,0,0,0,1,1,1,0001-00-0001-07.png,0005-00-0000-63.png
00000014,272,0,1447084067675,1447084068141,933,415,0,0,0,2,3,1,5,0003-00-0000-96.png,0002-00-0001-24.png
00000014,273,0,1447084071435,1447084071996,426,431,0,0,0,1,0,1,1,0005-00-0001-70.png,0001-00-0001-75.png
00000014,274,1,1447084074999,1447084075530,913,371,0,0,0,2,1,1,3,0003-00-0000-41.png,0005-00-0001-34.png
00000014,275,0,1447084076557,1447084077101,918,409,0,0,0,2,3,1,5,0003-00-0001-45.png,0002-00-0000-55.png
00000014,276,1,1447084079951,1447084080490,355,331,0,0,0,0,1,1,1,0001-00-0001-00.png,0005-00-0000-63.png
00000014,277,0,1447084081379,1447084081928,939,397,0,0,0,3,4,1,7,0002-00-0000-55.png,0004-00-0000-45.png
00000014,278,1,1447084092279,1447084092723,929,416,0,0,0,3,2,1,5,0002-00-0000-79.png,0003-00-0001-07.png
00000014,279,1,1447084093652,1447084094233,929,416,0,0,0,4,3,1,7,0004-00-0000-87.png,0002-00-0001-18.png
00000014,280,1,1447084095164,1447084095666,401,449,0,0,0,1,2,1,3,0005-00-0000-81.png,0003-00-0000-89.png
00000014,281,1,1447084096655,1447084097163,925,410,0,0,0,1,0,1,1,0005-00-0000-28.png,0001-00-0001-40.png
00000014,282,0,1447084098154,1447084098700,875,384,0,0,0,2,3,1,5,0003-00-0000-98.png,0002-00-0000-78.png
00000014,283,1,1447084104197,1447084104704,862,332,0,0,0,2,1,1,3,0003-00-0001-10.png,0005-00-0000-46.png
00000014,284,1,1447084105772,1447084106219,335,432,0,0,0,1,2,1,3,0005-00-0000-36.png,0003-00-0001-12.png
00000014,285,0,1447084107249,1447084107783,900,423,0,0,0,3,4,1,7,0002-00-0000-47.png,0004-00-0001-41.png
00000014,286,1,1447084112543,1447084113106,895,341,0,0,0,3,2,1,5,0002-00-0000-80.png,0003-00-0000-53.png
00000014,287,1,1447084114145,1447084114666,362,424,0,0,0,0,1,1,1,0001-00-0000-64.png,0005-00-0000-15.png
00000014,288,1,1447084115766,1447084116268,894,404,0,0,0,4,3,1,7,0004-00-0000-34.png,0002-00-0000-45.png
00000014,289,1,1447084117376,1447084117876,897,405,0,0,0,1,0,1,1,0005-00-0001-80.png,0001-00-0001-23.png
00000014,290,1,1447084118906,1447084119387,376,449,0,0,0,1,2,1,3,0005-00-0000-22.png,0003-00-0001-59.png
00000014,291,0,1447084120416,1447084121129,881,348,0,0,0,0,1,1,1,0001-00-0001-56.png,0005-00-0000-82.png
00000014,292,1,1447084126400,1447084126900,874,333,0,0,0,4,3,1,7,0004-00-0001-25.png,0002-00-0000-09.png
00000014,293,0,1447084127880,1447084128335,401,424,0,0,0,3,2,1,5,0002-00-0001-80.png,0003-00-0000-05.png
00000014,294,1,1447084131587,1447084132076,876,494,0,0,0,2,1,1,3,0003-00-0000-88.png,0005-00-0001-67.png
00000014,295,0,1447084133128,1447084133651,874,507,0,0,0,2,3,1,5,0003-00-0001-76.png,0002-00-0001-33.png
00000014,296,0,1447084136677,1447084137130,926,384,0,0,0,3,4,1,7,0002-00-0000-08.png,0004-00-0000-19.png
00000014,297,1,1447084140143,1447084140564,344,395,0,0,0,3,4,1,7,0002-00-0001-19.png,0004-00-0001-53.png
00000014,298,0,1447084141624,1447084142090,361,440,0,0,0,3,2,1,5,0002-00-0001-32.png,0003-00-0000-68.png
00000014,299,0,1447084146507,1447084147418,952,371,0,0,0,0,1,1,1,0001-00-0000-08.png,0005-00-0001-66.png
00000014,300,0,1447084150521,1447084150946,920,393,0,0,0,2,3,1,5,0003-00-0001-34.png,0002-00-0001-19.png
00000014,301,0,1447084154475,1447084155058,900,345,0,0,0,1,2,1,3,0005-00-0001-76.png,0003-00-0000-32.png
00000014,302,1,1447084157983,1447084158467,931,401,0,0,0,2,1,1,3,0003-00-0001-96.png,0005-00-0001-75.png
00000014,303,1,1447084159375,1447084160038,872,490,0,0,0,1,0,1,1,0005-00-0001-50.png,0001-00-0001-70.png
00000014,304,1,1447084160976,1447084161664,913,398,0,0,0,4,3,1,7,0004-00-0001-22.png,0002-00-0001-14.png
00000014,305,1,1447084162655,1447084163260,357,428,0,0,0,3,4,1,7,0002-00-0000-04.png,0004-00-0000-40.png
00000014,306,1,1447084164340,1447084164813,893,404,0,0,0,2,1,1,3,0003-00-0001-50.png,0005-00-0001-77.png
00000014,307,0,1447084165776,1447084166331,875,435,0,0,0,2,3,1,5,0003-00-0000-77.png,0002-00-0000-44.png
00000014,308,1,1447084171104,1447084171701,896,341,0,0,0,3,2,1,5,0002-00-0000-11.png,0003-00-0000-36.png
00000014,309,1,1447084172749,1447084173293,888,421,0,0,0,4,3,1,7,0004-00-0000-98.png,0002-00-0000-75.png
00000014,310,1,1447084174264,1447084174750,398,528,0,0,0,1,2,1,3,0005-00-0000-03.png,0003-00-0000-16.png
00000014,311,0,1447084175919,1447084176645,904,401,0,0,0,0,1,1,1,0001-00-0000-17.png,0005-00-0001-40.png
00000014,312,1,1447084180535,1447084181417,876,443,0,0,0,1,0,1,1,0005-00-0000-18.png,0001-00-0000-26.png
00000014,313,1,1447084182503,1447084182974,874,510,0,0,0,4,3,1,7,0004-00-0001-53.png,0002-00-0001-92.png
00000014,314,0,1447084183954,1447084184404,432,453,0,0,0,3,2,1,5,0002-00-0000-17.png,0003-00-0000-95.png
00000014,315,0,1447084187708,1447084188637,418,376,0,0,0,2,1,1,3,0003-00-0000-48.png,0005-00-0001-11.png
00000014,316,0,1447084192053,1447084192732,899,379,0,0,0,3,4,1,7,0002-00-0001-95.png,0004-00-0001-80.png
00000014,317,1,1447084196476,1447084197090,400,387,0,0,0,1,2,1,3,0005-00-0000-82.png,0003-00-0001-58.png
00000014,318,1,1447084198176,1447084198728,862,358,0,0,0,1,0,1,1,0005-00-0000-78.png,0001-00-0001-68.png
00000014,319,1,1447084199825,1447084200327,340,438,0,0,0,0,1,1,1,0001-00-0000-46.png,0005-00-0001-09.png
00000014,320,0,1447084201385,1447084201912,910,439,0,0,0,2,3,1,5,0003-00-0000-27.png,0002-00-0000-28.png
00000014,321,0,1447084210943,1447084211366,385,374,0,0,0,3,2,1,5,0002-00-0001-13.png,0003-00-0001-70.png
00000014,322,1,1447084214505,1447084214999,873,433,0,0,0,4,3,1,7,0004-00-0000-87.png,0002-00-0001-66.png
00000014,323,0,1447084215954,1447084216875,928,338,0,0,0,2,3,1,5,0003-00-0000-11.png,0002-00-0001-73.png
00000014,324,1,1447084222812,1447084223304,401,410,0,0,0,0,1,1,1,0001-00-0001-40.png,0005-00-0000-76.png
00000014,325,0,1447084224171,1447084224614,368,411,0,0,0,1,0,1,1,0005-00-0001-96.png,0001-00-0001-06.png
00000014,326,1,1447084227682,1447084228206,380,401,0,0,0,3,4,1,7,0002-00-0000-66.png,0004-00-0001-50.png
00000014,327,1,1447084229100,1447084229574,876,521,0,0,0,2,1,1,3,0003-00-0001-85.png,0005-00-0001-98.png
00000014,328,1,1447084230483,1447084231473,357,375,0,0,0,1,2,1,3,0005-00-0000-52.png,0003-00-0001-61.png
00000014,329,1,1447084232450,1447084232868,414,528,0,0,0,1,2,1,3,0005-00-0001-59.png,0003-00-0001-34.png
00000014,330,0,1447084233829,1447084234452,875,391,0,0,0,3,4,1,7,0002-00-0000-83.png,0004-00-0001-13.png
00000014,331,1,1447084238179,1447084238645,875,479,0,0,0,2,1,1,3,0003-00-0000-16.png,0005-00-0000-15.png
00000014,332,0,1447084239567,1447084240023,379,419,0,0,0,3,2,1,5,0002-00-0000-58.png,0003-00-0001-97.png
00000014,333,1,1447084247151,1447084247605,901,450,0,0,0,4,3,1,7,0004-00-0001-41.png,0002-00-0001-94.png
00000014,334,0,1447084248585,1447084249119,877,416,0,0,0,2,3,1,5,0003-00-0001-46.png,0002-00-0001-64.png
00000014,335,1,1447084252288,1447084252781,401,410,0,0,0,0,1,1,1,0001-00-0000-15.png,0005-00-0001-53.png
00000014,336,1,1447084253876,1447084254328,902,409,0,0,0,1,0,1,1,0005-00-0001-76.png,0001-00-0001-63.png
00000014,337,0,1447084255270,1447084255795,899,412,0,0,0,3,4,1,7,0002-00-0001-09.png,0004-00-0000-57.png
00000014,338,0,1447084259067,1447084259521,898,455,0,0,0,2,3,1,5,0003-00-0000-86.png,0002-00-0000-85.png
00000014,339,0,1447084263350,1447084263758,401,410,0,0,0,1,0,1,1,0005-00-0001-88.png,0001-00-0000-81.png
00000014,340,1,1447084266628,1447084267035,912,398,0,0,0,2,1,1,3,0003-00-0000-32.png,0005-00-0001-29.png
00000014,341,1,1447084267940,1447084268407,371,512,0,0,0,0,1,1,1,0001-00-0001-46.png,0005-00-0001-23.png
00000014,342,1,1447084269421,1447084270116,875,436,0,0,0,3,2,1,5,0002-00-0001-94.png,0003-00-0001-71.png
00000014,343,1,1447084271072,1447084271713,362,372,0,0,0,1,2,1,3,0005-00-0001-29.png,0003-00-0001-94.png
00000014,344,0,1447084272742,1447084273263,409,539,0,0,0,4,3,1,7,0004-00-0001-36.png,0002-00-0001-69.png
00000014,345,0,1447084276242,1447084276768,874,449,0,0,0,3,4,1,7,0002-00-0000-20.png,0004-00-0001-05.png
00000014,346,1,1447084279939,1447084280468,923,354,0,0,0,4,3,1,7,0004-00-0001-37.png,0002-00-0001-14.png
00000014,347,1,1447084281530,1447084282001,331,400,0,0,0,0,1,1,1,0001-00-0000-69.png,0005-00-0000-61.png
00000014,348,0,1447084282949,1447084283363,373,417,0,0,0,3,2,1,5,0002-00-0001-30.png,0003-00-0000-75.png
00000014,349,1,1447084286478,1447084287089,877,457,0,0,0,2,1,1,3,0003-00-0001-93.png,0005-00-0001-24.png
00000014,350,1,1447084288097,1447084288585,926,423,0,0,0,1,0,1,1,0005-00-0000-20.png,0001-00-0001-57.png
00000014,351,1,1447084289629,1447084290037,376,423,0,0,0,1,2,1,3,0005-00-0001-63.png,0003-00-0001-76.png
00000014,352,0,1447084291097,1447084291588,888,410,0,0,0,2,3,1,5,0003-00-0000-02.png,0002-00-0000-54.png
00000014,353,1,1447084295826,1447084296572,888,397,0,0,0,3,2,1,5,0002-00-0001-08.png,0003-00-0001-82.png
00000014,354,0,1447084297602,1447084298136,863,494,0,0,0,2,3,1,5,0003-00-0001-61.png,0002-00-0000-48.png
00000014,355,1,1447084301097,1447084301531,314,359,0,0,0,1,2,1,3,0005-00-0000-89.png,0003-00-0001-76.png
00000014,356,1,1447084302417,1447084302893,427,488,0,0,0,0,1,1,1,0001-00-0001-50.png,0005-00-0000-52.png
00000014,357,1,1447084303845,1447084304342,902,434,0,0,0,1,0,1,1,0005-00-0000-92.png,0001-00-0001-68.png
00000014,358,1,1447084305311,1447084305952,901,371,0,0,0,2,1,1,3,0003-00-0000-26.png,0005-00-0001-71.png
00000014,359,0,1447084306891,1447084307532,900,397,0,0,0,3,4,1,7,0002-00-0001-17.png,0004-00-0001-83.png
00000014,360,1,1447084311953,1447084312362,919,378,0,0,0,4,3,1,7,0004-00-0001-40.png,0002-00-0000-43.png
00000014,361,1,1447084313301,1447084313705,380,401,0,0,0,0,1,1,1,0001-00-0001-43.png,0005-00-0001-84.png
00000014,362,0,1447084314673,1447084315194,900,411,0,0,0,2,3,1,5,0003-00-0001-34.png,0002-00-0000-79.png
00000014,363,1,1447084318252,1447084318674,924,378,0,0,0,1,0,1,1,0005-00-0001-60.png,0001-00-0000-67.png
00000014,364,1,1447084319602,1447084320554,382,491,0,0,0,1,2,1,3,0005-00-0000-98.png,0003-00-0000-55.png
00000014,365,1,1447084321480,1447084322012,880,453,0,0,0,2,1,1,3,0003-00-0001-16.png,0005-00-0000-15.png
00000014,366,1,1447084322959,1447084323667,879,375,0,0,0,4,3,1,7,0004-00-0000-42.png,0002-00-0000-96.png
00000014,367,0,1447084324601,1447084325488,362,348,0,0,0,3,2,1,5,0002-00-0000-64.png,0003-00-0000-42.png
00000014,368,0,1447084332593,1447084333029,879,441,0,0,0,3,4,1,7,0002-00-0000-50.png,0004-00-0000-67.png
00000014,369,0,1447084337235,1447084338053,401,343,0,0,0,4,3,1,7,0004-00-0001-84.png,0002-00-0000-36.png
00000014,370,0,1447084341446,1447084341903,913,358,0,0,0,2,3,1,5,0003-00-0000-10.png,0002-00-0000-97.png
00000014,371,1,1447084344986,1447084345400,928,338,0,0,0,2,1,1,3,0003-00-0001-23.png,0005-00-0000-33.png
00000014,372,1,1447084346347,1447084346778,407,451,0,0,0,1,2,1,3,0005-00-0000-87.png,0003-00-0001-42.png
00000014,373,0,1447084347767,1447084348263,875,384,0,0,0,0,1,1,1,0001-00-0000-97.png,0005-00-0000-09.png
00000014,374,1,1447084351426,1447084351823,920,351,0,0,0,1,0,1,1,0005-00-0000-37.png,0001-00-0000-36.png
00000014,375,0,1447084352737,1447084353197,450,438,0,0,0,3,2,1,5,0002-00-0000-26.png,0003-00-0000-78.png
00000014,376,1,1447084363667,1447084364105,358,407,0,0,0,3,4,1,7,0002-00-0001-91.png,0004-00-0001-67.png
00000014,377,1,1447084365238,1447084365971,369,412,0,0,0,1,2,1,3,0005-00-0000-86.png,0003-00-0000-77.png
00000014,378,1,1447084366933,1447084367601,880,349,0,0,0,1,0,1,1,0005-00-0000-37.png,0001-00-0001-72.png
00000014,379,1,1447084368677,1447084369117,879,401,0,0,0,2,1,1,3,0003-00-0000-34.png,0005-00-0001-00.png
00000014,380,1,1447084370316,1447084371136,399,353,0,0,0,2,3,1,5,0003-00-0000-79.png,0002-00-0000-63.png
00000014,381,1,1447084372145,1447084372592,376,410,0,0,0,0,1,1,1,0001-00-0000-25.png,0005-00-0001-79.png
00000014,382,0,1447084373586,1447084374042,394,433,0,0,0,3,2,1,5,0002-00-0001-35.png,0003-00-0001-64.png
00000014,383,0,1447084377434,1447084377930,887,345,0,0,0,3,4,1,7,0002-00-0001-94.png,0004-00-0001-88.png
00000014,384,0,1447084381096,1447084381620,340,380,0,0,0,4,3,1,7,0004-00-0001-52.png,0002-00-0000-15.png
00000014,385,1,1447084385035,1447084385447,376,371,0,0,0,0,1,1,1,0001-00-0000-75.png,0005-00-0001-06.png
00000014,386,0,1447084386452,1447084387210,904,336,0,0,0,1,2,1,3,0005-00-0001-41.png,0003-00-0001-71.png
00000014,387,0,1447084390761,1447084391226,388,398,0,0,0,4,3,1,7,0004-00-0000-19.png,0002-00-0001-29.png
00000014,388,0,1447084394139,1447084394516,862,332,0,0,0,2,3,1,5,0003-00-0000-21.png,0002-00-0000-98.png
00000014,389,1,1447084397837,1447084398301,901,450,0,0,0,1,0,1,1,0005-00-0001-58.png,0001-00-0000-07.png
00000014,390,0,1447084399307,1447084399782,904,417,0,0,0,3,4,1,7,0002-00-0000-21.png,0004-00-0001-08.png
00000014,391,1,1447084402807,1447084403255,887,436,0,0,0,2,1,1,3,0003-00-0000-26.png,0005-00-0001-86.png
00000014,392,1,1447084404237,1447084404795,876,408,0,0,0,3,2,1,5,0002-00-0001-36.png,0003-00-0000-76.png
00000014,393,0,1447084405769,1447084406299,887,398,0,0,0,1,2,1,3,0005-00-0000-74.png,0003-00-0001-32.png
00000014,394,1,1447084409478,1447084409933,924,381,0,0,0,2,1,1,3,0003-00-0000-05.png,0005-00-0000-50.png
00000014,395,0,1447084410939,1447084411599,380,345,0,0,0,1,0,1,1,0005-00-0000-20.png,0001-00-0000-94.png
00000014,396,0,1447084415977,1447084416649,870,419,0,0,0,3,4,1,7,0002-00-0000-22.png,0004-00-0000-82.png
00000014,397,0,1447084419813,1447084420300,939,358,0,0,0,2,3,1,5,0003-00-0000-24.png,0002-00-0000-38.png
00000014,398,0,1447084424513,1447084425118,387,408,0,0,0,4,3,1,7,0004-00-0000-55.png,0002-00-0001-43.png
00000014,399,0,1447084428102,1447084428565,414,448,0,0,0,3,2,1,5,0002-00-0001-08.png,0003-00-0001-93.png
00000014,400,0,1447084433601,1447084434294,954,312,0,0,0,0,1,1,1,0001-00-0001-33.png,0005-00-0001-63.png
00000014,401,0,1447084439799,1447084440208,932,349,0,0,0,2,3,1,5,0003-00-0001-95.png,0002-00-0001-10.png
00000014,402,0,1447084443212,1447084443628,928,346,0,0,0,0,1,1,1,0001-00-0000-59.png,0005-00-0001-08.png
00000014,403,1,1447084446528,1447084446937,335,345,0,0,0,1,2,1,3,0005-00-0001-80.png,0003-00-0000-01.png
00000014,404,1,1447084447863,1447084448598,920,390,0,0,0,3,2,1,5,0002-00-0001-58.png,0003-00-0001-96.png
00000014,405,0,1447084449532,1447084449976,398,444,0,0,0,2,1,1,3,0003-00-0000-51.png,0005-00-0001-17.png
00000014,406,1,1447084452863,1447084453587,374,332,0,0,0,3,4,1,7,0002-00-0001-38.png,0004-00-0000-46.png
00000014,407,1,1447084454529,1447084455292,877,492,0,0,0,1,0,1,1,0005-00-0001-92.png,0001-00-0001-75.png
00000014,408,1,1447084456232,1447084456827,911,393,0,0,0,4,3,1,7,0004-00-0001-84.png,0002-00-0000-64.png
00000014,409,0,1447084457722,1447084458265,892,392,0,0,0,1,2,1,3,0005-00-0000-87.png,0003-00-0000-08.png
00000014,410,0,1447084465080,1447084465528,913,345,0,0,0,0,1,1,1,0001-00-0001-85.png,0005-00-0000-27.png
00000014,411,1,1447084469836,1447084470380,899,428,0,0,0,2,1,1,3,0003-00-0000-97.png,0005-00-0000-92.png
00000014,412,1,1447084471324,1447084471936,913,370,0,0,0,3,2,1,5,0002-00-0000-94.png,0003-00-0000-27.png
00000014,413,0,1447084472841,1447084473315,372,447,0,0,0,1,0,1,1,0005-00-0001-96.png,0001-00-0001-23.png
00000014,414,1,1447084478360,1447084478868,874,449,0,0,0,4,3,1,7,0004-00-0000-66.png,0002-00-0000-25.png
00000014,415,0,1447084479821,1447084480488,901,340,0,0,0,3,4,1,7,0002-00-0000-92.png,0004-00-0001-28.png
00000014,416,0,1447084486041,1447084486482,887,455,0,0,0,2,3,1,5,0003-00-0001-73.png,0002-00-0001-64.png
00000014,417,1,1447084489421,1447084489903,418,403,0,0,0,0,1,1,1,0001-00-0001-19.png,0005-00-0001-83.png
00000014,418,0,1447084490903,1447084491393,901,409,0,0,0,2,3,1,5,0003-00-0001-21.png,0002-00-0001-39.png
00000014,419,1,1447084496946,1447084497411,874,482,0,0,0,2,1,1,3,0003-00-0000-86.png,0005-00-0001-22.png
00000014,420,1,1447084498366,1447084498843,401,410,0,0,0,1,2,1,3,0005-00-0000-12.png,0003-00-0000-07.png
00000014,421,0,1447084499859,1447084500377,902,388,0,0,0,3,4,1,7,0002-00-0000-94.png,0004-00-0001-59.png
00000014,422,1,1447084503555,1447084503983,924,353,0,0,0,1,0,1,1,0005-00-0001-17.png,0001-00-0001-00.png
00000014,423,0,1447084504906,1447084506035,344,373,0,0,0,4,3,1,7,0004-00-0000-01.png,0002-00-0001-84.png
00000014,424,1,1447084508960,1447084509481,881,365,0,0,0,3,2,1,5,0002-00-0001-54.png,0003-00-0000-07.png
00000014,425,0,1447084510502,1447084511099,366,381,0,0,0,3,2,1,5,0002-00-0000-19.png,0003-00-0000-81.png
00000014,426,0,1447084514124,1447084514747,926,338,0,0,0,2,3,1,5,0003-00-0001-44.png,0002-00-0001-55.png
00000014,427,0,1447084522301,1447084522828,412,497,0,0,0,4,3,1,7,0004-00-0001-22.png,0002-00-0001-08.png
00000014,428,1,1447084527996,1447084528487,923,393,0,0,0,2,1,1,3,0003-00-0000-16.png,0005-00-0000-68.png
00000014,429,1,1447084529477,1447084529991,353,430,0,0,0,0,1,1,1,0001-00-0000-26.png,0005-00-0000-40.png
00000014,430,0,1447084530947,1447084531665,879,388,0,0,0,1,2,1,3,0005-00-0001-90.png,0003-00-0001-39.png
00000014,431,0,1447084535946,1447084536433,938,385,0,0,0,3,4,1,7,0002-00-0001-82.png,0004-00-0001-65.png
00000014,432,1,1447084542978,1447084543397,920,430,0,0,0,1,0,1,1,0005-00-0000-89.png,0001-00-0001-57.png
00000014,433,0,1447084544379,1447084544813,319,426,0,0,0,3,2,1,5,0002-00-0001-62.png,0003-00-0000-56.png
00000014,434,1,1447084548713,1447084549293,874,455,0,0,0,2,1,1,3,0003-00-0000-21.png,0005-00-0000-37.png
00000014,435,1,1447084550692,1447084551554,421,382,0,0,0,2,3,1,5,0003-00-0000-79.png,0002-00-0001-05.png
00000014,436,0,1447084552591,1447084553056,390,558,0,0,0,4,3,1,7,0004-00-0000-32.png,0002-00-0001-23.png
00000014,437,1,1447084556068,1447084556561,325,369,0,0,0,1,2,1,3,0005-00-0000-37.png,0003-00-0001-78.png
00000014,438,0,1447084557562,1447084558397,875,435,0,0,0,0,1,1,1,0001-00-0000-03.png,0005-00-0001-11.png
00000014,439,1,1447084561536,1447084562012,939,371,0,0,0,1,0,1,1,0005-00-0000-51.png,0001-00-0001-82.png
00000014,440,0,1447084563050,1447084563588,927,409,0,0,0,3,4,1,7,0002-00-0000-31.png,0004-00-0001-07.png
00000014,441,0,1447084566882,1447084567458,876,443,0,0,0,0,1,1,1,0001-00-0000-01.png,0005-00-0001-50.png
00000014,442,0,1447084571445,1447084572036,905,349,0,0,0,1,2,1,3,0005-00-0001-93.png,0003-00-0001-06.png
00000014,443,1,1447084574922,1447084575448,311,345,0,0,0,3,4,1,7,0002-00-0000-73.png,0004-00-0001-96.png
00000014,444,1,1447084576436,1447084577027,880,402,0,0,0,4,3,1,7,0004-00-0000-41.png,0002-00-0001-40.png
00000014,445,0,1447084578034,1447084578669,876,372,0,0,0,2,3,1,5,0003-00-0001-87.png,0002-00-0001-18.png
00000014,446,0,1447084582087,1447084582719,413,384,0,0,0,2,1,1,3,0003-00-0001-72.png,0005-00-0001-32.png
00000014,447,0,1447084585817,1447084586515,379,355,0,0,0,1,0,1,1,0005-00-0000-89.png,0001-00-0000-91.png
00000014,448,1,1447084590063,1447084590807,913,333,0,0,0,3,2,1,5,0002-00-0001-40.png,0003-00-0001-36.png
00000014,449,1,1447084591870,1447084592394,905,427,0,0,0,2,1,1,3,0003-00-0000-36.png,0005-00-0000-98.png
00000014,450,0,1447084593401,1447084594162,900,398,0,0,0,0,1,1,1,0001-00-0001-62.png,0005-00-0000-23.png
00000014,451,1,1447084597382,1447084597913,921,367,0,0,0,1,0,1,1,0005-00-0000-58.png,0001-00-0001-49.png
00000014,452,0,1447084598939,1447084599378,350,462,0,0,0,3,2,1,5,0002-00-0000-71.png,0003-00-0001-97.png
00000014,453,1,1447084602247,1447084602863,363,359,0,0,0,1,2,1,3,0005-00-0001-03.png,0003-00-0001-11.png
00000014,454,1,1447084604269,1447084605207,345,383,0,0,0,2,3,1,5,0003-00-0001-57.png,0002-00-0000-20.png
00000014,455,1,1447084606253,1447084606800,877,414,0,0,0,4,3,1,7,0004-00-0000-24.png,0002-00-0001-01.png
00000014,456,0,1447084607828,1447084608376,871,391,0,0,0,3,4,1,7,0002-00-0001-18.png,0004-00-0001-66.png
00000014,457,0,1447084611706,1447084612222,875,476,0,0,0,3,4,1,7,0002-00-0000-96.png,0004-00-0000-16.png
00000014,458,0,1447084615405,1447084615869,413,436,0,0,0,3,2,1,5,0002-00-0000-37.png,0003-00-0000-96.png
00000014,459,1,1447084619171,1447084619628,888,370,0,0,0,2,1,1,3,0003-00-0000-70.png,0005-00-0001-10.png
00000014,460,1,1447084620614,1447084621198,875,384,0,0,0,4,3,1,7,0004-00-0000-34.png,0002-00-0000-66.png
00000014,461,0,1447084622254,1447084623033,870,394,0,0,0,2,3,1,5,0003-00-0001-30.png,0002-00-0001-78.png
00000014,462,1,1447084626009,1447084626804,427,344,0,0,0,1,2,1,3,0005-00-0001-92.png,0003-00-0000-96.png
00000014,463,1,1447084627822,1447084628239,367,428,0,0,0,0,1,1,1,0001-00-0000-38.png,0005-00-0001-44.png
00000014,464,1,1447084629277,1447084629803,897,408,0,0,0,1,0,1,1,0005-00-0001-42.png,0001-00-0001-62.png
00000014,465,0,1447084630901,1447084631368,401,477,0,0,0,3,2,1,5,0002-00-0001-59.png,0003-00-0001-29.png
00000014,466,1,1447084634757,1447084635407,350,359,0,0,0,0,1,1,1,0001-00-0001-44.png,0005-00-0001-20.png
00000014,467,1,1447084636476,1447084637028,354,405,0,0,0,1,2,1,3,0005-00-0000-08.png,0003-00-0001-41.png
00000014,468,0,1447084638161,1447084639147,926,371,0,0,0,2,3,1,5,0003-00-0000-11.png,0002-00-0000-53.png
00000014,469,0,1447084642608,1447084643569,366,389,0,0,0,1,0,1,1,0005-00-0000-79.png,0001-00-0001-97.png
00000014,470,1,1447084647026,1447084647575,893,369,0,0,0,2,1,1,3,0003-00-0001-35.png,0005-00-0000-90.png
00000014,471,1,1447084648642,1447084649199,868,494,0,0,0,4,3,1,7,0004-00-0000-86.png,0002-00-0000-98.png
00000014,472,0,1447084650182,1447084651027,902,363,0,0,0,3,4,1,7,0002-00-0000-86.png,0004-00-0000-48.png
00000014,473,1,1447084654249,1447084654722,900,359,0,0,0,1,0,1,1,0005-00-0000-24.png,0001-00-0000-11.png
00000014,474,1,1447084655767,1447084656730,338,372,0,0,0,2,3,1,5,0003-00-0000-86.png,0002-00-0001-68.png
00000014,475,0,1447084657715,1447084658467,423,498,0,0,0,2,1,1,3,0003-00-0000-16.png,0005-00-0000-50.png
00000014,476,1,1447084661793,1447084662351,875,419,0,0,0,4,3,1,7,0004-00-0001-34.png,0002-00-0000-90.png
00000014,477,1,1447084663432,1447084664551,419,375,0,0,0,0,1,1,1,0001-00-0000-42.png,0005-00-0001-62.png
00000014,478,1,1447084665593,1447084666289,360,362,0,0,0,1,2,1,3,0005-00-0001-80.png,0003-00-0001-25.png
00000014,479,0,1447084667326,1447084667858,904,403,0,0,0,3,4,1,7,0002-00-0001-68.png,0004-00-0000-37.png
00000014,480,0,1447084671314,1447084671943,337,383,0,0,0,3,2,1,5,0002-00-0000-51.png,0003-00-0000-66.png
00000014,481,1,1447084675149,1447084675635,921,388,0,0,0,2,1,1,3,0003-00-0000-68.png,0005-00-0001-11.png
00000014,482,0,1447084676650,1447084677321,438,528,0,0,0,4,3,1,7,0004-00-0000-46.png,0002-00-0000-20.png
00000014,483,0,1447084681325,1447084682052,897,339,0,0,0,1,2,1,3,0005-00-0000-79.png,0003-00-0001-41.png
00000014,484,0,1447084684997,1447084685030,517,462,0,0,0,1,0,1,1,0005-00-0001-13.png,0001-00-0001-57.png
00000014,485,0,1447084689252,1447084689781,393,380,0,0,0,3,2,1,5,0002-00-0001-20.png,0003-00-0001-63.png
00000014,486,0,1447084692850,1447084693377,915,364,0,0,0,2,3,1,5,0003-00-0001-42.png,0002-00-0001-29.png
00000014,487,0,1447084700888,1447084701612,888,397,0,0,0,0,1,1,1,0001-00-0001-31.png,0005-00-0000-34.png
00000014,488,1,1447084705833,1447084706604,387,482,0,0,0,3,4,1,7,0002-00-0000-62.png,0004-00-0000-83.png
00000014,489,1,1447084707620,1447084708888,419,329,0,0,0,1,2,1,3,0005-00-0000-85.png,0003-00-0000-91.png
00000014,490,1,1447084709958,1447084710542,878,391,0,0,0,2,1,1,3,0003-00-0001-94.png,0005-00-0000-49.png
00000014,491,1,1447084711648,1447084712358,862,320,0,0,0,3,2,1,5,0002-00-0000-59.png,0003-00-0000-15.png
00000014,492,1,1447084713824,1447084714288,337,436,0,0,0,0,1,1,1,0001-00-0000-31.png,0005-00-0000-92.png
00000014,493,0,1447084715344,1447084715861,913,424,0,0,0,3,4,1,7,0002-00-0000-40.png,0004-00-0000-19.png
00000014,494,1,1447084719051,1447084719634,894,402,0,0,0,4,3,1,7,0004-00-0001-00.png,0002-00-0001-79.png
00000014,495,1,1447084720661,1447084721376,904,412,0,0,0,1,0,1,1,0005-00-0001-33.png,0001-00-0000-87.png
00000014,496,0,1447084722383,1447084722969,890,398,0,0,0,2,3,1,5,0003-00-0001-73.png,0002-00-0001-24.png
00000014,497,1,1447084726098,1447084726581,865,458,0,0,0,1,0,1,1,0005-00-0000-87.png,0001-00-0001-23.png
00000014,498,0,1447084727608,1447084728030,381,460,0,0,0,3,2,1,5,0002-00-0000-22.png,0003-00-0001-16.png
00000014,499,0,1447084731497,1447084731997,898,327,0,0,0,3,4,1,7,0002-00-0000-77.png,0004-00-0001-63.png
00000014,500,1,1447084734842,1447084735586,886,404,0,0,0,2,1,1,3,0003-00-0000-75.png,0005-00-0000-00.png
00000014,501,0,1447084736633,1447084737020,356,426,0,0,0,4,3,1,7,0004-00-0001-88.png,0002-00-0001-11.png
00000014,502,1,1447084740528,1447084741117,381,514,0,0,0,0,1,1,1,0001-00-0000-06.png,0005-00-0000-72.png
00000014,503,1,1447084742229,1447084742699,371,418,0,0,0,1,2,1,3,0005-00-0001-10.png,0003-00-0000-74.png
00000014,504,0,1447084744218,1447084744660,877,518,0,0,0,2,3,1,5,0003-00-0000-35.png,0002-00-0001-28.png
00000014,505,0,1447084747785,1447084748426,863,397,0,0,0,2,3,1,5,0003-00-0001-50.png,0002-00-0001-04.png
00000014,506,1,1447084751731,1447084752314,925,353,0,0,0,4,3,1,7,0004-00-0001-24.png,0002-00-0001-64.png
00000014,507,1,1447084753412,1447084754100,898,353,0,0,0,3,2,1,5,0002-00-0001-53.png,0003-00-0001-15.png
00000014,508,1,1447084755169,1447084755555,347,426,0,0,0,0,1,1,1,0001-00-0000-28.png,0005-00-0001-94.png
00000014,509,1,1447084756641,1447084757102,396,555,0,0,0,1,2,1,3,0005-00-0001-18.png,0003-00-0001-88.png
00000014,510,1,1447084758221,1447084758728,889,423,0,0,0,1,0,1,1,0005-00-0001-06.png,0001-00-0001-46.png
00000014,511,1,1447084759883,1447084760617,350,373,0,0,0,3,4,1,7,0002-00-0000-36.png,0004-00-0001-93.png
00000014,512,1,1447084761711,1447084762263,878,441,0,0,0,2,1,1,3,0003-00-0001-46.png,0005-00-0001-95.png
00000014,513,0,1447084763350,1447084763753,373,433,0,0,0,4,3,1,7,0004-00-0001-59.png,0002-00-0001-78.png
00000014,514,1,1447084767068,1447084767687,901,344,0,0,0,2,1,1,3,0003-00-0001-00.png,0005-00-0000-23.png
00000014,515,0,1447084768800,1447084769408,380,374,0,0,0,3,2,1,5,0002-00-0001-96.png,0003-00-0001-20.png
00000014,516,0,1447084772534,1447084773040,908,331,0,0,0,2,3,1,5,0003-00-0001-42.png,0002-00-0001-80.png
00000014,517,1,1447084776192,1447084776675,867,460,0,0,0,1,0,1,1,0005-00-0000-25.png,0001-00-0000-39.png
00000014,518,0,1447084777945,1447084778570,899,431,0,0,0,3,4,1,7,0002-00-0000-12.png,0004-00-0000-93.png
00000014,519,1,1447084781767,1447084782289,318,363,0,0,0,0,1,1,1,0001-00-0000-54.png,0005-00-0001-56.png
00000014,520,1,1447084783307,1447084783917,352,387,0,0,0,1,2,1,3,0005-00-0001-63.png,0003-00-0001-31.png
00000014,521,1,1447084785128,1447084785567,363,424,0,0,0,1,2,1,3,0005-00-0000-61.png,0003-00-0001-64.png
00000014,522,0,1447084786711,1447084787171,336,410,0,0,0,3,2,1,5,0002-00-0000-70.png,0003-00-0000-39.png
00000014,523,1,1447084790881,1447084791461,874,448,0,0,0,4,3,1,7,0004-00-0000-21.png,0002-00-0001-51.png
00000014,524,1,1447084792537,1447084793215,876,383,0,0,0,2,1,1,3,0003-00-0000-68.png,0005-00-0000-64.png
00000014,525,1,1447084794286,1447084794834,411,535,0,0,0,0,1,1,1,0001-00-0001-48.png,0005-00-0001-87.png
00000014,526,0,1447084796000,1447084796887,375,337,0,0,0,1,0,1,1,0005-00-0001-74.png,0001-00-0001-06.png
00000014,527,0,1447084800043,1447084800648,862,332,0,0,0,3,4,1,7,0002-00-0001-73.png,0004-00-0000-91.png
00000014,528,0,1447084803752,1447084804502,924,342,0,0,0,2,3,1,5,0003-00-0001-43.png,0002-00-0001-13.png
00000014,529,1,1447084807509,1447084808138,934,343,0,0,0,4,3,1,7,0004-00-0000-09.png,0002-00-0000-26.png
00000014,530,0,1447084809178,1447084809672,364,422,0,0,0,1,0,1,1,0005-00-0001-57.png,0001-00-0001-10.png
00000014,531,1,1447084813244,1447084813968,899,326,0,0,0,2,1,1,3,0003-00-0000-79.png,0005-00-0000-04.png
00000014,532,0,1447084815012,1447084815700,903,390,0,0,0,3,4,1,7,0002-00-0001-49.png,0004-00-0000-13.png
00000014,533,1,1447084818750,1447084818813,523,503,0,0,0,1,2,1,3,0005-00-0000-22.png,0003-00-0000-64.png
00000014,534,0,1447084819902,1447084820749,401,346,0,0,0,3,2,1,5,0002-00-0000-31.png,0003-00-0001-76.png
00000014,535,0,1447084824163,1447084824704,903,391,0,0,0,2,3,1,5,0003-00-0000-77.png,0002-00-0001-81.png
00000014,536,0,1447084827743,1447084828286,926,384,0,0,0,0,1,1,1,0001-00-0001-10.png,0005-00-0001-95.png
00000014,537,0,1447084831917,1447084832444,369,382,0,0,0,3,2,1,5,0002-00-0000-86.png,0003-00-0000-03.png
00000014,538,1,1447084835695,1447084836486,348,351,0,0,0,3,4,1,7,0002-00-0001-52.png,0004-00-0001-94.png
00000014,539,1,1447084837593,1447084838180,384,395,0,0,0,1,2,1,3,0005-00-0001-43.png,0003-00-0000-55.png
00000014,540,1,1447084839481,1447084840053,902,415,0,0,0,4,3,1,7,0004-00-0000-54.png,0002-00-0000-55.png
00000014,541,1,1447084841109,1447084841682,903,417,0,0,0,1,0,1,1,0005-00-0000-62.png,0001-00-0000-67.png
00000014,542,0,1447084842751,1447084843315,902,442,0,0,0,2,3,1,5,0003-00-0000-00.png,0002-00-0000-84.png
00000014,543,1,1447084846250,1447084846724,347,390,0,0,0,0,1,1,1,0001-00-0000-55.png,0005-00-0001-39.png
00000014,544,1,1447084847710,1447084848293,870,419,0,0,0,2,1,1,3,0003-00-0001-07.png,0005-00-0000-08.png
00000014,545,1,1447084849380,1447084849911,905,427,0,0,0,4,3,1,7,0004-00-0000-83.png,0002-00-0000-52.png
00000014,546,1,1447084851031,1447084851521,877,417,0,0,0,3,2,1,5,0002-00-0001-56.png,0003-00-0001-15.png
00000014,547,0,1447084852842,1447084853394,892,494,0,0,0,2,3,1,5,0003-00-0001-11.png,0002-00-0000-93.png
00000014,548,0,1447084856584,1447084857160,862,476,0,0,0,3,4,1,7,0002-00-0001-02.png,0004-00-0001-62.png
00000014,549,1,1447084860223,1447084860686,388,411,0,0,0,1,2,1,3,0005-00-0001-70.png,0003-00-0000-44.png
00000014,550,1,1447084861893,1447084862522,861,419,0,0,0,2,1,1,3,0003-00-0000-33.png,0005-00-0000-17.png
00000014,551,1,1447084863504,1447084864069,896,420,0,0,0,1,0,1,1,0005-00-0000-18.png,0001-00-0000-58.png
00000014,552,1,1447084865200,1447084865604,323,431,0,0,0,0,1,1,1,0001-00-0000-28.png,0005-00-0000-37.png
00000014,553,0,1447084866863,1447084867295,388,435,0,0,0,3,2,1,5,0002-00-0000-19.png,0003-00-0000-43.png
00000014,554,0,1447084870347,1447084870927,355,364,0,0,0,1,0,1,1,0005-00-0001-98.png,0001-00-0001-03.png
00000014,555,1,1447084874077,1447084874883,273,462,0,0,0,0,1,1,1,0001-00-0001-01.png,0005-00-0000-91.png
00000014,556,0,1447084875983,1447084876622,860,507,0,0,0,3,4,1,7,0002-00-0000-20.png,0004-00-0000-79.png
00000014,557,1,1447084879802,1447084880484,299,396,0,0,0,1,2,1,3,0005-00-0000-91.png,0003-00-0000-44.png
00000014,558,1,1447084881506,1447084882057,913,410,0,0,0,4,3,1,7,0004-00-0000-25.png,0002-00-0001-58.png
00000014,559,1,1447084883103,1447084883914,862,346,0,0,0,2,1,1,3,0003-00-0001-68.png,0005-00-0000-23.png
00000014,560,0,1447084884953,1447084885519,875,417,0,0,0,2,3,1,5,0003-00-0000-47.png,0002-00-0000-12.png
00000014,561,1,1447084888846,1447084889424,369,357,0,0,0,0,1,1,1,0001-00-0001-02.png,0005-00-0000-27.png
00000014,562,0,1447084890439,1447084890956,895,423,0,0,0,2,3,1,5,0003-00-0000-43.png,0002-00-0000-86.png
00000014,563,1,1447084893987,1447084894489,902,390,0,0,0,1,0,1,1,0005-00-0001-00.png,0001-00-0001-03.png
00000014,564,1,1447084895628,1447084896090,382,435,0,0,0,1,2,1,3,0005-00-0001-35.png,0003-00-0000-71.png
00000014,565,0,1447084897198,1447084898198,401,384,0,0,0,2,1,1,3,0003-00-0000-42.png,0005-00-0001-37.png
00000014,566,0,1447084901348,1447084901878,343,400,0,0,0,3,2,1,5,0002-00-0000-58.png,0003-00-0000-09.png
00000014,567,1,1447084905338,1447084905929,369,371,0,0,0,3,4,1,7,0002-00-0001-33.png,0004-00-0001-41.png
00000014,568,1,1447084906955,1447084907474,879,428,0,0,0,4,3,1,7,0004-00-0000-28.png,0002-00-0000-08.png
00000014,569,0,1447084908628,1447084909163,887,398,0,0,0,2,3,1,5,0003-00-0001-10.png,0002-00-0001-24.png
00000014,570,0,1447084912346,1447084912803,906,401,0,0,0,3,4,1,7,0002-00-0000-34.png,0004-00-0001-08.png
00000014,571,0,1447084916351,1447084916986,376,410,0,0,0,1,0,1,1,0005-00-0000-40.png,0001-00-0001-55.png
00000014,572,0,1447084920167,1447084920827,939,346,0,0,0,0,1,1,1,0001-00-0001-75.png,0005-00-0000-24.png
00000014,573,1,1447084924369,1447084924851,926,371,0,0,0,2,1,1,3,0003-00-0001-23.png,0005-00-0000-18.png
00000014,574,1,1447084925870,1447084926315,376,448,0,0,0,1,2,1,3,0005-00-0001-41.png,0003-00-0000-19.png
00000014,575,1,1447084927392,1447084928176,888,396,0,0,0,4,3,1,7,0004-00-0001-25.png,0002-00-0000-09.png
00000014,576,0,1447084929186,1447084929872,413,477,0,0,0,3,2,1,5,0002-00-0000-28.png,0003-00-0000-96.png
00000014,577,1,1447084932969,1447084933411,902,371,0,0,0,1,0,1,1,0005-00-0001-24.png,0001-00-0001-55.png
00000014,578,1,1447084934419,1447084935641,435,368,0,0,0,2,3,1,5,0003-00-0001-35.png,0002-00-0001-88.png
00000014,579,1,1447084936754,1447084937280,427,488,0,0,0,3,4,1,7,0002-00-0001-53.png,0004-00-0000-30.png
00000014,580,0,1447084938344,1447084939028,407,490,0,0,0,2,1,1,3,0003-00-0001-50.png,0005-00-0001-65.png
00000014,581,1,1447084942861,1447084943391,362,386,0,0,0,1,2,1,3,0005-00-0000-30.png,0003-00-0001-16.png
00000014,582,1,1447084944408,1447084944894,343,427,0,0,0,0,1,1,1,0001-00-0000-24.png,0005-00-0000-23.png
00000014,583,0,1447084945944,1447084947002,366,419,0,0,0,3,2,1,5,0002-00-0001-71.png,0003-00-0000-71.png
00000014,584,1,1447084950590,1447084951109,908,420,0,0,0,4,3,1,7,0004-00-0000-90.png,0002-00-0001-19.png
00000014,585,0,1447084952180,1447084952623,350,424,0,0,0,1,0,1,1,0005-00-0001-16.png,0001-00-0001-60.png
00000014,586,1,1447084955737,1447084956281,376,367,0,0,0,1,2,1,3,0005-00-0001-90.png,0003-00-0000-05.png
00000014,587,0,1447084957337,1447084957854,334,413,0,0,0,3,2,1,5,0002-00-0001-80.png,0003-00-0000-03.png
00000014,588,1,1447084961493,1447084962136,921,368,0,0,0,2,1,1,3,0003-00-0000-06.png,0005-00-0001-56.png
00000014,589,0,1447084963120,1447084963944,890,473,0,0,0,2,3,1,5,0003-00-0000-42.png,0002-00-0001-96.png
00000014,590,0,1447084966849,1447084967507,347,328,0,0,0,4,3,1,7,0004-00-0001-95.png,0002-00-0000-04.png
00000014,591,0,1447084971173,1447084971683,925,378,0,0,0,0,1,1,1,0001-00-0000-65.png,0005-00-0001-77.png
00000014,592,0,1447084974741,1447084975344,880,447,0,0,0,3,4,1,7,0002-00-0001-77.png,0004-00-0001-53.png
00000014,593,0,1447084979312,1447084979801,927,346,0,0,0,2,3,1,5,0003-00-0001-18.png,0002-00-0001-93.png
00000014,594,0,1447084982792,1447084983250,413,372,0,0,0,3,2,1,5,0002-00-0001-75.png,0003-00-0000-95.png
00000014,595,1,1447084986805,1447084987320,951,386,0,0,0,2,1,1,3,0003-00-0000-72.png,0005-00-0001-14.png
00000014,596,1,1447084988361,1447084988873,390,540,0,0,0,0,1,1,1,0001-00-0001-18.png,0005-00-0001-73.png
00000014,597,0,1447084990035,1447084990476,874,423,0,0,0,3,4,1,7,0002-00-0000-09.png,0004-00-0000-37.png
00000014,598,1,1447084994109,1447084994652,341,382,0,0,0,1,2,1,3,0005-00-0000-77.png,0003-00-0000-66.png
00000014,599,0,1447084995759,1447084996194,401,462,0,0,0,4,3,1,7,0004-00-0001-07.png,0002-00-0001-60.png
00000014,600,0,1447084999069,1447084999085,504,438,0,0,0,1,0,1,1,0005-00-0000-12.png,0001-00-0000-50.png
00000014,601,1,1447085002143,1447085002734,926,399,0,0,0,1,0,1,1,0005-00-0001-55.png,0001-00-0001-44.png
00000014,602,0,1447085003730,1447085004513,902,371,0,0,0,3,4,1,7,0002-00-0001-11.png,0004-00-0000-29.png
00000014,603,0,1447085007946,1447085008480,877,494,0,0,0,2,3,1,5,0003-00-0000-76.png,0002-00-0001-14.png
00000014,604,0,1447085011503,1447085012338,875,450,0,0,0,1,2,1,3,0005-00-0000-67.png,0003-00-0000-09.png
00000014,605,1,1447085015596,1447085016159,900,359,0,0,0,3,2,1,5,0002-00-0000-57.png,0003-00-0001-38.png
00000014,606,1,1447085017210,1447085017621,373,424,0,0,0,0,1,1,1,0001-00-0001-74.png,0005-00-0000-51.png
00000014,607,0,1447085018836,1447085019854,410,442,0,0,0,2,1,1,3,0003-00-0001-89.png,0005-00-0000-06.png
00000014,608,0,1447085022953,1447085023485,358,376,0,0,0,4,3,1,7,0004-00-0001-78.png,0002-00-0000-37.png
00000014,609,0,1447085026640,1447085027174,899,448,0,0,0,2,3,1,5,0003-00-0001-02.png,0002-00-0001-10.png
00000014,610,1,1447085030456,1447085030979,929,400,0,0,0,4,3,1,7,0004-00-0001-54.png,0002-00-0000-55.png
00000014,611,1,1447085032016,1447085032519,899,422,0,0,0,3,2,1,5,0002-00-0000-04.png,0003-00-0001-13.png
00000014,612,1,1447085033607,1447085034020,325,423,0,0,0,0,1,1,1,0001-00-0001-48.png,0005-00-0001-71.png
00000014,613,0,1447085035088,1447085035831,879,374,0,0,0,1,2,1,3,0005-00-0000-23.png,0003-00-0000-47.png
00000014,614,1,1447085038854,1447085039365,867,483,0,0,0,2,1,1,3,0003-00-0001-16.png,0005-00-0000-51.png
00000014,615,0,1447085040395,1447085040818,350,423,0,0,0,1,0,1,1,0005-00-0000-64.png,0001-00-0001-07.png
00000014,616,0,1447085044887,1447085045617,889,423,0,0,0,3,4,1,7,0002-00-0000-04.png,0004-00-0001-06.png
00000014,617,0,1447085048744,1447085049237,875,476,0,0,0,3,4,1,7,0002-00-0000-74.png,0004-00-0001-14.png
00000014,618,1,1447085052508,1447085053092,875,409,0,0,0,4,3,1,7,0004-00-0001-19.png,0002-00-0001-68.png
00000014,619,0,1447085054156,1447085054975,403,337,0,0,0,3,2,1,5,0002-00-0001-14.png,0003-00-0001-90.png
00000014,620,0,1447085058185,1447085058654,900,437,0,0,0,2,3,1,5,0003-00-0000-71.png,0002-00-0000-21.png
00000014,621,1,1447085061793,1447085062221,336,370,0,0,0,0,1,1,1,0001-00-0001-97.png,0005-00-0000-42.png
00000014,622,1,1447085063222,1447085063858,874,386,0,0,0,2,1,1,3,0003-00-0000-74.png,0005-00-0000-31.png
00000014,623,1,1447085064914,1447085065788,369,401,0,0,0,1,2,1,3,0005-00-0000-69.png,0003-00-0000-05.png
00000014,624,1,1447085066873,1447085067537,872,486,0,0,0,1,0,1,1,0005-00-0001-05.png,0001-00-0000-52.png
00000014,625,1,1447085068541,1447085069167,894,443,0,0,0,4,3,1,7,0004-00-0000-04.png,0002-00-0001-27.png
00000014,626,1,1447085070191,1447085070673,350,450,0,0,0,0,1,1,1,0001-00-0001-69.png,0005-00-0000-75.png
00000014,627,1,1447085071802,1447085072284,874,423,0,0,0,1,0,1,1,0005-00-0000-92.png,0001-00-0000-85.png
00000014,628,1,1447085073450,1447085074354,419,375,0,0,0,2,3,1,5,0003-00-0001-68.png,0002-00-0001-81.png
00000014,629,1,1447085075450,1447085076290,427,554,0,0,0,3,4,1,7,0002-00-0001-30.png,0004-00-0001-99.png
00000014,630,0,1447085077480,1447085078192,409,387,0,0,0,3,2,1,5,0002-00-0000-36.png,0003-00-0000-07.png
00000014,631,1,1447085081247,1447085081723,896,419,0,0,0,2,1,1,3,0003-00-0000-11.png,0005-00-0001-55.png
00000014,632,1,1447085082634,1447085083135,427,476,0,0,0,1,2,1,3,0005-00-0001-80.png,0003-00-0001-68.png
00000014,633,0,1447085084268,1447085085407,439,378,0,0,0,2,1,1,3,0003-00-0000-47.png,0005-00-0001-16.png
00000014,634,1,1447085088561,1447085089199,881,488,0,0,0,1,0,1,1,0005-00-0000-18.png,0001-00-0000-42.png
00000014,635,1,1447085090230,1447085090688,350,399,0,0,0,0,1,1,1,0001-00-0000-00.png,0005-00-0000-56.png
00000014,636,0,1447085091711,1447085092825,907,392,0,0,0,3,4,1,7,0002-00-0000-02.png,0004-00-0000-43.png
00000014,637,0,1447085095795,1447085096241,902,465,0,0,0,2,3,1,5,0003-00-0000-19.png,0002-00-0001-38.png
00000014,638,1,1447085099203,1447085099764,923,402,0,0,0,4,3,1,7,0004-00-0000-26.png,0002-00-0000-90.png
00000014,639,0,1447085100785,1447085101220,427,463,0,0,0,3,2,1,5,0002-00-0000-28.png,0003-00-0001-97.png
00000014,640,0,1447085104821,1447085105413,887,318,0,0,0,1,2,1,3,0005-00-0000-77.png,0003-00-0001-20.png
00000014,641,0,1447085108587,1447085109618,899,421,0,0,0,2,3,1,5,0003-00-0001-16.png,0002-00-0001-89.png
00000014,642,1,1447085112987,1447085113715,899,307,0,0,0,1,0,1,1,0005-00-0000-50.png,0001-00-0001-95.png
00000014,643,0,1447085114829,1447085115276,398,445,0,0,0,4,3,1,7,0004-00-0000-11.png,0002-00-0001-13.png
00000014,644,1,1447085118285,1447085118720,363,383,0,0,0,0,1,1,1,0001-00-0001-00.png,0005-00-0000-44.png
00000014,645,1,1447085119704,1447085120170,306,460,0,0,0,1,2,1,3,0005-00-0001-99.png,0003-00-0000-89.png
00000014,646,0,1447085121179,1447085121651,350,436,0,0,0,3,2,1,5,0002-00-0001-75.png,0003-00-0000-92.png
00000014,647,0,1447085124794,1447085125349,922,366,0,0,0,3,4,1,7,0002-00-0001-47.png,0004-00-0001-78.png
00000014,648,1,1447085128597,1447085129086,925,412,0,0,0,2,1,1,3,0003-00-0000-74.png,0005-00-0001-84.png
00000014,649,1,1447085130262,1447085130713,331,426,0,0,0,0,1,1,1,0001-00-0001-74.png,0005-00-0001-51.png
00000014,650,0,1447085131884,1447085132540,895,446,0,0,0,3,4,1,7,0002-00-0000-04.png,0004-00-0001-36.png
00000014,651,1,1447085135651,1447085136203,415,488,0,0,0,1,2,1,3,0005-00-0000-41.png,0003-00-0000-55.png
00000014,652,1,1447085137345,1447085137837,905,428,0,0,0,1,0,1,1,0005-00-0001-54.png,0001-00-0001-58.png
00000014,653,0,1447085138861,1447085139392,862,424,0,0,0,2,3,1,5,0003-00-0001-97.png,0002-00-0000-90.png
00000014,654,0,1447085143693,1447085144342,329,402,0,0,0,4,3,1,7,0004-00-0000-54.png,0002-00-0000-88.png
00000014,655,1,1447085147348,1447085148081,876,450,0,0,0,2,1,1,3,0003-00-0001-77.png,0005-00-0000-43.png
00000014,656,0,1447085149028,1447085149772,375,367,0,0,0,3,2,1,5,0002-00-0000-09.png,0003-00-0000-62.png
00000014,657,1,1447085152914,1447085153484,898,458,0,0,0,2,1,1,3,0003-00-0001-02.png,0005-00-0001-69.png
00000014,658,0,1447085154463,1447085155051,876,422,0,0,0,2,3,1,5,0003-00-0000-95.png,0002-00-0000-86.png
00000014,659,1,1447085158511,1447085158990,388,384,0,0,0,0,1,1,1,0001-00-0000-65.png,0005-00-0001-10.png
00000014,660,1,1447085160004,1447085160649,899,411,0,0,0,1,0,1,1,0005-00-0001-49.png,0001-00-0001-84.png
00000014,661,0,1447085161868,1447085162361,436,563,0,0,0,3,2,1,5,0002-00-0000-69.png,0003-00-0000-39.png
00000014,662,1,1447085165734,1447085166292,890,458,0,0,0,4,3,1,7,0004-00-0001-47.png,0002-00-0000-49.png
00000014,663,0,1447085167445,1447085168086,902,372,0,0,0,1,2,1,3,0005-00-0000-09.png,0003-00-0001-15.png
00000014,664,0,1447085170973,1447085171916,953,450,0,0,0,3,4,1,7,0002-00-0001-70.png,0004-00-0001-33.png
00000014,665,0,1447085175803,1447085176437,902,382,0,0,0,3,4,1,7,0002-00-0000-73.png,0004-00-0000-84.png
00000014,666,1,1447085182524,1447085183006,411,406,0,0,0,1,2,1,3,0005-00-0001-88.png,0003-00-0001-40.png
00000014,667,0,1447085184081,1447085184693,900,423,0,0,0,2,3,1,5,0003-00-0001-38.png,0002-00-0001-39.png
00000014,668,0,1447085187811,1447085188377,348,339,0,0,0,3,2,1,5,0002-00-0001-98.png,0003-00-0000-77.png
00000014,669,0,1447085191390,1447085191821,390,398,0,0,0,1,0,1,1,0005-00-0000-43.png,0001-00-0001-54.png
00000014,670,1,1447085194750,1447085195335,928,390,0,0,0,4,3,1,7,0004-00-0000-05.png,0002-00-0001-13.png
00000014,671,0,1447085196364,1447085197061,901,397,0,0,0,0,1,1,1,0001-00-0000-99.png,0005-00-0001-41.png
00000014,672,1,1447085200870,1447085201416,951,383,0,0,0,2,1,1,3,0003-00-0001-88.png,0005-00-0000-31.png
00000014,673,0,1447085202382,1447085203070,360,364,0,0,0,3,2,1,5,0002-00-0001-90.png,0003-00-0001-75.png
00000014,674,1,1447085206783,1447085207348,316,360,0,0,0,2,3,1,5,0003-00-0000-16.png,0002-00-0000-88.png
00000014,675,0,1447085208435,1447085209127,877,415,0,0,0,1,2,1,3,0005-00-0000-69.png,0003-00-0001-44.png
00000014,676,1,1447085212597,1447085213120,384,392,0,0,0,3,4,1,7,0002-00-0000-70.png,0004-00-0001-04.png
00000014,677,1,1447085214156,1447085214601,410,460,0,0,0,0,1,1,1,0001-00-0000-89.png,0005-00-0000-81.png
00000014,678,1,1447085216103,1447085216578,898,431,0,0,0,2,1,1,3,0003-00-0000-28.png,0005-00-0001-99.png
00000014,679,1,1447085217637,1447085218229,890,414,0,0,0,1,0,1,1,0005-00-0000-55.png,0001-00-0000-10.png
00000014,680,0,1447085219356,1447085219814,401,453,0,0,0,4,3,1,7,0004-00-0001-76.png,0002-00-0001-06.png
00000014,681,1,1447085222797,1447085223288,906,374,0,0,0,4,3,1,7,0004-00-0000-70.png,0002-00-0001-98.png
00000014,682,1,1447085224367,1447085224930,873,405,0,0,0,2,1,1,3,0003-00-0000-67.png,0005-00-0000-15.png
00000014,683,1,1447085226066,1447085227053,464,380,0,0,0,2,3,1,5,0003-00-0000-04.png,0002-00-0000-90.png
00000014,684,0,1447085228489,1447085229145,874,397,0,0,0,3,4,1,7,0002-00-0001-56.png,0004-00-0001-55.png
00000014,685,1,1447085232320,1447085233032,360,349,0,0,0,1,2,1,3,0005-00-0000-50.png,0003-00-0001-52.png
00000014,686,0,1447085234106,1447085235247,439,378,0,0,0,1,0,1,1,0005-00-0000-88.png,0001-00-0001-10.png
00000014,687,0,1447085238777,1447085239271,913,423,0,0,0,0,1,1,1,0001-00-0001-87.png,0005-00-0000-15.png
00000014,688,0,1447085242433,1447085242917,359,360,0,0,0,3,2,1,5,0002-00-0001-16.png,0003-00-0000-10.png
00000014,689,0,1447085245983,1447085246416,913,397,0,0,0,2,3,1,5,0003-00-0000-47.png,0002-00-0000-28.png
00000014,690,0,1447085249430,1447085250046,880,401,0,0,0,0,1,1,1,0001-00-0001-72.png,0005-00-0001-09.png
00000014,691,1,1447085253016,1447085253554,931,376,0,0,0,2,1,1,3,0003-00-0001-75.png,0005-00-0000-06.png
00000014,692,1,1447085254567,1447085255083,877,434,0,0,0,1,0,1,1,0005-00-0000-39.png,0001-00-0001-23.png
00000014,693,1,1447085256236,1447085256680,376,448,0,0,0,3,4,1,7,0002-00-0000-53.png,0004-00-0001-00.png
00000014,694,0,1447085258235,1447085258900,365,366,0,0,0,3,2,1,5,0002-00-0000-05.png,0003-00-0000-30.png
00000014,695,1,1447085262294,1447085262846,858,473,0,0,0,4,3,1,7,0004-00-0001-65.png,0002-00-0001-76.png
00000014,696,0,1447085264042,1447085264667,882,393,0,0,0,1,2,1,3,0005-00-0000-29.png,0003-00-0001-38.png
00000014,697,1,1447085267499,1447085267970,364,371,0,0,0,1,2,1,3,0005-00-0001-61.png,0003-00-0001-60.png
00000014,698,1,1447085268919,1447085269503,897,405,0,0,0,2,1,1,3,0003-00-0001-27.png,0005-00-0001-59.png
00000014,699,0,1447085270508,1447085271098,876,446,0,0,0,2,3,1,5,0003-00-0001-03.png,0002-00-0001-36.png
00000014,700,0,1447085274528,1447085274964,330,377,0,0,0,1,0,1,1,0005-00-0001-55.png,0001-00-0000-81.png
00000014,701,0,1447085277890,1447085278372,309,381,0,0,0,3,2,1,5,0002-00-0000-89.png,0003-00-0001-04.png
00000014,702,1,1447085281909,1447085282369,387,371,0,0,0,0,1,1,1,0001-00-0000-29.png,0005-00-0001-87.png
00000014,703,1,1447085283282,1447085284534,401,462,0,0,0,3,4,1,7,0002-00-0000-02.png,0004-00-0001-55.png
00000014,704,1,1447085285586,1447085286313,900,423,0,0,0,4,3,1,7,0004-00-0000-93.png,0002-00-0001-12.png
00000014,705,1,1447085287743,1447085288204,362,394,0,0,0,1,2,1,3,0005-00-0001-48.png,0003-00-0000-93.png
00000014,706,1,1447085289243,1447085290166,363,347,0,0,0,3,4,1,7,0002-00-0001-39.png,0004-00-0001-54.png
00000014,707,0,1447085291234,1447085291797,357,402,0,0,0,3,2,1,5,0002-00-0001-35.png,0003-00-0001-16.png
00000014,708,1,1447085294973,1447085295523,877,389,0,0,0,2,1,1,3,0003-00-0001-00.png,0005-00-0000-94.png
00000014,709,0,1447085296621,1447085297226,901,424,0,0,0,2,3,1,5,0003-00-0001-55.png,0002-00-0000-99.png
00000014,710,0,1447085300314,1447085301004,917,349,0,0,0,0,1,1,1,0001-00-0001-29.png,0005-00-0000-17.png
00000014,711,0,1447085304189,1447085305196,376,355,0,0,0,1,0,1,1,0005-00-0000-32.png,0001-00-0001-75.png
00000014,712,0,1447085308034,1447085308066,519,384,0,0,0,4,3,1,7,0004-00-0001-94.png,0002-00-0001-78.png
00000014,713,1,1447085311289,1447085311741,875,495,0,0,0,2,1,1,3,0003-00-0001-63.png,0005-00-0000-66.png
00000014,714,0,1447085312779,1447085313325,886,424,0,0,0,2,3,1,5,0003-00-0001-61.png,0002-00-0000-45.png
00000014,715,1,1447085317135,1447085317601,921,419,0,0,0,1,0,1,1,0005-00-0000-95.png,0001-00-0000-66.png
00000014,716,0,1447085318592,1447085319450,406,450,0,0,0,3,2,1,5,0002-00-0000-03.png,0003-00-0000-94.png
00000014,717,1,1447085322652,1447085323205,342,381,0,0,0,0,1,1,1,0001-00-0000-86.png,0005-00-0001-93.png
00000014,718,1,1447085324249,1447085324795,875,423,0,0,0,4,3,1,7,0004-00-0000-50.png,0002-00-0000-74.png
00000014,719,0,1447085325849,1447085327000,913,500,0,0,0,1,2,1,3,0005-00-0001-73.png,0003-00-0000-80.png
00000014,720,0,1447085330047,1447085331055,894,441,0,0,0,3,4,1,7,0002-00-0001-85.png,0004-00-0000-63.png
00000014,721,1,1447085334188,1447085334689,900,424,0,0,0,1,0,1,1,0005-00-0001-10.png,0001-00-0000-31.png
00000014,722,0,1447085335678,1447085336339,880,402,0,0,0,3,4,1,7,0002-00-0000-68.png,0004-00-0001-10.png
00000014,723,1,1447085339634,1447085340093,401,436,0,0,0,0,1,1,1,0001-00-0000-55.png,0005-00-0000-65.png
00000014,724,1,1447085341125,1447085341919,862,348,0,0,0,4,3,1,7,0004-00-0001-16.png,0002-00-0001-29.png
00000014,725,1,1447085343045,1447085343833,888,370,0,0,0,2,1,1,3,0003-00-0000-71.png,0005-00-0000-27.png
00000014,726,1,1447085344912,1447085346002,414,371,0,0,0,2,3,1,5,0003-00-0001-83.png,0002-00-0001-68.png
00000014,727,1,1447085347069,1447085347507,417,559,0,0,0,1,2,1,3,0005-00-0001-59.png,0003-00-0000-21.png
00000014,728,0,1447085348765,1447085349183,373,409,0,0,0,3,2,1,5,0002-00-0000-16.png,0003-00-0000-81.png
00000014,729,0,1447085352363,1447085352960,901,371,0,0,0,3,4,1,7,0002-00-0000-63.png,0004-00-0000-55.png
00000014,730,0,1447085356150,1447085356700,899,396,0,0,0,2,3,1,5,0003-00-0000-83.png,0002-00-0001-09.png
00000014,731,1,1447085359866,1447085360333,895,418,0,0,0,3,2,1,5,0002-00-0001-10.png,0003-00-0000-99.png
00000014,732,0,1447085361320,1447085361953,337,421,0,0,0,4,3,1,7,0004-00-0001-55.png,0002-00-0001-31.png
00000014,733,0,1447085365248,1447085365885,346,367,0,0,0,2,1,1,3,0003-00-0000-16.png,0005-00-0001-78.png
00000014,734,0,1447085369073,1447085369577,374,387,0,0,0,1,0,1,1,0005-00-0000-89.png,0001-00-0000-01.png
00000014,735,1,1447085372553,1447085373041,380,501,0,0,0,1,2,1,3,0005-00-0001-51.png,0003-00-0001-20.png
00000014,736,1,1447085374062,1447085374998,407,343,0,0,0,0,1,1,1,0001-00-0000-64.png,0005-00-0000-65.png
00000014,737,0,1447085376608,1447085377061,300,417,0,0,0,3,2,1,5,0002-00-0000-69.png,0003-00-0000-72.png
00000014,738,1,1447085380691,1447085381172,306,393,0,0,0,0,1,1,1,0001-00-0001-73.png,0005-00-0000-87.png
00000014,739,1,1447085382172,1447085382755,888,443,0,0,0,1,0,1,1,0005-00-0001-92.png,0001-00-0001-25.png
00000014,740,1,1447085383831,1447085384375,874,457,0,0,0,4,3,1,7,0004-00-0001-72.png,0002-00-0000-23.png
00000014,741,0,1447085385448,1447085386014,874,430,0,0,0,2,3,1,5,0003-00-0001-65.png,0002-00-0001-05.png
00000014,742,1,1447085389010,1447085389523,404,399,0,0,0,1,2,1,3,0005-00-0001-69.png,0003-00-0001-73.png
00000014,743,1,1447085390491,1447085391254,866,361,0,0,0,2,1,1,3,0003-00-0000-74.png,0005-00-0000-07.png
00000014,744,0,1447085392390,1447085393054,874,423,0,0,0,3,4,1,7,0002-00-0001-13.png,0004-00-0001-36.png
00000014,745,1,1447085396917,1447085397397,875,477,0,0,0,2,1,1,3,0003-00-0001-84.png,0005-00-0001-05.png
00000014,746,0,1447085398460,1447085399535,927,398,0,0,0,2,3,1,5,0003-00-0001-20.png,0002-00-0001-75.png
00000014,747,1,1447085402507,1447085403054,920,371,0,0,0,4,3,1,7,0004-00-0000-16.png,0002-00-0001-21.png
00000014,748,1,1447085404037,1447085404837,415,360,0,0,0,3,4,1,7,0002-00-0001-64.png,0004-00-0000-99.png
00000014,749,1,1447085405903,1447085406784,898,430,0,0,0,3,2,1,5,0002-00-0001-52.png,0003-00-0001-69.png
00000014,750,1,1447085407843,1447085408315,899,438,0,0,0,1,0,1,1,0005-00-0000-43.png,0001-00-0000-45.png
00000014,751,1,1447085409433,1447085409864,325,410,0,0,0,0,1,1,1,0001-00-0001-47.png,0005-00-0000-71.png
00000014,752,1,1447085410975,1447085411630,381,465,0,0,0,1,2,1,3,0005-00-0000-78.png,0003-00-0000-60.png
00000014,753,1,1447085412771,1447085413215,408,445,0,0,0,1,2,1,3,0005-00-0001-44.png,0003-00-0000-05.png
00000014,754,0,1447085414335,1447085414861,871,470,0,0,0,3,4,1,7,0002-00-0000-91.png,0004-00-0001-74.png
00000014,755,0,1447085418112,1447085418800,416,329,0,0,0,4,3,1,7,0004-00-0001-39.png,0002-00-0001-94.png
00000014,756,1,1447085421936,1447085422396,363,397,0,0,0,0,1,1,1,0001-00-0001-03.png,0005-00-0000-23.png
00000014,757,0,1447085423369,1447085423978,896,446,0,0,0,2,3,1,5,0003-00-0001-84.png,0002-00-0001-45.png
00000014,758,0,1447085427083,1447085427598,368,403,0,0,0,3,2,1,5,0002-00-0001-52.png,0003-00-0000-53.png
00000014,759,1,1447085430602,1447085431279,900,358,0,0,0,2,1,1,3,0003-00-0000-79.png,0005-00-0000-35.png
00000014,760,0,1447085432283,1447085432922,427,436,0,0,0,1,0,1,1,0005-00-0000-65.png,0001-00-0001-95.png
00000014,761,0,1447085436152,1447085436654,905,402,0,0,0,2,3,1,5,0003-00-0001-73.png,0002-00-0000-95.png
00000014,762,0,1447085439498,1447085440130,929,363,0,0,0,3,4,1,7,0002-00-0000-93.png,0004-00-0001-73.png
00000014,763,1,1447085443187,1447085443659,386,430,0,0,0,1,2,1,3,0005-00-0001-80.png,0003-00-0001-81.png
00000014,764,1,1447085444659,1447085445325,888,410,0,0,0,4,3,1,7,0004-00-0000-96.png,0002-00-0000-50.png
00000014,765,0,1447085446414,1447085446940,355,436,0,0,0,1,0,1,1,0005-00-0000-16.png,0001-00-0000-03.png
00000014,766,0,1447085450075,1447085450917,920,390,0,0,0,0,1,1,1,0001-00-0000-16.png,0005-00-0000-16.png
00000014,767,0,1447085454143,1447085454715,349,384,0,0,0,2,1,1,3,0003-00-0000-79.png,0005-00-0001-67.png
00000014,768,0,1447085457828,1447085458272,325,412,0,0,0,3,2,1,5,0002-00-0000-43.png,0003-00-0000-21.png
00000014,769,0,1447085461885,1447085462382,874,501,0,0,0,2,3,1,5,0003-00-0000-17.png,0002-00-0001-69.png
00000014,770,1,1447085465494,1447085465991,881,500,0,0,0,1,0,1,1,0005-00-0000-39.png,0001-00-0001-32.png
00000014,771,0,1447085467062,1447085467584,901,449,0,0,0,1,2,1,3,0005-00-0000-91.png,0003-00-0001-32.png
00000014,772,1,1447085470608,1447085471312,363,340,0,0,0,3,4,1,7,0002-00-0000-57.png,0004-00-0000-82.png
00000014,773,0,1447085472369,1447085472795,381,531,0,0,0,3,2,1,5,0002-00-0000-23.png,0003-00-0001-18.png
00000014,774,0,1447085475835,1447085476610,394,350,0,0,0,4,3,1,7,0004-00-0001-47.png,0002-00-0001-77.png
00000014,775,1,1447085479793,1447085480279,914,397,0,0,0,2,1,1,3,0003-00-0000-43.png,0005-00-0001-02.png
00000014,776,1,1447085481250,1447085481716,356,425,0,0,0,0,1,1,1,0001-00-0001-53.png,0005-00-0000-98.png
00000014,777,1,1447085482825,1447085483293,899,464,0,0,0,1,0,1,1,0005-00-0001-43.png,0001-00-0001-73.png
00000014,778,1,1447085484325,1447085484860,876,476,0,0,0,2,1,1,3,0003-00-0001-20.png,0005-00-0000-45.png
00000014,779,0,1447085486024,1447085486522,887,432,0,0,0,2,3,1,5,0003-00-0000-57.png,0002-00-0000-17.png
00000014,780,1,1447085489765,1447085490206,355,392,0,0,0,0,1,1,1,0001-00-0001-57.png,0005-00-0001-68.png
00000014,781,0,1447085491231,1447085492146,875,473,0,0,0,3,4,1,7,0002-00-0001-69.png,0004-00-0001-55.png
00000014,782,0,1447085495149,1447085495854,356,339,0,0,0,4,3,1,7,0004-00-0000-90.png,0002-00-0000-76.png
00000014,783,0,1447085499118,1447085499550,313,398,0,0,0,3,2,1,5,0002-00-0001-30.png,0003-00-0001-96.png
00000014,784,0,1447085502727,1447085503254,913,422,0,0,0,1,2,1,3,0005-00-0000-83.png,0003-00-0000-12.png
00000014,785,1,1447085506518,1447085507025,378,510,0,0,0,3,4,1,7,0002-00-0001-33.png,0004-00-0000-12.png
00000014,786,1,1447085508078,1447085508791,890,426,0,0,0,2,1,1,3,0003-00-0000-30.png,0005-00-0001-21.png
00000014,787,1,1447085509927,1447085510756,874,396,0,0,0,1,0,1,1,0005-00-0000-69.png,0001-00-0000-52.png
00000014,788,1,1447085511775,1447085512199,417,402,0,0,0,1,2,1,3,0005-00-0001-00.png,0003-00-0001-94.png
00000014,789,1,1447085513335,1447085513799,427,545,0,0,0,0,1,1,1,0001-00-0000-57.png,0005-00-0000-01.png
00000014,790,0,1447085514897,1447085515357,434,566,0,0,0,4,3,1,7,0004-00-0001-20.png,0002-00-0001-41.png
00000014,791,0,1447085518365,1447085518890,425,452,0,0,0,3,2,1,5,0002-00-0001-83.png,0003-00-0000-55.png
00000014,792,0,1447085521931,1447085522433,873,516,0,0,0,2,3,1,5,0003-00-0001-16.png,0002-00-0000-12.png
00000014,793,0,1447085525589,1447085526077,905,401,0,0,0,2,3,1,5,0003-00-0000-08.png,0002-00-0000-78.png
00000014,794,0,1447085529268,1447085529939,388,528,0,0,0,4,3,1,7,0004-00-0000-02.png,0002-00-0001-69.png
00000014,795,1,1447085532823,1447085533343,873,482,0,0,0,2,1,1,3,0003-00-0000-31.png,0005-00-0001-28.png
00000014,796,0,1447085534367,1447085535547,413,421,0,0,0,3,2,1,5,0002-00-0001-17.png,0003-00-0000-65.png
00000014,797,1,1447085538490,1447085539013,389,431,0,0,0,0,1,1,1,0001-00-0001-53.png,0005-00-0001-99.png
00000014,798,0,1447085539950,1447085540565,894,451,0,0,0,3,4,1,7,0002-00-0001-18.png,0004-00-0000-97.png
00000014,799,1,1447085543810,1447085544288,357,400,0,0,0,1,2,1,3,0005-00-0000-50.png,0003-00-0001-19.png
00000014,800,0,1447085545297,1447085545761,401,470,0,0,0,1,0,1,1,0005-00-0001-15.png,0001-00-0001-22.png
00000014,801,1,1447085548864,1447085549473,931,350,0,0,0,4,3,1,7,0004-00-0000-14.png,0002-00-0001-02.png
00000014,802,1,1447085550492,1447085551143,899,410,0,0,0,2,1,1,3,0003-00-0000-58.png,0005-00-0001-48.png
00000014,803,1,1447085552207,1447085552699,875,449,0,0,0,1,0,1,1,0005-00-0000-98.png,0001-00-0000-99.png
00000014,804,1,1447085553881,1447085554411,345,434,0,0,0,3,4,1,7,0002-00-0000-19.png,0004-00-0001-03.png
00000014,805,0,1447085555495,1447085556143,876,435,0,0,0,0,1,1,1,0001-00-0000-01.png,0005-00-0000-25.png
00000014,806,1,1447085560229,1447085560687,374,386,0,0,0,1,2,1,3,0005-00-0001-28.png,0003-00-0000-19.png
00000014,807,0,1447085561678,1447085562371,874,437,0,0,0,2,3,1,5,0003-00-0001-09.png,0002-00-0001-66.png
00000014,808,0,1447085566211,1447085566752,377,340,0,0,0,3,2,1,5,0002-00-0000-52.png,0003-00-0000-91.png
00000014,809,1,1447085570934,1447085571585,876,442,0,0,0,3,2,1,5,0002-00-0001-65.png,0003-00-0001-64.png
00000014,810,1,1447085572709,1447085573213,893,435,0,0,0,1,0,1,1,0005-00-0000-64.png,0001-00-0000-38.png
00000014,811,0,1447085574676,1447085575170,895,450,0,0,0,2,3,1,5,0003-00-0001-50.png,0002-00-0000-87.png
00000014,812,1,1447085578762,1447085579456,404,334,0,0,0,3,4,1,7,0002-00-0000-92.png,0004-00-0000-25.png
00000014,813,1,1447085580437,1447085580841,376,424,0,0,0,0,1,1,1,0001-00-0001-46.png,0005-00-0001-14.png
00000014,814,1,1447085584297,1447085584913,346,344,0,0,0,1,2,1,3,0005-00-0000-78.png,0003-00-0001-13.png
00000014,815,1,1447085586245,1447085586843,888,438,0,0,0,2,1,1,3,0003-00-0000-94.png,0005-00-0001-31.png
00000014,816,1,1447085588152,1447085588729,875,438,0,0,0,4,3,1,7,0004-00-0001-69.png,0002-00-0000-13.png
00000014,817,1,1447085590345,1447085590834,900,422,0,0,0,4,3,1,7,0004-00-0000-98.png,0002-00-0001-26.png
00000014,818,1,1447085592055,1447085592709,863,424,0,0,0,2,1,1,3,0003-00-0001-93.png,0005-00-0000-11.png
00000014,819,1,1447085594367,1447085594956,866,400,0,0,0,3,2,1,5,0002-00-0000-82.png,0003-00-0000-00.png
00000014,820,1,1447085596289,1447085596675,396,449,0,0,0,0,1,1,1,0001-00-0001-67.png,0005-00-0001-29.png
00000014,821,0,1447085598233,1447085598802,875,449,0,0,0,2,3,1,5,0003-00-0000-76.png,0002-00-0000-08.png
00000014,822,1,1447085602089,1447085602717,466,460,0,0,0,1,2,1,3,0005-00-0000-09.png,0003-00-0001-59.png
00000014,823,1,1447085603963,1447085604390,887,449,0,0,0,1,0,1,1,0005-00-0001-56.png,0001-00-0000-76.png
00000014,824,1,1447085605578,1447085605990,380,469,0,0,0,3,4,1,7,0002-00-0000-50.png,0004-00-0000-38.png
00000014,825,1,1447085607305,1447085607782,414,475,0,0,0,0,1,1,1,0001-00-0001-78.png,0005-00-0000-25.png
00000014,826,0,1447085609112,1447085609588,376,474,0,0,0,4,3,1,7,0004-00-0001-01.png,0002-00-0000-65.png
00000014,827,0,1447085612500,1447085612947,394,410,0,0,0,3,2,1,5,0002-00-0000-02.png,0003-00-0001-04.png
00000014,828,0,1447085617654,1447085618329,871,367,0,0,0,2,3,1,5,0003-00-0000-47.png,0002-00-0001-69.png
00000014,829,1,1447085621570,1447085622093,878,388,0,0,0,2,1,1,3,0003-00-0000-72.png,0005-00-0001-86.png
00000014,830,1,1447085623265,1447085623678,412,457,0,0,0,1,2,1,3,0005-00-0000-12.png,0003-00-0001-64.png
00000014,831,0,1447085624851,1447085625346,899,423,0,0,0,3,4,1,7,0002-00-0001-93.png,0004-00-0000-37.png
00000014,832,1,1447085628645,1447085629357,875,410,0,0,0,1,0,1,1,0005-00-0000-85.png,0001-00-0000-26.png
00000014,833,1,1447085630475,1447085631022,876,410,0,0,0,4,3,1,7,0004-00-0000-39.png,0002-00-0000-12.png
00000014,834,0,1447085632035,1447085632504,350,462,0,0,0,1,0,1,1,0005-00-0001-47.png,0001-00-0000-84.png
00000014,835,0,1447085635535,1447085636036,925,347,0,0,0,1,2,1,3,0005-00-0001-10.png,0003-00-0001-23.png
00000014,836,0,1447085639093,1447085639617,900,449,0,0,0,2,3,1,5,0003-00-0000-00.png,0002-00-0000-98.png
00000014,837,1,1447085642571,1447085643012,877,494,0,0,0,2,1,1,3,0003-00-0000-19.png,0005-00-0001-77.png
00000014,838,1,1447085644018,1447085644461,366,466,0,0,0,0,1,1,1,0001-00-0001-43.png,0005-00-0000-00.png
00000014,839,0,1447085645580,1447085646068,887,451,0,0,0,3,4,1,7,0002-00-0001-47.png,0004-00-0000-25.png
00000014,840,0,1447085649287,1447085649770,427,436,0,0,0,3,2,1,5,0002-00-0001-17.png,0003-00-0001-08.png
00000014,841,0,1447085652937,1447085653366,342,401,0,0,0,4,3,1,7,0004-00-0000-63.png,0002-00-0000-66.png
00000014,842,1,1447085656335,1447085656788,413,404,0,0,0,0,1,1,1,0001-00-0001-09.png,0005-00-0001-51.png
00000014,843,1,1447085657807,1447085658609,875,397,0,0,0,2,1,1,3,0003-00-0001-55.png,0005-00-0001-81.png
00000014,844,1,1447085659552,1447085660602,337,429,0,0,0,1,2,1,3,0005-00-0001-67.png,0003-00-0000-15.png
00000014,845,0,1447085661670,1447085662201,875,442,0,0,0,2,3,1,5,0003-00-0000-63.png,0002-00-0000-56.png
00000014,846,0,1447085666103,1447085666638,870,472,0,0,0,3,4,1,7,0002-00-0001-27.png,0004-00-0000-55.png
00000014,847,0,1447085670119,1447085670574,376,403,0,0,0,3,2,1,5,0002-00-0001-79.png,0003-00-0001-11.png
00000014,848,1,1447085673828,1447085674289,863,485,0,0,0,1,0,1,1,0005-00-0001-78.png,0001-00-0000-48.png
00000014,849,0,1447085675217,1447085676197,445,374,0,0,0,2,1,1,3,0003-00-0001-65.png,0005-00-0000-10.png
00000014,850,0,1447085684251,1447085684801,362,367,0,0,0,3,2,1,5,0002-00-0000-80.png,0003-00-0001-56.png
00000014,851,1,1447085693154,1447085694313,888,514,0,0,0,1,0,1,1,0005-00-0000-42.png,0001-00-0001-23.png
00000014,852,0,1447085695314,1447085695917,875,501,0,0,0,2,3,1,5,0003-00-0001-44.png,0002-00-0000-04.png
00000014,853,1,1447085699742,1447085700311,368,401,0,0,0,0,1,1,1,0001-00-0000-83.png,0005-00-0000-45.png
00000014,854,1,1447085701308,1447085701763,389,462,0,0,0,1,2,1,3,0005-00-0000-46.png,0003-00-0001-14.png
00000014,855,0,1447085702876,1447085703478,879,476,0,0,0,3,4,1,7,0002-00-0001-65.png,0004-00-0001-66.png
00000014,856,1,1447085707286,1447085707752,912,371,0,0,0,4,3,1,7,0004-00-0000-17.png,0002-00-0000-12.png
00000014,857,0,1447085708811,1447085709309,349,455,0,0,0,1,0,1,1,0005-00-0000-02.png,0001-00-0000-53.png
00000014,858,0,1447085712830,1447085713281,928,415,0,0,0,2,3,1,5,0003-00-0000-70.png,0002-00-0000-73.png
00000014,859,0,1447085717538,1447085718228,896,367,0,0,0,3,4,1,7,0002-00-0000-27.png,0004-00-0001-75.png
00000014,860,1,1447085721672,1447085722101,882,448,0,0,0,2,1,1,3,0003-00-0000-56.png,0005-00-0001-75.png
00000014,861,1,1447085723133,1447085723803,339,424,0,0,0,1,2,1,3,0005-00-0001-95.png,0003-00-0000-72.png
00000014,862,1,1447085724752,1447085725323,868,469,0,0,0,3,2,1,5,0002-00-0000-74.png,0003-00-0001-18.png
00000014,863,1,1447085726354,1447085726790,339,398,0,0,0,0,1,1,1,0001-00-0001-92.png,0005-00-0001-66.png
00000014,864,0,1447085727796,1447085728197,427,488,0,0,0,4,3,1,7,0004-00-0000-37.png,0002-00-0000-73.png
00000014,865,1,1447085731782,1447085732316,873,464,0,0,0,1,0,1,1,0005-00-0000-11.png,0001-00-0001-07.png
00000014,866,1,1447085733345,1447085734017,879,427,0,0,0,3,2,1,5,0002-00-0001-05.png,0003-00-0001-36.png
00000014,867,1,1447085734933,1447085735373,370,434,0,0,0,0,1,1,1,0001-00-0000-27.png,0005-00-0001-41.png
00000014,868,1,1447085736382,1447085737470,412,352,0,0,0,2,3,1,5,0003-00-0000-64.png,0002-00-0001-45.png
00000014,869,1,1447085738549,1447085739005,376,448,0,0,0,1,2,1,3,0005-00-0001-03.png,0003-00-0000-47.png
00000014,870,0,1447085740040,1447085740632,350,448,0,0,0,2,1,1,3,0003-00-0000-44.png,0005-00-0000-96.png
00000014,871,1,1447085744275,1447085744815,873,482,0,0,0,4,3,1,7,0004-00-0001-89.png,0002-00-0000-92.png
00000014,872,1,1447085745796,1447085746745,337,430,0,0,0,3,4,1,7,0002-00-0000-89.png,0004-00-0001-92.png
00000014,873,1,1447085747750,1447085748308,873,457,0,0,0,2,1,1,3,0003-00-0001-39.png,0005-00-0000-71.png
00000014,874,0,1447085749313,1447085749764,376,449,0,0,0,3,2,1,5,0002-00-0001-90.png,0003-00-0001-22.png
00000014,875,1,1447085753310,1447085753800,897,483,0,0,0,4,3,1,7,0004-00-0000-85.png,0002-00-0000-61.png
00000014,876,0,1447085754739,1447085755342,871,453,0,0,0,2,3,1,5,0003-00-0001-85.png,0002-00-0001-90.png
00000014,877,0,1447085759584,1447085760025,899,379,0,0,0,1,2,1,3,0005-00-0000-82.png,0003-00-0001-53.png
00000014,878,1,1447085763155,1447085763560,888,358,0,0,0,1,0,1,1,0005-00-0001-47.png,0001-00-0001-47.png
00000014,879,1,1447085764680,1447085765120,403,436,0,0,0,3,4,1,7,0002-00-0001-79.png,0004-00-0000-59.png
00000014,880,1,1447085766109,1447085767039,376,436,0,0,0,0,1,1,1,0001-00-0000-58.png,0005-00-0001-22.png
00000014,881,0,1447085768016,1447085768584,345,452,0,0,0,2,1,1,3,0003-00-0001-62.png,0005-00-0000-46.png
00000014,882,0,1447085772584,1447085773131,896,441,0,0,0,2,3,1,5,0003-00-0000-07.png,0002-00-0000-04.png
00000014,883,1,1447085777013,1447085777446,874,475,0,0,0,1,0,1,1,0005-00-0001-50.png,0001-00-0000-13.png
00000014,884,0,1447085778613,1447085779188,900,438,0,0,0,0,1,1,1,0001-00-0000-53.png,0005-00-0001-51.png
00000014,885,0,1447085783513,1447085783964,390,391,0,0,0,3,2,1,5,0002-00-0000-19.png,0003-00-0000-18.png
00000014,886,0,1447085788372,1447085788912,873,435,0,0,0,3,4,1,7,0002-00-0001-55.png,0004-00-0001-09.png
00000014,887,1,1447085791958,1447085792566,925,498,0,0,0,4,3,1,7,0004-00-0000-50.png,0002-00-0001-02.png
00000014,888,0,1447085793540,1447085794413,931,375,0,0,0,1,2,1,3,0005-00-0000-42.png,0003-00-0001-17.png
00000014,889,0,1447085798608,1447085799055,325,384,0,0,0,4,3,1,7,0004-00-0000-76.png,0002-00-0000-79.png
00000014,890,1,1447085801933,1447085802581,875,487,0,0,0,2,1,1,3,0003-00-0000-92.png,0005-00-0001-97.png
00000014,891,0,1447085803565,1447085804052,868,533,0,0,0,2,3,1,5,0003-00-0001-20.png,0002-00-0000-14.png
00000014,892,0,1447085810071,1447085810560,860,399,0,0,0,3,4,1,7,0002-00-0000-60.png,0004-00-0000-44.png
00000014,893,0,1447085818208,1447085818645,894,508,0,0,0,0,1,1,1,0001-00-0000-95.png,0005-00-0001-77.png
00000014,894,1,1447085823230,1447085823703,924,404,0,0,0,1,0,1,1,0005-00-0000-40.png,0001-00-0001-49.png
00000014,895,0,1447085824770,1447085825213,418,454,0,0,0,3,2,1,5,0002-00-0001-29.png,0003-00-0000-56.png
00000014,896,1,1447085831206,1447085831672,409,491,0,0,0,1,2,1,3,0005-00-0001-15.png,0003-00-0001-48.png
00000014,897,1,1447085832639,1447085833066,421,471,0,0,0,1,2,1,3,0005-00-0000-34.png,0003-00-0000-78.png
00000014,898,0,1447085834111,1447085835032,343,401,0,0,0,3,2,1,5,0002-00-0000-80.png,0003-00-0001-76.png
00000014,899,0,1447085838754,1447085839187,923,404,0,0,0,2,3,1,5,0003-00-0000-42.png,0002-00-0000-98.png
00000014,900,0,1447085843391,1447085843866,952,397,0,0,0,0,1,1,1,0001-00-0001-51.png,0005-00-0000-89.png
00000014,901,1,1447085848581,1447085849048,941,429,0,0,0,2,1,1,3,0003-00-0001-17.png,0005-00-0000-35.png
00000014,902,1,1447085850082,1447085850681,878,401,0,0,0,4,3,1,7,0004-00-0000-33.png,0002-00-0001-60.png
00000014,903,1,1447085851692,1447085852195,889,449,0,0,0,1,0,1,1,0005-00-0001-72.png,0001-00-0000-50.png
00000014,904,1,1447085853283,1447085854361,435,347,0,0,0,3,4,1,7,0002-00-0000-10.png,0004-00-0000-92.png
00000014,905,0,1447085855370,1447085856170,401,345,0,0,0,4,3,1,7,0004-00-0001-28.png,0002-00-0001-20.png
00000014,906,0,1447085859723,1447085860379,900,409,0,0,0,3,4,1,7,0002-00-0000-61.png,0004-00-0001-69.png
00000014,907,1,1447085864772,1447085865185,420,389,0,0,0,0,1,1,1,0001-00-0000-55.png,0005-00-0001-78.png
00000014,908,1,1447085866234,1447085866848,870,436,0,0,0,3,2,1,5,0002-00-0001-52.png,0003-00-0000-04.png
00000014,909,1,1447085867842,1447085868295,325,449,0,0,0,1,2,1,3,0005-00-0001-42.png,0003-00-0000-55.png
00000014,910,0,1447085869469,1447085870234,861,371,0,0,0,2,3,1,5,0003-00-0001-05.png,0002-00-0001-41.png
00000014,911,1,1447085880843,1447085881272,880,473,0,0,0,2,1,1,3,0003-00-0001-51.png,0005-00-0000-80.png
00000014,912,1,1447085882368,1447085882980,902,441,0,0,0,1,0,1,1,0005-00-0000-72.png,0001-00-0000-39.png
00000014,913,0,1447085884036,1447085884439,401,448,0,0,0,3,2,1,5,0002-00-0000-19.png,0003-00-0001-75.png
00000014,914,1,1447085887907,1447085888458,912,371,0,0,0,4,3,1,7,0004-00-0000-56.png,0002-00-0000-50.png
00000014,915,1,1447085889463,1447085889967,862,517,0,0,0,1,0,1,1,0005-00-0001-32.png,0001-00-0000-70.png
00000014,916,1,1447085891014,1447085891471,376,451,0,0,0,1,2,1,3,0005-00-0000-85.png,0003-00-0000-97.png
00000014,917,0,1447085892923,1447085893906,341,361,0,0,0,2,1,1,3,0003-00-0000-93.png,0005-00-0000-85.png
00000014,918,1,1447085897971,1447085898401,410,419,0,0,0,0,1,1,1,0001-00-0000-77.png,0005-00-0000-64.png
00000014,919,0,1447085899343,1447085899998,901,424,0,0,0,2,3,1,5,0003-00-0001-61.png,0002-00-0001-43.png
00000014,920,1,1447085904560,1447085905203,401,436,0,0,0,3,4,1,7,0002-00-0000-98.png,0004-00-0001-59.png
00000014,921,0,1447085906224,1447085906826,367,436,0,0,0,1,0,1,1,0005-00-0001-90.png,0001-00-0001-90.png
00000014,922,0,1447085914254,1447085914685,890,509,0,0,0,1,2,1,3,0005-00-0001-54.png,0003-00-0001-18.png
00000014,923,1,1447085918783,1447085919234,901,491,0,0,0,2,1,1,3,0003-00-0001-52.png,0005-00-0000-61.png
00000014,924,0,1447085920212,1447085920682,325,541,0,0,0,4,3,1,7,0004-00-0000-87.png,0002-00-0000-92.png
00000014,925,0,1447085924883,1447085925826,903,427,0,0,0,2,3,1,5,0003-00-0000-07.png,0002-00-0000-81.png
00000014,926,1,1447085928836,1447085929513,379,398,0,0,0,0,1,1,1,0001-00-0001-69.png,0005-00-0000-24.png
00000014,927,0,1447085930447,1447085931272,896,379,0,0,0,3,4,1,7,0002-00-0001-97.png,0004-00-0001-26.png
00000014,928,0,1447085935119,1447085935547,365,407,0,0,0,3,2,1,5,0002-00-0000-69.png,0003-00-0001-92.png
00000014,929,0,1447085939015,1447085939685,363,378,0,0,0,3,2,1,5,0002-00-0001-95.png,0003-00-0001-07.png
00000014,930,1,1447085942683,1447085943436,413,368,0,0,0,1,2,1,3,0005-00-0001-93.png,0003-00-0001-80.png
00000014,931,1,1447085944817,1447085945503,908,471,0,0,0,2,1,1,3,0003-00-0001-54.png,0005-00-0001-10.png
00000014,932,0,1447085946488,1447085947097,878,427,0,0,0,2,3,1,5,0003-00-0001-98.png,0002-00-0001-01.png
00000014,933,1,1447085951061,1447085951528,928,415,0,0,0,1,0,1,1,0005-00-0000-23.png,0001-00-0001-44.png
00000014,934,1,1447085952673,1447085953214,427,475,0,0,0,3,4,1,7,0002-00-0001-98.png,0004-00-0001-47.png
00000014,935,1,1447085954278,1447085954739,444,480,0,0,0,0,1,1,1,0001-00-0000-47.png,0005-00-0001-28.png
00000014,936,1,1447085956139,1447085956682,894,464,0,0,0,4,3,1,7,0004-00-0000-88.png,0002-00-0000-60.png
00000014,937,1,1447085957700,1447085958242,915,484,0,0,0,2,1,1,3,0003-00-0000-97.png,0005-00-0000-00.png
00000014,938,0,1447085959161,1447085959640,478,436,0,0,0,4,3,1,7,0004-00-0001-02.png,0002-00-0001-29.png
00000014,939,0,1447085968605,1447085969249,930,401,0,0,0,3,4,1,7,0002-00-0000-82.png,0004-00-0000-13.png
00000014,940,0,1447085973529,1447085973978,892,478,0,0,0,0,1,1,1,0001-00-0001-85.png,0005-00-0000-52.png
00000014,941,1,1447085978122,1447085978621,916,416,0,0,0,1,0,1,1,0005-00-0000-15.png,0001-00-0001-05.png
00000014,942,0,1447085979661,1447085980119,409,452,0,0,0,3,2,1,5,0002-00-0001-09.png,0003-00-0000-39.png
00000014,943,0,1447085983325,1447085983755,874,502,0,0,0,2,3,1,5,0003-00-0001-90.png,0002-00-0000-43.png
00000014,944,1,1447085989229,1447085990149,401,372,0,0,0,1,2,1,3,0005-00-0000-22.png,0003-00-0000-31.png
00000014,945,0,1447085991254,1447085991903,377,424,0,0,0,4,3,1,7,0004-00-0001-25.png,0002-00-0001-47.png
00000014,946,1,1447085998129,1447085998523,320,359,0,0,0,1,2,1,3,0005-00-0001-37.png,0003-00-0000-33.png
00000014,947,0,1447085999454,1447086000078,898,398,0,0,0,3,4,1,7,0002-00-0001-84.png,0004-00-0001-02.png
00000014,948,0,1447086011144,1447086011643,901,502,0,0,0,0,1,1,1,0001-00-0001-88.png,0005-00-0000-62.png
00000014,949,0,1447086014747,1447086015183,386,533,0,0,0,3,2,1,5,0002-00-0000-84.png,0003-00-0001-57.png
00000014,950,0,1447086019935,1447086020457,915,370,0,0,0,2,3,1,5,0003-00-0001-12.png,0002-00-0001-39.png
00000014,951,1,1447086025550,1447086026559,871,483,0,0,0,2,1,1,3,0003-00-0000-25.png,0005-00-0001-00.png
