subject_id,trial,correct_response,stim_time,response_time,x_coord,y_coord,trial_timeout,timeout_time,interTrial_timeout,left_rank,right_rank,distance,joint_rank,left_image,right_image
00000014,1,0,1446493501473,1446493501963,369,415,0,0,0,4,3,1,7,0004-00-0001-75.png,0002-00-0000-70.png
00000014,2,1,1446493505370,1446493505797,320,413,0,0,0,3,4,1,7,0002-00-0001-47.png,0004-00-0001-28.png
00000014,3,0,1446493507255,1446493507696,327,411,0,0,0,2,1,1,3,0003-00-0000-64.png,0005-00-0000-89.png
00000014,4,0,1446493510575,1446493510954,873,359,0,0,0,1,2,1,3,0005-00-0001-85.png,0003-00-0000-26.png
00000014,5,1,1446493514004,1446493514440,932,475,0,0,0,1,0,1,1,0005-00-0000-18.png,0001-00-0000-39.png
00000014,6,1,1446493515348,1446493515921,305,405,0,0,0,0,1,1,1,0001-00-0000-49.png,0005-00-0001-29.png
00000014,7,0,1446493516838,1446493517264,356,444,0,0,0,3,2,1,5,0002-00-0000-34.png,0003-00-0001-22.png
00000014,8,0,1446493520288,1446493520741,904,486,0,0,0,2,3,1,5,0003-00-0000-90.png,0002-00-0000-14.png
00000014,9,1,1446493523593,1446493524056,418,494,0,0,0,1,2,1,3,0005-00-0000-09.png,0003-00-0001-54.png
00000014,10,1,1446493525091,1446493525578,910,393,0,0,0,4,3,1,7,0004-00-0000-96.png,0002-00-0000-13.png
00000014,11,0,1446493526597,1446493527385,429,432,0,0,0,1,0,1,1,0005-00-0001-32.png,0001-00-0000-66.png
00000014,12,1,1446493530517,1446493530963,376,358,0,0,0,3,4,1,7,0002-00-0001-23.png,0004-00-0000-36.png
00000014,13,0,1446493532356,1446493532774,362,528,0,0,0,3,2,1,5,0002-00-0000-71.png,0003-00-0000-22.png
00000014,14,1,1446493535721,1446493536257,427,410,0,0,0,0,1,1,1,0001-00-0000-31.png,0005-00-0000-85.png
00000014,15,0,1446493537261,1446493537729,927,383,0,0,0,2,3,1,5,0003-00-0000-82.png,0002-00-0000-01.png
00000014,16,0,1446493540862,1446493541290,379,432,0,0,0,2,1,1,3,0003-00-0001-95.png,0005-00-0000-41.png
00000014,17,1,1446493544491,1446493545219,919,403,0,0,0,2,1,1,3,0003-00-0000-42.png,0005-00-0000-01.png
00000014,18,1,1446493546320,1446493546897,358,422,0,0,0,1,2,1,3,0005-00-0000-77.png,0003-00-0000-68.png
00000014,19,0,1446493547947,1446493548471,913,370,0,0,0,2,3,1,5,0003-00-0000-47.png,0002-00-0000-92.png
00000014,20,1,1446493551557,1446493552032,361,502,0,0,0,0,1,1,1,0001-00-0001-65.png,0005-00-0000-66.png
00000014,21,0,1446493552953,1446493553620,300,443,0,0,0,3,2,1,5,0002-00-0000-38.png,0003-00-0000-24.png
00000014,22,1,1446493560757,1446493561161,307,419,0,0,0,3,4,1,7,0002-00-0000-81.png,0004-00-0001-16.png
00000014,23,1,1446493562511,1446493563062,874,508,0,0,0,1,0,1,1,0005-00-0001-28.png,0001-00-0000-05.png
00000014,24,1,1446493564048,1446493564613,905,401,0,0,0,4,3,1,7,0004-00-0001-19.png,0002-00-0000-72.png
00000014,25,0,1446493565619,1446493566129,904,401,0,0,0,2,3,1,5,0003-00-0000-14.png,0002-00-0000-96.png
00000014,26,0,1446493569267,1446493569840,374,398,0,0,0,3,2,1,5,0002-00-0000-20.png,0003-00-0000-59.png
00000014,27,1,1446493572855,1446493573304,319,395,0,0,0,3,4,1,7,0002-00-0000-66.png,0004-00-0000-65.png
00000014,28,0,1446493574372,1446493574997,327,398,0,0,0,2,1,1,3,0003-00-0001-74.png,0005-00-0001-10.png
00000014,29,0,1446493578295,1446493578896,361,400,0,0,0,4,3,1,7,0004-00-0001-59.png,0002-00-0001-82.png
00000014,30,0,1446493581759,1446493581787,504,373,0,0,0,1,0,1,1,0005-00-0000-33.png,0001-00-0001-11.png
00000014,31,1,1446493584660,1446493585145,376,424,0,0,0,1,2,1,3,0005-00-0001-83.png,0003-00-0001-07.png
00000014,32,1,1446493586237,1446493587182,389,512,0,0,0,0,1,1,1,0001-00-0000-15.png,0005-00-0000-99.png
00000014,33,0,1446493588270,1446493588883,363,457,0,0,0,3,2,1,5,0002-00-0000-19.png,0003-00-0001-42.png
00000014,34,1,1446493591878,1446493592340,352,466,0,0,0,1,2,1,3,0005-00-0001-22.png,0003-00-0001-32.png
00000014,35,1,1446493593318,1446493594344,895,520,0,0,0,2,1,1,3,0003-00-0001-36.png,0005-00-0000-71.png
00000014,36,0,1446493595397,1446493596063,923,429,0,0,0,3,4,1,7,0002-00-0000-53.png,0004-00-0001-83.png
00000014,37,0,1446493603329,1446493603753,312,423,0,0,0,4,3,1,7,0004-00-0000-44.png,0002-00-0001-97.png
00000014,38,0,1446493607114,1446493607564,913,436,0,0,0,2,3,1,5,0003-00-0000-38.png,0002-00-0000-72.png
00000014,39,1,1446493613528,1446493614123,904,522,0,0,0,1,0,1,1,0005-00-0001-76.png,0001-00-0000-52.png
00000014,40,1,1446493615048,1446493615581,350,423,0,0,0,0,1,1,1,0001-00-0001-44.png,0005-00-0000-08.png
00000014,41,0,1446493616543,1446493616971,356,440,0,0,0,3,2,1,5,0002-00-0000-72.png,0003-00-0001-22.png
00000014,42,0,1446493620245,1446493620725,388,420,0,0,0,1,0,1,1,0005-00-0001-77.png,0001-00-0000-97.png
00000014,43,0,1446493630522,1446493630918,322,391,0,0,0,2,1,1,3,0003-00-0000-24.png,0005-00-0000-80.png
00000014,44,1,1446493643954,1446493644371,377,522,0,0,0,0,1,1,1,0001-00-0000-57.png,0005-00-0001-90.png
00000014,45,1,1446493645547,1446493646046,384,466,0,0,0,1,2,1,3,0005-00-0000-25.png,0003-00-0001-94.png
00000014,46,1,1446493647152,1446493648212,427,384,0,0,0,3,4,1,7,0002-00-0000-73.png,0004-00-0001-72.png
00000014,47,0,1446493649234,1446493649769,903,415,0,0,0,2,3,1,5,0003-00-0001-48.png,0002-00-0001-16.png
00000014,48,1,1446493654344,1446493654776,863,397,0,0,0,4,3,1,7,0004-00-0001-30.png,0002-00-0001-75.png
00000014,49,0,1446493655665,1446493656259,351,429,0,0,0,2,1,1,3,0003-00-0000-71.png,0005-00-0001-88.png
00000014,50,1,1446493659312,1446493659868,926,410,0,0,0,1,0,1,1,0005-00-0001-79.png,0001-00-0001-41.png
00000014,51,0,1446493660869,1446493661367,897,509,0,0,0,2,3,1,5,0003-00-0000-78.png,0002-00-0001-28.png
00000014,52,0,1446493664829,1446493665398,384,482,0,0,0,3,2,1,5,0002-00-0000-91.png,0003-00-0000-07.png
00000014,53,1,1446493668346,1446493668790,384,514,0,0,0,3,4,1,7,0002-00-0001-50.png,0004-00-0001-17.png
00000014,54,1,1446493669766,1446493670362,382,436,0,0,0,0,1,1,1,0001-00-0001-79.png,0005-00-0001-83.png
00000014,55,1,1446493671398,1446493671995,876,450,0,0,0,4,3,1,7,0004-00-0000-17.png,0002-00-0001-85.png
00000014,56,0,1446493672969,1446493673545,899,413,0,0,0,1,2,1,3,0005-00-0000-20.png,0003-00-0000-08.png
00000014,57,0,1446493676603,1446493677159,877,494,0,0,0,1,2,1,3,0005-00-0001-17.png,0003-00-0001-66.png
00000014,58,0,1446493680462,1446493680964,357,409,0,0,0,2,1,1,3,0003-00-0000-10.png,0005-00-0000-57.png
00000014,59,1,1446493684747,1446493685234,353,463,0,0,0,0,1,1,1,0001-00-0000-28.png,0005-00-0001-59.png
00000014,60,0,1446493686196,1446493686758,333,422,0,0,0,1,0,1,1,0005-00-0000-56.png,0001-00-0001-38.png
00000014,61,0,1446493692536,1446493692933,369,505,0,0,0,3,2,1,5,0002-00-0000-66.png,0003-00-0001-82.png
00000014,62,1,1446493696264,1446493696680,401,410,0,0,0,2,3,1,5,0003-00-0000-58.png,0002-00-0000-99.png
00000014,63,1,1446493697722,1446493698242,905,427,0,0,0,4,3,1,7,0004-00-0000-22.png,0002-00-0001-77.png
00000014,64,1,1446493699296,1446493699801,412,554,0,0,0,3,4,1,7,0002-00-0001-52.png,0004-00-0001-54.png
00000014,65,0,1446493700843,1446493701311,295,446,0,0,0,4,3,1,7,0004-00-0001-61.png,0002-00-0000-47.png
00000014,66,0,1446493704335,1446493704840,907,420,0,0,0,2,3,1,5,0003-00-0000-54.png,0002-00-0000-02.png
00000014,67,1,1446493707883,1446493708398,385,495,0,0,0,0,1,1,1,0001-00-0000-20.png,0005-00-0000-52.png
00000014,68,1,1446493709373,1446493710080,346,424,0,0,0,1,2,1,3,0005-00-0000-55.png,0003-00-0000-21.png
00000014,69,1,1446493711094,1446493711606,876,390,0,0,0,1,0,1,1,0005-00-0001-17.png,0001-00-0001-27.png
00000014,70,0,1446493712594,1446493713309,372,450,0,0,0,2,1,1,3,0003-00-0000-79.png,0005-00-0001-22.png
00000014,71,1,1446493718629,1446493719143,341,418,0,0,0,3,4,1,7,0002-00-0000-11.png,0004-00-0000-25.png
00000014,72,0,1446493720118,1446493720788,348,411,0,0,0,3,2,1,5,0002-00-0000-98.png,0003-00-0001-52.png
00000014,73,0,1446493723904,1446493724387,391,507,0,0,0,2,1,1,3,0003-00-0000-96.png,0005-00-0000-67.png
00000014,74,0,1446493727641,1446493728186,344,411,0,0,0,3,2,1,5,0002-00-0000-75.png,0003-00-0001-45.png
00000014,75,0,1446493731076,1446493731565,934,401,0,0,0,2,3,1,5,0003-00-0000-30.png,0002-00-0001-96.png
00000014,76,0,1446493734767,1446493735193,388,410,0,0,0,4,3,1,7,0004-00-0000-87.png,0002-00-0000-60.png
00000014,77,1,1446493745520,1446493745901,415,502,0,0,0,0,1,1,1,0001-00-0000-60.png,0005-00-0001-80.png
00000014,78,1,1446493746953,1446493747620,393,396,0,0,0,1,2,1,3,0005-00-0000-13.png,0003-00-0001-85.png
00000014,79,0,1446493749528,1446493750077,888,423,0,0,0,3,4,1,7,0002-00-0001-92.png,0004-00-0000-70.png
00000014,80,0,1446493754439,1446493754981,423,407,0,0,0,1,0,1,1,0005-00-0000-30.png,0001-00-0001-63.png
00000014,81,0,1446493758112,1446493758702,375,423,0,0,0,2,1,1,3,0003-00-0001-36.png,0005-00-0001-42.png
00000014,82,1,1446493762038,1446493762609,928,388,0,0,0,4,3,1,7,0004-00-0001-21.png,0002-00-0000-22.png
00000014,83,1,1446493763549,1446493764140,354,436,0,0,0,1,2,1,3,0005-00-0001-93.png,0003-00-0000-09.png
00000014,84,1,1446493765168,1446493765735,876,493,0,0,0,1,0,1,1,0005-00-0000-40.png,0001-00-0001-33.png
00000014,85,0,1446493766701,1446493767156,327,406,0,0,0,3,2,1,5,0002-00-0000-35.png,0003-00-0000-79.png
00000014,86,1,1446493770251,1446493770848,390,491,0,0,0,0,1,1,1,0001-00-0000-99.png,0005-00-0001-39.png
00000014,87,0,1446493771909,1446493772432,877,491,0,0,0,2,3,1,5,0003-00-0001-97.png,0002-00-0000-03.png
00000014,88,1,1446493776193,1446493776676,307,472,0,0,0,3,4,1,7,0002-00-0000-35.png,0004-00-0001-11.png
00000014,89,1,1446493777603,1446493778338,392,471,0,0,0,1,2,1,3,0005-00-0001-27.png,0003-00-0001-41.png
00000014,90,1,1446493779404,1446493779976,427,436,0,0,0,2,3,1,5,0003-00-0000-72.png,0002-00-0001-82.png
00000014,91,1,1446493780999,1446493781546,863,385,0,0,0,4,3,1,7,0004-00-0000-02.png,0002-00-0001-38.png
00000014,92,1,1446493782654,1446493783142,395,475,0,0,0,0,1,1,1,0001-00-0000-29.png,0005-00-0000-57.png
00000014,93,0,1446493784342,1446493784898,407,464,0,0,0,1,0,1,1,0005-00-0000-76.png,0001-00-0001-10.png
00000014,94,1,1446493788002,1446493788483,330,390,0,0,0,3,4,1,7,0002-00-0000-55.png,0004-00-0001-53.png
00000014,95,0,1446493789480,1446493789948,323,449,0,0,0,3,2,1,5,0002-00-0001-06.png,0003-00-0000-17.png
00000014,96,1,1446493793257,1446493793782,897,461,0,0,0,2,1,1,3,0003-00-0000-78.png,0005-00-0000-21.png
00000014,97,0,1446493794839,1446493795385,913,397,0,0,0,2,3,1,5,0003-00-0000-56.png,0002-00-0000-79.png
00000014,98,0,1446493798386,1446493798886,309,397,0,0,0,3,2,1,5,0002-00-0000-99.png,0003-00-0001-03.png
00000014,99,1,1446493801744,1446493802180,931,376,0,0,0,1,0,1,1,0005-00-0001-78.png,0001-00-0000-30.png
00000014,100,0,1446493803174,1446493803788,905,427,0,0,0,1,2,1,3,0005-00-0000-74.png,0003-00-0000-98.png
00000014,101,1,1446493807022,1446493807500,328,467,0,0,0,0,1,1,1,0001-00-0001-65.png,0005-00-0001-30.png
00000014,102,1,1446493808512,1446493809123,336,436,0,0,0,3,4,1,7,0002-00-0001-29.png,0004-00-0000-56.png
00000014,103,1,1446493810199,1446493810737,906,393,0,0,0,4,3,1,7,0004-00-0001-54.png,0002-00-0000-10.png
00000014,104,1,1446493811800,1446493812330,896,406,0,0,0,2,1,1,3,0003-00-0001-55.png,0005-00-0001-95.png
00000014,105,0,1446493813357,1446493813866,320,418,0,0,0,3,2,1,5,0002-00-0000-69.png,0003-00-0001-99.png
00000014,106,0,1446493817181,1446493817657,897,456,0,0,0,3,4,1,7,0002-00-0001-12.png,0004-00-0000-68.png
00000014,107,0,1446493820524,1446493820985,336,394,0,0,0,4,3,1,7,0004-00-0000-62.png,0002-00-0000-54.png
00000014,108,0,1446493824100,1446493824659,907,420,0,0,0,2,3,1,5,0003-00-0001-14.png,0002-00-0000-21.png
00000014,109,1,1446493827646,1446493828315,943,385,0,0,0,2,1,1,3,0003-00-0000-94.png,0005-00-0000-97.png
00000014,110,0,1446493829255,1446493829790,343,424,0,0,0,1,0,1,1,0005-00-0000-54.png,0001-00-0001-48.png
00000014,111,0,1446493833213,1446493833659,901,424,0,0,0,0,1,1,1,0001-00-0001-38.png,0005-00-0000-77.png
00000014,112,1,1446493836691,1446493837300,326,392,0,0,0,1,2,1,3,0005-00-0001-85.png,0003-00-0000-59.png
00000014,113,0,1446493838290,1446493838841,362,436,0,0,0,3,2,1,5,0002-00-0001-60.png,0003-00-0000-65.png
00000014,114,1,1446493842147,1446493842798,900,412,0,0,0,1,0,1,1,0005-00-0001-15.png,0001-00-0000-08.png
00000014,115,0,1446493843777,1446493844315,900,545,0,0,0,2,3,1,5,0003-00-0001-97.png,0002-00-0001-18.png
00000014,116,1,1446493847822,1446493848538,362,412,0,0,0,1,2,1,3,0005-00-0001-19.png,0003-00-0000-50.png
00000014,117,1,1446493849627,1446493850267,875,423,0,0,0,2,1,1,3,0003-00-0000-74.png,0005-00-0001-12.png
00000014,118,1,1446493851350,1446493851905,344,540,0,0,0,3,4,1,7,0002-00-0000-49.png,0004-00-0001-96.png
00000014,119,1,1446493852990,1446493853467,902,424,0,0,0,4,3,1,7,0004-00-0001-16.png,0002-00-0001-75.png
00000014,120,1,1446493854643,1446493855577,350,410,0,0,0,0,1,1,1,0001-00-0000-62.png,0005-00-0001-28.png
00000014,121,1,1446493856660,1446493857358,366,458,0,0,0,0,1,1,1,0001-00-0001-30.png,0005-00-0001-93.png
00000014,122,1,1446493858508,1446493859199,361,445,0,0,0,1,2,1,3,0005-00-0001-45.png,0003-00-0001-03.png
00000014,123,1,1446493860396,1446493860962,890,419,0,0,0,4,3,1,7,0004-00-0000-13.png,0002-00-0000-46.png
00000014,124,0,1446493862574,1446493863188,928,414,0,0,0,3,4,1,7,0002-00-0000-23.png,0004-00-0001-77.png
00000014,125,0,1446493866201,1446493866691,345,431,0,0,0,3,2,1,5,0002-00-0001-97.png,0003-00-0001-17.png
00000014,126,1,1446493869880,1446493870643,868,503,0,0,0,2,1,1,3,0003-00-0001-12.png,0005-00-0001-04.png
00000014,127,0,1446493871620,1446493872126,892,400,0,0,0,2,3,1,5,0003-00-0000-21.png,0002-00-0001-76.png
00000014,128,1,1446493875376,1446493876009,866,536,0,0,0,1,0,1,1,0005-00-0000-09.png,0001-00-0001-52.png
00000014,129,0,1446493877015,1446493877857,863,427,0,0,0,0,1,1,1,0001-00-0001-03.png,0005-00-0001-87.png
00000014,130,0,1446493880831,1446493881460,899,413,0,0,0,2,3,1,5,0003-00-0000-54.png,0002-00-0001-62.png
00000014,131,0,1446493888427,1446493888865,316,381,0,0,0,3,2,1,5,0002-00-0001-87.png,0003-00-0001-21.png
00000014,132,1,1446493891856,1446493892446,359,369,0,0,0,3,4,1,7,0002-00-0000-60.png,0004-00-0000-94.png
00000014,133,0,1446493893475,1446493894026,940,397,0,0,0,1,2,1,3,0005-00-0000-82.png,0003-00-0001-44.png
00000014,134,0,1446493897145,1446493897904,350,378,0,0,0,1,0,1,1,0005-00-0000-56.png,0001-00-0000-52.png
00000014,135,1,1446493901181,1446493901814,948,407,0,0,0,4,3,1,7,0004-00-0001-30.png,0002-00-0000-86.png
00000014,136,0,1446493902820,1446493903680,365,443,0,0,0,2,1,1,3,0003-00-0000-52.png,0005-00-0000-25.png
00000014,137,1,1446493906591,1446493907440,344,388,0,0,0,0,1,1,1,0001-00-0000-03.png,0005-00-0000-43.png
00000014,138,1,1446493908475,1446493909293,898,405,0,0,0,4,3,1,7,0004-00-0001-38.png,0002-00-0001-87.png
00000014,139,0,1446493910279,1446493910880,899,413,0,0,0,2,3,1,5,0003-00-0001-12.png,0002-00-0000-41.png
00000014,140,0,1446493914021,1446493914577,341,432,0,0,0,2,1,1,3,0003-00-0000-96.png,0005-00-0000-58.png
00000014,141,0,1446493918165,1446493918722,312,403,0,0,0,3,2,1,5,0002-00-0000-04.png,0003-00-0000-55.png
00000014,142,1,1446493921712,1446493922235,322,370,0,0,0,1,2,1,3,0005-00-0001-68.png,0003-00-0000-26.png
00000014,143,1,1446493923193,1446493923880,902,416,0,0,0,1,0,1,1,0005-00-0001-51.png,0001-00-0001-59.png
00000014,144,1,1446493924933,1446493925697,343,412,0,0,0,3,4,1,7,0002-00-0001-11.png,0004-00-0000-44.png
00000014,145,1,1446493926791,1446493927327,922,422,0,0,0,4,3,1,7,0004-00-0001-27.png,0002-00-0001-04.png
00000014,146,0,1446493928502,1446493928953,350,424,0,0,0,3,2,1,5,0002-00-0001-03.png,0003-00-0000-64.png
00000014,147,1,1446493932030,1446493932605,339,420,0,0,0,0,1,1,1,0001-00-0001-96.png,0005-00-0000-89.png
00000014,148,0,1446493933673,1446493934580,387,400,0,0,0,2,1,1,3,0003-00-0000-45.png,0005-00-0000-40.png
00000014,149,1,1446493938201,1446493938677,299,404,0,0,0,3,4,1,7,0002-00-0000-72.png,0004-00-0000-66.png
00000014,150,1,1446493939793,1446493940441,906,401,0,0,0,1,0,1,1,0005-00-0000-57.png,0001-00-0001-47.png
00000014,151,0,1446493941538,1446493942189,901,423,0,0,0,2,3,1,5,0003-00-0000-51.png,0002-00-0000-50.png
00000014,152,0,1446493945487,1446493946072,912,398,0,0,0,1,2,1,3,0005-00-0001-61.png,0003-00-0000-07.png
00000014,153,0,1446493949066,1446493949532,330,419,0,0,0,3,2,1,5,0002-00-0000-81.png,0003-00-0001-84.png
00000014,154,1,1446493952901,1446493953605,329,408,0,0,0,3,4,1,7,0002-00-0001-23.png,0004-00-0001-04.png
00000014,155,0,1446493954635,1446493955125,857,500,0,0,0,1,2,1,3,0005-00-0001-98.png,0003-00-0001-15.png
00000014,156,0,1446493958339,1446493959022,296,394,0,0,0,1,0,1,1,0005-00-0001-05.png,0001-00-0001-83.png
00000014,157,1,1446493961964,1446493962641,325,370,0,0,0,0,1,1,1,0001-00-0001-69.png,0005-00-0000-72.png
00000014,158,0,1446493963645,1446493964177,922,413,0,0,0,2,3,1,5,0003-00-0001-34.png,0002-00-0001-01.png
00000014,159,1,1446493967284,1446493967818,872,509,0,0,0,2,1,1,3,0003-00-0000-26.png,0005-00-0001-61.png
00000014,160,0,1446493968843,1446493969821,329,426,0,0,0,4,3,1,7,0004-00-0000-88.png,0002-00-0001-32.png
00000014,161,1,1446493973357,1446493973870,348,440,0,0,0,1,2,1,3,0005-00-0000-60.png,0003-00-0000-26.png
00000014,162,0,1446493975065,1446493975640,312,431,0,0,0,3,2,1,5,0002-00-0000-26.png,0003-00-0001-70.png
00000014,163,1,1446493978792,1446493979504,350,410,0,0,0,0,1,1,1,0001-00-0001-11.png,0005-00-0000-21.png
00000014,164,0,1446493980980,1446493981573,333,422,0,0,0,2,1,1,3,0003-00-0000-57.png,0005-00-0000-86.png
00000014,165,1,1446493984805,1446493985382,358,394,0,0,0,3,4,1,7,0002-00-0001-64.png,0004-00-0001-65.png
00000014,166,1,1446493986666,1446493987237,901,435,0,0,0,1,0,1,1,0005-00-0001-49.png,0001-00-0001-85.png
00000014,167,0,1446493988427,1446493988959,919,406,0,0,0,2,3,1,5,0003-00-0001-83.png,0002-00-0001-79.png
00000014,168,0,1446493992398,1446493993072,350,410,0,0,0,4,3,1,7,0004-00-0001-56.png,0002-00-0000-01.png
00000014,169,0,1446493996135,1446493996596,926,410,0,0,0,2,3,1,5,0003-00-0001-40.png,0002-00-0000-69.png
00000014,170,0,1446493999461,1446493999497,506,388,0,0,0,4,3,1,7,0004-00-0001-98.png,0002-00-0001-66.png
00000014,171,0,1446494002704,1446494003376,889,396,0,0,0,0,1,1,1,0001-00-0001-44.png,0005-00-0001-18.png
00000014,172,1,1446494006340,1446494007231,341,366,0,0,0,3,4,1,7,0002-00-0000-07.png,0004-00-0000-49.png
00000014,173,0,1446494008385,1446494008872,376,462,0,0,0,3,2,1,5,0002-00-0000-11.png,0003-00-0001-26.png
00000014,174,1,1446494012082,1446494012522,888,436,0,0,0,1,0,1,1,0005-00-0001-90.png,0001-00-0001-98.png
00000014,175,0,1446494013568,1446494014435,362,436,0,0,0,2,1,1,3,0003-00-0000-88.png,0005-00-0001-28.png
00000014,176,1,1446494017714,1446494018225,350,424,0,0,0,1,2,1,3,0005-00-0000-99.png,0003-00-0001-76.png
00000014,177,1,1446494019314,1446494019846,918,417,0,0,0,4,3,1,7,0004-00-0001-76.png,0002-00-0000-17.png
00000014,178,0,1446494020923,1446494021464,904,425,0,0,0,2,3,1,5,0003-00-0000-21.png,0002-00-0000-02.png
00000014,179,1,1446494024729,1446494025465,329,399,0,0,0,3,4,1,7,0002-00-0001-51.png,0004-00-0000-31.png
00000014,180,0,1446494027030,1446494027719,918,403,0,0,0,0,1,1,1,0001-00-0001-57.png,0005-00-0001-69.png
00000014,181,0,1446494030901,1446494031417,376,393,0,0,0,3,2,1,5,0002-00-0000-86.png,0003-00-0001-12.png
00000014,182,1,1446494034399,1446494035066,354,371,0,0,0,1,2,1,3,0005-00-0000-05.png,0003-00-0001-23.png
00000014,183,0,1446494036129,1446494036823,319,452,0,0,0,2,1,1,3,0003-00-0001-24.png,0005-00-0000-05.png
00000014,184,1,1446494039807,1446494040669,928,372,0,0,0,1,0,1,1,0005-00-0001-14.png,0001-00-0000-72.png
00000014,185,0,1446494041705,1446494042257,889,424,0,0,0,3,4,1,7,0002-00-0000-92.png,0004-00-0000-62.png
00000014,186,0,1446494045542,1446494046328,343,393,0,0,0,4,3,1,7,0004-00-0001-31.png,0002-00-0000-70.png
00000014,187,1,1446494049507,1446494050018,396,495,0,0,0,0,1,1,1,0001-00-0000-47.png,0005-00-0000-98.png
00000014,188,0,1446494051088,1446494051627,903,440,0,0,0,2,3,1,5,0003-00-0001-80.png,0002-00-0000-28.png
00000014,189,1,1446494054598,1446494055216,376,410,0,0,0,1,2,1,3,0005-00-0000-42.png,0003-00-0000-93.png
00000014,190,0,1446494056277,1446494056944,394,454,0,0,0,3,2,1,5,0002-00-0000-33.png,0003-00-0000-00.png
00000014,191,1,1446494059874,1446494060395,901,424,0,0,0,1,0,1,1,0005-00-0000-70.png,0001-00-0000-51.png
00000014,192,0,1446494061434,1446494061981,382,451,0,0,0,2,1,1,3,0003-00-0001-13.png,0005-00-0000-80.png
00000014,193,0,1446494064941,1446494065494,899,464,0,0,0,2,3,1,5,0003-00-0000-15.png,0002-00-0001-69.png
00000014,194,0,1446494070948,1446494071462,926,450,0,0,0,1,2,1,3,0005-00-0000-22.png,0003-00-0001-03.png
00000014,195,0,1446494074343,1446494074758,354,384,0,0,0,3,2,1,5,0002-00-0001-41.png,0003-00-0000-39.png
00000014,196,1,1446494077600,1446494078598,901,398,0,0,0,2,1,1,3,0003-00-0001-11.png,0005-00-0000-64.png
00000014,197,0,1446494079622,1446494080251,336,413,0,0,0,1,0,1,1,0005-00-0000-59.png,0001-00-0000-62.png
00000014,198,1,1446494083499,1446494084211,902,492,0,0,0,4,3,1,7,0004-00-0001-30.png,0002-00-0001-35.png
00000014,199,1,1446494085328,1446494086211,382,516,0,0,0,0,1,1,1,0001-00-0000-00.png,0005-00-0000-96.png
00000014,200,1,1446494087516,1446494088260,399,442,0,0,0,3,4,1,7,0002-00-0000-86.png,0004-00-0001-86.png
00000014,201,0,1446494089960,1446494090478,370,554,0,0,0,3,2,1,5,0002-00-0000-34.png,0003-00-0000-17.png
00000014,202,1,1446494093674,1446494094299,904,417,0,0,0,1,0,1,1,0005-00-0001-42.png,0001-00-0001-26.png
00000014,203,1,1446494095445,1446494096100,380,429,0,0,0,1,2,1,3,0005-00-0001-06.png,0003-00-0001-42.png
00000014,204,0,1446494097276,1446494098143,355,408,0,0,0,2,1,1,3,0003-00-0001-53.png,0005-00-0001-27.png
00000014,205,1,1446494101301,1446494101856,922,420,0,0,0,4,3,1,7,0004-00-0000-27.png,0002-00-0000-27.png
00000014,206,0,1446494102871,1446494103398,893,417,0,0,0,2,3,1,5,0003-00-0000-24.png,0002-00-0001-81.png
00000014,207,1,1446494106907,1446494107493,401,410,0,0,0,0,1,1,1,0001-00-0001-84.png,0005-00-0000-82.png
00000014,208,1,1446494108568,1446494109312,367,520,0,0,0,3,4,1,7,0002-00-0001-04.png,0004-00-0000-85.png
00000014,209,1,1446494110565,1446494111200,355,451,0,0,0,0,1,1,1,0001-00-0000-74.png,0005-00-0001-88.png
00000014,210,1,1446494112403,1446494113068,868,415,0,0,0,1,0,1,1,0005-00-0001-53.png,0001-00-0001-47.png
00000014,211,0,1446494114238,1446494114973,372,441,0,0,0,4,3,1,7,0004-00-0000-22.png,0002-00-0001-95.png
00000014,212,0,1446494118397,1446494118886,901,462,0,0,0,2,3,1,5,0003-00-0001-58.png,0002-00-0000-24.png
00000014,213,1,1446494122322,1446494122835,356,443,0,0,0,1,2,1,3,0005-00-0000-44.png,0003-00-0000-39.png
00000014,214,0,1446494124048,1446494124840,330,380,0,0,0,2,1,1,3,0003-00-0001-21.png,0005-00-0000-26.png
00000014,215,0,1446494128027,1446494128619,360,400,0,0,0,3,2,1,5,0002-00-0000-76.png,0003-00-0001-33.png
00000014,216,1,1446494131748,1446494132259,356,385,0,0,0,3,4,1,7,0002-00-0000-20.png,0004-00-0001-12.png
00000014,217,1,1446494133439,1446494134213,352,426,0,0,0,3,4,1,7,0002-00-0001-55.png,0004-00-0000-69.png
00000014,218,0,1446494135371,1446494136202,385,392,0,0,0,1,0,1,1,0005-00-0000-13.png,0001-00-0001-81.png
00000014,219,1,1446494139058,1446494139860,386,408,0,0,0,2,3,1,5,0003-00-0000-11.png,0002-00-0001-09.png
00000014,220,0,1446494140905,1446494141545,329,440,0,0,0,4,3,1,7,0004-00-0000-93.png,0002-00-0001-00.png
00000014,221,1,1446494144390,1446494144901,314,390,0,0,0,1,2,1,3,0005-00-0001-94.png,0003-00-0001-27.png
00000014,222,1,1446494145998,1446494146578,376,450,0,0,0,0,1,1,1,0001-00-0000-05.png,0005-00-0000-33.png
00000014,223,0,1446494147705,1446494148440,341,416,0,0,0,3,2,1,5,0002-00-0001-05.png,0003-00-0000-55.png
00000014,224,1,1446494151551,1446494152277,870,523,0,0,0,2,1,1,3,0003-00-0000-66.png,0005-00-0001-81.png
00000014,225,0,1446494153290,1446494153895,401,476,0,0,0,1,0,1,1,0005-00-0001-02.png,0001-00-0000-68.png
00000014,226,0,1446494158081,1446494158617,893,431,0,0,0,2,3,1,5,0003-00-0000-02.png,0002-00-0000-00.png
00000014,227,0,1446494161588,1446494162047,325,424,0,0,0,2,1,1,3,0003-00-0001-12.png,0005-00-0001-84.png
00000014,228,1,1446494167094,1446494167547,401,462,0,0,0,0,1,1,1,0001-00-0001-25.png,0005-00-0000-79.png
00000014,229,1,1446494168785,1446494169429,399,438,0,0,0,1,2,1,3,0005-00-0001-32.png,0003-00-0001-45.png
00000014,230,1,1446494171100,1446494171626,328,393,0,0,0,3,4,1,7,0002-00-0001-56.png,0004-00-0000-29.png
00000014,231,0,1446494173019,1446494173761,320,393,0,0,0,4,3,1,7,0004-00-0001-69.png,0002-00-0000-31.png
00000014,232,0,1446494176994,1446494177808,339,381,0,0,0,3,2,1,5,0002-00-0000-91.png,0003-00-0000-07.png
00000014,233,0,1446494180762,1446494181241,326,419,0,0,0,4,3,1,7,0004-00-0001-56.png,0002-00-0001-34.png
00000014,234,0,1446494184158,1446494184657,318,400,0,0,0,3,2,1,5,0002-00-0001-96.png,0003-00-0001-19.png
00000014,235,0,1446494187690,1446494188352,904,416,0,0,0,2,3,1,5,0003-00-0000-23.png,0002-00-0000-25.png
00000014,236,1,1446494191224,1446494191798,328,387,0,0,0,3,4,1,7,0002-00-0000-53.png,0004-00-0000-07.png
00000014,237,1,1446494192859,1446494193394,897,459,0,0,0,1,0,1,1,0005-00-0001-57.png,0001-00-0000-48.png
00000014,238,0,1446494194397,1446494195115,383,463,0,0,0,2,1,1,3,0003-00-0000-13.png,0005-00-0000-15.png
00000014,239,0,1446494201320,1446494201725,927,370,0,0,0,0,1,1,1,0001-00-0001-15.png,0005-00-0000-34.png
00000014,240,1,1446494204739,1446494205562,310,373,0,0,0,1,2,1,3,0005-00-0000-01.png,0003-00-0001-05.png
00000014,241,0,1446494206649,1446494207130,354,419,0,0,0,3,2,1,5,0002-00-0000-27.png,0003-00-0001-37.png
00000014,242,1,1446494210900,1446494211407,882,461,0,0,0,4,3,1,7,0004-00-0001-90.png,0002-00-0001-64.png
00000014,243,1,1446494212453,1446494213014,901,424,0,0,0,1,0,1,1,0005-00-0000-22.png,0001-00-0001-33.png
00000014,244,1,1446494214193,1446494214784,340,459,0,0,0,0,1,1,1,0001-00-0000-92.png,0005-00-0001-71.png
00000014,245,1,1446494216076,1446494216765,367,453,0,0,0,3,4,1,7,0002-00-0001-76.png,0004-00-0001-95.png
00000014,246,0,1446494218008,1446494218500,887,424,0,0,0,2,3,1,5,0003-00-0001-52.png,0002-00-0000-14.png
00000014,247,0,1446494221575,1446494222124,331,408,0,0,0,2,1,1,3,0003-00-0000-13.png,0005-00-0001-43.png
00000014,248,1,1446494224973,1446494225480,331,410,0,0,0,1,2,1,3,0005-00-0000-71.png,0003-00-0000-82.png
00000014,249,0,1446494226543,1446494227210,376,410,0,0,0,3,2,1,5,0002-00-0000-70.png,0003-00-0001-42.png
00000014,250,0,1446494230370,1446494231115,322,394,0,0,0,4,3,1,7,0004-00-0000-40.png,0002-00-0000-49.png
00000014,251,1,1446494234407,1446494235088,376,424,0,0,0,1,2,1,3,0005-00-0000-93.png,0003-00-0001-25.png
00000014,252,1,1446494236257,1446494236939,357,453,0,0,0,3,4,1,7,0002-00-0001-37.png,0004-00-0000-47.png
00000014,253,0,1446494238628,1446494239405,887,388,0,0,0,2,3,1,5,0003-00-0000-49.png,0002-00-0000-25.png
00000014,254,0,1446494242428,1446494243010,380,401,0,0,0,1,0,1,1,0005-00-0000-28.png,0001-00-0000-68.png
00000014,255,1,1446494253836,1446494254273,379,422,0,0,0,0,1,1,1,0001-00-0000-70.png,0005-00-0000-76.png
00000014,256,0,1446494256104,1446494257232,350,462,0,0,0,2,1,1,3,0003-00-0001-14.png,0005-00-0000-47.png
00000014,257,0,1446494260406,1446494260970,920,420,0,0,0,2,3,1,5,0003-00-0000-21.png,0002-00-0001-32.png
00000014,258,1,1446494263865,1446494264386,365,410,0,0,0,3,4,1,7,0002-00-0001-63.png,0004-00-0001-32.png
00000014,259,0,1446494265385,1446494266660,873,484,0,0,0,1,2,1,3,0005-00-0001-38.png,0003-00-0000-01.png
00000014,260,0,1446494269506,1446494270309,891,358,0,0,0,0,1,1,1,0001-00-0000-84.png,0005-00-0000-29.png
00000014,261,0,1446494273419,1446494274152,344,425,0,0,0,2,1,1,3,0003-00-0001-24.png,0005-00-0000-30.png
00000014,262,0,1446494279033,1446494279516,360,429,0,0,0,3,2,1,5,0002-00-0000-21.png,0003-00-0000-03.png
00000014,263,1,1446494283136,1446494283970,924,432,0,0,0,4,3,1,7,0004-00-0000-69.png,0002-00-0001-45.png
00000014,264,0,1446494284964,1446494285692,384,454,0,0,0,1,0,1,1,0005-00-0000-02.png,0001-00-0000-59.png
00000014,265,0,1446494288601,1446494289090,873,517,0,0,0,2,3,1,5,0003-00-0001-27.png,0002-00-0000-23.png
00000014,266,0,1446494296122,1446494296531,335,400,0,0,0,4,3,1,7,0004-00-0000-13.png,0002-00-0001-68.png
00000014,267,1,1446494299402,1446494299438,496,429,0,0,0,1,2,1,3,0005-00-0001-09.png,0003-00-0001-66.png
00000014,268,0,1446494300420,1446494301119,376,410,0,0,0,3,2,1,5,0002-00-0000-13.png,0003-00-0000-32.png
00000014,269,1,1446494304932,1446494305832,345,367,0,0,0,3,4,1,7,0002-00-0001-68.png,0004-00-0000-68.png
00000014,270,0,1446494306870,1446494307568,384,439,0,0,0,2,1,1,3,0003-00-0000-69.png,0005-00-0000-91.png
00000014,271,1,1446494310617,1446494311332,339,406,0,0,0,0,1,1,1,0001-00-0001-66.png,0005-00-0000-87.png
00000014,272,1,1446494312466,1446494313087,857,513,0,0,0,1,0,1,1,0005-00-0000-70.png,0001-00-0000-67.png
00000014,273,1,1446494314284,1446494315110,376,424,0,0,0,0,1,1,1,0001-00-0001-32.png,0005-00-0001-08.png
00000014,274,1,1446494316234,1446494316983,350,385,0,0,0,3,4,1,7,0002-00-0001-26.png,0004-00-0000-72.png
00000014,275,1,1446494318549,1446494319231,901,398,0,0,0,1,0,1,1,0005-00-0001-21.png,0001-00-0001-03.png
00000014,276,0,1446494320792,1446494321672,352,389,0,0,0,4,3,1,7,0004-00-0001-65.png,0002-00-0000-36.png
00000014,277,0,1446494324519,1446494325022,355,411,0,0,0,3,2,1,5,0002-00-0000-70.png,0003-00-0001-16.png
00000014,278,0,1446494328441,1446494329072,877,495,0,0,0,2,3,1,5,0003-00-0001-31.png,0002-00-0000-27.png
00000014,279,1,1446494331998,1446494332527,350,437,0,0,0,1,2,1,3,0005-00-0001-11.png,0003-00-0001-88.png
00000014,280,1,1446494333632,1446494334388,863,423,0,0,0,2,1,1,3,0003-00-0000-28.png,0005-00-0001-69.png
00000014,281,0,1446494335536,1446494336253,382,469,0,0,0,2,1,1,3,0003-00-0000-36.png,0005-00-0001-48.png
00000014,282,0,1446494339220,1446494339774,368,451,0,0,0,3,2,1,5,0002-00-0001-05.png,0003-00-0001-11.png
00000014,283,1,1446494344569,1446494346126,401,424,0,0,0,1,2,1,3,0005-00-0000-55.png,0003-00-0000-81.png
00000014,284,1,1446494347371,1446494347944,401,530,0,0,0,0,1,1,1,0001-00-0000-24.png,0005-00-0000-82.png
00000014,285,0,1446494349647,1446494350143,334,443,0,0,0,1,0,1,1,0005-00-0000-38.png,0001-00-0000-47.png
00000014,286,1,1446494353315,1446494354030,362,410,0,0,0,3,4,1,7,0002-00-0000-95.png,0004-00-0000-30.png
00000014,287,0,1446494355143,1446494356014,899,430,0,0,0,2,3,1,5,0003-00-0000-88.png,0002-00-0000-08.png
00000014,288,1,1446494359210,1446494359939,931,402,0,0,0,4,3,1,7,0004-00-0000-75.png,0002-00-0000-77.png
00000014,289,1,1446494361002,1446494361718,887,424,0,0,0,2,1,1,3,0003-00-0001-18.png,0005-00-0000-83.png
00000014,290,1,1446494362802,1446494363594,901,410,0,0,0,1,0,1,1,0005-00-0000-28.png,0001-00-0000-41.png
00000014,291,0,1446494364645,1446494365187,876,410,0,0,0,2,3,1,5,0003-00-0001-33.png,0002-00-0000-80.png
00000014,292,1,1446494368403,1446494368976,321,401,0,0,0,0,1,1,1,0001-00-0001-54.png,0005-00-0001-61.png
00000014,293,0,1446494370147,1446494370718,913,398,0,0,0,3,4,1,7,0002-00-0001-09.png,0004-00-0000-09.png
00000014,294,0,1446494373917,1446494374435,299,410,0,0,0,3,2,1,5,0002-00-0000-66.png,0003-00-0001-27.png
00000014,295,1,1446494377404,1446494377930,325,422,0,0,0,1,2,1,3,0005-00-0000-33.png,0003-00-0001-77.png
00000014,296,1,1446494378945,1446494379513,882,418,0,0,0,4,3,1,7,0004-00-0000-61.png,0002-00-0001-34.png
00000014,297,0,1446494380577,1446494381377,363,440,0,0,0,1,0,1,1,0005-00-0001-66.png,0001-00-0000-61.png
00000014,298,0,1446494384462,1446494384946,365,496,0,0,0,3,2,1,5,0002-00-0000-12.png,0003-00-0000-36.png
00000014,299,0,1446494392020,1446494392528,378,481,0,0,0,4,3,1,7,0004-00-0000-43.png,0002-00-0000-57.png
00000014,300,1,1446494395487,1446494395921,362,410,0,0,0,1,2,1,3,0005-00-0000-29.png,0003-00-0000-28.png
00000014,301,0,1446494396934,1446494397871,350,394,0,0,0,2,1,1,3,0003-00-0001-21.png,0005-00-0000-18.png
00000014,302,1,1446494401298,1446494402083,359,395,0,0,0,3,4,1,7,0002-00-0000-56.png,0004-00-0001-61.png
00000014,303,1,1446494403295,1446494403990,396,442,0,0,0,0,1,1,1,0001-00-0001-36.png,0005-00-0000-91.png
00000014,304,0,1446494405321,1446494406101,913,398,0,0,0,2,3,1,5,0003-00-0000-78.png,0002-00-0001-95.png
00000014,305,1,1446494409092,1446494409549,882,423,0,0,0,4,3,1,7,0004-00-0001-53.png,0002-00-0000-01.png
00000014,306,0,1446494410502,1446494411293,877,364,0,0,0,2,3,1,5,0003-00-0000-15.png,0002-00-0001-24.png
00000014,307,0,1446494414968,1446494415966,913,386,0,0,0,1,2,1,3,0005-00-0001-34.png,0003-00-0000-12.png
00000014,308,0,1446494419031,1446494419591,328,393,0,0,0,2,1,1,3,0003-00-0000-06.png,0005-00-0001-55.png
00000014,309,1,1446494425633,1446494426220,913,398,0,0,0,1,0,1,1,0005-00-0001-16.png,0001-00-0000-91.png
00000014,310,1,1446494427410,1446494428209,350,501,0,0,0,3,4,1,7,0002-00-0000-93.png,0004-00-0000-62.png
00000014,311,1,1446494429855,1446494430380,350,410,0,0,0,0,1,1,1,0001-00-0001-26.png,0005-00-0001-58.png
00000014,312,0,1446494431545,1446494432197,368,429,0,0,0,3,2,1,5,0002-00-0001-38.png,0003-00-0001-92.png
00000014,313,0,1446494435105,1446494435647,332,400,0,0,0,3,2,1,5,0002-00-0001-02.png,0003-00-0001-55.png
00000014,314,0,1446494439465,1446494440043,857,552,0,0,0,2,3,1,5,0003-00-0001-24.png,0002-00-0001-62.png
00000014,315,1,1446494443012,1446494443684,919,390,0,0,0,4,3,1,7,0004-00-0000-42.png,0002-00-0001-07.png
00000014,316,0,1446494444733,1446494445746,332,453,0,0,0,2,1,1,3,0003-00-0000-01.png,0005-00-0000-78.png
00000014,317,1,1446494451440,1446494452056,336,441,0,0,0,0,1,1,1,0001-00-0000-41.png,0005-00-0001-33.png
00000014,318,0,1446494453251,1446494454020,946,420,0,0,0,3,4,1,7,0002-00-0001-29.png,0004-00-0000-36.png
00000014,319,0,1446494456995,1446494457055,500,415,0,0,0,1,0,1,1,0005-00-0000-89.png,0001-00-0000-84.png
00000014,320,1,1446494461874,1446494462318,368,465,0,0,0,1,2,1,3,0005-00-0000-92.png,0003-00-0000-38.png
00000014,321,0,1446494464026,1446494464515,325,462,0,0,0,3,2,1,5,0002-00-0000-43.png,0003-00-0000-06.png
00000014,322,0,1446494467759,1446494468336,301,374,0,0,0,4,3,1,7,0004-00-0001-81.png,0002-00-0001-39.png
00000014,323,1,1446494471397,1446494472290,911,448,0,0,0,1,0,1,1,0005-00-0001-73.png,0001-00-0001-01.png
00000014,324,1,1446494473406,1446494474107,364,406,0,0,0,0,1,1,1,0001-00-0000-48.png,0005-00-0000-77.png
00000014,325,1,1446494475219,1446494475877,350,424,0,0,0,3,4,1,7,0002-00-0001-02.png,0004-00-0000-32.png
00000014,326,1,1446494477065,1446494477931,372,393,0,0,0,1,2,1,3,0005-00-0000-39.png,0003-00-0000-18.png
00000014,327,1,1446494479051,1446494479896,356,413,0,0,0,2,3,1,5,0003-00-0000-98.png,0002-00-0001-26.png
00000014,328,0,1446494481094,1446494481808,355,424,0,0,0,2,1,1,3,0003-00-0001-69.png,0005-00-0001-34.png
00000014,329,0,1446494485447,1446494485922,303,416,0,0,0,3,2,1,5,0002-00-0000-99.png,0003-00-0000-63.png
00000014,330,1,1446494488791,1446494489615,924,404,0,0,0,4,3,1,7,0004-00-0000-05.png,0002-00-0001-23.png
00000014,331,0,1446494490624,1446494491374,427,462,0,0,0,1,0,1,1,0005-00-0001-22.png,0001-00-0000-32.png
00000014,332,1,1446494500193,1446494500590,293,395,0,0,0,0,1,1,1,0001-00-0000-86.png,0005-00-0001-73.png
00000014,333,1,1446494502488,1446494503010,383,392,0,0,0,1,2,1,3,0005-00-0000-79.png,0003-00-0000-55.png
00000014,334,0,1446494504130,1446494504829,403,425,0,0,0,2,1,1,3,0003-00-0000-28.png,0005-00-0000-06.png
00000014,335,1,1446494507766,1446494508299,426,515,0,0,0,2,3,1,5,0003-00-0001-79.png,0002-00-0000-70.png
00000014,336,1,1446494509426,1446494509992,325,442,0,0,0,3,4,1,7,0002-00-0000-09.png,0004-00-0000-43.png
00000014,337,1,1446494511056,1446494511701,347,452,0,0,0,0,1,1,1,0001-00-0001-74.png,0005-00-0001-29.png
00000014,338,1,1446494512725,1446494513427,345,451,0,0,0,1,2,1,3,0005-00-0001-82.png,0003-00-0001-22.png
00000014,339,1,1446494514536,1446494515189,888,446,0,0,0,1,0,1,1,0005-00-0000-48.png,0001-00-0001-39.png
00000014,340,0,1446494516215,1446494516879,401,449,0,0,0,2,1,1,3,0003-00-0001-85.png,0005-00-0000-52.png
00000014,341,0,1446494520269,1446494520864,358,409,0,0,0,3,2,1,5,0002-00-0001-43.png,0003-00-0000-90.png
00000014,342,0,1446494523776,1446494524283,898,429,0,0,0,3,4,1,7,0002-00-0001-71.png,0004-00-0000-81.png
00000014,343,0,1446494527326,1446494528167,926,437,0,0,0,2,3,1,5,0003-00-0000-91.png,0002-00-0000-33.png
00000014,344,0,1446494534770,1446494535175,343,388,0,0,0,4,3,1,7,0004-00-0001-56.png,0002-00-0000-80.png
00000014,345,0,1446494538360,1446494539085,923,509,0,0,0,2,3,1,5,0003-00-0001-47.png,0002-00-0001-26.png
00000014,346,0,1446494542133,1446494542653,357,384,0,0,0,4,3,1,7,0004-00-0000-33.png,0002-00-0000-91.png
00000014,347,1,1446494545706,1446494546411,385,450,0,0,0,1,2,1,3,0005-00-0001-90.png,0003-00-0001-40.png
00000014,348,0,1446494547374,1446494548003,426,541,0,0,0,2,1,1,3,0003-00-0001-46.png,0005-00-0001-88.png
00000014,349,1,1446494553309,1446494553928,325,423,0,0,0,3,4,1,7,0002-00-0000-69.png,0004-00-0000-59.png
00000014,350,0,1446494555236,1446494556081,329,424,0,0,0,1,0,1,1,0005-00-0000-65.png,0001-00-0001-31.png
00000014,351,0,1446494559176,1446494559624,409,393,0,0,0,3,2,1,5,0002-00-0000-74.png,0003-00-0001-69.png
00000014,352,1,1446494562468,1446494562896,372,375,0,0,0,0,1,1,1,0001-00-0000-24.png,0005-00-0000-40.png
00000014,353,0,1446494563922,1446494564587,343,433,0,0,0,3,2,1,5,0002-00-0000-33.png,0003-00-0001-96.png
00000014,354,0,1446494632619,1446494633262,398,420,0,0,0,1,0,1,1,0005-00-0001-37.png,0001-00-0001-41.png
00000014,355,1,1446494637103,1446494637623,375,523,0,0,0,1,2,1,3,0005-00-0000-35.png,0003-00-0001-91.png
00000014,356,1,1446494638745,1446494639317,346,422,0,0,0,0,1,1,1,0001-00-0000-65.png,0005-00-0000-30.png
00000014,357,0,1446494640384,1446494640947,877,520,0,0,0,2,3,1,5,0003-00-0000-04.png,0002-00-0000-78.png
00000014,358,0,1446494643981,1446494644447,320,426,0,0,0,2,1,1,3,0003-00-0001-47.png,0005-00-0000-91.png
00000014,359,1,1446494647317,1446494647944,376,384,0,0,0,3,4,1,7,0002-00-0001-08.png,0004-00-0000-60.png
00000014,360,0,1446494650005,1446494650587,295,426,0,0,0,4,3,1,7,0004-00-0000-24.png,0002-00-0000-22.png
00000014,361,1,1446494653441,1446494654073,902,492,0,0,0,4,3,1,7,0004-00-0000-36.png,0002-00-0000-69.png
00000014,362,1,1446494655043,1446494655816,901,396,0,0,0,1,0,1,1,0005-00-0000-84.png,0001-00-0001-37.png
00000014,363,0,1446494656802,1446494657392,893,430,0,0,0,3,4,1,7,0002-00-0001-37.png,0004-00-0001-03.png
00000014,364,0,1446494660440,1446494660926,321,411,0,0,0,3,2,1,5,0002-00-0000-95.png,0003-00-0000-94.png
00000014,365,0,1446494664122,1446494664653,877,528,0,0,0,2,3,1,5,0003-00-0001-45.png,0002-00-0000-40.png
00000014,366,0,1446494667664,1446494668186,344,393,0,0,0,2,1,1,3,0003-00-0001-89.png,0005-00-0001-37.png
00000014,367,1,1446494686915,1446494687412,401,436,0,0,0,1,2,1,3,0005-00-0000-51.png,0003-00-0001-99.png
00000014,368,1,1446494688587,1446494689187,358,466,0,0,0,0,1,1,1,0001-00-0000-70.png,0005-00-0000-93.png
00000014,369,1,1446494690865,1446494691554,357,415,0,0,0,0,1,1,1,0001-00-0001-31.png,0005-00-0000-02.png
00000014,370,1,1446494692702,1446494693327,876,519,0,0,0,1,0,1,1,0005-00-0000-24.png,0001-00-0001-69.png
00000014,371,0,1446494694517,1446494694963,356,428,0,0,0,3,2,1,5,0002-00-0000-03.png,0003-00-0001-82.png
00000014,372,1,1446494698037,1446494698588,870,498,0,0,0,4,3,1,7,0004-00-0001-88.png,0002-00-0000-43.png
00000014,373,0,1446494699668,1446494700261,929,466,0,0,0,2,3,1,5,0003-00-0000-72.png,0002-00-0001-26.png
00000014,374,1,1446494703145,1446494703719,355,391,0,0,0,1,2,1,3,0005-00-0000-23.png,0003-00-0001-17.png
00000014,375,1,1446494704745,1446494705330,362,436,0,0,0,3,4,1,7,0002-00-0001-34.png,0004-00-0001-62.png
00000014,376,0,1446494706317,1446494706971,347,443,0,0,0,2,1,1,3,0003-00-0001-78.png,0005-00-0000-47.png
00000014,377,0,1446494710084,1446494710587,376,410,0,0,0,3,2,1,5,0002-00-0001-12.png,0003-00-0001-49.png
00000014,378,0,1446494713691,1446494714237,357,409,0,0,0,4,3,1,7,0004-00-0000-85.png,0002-00-0001-15.png
00000014,379,1,1446494717385,1446494718257,925,386,0,0,0,2,1,1,3,0003-00-0001-10.png,0005-00-0000-88.png
00000014,380,0,1446494719176,1446494720028,906,417,0,0,0,1,2,1,3,0005-00-0000-32.png,0003-00-0001-36.png
00000014,381,0,1446494722913,1446494723437,931,415,0,0,0,2,3,1,5,0003-00-0000-53.png,0002-00-0000-17.png
00000014,382,0,1446494726662,1446494727314,893,483,0,0,0,3,4,1,7,0002-00-0000-42.png,0004-00-0001-94.png
00000014,383,1,1446494731023,1446494731606,428,538,0,0,0,0,1,1,1,0001-00-0000-91.png,0005-00-0001-66.png
00000014,384,1,1446494732523,1446494733496,908,417,0,0,0,1,0,1,1,0005-00-0001-34.png,0001-00-0001-29.png
00000014,385,0,1446494734461,1446494735400,900,397,0,0,0,2,3,1,5,0003-00-0001-73.png,0002-00-0000-51.png
00000014,386,1,1446494738555,1446494739029,883,551,0,0,0,1,0,1,1,0005-00-0000-61.png,0001-00-0000-05.png
00000014,387,0,1446494739957,1446494740601,329,392,0,0,0,3,2,1,5,0002-00-0001-04.png,0003-00-0001-38.png
00000014,388,0,1446494743675,1446494744344,900,488,0,0,0,0,1,1,1,0001-00-0001-99.png,0005-00-0000-15.png
00000014,389,1,1446494747341,1446494748051,359,397,0,0,0,1,2,1,3,0005-00-0001-88.png,0003-00-0000-76.png
00000014,390,0,1446494749002,1446494749646,332,408,0,0,0,4,3,1,7,0004-00-0000-27.png,0002-00-0001-09.png
00000014,391,1,1446494753167,1446494753841,358,423,0,0,0,3,4,1,7,0002-00-0000-60.png,0004-00-0000-94.png
00000014,392,1,1446494754834,1446494755772,944,410,0,0,0,2,1,1,3,0003-00-0001-43.png,0005-00-0000-05.png
00000014,393,1,1446494756833,1446494757796,299,423,0,0,0,2,3,1,5,0003-00-0001-44.png,0002-00-0000-99.png
00000014,394,0,1446494758841,1446494759427,358,426,0,0,0,3,2,1,5,0002-00-0000-67.png,0003-00-0001-54.png
00000014,395,1,1446494762796,1446494763704,387,410,0,0,0,1,2,1,3,0005-00-0001-86.png,0003-00-0001-99.png
00000014,396,1,1446494764733,1446494765357,900,438,0,0,0,1,0,1,1,0005-00-0000-85.png,0001-00-0000-70.png
00000014,397,0,1446494766364,1446494767186,357,431,0,0,0,2,1,1,3,0003-00-0000-82.png,0005-00-0001-59.png
00000014,398,1,1446494770730,1446494771424,305,406,0,0,0,0,1,1,1,0001-00-0000-92.png,0005-00-0001-55.png
00000014,399,0,1446494772439,1446494773025,326,429,0,0,0,4,3,1,7,0004-00-0001-50.png,0002-00-0000-86.png
00000014,400,1,1446494776304,1446494776816,324,394,0,0,0,3,4,1,7,0002-00-0000-11.png,0004-00-0000-63.png
00000014,401,1,1446494777822,1446494778836,922,379,0,0,0,2,1,1,3,0003-00-0001-10.png,0005-00-0000-13.png
00000014,402,1,1446494779872,1446494780524,348,445,0,0,0,1,2,1,3,0005-00-0001-70.png,0003-00-0000-15.png
00000014,403,1,1446494781648,1446494782218,332,433,0,0,0,3,4,1,7,0002-00-0001-54.png,0004-00-0000-99.png
00000014,404,0,1446494783393,1446494783976,916,406,0,0,0,2,3,1,5,0003-00-0000-85.png,0002-00-0000-30.png
00000014,405,1,1446494786830,1446494787628,329,401,0,0,0,0,1,1,1,0001-00-0001-35.png,0005-00-0001-23.png
00000014,406,1,1446494788599,1446494789247,900,397,0,0,0,1,0,1,1,0005-00-0000-76.png,0001-00-0000-50.png
00000014,407,0,1446494790805,1446494791330,339,441,0,0,0,3,2,1,5,0002-00-0001-17.png,0003-00-0000-45.png
00000014,408,1,1446494795656,1446494796407,951,423,0,0,0,4,3,1,7,0004-00-0000-61.png,0002-00-0001-11.png
00000014,409,1,1446494797345,1446494798111,341,469,0,0,0,1,2,1,3,0005-00-0000-04.png,0003-00-0000-99.png
00000014,410,0,1446494799202,1446494799847,320,430,0,0,0,3,2,1,5,0002-00-0000-61.png,0003-00-0000-72.png
00000014,411,0,1446494803030,1446494803918,330,423,0,0,0,2,1,1,3,0003-00-0000-43.png,0005-00-0001-56.png
00000014,412,1,1446494806806,1446494807709,886,473,0,0,0,1,0,1,1,0005-00-0001-60.png,0001-00-0000-64.png
00000014,413,0,1446494808652,1446494809410,876,503,0,0,0,3,4,1,7,0002-00-0001-65.png,0004-00-0000-04.png
00000014,414,1,1446494812860,1446494813583,422,505,0,0,0,2,3,1,5,0003-00-0000-91.png,0002-00-0001-82.png
00000014,415,0,1446494815043,1446494815615,354,415,0,0,0,4,3,1,7,0004-00-0000-41.png,0002-00-0001-83.png
00000014,416,1,1446494818591,1446494819231,306,384,0,0,0,0,1,1,1,0001-00-0001-82.png,0005-00-0000-87.png
00000014,417,0,1446494820217,1446494821066,923,377,0,0,0,0,1,1,1,0001-00-0000-03.png,0005-00-0000-47.png
00000014,418,1,1446494824286,1446494825007,358,384,0,0,0,1,2,1,3,0005-00-0001-25.png,0003-00-0000-40.png
00000014,419,0,1446494825933,1446494826480,358,444,0,0,0,3,2,1,5,0002-00-0000-16.png,0003-00-0001-61.png
00000014,420,0,1446494831452,1446494831993,363,426,0,0,0,2,1,1,3,0003-00-0000-13.png,0005-00-0001-78.png
00000014,421,0,1446494835562,1446494836202,880,506,0,0,0,2,3,1,5,0003-00-0001-34.png,0002-00-0001-50.png
00000014,422,0,1446494839175,1446494839737,900,514,0,0,0,3,4,1,7,0002-00-0001-27.png,0004-00-0000-23.png
00000014,423,0,1446494842807,1446494843459,312,423,0,0,0,4,3,1,7,0004-00-0000-30.png,0002-00-0001-82.png
00000014,424,1,1446494846548,1446494847243,934,395,0,0,0,1,0,1,1,0005-00-0000-73.png,0001-00-0000-65.png
00000014,425,0,1446494848187,1446494848848,368,411,0,0,0,3,2,1,5,0002-00-0001-71.png,0003-00-0001-27.png
00000014,426,0,1446494851944,1446494852675,902,363,0,0,0,1,2,1,3,0005-00-0000-64.png,0003-00-0000-36.png
00000014,427,0,1446494856814,1446494857427,381,491,0,0,0,2,1,1,3,0003-00-0000-97.png,0005-00-0000-80.png
00000014,428,0,1446494860532,1446494861266,332,400,0,0,0,4,3,1,7,0004-00-0001-31.png,0002-00-0001-60.png
00000014,429,1,1446494865138,1446494865952,329,359,0,0,0,3,4,1,7,0002-00-0000-98.png,0004-00-0001-19.png
00000014,430,1,1446494866956,1446494867778,865,485,0,0,0,1,0,1,1,0005-00-0001-74.png,0001-00-0001-18.png
00000014,431,1,1446494868811,1446494869690,333,409,0,0,0,0,1,1,1,0001-00-0000-74.png,0005-00-0001-03.png
00000014,432,0,1446494870866,1446494872628,925,412,0,0,0,2,3,1,5,0003-00-0000-29.png,0002-00-0000-33.png
00000014,433,1,1446494876273,1446494876877,874,501,0,0,0,1,0,1,1,0005-00-0000-48.png,0001-00-0001-02.png
00000014,434,0,1446494877944,1446494878648,326,432,0,0,0,4,3,1,7,0004-00-0000-67.png,0002-00-0000-00.png
00000014,435,1,1446494881604,1446494882204,401,488,0,0,0,1,2,1,3,0005-00-0001-13.png,0003-00-0001-61.png
00000014,436,0,1446494883133,1446494883832,896,420,0,0,0,2,3,1,5,0003-00-0001-53.png,0002-00-0001-02.png
00000014,437,0,1446494887276,1446494887771,348,421,0,0,0,3,2,1,5,0002-00-0001-01.png,0003-00-0001-09.png
00000014,438,1,1446494891001,1446494891621,357,404,0,0,0,0,1,1,1,0001-00-0001-47.png,0005-00-0001-12.png
00000014,439,0,1446494892653,1446494893674,356,423,0,0,0,2,1,1,3,0003-00-0001-19.png,0005-00-0000-41.png
00000014,440,1,1446494897075,1446494897670,376,410,0,0,0,3,4,1,7,0002-00-0000-22.png,0004-00-0001-35.png
00000014,441,0,1446494898600,1446494899404,880,401,0,0,0,2,3,1,5,0003-00-0001-62.png,0002-00-0001-95.png
00000014,442,1,1446494902648,1446494903465,880,427,0,0,0,2,1,1,3,0003-00-0000-80.png,0005-00-0000-88.png
00000014,443,1,1446494904388,1446494904981,361,440,0,0,0,3,4,1,7,0002-00-0000-92.png,0004-00-0001-59.png
00000014,444,1,1446494906490,1446494907041,356,449,0,0,0,1,2,1,3,0005-00-0001-16.png,0003-00-0001-63.png
00000014,445,0,1446494908067,1446494908730,350,420,0,0,0,3,2,1,5,0002-00-0001-88.png,0003-00-0000-81.png
00000014,446,1,1446494911584,1446494912072,354,394,0,0,0,0,1,1,1,0001-00-0001-88.png,0005-00-0000-88.png
00000014,447,0,1446494913194,1446494914352,385,396,0,0,0,1,0,1,1,0005-00-0001-59.png,0001-00-0000-88.png
00000014,448,1,1446494917408,1446494918147,924,404,0,0,0,4,3,1,7,0004-00-0000-58.png,0002-00-0001-86.png
00000014,449,1,1446494919088,1446494920072,353,408,0,0,0,1,2,1,3,0005-00-0000-03.png,0003-00-0001-82.png
00000014,450,1,1446494921141,1446494921731,894,436,0,0,0,1,0,1,1,0005-00-0001-07.png,0001-00-0001-98.png
00000014,451,0,1446494922866,1446494923532,325,436,0,0,0,3,2,1,5,0002-00-0001-11.png,0003-00-0000-93.png
00000014,452,0,1446494926369,1446494926942,376,518,0,0,0,4,3,1,7,0004-00-0000-82.png,0002-00-0000-33.png
00000014,453,1,1446494930186,1446494930778,362,380,0,0,0,0,1,1,1,0001-00-0000-57.png,0005-00-0000-05.png
00000014,454,1,1446494931801,1446494932573,350,421,0,0,0,3,4,1,7,0002-00-0000-24.png,0004-00-0000-25.png
00000014,455,1,1446494933669,1446494934632,400,498,0,0,0,2,3,1,5,0003-00-0001-44.png,0002-00-0001-22.png
00000014,456,0,1446494935748,1446494936664,400,389,0,0,0,2,1,1,3,0003-00-0001-07.png,0005-00-0001-08.png
00000014,457,0,1446494939644,1446494940297,910,419,0,0,0,2,3,1,5,0003-00-0000-69.png,0002-00-0000-82.png
00000014,458,0,1446494943448,1446494944039,306,402,0,0,0,3,2,1,5,0002-00-0001-61.png,0003-00-0001-64.png
00000014,459,0,1446494947137,1446494947752,392,410,0,0,0,2,1,1,3,0003-00-0001-89.png,0005-00-0001-79.png
00000014,460,1,1446494950910,1446494951444,369,419,0,0,0,1,2,1,3,0005-00-0000-63.png,0003-00-0001-14.png
00000014,461,0,1446494952497,1446494953309,356,408,0,0,0,4,3,1,7,0004-00-0001-23.png,0002-00-0000-44.png
00000014,462,1,1446494956597,1446494957261,332,375,0,0,0,3,4,1,7,0002-00-0001-77.png,0004-00-0001-42.png
00000014,463,1,1446494958258,1446494958871,306,426,0,0,0,0,1,1,1,0001-00-0000-39.png,0005-00-0001-77.png
00000014,464,1,1446494959886,1446494960698,913,399,0,0,0,1,0,1,1,0005-00-0000-17.png,0001-00-0001-05.png
00000014,465,1,1446494961790,1446494962304,900,424,0,0,0,1,0,1,1,0005-00-0001-85.png,0001-00-0001-65.png
00000014,466,0,1446494963415,1446494964209,384,446,0,0,0,2,1,1,3,0003-00-0001-20.png,0005-00-0001-80.png
00000014,467,1,1446494967272,1446494967878,867,508,0,0,0,4,3,1,7,0004-00-0001-76.png,0002-00-0000-59.png
00000014,468,1,1446494968821,1446494969739,339,419,0,0,0,1,2,1,3,0005-00-0000-84.png,0003-00-0000-41.png
00000014,469,0,1446494970751,1446494971452,378,420,0,0,0,3,2,1,5,0002-00-0001-31.png,0003-00-0001-21.png
00000014,470,1,1446494974648,1446494975200,356,514,0,0,0,0,1,1,1,0001-00-0001-87.png,0005-00-0001-66.png
00000014,471,0,1446494976266,1446494976984,880,428,0,0,0,2,3,1,5,0003-00-0001-42.png,0002-00-0000-15.png
00000014,472,1,1446494980207,1446494981359,358,398,0,0,0,3,4,1,7,0002-00-0001-57.png,0004-00-0001-24.png
00000014,473,1,1446494982834,1446494983792,901,383,0,0,0,1,0,1,1,0005-00-0001-30.png,0001-00-0001-15.png
00000014,474,0,1446494984767,1446494985485,376,446,0,0,0,2,1,1,3,0003-00-0000-61.png,0005-00-0000-73.png
00000014,475,0,1446494989050,1446494989577,360,406,0,0,0,3,2,1,5,0002-00-0000-72.png,0003-00-0000-00.png
00000014,476,1,1446494992547,1446494993422,360,396,0,0,0,1,2,1,3,0005-00-0000-78.png,0003-00-0001-45.png
00000014,477,1,1446494994452,1446494995223,361,407,0,0,0,0,1,1,1,0001-00-0000-99.png,0005-00-0001-81.png
00000014,478,0,1446494996325,1446494996851,874,542,0,0,0,3,4,1,7,0002-00-0001-22.png,0004-00-0000-68.png
00000014,479,0,1446494999994,1446495000839,877,512,0,0,0,2,3,1,5,0003-00-0000-56.png,0002-00-0000-79.png
00000014,480,0,1446495004268,1446495005005,318,397,0,0,0,4,3,1,7,0004-00-0000-39.png,0002-00-0001-04.png
00000014,481,0,1446495008044,1446495008574,325,430,0,0,0,2,1,1,3,0003-00-0000-12.png,0005-00-0001-22.png
00000014,482,1,1446495011726,1446495012455,342,419,0,0,0,0,1,1,1,0001-00-0000-01.png,0005-00-0000-94.png
00000014,483,1,1446495013540,1446495014197,885,381,0,0,0,4,3,1,7,0004-00-0001-27.png,0002-00-0001-53.png
00000014,484,0,1446495015198,1446495015923,359,410,0,0,0,3,2,1,5,0002-00-0000-97.png,0003-00-0001-29.png
00000014,485,1,1446495019245,1446495020127,361,474,0,0,0,3,4,1,7,0002-00-0001-06.png,0004-00-0000-55.png
00000014,486,0,1446495021113,1446495021775,925,371,0,0,0,2,3,1,5,0003-00-0001-64.png,0002-00-0000-61.png
00000014,487,1,1446495024910,1446495025805,927,416,0,0,0,1,0,1,1,0005-00-0000-34.png,0001-00-0000-18.png
00000014,488,1,1446495026790,1446495027506,354,432,0,0,0,1,2,1,3,0005-00-0000-78.png,0003-00-0000-43.png
00000014,489,1,1446495028563,1446495029251,899,422,0,0,0,1,0,1,1,0005-00-0000-33.png,0001-00-0000-74.png
00000014,490,1,1446495030300,1446495030973,895,446,0,0,0,4,3,1,7,0004-00-0000-55.png,0002-00-0000-85.png
00000014,491,0,1446495032188,1446495032880,359,444,0,0,0,3,2,1,5,0002-00-0001-13.png,0003-00-0001-88.png
00000014,492,1,1446495040564,1446495041467,312,434,0,0,0,3,4,1,7,0002-00-0000-61.png,0004-00-0000-35.png
00000014,493,0,1446495042454,1446495043518,925,410,0,0,0,2,3,1,5,0003-00-0001-04.png,0002-00-0000-48.png
00000014,494,1,1446495046478,1446495047182,929,404,0,0,0,2,1,1,3,0003-00-0000-52.png,0005-00-0000-30.png
00000014,495,1,1446495048180,1446495048980,401,450,0,0,0,1,2,1,3,0005-00-0001-48.png,0003-00-0000-00.png
00000014,496,1,1446495049976,1446495050715,401,436,0,0,0,0,1,1,1,0001-00-0000-03.png,0005-00-0000-85.png
00000014,497,1,1446495051727,1446495052515,338,436,0,0,0,2,3,1,5,0003-00-0001-48.png,0002-00-0001-93.png
00000014,498,1,1446495053522,1446495054117,325,428,0,0,0,0,1,1,1,0001-00-0001-86.png,0005-00-0000-04.png
00000014,499,0,1446495055212,1446495055741,309,410,0,0,0,3,2,1,5,0002-00-0000-13.png,0003-00-0000-86.png
00000014,500,1,1446495058980,1446495059868,351,386,0,0,0,1,2,1,3,0005-00-0000-58.png,0003-00-0000-93.png
00000014,501,0,1446495060857,1446495061570,375,409,0,0,0,2,1,1,3,0003-00-0001-76.png,0005-00-0000-84.png
00000014,502,0,1446495065124,1446495065814,319,367,0,0,0,4,3,1,7,0004-00-0000-36.png,0002-00-0001-69.png
00000014,503,1,1446495068762,1446495069644,951,397,0,0,0,1,0,1,1,0005-00-0000-95.png,0001-00-0000-11.png
00000014,504,0,1446495070641,1446495071423,925,423,0,0,0,3,4,1,7,0002-00-0001-61.png,0004-00-0000-25.png
00000014,505,1,1446495074417,1446495075075,903,403,0,0,0,1,0,1,1,0005-00-0000-13.png,0001-00-0001-52.png
00000014,506,0,1446495076017,1446495077138,338,426,0,0,0,4,3,1,7,0004-00-0001-65.png,0002-00-0000-41.png
00000014,507,1,1446495080094,1446495080949,888,370,0,0,0,2,1,1,3,0003-00-0000-35.png,0005-00-0001-82.png
00000014,508,0,1446495081999,1446495083066,904,401,0,0,0,1,2,1,3,0005-00-0000-93.png,0003-00-0001-09.png
00000014,509,0,1446495086395,1446495087065,903,388,0,0,0,2,3,1,5,0003-00-0000-14.png,0002-00-0000-63.png
00000014,510,1,1446495090180,1446495090962,324,381,0,0,0,0,1,1,1,0001-00-0001-63.png,0005-00-0000-28.png
00000014,511,1,1446495091952,1446495092542,332,417,0,0,0,3,4,1,7,0002-00-0001-79.png,0004-00-0000-29.png
00000014,512,0,1446495093597,1446495094244,334,418,0,0,0,3,2,1,5,0002-00-0000-18.png,0003-00-0000-26.png
00000014,513,1,1446495097196,1446495098392,375,532,0,0,0,2,3,1,5,0003-00-0000-74.png,0002-00-0000-70.png
00000014,514,1,1446495099394,1446495099979,875,379,0,0,0,4,3,1,7,0004-00-0001-73.png,0002-00-0001-89.png
00000014,515,1,1446495101016,1446495101937,337,401,0,0,0,1,2,1,3,0005-00-0000-22.png,0003-00-0000-68.png
00000014,516,1,1446495102971,1446495103867,356,408,0,0,0,3,4,1,7,0002-00-0001-77.png,0004-00-0000-42.png
00000014,517,1,1446495104960,1446495105585,332,423,0,0,0,0,1,1,1,0001-00-0000-35.png,0005-00-0000-35.png
00000014,518,0,1446495106722,1446495107421,350,424,0,0,0,3,2,1,5,0002-00-0001-71.png,0003-00-0000-25.png
00000014,519,1,1446495112645,1446495113516,977,424,0,0,0,1,0,1,1,0005-00-0001-80.png,0001-00-0001-12.png
00000014,520,0,1446495114563,1446495115402,359,466,0,0,0,2,1,1,3,0003-00-0000-54.png,0005-00-0000-69.png
00000014,521,0,1446495118795,1446495119407,874,502,0,0,0,2,3,1,5,0003-00-0001-77.png,0002-00-0000-56.png
00000014,522,0,1446495122272,1446495122962,328,377,0,0,0,4,3,1,7,0004-00-0001-23.png,0002-00-0001-67.png
00000014,523,0,1446495126511,1446495127277,376,410,0,0,0,1,0,1,1,0005-00-0000-13.png,0001-00-0000-94.png
00000014,524,1,1446495130643,1446495131663,911,372,0,0,0,2,1,1,3,0003-00-0000-10.png,0005-00-0001-25.png
00000014,525,1,1446495132644,1446495133403,293,420,0,0,0,3,4,1,7,0002-00-0001-99.png,0004-00-0000-78.png
00000014,526,1,1446495134471,1446495135165,384,471,0,0,0,0,1,1,1,0001-00-0000-46.png,0005-00-0000-84.png
00000014,527,0,1446495136210,1446495136815,357,446,0,0,0,3,2,1,5,0002-00-0000-28.png,0003-00-0000-20.png
00000014,528,0,1446495140058,1446495140986,895,498,0,0,0,1,2,1,3,0005-00-0001-59.png,0003-00-0001-38.png
00000014,529,0,1446495144131,1446495145044,870,392,0,0,0,1,2,1,3,0005-00-0000-50.png,0003-00-0000-83.png
00000014,530,0,1446495150150,1446495150771,328,379,0,0,0,3,2,1,5,0002-00-0000-48.png,0003-00-0000-53.png
00000014,531,0,1446495153951,1446495154825,951,412,0,0,0,3,4,1,7,0002-00-0001-72.png,0004-00-0001-29.png
00000014,532,1,1446495157906,1446495158704,938,398,0,0,0,1,0,1,1,0005-00-0000-50.png,0001-00-0001-13.png
00000014,533,1,1446495159627,1446495160686,403,393,0,0,0,2,3,1,5,0003-00-0000-73.png,0002-00-0000-89.png
00000014,534,0,1446495161656,1446495162359,894,389,0,0,0,0,1,1,1,0001-00-0001-05.png,0005-00-0001-40.png
00000014,535,1,1446495165539,1446495166324,926,423,0,0,0,4,3,1,7,0004-00-0001-41.png,0002-00-0001-17.png
00000014,536,0,1446495167329,1446495168020,325,398,0,0,0,2,1,1,3,0003-00-0001-78.png,0005-00-0001-24.png
00000014,537,1,1446495171079,1446495171732,875,371,0,0,0,4,3,1,7,0004-00-0001-84.png,0002-00-0001-56.png
00000014,538,0,1446495172657,1446495173642,904,405,0,0,0,1,2,1,3,0005-00-0001-66.png,0003-00-0001-35.png
00000014,539,1,1446495177044,1446495177939,902,417,0,0,0,2,1,1,3,0003-00-0000-77.png,0005-00-0001-88.png
00000014,540,1,1446495178957,1446495179709,357,437,0,0,0,0,1,1,1,0001-00-0001-41.png,0005-00-0001-38.png
00000014,541,0,1446495180787,1446495181620,381,422,0,0,0,3,2,1,5,0002-00-0001-10.png,0003-00-0001-39.png
00000014,542,1,1446495184979,1446495185747,888,397,0,0,0,1,0,1,1,0005-00-0001-39.png,0001-00-0000-01.png
00000014,543,0,1446495186779,1446495187445,895,453,0,0,0,3,4,1,7,0002-00-0001-42.png,0004-00-0000-33.png
00000014,544,0,1446495190295,1446495190999,926,398,0,0,0,2,3,1,5,0003-00-0001-30.png,0002-00-0001-85.png
00000014,545,1,1446495194024,1446495194897,873,457,0,0,0,1,0,1,1,0005-00-0000-80.png,0001-00-0001-84.png
00000014,546,0,1446495195864,1446495196414,355,423,0,0,0,3,2,1,5,0002-00-0000-17.png,0003-00-0000-55.png
00000014,547,0,1446495201835,1446495202402,376,528,0,0,0,4,3,1,7,0004-00-0000-13.png,0002-00-0000-50.png
00000014,548,1,1446495205851,1446495206722,291,375,0,0,0,3,4,1,7,0002-00-0000-08.png,0004-00-0001-82.png
00000014,549,1,1446495207724,1446495208437,325,401,0,0,0,1,2,1,3,0005-00-0000-36.png,0003-00-0000-81.png
00000014,550,0,1446495210033,1446495210618,921,446,0,0,0,2,3,1,5,0003-00-0001-17.png,0002-00-0001-73.png
00000014,551,0,1446495213733,1446495214532,355,381,0,0,0,2,1,1,3,0003-00-0000-40.png,0005-00-0001-46.png
00000014,552,1,1446495217740,1446495218303,376,393,0,0,0,0,1,1,1,0001-00-0000-86.png,0005-00-0000-43.png
00000014,553,0,1446495219376,1446495219907,862,526,0,0,0,2,3,1,5,0003-00-0000-58.png,0002-00-0001-17.png
00000014,554,0,1446495224655,1446495225329,324,405,0,0,0,2,1,1,3,0003-00-0001-82.png,0005-00-0000-63.png
00000014,555,1,1446495228362,1446495229021,401,384,0,0,0,1,2,1,3,0005-00-0000-56.png,0003-00-0001-05.png
00000014,556,1,1446495230019,1446495230703,350,462,0,0,0,0,1,1,1,0001-00-0001-90.png,0005-00-0000-16.png
00000014,557,0,1446495231767,1446495232665,329,404,0,0,0,3,2,1,5,0002-00-0000-97.png,0003-00-0000-50.png
00000014,558,1,1446495235607,1446495236491,904,506,0,0,0,1,0,1,1,0005-00-0001-68.png,0001-00-0000-00.png
00000014,559,0,1446495237476,1446495238447,879,506,0,0,0,3,4,1,7,0002-00-0000-06.png,0004-00-0000-12.png
00000014,560,1,1446495241412,1446495241916,896,400,0,0,0,4,3,1,7,0004-00-0001-17.png,0002-00-0000-69.png
00000014,561,1,1446495242913,1446495243697,380,424,0,0,0,0,1,1,1,0001-00-0000-07.png,0005-00-0001-54.png
00000014,562,0,1446495244814,1446495245733,331,391,0,0,0,4,3,1,7,0004-00-0001-71.png,0002-00-0001-70.png
00000014,563,1,1446495249137,1446495249961,898,382,0,0,0,2,1,1,3,0003-00-0000-10.png,0005-00-0001-46.png
00000014,564,0,1446495250985,1446495252002,343,396,0,0,0,3,2,1,5,0002-00-0000-33.png,0003-00-0001-34.png
00000014,565,0,1446495254923,1446495255587,949,405,0,0,0,3,4,1,7,0002-00-0001-42.png,0004-00-0000-69.png
00000014,566,1,1446495258559,1446495259440,952,435,0,0,0,1,0,1,1,0005-00-0000-60.png,0001-00-0000-62.png
00000014,567,0,1446495260423,1446495261373,901,395,0,0,0,1,2,1,3,0005-00-0001-06.png,0003-00-0000-91.png
00000014,568,0,1446495264418,1446495265050,926,410,0,0,0,2,3,1,5,0003-00-0000-19.png,0002-00-0001-15.png
00000014,569,0,1446495268257,1446495269362,371,488,0,0,0,2,1,1,3,0003-00-0001-43.png,0005-00-0001-62.png
00000014,570,1,1446495272912,1446495273494,344,423,0,0,0,1,2,1,3,0005-00-0001-95.png,0003-00-0000-00.png
00000014,571,1,1446495274519,1446495275195,338,443,0,0,0,0,1,1,1,0001-00-0001-74.png,0005-00-0001-89.png
00000014,572,0,1446495276200,1446495276873,357,428,0,0,0,3,2,1,5,0002-00-0001-70.png,0003-00-0000-48.png
00000014,573,1,1446495279798,1446495280579,324,369,0,0,0,3,4,1,7,0002-00-0001-82.png,0004-00-0001-36.png
00000014,574,1,1446495282010,1446495282465,901,450,0,0,0,1,0,1,1,0005-00-0000-96.png,0001-00-0001-34.png
00000014,575,0,1446495283432,1446495284354,325,389,0,0,0,4,3,1,7,0004-00-0000-43.png,0002-00-0001-13.png
00000014,576,0,1446495287501,1446495288230,927,423,0,0,0,2,3,1,5,0003-00-0000-14.png,0002-00-0000-21.png
00000014,577,1,1446495291071,1446495291733,359,413,0,0,0,0,1,1,1,0001-00-0001-26.png,0005-00-0001-09.png
00000014,578,1,1446495292809,1446495293751,369,415,0,0,0,1,2,1,3,0005-00-0001-03.png,0003-00-0001-08.png
00000014,579,0,1446495294852,1446495295424,897,433,0,0,0,2,3,1,5,0003-00-0001-83.png,0002-00-0001-55.png
00000014,580,0,1446495298532,1446495299125,352,410,0,0,0,3,2,1,5,0002-00-0001-00.png,0003-00-0000-06.png
00000014,581,1,1446495302118,1446495302905,926,410,0,0,0,2,1,1,3,0003-00-0001-67.png,0005-00-0001-18.png
00000014,582,1,1446495303937,1446495304898,904,415,0,0,0,4,3,1,7,0004-00-0001-57.png,0002-00-0001-55.png
00000014,583,1,1446495305969,1446495306618,896,446,0,0,0,1,0,1,1,0005-00-0000-37.png,0001-00-0000-82.png
00000014,584,0,1446495308069,1446495308586,864,522,0,0,0,3,4,1,7,0002-00-0000-67.png,0004-00-0001-93.png
00000014,585,0,1446495311762,1446495312612,901,398,0,0,0,3,4,1,7,0002-00-0000-54.png,0004-00-0001-08.png
00000014,586,0,1446495315957,1446495316694,904,401,0,0,0,0,1,1,1,0001-00-0001-85.png,0005-00-0001-26.png
00000014,587,0,1446495319802,1446495320534,357,359,0,0,0,2,1,1,3,0003-00-0000-97.png,0005-00-0001-00.png
00000014,588,0,1446495323826,1446495324352,905,401,0,0,0,2,3,1,5,0003-00-0000-42.png,0002-00-0001-81.png
00000014,589,0,1446495327939,1446495328974,375,376,0,0,0,4,3,1,7,0004-00-0001-09.png,0002-00-0001-03.png
00000014,590,0,1446495332354,1446495333067,401,399,0,0,0,1,0,1,1,0005-00-0000-44.png,0001-00-0000-79.png
00000014,591,1,1446495336130,1446495337015,402,370,0,0,0,1,2,1,3,0005-00-0000-81.png,0003-00-0000-62.png
00000014,592,0,1446495338020,1446495338799,395,524,0,0,0,3,2,1,5,0002-00-0000-18.png,0003-00-0000-08.png
00000014,593,1,1446495342293,1446495342974,338,363,0,0,0,3,4,1,7,0002-00-0000-94.png,0004-00-0001-06.png
00000014,594,1,1446495343953,1446495345039,896,446,0,0,0,4,3,1,7,0004-00-0001-52.png,0002-00-0000-82.png
00000014,595,1,1446495346002,1446495346726,345,441,0,0,0,0,1,1,1,0001-00-0000-44.png,0005-00-0001-22.png
00000014,596,0,1446495347807,1446495348789,888,423,0,0,0,2,3,1,5,0003-00-0001-48.png,0002-00-0001-39.png
00000014,597,0,1446495352283,1446495352958,349,421,0,0,0,3,2,1,5,0002-00-0000-79.png,0003-00-0001-97.png
00000014,598,1,1446495357689,1446495358311,925,465,0,0,0,1,0,1,1,0005-00-0001-02.png,0001-00-0000-62.png
00000014,599,1,1446495359657,1446495360440,387,449,0,0,0,1,2,1,3,0005-00-0000-74.png,0003-00-0001-40.png
00000014,600,1,1446495361557,1446495362342,873,423,0,0,0,2,1,1,3,0003-00-0001-85.png,0005-00-0001-03.png
00000014,601,1,1446495363490,1446495364419,888,458,0,0,0,2,1,1,3,0003-00-0001-21.png,0005-00-0000-17.png
00000014,602,1,1446495365514,1446495366138,371,467,0,0,0,3,4,1,7,0002-00-0000-40.png,0004-00-0000-32.png
00000014,603,1,1446495367254,1446495368164,869,394,0,0,0,1,0,1,1,0005-00-0001-21.png,0001-00-0000-15.png
00000014,604,0,1446495369167,1446495369911,869,393,0,0,0,2,3,1,5,0003-00-0001-40.png,0002-00-0001-29.png
00000014,605,1,1446495372765,1446495373311,375,392,0,0,0,1,2,1,3,0005-00-0000-78.png,0003-00-0000-66.png
00000014,606,1,1446495374503,1446495375039,356,463,0,0,0,0,1,1,1,0001-00-0000-28.png,0005-00-0000-68.png
00000014,607,0,1446495376095,1446495376816,381,453,0,0,0,3,2,1,5,0002-00-0000-20.png,0003-00-0000-04.png
00000014,608,1,1446495380241,1446495381050,944,450,0,0,0,4,3,1,7,0004-00-0001-35.png,0002-00-0001-32.png
00000014,609,1,1446495382554,1446495383292,381,385,0,0,0,0,1,1,1,0001-00-0000-88.png,0005-00-0001-29.png
00000014,610,0,1446495384535,1446495385308,895,445,0,0,0,2,3,1,5,0003-00-0001-60.png,0002-00-0000-86.png
00000014,611,0,1446495388262,1446495388826,325,449,0,0,0,4,3,1,7,0004-00-0000-14.png,0002-00-0001-78.png
00000014,612,1,1446495391869,1446495392943,406,350,0,0,0,1,2,1,3,0005-00-0001-50.png,0003-00-0000-38.png
00000014,613,0,1446495394003,1446495394618,330,432,0,0,0,3,2,1,5,0002-00-0000-32.png,0003-00-0000-72.png
00000014,614,0,1446495398182,1446495399074,381,394,0,0,0,1,0,1,1,0005-00-0000-26.png,0001-00-0000-02.png
00000014,615,1,1446495402098,1446495402777,905,428,0,0,0,2,1,1,3,0003-00-0001-73.png,0005-00-0000-78.png
00000014,616,1,1446495403787,1446495404900,327,400,0,0,0,3,4,1,7,0002-00-0001-18.png,0004-00-0000-70.png
00000014,617,0,1446495406380,1446495407020,864,414,0,0,0,2,3,1,5,0003-00-0000-74.png,0002-00-0001-83.png
00000014,618,0,1446495410125,1446495410735,378,409,0,0,0,3,2,1,5,0002-00-0000-43.png,0003-00-0000-61.png
00000014,619,0,1446495413666,1446495414635,926,378,0,0,0,3,4,1,7,0002-00-0001-94.png,0004-00-0001-90.png
00000014,620,1,1446495417621,1446495418562,350,384,0,0,0,1,2,1,3,0005-00-0001-45.png,0003-00-0000-22.png
00000014,621,0,1446495419572,1446495420481,342,416,0,0,0,2,1,1,3,0003-00-0000-42.png,0005-00-0001-76.png
00000014,622,0,1446495423627,1446495424403,351,400,0,0,0,4,3,1,7,0004-00-0000-12.png,0002-00-0000-46.png
00000014,623,1,1446495427651,1446495428466,916,428,0,0,0,1,0,1,1,0005-00-0000-14.png,0001-00-0001-27.png
00000014,624,1,1446495430026,1446495430869,382,400,0,0,0,0,1,1,1,0001-00-0000-93.png,0005-00-0001-60.png
00000014,625,0,1446495432071,1446495432746,306,426,0,0,0,3,2,1,5,0002-00-0000-82.png,0003-00-0001-17.png
00000014,626,0,1446495435992,1446495436774,418,429,0,0,0,2,1,1,3,0003-00-0001-25.png,0005-00-0001-93.png
00000014,627,1,1446495439602,1446495440426,889,501,0,0,0,1,0,1,1,0005-00-0000-06.png,0001-00-0001-98.png
00000014,628,0,1446495441476,1446495442208,327,443,0,0,0,4,3,1,7,0004-00-0000-48.png,0002-00-0001-66.png
00000014,629,1,1446495445331,1446495446189,377,408,0,0,0,3,4,1,7,0002-00-0000-27.png,0004-00-0001-25.png
00000014,630,1,1446495447251,1446495447972,357,447,0,0,0,0,1,1,1,0001-00-0000-24.png,0005-00-0001-81.png
00000014,631,0,1446495449041,1446495449624,857,407,0,0,0,2,3,1,5,0003-00-0001-73.png,0002-00-0001-75.png
00000014,632,1,1446495452786,1446495453813,376,410,0,0,0,1,2,1,3,0005-00-0001-73.png,0003-00-0001-60.png
00000014,633,0,1446495454824,1446495455615,912,424,0,0,0,2,3,1,5,0003-00-0000-36.png,0002-00-0000-35.png
00000014,634,1,1446495458761,1446495459485,379,402,0,0,0,1,2,1,3,0005-00-0001-00.png,0003-00-0000-59.png
00000014,635,1,1446495460639,1446495461424,887,472,0,0,0,2,1,1,3,0003-00-0001-64.png,0005-00-0001-97.png
00000014,636,0,1446495462576,1446495463325,350,449,0,0,0,3,2,1,5,0002-00-0001-93.png,0003-00-0000-04.png
00000014,637,1,1446495466720,1446495467655,939,397,0,0,0,1,0,1,1,0005-00-0001-74.png,0001-00-0000-40.png
00000014,638,1,1446495468737,1446495469333,350,423,0,0,0,0,1,1,1,0001-00-0000-30.png,0005-00-0001-82.png
00000014,639,1,1446495470460,1446495471288,314,431,0,0,0,3,4,1,7,0002-00-0001-46.png,0004-00-0000-33.png
00000014,640,0,1446495472364,1446495472991,330,413,0,0,0,4,3,1,7,0004-00-0000-14.png,0002-00-0001-61.png
00000014,641,1,1446495476032,1446495476696,349,381,0,0,0,2,3,1,5,0003-00-0001-59.png,0002-00-0001-33.png
00000014,642,1,1446495477705,1446495478846,318,402,0,0,0,3,4,1,7,0002-00-0000-28.png,0004-00-0001-24.png
00000014,643,1,1446495479903,1446495481031,899,412,0,0,0,2,1,1,3,0003-00-0001-02.png,0005-00-0001-10.png
00000014,644,1,1446495481980,1446495482795,875,424,0,0,0,1,0,1,1,0005-00-0001-66.png,0001-00-0000-66.png
00000014,645,0,1446495483789,1446495484752,873,517,0,0,0,1,2,1,3,0005-00-0001-15.png,0003-00-0000-88.png
00000014,646,1,1446495487884,1446495488399,376,488,0,0,0,0,1,1,1,0001-00-0001-39.png,0005-00-0000-74.png
00000014,647,0,1446495489404,1446495490071,335,433,0,0,0,3,2,1,5,0002-00-0001-12.png,0003-00-0001-91.png
00000014,648,0,1446495493052,1446495493768,361,402,0,0,0,4,3,1,7,0004-00-0000-16.png,0002-00-0000-52.png
00000014,649,0,1446495497159,1446495497982,939,425,0,0,0,2,3,1,5,0003-00-0001-19.png,0002-00-0001-34.png
00000014,650,1,1446495500984,1446495501598,365,410,0,0,0,3,4,1,7,0002-00-0000-03.png,0004-00-0000-76.png
00000014,651,1,1446495502615,1446495503225,354,418,0,0,0,0,1,1,1,0001-00-0001-44.png,0005-00-0000-24.png
00000014,652,0,1446495504286,1446495505015,376,449,0,0,0,3,2,1,5,0002-00-0001-10.png,0003-00-0000-28.png
00000014,653,1,1446495508101,1446495508937,888,526,0,0,0,1,0,1,1,0005-00-0001-96.png,0001-00-0001-22.png
00000014,654,1,1446495509967,1446495510851,900,397,0,0,0,2,1,1,3,0003-00-0000-84.png,0005-00-0001-25.png
00000014,655,1,1446495512156,1446495513099,334,388,0,0,0,1,2,1,3,0005-00-0001-30.png,0003-00-0000-55.png
00000014,656,1,1446495514112,1446495515206,899,398,0,0,0,4,3,1,7,0004-00-0001-45.png,0002-00-0001-44.png
00000014,657,1,1446495516342,1446495517056,888,400,0,0,0,4,3,1,7,0004-00-0000-41.png,0002-00-0001-49.png
00000014,658,0,1446495518160,1446495518766,896,446,0,0,0,3,4,1,7,0002-00-0000-22.png,0004-00-0001-29.png
00000014,659,0,1446495521665,1446495522693,902,493,0,0,0,2,3,1,5,0003-00-0001-19.png,0002-00-0001-34.png
00000014,660,0,1446495525606,1446495526186,326,392,0,0,0,2,1,1,3,0003-00-0001-09.png,0005-00-0000-44.png
00000014,661,1,1446495529506,1446495530415,328,378,0,0,0,0,1,1,1,0001-00-0001-19.png,0005-00-0000-51.png
00000014,662,0,1446495531500,1446495532552,898,409,0,0,0,1,2,1,3,0005-00-0000-07.png,0003-00-0000-18.png
00000014,663,0,1446495535526,1446495536087,338,503,0,0,0,3,2,1,5,0002-00-0001-49.png,0003-00-0001-37.png
00000014,664,1,1446495539083,1446495539904,931,376,0,0,0,1,0,1,1,0005-00-0001-71.png,0001-00-0001-70.png
00000014,665,1,1446495540990,1446495541636,325,423,0,0,0,3,4,1,7,0002-00-0001-36.png,0004-00-0001-28.png
00000014,666,1,1446495542722,1446495543715,872,432,0,0,0,4,3,1,7,0004-00-0001-62.png,0002-00-0000-35.png
00000014,667,1,1446495544766,1446495545738,368,411,0,0,0,2,3,1,5,0003-00-0001-46.png,0002-00-0001-72.png
00000014,668,1,1446495546855,1446495547549,333,449,0,0,0,0,1,1,1,0001-00-0001-17.png,0005-00-0001-00.png
00000014,669,1,1446495548704,1446495549826,877,420,0,0,0,2,1,1,3,0003-00-0001-11.png,0005-00-0001-83.png
00000014,670,1,1446495550860,1446495551556,382,445,0,0,0,1,2,1,3,0005-00-0001-41.png,0003-00-0001-60.png
00000014,671,0,1446495552781,1446495553412,398,445,0,0,0,1,0,1,1,0005-00-0001-37.png,0001-00-0000-62.png
00000014,672,0,1446495556397,1446495557008,363,528,0,0,0,3,2,1,5,0002-00-0001-53.png,0003-00-0001-13.png
00000014,673,0,1446495560213,1446495560871,381,409,0,0,0,3,2,1,5,0002-00-0001-57.png,0003-00-0000-49.png
00000014,674,1,1446495565023,1446495565745,325,379,0,0,0,3,4,1,7,0002-00-0001-58.png,0004-00-0000-45.png
00000014,675,0,1446495566757,1446495567837,391,523,0,0,0,4,3,1,7,0004-00-0001-76.png,0002-00-0000-87.png
00000014,676,0,1446495570937,1446495571847,361,368,0,0,0,2,1,1,3,0003-00-0000-61.png,0005-00-0000-51.png
00000014,677,0,1446495575120,1446495576024,407,364,0,0,0,1,0,1,1,0005-00-0001-90.png,0001-00-0001-57.png
00000014,678,1,1446495579018,1446495579539,344,413,0,0,0,0,1,1,1,0001-00-0001-96.png,0005-00-0001-38.png
00000014,679,0,1446495580528,1446495581214,878,402,0,0,0,2,3,1,5,0003-00-0001-33.png,0002-00-0000-73.png
00000014,680,0,1446495584085,1446495584840,909,365,0,0,0,1,2,1,3,0005-00-0000-95.png,0003-00-0000-69.png
00000014,681,0,1446495587760,1446495588382,900,387,0,0,0,2,3,1,5,0003-00-0001-26.png,0002-00-0001-84.png
00000014,682,0,1446495591588,1446495592115,884,386,0,0,0,3,4,1,7,0002-00-0000-60.png,0004-00-0000-54.png
00000014,683,1,1446495595046,1446495595639,299,425,0,0,0,1,2,1,3,0005-00-0001-54.png,0003-00-0001-34.png
00000014,684,0,1446495596600,1446495597498,335,529,0,0,0,4,3,1,7,0004-00-0000-81.png,0002-00-0000-53.png
00000014,685,1,1446495600384,1446495601132,310,372,0,0,0,0,1,1,1,0001-00-0001-11.png,0005-00-0001-35.png
00000014,686,0,1446495602184,1446495602949,384,471,0,0,0,3,2,1,5,0002-00-0001-93.png,0003-00-0000-55.png
00000014,687,0,1446495606017,1446495607060,435,418,0,0,0,1,0,1,1,0005-00-0001-20.png,0001-00-0001-31.png
00000014,688,0,1446495610232,1446495610848,351,417,0,0,0,2,1,1,3,0003-00-0000-98.png,0005-00-0001-09.png
00000014,689,0,1446495613923,1446495614914,920,420,0,0,0,3,4,1,7,0002-00-0001-80.png,0004-00-0000-09.png
00000014,690,0,1446495617766,1446495618645,864,369,0,0,0,1,2,1,3,0005-00-0001-68.png,0003-00-0000-12.png
00000014,691,1,1446495621883,1446495622780,376,343,0,0,0,2,3,1,5,0003-00-0001-80.png,0002-00-0001-82.png
00000014,692,1,1446495623830,1446495624774,881,397,0,0,0,2,1,1,3,0003-00-0000-34.png,0005-00-0000-41.png
00000014,693,1,1446495625746,1446495626379,311,453,0,0,0,0,1,1,1,0001-00-0001-27.png,0005-00-0000-35.png
00000014,694,1,1446495627409,1446495628840,899,431,0,0,0,1,0,1,1,0005-00-0000-90.png,0001-00-0001-64.png
00000014,695,0,1446495629762,1446495630419,378,544,0,0,0,4,3,1,7,0004-00-0000-09.png,0002-00-0001-37.png
00000014,696,0,1446495633990,1446495634516,332,414,0,0,0,3,2,1,5,0002-00-0000-98.png,0003-00-0001-87.png
00000014,697,1,1446495637408,1446495638129,376,436,0,0,0,1,2,1,3,0005-00-0000-08.png,0003-00-0000-24.png
00000014,698,0,1446495639127,1446495639738,388,476,0,0,0,3,2,1,5,0002-00-0001-30.png,0003-00-0001-34.png
00000014,699,0,1446495642982,1446495643479,357,419,0,0,0,2,1,1,3,0003-00-0000-77.png,0005-00-0000-62.png
00000014,700,0,1446495646715,1446495647433,888,396,0,0,0,3,4,1,7,0002-00-0001-57.png,0004-00-0000-23.png
00000014,701,1,1446495650542,1446495651481,382,369,0,0,0,0,1,1,1,0001-00-0001-85.png,0005-00-0000-19.png
00000014,702,0,1446495652415,1446495653129,900,450,0,0,0,2,3,1,5,0003-00-0000-78.png,0002-00-0001-63.png
00000014,703,0,1446495656322,1446495656983,363,398,0,0,0,4,3,1,7,0004-00-0000-23.png,0002-00-0000-18.png
00000014,704,1,1446495660143,1446495661046,982,401,0,0,0,1,0,1,1,0005-00-0000-60.png,0001-00-0000-58.png
00000014,705,1,1446495662070,1446495663066,877,369,0,0,0,4,3,1,7,0004-00-0001-54.png,0002-00-0000-46.png
00000014,706,0,1446495664152,1446495665134,345,426,0,0,0,2,1,1,3,0003-00-0000-61.png,0005-00-0001-36.png
00000014,707,1,1446495668069,1446495669050,404,376,0,0,0,0,1,1,1,0001-00-0001-81.png,0005-00-0001-47.png
00000014,708,0,1446495670086,1446495670912,901,423,0,0,0,2,3,1,5,0003-00-0001-67.png,0002-00-0001-42.png
00000014,709,1,1446495674082,1446495674794,927,416,0,0,0,1,0,1,1,0005-00-0001-20.png,0001-00-0001-89.png
00000014,710,0,1446495675791,1446495676710,895,404,0,0,0,1,2,1,3,0005-00-0001-39.png,0003-00-0000-79.png
00000014,711,0,1446495679877,1446495680646,295,402,0,0,0,3,2,1,5,0002-00-0000-36.png,0003-00-0000-79.png
00000014,712,1,1446495683928,1446495684784,318,351,0,0,0,3,4,1,7,0002-00-0001-81.png,0004-00-0000-46.png
00000014,713,1,1446495685870,1446495686764,903,439,0,0,0,4,3,1,7,0004-00-0000-64.png,0002-00-0000-86.png
00000014,714,0,1446495687787,1446495688495,345,445,0,0,0,3,2,1,5,0002-00-0001-63.png,0003-00-0000-80.png
00000014,715,0,1446495691685,1446495692486,911,376,0,0,0,2,3,1,5,0003-00-0000-61.png,0002-00-0001-44.png
00000014,716,0,1446495695413,1446495695437,510,453,0,0,0,2,1,1,3,0003-00-0000-33.png,0005-00-0001-41.png
00000014,717,1,1446495698294,1446495699157,951,411,0,0,0,1,0,1,1,0005-00-0000-39.png,0001-00-0001-16.png
00000014,718,1,1446495700144,1446495701076,331,421,0,0,0,3,4,1,7,0002-00-0000-07.png,0004-00-0001-52.png
00000014,719,1,1446495702113,1446495702742,380,546,0,0,0,0,1,1,1,0001-00-0001-64.png,0005-00-0001-31.png
00000014,720,1,1446495703813,1446495704715,417,521,0,0,0,1,2,1,3,0005-00-0000-73.png,0003-00-0000-43.png
00000014,721,0,1446495705681,1446495706373,371,446,0,0,0,3,2,1,5,0002-00-0001-59.png,0003-00-0001-95.png
00000014,722,0,1446495709876,1446495710459,905,400,0,0,0,2,3,1,5,0003-00-0001-27.png,0002-00-0000-80.png
00000014,723,0,1446495713975,1446495714521,335,410,0,0,0,4,3,1,7,0004-00-0001-22.png,0002-00-0001-77.png
00000014,724,1,1446495717615,1446495718276,350,410,0,0,0,1,2,1,3,0005-00-0000-48.png,0003-00-0000-16.png
00000014,725,1,1446495719754,1446495720476,900,424,0,0,0,1,0,1,1,0005-00-0001-61.png,0001-00-0001-85.png
00000014,726,0,1446495721350,1446495722245,401,436,0,0,0,2,1,1,3,0003-00-0000-85.png,0005-00-0001-59.png
00000014,727,1,1446495725227,1446495725701,354,406,0,0,0,0,1,1,1,0001-00-0001-97.png,0005-00-0001-37.png
00000014,728,1,1446495726689,1446495727411,340,451,0,0,0,3,4,1,7,0002-00-0000-63.png,0004-00-0000-01.png
00000014,729,1,1446495728458,1446495729275,401,462,0,0,0,1,2,1,3,0005-00-0001-33.png,0003-00-0001-11.png
00000014,730,0,1446495730306,1446495730970,376,427,0,0,0,3,2,1,5,0002-00-0001-11.png,0003-00-0001-68.png
00000014,731,1,1446495733823,1446495734475,905,401,0,0,0,1,0,1,1,0005-00-0000-00.png,0001-00-0001-35.png
00000014,732,0,1446495735485,1446495736885,888,450,0,0,0,0,1,1,1,0001-00-0000-94.png,0005-00-0001-83.png
00000014,733,0,1446495741931,1446495742536,925,429,0,0,0,3,4,1,7,0002-00-0000-90.png,0004-00-0000-42.png
00000014,734,1,1446495746024,1446495746728,923,438,0,0,0,4,3,1,7,0004-00-0000-72.png,0002-00-0001-53.png
00000014,735,0,1446495747680,1446495748347,900,449,0,0,0,2,3,1,5,0003-00-0000-47.png,0002-00-0001-64.png
00000014,736,1,1446495751339,1446495752110,925,385,0,0,0,2,1,1,3,0003-00-0001-89.png,0005-00-0001-20.png
00000014,737,0,1446495753325,1446495753898,335,423,0,0,0,3,2,1,5,0002-00-0001-02.png,0003-00-0000-65.png
00000014,738,0,1446495757401,1446495757912,369,539,0,0,0,2,1,1,3,0003-00-0000-62.png,0005-00-0001-45.png
00000014,739,1,1446495762964,1446495763524,318,447,0,0,0,1,2,1,3,0005-00-0001-63.png,0003-00-0000-48.png
00000014,740,0,1446495764683,1446495765408,886,467,0,0,0,3,4,1,7,0002-00-0000-89.png,0004-00-0000-04.png
00000014,741,1,1446495769566,1446495770098,311,436,0,0,0,0,1,1,1,0001-00-0000-81.png,0005-00-0001-53.png
00000014,742,0,1446495771472,1446495773121,312,410,0,0,0,1,0,1,1,0005-00-0001-64.png,0001-00-0001-53.png
00000014,743,1,1446495777495,1446495778179,937,450,0,0,0,4,3,1,7,0004-00-0001-66.png,0002-00-0001-81.png
00000014,744,0,1446495779345,1446495780206,895,441,0,0,0,2,3,1,5,0003-00-0000-29.png,0002-00-0000-90.png
00000014,745,1,1446495783480,1446495784164,365,549,0,0,0,0,1,1,1,0001-00-0000-16.png,0005-00-0001-72.png
00000014,746,0,1446495785129,1446495785827,919,457,0,0,0,2,3,1,5,0003-00-0001-60.png,0002-00-0001-18.png
00000014,747,1,1446495790218,1446495790841,334,426,0,0,0,3,4,1,7,0002-00-0001-73.png,0004-00-0001-48.png
00000014,748,1,1446495791898,1446495792736,927,423,0,0,0,1,0,1,1,0005-00-0001-08.png,0001-00-0001-54.png
00000014,749,1,1446495793765,1446495794473,401,436,0,0,0,1,2,1,3,0005-00-0000-36.png,0003-00-0001-91.png
00000014,750,1,1446495795515,1446495796362,874,524,0,0,0,2,1,1,3,0003-00-0000-36.png,0005-00-0001-30.png
00000014,751,1,1446495797303,1446495798096,928,410,0,0,0,4,3,1,7,0004-00-0000-86.png,0002-00-0000-61.png
00000014,752,0,1446495799064,1446495799626,355,429,0,0,0,3,2,1,5,0002-00-0000-93.png,0003-00-0001-31.png
00000014,753,0,1446495803167,1446495803924,946,446,0,0,0,3,4,1,7,0002-00-0000-51.png,0004-00-0000-09.png
00000014,754,0,1446495808368,1446495808894,355,431,0,0,0,3,2,1,5,0002-00-0001-75.png,0003-00-0000-67.png
00000014,755,1,1446495812963,1446495813787,391,409,0,0,0,1,2,1,3,0005-00-0000-62.png,0003-00-0001-41.png
00000014,756,1,1446495817679,1446495818252,307,452,0,0,0,0,1,1,1,0001-00-0001-99.png,0005-00-0000-54.png
00000014,757,0,1446495819800,1446495820378,910,413,0,0,0,2,3,1,5,0003-00-0000-40.png,0002-00-0000-01.png
00000014,758,1,1446495823289,1446495823990,881,512,0,0,0,4,3,1,7,0004-00-0001-46.png,0002-00-0000-84.png
00000014,759,1,1446495825050,1446495826011,931,402,0,0,0,2,1,1,3,0003-00-0001-14.png,0005-00-0000-25.png
00000014,760,0,1446495826972,1446495828459,362,371,0,0,0,1,0,1,1,0005-00-0001-21.png,0001-00-0000-02.png
00000014,761,1,1446495832297,1446495832936,888,465,0,0,0,4,3,1,7,0004-00-0001-85.png,0002-00-0000-25.png
00000014,762,1,1446495834076,1446495834785,375,445,0,0,0,0,1,1,1,0001-00-0000-05.png,0005-00-0001-08.png
00000014,763,0,1446495836074,1446495836994,875,475,0,0,0,1,2,1,3,0005-00-0000-01.png,0003-00-0001-21.png
00000014,764,0,1446495840235,1446495840782,351,449,0,0,0,3,2,1,5,0002-00-0000-13.png,0003-00-0001-15.png
00000014,765,1,1446495843816,1446495844542,899,490,0,0,0,2,1,1,3,0003-00-0001-89.png,0005-00-0001-05.png
00000014,766,0,1446495845474,1446495846887,875,450,0,0,0,2,3,1,5,0003-00-0000-93.png,0002-00-0001-83.png
00000014,767,1,1446495849865,1446495850552,950,397,0,0,0,1,0,1,1,0005-00-0001-27.png,0001-00-0000-67.png
00000014,768,1,1446495851498,1446495852449,325,423,0,0,0,3,4,1,7,0002-00-0000-47.png,0004-00-0000-88.png
00000014,769,0,1446495853687,1446495854371,862,410,0,0,0,2,3,1,5,0003-00-0000-39.png,0002-00-0001-27.png
00000014,770,0,1446495857332,1446495857786,357,391,0,0,0,3,2,1,5,0002-00-0000-84.png,0003-00-0001-78.png
00000014,771,1,1446495860963,1446495861896,947,394,0,0,0,2,1,1,3,0003-00-0000-81.png,0005-00-0000-10.png
00000014,772,1,1446495862853,1446495864064,924,431,0,0,0,4,3,1,7,0004-00-0000-78.png,0002-00-0001-63.png
00000014,773,1,1446495864967,1446495865700,350,462,0,0,0,3,4,1,7,0002-00-0001-88.png,0004-00-0000-64.png
00000014,774,0,1446495866716,1446495867591,381,436,0,0,0,1,0,1,1,0005-00-0000-04.png,0001-00-0001-83.png
00000014,775,1,1446495870468,1446495871037,329,407,0,0,0,1,2,1,3,0005-00-0000-59.png,0003-00-0000-09.png
00000014,776,1,1446495872049,1446495872632,356,435,0,0,0,0,1,1,1,0001-00-0001-99.png,0005-00-0001-45.png
00000014,777,1,1446495873662,1446495874475,897,406,0,0,0,4,3,1,7,0004-00-0000-66.png,0002-00-0000-60.png
00000014,778,1,1446495875531,1446495876353,875,528,0,0,0,1,0,1,1,0005-00-0001-33.png,0001-00-0001-39.png
00000014,779,1,1446495877407,1446495878242,897,412,0,0,0,2,1,1,3,0003-00-0001-45.png,0005-00-0000-01.png
00000014,780,1,1446495879219,1446495880247,382,418,0,0,0,1,2,1,3,0005-00-0000-28.png,0003-00-0001-80.png
00000014,781,1,1446495881278,1446495882767,321,420,0,0,0,0,1,1,1,0001-00-0000-33.png,0005-00-0001-75.png
00000014,782,0,1446495883822,1446495884659,873,409,0,0,0,2,3,1,5,0003-00-0000-64.png,0002-00-0001-29.png
00000014,783,0,1446495887984,1446495888676,351,391,0,0,0,3,2,1,5,0002-00-0000-62.png,0003-00-0000-07.png
00000014,784,1,1446495891820,1446495892395,336,399,0,0,0,3,4,1,7,0002-00-0000-40.png,0004-00-0001-67.png
00000014,785,0,1446495893517,1446495894204,328,473,0,0,0,4,3,1,7,0004-00-0000-24.png,0002-00-0000-73.png
00000014,786,0,1446495897396,1446495898289,951,422,0,0,0,2,3,1,5,0003-00-0000-67.png,0002-00-0001-33.png
00000014,787,1,1446495901411,1446495902130,372,393,0,0,0,1,2,1,3,0005-00-0001-60.png,0003-00-0001-48.png
00000014,788,1,1446495903211,1446495904225,376,416,0,0,0,3,4,1,7,0002-00-0001-69.png,0004-00-0000-20.png
00000014,789,1,1446495905278,1446495906065,875,397,0,0,0,1,0,1,1,0005-00-0001-40.png,0001-00-0000-15.png
00000014,790,1,1446495907038,1446495908046,878,389,0,0,0,2,1,1,3,0003-00-0001-58.png,0005-00-0000-29.png
00000014,791,0,1446495909220,1446495909840,354,416,0,0,0,3,2,1,5,0002-00-0001-60.png,0003-00-0001-86.png
00000014,792,1,1446495912933,1446495913567,360,374,0,0,0,0,1,1,1,0001-00-0000-11.png,0005-00-0001-92.png
00000014,793,0,1446495914620,1446495915264,335,396,0,0,0,4,3,1,7,0004-00-0001-10.png,0002-00-0001-85.png
00000014,794,0,1446495918542,1446495919213,346,393,0,0,0,1,0,1,1,0005-00-0001-94.png,0001-00-0001-68.png
00000014,795,0,1446495922148,1446495923212,431,377,0,0,0,2,1,1,3,0003-00-0000-81.png,0005-00-0000-00.png
00000014,796,0,1446495926214,1446495926230,514,488,0,0,0,3,2,1,5,0002-00-0001-55.png,0003-00-0001-59.png
00000014,797,1,1446495929320,1446495930050,375,528,0,0,0,0,1,1,1,0001-00-0000-07.png,0005-00-0000-84.png
00000014,798,0,1446495931142,1446495931981,888,398,0,0,0,1,2,1,3,0005-00-0001-89.png,0003-00-0001-82.png
00000014,799,0,1446495935482,1446495936150,892,381,0,0,0,2,3,1,5,0003-00-0001-67.png,0002-00-0000-99.png
00000014,800,1,1446495939570,1446495940571,372,366,0,0,0,3,4,1,7,0002-00-0001-08.png,0004-00-0000-62.png
00000014,801,0,1446495941663,1446495942740,923,440,0,0,0,1,2,1,3,0005-00-0001-46.png,0003-00-0001-00.png
00000014,802,1,1446495946130,1446495946684,365,407,0,0,0,0,1,1,1,0001-00-0000-69.png,0005-00-0001-19.png
00000014,803,0,1446495947711,1446495948597,305,393,0,0,0,4,3,1,7,0004-00-0000-35.png,0002-00-0001-99.png
00000014,804,1,1446495951927,1446495952698,919,385,0,0,0,3,2,1,5,0002-00-0000-18.png,0003-00-0001-00.png
00000014,805,0,1446495953844,1446495955005,349,409,0,0,0,1,0,1,1,0005-00-0001-08.png,0001-00-0001-68.png
00000014,806,0,1446495958007,1446495958671,364,499,0,0,0,2,1,1,3,0003-00-0000-97.png,0005-00-0001-46.png
00000014,807,1,1446495961854,1446495962585,355,411,0,0,0,3,4,1,7,0002-00-0000-30.png,0004-00-0001-85.png
00000014,808,0,1446495963719,1446495964434,914,423,0,0,0,2,3,1,5,0003-00-0000-25.png,0002-00-0000-83.png
00000014,809,1,1446495967645,1446495968619,405,393,0,0,0,0,1,1,1,0001-00-0001-81.png,0005-00-0000-31.png
00000014,810,0,1446495969712,1446495971113,338,389,0,0,0,3,2,1,5,0002-00-0001-92.png,0003-00-0000-13.png
00000014,811,1,1446495974319,1446495975057,938,398,0,0,0,1,0,1,1,0005-00-0000-05.png,0001-00-0001-05.png
00000014,812,0,1446495976155,1446495977029,893,415,0,0,0,1,2,1,3,0005-00-0000-92.png,0003-00-0001-13.png
00000014,813,0,1446495980688,1446495981459,928,440,0,0,0,2,3,1,5,0003-00-0001-65.png,0002-00-0001-16.png
00000014,814,1,1446495995433,1446495995901,337,456,0,0,0,3,4,1,7,0002-00-0001-21.png,0004-00-0001-53.png
00000014,815,0,1446495997126,1446495997879,357,407,0,0,0,2,1,1,3,0003-00-0001-03.png,0005-00-0001-50.png
00000014,816,1,1446496001221,1446496001939,876,424,0,0,0,4,3,1,7,0004-00-0001-75.png,0002-00-0001-29.png
00000014,817,0,1446496003051,1446496004016,901,423,0,0,0,0,1,1,1,0001-00-0000-50.png,0005-00-0000-77.png
00000014,818,0,1446496007125,1446496007735,342,383,0,0,0,3,2,1,5,0002-00-0001-54.png,0003-00-0001-85.png
00000014,819,1,1446496013516,1446496013950,376,462,0,0,0,1,2,1,3,0005-00-0001-09.png,0003-00-0001-64.png
00000014,820,0,1446496015772,1446496016527,898,492,0,0,0,3,4,1,7,0002-00-0000-90.png,0004-00-0000-31.png
00000014,821,0,1446496019367,1446496019885,926,410,0,0,0,2,3,1,5,0003-00-0001-05.png,0002-00-0000-69.png
00000014,822,1,1446496022907,1446496023608,915,358,0,0,0,1,0,1,1,0005-00-0000-51.png,0001-00-0001-79.png
00000014,823,0,1446496024866,1446496025767,419,548,0,0,0,2,1,1,3,0003-00-0001-95.png,0005-00-0001-80.png
00000014,824,1,1446496029046,1446496029716,912,398,0,0,0,4,3,1,7,0004-00-0001-59.png,0002-00-0000-49.png
00000014,825,1,1446496031248,1446496031987,883,442,0,0,0,2,1,1,3,0003-00-0000-42.png,0005-00-0000-77.png
00000014,826,0,1446496033005,1446496033776,381,379,0,0,0,4,3,1,7,0004-00-0001-61.png,0002-00-0001-84.png
00000014,827,1,1446496036665,1446496037558,874,393,0,0,0,1,0,1,1,0005-00-0000-70.png,0001-00-0000-83.png
00000014,828,0,1446496038696,1446496039453,897,460,0,0,0,1,2,1,3,0005-00-0001-56.png,0003-00-0000-13.png
00000014,829,1,1446496042768,1446496043550,370,405,0,0,0,0,1,1,1,0001-00-0001-68.png,0005-00-0000-71.png
00000014,830,0,1446496044727,1446496045684,901,521,0,0,0,2,3,1,5,0003-00-0001-01.png,0002-00-0001-67.png
00000014,831,1,1446496048629,1446496049460,345,387,0,0,0,3,4,1,7,0002-00-0000-43.png,0004-00-0001-71.png
00000014,832,0,1446496051014,1446496051678,333,442,0,0,0,3,2,1,5,0002-00-0000-29.png,0003-00-0001-61.png
00000014,833,1,1446496055029,1446496056013,904,415,0,0,0,1,0,1,1,0005-00-0001-35.png,0001-00-0000-64.png
00000014,834,1,1446496057158,1446496058326,395,541,0,0,0,0,1,1,1,0001-00-0000-08.png,0005-00-0000-29.png
00000014,835,0,1446496059563,1446496060441,388,530,0,0,0,4,3,1,7,0004-00-0000-30.png,0002-00-0001-77.png
00000014,836,1,1446496064159,1446496064952,313,410,0,0,0,1,2,1,3,0005-00-0000-71.png,0003-00-0001-30.png
00000014,837,1,1446496066045,1446496066830,900,412,0,0,0,2,1,1,3,0003-00-0001-33.png,0005-00-0000-60.png
00000014,838,1,1446496067911,1446496068597,299,449,0,0,0,3,4,1,7,0002-00-0001-46.png,0004-00-0000-71.png
00000014,839,0,1446496069718,1446496070590,875,410,0,0,0,2,3,1,5,0003-00-0000-41.png,0002-00-0001-41.png
00000014,840,0,1446496073807,1446496074363,341,420,0,0,0,3,2,1,5,0002-00-0000-84.png,0003-00-0000-14.png
00000014,841,0,1446496077823,1446496078782,392,381,0,0,0,2,1,1,3,0003-00-0000-38.png,0005-00-0001-90.png
00000014,842,1,1446496082077,1446496083220,981,403,0,0,0,4,3,1,7,0004-00-0000-96.png,0002-00-0000-67.png
00000014,843,1,1446496084474,1446496085182,350,424,0,0,0,0,1,1,1,0001-00-0001-83.png,0005-00-0001-85.png
00000014,844,0,1446496086352,1446496087036,900,436,0,0,0,2,3,1,5,0003-00-0001-10.png,0002-00-0000-09.png
00000014,845,1,1446496090731,1446496091259,353,411,0,0,0,3,4,1,7,0002-00-0000-03.png,0004-00-0000-26.png
00000014,846,0,1446496092439,1446496093317,365,548,0,0,0,3,2,1,5,0002-00-0000-46.png,0003-00-0001-06.png
00000014,847,0,1446496097095,1446496097943,924,380,0,0,0,1,2,1,3,0005-00-0001-43.png,0003-00-0000-90.png
00000014,848,0,1446496101333,1446496102024,309,430,0,0,0,1,0,1,1,0005-00-0001-81.png,0001-00-0001-11.png
00000014,849,1,1446496104985,1446496105955,325,443,0,0,0,3,4,1,7,0002-00-0000-76.png,0004-00-0001-92.png
00000014,850,1,1446496107015,1446496107837,883,407,0,0,0,1,0,1,1,0005-00-0001-34.png,0001-00-0001-05.png
00000014,851,0,1446496109022,1446496109592,335,425,0,0,0,3,2,1,5,0002-00-0000-93.png,0003-00-0001-30.png
00000014,852,1,1446496113324,1446496114224,315,372,0,0,0,0,1,1,1,0001-00-0001-88.png,0005-00-0000-56.png
00000014,853,0,1446496115772,1446496116781,883,394,0,0,0,2,3,1,5,0003-00-0000-04.png,0002-00-0001-46.png
00000014,854,0,1446496119974,1446496120571,363,396,0,0,0,2,1,1,3,0003-00-0000-71.png,0005-00-0001-74.png
00000014,855,0,1446496124050,1446496124730,379,561,0,0,0,4,3,1,7,0004-00-0001-79.png,0002-00-0000-92.png
00000014,856,1,1446496127769,1446496128818,311,367,0,0,0,1,2,1,3,0005-00-0001-51.png,0003-00-0001-32.png
00000014,857,1,1446496129954,1446496130663,305,431,0,0,0,0,1,1,1,0001-00-0001-91.png,0005-00-0001-24.png
00000014,858,1,1446496131784,1446496133330,364,454,0,0,0,1,2,1,3,0005-00-0001-99.png,0003-00-0000-98.png
00000014,859,1,1446496134480,1446496135335,888,423,0,0,0,1,0,1,1,0005-00-0001-72.png,0001-00-0000-22.png
00000014,860,0,1446496136460,1446496137326,427,553,0,0,0,2,1,1,3,0003-00-0000-03.png,0005-00-0001-94.png
00000014,861,0,1446496140471,1446496141234,356,410,0,0,0,4,3,1,7,0004-00-0000-74.png,0002-00-0000-65.png
00000014,862,1,1446496144119,1446496145024,331,355,0,0,0,3,4,1,7,0002-00-0001-81.png,0004-00-0001-99.png
00000014,863,0,1446496146204,1446496147141,326,424,0,0,0,3,2,1,5,0002-00-0001-82.png,0003-00-0000-21.png
00000014,864,0,1446496150182,1446496150886,930,403,0,0,0,2,3,1,5,0003-00-0000-72.png,0002-00-0000-53.png
00000014,865,1,1446496154165,1446496154922,928,416,0,0,0,4,3,1,7,0004-00-0000-85.png,0002-00-0000-09.png
00000014,866,1,1446496156004,1446496156885,868,512,0,0,0,1,0,1,1,0005-00-0001-78.png,0001-00-0001-10.png
00000014,867,1,1446496157975,1446496158901,343,417,0,0,0,3,4,1,7,0002-00-0000-07.png,0004-00-0000-00.png
00000014,868,1,1446496160112,1446496161152,359,427,0,0,0,1,2,1,3,0005-00-0001-45.png,0003-00-0000-32.png
00000014,869,0,1446496162268,1446496163223,893,412,0,0,0,0,1,1,1,0001-00-0000-68.png,0005-00-0000-72.png
00000014,870,0,1446496166640,1446496167312,315,430,0,0,0,2,1,1,3,0003-00-0000-02.png,0005-00-0001-53.png
00000014,871,0,1446496170825,1446496171571,867,536,0,0,0,2,3,1,5,0003-00-0001-74.png,0002-00-0000-32.png
00000014,872,0,1446496174980,1446496175525,349,418,0,0,0,3,2,1,5,0002-00-0001-36.png,0003-00-0001-26.png
00000014,873,1,1446496178686,1446496179655,879,453,0,0,0,2,1,1,3,0003-00-0001-25.png,0005-00-0001-72.png
00000014,874,0,1446496180854,1446496181926,880,401,0,0,0,1,2,1,3,0005-00-0000-41.png,0003-00-0001-09.png
00000014,875,0,1446496185775,1446496186372,873,517,0,0,0,2,3,1,5,0003-00-0001-22.png,0002-00-0001-90.png
00000014,876,1,1446496189341,1446496189975,916,395,0,0,0,4,3,1,7,0004-00-0001-51.png,0002-00-0001-17.png
00000014,877,0,1446496191428,1446496192212,347,397,0,0,0,3,2,1,5,0002-00-0000-33.png,0003-00-0001-59.png
00000014,878,0,1446496195144,1446496195172,504,436,0,0,0,1,0,1,1,0005-00-0001-14.png,0001-00-0001-84.png
00000014,879,1,1446496198387,1446496199065,336,390,0,0,0,0,1,1,1,0001-00-0001-53.png,0005-00-0000-12.png
00000014,880,1,1446496200244,1446496200910,342,410,0,0,0,3,4,1,7,0002-00-0000-35.png,0004-00-0001-76.png
00000014,881,1,1446496202181,1446496203188,350,436,0,0,0,3,4,1,7,0002-00-0000-26.png,0004-00-0000-74.png
00000014,882,1,1446496204308,1446496205095,907,435,0,0,0,4,3,1,7,0004-00-0000-96.png,0002-00-0000-59.png
00000014,883,0,1446496206197,1446496206940,865,417,0,0,0,2,3,1,5,0003-00-0000-54.png,0002-00-0000-54.png
00000014,884,1,1446496210159,1446496210973,330,353,0,0,0,0,1,1,1,0001-00-0001-06.png,0005-00-0000-30.png
00000014,885,0,1446496212219,1446496212875,321,445,0,0,0,2,1,1,3,0003-00-0000-08.png,0005-00-0001-38.png
00000014,886,0,1446496220080,1446496220914,313,355,0,0,0,3,2,1,5,0002-00-0000-71.png,0003-00-0000-62.png
00000014,887,1,1446496225070,1446496225717,291,413,0,0,0,1,2,1,3,0005-00-0000-36.png,0003-00-0001-33.png
00000014,888,1,1446496226889,1446496227709,921,419,0,0,0,1,0,1,1,0005-00-0001-23.png,0001-00-0001-27.png
00000014,889,1,1446496228800,1446496229671,901,410,0,0,0,1,0,1,1,0005-00-0000-30.png,0001-00-0001-30.png
00000014,890,1,1446496230807,1446496231602,903,414,0,0,0,2,1,1,3,0003-00-0000-97.png,0005-00-0001-68.png
00000014,891,0,1446496232705,1446496233641,862,363,0,0,0,0,1,1,1,0001-00-0001-32.png,0005-00-0000-05.png
00000014,892,0,1446496236909,1446496237729,935,354,0,0,0,3,4,1,7,0002-00-0001-09.png,0004-00-0000-16.png
00000014,893,0,1446496241711,1446496242563,330,376,0,0,0,3,2,1,5,0002-00-0000-15.png,0003-00-0001-66.png
00000014,894,0,1446496245826,1446496246597,898,507,0,0,0,2,3,1,5,0003-00-0001-66.png,0002-00-0000-06.png
00000014,895,0,1446496249661,1446496250263,331,415,0,0,0,4,3,1,7,0004-00-0000-27.png,0002-00-0000-05.png
00000014,896,1,1446496253456,1446496254149,357,414,0,0,0,1,2,1,3,0005-00-0000-72.png,0003-00-0001-99.png
00000014,897,1,1446496255246,1446496256200,926,423,0,0,0,2,1,1,3,0003-00-0001-61.png,0005-00-0001-52.png
00000014,898,1,1446496257394,1446496258102,355,466,0,0,0,3,4,1,7,0002-00-0001-52.png,0004-00-0000-35.png
00000014,899,0,1446496259223,1446496260171,344,397,0,0,0,3,2,1,5,0002-00-0000-08.png,0003-00-0000-12.png
00000014,900,0,1446496263447,1446496264428,858,422,0,0,0,2,3,1,5,0003-00-0000-79.png,0002-00-0001-13.png
00000014,901,1,1446496269817,1446496270452,379,424,0,0,0,0,1,1,1,0001-00-0000-36.png,0005-00-0001-34.png
00000014,902,1,1446496271984,1446496272648,898,418,0,0,0,1,0,1,1,0005-00-0001-32.png,0001-00-0000-00.png
00000014,903,1,1446496273783,1446496274579,875,423,0,0,0,4,3,1,7,0004-00-0000-07.png,0002-00-0001-87.png
00000014,904,0,1446496275690,1446496276802,861,515,0,0,0,1,2,1,3,0005-00-0000-21.png,0003-00-0000-73.png
00000014,905,0,1446496279946,1446496280945,401,395,0,0,0,2,1,1,3,0003-00-0000-24.png,0005-00-0000-55.png
00000014,906,1,1446496284090,1446496284612,322,438,0,0,0,0,1,1,1,0001-00-0000-24.png,0005-00-0000-23.png
00000014,907,0,1446496285620,1446496286346,970,403,0,0,0,3,4,1,7,0002-00-0000-19.png,0004-00-0000-87.png
00000014,908,1,1446496289408,1446496290459,872,508,0,0,0,4,3,1,7,0004-00-0000-42.png,0002-00-0000-02.png
00000014,909,1,1446496291615,1446496292325,345,459,0,0,0,1,2,1,3,0005-00-0001-68.png,0003-00-0001-02.png
00000014,910,1,1446496293525,1446496294096,887,397,0,0,0,1,0,1,1,0005-00-0001-13.png,0001-00-0001-34.png
00000014,911,0,1446496295212,1446496295867,357,456,0,0,0,3,2,1,5,0002-00-0000-96.png,0003-00-0001-95.png
00000014,912,0,1446496298868,1446496299521,876,539,0,0,0,2,3,1,5,0003-00-0000-06.png,0002-00-0001-71.png
00000014,913,1,1446496302709,1446496303496,348,355,0,0,0,0,1,1,1,0001-00-0001-87.png,0005-00-0001-15.png
00000014,914,1,1446496304696,1446496305554,891,384,0,0,0,1,0,1,1,0005-00-0000-60.png,0001-00-0001-79.png
00000014,915,0,1446496306743,1446496307658,356,451,0,0,0,2,1,1,3,0003-00-0000-58.png,0005-00-0000-86.png
00000014,916,0,1446496310571,1446496311292,925,372,0,0,0,2,3,1,5,0003-00-0001-22.png,0002-00-0001-04.png
00000014,917,0,1446496314542,1446496315344,886,508,0,0,0,3,4,1,7,0002-00-0001-10.png,0004-00-0001-25.png
00000014,918,1,1446496318291,1446496319035,402,381,0,0,0,1,2,1,3,0005-00-0000-79.png,0003-00-0000-80.png
00000014,919,0,1446496320151,1446496320827,354,451,0,0,0,3,2,1,5,0002-00-0000-43.png,0003-00-0001-73.png
00000014,920,0,1446496325558,1446496326463,311,368,0,0,0,4,3,1,7,0004-00-0001-93.png,0002-00-0000-41.png
00000014,921,0,1446496329634,1446496330192,350,436,0,0,0,3,2,1,5,0002-00-0001-67.png,0003-00-0000-70.png
00000014,922,1,1446496333679,1446496334268,347,383,0,0,0,0,1,1,1,0001-00-0000-10.png,0005-00-0001-02.png
00000014,923,1,1446496335349,1446496336191,866,535,0,0,0,1,0,1,1,0005-00-0001-55.png,0001-00-0000-78.png
00000014,924,0,1446496337192,1446496338214,900,422,0,0,0,3,4,1,7,0002-00-0001-67.png,0004-00-0001-64.png
00000014,925,1,1446496341448,1446496342583,375,401,0,0,0,1,2,1,3,0005-00-0001-32.png,0003-00-0000-68.png
00000014,926,0,1446496343838,1446496344959,329,410,0,0,0,4,3,1,7,0004-00-0000-45.png,0002-00-0000-78.png
00000014,927,0,1446496348090,1446496348987,378,398,0,0,0,2,1,1,3,0003-00-0001-79.png,0005-00-0000-13.png
00000014,928,0,1446496352186,1446496352907,913,357,0,0,0,2,3,1,5,0003-00-0000-72.png,0002-00-0001-87.png
00000014,929,0,1446496356342,1446496356983,329,374,0,0,0,3,2,1,5,0002-00-0001-47.png,0003-00-0000-39.png
00000014,930,1,1446496359818,1446496360453,322,385,0,0,0,3,4,1,7,0002-00-0001-54.png,0004-00-0001-82.png
00000014,931,1,1446496361568,1446496362838,406,383,0,0,0,1,2,1,3,0005-00-0001-89.png,0003-00-0000-51.png
00000014,932,0,1446496364033,1446496365067,347,419,0,0,0,2,1,1,3,0003-00-0000-69.png,0005-00-0001-84.png
00000014,933,0,1446496368397,1446496369286,376,410,0,0,0,4,3,1,7,0004-00-0000-35.png,0002-00-0001-90.png
00000014,934,0,1446496372504,1446496373315,952,382,0,0,0,2,3,1,5,0003-00-0001-09.png,0002-00-0000-17.png
00000014,935,1,1446496376399,1446496377272,314,353,0,0,0,0,1,1,1,0001-00-0001-99.png,0005-00-0001-62.png
00000014,936,1,1446496378526,1446496379446,911,361,0,0,0,1,0,1,1,0005-00-0001-90.png,0001-00-0000-34.png
00000014,937,0,1446496380553,1446496381524,897,391,0,0,0,2,3,1,5,0003-00-0000-85.png,0002-00-0001-34.png
00000014,938,0,1446496384550,1446496385589,382,388,0,0,0,1,0,1,1,0005-00-0000-47.png,0001-00-0000-08.png
00000014,939,1,1446496389494,1446496390432,356,392,0,0,0,0,1,1,1,0001-00-0001-91.png,0005-00-0001-22.png
00000014,940,0,1446496391637,1446496392696,360,485,0,0,0,2,1,1,3,0003-00-0001-01.png,0005-00-0000-01.png
00000014,941,1,1446496395752,1446496396485,342,365,0,0,0,1,2,1,3,0005-00-0000-38.png,0003-00-0001-80.png
00000014,942,0,1446496397747,1446496398593,901,398,0,0,0,3,4,1,7,0002-00-0000-47.png,0004-00-0001-48.png
00000014,943,0,1446496402163,1446496403045,349,384,0,0,0,4,3,1,7,0004-00-0000-76.png,0002-00-0000-76.png
00000014,944,0,1446496405936,1446496406557,334,387,0,0,0,3,2,1,5,0002-00-0001-79.png,0003-00-0000-98.png
00000014,945,1,1446496409845,1446496410740,333,392,0,0,0,1,2,1,3,0005-00-0001-53.png,0003-00-0001-24.png
00000014,946,1,1446496411885,1446496412805,925,403,0,0,0,2,1,1,3,0003-00-0001-62.png,0005-00-0000-99.png
00000014,947,0,1446496413921,1446496414807,896,432,0,0,0,2,3,1,5,0003-00-0001-91.png,0002-00-0001-94.png
00000014,948,1,1446496417805,1446496418605,358,403,0,0,0,0,1,1,1,0001-00-0001-38.png,0005-00-0001-92.png
00000014,949,1,1446496420233,1446496420985,332,373,0,0,0,3,4,1,7,0002-00-0001-87.png,0004-00-0001-84.png
00000014,950,1,1446496422180,1446496422943,888,444,0,0,0,1,0,1,1,0005-00-0001-40.png,0001-00-0001-42.png
00000014,951,0,1446496424150,1446496424901,351,421,0,0,0,3,2,1,5,0002-00-0001-75.png,0003-00-0001-18.png
