subject_id,trial,correct_response,stim_time,response_time,x_coord,y_coord,trial_timeout,timeout_time,interTrial_timeout,left_rank,right_rank,distance,joint_rank,left_image,right_image
00000009,1,0,1447185990553,1447185991344,1035,439,0,0,0,0,1,1,1,0001-00-0001-52.png,0005-00-0000-79.png
00000009,2,0,1447185994707,1447185995416,420,392,0,0,0,3,2,1,5,0002-00-0001-52.png,0003-00-0000-94.png
00000009,3,1,1447185998822,1447186000574,956,391,0,0,0,4,3,1,7,0004-00-0001-43.png,0002-00-0000-13.png
00000009,4,1,1447186363303,1447186363698,1046,389,0,0,0,2,1,1,3,0003-00-0001-67.png,0005-00-0000-56.png
00000009,5,1,1447186364787,1447186365328,941,445,0,0,0,1,0,1,1,0005-00-0000-00.png,0001-00-0000-36.png
00000009,6,0,1447186366921,1447186367525,1021,293,0,0,0,1,2,1,3,0005-00-0001-41.png,0003-00-0001-47.png
00000009,7,0,1447186370688,1447186371360,1055,271,0,0,0,3,4,1,7,0002-00-0001-96.png,0004-00-0000-21.png
00000009,8,0,1447186374493,1447186375070,1042,252,0,0,0,2,3,1,5,0003-00-0001-09.png,0002-00-0001-59.png
00000009,9,1,1447186378299,1447186378794,1042,257,0,0,0,3,2,1,5,0002-00-0000-55.png,0003-00-0001-77.png
00000009,10,0,1447186379892,1447186379936,865,392,0,0,0,3,4,1,7,0002-00-0000-43.png,0004-00-0001-06.png
00000009,11,1,1447186382812,1447186382840,971,354,0,0,0,4,3,1,7,0004-00-0001-15.png,0002-00-0001-32.png
00000009,12,1,1447186384165,1447186385252,1025,265,0,0,0,2,1,1,3,0003-00-0001-97.png,0005-00-0001-93.png
00000009,13,0,1447186386279,1447186386377,913,450,0,0,0,1,2,1,3,0005-00-0001-20.png,0003-00-0000-98.png
00000009,14,0,1447186389502,1447186389538,917,297,0,0,0,0,1,1,1,0001-00-0000-68.png,0005-00-0000-66.png
00000009,15,1,1447186392691,1447186393150,1036,251,0,0,0,1,0,1,1,0005-00-0001-93.png,0001-00-0001-27.png
00000009,16,0,1447186394071,1447186394147,865,436,0,0,0,2,3,1,5,0003-00-0000-39.png,0002-00-0000-04.png
00000009,17,0,1447186397101,1447186397679,1073,244,0,0,0,1,2,1,3,0005-00-0001-11.png,0003-00-0001-61.png
00000009,18,1,1447186400770,1447186401279,1054,253,0,0,0,1,0,1,1,0005-00-0000-54.png,0001-00-0001-08.png
00000009,19,1,1447186402232,1447186402300,898,410,0,0,0,2,1,1,3,0003-00-0001-02.png,0005-00-0000-00.png
00000009,20,0,1447186403514,1447186404376,1016,276,0,0,0,2,3,1,5,0003-00-0000-10.png,0002-00-0001-24.png
00000009,21,0,1447186407259,1447186407860,447,218,0,0,0,3,2,1,5,0002-00-0001-80.png,0003-00-0000-42.png
00000009,22,1,1447186410837,1447186411421,449,237,0,0,0,3,4,1,7,0002-00-0001-76.png,0004-00-0001-20.png
00000009,23,0,1447186412306,1447186412374,860,414,0,0,0,0,1,1,1,0001-00-0001-70.png,0005-00-0000-19.png
00000009,24,1,1447186415578,1447186415586,882,238,0,0,0,4,3,1,7,0004-00-0001-91.png,0002-00-0001-54.png
00000009,25,0,1447186416665,1447186417424,1016,262,0,0,0,2,3,1,5,0003-00-0000-54.png,0002-00-0000-72.png
00000009,26,1,1447186420525,1447186420541,874,294,0,0,0,3,2,1,5,0002-00-0001-93.png,0003-00-0000-41.png
00000009,27,0,1447186421522,1447186421586,913,384,0,0,0,0,1,1,1,0001-00-0001-59.png,0005-00-0000-27.png
00000009,28,0,1447186424691,1447186424896,903,253,0,0,0,3,4,1,7,0002-00-0000-58.png,0004-00-0000-56.png
00000009,29,1,1447186427781,1447186428325,914,377,0,0,0,2,1,1,3,0003-00-0001-83.png,0005-00-0000-64.png
00000009,30,1,1447186429150,1447186429178,892,420,0,0,0,4,3,1,7,0004-00-0001-65.png,0002-00-0001-36.png
00000009,31,0,1447186430375,1447186430463,869,426,0,0,0,1,2,1,3,0005-00-0000-25.png,0003-00-0001-20.png
00000009,32,1,1447186433901,1447186434378,1018,246,0,0,0,1,0,1,1,0005-00-0000-46.png,0001-00-0000-94.png
00000009,33,1,1447186435254,1447186435318,931,442,0,0,0,2,1,1,3,0003-00-0001-55.png,0005-00-0000-64.png
00000009,34,0,1447186436455,1447186436503,862,436,0,0,0,1,2,1,3,0005-00-0001-86.png,0003-00-0000-40.png
00000009,35,0,1447186439706,1447186440214,904,383,0,0,0,0,1,1,1,0001-00-0001-31.png,0005-00-0001-87.png
00000009,36,0,1447186443202,1447186443751,435,248,0,0,0,3,2,1,5,0002-00-0001-77.png,0003-00-0000-37.png
00000009,37,0,1447186446763,1447186446811,903,306,0,0,0,3,4,1,7,0002-00-0000-26.png,0004-00-0000-20.png
00000009,38,0,1447186449804,1447186450296,962,322,0,0,0,2,3,1,5,0003-00-0000-12.png,0002-00-0001-85.png
00000009,39,1,1447186453162,1447186453731,1058,280,0,0,0,4,3,1,7,0004-00-0000-59.png,0002-00-0000-40.png
00000009,40,1,1447186454634,1447186454694,913,396,0,0,0,1,0,1,1,0005-00-0000-26.png,0001-00-0000-57.png
00000009,41,0,1447186455806,1447186456603,929,347,0,0,0,2,3,1,5,0003-00-0001-41.png,0002-00-0001-02.png
00000009,42,1,1447186459473,1447186460315,421,262,0,0,0,1,2,1,3,0005-00-0001-71.png,0003-00-0001-29.png
00000009,43,1,1447186461240,1447186461714,924,525,0,0,0,3,2,1,5,0002-00-0000-97.png,0003-00-0000-20.png
00000009,44,1,1447186462781,1447186463130,939,541,0,0,0,2,1,1,3,0003-00-0000-26.png,0005-00-0001-08.png
00000009,45,0,1447186464251,1447186464267,876,428,0,0,0,3,4,1,7,0002-00-0001-72.png,0004-00-0001-80.png
00000009,46,1,1447186467254,1447186467274,918,373,0,0,0,1,0,1,1,0005-00-0000-36.png,0001-00-0000-96.png
00000009,47,1,1447186468260,1447186469214,944,333,0,0,0,4,3,1,7,0004-00-0000-73.png,0002-00-0000-57.png
00000009,48,0,1447186470143,1447186470203,874,410,0,0,0,0,1,1,1,0001-00-0001-85.png,0005-00-0000-49.png
00000009,49,0,1447186473046,1447186473506,890,357,0,0,0,3,4,1,7,0002-00-0001-42.png,0004-00-0001-45.png
00000009,50,0,1447186476654,1447186477286,1045,276,0,0,0,2,3,1,5,0003-00-0000-88.png,0002-00-0000-65.png
00000009,51,0,1447186480152,1447186480168,512,442,0,0,0,1,0,1,1,0005-00-0000-02.png,0001-00-0000-97.png
00000009,52,1,1447186483263,1447186483348,878,280,0,0,0,2,1,1,3,0003-00-0001-08.png,0005-00-0001-57.png
00000009,53,1,1447186484236,1447186484344,872,403,0,0,0,3,2,1,5,0002-00-0000-22.png,0003-00-0000-29.png
00000009,54,1,1447186485299,1447186486199,388,373,0,0,0,1,2,1,3,0005-00-0000-18.png,0003-00-0001-84.png
00000009,55,1,1447186487221,1447186487947,396,354,0,0,0,0,1,1,1,0001-00-0001-45.png,0005-00-0001-49.png
00000009,56,1,1447186489064,1447186489312,883,488,0,0,0,4,3,1,7,0004-00-0001-64.png,0002-00-0000-91.png
00000009,57,0,1447186490358,1447186490462,873,462,0,0,0,0,1,1,1,0001-00-0000-42.png,0005-00-0001-13.png
00000009,58,0,1447186493337,1447186493859,346,379,0,0,0,3,2,1,5,0002-00-0000-76.png,0003-00-0001-78.png
00000009,59,1,1447186497037,1447186497588,369,410,0,0,0,3,4,1,7,0002-00-0000-45.png,0004-00-0001-62.png
00000009,60,0,1447186498496,1447186498842,894,478,0,0,0,1,2,1,3,0005-00-0000-10.png,0003-00-0001-86.png
00000009,61,0,1447186501956,1447186502477,911,333,0,0,0,2,3,1,5,0003-00-0001-31.png,0002-00-0001-71.png
00000009,62,1,1447186505573,1447186505593,862,303,0,0,0,2,1,1,3,0003-00-0000-99.png,0005-00-0001-12.png
00000009,63,1,1447186506616,1447186507396,886,333,0,0,0,1,0,1,1,0005-00-0001-86.png,0001-00-0000-16.png
00000009,64,1,1447186508306,1447186508366,888,397,0,0,0,4,3,1,7,0004-00-0001-41.png,0002-00-0001-46.png
00000009,65,1,1447186509488,1447186509536,888,436,0,0,0,3,2,1,5,0002-00-0001-01.png,0003-00-0000-14.png
00000009,66,0,1447186510783,1447186511635,922,311,0,0,0,0,1,1,1,0001-00-0000-86.png,0005-00-0001-18.png
00000009,67,1,1447186514705,1447186515235,906,348,0,0,0,1,0,1,1,0005-00-0000-80.png,0001-00-0001-90.png
00000009,68,1,1447186516126,1447186516881,469,225,0,0,0,1,2,1,3,0005-00-0000-13.png,0003-00-0000-67.png
00000009,69,1,1447186517917,1447186518945,918,353,0,0,0,2,1,1,3,0003-00-0001-28.png,0005-00-0000-86.png
00000009,70,0,1447186519903,1447186519959,888,410,0,0,0,3,4,1,7,0002-00-0000-01.png,0004-00-0001-43.png
00000009,71,0,1447186522851,1447186522867,968,411,0,0,0,2,3,1,5,0003-00-0001-69.png,0002-00-0001-60.png
00000009,72,1,1447186526026,1447186526554,922,335,0,0,0,4,3,1,7,0004-00-0000-16.png,0002-00-0001-28.png
00000009,73,0,1447186527436,1447186527472,885,409,0,0,0,3,4,1,7,0002-00-0000-48.png,0004-00-0000-61.png
00000009,74,1,1447186530652,1447186531222,1041,271,0,0,0,4,3,1,7,0004-00-0000-48.png,0002-00-0000-65.png
00000009,75,1,1447186532146,1447186532214,874,427,0,0,0,3,2,1,5,0002-00-0000-68.png,0003-00-0001-74.png
00000009,76,1,1447186533368,1447186533463,866,449,0,0,0,1,0,1,1,0005-00-0000-26.png,0001-00-0001-49.png
00000009,77,0,1447186534582,1447186534673,874,436,0,0,0,0,1,1,1,0001-00-0000-84.png,0005-00-0000-15.png
00000009,78,0,1447186537838,1447186538554,946,344,0,0,0,1,2,1,3,0005-00-0001-58.png,0003-00-0000-98.png
00000009,79,1,1447186541435,1447186541893,939,337,0,0,0,2,1,1,3,0003-00-0000-14.png,0005-00-0000-68.png
00000009,80,0,1447186542778,1447186542802,862,397,0,0,0,2,3,1,5,0003-00-0000-24.png,0002-00-0000-17.png
00000009,81,1,1447186545828,1447186546410,413,306,0,0,0,1,2,1,3,0005-00-0001-44.png,0003-00-0001-59.png
00000009,82,1,1447186547320,1447186548152,388,323,0,0,0,0,1,1,1,0001-00-0001-75.png,0005-00-0000-78.png
00000009,83,0,1447186549119,1447186550093,495,218,0,0,0,3,2,1,5,0002-00-0001-72.png,0003-00-0000-82.png
00000009,84,0,1447186552933,1447186552965,917,363,0,0,0,3,4,1,7,0002-00-0001-01.png,0004-00-0001-41.png
00000009,85,1,1447186555933,1447186556410,915,354,0,0,0,4,3,1,7,0004-00-0001-62.png,0002-00-0001-03.png
00000009,86,0,1447186557263,1447186557315,872,410,0,0,0,2,3,1,5,0003-00-0000-62.png,0002-00-0000-21.png
00000009,87,1,1447186560477,1447186560929,918,329,0,0,0,2,1,1,3,0003-00-0000-88.png,0005-00-0000-08.png
00000009,88,1,1447186561837,1447186561873,871,402,0,0,0,1,0,1,1,0005-00-0000-05.png,0001-00-0000-92.png
00000009,89,0,1447186563020,1447186563892,904,347,0,0,0,1,2,1,3,0005-00-0001-12.png,0003-00-0000-17.png
00000009,90,0,1447186566756,1447186567218,369,353,0,0,0,3,2,1,5,0002-00-0000-04.png,0003-00-0001-49.png
00000009,91,1,1447186570376,1447186570817,1097,251,0,0,0,4,3,1,7,0004-00-0000-15.png,0002-00-0000-21.png
00000009,92,0,1447186571724,1447186571752,862,384,0,0,0,2,3,1,5,0003-00-0001-30.png,0002-00-0001-68.png
00000009,93,1,1447186574895,1447186575444,428,230,0,0,0,3,4,1,7,0002-00-0000-08.png,0004-00-0001-42.png
00000009,94,1,1447186576327,1447186577185,925,332,0,0,0,1,0,1,1,0005-00-0000-58.png,0001-00-0001-62.png
00000009,95,1,1447186578236,1447186578276,888,358,0,0,0,2,1,1,3,0003-00-0000-29.png,0005-00-0001-96.png
00000009,96,0,1447186579487,1447186579591,862,436,0,0,0,0,1,1,1,0001-00-0000-76.png,0005-00-0001-75.png
00000009,97,1,1447186583015,1447186583507,1040,249,0,0,0,2,1,1,3,0003-00-0001-30.png,0005-00-0001-01.png
00000009,98,0,1447186584354,1447186585107,492,222,0,0,0,4,3,1,7,0004-00-0000-56.png,0002-00-0000-25.png
00000009,99,1,1447186589833,1447186589900,968,481,0,0,0,1,0,1,1,0005-00-0001-27.png,0001-00-0001-52.png
00000009,100,1,1447186590854,1447186598317,362,411,0,0,0,2,3,1,5,0003-00-0000-20.png,0002-00-0001-71.png
00000009,101,1,1447186599345,1447186599385,907,393,0,0,0,3,2,1,5,0002-00-0000-84.png,0003-00-0001-06.png
00000009,102,0,1447186600459,1447186601252,941,294,0,0,0,0,1,1,1,0001-00-0000-96.png,0005-00-0000-71.png
00000009,103,1,1447186604363,1447186604969,377,405,0,0,0,1,2,1,3,0005-00-0000-51.png,0003-00-0000-64.png
00000009,104,1,1447186606359,1447186607049,427,384,0,0,0,3,4,1,7,0002-00-0001-97.png,0004-00-0000-76.png
00000009,105,1,1447186607898,1447186607958,860,373,0,0,0,4,3,1,7,0004-00-0000-13.png,0002-00-0000-75.png
00000009,106,1,1447186609053,1447186609784,388,357,0,0,0,3,4,1,7,0002-00-0000-86.png,0004-00-0000-35.png
00000009,107,1,1447186610683,1447186611000,964,514,0,0,0,2,1,1,3,0003-00-0000-14.png,0005-00-0000-15.png
00000009,108,0,1447186612034,1447186612827,933,335,0,0,0,2,3,1,5,0003-00-0000-92.png,0002-00-0000-95.png
00000009,109,1,1447186615689,1447186616198,360,371,0,0,0,1,2,1,3,0005-00-0001-68.png,0003-00-0000-55.png
00000009,110,1,1447186617052,1447186617100,870,413,0,0,0,1,0,1,1,0005-00-0000-32.png,0001-00-0000-98.png
00000009,111,0,1447186618093,1447186618204,862,474,0,0,0,0,1,1,1,0001-00-0000-09.png,0005-00-0000-15.png
00000009,112,0,1447186621265,1447186621780,429,244,0,0,0,3,2,1,5,0002-00-0001-57.png,0003-00-0000-18.png
00000009,113,1,1447186624654,1447186625158,1043,267,0,0,0,1,0,1,1,0005-00-0001-76.png,0001-00-0000-14.png
00000009,114,1,1447186626562,1447186627113,427,395,0,0,0,1,2,1,3,0005-00-0001-18.png,0003-00-0001-49.png
00000009,115,1,1447186628065,1447186628862,368,323,0,0,0,3,4,1,7,0002-00-0001-38.png,0004-00-0001-64.png
00000009,116,1,1447186629902,1447186630591,912,331,0,0,0,2,1,1,3,0003-00-0000-25.png,0005-00-0001-41.png
00000009,117,1,1447186631482,1447186631526,897,410,0,0,0,4,3,1,7,0004-00-0000-58.png,0002-00-0000-83.png
00000009,118,0,1447186632615,1447186632651,864,437,0,0,0,2,3,1,5,0003-00-0000-02.png,0002-00-0001-16.png
00000009,119,0,1447186637154,1447186637689,431,269,0,0,0,3,2,1,5,0002-00-0001-11.png,0003-00-0000-18.png
00000009,120,0,1447186640615,1447186641102,1000,288,0,0,0,0,1,1,1,0001-00-0001-34.png,0005-00-0000-07.png
00000009,121,1,1447186644251,1447186644795,1045,268,0,0,0,2,1,1,3,0003-00-0000-37.png,0005-00-0001-58.png
00000009,122,1,1447186645638,1447186645704,871,403,0,0,0,1,0,1,1,0005-00-0000-43.png,0001-00-0001-10.png
00000009,123,0,1447186646645,1447186647681,1041,263,0,0,0,2,3,1,5,0003-00-0001-27.png,0002-00-0000-78.png
00000009,124,1,1447186650700,1447186651246,1019,268,0,0,0,4,3,1,7,0004-00-0001-34.png,0002-00-0001-06.png
00000009,125,1,1447186652079,1447186652139,862,424,0,0,0,3,2,1,5,0002-00-0001-54.png,0003-00-0000-95.png
00000009,126,1,1447186653116,1447186653946,445,225,0,0,0,1,2,1,3,0005-00-0000-23.png,0003-00-0001-09.png
00000009,127,0,1447186654865,1447186655827,1018,280,0,0,0,3,4,1,7,0002-00-0000-53.png,0004-00-0001-16.png
00000009,128,1,1447186658978,1447186659506,430,270,0,0,0,0,1,1,1,0001-00-0000-28.png,0005-00-0001-95.png
00000009,129,0,1447186660332,1447186661039,397,401,0,0,0,4,3,1,7,0004-00-0000-96.png,0002-00-0000-74.png
00000009,130,0,1447186664136,1447186664377,862,358,0,0,0,0,1,1,1,0001-00-0001-20.png,0005-00-0000-50.png
00000009,131,1,1447186668093,1447186668377,877,322,0,0,0,1,0,1,1,0005-00-0000-85.png,0001-00-0000-90.png
00000009,132,0,1447186669307,1447186669963,921,339,0,0,0,2,3,1,5,0003-00-0000-60.png,0002-00-0001-93.png
00000009,133,1,1447186673101,1447186673730,443,277,0,0,0,1,2,1,3,0005-00-0000-31.png,0003-00-0001-26.png
00000009,134,1,1447186675139,1447186675910,461,226,0,0,0,3,4,1,7,0002-00-0001-55.png,0004-00-0000-58.png
00000009,135,1,1447186676788,1447186676816,882,375,0,0,0,2,1,1,3,0003-00-0000-62.png,0005-00-0001-92.png
00000009,136,1,1447186677961,1447186678001,862,436,0,0,0,3,2,1,5,0002-00-0000-69.png,0003-00-0001-91.png
00000009,137,1,1447186679182,1447186679270,888,451,0,0,0,4,3,1,7,0004-00-0000-85.png,0002-00-0000-67.png
00000009,138,0,1447186680414,1447186680524,876,465,0,0,0,1,2,1,3,0005-00-0000-51.png,0003-00-0001-50.png
00000009,139,1,1447186683596,1447186684238,344,396,0,0,0,0,1,1,1,0001-00-0001-44.png,0005-00-0000-20.png
00000009,140,1,1447186685604,1447186686219,935,356,0,0,0,1,0,1,1,0005-00-0000-70.png,0001-00-0000-68.png
00000009,141,0,1447186687094,1447186687181,975,449,0,0,0,3,4,1,7,0002-00-0001-78.png,0004-00-0000-09.png
00000009,142,0,1447186690012,1447186690505,459,244,0,0,0,3,2,1,5,0002-00-0000-67.png,0003-00-0000-21.png
00000009,143,1,1447186693943,1447186694168,862,289,0,0,0,2,1,1,3,0003-00-0000-78.png,0005-00-0001-03.png
00000009,144,0,1447186695083,1447186695119,873,427,0,0,0,2,3,1,5,0003-00-0001-14.png,0002-00-0001-58.png
00000009,145,1,1447186698235,1447186698801,1046,275,0,0,0,1,0,1,1,0005-00-0000-88.png,0001-00-0001-10.png
00000009,146,1,1447186700111,1447186700916,950,352,0,0,0,4,3,1,7,0004-00-0000-26.png,0002-00-0000-56.png
00000009,147,0,1447186701822,1447186701878,886,440,0,0,0,0,1,1,1,0001-00-0001-20.png,0005-00-0000-72.png
00000009,148,0,1447186704816,1447186704931,874,282,0,0,0,1,2,1,3,0005-00-0001-32.png,0003-00-0000-24.png
00000009,149,1,1447186708034,1447186708070,892,301,0,0,0,3,2,1,5,0002-00-0001-74.png,0003-00-0001-15.png
00000009,150,0,1447186708987,1447186709075,883,416,0,0,0,3,4,1,7,0002-00-0000-59.png,0004-00-0001-54.png
00000009,151,1,1447186712306,1447186712789,1038,252,0,0,0,2,1,1,3,0003-00-0001-67.png,0005-00-0001-33.png
00000009,152,0,1447186714103,1447186714748,1041,262,0,0,0,2,3,1,5,0003-00-0000-43.png,0002-00-0001-81.png
00000009,153,0,1447186717791,1447186718357,453,262,0,0,0,3,2,1,5,0002-00-0000-52.png,0003-00-0000-36.png
00000009,154,0,1447186721186,1447186721853,945,345,0,0,0,1,2,1,3,0005-00-0000-04.png,0003-00-0001-60.png
00000009,155,0,1447186725446,1447186725462,866,282,0,0,0,0,1,1,1,0001-00-0001-16.png,0005-00-0000-68.png
00000009,156,0,1447186728356,1447186728829,1051,251,0,0,0,2,3,1,5,0003-00-0000-43.png,0002-00-0000-65.png
00000009,157,1,1447186731773,1447186732553,450,304,0,0,0,3,4,1,7,0002-00-0000-35.png,0004-00-0001-50.png
00000009,158,1,1447186733495,1447186734265,912,325,0,0,0,4,3,1,7,0004-00-0001-65.png,0002-00-0001-05.png
00000009,159,1,1447186735224,1447186735302,862,410,0,0,0,1,0,1,1,0005-00-0000-19.png,0001-00-0000-47.png
00000009,160,1,1447186736515,1447186737458,1013,257,0,0,0,2,1,1,3,0003-00-0001-87.png,0005-00-0000-45.png
00000009,161,0,1447186738452,1447186738500,874,384,0,0,0,3,4,1,7,0002-00-0001-51.png,0004-00-0000-02.png
00000009,162,1,1447186741643,1447186741824,862,410,0,0,0,1,0,1,1,0005-00-0001-68.png,0001-00-0000-13.png
00000009,163,1,1447186742788,1447186742816,865,402,0,0,0,4,3,1,7,0004-00-0000-16.png,0002-00-0000-82.png
00000009,164,1,1447186743850,1447186744622,482,224,0,0,0,0,1,1,1,0001-00-0000-31.png,0005-00-0001-62.png
00000009,165,0,1447186745549,1447186746344,1049,296,0,0,0,2,3,1,5,0003-00-0001-70.png,0002-00-0000-79.png
00000009,166,1,1447186749484,1447186749942,943,329,0,0,0,3,2,1,5,0002-00-0000-69.png,0003-00-0000-33.png
00000009,167,1,1447186751283,1447186752006,497,242,0,0,0,1,2,1,3,0005-00-0001-75.png,0003-00-0000-53.png
00000009,168,1,1447186752851,1447186753686,1041,247,0,0,0,2,1,1,3,0003-00-0001-70.png,0005-00-0000-26.png
00000009,169,0,1447186754633,1447186754706,901,433,0,0,0,2,3,1,5,0003-00-0001-45.png,0002-00-0001-65.png
00000009,170,0,1447186757545,1447186758006,350,366,0,0,0,1,0,1,1,0005-00-0000-83.png,0001-00-0000-50.png
00000009,171,0,1447186761002,1447186761038,890,331,0,0,0,0,1,1,1,0001-00-0001-33.png,0005-00-0001-78.png
00000009,172,1,1447186764209,1447186764717,457,257,0,0,0,1,2,1,3,0005-00-0001-38.png,0003-00-0001-81.png
00000009,173,1,1447186766089,1447186766630,915,347,0,0,0,2,1,1,3,0003-00-0000-20.png,0005-00-0001-68.png
00000009,174,0,1447186767541,1447186767597,867,400,0,0,0,3,4,1,7,0002-00-0001-95.png,0004-00-0001-84.png
00000009,175,1,1447186770540,1447186771099,1033,283,0,0,0,4,3,1,7,0004-00-0000-84.png,0002-00-0001-80.png
00000009,176,0,1447186772370,1447186772978,415,398,0,0,0,3,2,1,5,0002-00-0001-44.png,0003-00-0000-99.png
00000009,177,1,1447186776107,1447186776601,940,343,0,0,0,1,0,1,1,0005-00-0000-82.png,0001-00-0000-51.png
00000009,178,0,1447186777935,1447186778785,458,218,0,0,0,3,2,1,5,0002-00-0001-64.png,0003-00-0000-67.png
00000009,179,1,1447186781878,1447186782424,939,332,0,0,0,4,3,1,7,0004-00-0000-03.png,0002-00-0001-75.png
00000009,180,0,1447186783270,1447186783338,862,436,0,0,0,3,4,1,7,0002-00-0000-39.png,0004-00-0000-57.png
00000009,181,1,1447186786461,1447186787040,448,269,0,0,0,0,1,1,1,0001-00-0001-97.png,0005-00-0000-11.png
00000009,182,1,1447186787910,1447186789310,441,253,0,0,0,1,2,1,3,0005-00-0001-81.png,0003-00-0000-73.png
00000009,183,1,1447186790257,1447186791183,431,365,0,0,0,2,3,1,5,0003-00-0000-76.png,0002-00-0001-95.png
00000009,184,1,1447186792264,1447186793246,1045,287,0,0,0,2,1,1,3,0003-00-0000-72.png,0005-00-0001-55.png
00000009,185,1,1447186794210,1447186794294,890,480,0,0,0,4,3,1,7,0004-00-0000-68.png,0002-00-0000-33.png
00000009,186,1,1447186795452,1447186796377,912,318,0,0,0,2,1,1,3,0003-00-0001-61.png,0005-00-0000-34.png
00000009,187,1,1447186797352,1447186797400,913,424,0,0,0,3,2,1,5,0002-00-0000-65.png,0003-00-0001-39.png
00000009,188,0,1447186798632,1447186798704,862,514,0,0,0,3,4,1,7,0002-00-0000-48.png,0004-00-0001-03.png
00000009,189,1,1447186801792,1447186802359,482,244,0,0,0,2,3,1,5,0003-00-0001-01.png,0002-00-0001-43.png
00000009,190,1,1447186803253,1447186803929,400,369,0,0,0,1,2,1,3,0005-00-0001-93.png,0003-00-0001-58.png
00000009,191,0,1447186804873,1447186805606,412,357,0,0,0,1,0,1,1,0005-00-0000-62.png,0001-00-0000-56.png
00000009,192,1,1447186808797,1447186809315,459,270,0,0,0,0,1,1,1,0001-00-0001-49.png,0005-00-0001-83.png
00000009,193,1,1447186810191,1447186811310,488,253,0,0,0,0,1,1,1,0001-00-0000-44.png,0005-00-0001-26.png
00000009,194,0,1447186812336,1447186812994,940,340,0,0,0,2,3,1,5,0003-00-0001-30.png,0002-00-0001-57.png
00000009,195,1,1447186815856,1447186815976,921,353,0,0,0,1,0,1,1,0005-00-0001-46.png,0001-00-0001-22.png
00000009,196,1,1447186816968,1447186817684,1019,256,0,0,0,2,1,1,3,0003-00-0000-66.png,0005-00-0001-18.png
00000009,197,1,1447186818617,1447186818657,899,421,0,0,0,4,3,1,7,0004-00-0000-93.png,0002-00-0000-44.png
00000009,198,0,1447186819760,1447186819800,861,443,0,0,0,3,4,1,7,0002-00-0000-12.png,0004-00-0000-72.png
00000009,199,0,1447186822918,1447186823363,508,238,0,0,0,3,2,1,5,0002-00-0000-98.png,0003-00-0000-72.png
00000009,200,1,1447186826489,1447186826950,489,249,0,0,0,1,2,1,3,0005-00-0001-41.png,0003-00-0001-47.png
00000009,201,1,1447186827849,1447186828665,915,411,0,0,0,4,3,1,7,0004-00-0000-82.png,0002-00-0000-63.png
00000009,202,0,1447186829671,1447186829679,871,397,0,0,0,3,4,1,7,0002-00-0000-46.png,0004-00-0000-91.png
00000009,203,0,1447186832610,1447186833265,908,387,0,0,0,0,1,1,1,0001-00-0000-69.png,0005-00-0000-25.png
00000009,204,1,1447186836189,1447186836636,1067,287,0,0,0,2,1,1,3,0003-00-0001-31.png,0005-00-0001-71.png
00000009,205,0,1447186837526,1447186837558,888,450,0,0,0,2,3,1,5,0003-00-0001-55.png,0002-00-0000-47.png
00000009,206,1,1447186840699,1447186841214,1088,256,0,0,0,1,0,1,1,0005-00-0001-73.png,0001-00-0000-80.png
00000009,207,0,1447186842044,1447186842187,878,470,0,0,0,1,2,1,3,0005-00-0001-40.png,0003-00-0001-25.png
00000009,208,0,1447186845330,1447186845970,466,250,0,0,0,3,2,1,5,0002-00-0000-56.png,0003-00-0000-93.png
00000009,209,1,1447186849115,1447186849135,874,327,0,0,0,2,1,1,3,0003-00-0001-51.png,0005-00-0001-78.png
00000009,210,0,1447186850093,1447186850129,859,404,0,0,0,2,3,1,5,0003-00-0001-63.png,0002-00-0000-03.png
00000009,211,0,1447186853232,1447186853260,910,295,0,0,0,3,4,1,7,0002-00-0000-46.png,0004-00-0000-65.png
00000009,212,0,1447186856403,1447186856879,962,335,0,0,0,1,2,1,3,0005-00-0000-59.png,0003-00-0000-99.png
00000009,213,1,1447186859776,1447186860302,910,322,0,0,0,4,3,1,7,0004-00-0000-94.png,0002-00-0001-81.png
00000009,214,1,1447186861192,1447186862056,1040,276,0,0,0,3,2,1,5,0002-00-0000-80.png,0003-00-0001-36.png
00000009,215,0,1447186863029,1447186863077,881,417,0,0,0,0,1,1,1,0001-00-0001-78.png,0005-00-0000-19.png
00000009,216,1,1447186866198,1447186866226,918,293,0,0,0,1,0,1,1,0005-00-0000-32.png,0001-00-0000-10.png
00000009,217,1,1447186867163,1447186867199,862,397,0,0,0,4,3,1,7,0004-00-0001-69.png,0002-00-0000-81.png
00000009,218,1,1447186868405,1447186868570,860,493,0,0,0,3,2,1,5,0002-00-0000-36.png,0003-00-0001-40.png
00000009,219,1,1447186869700,1447186870540,407,347,0,0,0,3,4,1,7,0002-00-0001-27.png,0004-00-0000-10.png
00000009,220,0,1447186871514,1447186871554,862,358,0,0,0,2,3,1,5,0003-00-0000-85.png,0002-00-0001-72.png
00000009,221,1,1447186874547,1447186875039,478,254,0,0,0,0,1,1,1,0001-00-0001-63.png,0005-00-0001-43.png
00000009,222,0,1447186875887,1447186875977,878,443,0,0,0,1,2,1,3,0005-00-0000-67.png,0003-00-0001-71.png
00000009,223,0,1447186879038,1447186879522,467,267,0,0,0,1,0,1,1,0005-00-0001-47.png,0001-00-0001-95.png
00000009,224,1,1447186882342,1447186882825,970,294,0,0,0,2,1,1,3,0003-00-0001-71.png,0005-00-0000-31.png
00000009,225,1,1447186883698,1447186884380,411,344,0,0,0,0,1,1,1,0001-00-0001-97.png,0005-00-0000-15.png
00000009,226,1,1447186885347,1447186886226,1041,264,0,0,0,2,1,1,3,0003-00-0000-16.png,0005-00-0001-95.png
00000009,227,1,1447186887196,1447186887264,862,462,0,0,0,1,0,1,1,0005-00-0001-59.png,0001-00-0000-48.png
00000009,228,1,1447186888409,1447186888493,862,475,0,0,0,4,3,1,7,0004-00-0000-75.png,0002-00-0001-91.png
00000009,229,0,1447186889580,1447186890251,483,233,0,0,0,3,2,1,5,0002-00-0001-57.png,0003-00-0000-24.png
00000009,230,0,1447186893168,1447186893210,884,374,0,0,0,3,4,1,7,0002-00-0000-09.png,0004-00-0000-64.png
00000009,231,0,1447186896201,1447186896824,957,390,0,0,0,1,2,1,3,0005-00-0001-96.png,0003-00-0001-26.png
00000009,232,0,1447186899927,1447186899968,912,301,0,0,0,2,3,1,5,0003-00-0001-05.png,0002-00-0001-77.png
00000009,233,1,1447186902792,1447186903312,1066,255,0,0,0,2,1,1,3,0003-00-0001-80.png,0005-00-0001-90.png
00000009,234,0,1447186904190,1447186904847,475,221,0,0,0,3,2,1,5,0002-00-0000-47.png,0003-00-0000-42.png
00000009,235,1,1447186907739,1447186908255,383,365,0,0,0,1,2,1,3,0005-00-0000-72.png,0003-00-0000-45.png
00000009,236,0,1447186909117,1447186909943,916,313,0,0,0,3,4,1,7,0002-00-0001-29.png,0004-00-0001-84.png
00000009,237,1,1447186912883,1447186913518,962,323,0,0,0,1,0,1,1,0005-00-0001-36.png,0001-00-0000-40.png
00000009,238,0,1447186914925,1447186915515,936,332,0,0,0,2,3,1,5,0003-00-0001-34.png,0002-00-0001-22.png
00000009,239,0,1447186918669,1447186919229,499,251,0,0,0,4,3,1,7,0004-00-0001-17.png,0002-00-0001-26.png
00000009,240,0,1447186922407,1447186922427,897,306,0,0,0,0,1,1,1,0001-00-0001-03.png,0005-00-0001-79.png
00000009,241,1,1447186925395,1447186925892,965,330,0,0,0,2,1,1,3,0003-00-0001-23.png,0005-00-0001-00.png
00000009,242,1,1447186926766,1447186926798,892,374,0,0,0,1,0,1,1,0005-00-0001-32.png,0001-00-0001-25.png
00000009,243,1,1447186927953,1447186928974,417,384,0,0,0,3,4,1,7,0002-00-0000-85.png,0004-00-0001-79.png
00000009,244,1,1447186929899,1447186930812,1012,256,0,0,0,4,3,1,7,0004-00-0000-90.png,0002-00-0000-51.png
00000009,245,1,1447186931817,1447186932975,490,220,0,0,0,1,2,1,3,0005-00-0001-64.png,0003-00-0000-78.png
00000009,246,0,1447186933914,1447186934619,392,313,0,0,0,3,2,1,5,0002-00-0001-05.png,0003-00-0000-50.png
00000009,247,0,1447186937710,1447186938245,1048,258,0,0,0,2,3,1,5,0003-00-0000-71.png,0002-00-0001-45.png
00000009,248,0,1447186941366,1447186941962,1063,252,0,0,0,0,1,1,1,0001-00-0001-26.png,0005-00-0001-83.png
00000009,249,1,1447186945094,1447186945584,964,321,0,0,0,4,3,1,7,0004-00-0001-72.png,0002-00-0000-67.png
00000009,250,1,1447186946434,1447186947135,418,366,0,0,0,3,4,1,7,0002-00-0000-96.png,0004-00-0001-48.png
00000009,251,1,1447186948076,1447186949052,1039,255,0,0,0,3,2,1,5,0002-00-0000-31.png,0003-00-0000-98.png
00000009,252,1,1447186950055,1447186950111,878,410,0,0,0,1,0,1,1,0005-00-0000-65.png,0001-00-0001-11.png
00000009,253,0,1447186951364,1447186951460,862,500,0,0,0,1,2,1,3,0005-00-0001-05.png,0003-00-0000-78.png
00000009,254,0,1447186954543,1447186955110,1077,279,0,0,0,2,3,1,5,0003-00-0000-60.png,0002-00-0000-06.png
00000009,255,1,1447186958194,1447186958699,1092,251,0,0,0,2,1,1,3,0003-00-0000-50.png,0005-00-0001-86.png
00000009,256,1,1447186959551,1447186960186,480,219,0,0,0,0,1,1,1,0001-00-0000-32.png,0005-00-0000-01.png
00000009,257,0,1447186961197,1447186962051,469,232,0,0,0,3,2,1,5,0002-00-0000-57.png,0003-00-0000-63.png
00000009,258,1,1447186964906,1447186965503,469,230,0,0,0,0,1,1,1,0001-00-0000-11.png,0005-00-0001-98.png
00000009,259,1,1447186967046,1447186967539,392,390,0,0,0,1,2,1,3,0005-00-0000-28.png,0003-00-0000-62.png
00000009,260,1,1447186968516,1447186969408,913,304,0,0,0,2,1,1,3,0003-00-0001-11.png,0005-00-0001-07.png
00000009,261,0,1447186970395,1447186970447,862,436,0,0,0,2,3,1,5,0003-00-0000-85.png,0002-00-0001-15.png
00000009,262,1,1447186973368,1447186973603,913,410,0,0,0,4,3,1,7,0004-00-0001-88.png,0002-00-0001-12.png
00000009,263,1,1447186974551,1447186975191,427,395,0,0,0,3,4,1,7,0002-00-0001-40.png,0004-00-0001-46.png
00000009,264,1,1447186976160,1447186976972,1048,235,0,0,0,1,0,1,1,0005-00-0000-73.png,0001-00-0001-43.png
00000009,265,1,1447186977900,1447186977980,872,462,0,0,0,4,3,1,7,0004-00-0000-04.png,0002-00-0000-41.png
00000009,266,0,1447186979199,1447186979239,857,490,0,0,0,2,3,1,5,0003-00-0000-83.png,0002-00-0000-75.png
00000009,267,1,1447186982282,1447186982902,940,331,0,0,0,1,0,1,1,0005-00-0001-49.png,0001-00-0000-17.png
00000009,268,1,1447186984380,1447186985339,445,263,0,0,0,3,4,1,7,0002-00-0001-55.png,0004-00-0001-39.png
00000009,269,1,1447186986224,1447186986880,469,235,0,0,0,0,1,1,1,0001-00-0001-70.png,0005-00-0000-80.png
00000009,270,1,1447186988083,1447186988170,862,488,0,0,0,3,2,1,5,0002-00-0000-56.png,0003-00-0000-38.png
00000009,271,1,1447186989187,1447186990566,365,342,0,0,0,1,2,1,3,0005-00-0001-91.png,0003-00-0000-29.png
00000009,272,1,1447186991553,1447186992283,1042,287,0,0,0,2,1,1,3,0003-00-0001-24.png,0005-00-0000-52.png
00000009,273,0,1447186993194,1447186993242,857,423,0,0,0,0,1,1,1,0001-00-0000-15.png,0005-00-0001-58.png
00000009,274,1,1447186996243,1447186996287,866,296,0,0,0,1,0,1,1,0005-00-0000-94.png,0001-00-0001-17.png
00000009,275,1,1447186997236,1447186998005,1037,255,0,0,0,2,1,1,3,0003-00-0001-53.png,0005-00-0000-93.png
00000009,276,0,1447186998915,1447186998948,861,410,0,0,0,1,2,1,3,0005-00-0001-71.png,0003-00-0001-08.png
00000009,277,1,1447187001996,1447187002036,909,302,0,0,0,3,2,1,5,0002-00-0000-69.png,0003-00-0001-44.png
00000009,278,0,1447187002959,1447187002999,862,462,0,0,0,2,3,1,5,0003-00-0001-69.png,0002-00-0001-48.png
00000009,279,1,1447187006121,1447187006721,964,322,0,0,0,4,3,1,7,0004-00-0001-40.png,0002-00-0001-94.png
00000009,280,1,1447187007599,1447187008270,389,339,0,0,0,3,4,1,7,0002-00-0000-23.png,0004-00-0000-09.png
00000009,281,0,1447187009279,1447187009945,417,390,0,0,0,1,0,1,1,0005-00-0000-65.png,0001-00-0000-75.png
00000009,282,0,1447187012957,1447187012973,865,327,0,0,0,3,4,1,7,0002-00-0001-18.png,0004-00-0001-06.png
00000009,283,0,1447187015977,1447187016013,872,384,0,0,0,2,3,1,5,0003-00-0001-51.png,0002-00-0001-71.png
00000009,284,1,1447187019040,1447187019060,869,353,0,0,0,4,3,1,7,0004-00-0000-60.png,0002-00-0000-54.png
00000009,285,1,1447187019952,1447187020575,374,382,0,0,0,0,1,1,1,0001-00-0001-12.png,0005-00-0001-18.png
00000009,286,0,1447187021512,1447187022300,452,254,0,0,0,3,2,1,5,0002-00-0000-05.png,0003-00-0001-56.png
00000009,287,0,1447187025426,1447187025470,895,292,0,0,0,1,2,1,3,0005-00-0001-24.png,0003-00-0001-84.png
00000009,288,1,1447187028577,1447187029105,968,331,0,0,0,2,1,1,3,0003-00-0000-56.png,0005-00-0001-22.png
00000009,289,0,1447187029940,1447187029952,863,382,0,0,0,3,4,1,7,0002-00-0000-71.png,0004-00-0000-22.png
00000009,290,1,1447187032921,1447187033432,1064,269,0,0,0,1,0,1,1,0005-00-0000-42.png,0001-00-0000-23.png
00000009,291,1,1447187034798,1447187034834,862,399,0,0,0,4,3,1,7,0004-00-0001-57.png,0002-00-0000-78.png
00000009,292,0,1447187035802,1447187036625,918,297,0,0,0,2,3,1,5,0003-00-0001-99.png,0002-00-0000-32.png
00000009,293,1,1447187039479,1447187039991,478,234,0,0,0,0,1,1,1,0001-00-0001-63.png,0005-00-0000-03.png
00000009,294,1,1447187040857,1447187041807,1029,261,0,0,0,2,1,1,3,0003-00-0000-36.png,0005-00-0001-68.png
00000009,295,0,1447187042760,1447187042796,858,392,0,0,0,1,2,1,3,0005-00-0000-63.png,0003-00-0000-20.png
00000009,296,0,1447187045849,1447187046356,489,248,0,0,0,3,2,1,5,0002-00-0001-14.png,0003-00-0000-03.png
00000009,297,0,1447187049231,1447187049731,347,352,0,0,0,1,0,1,1,0005-00-0000-51.png,0001-00-0000-73.png
00000009,298,1,1447187052905,1447187053390,968,318,0,0,0,2,1,1,3,0003-00-0000-99.png,0005-00-0000-67.png
00000009,299,1,1447187054733,1447187055548,470,238,0,0,0,1,2,1,3,0005-00-0000-73.png,0003-00-0001-17.png
00000009,300,1,1447187056453,1447187057284,360,354,0,0,0,0,1,1,1,0001-00-0001-46.png,0005-00-0001-35.png
00000009,301,1,1447187058360,1447187059086,475,236,0,0,0,3,4,1,7,0002-00-0001-75.png,0004-00-0000-54.png
00000009,302,0,1447187060199,1447187060877,490,236,0,0,0,4,3,1,7,0004-00-0001-84.png,0002-00-0001-51.png
00000009,303,0,1447187063974,1447187064409,971,324,0,0,0,2,3,1,5,0003-00-0001-30.png,0002-00-0000-55.png
00000009,304,0,1447187067484,1447187067959,475,240,0,0,0,3,2,1,5,0002-00-0001-51.png,0003-00-0000-43.png
00000009,305,1,1447187071051,1447187071647,480,252,0,0,0,3,4,1,7,0002-00-0001-13.png,0004-00-0000-00.png
00000009,306,0,1447187072500,1447187073323,376,316,0,0,0,1,0,1,1,0005-00-0001-67.png,0001-00-0001-88.png
00000009,307,0,1447187076417,1447187076972,482,258,0,0,0,4,3,1,7,0004-00-0000-50.png,0002-00-0001-21.png
00000009,308,0,1447187080105,1447187080357,910,355,0,0,0,2,3,1,5,0003-00-0001-92.png,0002-00-0001-46.png
00000009,309,1,1447187083344,1447187083797,461,261,0,0,0,1,2,1,3,0005-00-0000-18.png,0003-00-0000-54.png
00000009,310,0,1447187084645,1447187085522,460,219,0,0,0,3,2,1,5,0002-00-0001-77.png,0003-00-0000-85.png
00000009,311,1,1447187088571,1447187089084,1090,251,0,0,0,2,1,1,3,0003-00-0000-80.png,0005-00-0001-34.png
00000009,312,1,1447187090458,1447187091213,415,332,0,0,0,0,1,1,1,0001-00-0000-93.png,0005-00-0000-87.png
00000009,313,1,1447187092137,1447187092783,511,246,0,0,0,1,2,1,3,0005-00-0001-22.png,0003-00-0000-04.png
00000009,314,1,1447187093720,1447187094684,1044,264,0,0,0,3,2,1,5,0002-00-0000-63.png,0003-00-0000-79.png
00000009,315,0,1447187095546,1447187095618,882,412,0,0,0,0,1,1,1,0001-00-0000-22.png,0005-00-0000-69.png
00000009,316,1,1447187098677,1447187099211,970,313,0,0,0,2,1,1,3,0003-00-0001-95.png,0005-00-0000-44.png
00000009,317,1,1447187100576,1447187101264,1041,279,0,0,0,1,0,1,1,0005-00-0001-66.png,0001-00-0001-05.png
00000009,318,0,1447187102198,1447187102234,906,445,0,0,0,3,4,1,7,0002-00-0000-32.png,0004-00-0000-06.png
00000009,319,0,1447187105088,1447187105203,1026,413,0,0,0,2,3,1,5,0003-00-0001-10.png,0002-00-0000-85.png
00000009,320,1,1447187108179,1447187108207,896,395,0,0,0,4,3,1,7,0004-00-0000-45.png,0002-00-0000-75.png
00000009,321,0,1447187109152,1447187109861,513,222,0,0,0,3,2,1,5,0002-00-0001-55.png,0003-00-0001-45.png
00000009,322,0,1447187112893,1447187113379,1072,275,0,0,0,2,3,1,5,0003-00-0001-30.png,0002-00-0001-60.png
00000009,323,1,1447187116541,1447187117141,969,347,0,0,0,4,3,1,7,0004-00-0000-26.png,0002-00-0000-82.png
00000009,324,0,1447187117965,1447187118731,960,320,0,0,0,0,1,1,1,0001-00-0000-90.png,0005-00-0000-85.png
00000009,325,1,1447187121942,1447187122466,449,273,0,0,0,3,4,1,7,0002-00-0001-75.png,0004-00-0000-27.png
00000009,326,0,1447187123299,1447187123961,510,234,0,0,0,1,0,1,1,0005-00-0001-97.png,0001-00-0001-17.png
00000009,327,0,1447187127048,1447187127090,894,307,0,0,0,1,2,1,3,0005-00-0001-58.png,0003-00-0000-95.png
00000009,328,0,1447187130220,1447187130714,502,246,0,0,0,2,1,1,3,0003-00-0001-55.png,0005-00-0001-97.png
00000009,329,0,1447187133688,1447187134299,1083,269,0,0,0,0,1,1,1,0001-00-0000-87.png,0005-00-0000-70.png
00000009,330,1,1447187137173,1447187137189,914,383,0,0,0,1,0,1,1,0005-00-0000-20.png,0001-00-0000-78.png
00000009,331,0,1447187138150,1447187138170,862,384,0,0,0,2,3,1,5,0003-00-0001-81.png,0002-00-0000-53.png
00000009,332,1,1447187141269,1447187141297,892,301,0,0,0,2,1,1,3,0003-00-0001-31.png,0005-00-0001-15.png
00000009,333,0,1447187142224,1447187142280,862,420,0,0,0,3,4,1,7,0002-00-0000-41.png,0004-00-0001-67.png
00000009,334,1,1447187145175,1447187145769,459,263,0,0,0,1,2,1,3,0005-00-0001-70.png,0003-00-0000-26.png
00000009,335,0,1447187147252,1447187147826,475,252,0,0,0,3,2,1,5,0002-00-0000-98.png,0003-00-0000-82.png
00000009,336,0,1447187150977,1447187151635,393,314,0,0,0,4,3,1,7,0004-00-0000-71.png,0002-00-0001-44.png
00000009,337,1,1447187154482,1447187154534,875,351,0,0,0,3,2,1,5,0002-00-0000-92.png,0003-00-0000-10.png
00000009,338,0,1447187155440,1447187156201,492,227,0,0,0,1,0,1,1,0005-00-0001-20.png,0001-00-0001-57.png
00000009,339,1,1447187159734,1447187160340,401,383,0,0,0,3,4,1,7,0002-00-0001-67.png,0004-00-0000-11.png
00000009,340,0,1447187161182,1447187161879,919,341,0,0,0,0,1,1,1,0001-00-0000-79.png,0005-00-0000-87.png
00000009,341,1,1447187164700,1447187164724,866,432,0,0,0,2,1,1,3,0003-00-0001-45.png,0005-00-0000-57.png
00000009,342,0,1447187165687,1447187165715,861,433,0,0,0,1,2,1,3,0005-00-0001-17.png,0003-00-0000-52.png
00000009,343,1,1447187168787,1447187169295,960,306,0,0,0,4,3,1,7,0004-00-0000-14.png,0002-00-0000-16.png
00000009,344,0,1447187170116,1447187170156,884,421,0,0,0,2,3,1,5,0003-00-0000-94.png,0002-00-0000-07.png
00000009,345,0,1447187173307,1447187173797,943,305,0,0,0,2,3,1,5,0003-00-0000-64.png,0002-00-0000-87.png
00000009,346,0,1447187176644,1447187177147,488,227,0,0,0,3,2,1,5,0002-00-0001-28.png,0003-00-0000-55.png
00000009,347,0,1447187180025,1447187180821,936,331,0,0,0,1,2,1,3,0005-00-0000-37.png,0003-00-0000-48.png
00000009,348,1,1447187183933,1447187184440,1068,251,0,0,0,2,1,1,3,0003-00-0001-13.png,0005-00-0000-34.png
00000009,349,1,1447187185332,1447187186246,1045,257,0,0,0,1,0,1,1,0005-00-0000-81.png,0001-00-0000-89.png
00000009,350,0,1447187187192,1447187187283,888,410,0,0,0,0,1,1,1,0001-00-0000-90.png,0005-00-0000-61.png
00000009,351,0,1447187190361,1447187190397,884,334,0,0,0,3,4,1,7,0002-00-0000-92.png,0004-00-0000-50.png
00000009,352,1,1447187193246,1447187193967,968,329,0,0,0,4,3,1,7,0004-00-0000-43.png,0002-00-0000-27.png
00000009,353,1,1447187194882,1447187195828,456,404,0,0,0,1,2,1,3,0005-00-0001-31.png,0003-00-0001-98.png
00000009,354,0,1447187196770,1447187197489,401,348,0,0,0,3,2,1,5,0002-00-0001-44.png,0003-00-0000-80.png
00000009,355,1,1447187200635,1447187201179,454,239,0,0,0,3,4,1,7,0002-00-0000-76.png,0004-00-0001-53.png
00000009,356,1,1447187202035,1447187202939,1043,278,0,0,0,4,3,1,7,0004-00-0001-33.png,0002-00-0000-37.png
00000009,357,1,1447187203845,1447187204658,1069,261,0,0,0,2,1,1,3,0003-00-0001-90.png,0005-00-0001-51.png
00000009,358,0,1447187205731,1447187205765,916,408,0,0,0,2,3,1,5,0003-00-0001-44.png,0002-00-0000-94.png
00000009,359,0,1447187208676,1447187208684,896,364,0,0,0,0,1,1,1,0001-00-0000-34.png,0005-00-0001-00.png
00000009,360,1,1447187211885,1447187212507,974,384,0,0,0,1,0,1,1,0005-00-0001-85.png,0001-00-0000-69.png
00000009,361,1,1447187213333,1447187214076,921,330,0,0,0,1,0,1,1,0005-00-0001-67.png,0001-00-0001-15.png
00000009,362,0,1447187214976,1447187215024,869,402,0,0,0,0,1,1,1,0001-00-0000-37.png,0005-00-0001-77.png
00000009,363,1,1447187217948,1447187218533,939,399,0,0,0,2,1,1,3,0003-00-0000-32.png,0005-00-0001-25.png
00000009,364,0,1447187219356,1447187220292,390,343,0,0,0,3,2,1,5,0002-00-0001-29.png,0003-00-0001-28.png
00000009,365,1,1447187223470,1447187224147,476,275,0,0,0,3,4,1,7,0002-00-0001-34.png,0004-00-0000-34.png
00000009,366,0,1447187224990,1447187225066,878,436,0,0,0,2,3,1,5,0003-00-0000-44.png,0002-00-0001-83.png
00000009,367,1,1447187228242,1447187228852,476,265,0,0,0,1,2,1,3,0005-00-0001-56.png,0003-00-0001-11.png
00000009,368,0,1447187229700,1447187230589,385,351,0,0,0,4,3,1,7,0004-00-0000-75.png,0002-00-0000-69.png
00000009,369,1,1447187233717,1447187233745,913,332,0,0,0,2,1,1,3,0003-00-0001-00.png,0005-00-0001-98.png
00000009,370,0,1447187234693,1447187234713,859,411,0,0,0,3,4,1,7,0002-00-0000-27.png,0004-00-0000-94.png
00000009,371,1,1447187237743,1447187238218,1073,259,0,0,0,4,3,1,7,0004-00-0001-02.png,0002-00-0000-41.png
00000009,372,0,1447187239060,1447187239121,888,410,0,0,0,2,3,1,5,0003-00-0001-07.png,0002-00-0001-32.png
00000009,373,1,1447187242308,1447187242878,500,221,0,0,0,0,1,1,1,0001-00-0000-38.png,0005-00-0001-28.png
00000009,374,1,1447187244265,1447187245156,513,227,0,0,0,1,2,1,3,0005-00-0001-78.png,0003-00-0001-91.png
00000009,375,0,1447187246079,1447187246862,441,384,0,0,0,1,0,1,1,0005-00-0001-22.png,0001-00-0000-87.png
00000009,376,0,1447187250025,1447187250551,491,228,0,0,0,3,2,1,5,0002-00-0001-97.png,0003-00-0001-99.png
00000009,377,0,1447187253391,1447187254054,476,261,0,0,0,3,2,1,5,0002-00-0001-63.png,0003-00-0001-09.png
00000009,378,1,1447187257221,1447187257736,964,401,0,0,0,2,1,1,3,0003-00-0000-84.png,0005-00-0001-66.png
00000009,379,0,1447187258566,1447187258669,862,436,0,0,0,3,4,1,7,0002-00-0000-08.png,0004-00-0000-20.png
00000009,380,1,1447187261692,1447187262253,1067,279,0,0,0,4,3,1,7,0004-00-0000-70.png,0002-00-0000-11.png
00000009,381,1,1447187263097,1447187263172,888,436,0,0,0,1,0,1,1,0005-00-0000-95.png,0001-00-0000-73.png
00000009,382,0,1447187264388,1447187264480,862,486,0,0,0,1,2,1,3,0005-00-0000-30.png,0003-00-0001-93.png
00000009,383,0,1447187267647,1447187268136,990,410,0,0,0,0,1,1,1,0001-00-0001-75.png,0005-00-0000-00.png
00000009,384,0,1447187271113,1447187271173,909,353,0,0,0,2,3,1,5,0003-00-0001-47.png,0002-00-0001-61.png
00000009,385,1,1447187274311,1447187274351,870,288,0,0,0,3,2,1,5,0002-00-0001-40.png,0003-00-0001-64.png
00000009,386,1,1447187275285,1447187276050,1032,279,0,0,0,2,1,1,3,0003-00-0001-91.png,0005-00-0001-27.png
00000009,387,0,1447187276974,1447187277041,858,390,0,0,0,2,3,1,5,0003-00-0000-40.png,0002-00-0001-15.png
00000009,388,0,1447187279967,1447187280626,968,323,0,0,0,1,2,1,3,0005-00-0000-17.png,0003-00-0000-58.png
00000009,389,1,1447187283851,1447187284406,1067,279,0,0,0,4,3,1,7,0004-00-0001-95.png,0002-00-0001-10.png
00000009,390,0,1447187285231,1447187285283,873,410,0,0,0,3,4,1,7,0002-00-0001-09.png,0004-00-0001-76.png
00000009,391,1,1447187288421,1447187288907,940,308,0,0,0,1,0,1,1,0005-00-0001-43.png,0001-00-0000-64.png
00000009,392,0,1447187289752,1447187289792,864,408,0,0,0,0,1,1,1,0001-00-0001-10.png,0005-00-0001-79.png
00000009,393,1,1447187292763,1447187293340,484,237,0,0,0,3,4,1,7,0002-00-0000-54.png,0004-00-0000-54.png
00000009,394,1,1447187294732,1447187295416,934,330,0,0,0,4,3,1,7,0004-00-0001-16.png,0002-00-0000-31.png
00000009,395,0,1447187296352,1447187296443,869,450,0,0,0,1,2,1,3,0005-00-0000-61.png,0003-00-0000-87.png
00000009,396,1,1447187299411,1447187299876,934,308,0,0,0,2,1,1,3,0003-00-0001-64.png,0005-00-0000-07.png
00000009,397,1,1447187300720,1447187300781,861,466,0,0,0,3,2,1,5,0002-00-0001-64.png,0003-00-0001-43.png
00000009,398,1,1447187301896,1447187302823,1040,307,0,0,0,1,0,1,1,0005-00-0000-61.png,0001-00-0000-28.png
00000009,399,0,1447187303669,1447187303688,870,421,0,0,0,2,3,1,5,0003-00-0001-57.png,0002-00-0001-12.png
00000009,400,1,1447187306834,1447187307348,476,279,0,0,0,0,1,1,1,0001-00-0001-52.png,0005-00-0000-26.png
00000009,401,1,1447187308754,1447187309361,1041,272,0,0,0,2,1,1,3,0003-00-0001-34.png,0005-00-0001-29.png
00000009,402,0,1447187310264,1447187311053,917,330,0,0,0,2,3,1,5,0003-00-0000-10.png,0002-00-0001-73.png
00000009,403,1,1447187314181,1447187314680,492,255,0,0,0,1,2,1,3,0005-00-0001-91.png,0003-00-0001-15.png
00000009,404,0,1447187315538,1447187326079,995,297,0,0,0,3,4,1,7,0002-00-0001-39.png,0004-00-0000-12.png
00000009,405,0,1447187329202,1447187329714,461,271,0,0,0,3,2,1,5,0002-00-0000-58.png,0003-00-0000-50.png
00000009,406,1,1447187332879,1447187332907,888,301,0,0,0,1,0,1,1,0005-00-0001-78.png,0001-00-0001-85.png
00000009,407,0,1447187333885,1447187334601,914,358,0,0,0,0,1,1,1,0001-00-0001-15.png,0005-00-0001-01.png
00000009,408,1,1447187337689,1447187337717,927,305,0,0,0,4,3,1,7,0004-00-0000-93.png,0002-00-0001-49.png
00000009,409,0,1447187338703,1447187339960,413,318,0,0,0,4,3,1,7,0004-00-0001-18.png,0002-00-0000-76.png
00000009,410,0,1447187343136,1447187343721,940,315,0,0,0,1,2,1,3,0005-00-0001-27.png,0003-00-0001-76.png
00000009,411,1,1447187346655,1447187346675,862,406,0,0,0,2,1,1,3,0003-00-0001-27.png,0005-00-0001-39.png
00000009,412,0,1447187347637,1447187348457,1018,251,0,0,0,0,1,1,1,0001-00-0000-01.png,0005-00-0001-11.png
00000009,413,0,1447187351504,1447187351552,888,332,0,0,0,3,4,1,7,0002-00-0001-86.png,0004-00-0000-08.png
00000009,414,0,1447187354466,1447187354989,961,412,0,0,0,2,3,1,5,0003-00-0001-73.png,0002-00-0000-99.png
00000009,415,1,1447187357853,1447187357865,887,403,0,0,0,1,0,1,1,0005-00-0001-38.png,0001-00-0001-60.png
00000009,416,1,1447187358800,1447187358839,868,404,0,0,0,3,2,1,5,0002-00-0001-38.png,0003-00-0001-81.png
00000009,417,1,1447187359942,1447187360952,384,346,0,0,0,3,4,1,7,0002-00-0001-88.png,0004-00-0000-36.png
00000009,418,1,1447187361880,1447187362620,492,227,0,0,0,1,2,1,3,0005-00-0001-80.png,0003-00-0001-06.png
00000009,419,0,1447187363570,1447187363618,864,433,0,0,0,2,3,1,5,0003-00-0001-95.png,0002-00-0001-69.png
00000009,420,1,1447187367485,1447187368042,959,409,0,0,0,2,1,1,3,0003-00-0001-57.png,0005-00-0000-12.png
00000009,421,1,1447187369371,1447187369928,940,355,0,0,0,1,0,1,1,0005-00-0000-27.png,0001-00-0001-80.png
00000009,422,1,1447187370833,1447187370883,888,422,0,0,0,4,3,1,7,0004-00-0001-44.png,0002-00-0000-22.png
00000009,423,0,1447187371986,1447187372669,512,247,0,0,0,3,2,1,5,0002-00-0001-22.png,0003-00-0001-81.png
00000009,424,0,1447187375840,1447187376375,954,332,0,0,0,0,1,1,1,0001-00-0000-02.png,0005-00-0001-82.png
00000009,425,0,1447187379300,1447187379415,889,375,0,0,0,3,4,1,7,0002-00-0000-00.png,0004-00-0000-89.png
00000009,426,1,1447187382359,1447187382426,865,416,0,0,0,3,2,1,5,0002-00-0000-11.png,0003-00-0001-39.png
00000009,427,0,1447187383354,1447187383398,868,428,0,0,0,2,3,1,5,0003-00-0000-62.png,0002-00-0001-65.png
00000009,428,1,1447187386571,1447187387107,506,263,0,0,0,0,1,1,1,0001-00-0001-86.png,0005-00-0000-33.png
00000009,429,1,1447187387933,1447187388717,938,314,0,0,0,2,1,1,3,0003-00-0001-74.png,0005-00-0001-01.png
00000009,430,0,1447187389696,1447187389768,905,436,0,0,0,1,2,1,3,0005-00-0001-31.png,0003-00-0001-37.png
00000009,431,1,1447187392893,1447187393440,1078,279,0,0,0,1,0,1,1,0005-00-0001-55.png,0001-00-0000-32.png
00000009,432,1,1447187394302,1447187395277,1030,259,0,0,0,4,3,1,7,0004-00-0001-50.png,0002-00-0001-01.png
00000009,433,0,1447187396203,1447187396251,888,384,0,0,0,3,4,1,7,0002-00-0001-20.png,0004-00-0001-57.png
00000009,434,0,1447187399172,1447187399698,1072,284,0,0,0,2,3,1,5,0003-00-0000-73.png,0002-00-0000-08.png
00000009,435,1,1447187402838,1447187403296,419,376,0,0,0,1,2,1,3,0005-00-0001-13.png,0003-00-0000-77.png
00000009,436,0,1447187404159,1447187405084,498,219,0,0,0,3,2,1,5,0002-00-0000-05.png,0003-00-0000-09.png
00000009,437,1,1447187407958,1447187408633,1041,279,0,0,0,4,3,1,7,0004-00-0000-79.png,0002-00-0001-77.png
00000009,438,1,1447187409461,1447187410338,1041,263,0,0,0,2,1,1,3,0003-00-0001-91.png,0005-00-0001-70.png
00000009,439,0,1447187411307,1447187411347,882,441,0,0,0,0,1,1,1,0001-00-0000-17.png,0005-00-0000-64.png
00000009,440,1,1447187414195,1447187414824,946,326,0,0,0,1,0,1,1,0005-00-0001-77.png,0001-00-0000-42.png
00000009,441,1,1447187415678,1447187415726,878,436,0,0,0,2,1,1,3,0003-00-0001-62.png,0005-00-0000-22.png
00000009,442,0,1447187416740,1447187417745,1053,269,0,0,0,0,1,1,1,0001-00-0000-79.png,0005-00-0001-51.png
00000009,443,0,1447187420887,1447187420927,893,308,0,0,0,3,4,1,7,0002-00-0000-93.png,0004-00-0001-43.png
00000009,444,0,1447187423997,1447187424552,516,267,0,0,0,3,2,1,5,0002-00-0001-04.png,0003-00-0000-18.png
00000009,445,0,1447187427624,1447187428157,1113,258,0,0,0,2,3,1,5,0003-00-0001-43.png,0002-00-0000-24.png
00000009,446,1,1447187431116,1447187431618,463,252,0,0,0,1,2,1,3,0005-00-0000-24.png,0003-00-0001-49.png
00000009,447,1,1447187432482,1447187433248,1039,273,0,0,0,1,0,1,1,0005-00-0001-24.png,0001-00-0000-34.png
00000009,448,1,1447187434122,1447187434154,868,395,0,0,0,4,3,1,7,0004-00-0001-53.png,0002-00-0000-06.png
00000009,449,1,1447187435366,1447187436183,412,319,0,0,0,0,1,1,1,0001-00-0001-71.png,0005-00-0001-75.png
00000009,450,1,1447187437136,1447187437156,867,414,0,0,0,4,3,1,7,0004-00-0001-94.png,0002-00-0001-80.png
00000009,451,1,1447187438336,1447187439135,920,300,0,0,0,2,1,1,3,0003-00-0000-12.png,0005-00-0000-06.png
00000009,452,0,1447187440045,1447187440089,881,418,0,0,0,2,3,1,5,0003-00-0000-20.png,0002-00-0000-83.png
00000009,453,1,1447187443195,1447187443683,503,238,0,0,0,3,4,1,7,0002-00-0001-67.png,0004-00-0000-38.png
00000009,454,0,1447187445104,1447187445729,493,251,0,0,0,3,2,1,5,0002-00-0000-61.png,0003-00-0001-75.png
00000009,455,0,1447187448711,1447187449352,939,402,0,0,0,1,2,1,3,0005-00-0001-06.png,0003-00-0000-34.png
00000009,456,1,1447187452478,1447187452518,893,334,0,0,0,1,0,1,1,0005-00-0000-97.png,0001-00-0000-84.png
00000009,457,0,1447187453520,1447187453540,898,428,0,0,0,1,2,1,3,0005-00-0000-06.png,0003-00-0001-13.png
00000009,458,1,1447187456404,1447187456937,964,375,0,0,0,3,2,1,5,0002-00-0001-61.png,0003-00-0001-44.png
00000009,459,0,1447187457793,1447187458572,939,293,0,0,0,2,3,1,5,0003-00-0001-49.png,0002-00-0001-75.png
00000009,460,1,1447187461723,1447187462216,1070,271,0,0,0,2,1,1,3,0003-00-0000-95.png,0005-00-0001-17.png
00000009,461,0,1447187463124,1447187463188,890,455,0,0,0,3,4,1,7,0002-00-0000-99.png,0004-00-0000-74.png
00000009,462,1,1447187466276,1447187466292,915,327,0,0,0,4,3,1,7,0004-00-0001-88.png,0002-00-0000-77.png
00000009,463,0,1447187467208,1447187467236,862,384,0,0,0,0,1,1,1,0001-00-0000-45.png,0005-00-0000-73.png
00000009,464,1,1447187470377,1447187470916,1069,280,0,0,0,1,0,1,1,0005-00-0000-72.png,0001-00-0001-74.png
00000009,465,0,1447187471819,1447187471847,901,428,0,0,0,1,2,1,3,0005-00-0001-21.png,0003-00-0001-55.png
00000009,466,0,1447187474869,1447187474897,900,350,0,0,0,2,3,1,5,0003-00-0001-19.png,0002-00-0001-58.png
00000009,467,1,1447187478058,1447187478615,964,322,0,0,0,4,3,1,7,0004-00-0000-50.png,0002-00-0000-01.png
00000009,468,0,1447187479478,1447187479498,862,411,0,0,0,0,1,1,1,0001-00-0000-24.png,0005-00-0001-45.png
00000009,469,1,1447187482641,1447187483136,964,317,0,0,0,2,1,1,3,0003-00-0000-54.png,0005-00-0001-19.png
00000009,470,1,1447187483968,1447187484000,862,402,0,0,0,1,0,1,1,0005-00-0001-80.png,0001-00-0000-48.png
00000009,471,1,1447187485274,1447187486079,506,220,0,0,0,3,4,1,7,0002-00-0000-79.png,0004-00-0000-93.png
00000009,472,1,1447187487003,1447187487041,879,436,0,0,0,3,2,1,5,0002-00-0001-09.png,0003-00-0000-67.png
00000009,473,1,1447187488313,1447187488349,873,462,0,0,0,3,2,1,5,0002-00-0000-91.png,0003-00-0001-86.png
00000009,474,0,1447187489488,1447187490267,1018,264,0,0,0,1,2,1,3,0005-00-0000-00.png,0003-00-0001-01.png
00000009,475,1,1447187493419,1447187493439,889,316,0,0,0,2,1,1,3,0003-00-0000-26.png,0005-00-0001-00.png
00000009,476,1,1447187494336,1447187495248,1019,318,0,0,0,4,3,1,7,0004-00-0000-31.png,0002-00-0000-74.png
00000009,477,1,1447187496175,1447187496191,887,391,0,0,0,1,0,1,1,0005-00-0000-14.png,0001-00-0001-80.png
00000009,478,0,1447187497338,1447187497385,877,462,0,0,0,0,1,1,1,0001-00-0001-60.png,0005-00-0000-41.png
00000009,479,1,1447187500556,1447187501249,482,271,0,0,0,2,3,1,5,0003-00-0000-88.png,0002-00-0000-49.png
00000009,480,1,1447187502664,1447187503347,504,234,0,0,0,3,4,1,7,0002-00-0000-51.png,0004-00-0001-83.png
00000009,481,1,1447187504243,1447187505165,1021,298,0,0,0,2,1,1,3,0003-00-0000-93.png,0005-00-0000-84.png
00000009,482,1,1447187506101,1447187506141,870,454,0,0,0,4,3,1,7,0004-00-0000-38.png,0002-00-0001-79.png
00000009,483,1,1447187507313,1447187507341,862,436,0,0,0,1,0,1,1,0005-00-0001-60.png,0001-00-0000-68.png
00000009,484,1,1447187508388,1447187508452,877,488,0,0,0,3,2,1,5,0002-00-0001-63.png,0003-00-0000-27.png
00000009,485,0,1447187509648,1447187509696,862,502,0,0,0,3,4,1,7,0002-00-0001-14.png,0004-00-0000-07.png
00000009,486,0,1447187512699,1447187512719,869,404,0,0,0,1,2,1,3,0005-00-0001-22.png,0003-00-0000-67.png
00000009,487,1,1447187515779,1447187516266,423,376,0,0,0,0,1,1,1,0001-00-0000-83.png,0005-00-0001-53.png
00000009,488,0,1447187517117,1447187517161,865,402,0,0,0,2,3,1,5,0003-00-0001-18.png,0002-00-0001-38.png
00000009,489,1,1447187520031,1447187520051,888,410,0,0,0,3,2,1,5,0002-00-0000-29.png,0003-00-0001-17.png
00000009,490,0,1447187520978,1447187520990,864,407,0,0,0,3,4,1,7,0002-00-0001-85.png,0004-00-0001-51.png
00000009,491,1,1447187524634,1447187525218,955,328,0,0,0,4,3,1,7,0004-00-0000-68.png,0002-00-0000-60.png
00000009,492,1,1447187526082,1447187526154,862,462,0,0,0,2,1,1,3,0003-00-0000-22.png,0005-00-0001-96.png
00000009,493,1,1447187527138,1447187527928,458,378,0,0,0,0,1,1,1,0001-00-0001-27.png,0005-00-0001-07.png
00000009,494,0,1447187529066,1447187530005,1017,297,0,0,0,2,3,1,5,0003-00-0001-35.png,0002-00-0000-04.png
00000009,495,1,1447187533169,1447187533181,862,319,0,0,0,1,0,1,1,0005-00-0001-00.png,0001-00-0001-94.png
00000009,496,1,1447187534076,1447187534718,499,226,0,0,0,1,2,1,3,0005-00-0001-60.png,0003-00-0000-05.png
00000009,497,1,1447187535685,1447187536365,510,226,0,0,0,0,1,1,1,0001-00-0001-94.png,0005-00-0001-67.png
00000009,498,1,1447187537424,1447187537507,860,464,0,0,0,1,0,1,1,0005-00-0001-64.png,0001-00-0001-94.png
00000009,499,0,1447187538733,1447187539410,490,240,0,0,0,3,2,1,5,0002-00-0000-32.png,0003-00-0001-53.png
00000009,500,0,1447187542232,1447187542252,874,386,0,0,0,2,3,1,5,0003-00-0001-88.png,0002-00-0000-95.png
00000009,501,1,1447187545163,1447187545707,939,329,0,0,0,4,3,1,7,0004-00-0001-00.png,0002-00-0000-22.png
00000009,502,0,1447187546574,1447187546586,868,417,0,0,0,3,4,1,7,0002-00-0001-32.png,0004-00-0001-72.png
00000009,503,1,1447187549704,1447187550529,470,240,0,0,0,1,2,1,3,0005-00-0001-14.png,0003-00-0001-32.png
00000009,504,1,1447187551350,1447187552156,1048,272,0,0,0,2,1,1,3,0003-00-0000-98.png,0005-00-0001-52.png
00000009,505,0,1447187553065,1447187553085,862,402,0,0,0,1,2,1,3,0005-00-0000-89.png,0003-00-0001-90.png
00000009,506,0,1447187556122,1447187556618,1067,279,0,0,0,2,3,1,5,0003-00-0000-02.png,0002-00-0001-42.png
00000009,507,0,1447187559683,1447187559731,877,301,0,0,0,0,1,1,1,0001-00-0000-25.png,0005-00-0000-67.png
00000009,508,1,1447187562685,1447187563215,489,261,0,0,0,3,4,1,7,0002-00-0001-03.png,0004-00-0001-39.png
00000009,509,1,1447187564063,1447187564942,910,321,0,0,0,1,0,1,1,0005-00-0001-97.png,0001-00-0001-55.png
00000009,510,0,1447187565854,1447187566662,396,310,0,0,0,4,3,1,7,0004-00-0000-35.png,0002-00-0000-51.png
00000009,511,0,1447187569530,1447187570227,483,283,0,0,0,3,2,1,5,0002-00-0001-26.png,0003-00-0001-53.png
00000009,512,1,1447187573367,1447187573929,1067,265,0,0,0,2,1,1,3,0003-00-0000-28.png,0005-00-0000-35.png
00000009,513,1,1447187574765,1447187575821,477,245,0,0,0,1,2,1,3,0005-00-0000-87.png,0003-00-0000-74.png
00000009,514,1,1447187576716,1447187576744,872,410,0,0,0,4,3,1,7,0004-00-0001-42.png,0002-00-0000-88.png
00000009,515,1,1447187577942,1447187578002,859,469,0,0,0,2,1,1,3,0003-00-0001-54.png,0005-00-0000-41.png
00000009,516,1,1447187579071,1447187579123,862,462,0,0,0,3,2,1,5,0002-00-0000-00.png,0003-00-0001-59.png
00000009,517,1,1447187580255,1447187580291,873,478,0,0,0,1,0,1,1,0005-00-0000-80.png,0001-00-0000-31.png
00000009,518,0,1447187581485,1447187582464,925,323,0,0,0,2,3,1,5,0003-00-0001-66.png,0002-00-0001-59.png
00000009,519,0,1447187585520,1447187585556,913,332,0,0,0,0,1,1,1,0001-00-0000-25.png,0005-00-0001-79.png
00000009,520,1,1447187588929,1447187589457,479,246,0,0,0,3,4,1,7,0002-00-0000-91.png,0004-00-0001-56.png
00000009,521,0,1447187590329,1447187591152,922,342,0,0,0,2,3,1,5,0003-00-0001-33.png,0002-00-0001-21.png
00000009,522,1,1447187594274,1447187594817,450,246,0,0,0,3,4,1,7,0002-00-0001-66.png,0004-00-0001-62.png
00000009,523,0,1447187595647,1447187596486,472,233,0,0,0,3,2,1,5,0002-00-0000-85.png,0003-00-0000-26.png
00000009,524,0,1447187599583,1447187599623,909,326,0,0,0,1,2,1,3,0005-00-0001-09.png,0003-00-0001-39.png
00000009,525,1,1447187602763,1447187603279,1072,280,0,0,0,2,1,1,3,0003-00-0001-28.png,0005-00-0001-81.png
00000009,526,1,1447187604123,1447187604175,862,419,0,0,0,4,3,1,7,0004-00-0001-63.png,0002-00-0000-83.png
00000009,527,1,1447187605167,1447187605994,510,217,0,0,0,0,1,1,1,0001-00-0000-99.png,0005-00-0001-24.png
00000009,528,1,1447187606865,1447187607826,1058,302,0,0,0,1,0,1,1,0005-00-0000-88.png,0001-00-0000-13.png
00000009,529,1,1447187608785,1447187608801,888,422,0,0,0,3,2,1,5,0002-00-0000-06.png,0003-00-0001-39.png
00000009,530,0,1447187609977,1447187610040,862,474,0,0,0,2,3,1,5,0003-00-0000-44.png,0002-00-0001-59.png
00000009,531,1,1447187612977,1447187613636,510,242,0,0,0,1,2,1,3,0005-00-0001-63.png,0003-00-0000-69.png
00000009,532,1,1447187614462,1447187615640,387,377,0,0,0,0,1,1,1,0001-00-0001-37.png,0005-00-0000-27.png
00000009,533,1,1447187616563,1447187616601,858,405,0,0,0,4,3,1,7,0004-00-0000-64.png,0002-00-0000-73.png
00000009,534,0,1447187617588,1447187618401,486,245,0,0,0,1,0,1,1,0005-00-0000-26.png,0001-00-0001-04.png
00000009,535,0,1447187622237,1447187622849,1076,306,0,0,0,3,4,1,7,0002-00-0001-95.png,0004-00-0001-78.png
00000009,536,1,1447187625956,1447187626008,906,331,0,0,0,2,1,1,3,0003-00-0000-60.png,0005-00-0001-28.png
00000009,537,1,1447187626931,1447187627747,1020,278,0,0,0,2,1,1,3,0003-00-0001-28.png,0005-00-0001-40.png
00000009,538,1,1447187628709,1447187629538,1041,264,0,0,0,1,0,1,1,0005-00-0001-41.png,0001-00-0001-26.png
00000009,539,0,1447187630395,1447187630427,863,388,0,0,0,1,2,1,3,0005-00-0000-54.png,0003-00-0001-90.png
00000009,540,1,1447187633486,1447187633530,912,345,0,0,0,4,3,1,7,0004-00-0000-09.png,0002-00-0000-15.png
00000009,541,0,1447187634472,1447187634500,859,416,0,0,0,2,3,1,5,0003-00-0001-27.png,0002-00-0000-77.png
00000009,542,0,1447187637471,1447187638004,473,269,0,0,0,3,2,1,5,0002-00-0000-19.png,0003-00-0000-65.png
00000009,543,0,1447187641031,1447187641067,892,377,0,0,0,0,1,1,1,0001-00-0000-81.png,0005-00-0000-49.png
00000009,544,0,1447187643918,1447187644462,1067,279,0,0,0,3,4,1,7,0002-00-0000-95.png,0004-00-0001-07.png
00000009,545,1,1447187647567,1447187648053,431,386,0,0,0,1,2,1,3,0005-00-0001-23.png,0003-00-0001-69.png
00000009,546,0,1447187648920,1447187649825,909,336,0,0,0,0,1,1,1,0001-00-0001-53.png,0005-00-0000-89.png
00000009,547,0,1447187652877,1447187653378,1092,270,0,0,0,2,3,1,5,0003-00-0001-96.png,0002-00-0000-52.png
00000009,548,1,1447187656491,1447187656986,964,398,0,0,0,2,1,1,3,0003-00-0000-24.png,0005-00-0000-24.png
00000009,549,1,1447187657904,1447187657967,881,425,0,0,0,4,3,1,7,0004-00-0001-46.png,0002-00-0001-22.png
00000009,550,0,1447187658992,1447187659938,507,254,0,0,0,1,0,1,1,0005-00-0001-45.png,0001-00-0001-53.png
00000009,551,1,1447187663082,1447187663110,860,301,0,0,0,3,2,1,5,0002-00-0000-11.png,0003-00-0001-62.png
00000009,552,1,1447187664027,1447187665256,452,240,0,0,0,3,4,1,7,0002-00-0000-97.png,0004-00-0000-34.png
00000009,553,1,1447187666131,1447187667084,1026,253,0,0,0,2,1,1,3,0003-00-0000-68.png,0005-00-0001-16.png
00000009,554,1,1447187668020,1447187668072,872,403,0,0,0,1,0,1,1,0005-00-0000-35.png,0001-00-0000-51.png
00000009,555,1,1447187669222,1447187669992,478,263,0,0,0,1,2,1,3,0005-00-0000-05.png,0003-00-0000-18.png
00000009,556,0,1447187670902,1447187670942,858,441,0,0,0,0,1,1,1,0001-00-0001-29.png,0005-00-0001-06.png
00000009,557,1,1447187674072,1447187674805,369,340,0,0,0,3,4,1,7,0002-00-0001-11.png,0004-00-0000-86.png
00000009,558,0,1447187675649,1447187676394,1051,296,0,0,0,2,3,1,5,0003-00-0000-33.png,0002-00-0001-17.png
00000009,559,1,1447187679309,1447187680020,1047,289,0,0,0,4,3,1,7,0004-00-0001-16.png,0002-00-0001-50.png
00000009,560,1,1447187680840,1447187681828,954,338,0,0,0,3,2,1,5,0002-00-0001-18.png,0003-00-0000-17.png
00000009,561,1,1447187682768,1447187683776,441,384,0,0,0,3,4,1,7,0002-00-0001-85.png,0004-00-0001-07.png
00000009,562,0,1447187684765,1447187685636,1068,292,0,0,0,0,1,1,1,0001-00-0001-66.png,0005-00-0001-51.png
00000009,563,1,1447187688650,1447187689094,1039,274,0,0,0,2,1,1,3,0003-00-0000-78.png,0005-00-0001-89.png
00000009,564,1,1447187689944,1447187689992,869,454,0,0,0,1,0,1,1,0005-00-0000-81.png,0001-00-0000-34.png
00000009,565,0,1447187690976,1447187691780,490,241,0,0,0,3,2,1,5,0002-00-0000-90.png,0003-00-0001-18.png
00000009,566,1,1447187694841,1447187695343,522,243,0,0,0,1,2,1,3,0005-00-0000-10.png,0003-00-0000-64.png
00000009,567,1,1447187696303,1447187697088,1053,299,0,0,0,4,3,1,7,0004-00-0000-08.png,0002-00-0001-58.png
00000009,568,0,1447187698002,1447187698042,870,400,0,0,0,2,3,1,5,0003-00-0001-43.png,0002-00-0001-04.png
00000009,569,0,1447187701249,1447187701767,963,314,0,0,0,2,3,1,5,0003-00-0001-84.png,0002-00-0001-84.png
00000009,570,0,1447187704627,1447187704659,946,413,0,0,0,3,4,1,7,0002-00-0001-34.png,0004-00-0000-94.png
00000009,571,0,1447187707758,1447187708403,405,336,0,0,0,3,2,1,5,0002-00-0000-57.png,0003-00-0000-99.png
00000009,572,1,1447187711296,1447187711867,1057,279,0,0,0,4,3,1,7,0004-00-0001-87.png,0002-00-0000-96.png
00000009,573,0,1447187712714,1447187712813,877,417,0,0,0,0,1,1,1,0001-00-0000-28.png,0005-00-0001-65.png
00000009,574,1,1447187715886,1447187716392,521,241,0,0,0,1,2,1,3,0005-00-0000-55.png,0003-00-0001-53.png
00000009,575,1,1447187717207,1447187717941,1044,246,0,0,0,1,0,1,1,0005-00-0000-79.png,0001-00-0000-62.png
00000009,576,1,1447187718826,1447187718878,894,418,0,0,0,2,1,1,3,0003-00-0000-18.png,0005-00-0001-12.png
00000009,577,1,1447187720071,1447187720954,904,363,0,0,0,1,0,1,1,0005-00-0001-57.png,0001-00-0000-62.png
00000009,578,0,1447187722218,1447187723010,900,333,0,0,0,2,3,1,5,0003-00-0001-89.png,0002-00-0001-24.png
00000009,579,0,1447187726093,1447187726564,494,236,0,0,0,3,2,1,5,0002-00-0001-85.png,0003-00-0000-50.png
00000009,580,1,1447187729699,1447187729727,900,328,0,0,0,2,1,1,3,0003-00-0000-82.png,0005-00-0001-82.png
00000009,581,0,1447187730664,1447187731392,915,336,0,0,0,3,4,1,7,0002-00-0000-17.png,0004-00-0001-50.png
00000009,582,0,1447187734329,1447187734904,491,254,0,0,0,4,3,1,7,0004-00-0001-13.png,0002-00-0001-90.png
00000009,583,0,1447187738056,1447187738089,897,304,0,0,0,1,2,1,3,0005-00-0000-84.png,0003-00-0001-81.png
00000009,584,0,1447187741270,1447187741936,1072,280,0,0,0,0,1,1,1,0001-00-0001-85.png,0005-00-0000-59.png
00000009,585,1,1447187745093,1447187745588,1063,278,0,0,0,2,1,1,3,0003-00-0001-35.png,0005-00-0000-44.png
00000009,586,0,1447187746424,1447187747178,912,330,0,0,0,2,3,1,5,0003-00-0001-25.png,0002-00-0001-19.png
00000009,587,1,1447187750182,1447187750665,933,325,0,0,0,1,0,1,1,0005-00-0001-92.png,0001-00-0000-38.png
00000009,588,1,1447187752019,1447187752810,423,358,0,0,0,3,4,1,7,0002-00-0000-12.png,0004-00-0001-19.png
00000009,589,1,1447187753708,1447187754801,487,219,0,0,0,1,2,1,3,0005-00-0000-75.png,0003-00-0000-15.png
00000009,590,0,1447187755794,1447187756729,1143,353,0,0,0,0,1,1,1,0001-00-0001-15.png,0005-00-0000-82.png
00000009,591,1,1447187759810,1447187760293,1069,261,0,0,0,4,3,1,7,0004-00-0000-80.png,0002-00-0001-19.png
00000009,592,1,1447187761170,1447187761344,885,498,0,0,0,3,2,1,5,0002-00-0001-44.png,0003-00-0000-47.png
00000009,593,0,1447187762411,1447187763580,487,249,0,0,0,4,3,1,7,0004-00-0001-00.png,0002-00-0000-49.png
00000009,594,0,1447187767065,1447187767568,1038,273,0,0,0,2,3,1,5,0003-00-0001-33.png,0002-00-0000-69.png
00000009,595,1,1447187770601,1447187771226,486,230,0,0,0,0,1,1,1,0001-00-0001-03.png,0005-00-0001-31.png
00000009,596,0,1447187772660,1447187772766,864,505,0,0,0,3,4,1,7,0002-00-0000-65.png,0004-00-0000-79.png
00000009,597,1,1447187775739,1447187776235,1090,275,0,0,0,2,1,1,3,0003-00-0001-41.png,0005-00-0000-43.png
00000009,598,1,1447187777081,1447187777746,511,219,0,0,0,1,2,1,3,0005-00-0001-00.png,0003-00-0000-52.png
00000009,599,0,1447187778712,1447187779505,453,369,0,0,0,1,0,1,1,0005-00-0001-54.png,0001-00-0000-37.png
00000009,600,0,1447187782419,1447187782985,487,248,0,0,0,3,2,1,5,0002-00-0000-74.png,0003-00-0000-62.png
00000009,601,1,1447187785945,1447187786457,516,251,0,0,0,1,2,1,3,0005-00-0001-78.png,0003-00-0001-99.png
00000009,602,0,1447187787824,1447187788528,488,253,0,0,0,4,3,1,7,0004-00-0000-36.png,0002-00-0001-54.png
00000009,603,0,1447187791421,1447187791571,877,384,0,0,0,0,1,1,1,0001-00-0001-55.png,0005-00-0001-27.png
00000009,604,0,1447187794430,1447187795022,470,269,0,0,0,1,0,1,1,0005-00-0001-68.png,0001-00-0000-95.png
00000009,605,0,1447187798137,1447187798651,990,371,0,0,0,3,4,1,7,0002-00-0000-92.png,0004-00-0001-46.png
00000009,606,1,1447187801716,1447187802246,1064,281,0,0,0,2,1,1,3,0003-00-0001-89.png,0005-00-0000-46.png
00000009,607,1,1447187803085,1447187803165,862,436,0,0,0,3,2,1,5,0002-00-0000-14.png,0003-00-0001-20.png
00000009,608,1,1447187804239,1447187805185,511,222,0,0,0,2,3,1,5,0003-00-0001-77.png,0002-00-0000-44.png
00000009,609,1,1447187806138,1447187806158,867,414,0,0,0,2,1,1,3,0003-00-0000-84.png,0005-00-0000-01.png
00000009,610,0,1447187807240,1447187807280,862,436,0,0,0,3,4,1,7,0002-00-0001-04.png,0004-00-0001-05.png
00000009,611,0,1447187810419,1447187810924,1044,264,0,0,0,0,1,1,1,0001-00-0001-15.png,0005-00-0000-64.png
00000009,612,0,1447187814065,1447187814121,878,313,0,0,0,2,3,1,5,0003-00-0001-05.png,0002-00-0001-18.png
00000009,613,1,1447187816982,1447187817676,504,241,0,0,0,1,2,1,3,0005-00-0001-19.png,0003-00-0001-02.png
00000009,614,0,1447187819096,1447187819712,522,217,0,0,0,3,2,1,5,0002-00-0000-46.png,0003-00-0000-62.png
00000009,615,1,1447187822744,1447187823217,1040,275,0,0,0,1,0,1,1,0005-00-0000-43.png,0001-00-0000-23.png
00000009,616,1,1447187824611,1447187825692,1019,263,0,0,0,4,3,1,7,0004-00-0001-92.png,0002-00-0000-66.png
00000009,617,0,1447187826589,1447187826637,862,410,0,0,0,2,3,1,5,0003-00-0000-43.png,0002-00-0000-47.png
00000009,618,0,1447187829471,1447187829995,939,410,0,0,0,0,1,1,1,0001-00-0001-54.png,0005-00-0000-91.png
00000009,619,0,1447187833135,1447187833587,505,266,0,0,0,3,2,1,5,0002-00-0001-13.png,0003-00-0000-13.png
00000009,620,1,1447187836535,1447187837020,1044,281,0,0,0,4,3,1,7,0004-00-0000-38.png,0002-00-0001-50.png
00000009,621,1,1447187837845,1447187838602,497,234,0,0,0,3,4,1,7,0002-00-0000-64.png,0004-00-0001-93.png
00000009,622,0,1447187839507,1447187840516,479,232,0,0,0,1,0,1,1,0005-00-0001-02.png,0001-00-0000-74.png
00000009,623,0,1447187843749,1447187843956,886,392,0,0,0,1,2,1,3,0005-00-0000-23.png,0003-00-0001-08.png
00000009,624,1,1447187847926,1447187848437,1044,255,0,0,0,2,1,1,3,0003-00-0000-05.png,0005-00-0000-19.png
00000009,625,0,1447187849304,1447187849395,862,451,0,0,0,0,1,1,1,0001-00-0001-19.png,0005-00-0001-83.png
00000009,626,1,1447187852444,1447187852922,1043,273,0,0,0,2,1,1,3,0003-00-0001-11.png,0005-00-0000-31.png
00000009,627,0,1447187853766,1447187853826,880,365,0,0,0,2,3,1,5,0003-00-0000-08.png,0002-00-0001-78.png
00000009,628,0,1447187856918,1447187857425,376,344,0,0,0,3,2,1,5,0002-00-0000-46.png,0003-00-0000-02.png
00000009,629,0,1447187860433,1447187860960,453,410,0,0,0,1,0,1,1,0005-00-0001-91.png,0001-00-0001-87.png
00000009,630,1,1447187864023,1447187864667,1087,279,0,0,0,4,3,1,7,0004-00-0001-90.png,0002-00-0001-53.png
00000009,631,0,1447187865520,1447187865552,869,394,0,0,0,3,4,1,7,0002-00-0001-50.png,0004-00-0000-26.png
00000009,632,0,1447187868534,1447187868582,865,401,0,0,0,1,2,1,3,0005-00-0001-78.png,0003-00-0001-12.png
00000009,633,1,1447187871712,1447187872439,415,277,0,0,0,3,4,1,7,0002-00-0000-54.png,0004-00-0000-37.png
00000009,634,0,1447187873331,1447187873373,886,399,0,0,0,1,2,1,3,0005-00-0001-04.png,0003-00-0001-78.png
00000009,635,1,1447187876210,1447187876746,1033,283,0,0,0,2,1,1,3,0003-00-0001-25.png,0005-00-0000-78.png
00000009,636,1,1447187877633,1447187878473,409,317,0,0,0,0,1,1,1,0001-00-0000-15.png,0005-00-0001-07.png
00000009,637,1,1447187879413,1447187880296,915,333,0,0,0,1,0,1,1,0005-00-0001-75.png,0001-00-0001-92.png
00000009,638,1,1447187881371,1447187881427,862,449,0,0,0,3,2,1,5,0002-00-0001-26.png,0003-00-0000-05.png
00000009,639,1,1447187882602,1447187882678,880,470,0,0,0,4,3,1,7,0004-00-0001-12.png,0002-00-0001-36.png
00000009,640,0,1447187883984,1447187884028,872,480,0,0,0,2,3,1,5,0003-00-0001-22.png,0002-00-0001-59.png
00000009,641,1,1447187886905,1447187887424,492,253,0,0,0,2,3,1,5,0003-00-0001-28.png,0002-00-0001-38.png
00000009,642,0,1447187888296,1447187888352,860,390,0,0,0,3,4,1,7,0002-00-0000-08.png,0004-00-0001-35.png
00000009,643,1,1447187891524,1447187892021,938,328,0,0,0,2,1,1,3,0003-00-0000-34.png,0005-00-0000-78.png
00000009,644,0,1447187892867,1447187892927,870,426,0,0,0,0,1,1,1,0001-00-0001-97.png,0005-00-0000-12.png
00000009,645,1,1447187895775,1447187896326,941,340,0,0,0,4,3,1,7,0004-00-0000-31.png,0002-00-0001-79.png
00000009,646,0,1447187897768,1447187898329,473,262,0,0,0,1,0,1,1,0005-00-0000-64.png,0001-00-0000-50.png
00000009,647,0,1447187901395,1447187901860,501,249,0,0,0,3,2,1,5,0002-00-0000-86.png,0003-00-0000-64.png
00000009,648,1,1447187904744,1447187905339,481,263,0,0,0,1,2,1,3,0005-00-0000-49.png,0003-00-0001-62.png
00000009,649,0,1447187906324,1447187907403,482,264,0,0,0,3,2,1,5,0002-00-0000-40.png,0003-00-0001-26.png
00000009,650,1,1447187910279,1447187910792,1049,285,0,0,0,2,1,1,3,0003-00-0001-39.png,0005-00-0000-07.png
00000009,651,1,1447187911626,1447187912392,419,330,0,0,0,1,2,1,3,0005-00-0000-13.png,0003-00-0001-85.png
00000009,652,0,1447187913340,1447187913364,861,419,0,0,0,2,3,1,5,0003-00-0001-92.png,0002-00-0000-51.png
00000009,653,1,1447187916350,1447187916904,1069,275,0,0,0,1,0,1,1,0005-00-0001-83.png,0001-00-0000-29.png
00000009,654,1,1447187917731,1447187918665,947,303,0,0,0,4,3,1,7,0004-00-0001-37.png,0002-00-0000-68.png
00000009,655,0,1447187919590,1447187919654,870,410,0,0,0,0,1,1,1,0001-00-0000-87.png,0005-00-0000-27.png
00000009,656,0,1447187922670,1447187922718,962,343,0,0,0,3,4,1,7,0002-00-0000-13.png,0004-00-0001-64.png
00000009,657,0,1447187925602,1447187926178,939,400,0,0,0,0,1,1,1,0001-00-0001-31.png,0005-00-0001-53.png
00000009,658,1,1447187929027,1447187929601,509,289,0,0,0,1,2,1,3,0005-00-0001-09.png,0003-00-0001-09.png
00000009,659,1,1447187930430,1447187931326,925,338,0,0,0,2,1,1,3,0003-00-0001-75.png,0005-00-0001-28.png
00000009,660,1,1447187932310,1447187932505,914,490,0,0,0,4,3,1,7,0004-00-0001-14.png,0002-00-0000-26.png
00000009,661,0,1447187933650,1447187933686,877,436,0,0,0,2,3,1,5,0003-00-0001-87.png,0002-00-0001-15.png
00000009,662,1,1447187936763,1447187937095,957,329,0,0,0,3,2,1,5,0002-00-0000-37.png,0003-00-0000-26.png
00000009,663,0,1447187937983,1447187938015,880,414,0,0,0,3,4,1,7,0002-00-0000-27.png,0004-00-0001-41.png
00000009,664,1,1447187941004,1447187941550,1045,280,0,0,0,1,0,1,1,0005-00-0000-59.png,0001-00-0000-57.png
00000009,665,0,1447187942954,1447187943104,888,480,0,0,0,3,4,1,7,0002-00-0000-39.png,0004-00-0000-25.png
00000009,666,1,1447187946251,1447187946271,862,358,0,0,0,4,3,1,7,0004-00-0001-39.png,0002-00-0000-27.png
00000009,667,0,1447187947289,1447187947333,883,471,0,0,0,0,1,1,1,0001-00-0000-19.png,0005-00-0001-14.png
00000009,668,0,1447187950464,1447187950493,895,320,0,0,0,2,3,1,5,0003-00-0001-99.png,0002-00-0001-33.png
00000009,669,0,1447187953601,1447187954085,421,375,0,0,0,3,2,1,5,0002-00-0000-60.png,0003-00-0000-70.png
00000009,670,1,1447187956950,1447187956998,888,427,0,0,0,2,1,1,3,0003-00-0000-57.png,0005-00-0000-31.png
00000009,671,0,1447187958016,1447187958036,894,357,0,0,0,1,2,1,3,0005-00-0000-55.png,0003-00-0001-42.png
00000009,672,0,1447187961176,1447187961743,478,384,0,0,0,1,0,1,1,0005-00-0001-18.png,0001-00-0000-92.png
00000009,673,1,1447187964830,1447187964866,911,318,0,0,0,4,3,1,7,0004-00-0000-24.png,0002-00-0001-47.png
00000009,674,0,1447187965855,1447187965958,862,468,0,0,0,1,2,1,3,0005-00-0000-65.png,0003-00-0001-46.png
00000009,675,0,1447187968906,1447187968958,939,410,0,0,0,0,1,1,1,0001-00-0000-01.png,0005-00-0000-68.png
00000009,676,1,1447187972207,1447187972696,1066,261,0,0,0,2,1,1,3,0003-00-0001-93.png,0005-00-0001-50.png
00000009,677,1,1447187973565,1447187974407,919,334,0,0,0,1,0,1,1,0005-00-0000-43.png,0001-00-0000-94.png
00000009,678,1,1447187975319,1447187975355,878,413,0,0,0,3,2,1,5,0002-00-0001-71.png,0003-00-0000-66.png
00000009,679,0,1447187976579,1447187976595,866,438,0,0,0,3,4,1,7,0002-00-0000-53.png,0004-00-0001-22.png
00000009,680,0,1447187979718,1447187980214,1076,262,0,0,0,2,3,1,5,0003-00-0001-53.png,0002-00-0001-24.png
00000009,681,1,1447187983164,1447187983188,868,375,0,0,0,4,3,1,7,0004-00-0001-93.png,0002-00-0000-13.png
00000009,682,1,1447187984204,1447187984921,1049,278,0,0,0,2,1,1,3,0003-00-0001-51.png,0005-00-0000-07.png
00000009,683,1,1447187985809,1447187985837,893,357,0,0,0,1,0,1,1,0005-00-0001-55.png,0001-00-0001-48.png
00000009,684,1,1447187987210,1447187987251,868,432,0,0,0,3,2,1,5,0002-00-0001-97.png,0003-00-0000-90.png
00000009,685,1,1447187988384,1447187989361,518,239,0,0,0,0,1,1,1,0001-00-0000-10.png,0005-00-0001-16.png
00000009,686,0,1447187990260,1447187990284,902,393,0,0,0,3,4,1,7,0002-00-0001-01.png,0004-00-0001-38.png
00000009,687,0,1447187993261,1447187993779,1049,276,0,0,0,1,2,1,3,0005-00-0001-25.png,0003-00-0001-01.png
00000009,688,1,1447187996942,1447187997455,516,253,0,0,0,2,3,1,5,0003-00-0001-77.png,0002-00-0000-93.png
00000009,689,1,1447187998277,1447187999520,504,218,0,0,0,1,2,1,3,0005-00-0001-27.png,0003-00-0000-61.png
00000009,690,1,1447188000407,1447188001373,929,332,0,0,0,4,3,1,7,0004-00-0001-63.png,0002-00-0000-21.png
00000009,691,1,1447188002327,1447188002363,906,444,0,0,0,1,0,1,1,0005-00-0001-89.png,0001-00-0000-09.png
00000009,692,0,1447188003596,1447188004458,507,232,0,0,0,2,1,1,3,0003-00-0001-60.png,0005-00-0001-05.png
00000009,693,0,1447188007750,1447188008526,521,249,0,0,0,3,2,1,5,0002-00-0001-27.png,0003-00-0001-44.png
00000009,694,0,1447188011635,1447188011651,893,326,0,0,0,2,3,1,5,0003-00-0000-93.png,0002-00-0000-17.png
00000009,695,0,1447188014794,1447188014822,871,333,0,0,0,0,1,1,1,0001-00-0001-86.png,0005-00-0000-77.png
00000009,696,0,1447188017926,1447188017954,870,319,0,0,0,3,4,1,7,0002-00-0001-13.png,0004-00-0000-05.png
00000009,697,1,1447188020797,1447188020817,891,399,0,0,0,2,1,1,3,0003-00-0001-73.png,0005-00-0001-65.png
00000009,698,1,1447188021792,1447188021832,858,410,0,0,0,4,3,1,7,0004-00-0000-59.png,0002-00-0000-40.png
00000009,699,1,1447188022996,1447188023746,890,297,0,0,0,3,2,1,5,0002-00-0000-31.png,0003-00-0001-01.png
00000009,700,0,1447188024685,1447188024709,862,384,0,0,0,1,2,1,3,0005-00-0001-76.png,0003-00-0000-07.png
00000009,701,1,1447188027665,1447188028281,370,341,0,0,0,3,4,1,7,0002-00-0000-46.png,0004-00-0000-81.png
00000009,702,0,1447188029154,1447188029185,859,371,0,0,0,2,3,1,5,0003-00-0001-11.png,0002-00-0001-50.png
00000009,703,1,1447188032235,1447188032699,961,309,0,0,0,1,0,1,1,0005-00-0001-04.png,0001-00-0001-44.png
00000009,704,1,1447188034123,1447188034799,492,265,0,0,0,0,1,1,1,0001-00-0000-53.png,0005-00-0001-08.png
00000009,705,0,1447188035712,1447188036727,510,258,0,0,0,4,3,1,7,0004-00-0000-77.png,0002-00-0000-03.png
00000009,706,1,1447188039858,1447188040578,439,370,0,0,0,3,4,1,7,0002-00-0001-39.png,0004-00-0000-80.png
00000009,707,1,1447188041467,1447188042294,1029,253,0,0,0,1,0,1,1,0005-00-0000-91.png,0001-00-0000-09.png
00000009,708,0,1447188043237,1447188043265,902,391,0,0,0,2,3,1,5,0003-00-0000-45.png,0002-00-0000-58.png
00000009,709,0,1447188046247,1447188046805,494,241,0,0,0,3,2,1,5,0002-00-0000-47.png,0003-00-0000-42.png
00000009,710,1,1447188049893,1447188050412,506,291,0,0,0,1,2,1,3,0005-00-0000-96.png,0003-00-0000-93.png
00000009,711,0,1447188051327,1447188052070,908,319,0,0,0,0,1,1,1,0001-00-0001-95.png,0005-00-0001-94.png
00000009,712,1,1447188055246,1447188055714,966,300,0,0,0,2,1,1,3,0003-00-0001-27.png,0005-00-0000-96.png
00000009,713,1,1447188056570,1447188056636,862,426,0,0,0,1,0,1,1,0005-00-0000-58.png,0001-00-0000-15.png
00000009,714,1,1447188057726,1447188058508,487,226,0,0,0,0,1,1,1,0001-00-0001-11.png,0005-00-0001-08.png
00000009,715,1,1447188059362,1447188060249,518,223,0,0,0,1,2,1,3,0005-00-0001-92.png,0003-00-0001-29.png
00000009,716,1,1447188061204,1447188061236,888,361,0,0,0,3,2,1,5,0002-00-0000-19.png,0003-00-0000-91.png
00000009,717,0,1447188062486,1447188062506,858,465,0,0,0,3,4,1,7,0002-00-0000-41.png,0004-00-0000-97.png
00000009,718,0,1447188065450,1447188065958,1066,275,0,0,0,2,3,1,5,0003-00-0000-47.png,0002-00-0001-41.png
00000009,719,1,1447188068855,1447188069393,1040,279,0,0,0,2,1,1,3,0003-00-0000-75.png,0005-00-0000-99.png
00000009,720,1,1447188070254,1447188071318,1041,275,0,0,0,4,3,1,7,0004-00-0000-97.png,0002-00-0000-49.png
00000009,721,0,1447188072232,1447188072284,899,410,0,0,0,1,2,1,3,0005-00-0001-33.png,0003-00-0001-17.png
00000009,722,1,1447188075205,1447188075225,873,471,0,0,0,4,3,1,7,0004-00-0001-78.png,0002-00-0000-07.png
00000009,723,1,1447188076228,1447188076271,886,464,0,0,0,2,1,1,3,0003-00-0001-42.png,0005-00-0001-61.png
00000009,724,1,1447188077392,1447188077459,862,462,0,0,0,1,0,1,1,0005-00-0000-45.png,0001-00-0001-32.png
00000009,725,0,1447188078662,1447188078733,871,462,0,0,0,3,4,1,7,0002-00-0000-53.png,0004-00-0000-43.png
00000009,726,1,1447188081621,1447188082131,1071,261,0,0,0,3,2,1,5,0002-00-0001-65.png,0003-00-0001-13.png
00000009,727,0,1447188083015,1447188083086,862,475,0,0,0,2,3,1,5,0003-00-0000-25.png,0002-00-0001-60.png
00000009,728,0,1447188085954,1447188085968,861,373,0,0,0,0,1,1,1,0001-00-0001-42.png,0005-00-0001-73.png
00000009,729,1,1447188088846,1447188088878,858,383,0,0,0,4,3,1,7,0004-00-0001-08.png,0002-00-0000-71.png
00000009,730,0,1447188089861,1447188089893,862,400,0,0,0,3,4,1,7,0002-00-0000-22.png,0004-00-0001-77.png
00000009,731,1,1447188092971,1447188092999,893,332,0,0,0,1,0,1,1,0005-00-0000-68.png,0001-00-0001-53.png
00000009,732,1,1447188093995,1447188094015,862,435,0,0,0,3,2,1,5,0002-00-0001-26.png,0003-00-0001-67.png
00000009,733,0,1447188095136,1447188096325,968,340,0,0,0,1,2,1,3,0005-00-0001-76.png,0003-00-0000-79.png
00000009,734,0,1447188099469,1447188099972,1045,276,0,0,0,2,3,1,5,0003-00-0000-69.png,0002-00-0000-54.png
00000009,735,0,1447188102938,1447188103445,1065,278,0,0,0,0,1,1,1,0001-00-0001-51.png,0005-00-0001-49.png
00000009,736,1,1447188106501,1447188106988,935,328,0,0,0,2,1,1,3,0003-00-0000-18.png,0005-00-0001-69.png
00000009,737,0,1447188107875,1447188107944,888,400,0,0,0,3,4,1,7,0002-00-0000-53.png,0004-00-0001-08.png
00000009,738,0,1447188110997,1447188111540,506,263,0,0,0,3,2,1,5,0002-00-0000-89.png,0003-00-0001-48.png
00000009,739,0,1447188114503,1447188114531,888,383,0,0,0,1,2,1,3,0005-00-0000-86.png,0003-00-0000-56.png
00000009,740,0,1447188117644,1447188118118,963,302,0,0,0,2,3,1,5,0003-00-0000-68.png,0002-00-0000-00.png
00000009,741,0,1447188121234,1447188121911,1092,279,0,0,0,0,1,1,1,0001-00-0001-83.png,0005-00-0001-47.png
00000009,742,1,1447188124827,1447188125402,1032,279,0,0,0,1,0,1,1,0005-00-0001-45.png,0001-00-0001-66.png
00000009,743,1,1447188126269,1447188126313,867,417,0,0,0,2,1,1,3,0003-00-0001-96.png,0005-00-0000-62.png
00000009,744,1,1447188127475,1447188128421,1035,298,0,0,0,4,3,1,7,0004-00-0000-23.png,0002-00-0000-45.png
00000009,745,0,1447188129289,1447188129321,888,356,0,0,0,0,1,1,1,0001-00-0001-88.png,0005-00-0001-31.png
00000009,746,1,1447188132436,1447188132921,939,321,0,0,0,4,3,1,7,0004-00-0000-22.png,0002-00-0000-84.png
00000009,747,1,1447188133773,1447188134712,1067,270,0,0,0,2,1,1,3,0003-00-0000-31.png,0005-00-0001-79.png
00000009,748,1,1447188135631,1447188135651,890,382,0,0,0,3,2,1,5,0002-00-0000-97.png,0003-00-0001-30.png
00000009,749,1,1447188136863,1447188136904,872,446,0,0,0,1,0,1,1,0005-00-0000-71.png,0001-00-0000-32.png
00000009,750,0,1447188138117,1447188138293,859,518,0,0,0,3,4,1,7,0002-00-0000-87.png,0004-00-0000-96.png
00000009,751,0,1447188141454,1447188141939,939,319,0,0,0,2,3,1,5,0003-00-0001-31.png,0002-00-0000-91.png
00000009,752,0,1447188145003,1447188145063,932,332,0,0,0,1,2,1,3,0005-00-0000-53.png,0003-00-0001-63.png
00000009,753,1,1447188148183,1447188148723,1047,269,0,0,0,4,3,1,7,0004-00-0000-73.png,0002-00-0000-18.png
00000009,754,0,1447188149614,1447188149654,869,383,0,0,0,3,4,1,7,0002-00-0000-26.png,0004-00-0001-76.png
00000009,755,1,1447188152802,1447188152826,867,328,0,0,0,2,1,1,3,0003-00-0000-99.png,0005-00-0001-71.png
00000009,756,0,1447188153737,1447188154554,912,347,0,0,0,2,3,1,5,0003-00-0001-63.png,0002-00-0000-99.png
00000009,757,1,1447188157685,1447188157705,873,322,0,0,0,3,2,1,5,0002-00-0001-48.png,0003-00-0000-93.png
00000009,758,1,1447188158639,1447188159469,485,223,0,0,0,1,2,1,3,0005-00-0000-40.png,0003-00-0000-65.png
00000009,759,1,1447188160437,1447188161231,917,348,0,0,0,1,0,1,1,0005-00-0000-95.png,0001-00-0001-49.png
00000009,760,0,1447188162196,1447188163134,918,309,0,0,0,0,1,1,1,0001-00-0000-42.png,0005-00-0001-27.png
00000009,761,1,1447188166319,1447188166850,1044,269,0,0,0,1,0,1,1,0005-00-0001-66.png,0001-00-0001-76.png
00000009,762,0,1447188167781,1447188167813,868,410,0,0,0,3,4,1,7,0002-00-0000-68.png,0004-00-0001-80.png
00000009,763,0,1447188170922,1447188170938,898,353,0,0,0,2,3,1,5,0003-00-0001-01.png,0002-00-0001-08.png
00000009,764,1,1447188174119,1447188174742,504,279,0,0,0,1,2,1,3,0005-00-0001-22.png,0003-00-0000-54.png
00000009,765,1,1447188175629,1447188175657,867,385,0,0,0,4,3,1,7,0004-00-0001-97.png,0002-00-0000-75.png
00000009,766,1,1447188176791,1447188176845,868,460,0,0,0,2,1,1,3,0003-00-0001-15.png,0005-00-0001-90.png
00000009,767,1,1447188177905,1447188177957,891,463,0,0,0,3,2,1,5,0002-00-0001-80.png,0003-00-0000-06.png
00000009,768,0,1447188179089,1447188179109,890,483,0,0,0,0,1,1,1,0001-00-0000-00.png,0005-00-0000-47.png
00000009,769,0,1447188182307,1447188182764,938,313,0,0,0,2,3,1,5,0003-00-0000-63.png,0002-00-0000-52.png
00000009,770,1,1447188185893,1447188185925,865,333,0,0,0,1,0,1,1,0005-00-0000-31.png,0001-00-0001-49.png
00000009,771,0,1447188186857,1447188187649,1019,255,0,0,0,0,1,1,1,0001-00-0001-17.png,0005-00-0000-23.png
00000009,772,1,1447188190762,1447188190794,890,302,0,0,0,2,1,1,3,0003-00-0000-55.png,0005-00-0000-59.png
00000009,773,1,1447188191749,1447188191853,862,488,0,0,0,4,3,1,7,0004-00-0001-81.png,0002-00-0001-31.png
00000009,774,1,1447188192981,1447188193072,862,478,0,0,0,3,2,1,5,0002-00-0000-55.png,0003-00-0001-21.png
00000009,775,0,1447188194131,1447188194215,876,462,0,0,0,3,4,1,7,0002-00-0001-97.png,0004-00-0001-19.png
00000009,776,1,1447188197413,1447188198083,388,320,0,0,0,1,2,1,3,0005-00-0001-06.png,0003-00-0001-62.png
00000009,777,1,1447188198960,1447188199023,888,400,0,0,0,1,0,1,1,0005-00-0000-06.png,0001-00-0000-81.png
00000009,778,0,1447188200115,1447188200171,862,436,0,0,0,0,1,1,1,0001-00-0000-99.png,0005-00-0001-29.png
00000009,779,0,1447188203265,1447188203314,924,334,0,0,0,1,2,1,3,0005-00-0000-73.png,0003-00-0000-37.png
00000009,780,0,1447188206515,1447188207069,1091,292,0,0,0,2,3,1,5,0003-00-0000-32.png,0002-00-0000-94.png
00000009,781,1,1447188209942,1447188210439,1067,279,0,0,0,2,1,1,3,0003-00-0000-28.png,0005-00-0001-00.png
00000009,782,0,1447188211254,1447188212435,474,402,0,0,0,3,2,1,5,0002-00-0001-89.png,0003-00-0001-49.png
00000009,783,0,1447188215607,1447188215615,862,334,0,0,0,3,4,1,7,0002-00-0000-56.png,0004-00-0001-59.png
00000009,784,1,1447188218756,1447188219215,1090,256,0,0,0,4,3,1,7,0004-00-0001-33.png,0002-00-0001-86.png
00000009,785,0,1447188220066,1447188220136,914,407,0,0,0,0,1,1,1,0001-00-0001-46.png,0005-00-0001-15.png
00000009,786,1,1447188223248,1447188223981,475,242,0,0,0,3,4,1,7,0002-00-0001-19.png,0004-00-0000-38.png
00000009,787,1,1447188224918,1447188224958,888,410,0,0,0,1,0,1,1,0005-00-0000-15.png,0001-00-0001-11.png
00000009,788,1,1447188226051,1447188226956,922,315,0,0,0,2,1,1,3,0003-00-0000-75.png,0005-00-0001-45.png
00000009,789,1,1447188227869,1447188227901,882,414,0,0,0,3,2,1,5,0002-00-0000-82.png,0003-00-0001-87.png
00000009,790,0,1447188229876,1447188229924,884,454,0,0,0,2,3,1,5,0003-00-0000-80.png,0002-00-0001-07.png
00000009,791,1,1447188233007,1447188233632,963,286,0,0,0,4,3,1,7,0004-00-0001-73.png,0002-00-0001-05.png
00000009,792,0,1447188234566,1447188234590,891,442,0,0,0,1,2,1,3,0005-00-0001-78.png,0003-00-0001-13.png
00000009,793,0,1447188237764,1447188238249,949,327,0,0,0,2,3,1,5,0003-00-0001-44.png,0002-00-0001-73.png
00000009,794,0,1447188241383,1447188241403,863,334,0,0,0,3,4,1,7,0002-00-0000-51.png,0004-00-0000-14.png
00000009,795,1,1447188244253,1447188244826,939,309,0,0,0,3,2,1,5,0002-00-0001-71.png,0003-00-0000-88.png
00000009,796,0,1447188245716,1447188245776,888,436,0,0,0,1,2,1,3,0005-00-0000-16.png,0003-00-0000-41.png
00000009,797,1,1447188248697,1447188249181,1058,279,0,0,0,1,0,1,1,0005-00-0000-54.png,0001-00-0001-04.png
00000009,798,1,1447188250037,1447188250057,862,358,0,0,0,2,1,1,3,0003-00-0000-91.png,0005-00-0000-17.png
00000009,799,1,1447188251223,1447188252035,915,323,0,0,0,4,3,1,7,0004-00-0001-81.png,0002-00-0001-53.png
00000009,800,0,1447188252921,1447188252961,875,397,0,0,0,0,1,1,1,0001-00-0000-95.png,0005-00-0001-91.png
00000009,801,1,1447188256028,1447188256997,464,291,0,0,0,0,1,1,1,0001-00-0000-18.png,0005-00-0001-62.png
00000009,802,0,1447188257879,1447188258907,917,340,0,0,0,3,4,1,7,0002-00-0001-53.png,0004-00-0000-80.png
00000009,803,0,1447188261743,1447188262611,376,345,0,0,0,3,2,1,5,0002-00-0000-00.png,0003-00-0000-89.png
00000009,804,0,1447188265453,1447188266105,478,237,0,0,0,1,0,1,1,0005-00-0000-14.png,0001-00-0001-23.png
00000009,805,0,1447188269259,1447188269299,913,345,0,0,0,1,2,1,3,0005-00-0001-24.png,0003-00-0001-91.png
00000009,806,1,1447188272469,1447188272477,881,309,0,0,0,4,3,1,7,0004-00-0000-88.png,0002-00-0000-42.png
00000009,807,1,1447188273403,1447188273463,862,436,0,0,0,2,1,1,3,0003-00-0000-80.png,0005-00-0000-45.png
00000009,808,0,1447188274475,1447188275394,1016,266,0,0,0,2,3,1,5,0003-00-0000-11.png,0002-00-0001-67.png
00000009,809,0,1447188278392,1447188278405,861,365,0,0,0,0,1,1,1,0001-00-0000-56.png,0005-00-0000-37.png
00000009,810,1,1447188281411,1447188281443,907,350,0,0,0,4,3,1,7,0004-00-0000-93.png,0002-00-0000-24.png
00000009,811,0,1447188282376,1447188282392,860,405,0,0,0,3,4,1,7,0002-00-0000-84.png,0004-00-0001-88.png
00000009,812,0,1447188285225,1447188285752,940,315,0,0,0,2,3,1,5,0003-00-0000-82.png,0002-00-0000-70.png
00000009,813,1,1447188288746,1447188288797,862,369,0,0,0,1,0,1,1,0005-00-0000-05.png,0001-00-0000-95.png
00000009,814,1,1447188289738,1447188289782,869,400,0,0,0,3,2,1,5,0002-00-0000-49.png,0003-00-0000-64.png
00000009,815,1,1447188290823,1447188291908,934,317,0,0,0,2,1,1,3,0003-00-0000-66.png,0005-00-0000-16.png
00000009,816,0,1447188292814,1447188292850,873,421,0,0,0,1,2,1,3,0005-00-0000-92.png,0003-00-0001-30.png
00000009,817,1,1447188295968,1447188296473,1067,263,0,0,0,3,2,1,5,0002-00-0000-01.png,0003-00-0000-04.png
00000009,818,1,1447188297330,1447188297370,878,436,0,0,0,4,3,1,7,0004-00-0000-13.png,0002-00-0001-06.png
00000009,819,1,1447188298473,1447188299198,918,339,0,0,0,1,0,1,1,0005-00-0000-37.png,0001-00-0001-79.png
00000009,820,0,1447188300103,1447188300152,939,399,0,0,0,0,1,1,1,0001-00-0001-60.png,0005-00-0000-30.png
00000009,821,1,1447188303351,1447188303387,877,315,0,0,0,2,1,1,3,0003-00-0001-68.png,0005-00-0001-43.png
00000009,822,0,1447188304428,1447188304467,858,440,0,0,0,2,3,1,5,0003-00-0000-47.png,0002-00-0001-01.png
00000009,823,0,1447188307593,1447188308151,1061,263,0,0,0,1,2,1,3,0005-00-0000-78.png,0003-00-0000-20.png
00000009,824,0,1447188310985,1447188311581,1041,279,0,0,0,3,4,1,7,0002-00-0000-61.png,0004-00-0000-13.png
00000009,825,1,1447188314751,1447188315311,962,333,0,0,0,2,1,1,3,0003-00-0000-26.png,0005-00-0001-44.png
00000009,826,0,1447188316808,1447188317560,1034,292,0,0,0,0,1,1,1,0001-00-0000-81.png,0005-00-0001-45.png
00000009,827,0,1447188320534,1447188321037,1016,307,0,0,0,2,3,1,5,0003-00-0001-15.png,0002-00-0000-86.png
00000009,828,1,1447188324202,1447188324666,1071,280,0,0,0,4,3,1,7,0004-00-0000-66.png,0002-00-0001-57.png
00000009,829,1,1447188326037,1447188326726,512,234,0,0,0,3,4,1,7,0002-00-0000-72.png,0004-00-0001-05.png
00000009,830,1,1447188327630,1447188327654,860,410,0,0,0,3,2,1,5,0002-00-0000-97.png,0003-00-0001-42.png
00000009,831,0,1447188328811,1447188328941,896,462,0,0,0,1,2,1,3,0005-00-0000-75.png,0003-00-0001-35.png
00000009,832,1,1447188331903,1447188331973,927,407,0,0,0,1,0,1,1,0005-00-0000-11.png,0001-00-0000-99.png
00000009,833,0,1447188332865,1447188332905,869,414,0,0,0,0,1,1,1,0001-00-0001-00.png,0005-00-0001-95.png
00000009,834,0,1447188336043,1447188336077,890,304,0,0,0,3,4,1,7,0002-00-0001-53.png,0004-00-0000-83.png
00000009,835,1,1447188339175,1447188339649,496,260,0,0,0,1,2,1,3,0005-00-0000-79.png,0003-00-0001-63.png
00000009,836,0,1447188341153,1447188342033,1055,279,0,0,0,2,3,1,5,0003-00-0000-88.png,0002-00-0000-88.png
00000009,837,0,1447188345182,1447188345697,507,285,0,0,0,3,2,1,5,0002-00-0001-76.png,0003-00-0000-45.png
00000009,838,1,1447188348544,1447188348572,898,393,0,0,0,1,0,1,1,0005-00-0001-09.png,0001-00-0000-01.png
00000009,839,1,1447188349579,1447188349621,862,410,0,0,0,2,1,1,3,0003-00-0001-06.png,0005-00-0001-14.png
00000009,840,1,1447188350652,1447188351521,903,346,0,0,0,4,3,1,7,0004-00-0001-29.png,0002-00-0000-08.png
00000009,841,0,1447188352500,1447188352532,911,435,0,0,0,2,3,1,5,0003-00-0000-97.png,0002-00-0000-63.png
00000009,842,0,1447188355523,1447188356169,510,240,0,0,0,3,2,1,5,0002-00-0000-79.png,0003-00-0001-64.png
00000009,843,0,1447188359167,1447188359199,887,351,0,0,0,3,4,1,7,0002-00-0001-91.png,0004-00-0000-93.png
00000009,844,1,1447188362069,1447188362622,944,306,0,0,0,1,0,1,1,0005-00-0000-20.png,0001-00-0000-27.png
00000009,845,0,1447188363499,1447188363547,893,392,0,0,0,0,1,1,1,0001-00-0000-70.png,0005-00-0000-37.png
00000009,846,0,1447188366649,1447188366673,879,312,0,0,0,1,2,1,3,0005-00-0001-20.png,0003-00-0001-72.png
00000009,847,1,1447188369518,1447188369558,885,402,0,0,0,2,1,1,3,0003-00-0001-34.png,0005-00-0000-45.png
00000009,848,1,1447188370506,1447188370543,862,399,0,0,0,4,3,1,7,0004-00-0000-82.png,0002-00-0000-23.png
00000009,849,0,1447188371599,1447188372356,500,224,0,0,0,1,0,1,1,0005-00-0000-82.png,0001-00-0000-83.png
00000009,850,0,1447188375271,1447188375872,453,384,0,0,0,3,2,1,5,0002-00-0000-73.png,0003-00-0001-39.png
00000009,851,1,1447188379072,1447188379570,413,367,0,0,0,1,2,1,3,0005-00-0001-16.png,0003-00-0000-01.png
00000009,852,0,1447188380512,1447188380564,866,442,0,0,0,0,1,1,1,0001-00-0000-43.png,0005-00-0000-10.png
00000009,853,1,1447188383383,1447188383905,1042,276,0,0,0,2,1,1,3,0003-00-0001-11.png,0005-00-0000-42.png
00000009,854,1,1447188384765,1447188384797,901,406,0,0,0,4,3,1,7,0004-00-0001-31.png,0002-00-0001-50.png
00000009,855,1,1447188385903,1447188387625,477,254,0,0,0,2,3,1,5,0003-00-0000-88.png,0002-00-0001-03.png
00000009,856,0,1447188388533,1447188388620,873,462,0,0,0,3,4,1,7,0002-00-0001-52.png,0004-00-0001-33.png
00000009,857,0,1447188391471,1447188391562,877,411,0,0,0,0,1,1,1,0001-00-0000-17.png,0005-00-0001-24.png
00000009,858,0,1447188394535,1447188395054,490,269,0,0,0,3,2,1,5,0002-00-0001-83.png,0003-00-0000-82.png
00000009,859,0,1447188398270,1447188398294,901,302,0,0,0,1,2,1,3,0005-00-0001-33.png,0003-00-0001-78.png
00000009,860,0,1447188401433,1447188401955,938,333,0,0,0,3,4,1,7,0002-00-0001-26.png,0004-00-0001-45.png
00000009,861,1,1447188405139,1447188405170,893,302,0,0,0,1,0,1,1,0005-00-0000-97.png,0001-00-0001-46.png
00000009,862,1,1447188406113,1447188406954,1012,267,0,0,0,4,3,1,7,0004-00-0001-26.png,0002-00-0000-32.png
00000009,863,1,1447188407921,1447188407941,881,364,0,0,0,2,1,1,3,0003-00-0001-73.png,0005-00-0000-64.png
00000009,864,0,1447188409071,1447188409134,888,462,0,0,0,2,3,1,5,0003-00-0001-76.png,0002-00-0001-97.png
00000009,865,1,1447188412252,1447188412284,899,334,0,0,0,2,1,1,3,0003-00-0000-78.png,0005-00-0000-34.png
00000009,866,1,1447188413206,1447188413922,513,244,0,0,0,0,1,1,1,0001-00-0000-25.png,0005-00-0001-83.png
00000009,867,0,1447188414818,1447188415788,1036,308,0,0,0,2,3,1,5,0003-00-0001-56.png,0002-00-0001-39.png
00000009,868,0,1447188418962,1447188419458,960,326,0,0,0,3,4,1,7,0002-00-0001-06.png,0004-00-0001-95.png
00000009,869,1,1447188422380,1447188422985,1067,279,0,0,0,4,3,1,7,0004-00-0000-42.png,0002-00-0000-09.png
00000009,870,0,1447188423950,1447188424730,510,246,0,0,0,3,2,1,5,0002-00-0001-81.png,0003-00-0000-38.png
00000009,871,0,1447188427776,1447188427804,939,384,0,0,0,1,2,1,3,0005-00-0001-14.png,0003-00-0001-11.png
00000009,872,1,1447188430847,1447188431358,1063,263,0,0,0,1,0,1,1,0005-00-0000-20.png,0001-00-0000-38.png
00000009,873,1,1447188432753,1447188432860,861,469,0,0,0,4,3,1,7,0004-00-0001-15.png,0002-00-0000-27.png
00000009,874,0,1447188433997,1447188434061,862,462,0,0,0,3,4,1,7,0002-00-0000-20.png,0004-00-0000-46.png
00000009,875,0,1447188437257,1447188437886,1071,265,0,0,0,1,2,1,3,0005-00-0001-27.png,0003-00-0000-04.png
00000009,876,1,1447188440964,1447188440996,872,364,0,0,0,1,0,1,1,0005-00-0000-83.png,0001-00-0001-12.png
00000009,877,1,1447188441927,1447188442022,933,465,0,0,0,3,2,1,5,0002-00-0001-90.png,0003-00-0001-97.png
00000009,878,0,1447188443110,1447188443169,871,446,0,0,0,0,1,1,1,0001-00-0001-59.png,0005-00-0001-76.png
00000009,879,0,1447188446288,1447188446348,902,333,0,0,0,2,3,1,5,0003-00-0000-31.png,0002-00-0000-12.png
00000009,880,1,1447188449479,1447188449512,874,332,0,0,0,2,1,1,3,0003-00-0000-96.png,0005-00-0001-78.png
00000009,881,0,1447188450444,1447188450472,871,408,0,0,0,3,4,1,7,0002-00-0000-38.png,0004-00-0000-66.png
00000009,882,0,1447188453640,1447188453679,889,333,0,0,0,2,3,1,5,0003-00-0001-33.png,0002-00-0001-46.png
00000009,883,1,1447188456713,1447188456765,888,384,0,0,0,4,3,1,7,0004-00-0001-55.png,0002-00-0000-85.png
00000009,884,1,1447188457686,1447188457757,888,447,0,0,0,3,2,1,5,0002-00-0001-42.png,0003-00-0000-21.png
00000009,885,1,1447188458699,1447188458770,870,436,0,0,0,2,1,1,3,0003-00-0000-24.png,0005-00-0000-57.png
00000009,886,1,1447188459922,1447188459962,870,435,0,0,0,1,0,1,1,0005-00-0000-71.png,0001-00-0000-46.png
00000009,887,0,1447188461144,1447188461215,876,462,0,0,0,1,2,1,3,0005-00-0000-20.png,0003-00-0001-19.png
00000009,888,1,1447188464265,1447188464809,497,261,0,0,0,0,1,1,1,0001-00-0000-29.png,0005-00-0001-60.png
00000009,889,1,1447188465673,1447188466408,916,337,0,0,0,1,0,1,1,0005-00-0001-17.png,0001-00-0001-92.png
00000009,890,0,1447188467337,1447188467405,906,443,0,0,0,3,4,1,7,0002-00-0001-39.png,0004-00-0001-89.png
00000009,891,1,1447188470326,1447188470427,944,409,0,0,0,3,2,1,5,0002-00-0001-90.png,0003-00-0001-67.png
00000009,892,0,1447188471396,1447188471426,862,410,0,0,0,2,3,1,5,0003-00-0001-10.png,0002-00-0000-60.png
00000009,893,0,1447188474274,1447188474908,917,333,0,0,0,1,2,1,3,0005-00-0001-29.png,0003-00-0000-27.png
00000009,894,0,1447188478094,1447188478611,1035,262,0,0,0,0,1,1,1,0001-00-0001-10.png,0005-00-0001-36.png
00000009,895,1,1447188481824,1447188481848,878,326,0,0,0,4,3,1,7,0004-00-0000-87.png,0002-00-0001-67.png
00000009,896,1,1447188482819,1447188482879,880,416,0,0,0,2,1,1,3,0003-00-0001-43.png,0005-00-0000-63.png
00000009,897,1,1447188483900,1447188484780,518,241,0,0,0,1,2,1,3,0005-00-0001-50.png,0003-00-0000-34.png
00000009,898,1,1447188485659,1447188485683,862,373,0,0,0,3,2,1,5,0002-00-0000-66.png,0003-00-0000-16.png
00000009,899,0,1447188486861,1447188486889,881,441,0,0,0,0,1,1,1,0001-00-0001-71.png,0005-00-0001-02.png
00000009,900,0,1447188490010,1447188490519,1069,258,0,0,0,2,3,1,5,0003-00-0000-08.png,0002-00-0001-08.png
00000009,901,1,1447188493677,1447188494182,966,330,0,0,0,2,1,1,3,0003-00-0001-44.png,0005-00-0001-31.png
00000009,902,1,1447188495029,1447188496049,383,337,0,0,0,3,4,1,7,0002-00-0001-86.png,0004-00-0000-46.png
00000009,903,1,1447188496938,1447188496990,888,367,0,0,0,4,3,1,7,0004-00-0001-71.png,0002-00-0000-20.png
00000009,904,1,1447188498211,1447188498239,865,410,0,0,0,1,0,1,1,0005-00-0001-90.png,0001-00-0000-75.png
00000009,905,1,1447188499382,1447188499414,897,439,0,0,0,3,2,1,5,0002-00-0001-97.png,0003-00-0000-56.png
00000009,906,0,1447188500595,1447188501694,513,239,0,0,0,2,1,1,3,0003-00-0001-77.png,0005-00-0000-18.png
00000009,907,0,1447188504848,1447188504880,913,319,0,0,0,3,4,1,7,0002-00-0001-34.png,0004-00-0000-84.png
00000009,908,0,1447188507750,1447188507770,865,388,0,0,0,1,2,1,3,0005-00-0001-56.png,0003-00-0000-80.png
00000009,909,0,1447188510712,1447188511273,1041,318,0,0,0,2,3,1,5,0003-00-0001-50.png,0002-00-0001-47.png
00000009,910,1,1447188515374,1447188515390,871,354,0,0,0,4,3,1,7,0004-00-0001-88.png,0002-00-0000-69.png
00000009,911,1,1447188516385,1447188517168,917,326,0,0,0,1,0,1,1,0005-00-0001-69.png,0001-00-0000-30.png
00000009,912,0,1447188518175,1447188518215,910,404,0,0,0,0,1,1,1,0001-00-0001-38.png,0005-00-0000-56.png
00000009,913,0,1447188521334,1447188521958,484,242,0,0,0,3,2,1,5,0002-00-0000-66.png,0003-00-0000-81.png
00000009,914,1,1447188525071,1447188525587,470,418,0,0,0,3,4,1,7,0002-00-0000-54.png,0004-00-0000-22.png
00000009,915,1,1447188526513,1447188527407,1041,310,0,0,0,2,1,1,3,0003-00-0000-99.png,0005-00-0001-59.png
00000009,916,0,1447188528309,1447188528361,873,358,0,0,0,2,3,1,5,0003-00-0000-95.png,0002-00-0001-07.png
00000009,917,1,1447188531478,1447188531970,1075,279,0,0,0,1,0,1,1,0005-00-0000-88.png,0001-00-0001-26.png
00000009,918,0,1447188532815,1447188533654,1045,269,0,0,0,0,1,1,1,0001-00-0000-08.png,0005-00-0001-27.png
00000009,919,1,1447188537193,1447188537731,935,315,0,0,0,4,3,1,7,0004-00-0000-45.png,0002-00-0000-33.png
00000009,920,0,1447188538626,1447188538670,888,394,0,0,0,1,2,1,3,0005-00-0001-81.png,0003-00-0001-20.png
00000009,921,1,1447188541823,1447188541864,873,306,0,0,0,1,0,1,1,0005-00-0001-52.png,0001-00-0001-44.png
00000009,922,1,1447188542799,1447188542831,888,374,0,0,0,4,3,1,7,0004-00-0000-40.png,0002-00-0001-61.png
00000009,923,0,1447188543961,1447188544729,479,242,0,0,0,3,2,1,5,0002-00-0001-57.png,0003-00-0000-82.png
00000009,924,0,1447188547627,1447188547679,857,404,0,0,0,0,1,1,1,0001-00-0001-43.png,0005-00-0001-03.png
00000009,925,0,1447188550829,1447188551326,1065,257,0,0,0,1,2,1,3,0005-00-0001-95.png,0003-00-0001-12.png
00000009,926,0,1447188554493,1447188554529,864,332,0,0,0,2,3,1,5,0003-00-0001-70.png,0002-00-0000-33.png
00000009,927,0,1447188557677,1447188557685,893,363,0,0,0,3,4,1,7,0002-00-0000-30.png,0004-00-0000-19.png
00000009,928,1,1447188560896,1447188561391,1069,289,0,0,0,2,1,1,3,0003-00-0000-34.png,0005-00-0001-34.png
00000009,929,1,1447188562264,1447188562326,913,421,0,0,0,3,2,1,5,0002-00-0000-77.png,0003-00-0001-08.png
00000009,930,1,1447188563453,1447188563493,862,462,0,0,0,2,1,1,3,0003-00-0000-18.png,0005-00-0001-40.png
00000009,931,0,1447188564523,1447188564575,865,452,0,0,0,0,1,1,1,0001-00-0000-72.png,0005-00-0001-07.png
00000009,932,0,1447188567723,1447188568230,1062,291,0,0,0,2,3,1,5,0003-00-0001-41.png,0002-00-0000-90.png
00000009,933,1,1447188571103,1447188571601,924,354,0,0,0,1,0,1,1,0005-00-0000-77.png,0001-00-0000-93.png
00000009,934,0,1447188572436,1447188572510,927,436,0,0,0,3,4,1,7,0002-00-0000-56.png,0004-00-0000-90.png
00000009,935,1,1447188575680,1447188576337,507,237,0,0,0,1,2,1,3,0005-00-0000-35.png,0003-00-0000-83.png
00000009,936,1,1447188577167,1447188577183,886,378,0,0,0,4,3,1,7,0004-00-0000-62.png,0002-00-0001-09.png
00000009,937,1,1447188578292,1447188579069,1047,311,0,0,0,4,3,1,7,0004-00-0000-69.png,0002-00-0000-43.png
00000009,938,0,1447188580004,1447188580119,913,450,0,0,0,2,3,1,5,0003-00-0001-57.png,0002-00-0000-53.png
00000009,939,1,1447188583350,1447188583883,490,267,0,0,0,3,4,1,7,0002-00-0000-89.png,0004-00-0000-98.png
00000009,940,1,1447188584814,1447188584874,866,403,0,0,0,2,1,1,3,0003-00-0001-36.png,0005-00-0001-22.png
00000009,941,1,1447188585964,1447188586024,890,455,0,0,0,3,2,1,5,0002-00-0000-53.png,0003-00-0000-85.png
00000009,942,1,1447188587083,1447188587956,1033,273,0,0,0,1,0,1,1,0005-00-0001-15.png,0001-00-0001-27.png
00000009,943,0,1447188588836,1447188588912,908,466,0,0,0,0,1,1,1,0001-00-0001-44.png,0005-00-0001-53.png
00000009,944,0,1447188592047,1447188592306,880,337,0,0,0,1,2,1,3,0005-00-0001-58.png,0003-00-0001-24.png
00000009,945,1,1447188595377,1447188596063,964,392,0,0,0,4,3,1,7,0004-00-0000-38.png,0002-00-0001-15.png
00000009,946,0,1447188597563,1447188598228,943,345,0,0,0,2,3,1,5,0003-00-0001-60.png,0002-00-0000-98.png
00000009,947,1,1447188601341,1447188601828,945,307,0,0,0,2,1,1,3,0003-00-0000-77.png,0005-00-0001-68.png
00000009,948,1,1447188602699,1447188602732,888,436,0,0,0,1,0,1,1,0005-00-0000-59.png,0001-00-0000-11.png
00000009,949,0,1447188603853,1447188603940,867,454,0,0,0,0,1,1,1,0001-00-0001-44.png,0005-00-0001-97.png
00000009,950,1,1447188607578,1447188608066,499,298,0,0,0,3,4,1,7,0002-00-0000-19.png,0004-00-0001-40.png
