subject_id,trial,correct_response,stim_time,response_time,x_coord,y_coord,trial_timeout,timeout_time,interTrial_timeout,left_rank,right_rank,distance,joint_rank,left_image,right_image
00000009,1,0,1446217758973,1446217758981,909,277,0,0,0,1,2,1,3,0005-00-0000-46.png,0003-00-0001-56.png
00000009,2,1,1446217762191,1446217762737,1001,320,0,0,0,1,0,1,1,0005-00-0000-32.png,0001-00-0001-77.png
00000009,3,0,1446217763901,1446217764605,1018,266,0,0,0,3,4,1,7,0002-00-0000-46.png,0004-00-0001-42.png
00000009,4,1,1446217767498,1446217767566,888,384,0,0,0,3,2,1,5,0002-00-0001-49.png,0003-00-0001-48.png
00000009,5,0,1446217768761,1446217769618,1019,339,0,0,0,2,3,1,5,0003-00-0000-21.png,0002-00-0000-92.png
00000009,6,0,1446217772452,1446217772961,996,311,0,0,0,0,1,1,1,0001-00-0001-75.png,0005-00-0001-81.png
00000009,7,1,1446217776153,1446217776181,941,319,0,0,0,4,3,1,7,0004-00-0001-43.png,0002-00-0001-62.png
00000009,8,0,1446217777326,1446217778632,441,257,0,0,0,2,1,1,3,0003-00-0001-40.png,0005-00-0001-44.png
00000009,9,1,1446217781700,1446217782322,1067,293,0,0,0,4,3,1,7,0004-00-0000-80.png,0002-00-0000-60.png
00000009,10,1,1446217783277,1446217783333,913,410,0,0,0,1,0,1,1,0005-00-0000-36.png,0001-00-0000-56.png
00000009,11,0,1446217784868,1446217784984,913,462,0,0,0,0,1,1,1,0001-00-0001-74.png,0005-00-0001-17.png
00000009,12,1,1446217787817,1446217788364,466,293,0,0,0,3,4,1,7,0002-00-0000-94.png,0004-00-0000-65.png
00000009,13,0,1446217789369,1446217790235,373,368,0,0,0,2,1,1,3,0003-00-0000-08.png,0005-00-0000-25.png
00000009,14,0,1446217793175,1446217793871,941,323,0,0,0,1,2,1,3,0005-00-0001-42.png,0003-00-0001-06.png
00000009,15,1,1446217796719,1446217797250,944,325,0,0,0,3,2,1,5,0002-00-0000-19.png,0003-00-0000-06.png
00000009,16,0,1446217798235,1446217798303,939,384,0,0,0,2,3,1,5,0003-00-0001-10.png,0002-00-0000-37.png
00000009,17,1,1446217801379,1446217802018,466,279,0,0,0,0,1,1,1,0001-00-0000-46.png,0005-00-0000-60.png
00000009,18,1,1446217802934,1446217802962,867,367,0,0,0,4,3,1,7,0004-00-0000-74.png,0002-00-0000-05.png
00000009,19,0,1446217803978,1446217805156,1092,268,0,0,0,3,4,1,7,0002-00-0001-30.png,0004-00-0000-05.png
00000009,20,0,1446217808281,1446217808808,427,262,0,0,0,3,2,1,5,0002-00-0000-65.png,0003-00-0000-74.png
00000009,21,1,1446217811649,1446217811804,888,436,0,0,0,2,1,1,3,0003-00-0000-70.png,0005-00-0000-80.png
00000009,22,0,1446217812763,1446217812819,862,384,0,0,0,2,3,1,5,0003-00-0001-67.png,0002-00-0001-48.png
00000009,23,1,1446217816131,1446217816834,421,333,0,0,0,1,2,1,3,0005-00-0001-70.png,0003-00-0001-44.png
00000009,24,0,1446217817800,1446217818685,374,353,0,0,0,1,0,1,1,0005-00-0000-97.png,0001-00-0001-32.png
00000009,25,1,1446217821628,1446217822326,358,412,0,0,0,3,4,1,7,0002-00-0001-44.png,0004-00-0000-99.png
00000009,26,1,1446217823214,1446217823634,964,526,0,0,0,3,2,1,5,0002-00-0001-29.png,0003-00-0000-60.png
00000009,27,0,1446217824668,1446217824840,905,436,0,0,0,2,3,1,5,0003-00-0001-15.png,0002-00-0000-46.png
00000009,28,1,1446217827975,1446217828142,913,266,0,0,0,2,1,1,3,0003-00-0001-76.png,0005-00-0001-29.png
00000009,29,1,1446217829168,1446217829272,898,429,0,0,0,1,0,1,1,0005-00-0001-92.png,0001-00-0000-31.png
00000009,30,1,1446217830312,1446217831252,1047,310,0,0,0,4,3,1,7,0004-00-0001-73.png,0002-00-0001-84.png
00000009,31,0,1446217832280,1446217832316,878,405,0,0,0,1,2,1,3,0005-00-0000-83.png,0003-00-0000-41.png
00000009,32,0,1446217835530,1446217836075,1092,271,0,0,0,0,1,1,1,0001-00-0000-23.png,0005-00-0000-34.png
00000009,33,1,1446217839108,1446217840225,908,378,0,0,0,1,0,1,1,0005-00-0000-95.png,0001-00-0001-03.png
00000009,34,1,1446217841141,1446217841319,943,441,0,0,0,2,1,1,3,0003-00-0001-22.png,0005-00-0001-15.png
00000009,35,0,1446217842287,1446217842363,898,384,0,0,0,1,2,1,3,0005-00-0001-94.png,0003-00-0001-92.png
00000009,36,1,1446217845566,1446217846395,449,292,0,0,0,0,1,1,1,0001-00-0000-78.png,0005-00-0001-86.png
00000009,37,0,1446217847275,1446217848013,450,224,0,0,0,3,2,1,5,0002-00-0000-88.png,0003-00-0001-83.png
00000009,38,1,1446217851202,1446217851462,1029,310,0,0,0,4,3,1,7,0004-00-0001-82.png,0002-00-0001-66.png
00000009,39,0,1446217852466,1446217852859,951,527,0,0,0,2,3,1,5,0003-00-0001-41.png,0002-00-0000-20.png
00000009,40,0,1446217855984,1446217856509,1063,285,0,0,0,3,4,1,7,0002-00-0001-79.png,0004-00-0000-40.png
00000009,41,1,1446217859527,1446217859575,886,409,0,0,0,1,0,1,1,0005-00-0001-31.png,0001-00-0001-52.png
00000009,42,0,1446217860504,1446217861177,916,343,0,0,0,2,3,1,5,0003-00-0000-06.png,0002-00-0000-45.png
00000009,43,1,1446217864261,1446217865001,420,432,0,0,0,0,1,1,1,0001-00-0001-40.png,0005-00-0001-66.png
00000009,44,1,1446217865866,1446217867176,1041,259,0,0,0,4,3,1,7,0004-00-0001-00.png,0002-00-0000-67.png
00000009,45,1,1446217868147,1446217868195,887,421,0,0,0,2,1,1,3,0003-00-0000-64.png,0005-00-0001-78.png
00000009,46,0,1446217869231,1446217869964,440,330,0,0,0,3,2,1,5,0002-00-0001-18.png,0003-00-0001-34.png
00000009,47,0,1446217873041,1446217873174,917,283,0,0,0,1,2,1,3,0005-00-0001-72.png,0003-00-0001-05.png
00000009,48,0,1446217876264,1446217876786,939,296,0,0,0,3,4,1,7,0002-00-0001-31.png,0004-00-0001-53.png
00000009,49,1,1446217879912,1446217879941,867,303,0,0,0,1,0,1,1,0005-00-0000-34.png,0001-00-0000-33.png
00000009,50,0,1446217880915,1446217882147,365,381,0,0,0,2,1,1,3,0003-00-0001-73.png,0005-00-0000-57.png
00000009,51,0,1446217885318,1446217885971,381,397,0,0,0,3,2,1,5,0002-00-0000-12.png,0003-00-0000-99.png
00000009,52,0,1446217891073,1446217891137,985,263,0,0,0,0,1,1,1,0001-00-0001-42.png,0005-00-0000-23.png
00000009,53,0,1446217894192,1446217894819,1040,264,0,0,0,2,3,1,5,0003-00-0001-22.png,0002-00-0001-97.png
00000009,54,0,1446217897689,1446217898694,347,381,0,0,0,4,3,1,7,0004-00-0000-61.png,0002-00-0001-31.png
00000009,55,0,1446217904043,1446217904545,971,298,0,0,0,3,4,1,7,0002-00-0000-67.png,0004-00-0001-32.png
00000009,56,0,1446217907746,1446217908592,1044,280,0,0,0,1,2,1,3,0005-00-0001-79.png,0003-00-0000-31.png
00000009,57,1,1446217911714,1446217911750,858,330,0,0,0,4,3,1,7,0004-00-0001-19.png,0002-00-0001-56.png
00000009,58,1,1446217912817,1446217913875,968,321,0,0,0,2,1,1,3,0003-00-0000-63.png,0005-00-0001-49.png
00000009,59,1,1446217914900,1446217914948,869,376,0,0,0,1,0,1,1,0005-00-0001-29.png,0001-00-0001-60.png
00000009,60,0,1446217916224,1446217917057,915,382,0,0,0,2,3,1,5,0003-00-0000-10.png,0002-00-0001-65.png
00000009,61,0,1446217920219,1446217920795,1031,264,0,0,0,3,4,1,7,0002-00-0000-23.png,0004-00-0001-26.png
00000009,62,1,1446217923829,1446217924432,431,249,0,0,0,1,2,1,3,0005-00-0001-35.png,0003-00-0001-22.png
00000009,63,0,1446217925406,1446217925498,862,410,0,0,0,0,1,1,1,0001-00-0000-35.png,0005-00-0000-73.png
00000009,64,0,1446217928407,1446217928427,478,504,0,0,0,3,2,1,5,0002-00-0001-41.png,0003-00-0000-48.png
00000009,65,1,1446217931617,1446217931661,919,292,0,0,0,3,2,1,5,0002-00-0000-60.png,0003-00-0001-86.png
00000009,66,0,1446217932592,1446217933417,384,350,0,0,0,1,0,1,1,0005-00-0001-64.png,0001-00-0000-75.png
00000009,67,0,1446217936595,1446217937745,964,401,0,0,0,3,4,1,7,0002-00-0001-40.png,0004-00-0001-17.png
00000009,68,0,1446217940900,1446217941658,964,347,0,0,0,1,2,1,3,0005-00-0001-44.png,0003-00-0001-75.png
00000009,69,1,1446217944787,1446217945454,1067,269,0,0,0,4,3,1,7,0004-00-0001-86.png,0002-00-0000-49.png
00000009,70,0,1446217946393,1446217947599,940,319,0,0,0,0,1,1,1,0001-00-0001-16.png,0005-00-0001-36.png
00000009,71,0,1446217950500,1446217951106,961,306,0,0,0,2,3,1,5,0003-00-0000-68.png,0002-00-0001-90.png
00000009,72,1,1446217954245,1446217954265,913,306,0,0,0,2,1,1,3,0003-00-0000-45.png,0005-00-0001-22.png
00000009,73,0,1446217955292,1446217955376,888,446,0,0,0,1,2,1,3,0005-00-0000-07.png,0003-00-0001-70.png
00000009,74,0,1446217958550,1446217959370,404,289,0,0,0,1,0,1,1,0005-00-0000-01.png,0001-00-0000-04.png
00000009,75,0,1446217962556,1446217963487,312,358,0,0,0,3,2,1,5,0002-00-0000-73.png,0003-00-0001-20.png
00000009,76,1,1446217966706,1446217967642,379,378,0,0,0,3,4,1,7,0002-00-0001-04.png,0004-00-0001-91.png
00000009,77,0,1446217968537,1446217969863,939,398,0,0,0,0,1,1,1,0001-00-0000-77.png,0005-00-0000-88.png
00000009,78,1,1446217972757,1446217973971,917,337,0,0,0,2,1,1,3,0003-00-0001-43.png,0005-00-0001-68.png
00000009,79,1,1446217974917,1446217974941,868,385,0,0,0,4,3,1,7,0004-00-0001-74.png,0002-00-0001-71.png
00000009,80,0,1446217975950,1446217976941,927,424,0,0,0,2,3,1,5,0003-00-0001-20.png,0002-00-0001-52.png
00000009,81,1,1446217979946,1446217979982,891,358,0,0,0,1,0,1,1,0005-00-0001-50.png,0001-00-0001-62.png
00000009,82,0,1446217981008,1446217982130,939,371,0,0,0,0,1,1,1,0001-00-0001-48.png,0005-00-0001-57.png
00000009,83,0,1446217985203,1446217986055,990,419,0,0,0,1,2,1,3,0005-00-0000-54.png,0003-00-0000-66.png
00000009,84,0,1446217988904,1446217989725,434,277,0,0,0,4,3,1,7,0004-00-0001-08.png,0002-00-0001-90.png
00000009,85,0,1446217993452,1446217993464,894,301,0,0,0,2,3,1,5,0003-00-0001-94.png,0002-00-0000-07.png
00000009,86,1,1446217996819,1446217996847,886,302,0,0,0,3,2,1,5,0002-00-0001-80.png,0003-00-0000-45.png
00000009,87,0,1446217997884,1446217998848,458,254,0,0,0,2,1,1,3,0003-00-0000-47.png,0005-00-0001-53.png
00000009,88,0,1446218001781,1446218002440,965,472,0,0,0,3,4,1,7,0002-00-0001-25.png,0004-00-0000-72.png
00000009,89,1,1446218005421,1446218005991,456,240,0,0,0,3,4,1,7,0002-00-0000-27.png,0004-00-0000-39.png
00000009,90,0,1446218006937,1446218008302,1016,257,0,0,0,1,2,1,3,0005-00-0001-61.png,0003-00-0000-89.png
00000009,91,1,1446218011429,1446218012489,331,388,0,0,0,0,1,1,1,0001-00-0001-06.png,0005-00-0000-41.png
00000009,92,0,1446218013467,1446218014237,1030,279,0,0,0,2,3,1,5,0003-00-0000-96.png,0002-00-0001-87.png
00000009,93,0,1446218017431,1446218017977,433,276,0,0,0,3,2,1,5,0002-00-0000-08.png,0003-00-0001-93.png
00000009,94,1,1446218021109,1446218021206,927,291,0,0,0,2,1,1,3,0003-00-0000-89.png,0005-00-0000-57.png
00000009,95,1,1446218022163,1446218022521,961,485,0,0,0,4,3,1,7,0004-00-0000-10.png,0002-00-0000-13.png
00000009,96,1,1446218023485,1446218023549,885,398,0,0,0,1,0,1,1,0005-00-0000-28.png,0001-00-0000-19.png
00000009,97,0,1446218024720,1446218025906,434,270,0,0,0,4,3,1,7,0004-00-0001-10.png,0002-00-0000-97.png
00000009,98,0,1446218028930,1446218029074,875,410,0,0,0,3,4,1,7,0002-00-0000-60.png,0004-00-0000-86.png
00000009,99,0,1446218031919,1446218032457,946,329,0,0,0,2,3,1,5,0003-00-0001-76.png,0002-00-0000-27.png
00000009,100,0,1446218035590,1446218036732,439,287,0,0,0,2,1,1,3,0003-00-0000-38.png,0005-00-0001-45.png
00000009,101,0,1446218039755,1446218040972,1019,333,0,0,0,0,1,1,1,0001-00-0001-57.png,0005-00-0001-52.png
00000009,102,1,1446218043869,1446218044614,1039,263,0,0,0,1,0,1,1,0005-00-0000-87.png,0001-00-0000-98.png
00000009,103,1,1446218045527,1446218045568,888,322,0,0,0,3,2,1,5,0002-00-0001-42.png,0003-00-0001-40.png
00000009,104,0,1446218046642,1446218046706,876,410,0,0,0,1,2,1,3,0005-00-0000-63.png,0003-00-0000-48.png
00000009,105,0,1446218049583,1446218050344,961,377,0,0,0,3,4,1,7,0002-00-0000-37.png,0004-00-0001-01.png
00000009,106,0,1446218053538,1446218054110,429,286,0,0,0,4,3,1,7,0004-00-0000-81.png,0002-00-0000-59.png
00000009,107,0,1446218057321,1446218057879,1092,279,0,0,0,2,3,1,5,0003-00-0001-63.png,0002-00-0001-82.png
00000009,108,1,1446218060891,1446218061939,1084,295,0,0,0,1,0,1,1,0005-00-0000-17.png,0001-00-0000-43.png
00000009,109,0,1446218062858,1446218062926,911,331,0,0,0,0,1,1,1,0001-00-0000-90.png,0005-00-0000-69.png
00000009,110,0,1446218067590,1446218068384,928,325,0,0,0,1,2,1,3,0005-00-0001-11.png,0003-00-0001-65.png
00000009,111,0,1446218071576,1446218072229,478,267,0,0,0,3,2,1,5,0002-00-0000-82.png,0003-00-0001-09.png
00000009,112,0,1446218075402,1446218076062,371,412,0,0,0,2,1,1,3,0003-00-0001-73.png,0005-00-0001-45.png
00000009,113,1,1446218079226,1446218080188,945,349,0,0,0,2,1,1,3,0003-00-0000-15.png,0005-00-0000-19.png
00000009,114,0,1446218081074,1446218081159,922,394,0,0,0,1,2,1,3,0005-00-0000-74.png,0003-00-0000-83.png
00000009,115,0,1446218084215,1446218084780,963,304,0,0,0,3,4,1,7,0002-00-0000-92.png,0004-00-0001-91.png
00000009,116,0,1446218087803,1446218088643,345,349,0,0,0,4,3,1,7,0004-00-0000-75.png,0002-00-0001-76.png
00000009,117,0,1446218091769,1446218092302,959,346,0,0,0,2,3,1,5,0003-00-0001-64.png,0002-00-0001-08.png
00000009,118,1,1446218095406,1446218096064,1067,279,0,0,0,1,0,1,1,0005-00-0001-45.png,0001-00-0000-79.png
00000009,119,1,1446218096995,1446218097063,899,358,0,0,0,3,2,1,5,0002-00-0000-87.png,0003-00-0001-22.png
00000009,120,0,1446218098118,1446218098178,858,400,0,0,0,0,1,1,1,0001-00-0000-86.png,0005-00-0000-86.png
00000009,121,1,1446218101086,1446218101685,939,334,0,0,0,4,3,1,7,0004-00-0001-03.png,0002-00-0001-50.png
00000009,122,0,1446218102520,1446218102611,918,431,0,0,0,1,2,1,3,0005-00-0001-86.png,0003-00-0000-47.png
00000009,123,0,1446218105986,1446218106737,1041,265,0,0,0,0,1,1,1,0001-00-0000-47.png,0005-00-0001-23.png
00000009,124,0,1446218109582,1446218110717,1047,262,0,0,0,3,4,1,7,0002-00-0000-39.png,0004-00-0001-22.png
00000009,125,1,1446218113850,1446218115091,963,347,0,0,0,2,1,1,3,0003-00-0000-15.png,0005-00-0001-07.png
00000009,126,1,1446218116043,1446218116125,883,412,0,0,0,3,2,1,5,0002-00-0001-90.png,0003-00-0001-12.png
00000009,127,0,1446218117159,1446218117458,877,462,0,0,0,2,3,1,5,0003-00-0000-79.png,0002-00-0001-88.png
00000009,128,1,1446218120667,1446218121381,990,358,0,0,0,1,0,1,1,0005-00-0000-69.png,0001-00-0000-17.png
00000009,129,1,1446218122268,1446218122304,892,405,0,0,0,3,2,1,5,0002-00-0001-12.png,0003-00-0001-11.png
00000009,130,0,1446218123399,1446218123574,897,436,0,0,0,3,4,1,7,0002-00-0001-76.png,0004-00-0001-46.png
00000009,131,0,1446218126745,1446218127444,366,374,0,0,0,4,3,1,7,0004-00-0001-48.png,0002-00-0000-86.png
00000009,132,0,1446218130516,1446218131158,1064,302,0,0,0,1,2,1,3,0005-00-0000-66.png,0003-00-0001-08.png
00000009,133,1,1446218134171,1446218134199,862,327,0,0,0,2,1,1,3,0003-00-0001-86.png,0005-00-0001-20.png
00000009,134,0,1446218135133,1446218135874,939,446,0,0,0,2,3,1,5,0003-00-0000-15.png,0002-00-0001-56.png
00000009,135,0,1446218138764,1446218139405,967,383,0,0,0,0,1,1,1,0001-00-0001-52.png,0005-00-0001-03.png
00000009,136,1,1446218142660,1446218143561,1118,306,0,0,0,1,0,1,1,0005-00-0000-82.png,0001-00-0001-71.png
00000009,137,1,1446218144494,1446218144542,888,400,0,0,0,1,0,1,1,0005-00-0000-62.png,0001-00-0001-40.png
00000009,138,1,1446218145590,1446218145666,862,410,0,0,0,2,1,1,3,0003-00-0001-51.png,0005-00-0000-46.png
00000009,139,1,1446218146900,1446218147047,913,447,0,0,0,4,3,1,7,0004-00-0000-01.png,0002-00-0000-57.png
00000009,140,0,1446218148152,1446218148232,879,410,0,0,0,2,3,1,5,0003-00-0000-13.png,0002-00-0000-93.png
00000009,141,1,1446218151385,1446218152101,452,307,0,0,0,0,1,1,1,0001-00-0000-83.png,0005-00-0000-24.png
00000009,142,0,1446218153026,1446218153074,857,421,0,0,0,3,4,1,7,0002-00-0001-48.png,0004-00-0000-76.png
00000009,143,1,1446218156144,1446218157054,1118,263,0,0,0,3,2,1,5,0002-00-0001-24.png,0003-00-0000-25.png
00000009,144,0,1446218157983,1446218158059,930,419,0,0,0,1,2,1,3,0005-00-0001-41.png,0003-00-0000-39.png
00000009,145,0,1446218161051,1446218161615,963,306,0,0,0,0,1,1,1,0001-00-0000-07.png,0005-00-0001-57.png
00000009,146,0,1446218164711,1446218165320,970,334,0,0,0,1,2,1,3,0005-00-0001-11.png,0003-00-0000-59.png
00000009,147,0,1446218168446,1446218169252,449,254,0,0,0,2,1,1,3,0003-00-0000-93.png,0005-00-0000-57.png
00000009,148,0,1446218172251,1446218173076,439,268,0,0,0,3,2,1,5,0002-00-0001-33.png,0003-00-0001-15.png
00000009,149,1,1446218176040,1446218176629,937,329,0,0,0,1,0,1,1,0005-00-0001-86.png,0001-00-0001-78.png
00000009,150,0,1446218177561,1446218177621,913,410,0,0,0,3,4,1,7,0002-00-0001-72.png,0004-00-0000-42.png
00000009,151,0,1446218180641,1446218181264,478,265,0,0,0,4,3,1,7,0004-00-0000-69.png,0002-00-0000-70.png
00000009,152,0,1446218184135,1446218184850,965,286,0,0,0,2,3,1,5,0003-00-0000-95.png,0002-00-0000-50.png
00000009,153,0,1446218187756,1446218187812,917,372,0,0,0,1,2,1,3,0005-00-0000-12.png,0003-00-0000-24.png
00000009,154,1,1446218190955,1446218191616,464,274,0,0,0,0,1,1,1,0001-00-0001-00.png,0005-00-0000-23.png
00000009,155,0,1446218192585,1446218193866,439,256,0,0,0,2,1,1,3,0003-00-0000-49.png,0005-00-0001-17.png
00000009,156,0,1446218197117,1446218197262,862,410,0,0,0,2,3,1,5,0003-00-0000-25.png,0002-00-0001-49.png
00000009,157,1,1446218200255,1446218200831,969,320,0,0,0,4,3,1,7,0004-00-0000-95.png,0002-00-0001-06.png
00000009,158,1,1446218201714,1446218201978,964,462,0,0,0,3,2,1,5,0002-00-0001-02.png,0003-00-0000-01.png
00000009,159,1,1446218203076,1446218203112,901,400,0,0,0,1,0,1,1,0005-00-0000-49.png,0001-00-0001-51.png
00000009,160,0,1446218204520,1446218204626,924,462,0,0,0,3,4,1,7,0002-00-0001-12.png,0004-00-0001-03.png
00000009,161,0,1446218207737,1446218207757,876,332,0,0,0,2,3,1,5,0003-00-0001-97.png,0002-00-0000-10.png
00000009,162,0,1446218210857,1446218210885,924,358,0,0,0,0,1,1,1,0001-00-0001-67.png,0005-00-0001-72.png
00000009,163,0,1446218213804,1446218214630,1041,332,0,0,0,1,2,1,3,0005-00-0000-39.png,0003-00-0001-80.png
00000009,164,0,1446218217733,1446218218320,460,313,0,0,0,3,2,1,5,0002-00-0001-10.png,0003-00-0000-41.png
00000009,165,1,1446218221323,1446218221886,461,280,0,0,0,3,4,1,7,0002-00-0000-46.png,0004-00-0000-49.png
00000009,166,1,1446218222852,1446218222880,864,393,0,0,0,2,1,1,3,0003-00-0001-40.png,0005-00-0000-00.png
00000009,167,1,1446218223868,1446218223945,869,421,0,0,0,1,0,1,1,0005-00-0000-48.png,0001-00-0000-87.png
00000009,168,1,1446218225198,1446218225286,873,436,0,0,0,4,3,1,7,0004-00-0000-62.png,0002-00-0001-68.png
00000009,169,0,1446218226523,1446218226595,874,436,0,0,0,2,3,1,5,0003-00-0001-18.png,0002-00-0001-41.png
00000009,170,0,1446218229739,1446218230679,401,398,0,0,0,2,1,1,3,0003-00-0001-99.png,0005-00-0001-06.png
00000009,171,1,1446218233567,1446218234114,362,383,0,0,0,3,4,1,7,0002-00-0001-01.png,0004-00-0000-64.png
00000009,172,0,1446218234965,1446218236242,942,428,0,0,0,0,1,1,1,0001-00-0001-32.png,0005-00-0001-61.png
00000009,173,0,1446218239481,1446218240060,479,292,0,0,0,4,3,1,7,0004-00-0000-70.png,0002-00-0000-92.png
00000009,174,0,1446218242936,1446218244100,365,375,0,0,0,1,0,1,1,0005-00-0001-69.png,0001-00-0001-90.png
00000009,175,1,1446218247283,1446218247311,944,307,0,0,0,3,2,1,5,0002-00-0001-29.png,0003-00-0000-24.png
00000009,176,0,1446218248266,1446218248314,891,389,0,0,0,1,2,1,3,0005-00-0000-59.png,0003-00-0000-04.png
00000009,177,0,1446218251343,1446218252078,939,347,0,0,0,2,3,1,5,0003-00-0001-84.png,0002-00-0001-97.png
00000009,178,0,1446218255233,1446218255939,1092,295,0,0,0,1,2,1,3,0005-00-0000-58.png,0003-00-0000-20.png
00000009,179,1,1446218259109,1446218259631,395,366,0,0,0,3,4,1,7,0002-00-0001-04.png,0004-00-0000-24.png
00000009,180,1,1446218260542,1446218260614,895,426,0,0,0,2,1,1,3,0003-00-0000-52.png,0005-00-0000-75.png
00000009,181,1,1446218261552,1446218261626,888,420,0,0,0,3,2,1,5,0002-00-0000-44.png,0003-00-0001-05.png
00000009,182,1,1446218262615,1446218262679,862,410,0,0,0,1,0,1,1,0005-00-0001-20.png,0001-00-0001-72.png
00000009,183,0,1446218263896,1446218263980,880,410,0,0,0,0,1,1,1,0001-00-0000-81.png,0005-00-0001-22.png
00000009,184,1,1446218267114,1446218267345,951,295,0,0,0,4,3,1,7,0004-00-0000-23.png,0002-00-0000-93.png
00000009,185,1,1446218268299,1446218268327,862,413,0,0,0,3,2,1,5,0002-00-0000-29.png,0003-00-0001-95.png
00000009,186,0,1446218269333,1446218269409,863,435,0,0,0,0,1,1,1,0001-00-0001-29.png,0005-00-0000-64.png
00000009,187,1,1446218272522,1446218273267,1067,306,0,0,0,1,0,1,1,0005-00-0001-78.png,0001-00-0000-48.png
00000009,188,1,1446218274218,1446218274994,935,334,0,0,0,4,3,1,7,0004-00-0000-53.png,0002-00-0000-93.png
00000009,189,0,1446218275856,1446218275872,862,383,0,0,0,2,3,1,5,0003-00-0000-83.png,0002-00-0000-66.png
00000009,190,1,1446218278952,1446218279426,406,372,0,0,0,3,4,1,7,0002-00-0001-41.png,0004-00-0000-80.png
00000009,191,0,1446218280278,1446218281452,378,366,0,0,0,2,1,1,3,0003-00-0000-52.png,0005-00-0000-23.png
00000009,192,0,1446218284487,1446218285229,964,396,0,0,0,1,2,1,3,0005-00-0001-33.png,0003-00-0000-19.png
00000009,193,0,1446218288380,1446218288408,918,303,0,0,0,1,2,1,3,0005-00-0000-33.png,0003-00-0000-25.png
00000009,194,0,1446218291471,1446218291673,919,366,0,0,0,3,4,1,7,0002-00-0000-36.png,0004-00-0000-88.png
00000009,195,0,1446218294900,1446218295466,497,276,0,0,0,3,2,1,5,0002-00-0000-21.png,0003-00-0000-98.png
00000009,196,0,1446218298608,1446218299137,1096,300,0,0,0,2,3,1,5,0003-00-0001-93.png,0002-00-0000-13.png
00000009,197,1,1446218302186,1446218302348,862,422,0,0,0,4,3,1,7,0004-00-0001-19.png,0002-00-0001-19.png
00000009,198,0,1446218303322,1446218303386,932,409,0,0,0,0,1,1,1,0001-00-0001-04.png,0005-00-0000-76.png
00000009,199,1,1446218306565,1446218306593,913,306,0,0,0,2,1,1,3,0003-00-0000-47.png,0005-00-0000-16.png
00000009,200,1,1446218307533,1446218307589,899,410,0,0,0,1,0,1,1,0005-00-0001-09.png,0001-00-0000-04.png
00000009,201,1,1446218308665,1446218308801,913,426,0,0,0,1,0,1,1,0005-00-0001-94.png,0001-00-0001-81.png
00000009,202,1,1446218309957,1446218310061,895,446,0,0,0,2,1,1,3,0003-00-0001-54.png,0005-00-0001-58.png
00000009,203,0,1446218311188,1446218311223,888,436,0,0,0,0,1,1,1,0001-00-0000-55.png,0005-00-0001-62.png
00000009,204,1,1446218314171,1446218315748,348,392,0,0,0,1,2,1,3,0005-00-0001-15.png,0003-00-0000-89.png
00000009,205,0,1446218316660,1446218316691,860,407,0,0,0,3,4,1,7,0002-00-0001-49.png,0004-00-0001-37.png
00000009,206,0,1446218319542,1446218320161,438,277,0,0,0,3,2,1,5,0002-00-0000-80.png,0003-00-0001-83.png
00000009,207,0,1446218323621,1446218324509,452,278,0,0,0,4,3,1,7,0004-00-0000-13.png,0002-00-0000-76.png
00000009,208,0,1446218327526,1446218328110,1124,336,0,0,0,2,3,1,5,0003-00-0000-14.png,0002-00-0000-07.png
00000009,209,1,1446218331249,1446218331289,939,303,0,0,0,4,3,1,7,0004-00-0000-20.png,0002-00-0001-88.png
00000009,210,0,1446218332267,1446218332283,896,397,0,0,0,2,3,1,5,0003-00-0000-47.png,0002-00-0000-02.png
00000009,211,1,1446218335476,1446218336030,504,256,0,0,0,3,4,1,7,0002-00-0001-43.png,0004-00-0001-91.png
00000009,212,0,1446218337522,1446218338605,460,247,0,0,0,1,0,1,1,0005-00-0001-09.png,0001-00-0000-82.png
00000009,213,1,1446218341626,1446218342761,370,349,0,0,0,0,1,1,1,0001-00-0001-99.png,0005-00-0001-65.png
00000009,214,1,1446218343704,1446218343740,883,440,0,0,0,2,1,1,3,0003-00-0000-67.png,0005-00-0001-75.png
00000009,215,0,1446218344735,1446218344819,862,410,0,0,0,1,2,1,3,0005-00-0000-12.png,0003-00-0000-65.png
00000009,216,1,1446218347981,1446218348034,964,306,0,0,0,3,2,1,5,0002-00-0001-85.png,0003-00-0001-86.png
00000009,217,0,1446218348906,1446218348966,901,436,0,0,0,2,3,1,5,0003-00-0001-18.png,0002-00-0000-67.png
00000009,218,1,1446218351828,1446218352692,475,257,0,0,0,3,4,1,7,0002-00-0001-26.png,0004-00-0001-92.png
00000009,219,1,1446218353522,1446218354754,953,417,0,0,0,1,0,1,1,0005-00-0000-63.png,0001-00-0001-13.png
00000009,220,0,1446218355745,1446218355781,875,446,0,0,0,1,2,1,3,0005-00-0001-39.png,0003-00-0001-03.png
00000009,221,1,1446218358913,1446218359795,942,306,0,0,0,4,3,1,7,0004-00-0001-65.png,0002-00-0000-28.png
00000009,222,0,1446218360620,1446218361903,939,299,0,0,0,0,1,1,1,0001-00-0000-35.png,0005-00-0001-99.png
00000009,223,0,1446218364967,1446218366042,483,273,0,0,0,2,1,1,3,0003-00-0001-37.png,0005-00-0000-92.png
00000009,224,1,1446218369148,1446218369950,916,342,0,0,0,3,2,1,5,0002-00-0001-80.png,0003-00-0001-67.png
00000009,225,0,1446218370909,1446218370982,873,414,0,0,0,2,3,1,5,0003-00-0000-70.png,0002-00-0000-40.png
00000009,226,0,1446218374071,1446218374636,492,257,0,0,0,3,2,1,5,0002-00-0000-24.png,0003-00-0001-49.png
00000009,227,0,1446218377688,1446218378565,390,359,0,0,0,2,1,1,3,0003-00-0000-64.png,0005-00-0001-38.png
00000009,228,1,1446218381823,1446218382894,458,251,0,0,0,0,1,1,1,0001-00-0001-56.png,0005-00-0000-28.png
00000009,229,1,1446218383788,1446218383852,862,410,0,0,0,1,0,1,1,0005-00-0000-00.png,0001-00-0001-47.png
00000009,230,0,1446218384863,1446218384979,862,446,0,0,0,3,4,1,7,0002-00-0001-84.png,0004-00-0001-54.png
00000009,231,1,1446218388103,1446218388119,885,299,0,0,0,4,3,1,7,0004-00-0001-80.png,0002-00-0001-49.png
00000009,232,0,1446218389078,1446218389126,862,436,0,0,0,1,2,1,3,0005-00-0001-47.png,0003-00-0001-19.png
00000009,233,0,1446218392317,1446218392965,980,436,0,0,0,2,3,1,5,0003-00-0001-01.png,0002-00-0000-61.png
00000009,234,1,1446218396121,1446218397018,1097,306,0,0,0,1,0,1,1,0005-00-0001-28.png,0001-00-0000-28.png
00000009,235,0,1446218398357,1446218399385,469,260,0,0,0,2,1,1,3,0003-00-0000-87.png,0005-00-0000-98.png
00000009,236,1,1446218402548,1446218402604,969,299,0,0,0,4,3,1,7,0004-00-0001-63.png,0002-00-0001-22.png
00000009,237,0,1446218403552,1446218404666,484,275,0,0,0,3,2,1,5,0002-00-0001-97.png,0003-00-0000-17.png
00000009,238,0,1446218407833,1446218408534,1097,281,0,0,0,1,2,1,3,0005-00-0001-32.png,0003-00-0000-29.png
00000009,239,1,1446218411436,1446218412008,470,260,0,0,0,3,4,1,7,0002-00-0001-89.png,0004-00-0000-81.png
00000009,240,0,1446218412899,1446218413014,904,436,0,0,0,0,1,1,1,0001-00-0000-13.png,0005-00-0001-28.png
00000009,241,1,1446218416194,1446218417168,480,263,0,0,0,3,4,1,7,0002-00-0001-75.png,0004-00-0000-26.png
00000009,242,1,1446218418044,1446218419394,481,267,0,0,0,1,2,1,3,0005-00-0001-87.png,0003-00-0001-55.png
00000009,243,1,1446218420330,1446218420431,862,451,0,0,0,2,1,1,3,0003-00-0001-98.png,0005-00-0000-67.png
00000009,244,1,1446218421598,1446218421661,895,429,0,0,0,1,0,1,1,0005-00-0001-18.png,0001-00-0000-21.png
00000009,245,1,1446218422773,1446218422837,888,446,0,0,0,3,2,1,5,0002-00-0001-79.png,0003-00-0000-73.png
00000009,246,0,1446218423954,1446218425026,469,272,0,0,0,4,3,1,7,0004-00-0001-10.png,0002-00-0001-33.png
00000009,247,0,1446218428141,1446218428180,863,333,0,0,0,0,1,1,1,0001-00-0000-11.png,0005-00-0000-76.png
00000009,248,0,1446218431291,1446218431939,990,332,0,0,0,2,3,1,5,0003-00-0000-61.png,0002-00-0000-34.png
00000009,249,1,1446218435027,1446218435083,953,329,0,0,0,2,1,1,3,0003-00-0000-27.png,0005-00-0001-97.png
00000009,250,1,1446218436072,1446218436125,875,436,0,0,0,3,2,1,5,0002-00-0000-92.png,0003-00-0001-44.png
00000009,251,0,1446218437174,1446218437230,888,422,0,0,0,1,2,1,3,0005-00-0001-62.png,0003-00-0001-23.png
00000009,252,0,1446218440382,1446218440987,405,379,0,0,0,4,3,1,7,0004-00-0000-06.png,0002-00-0001-07.png
00000009,253,1,1446218444112,1446218444223,939,279,0,0,0,1,0,1,1,0005-00-0000-24.png,0001-00-0000-93.png
00000009,254,0,1446218445155,1446218445203,915,424,0,0,0,0,1,1,1,0001-00-0001-85.png,0005-00-0000-31.png
00000009,255,0,1446218448355,1446218448877,969,331,0,0,0,2,3,1,5,0003-00-0000-30.png,0002-00-0001-76.png
00000009,256,1,1446218452010,1446218452752,475,277,0,0,0,3,4,1,7,0002-00-0001-44.png,0004-00-0000-09.png
00000009,257,0,1446218453597,1446218455538,450,272,0,0,0,2,1,1,3,0003-00-0001-92.png,0005-00-0000-10.png
00000009,258,0,1446218458450,1446218459376,1095,277,0,0,0,1,2,1,3,0005-00-0000-39.png,0003-00-0001-59.png
00000009,259,1,1446218462515,1446218463530,409,391,0,0,0,3,4,1,7,0002-00-0001-32.png,0004-00-0000-65.png
00000009,260,1,1446218464412,1446218465596,384,347,0,0,0,0,1,1,1,0001-00-0000-70.png,0005-00-0000-88.png
00000009,261,1,1446218466540,1446218466952,953,529,0,0,0,1,0,1,1,0005-00-0001-17.png,0001-00-0001-45.png
00000009,262,1,1446218468006,1446218468058,872,404,0,0,0,3,2,1,5,0002-00-0000-41.png,0003-00-0000-30.png
00000009,263,1,1446218469195,1446218469243,878,433,0,0,0,4,3,1,7,0004-00-0000-08.png,0002-00-0000-23.png
00000009,264,0,1446218470466,1446218471476,904,355,0,0,0,2,3,1,5,0003-00-0000-63.png,0002-00-0000-79.png
00000009,265,1,1446218474455,1446218475096,1041,306,0,0,0,4,3,1,7,0004-00-0001-63.png,0002-00-0000-69.png
00000009,266,0,1446218475926,1446218475980,868,434,0,0,0,3,4,1,7,0002-00-0000-24.png,0004-00-0001-48.png
00000009,267,0,1446218479151,1446218479349,878,359,0,0,0,0,1,1,1,0001-00-0001-84.png,0005-00-0000-04.png
00000009,268,0,1446218482472,1446218482516,920,329,0,0,0,1,2,1,3,0005-00-0001-77.png,0003-00-0000-18.png
00000009,269,0,1446218485729,1446218486668,479,252,0,0,0,2,1,1,3,0003-00-0001-82.png,0005-00-0001-52.png
00000009,270,0,1446218489616,1446218490568,964,422,0,0,0,2,3,1,5,0003-00-0001-60.png,0002-00-0001-98.png
00000009,271,0,1446218493878,1446218494517,483,279,0,0,0,3,2,1,5,0002-00-0001-00.png,0003-00-0000-90.png
00000009,272,1,1446218497413,1446218498440,918,331,0,0,0,1,0,1,1,0005-00-0000-49.png,0001-00-0000-64.png
00000009,273,1,1446218499323,1446218499367,898,358,0,0,0,1,0,1,1,0005-00-0001-58.png,0001-00-0001-69.png
00000009,274,0,1446218500327,1446218500375,859,415,0,0,0,2,3,1,5,0003-00-0000-72.png,0002-00-0001-81.png
00000009,275,0,1446218503567,1446218504150,500,261,0,0,0,3,2,1,5,0002-00-0000-22.png,0003-00-0000-17.png
00000009,276,1,1446218507014,1446218507750,401,410,0,0,0,0,1,1,1,0001-00-0000-37.png,0005-00-0000-19.png
00000009,277,0,1446218508600,1446218508641,863,387,0,0,0,3,4,1,7,0002-00-0000-61.png,0004-00-0000-49.png
00000009,278,1,1446218511637,1446218512190,412,336,0,0,0,1,2,1,3,0005-00-0000-71.png,0003-00-0000-15.png
00000009,279,1,1446218513054,1446218513106,866,381,0,0,0,2,1,1,3,0003-00-0000-07.png,0005-00-0000-70.png
00000009,280,1,1446218514100,1446218514205,862,449,0,0,0,4,3,1,7,0004-00-0000-61.png,0002-00-0001-69.png
00000009,281,1,1446218515294,1446218515369,888,436,0,0,0,1,0,1,1,0005-00-0001-72.png,0001-00-0001-50.png
00000009,282,0,1446218516484,1446218516576,881,446,0,0,0,2,3,1,5,0003-00-0001-18.png,0002-00-0001-11.png
00000009,283,1,1446218519655,1446218520185,494,249,0,0,0,3,4,1,7,0002-00-0000-24.png,0004-00-0001-96.png
00000009,284,0,1446218521750,1446218522696,916,324,0,0,0,1,2,1,3,0005-00-0001-64.png,0003-00-0001-79.png
00000009,285,1,1446218525627,1446218526160,504,269,0,0,0,0,1,1,1,0001-00-0000-83.png,0005-00-0001-65.png
00000009,286,1,1446218527110,1446218527162,888,410,0,0,0,2,1,1,3,0003-00-0000-72.png,0005-00-0000-26.png
00000009,287,0,1446218528050,1446218529025,484,261,0,0,0,4,3,1,7,0004-00-0000-03.png,0002-00-0000-60.png
00000009,288,0,1446218531894,1446218532480,380,358,0,0,0,3,2,1,5,0002-00-0001-47.png,0003-00-0000-59.png
00000009,289,0,1446218535634,1446218535658,919,331,0,0,0,2,3,1,5,0003-00-0001-70.png,0002-00-0000-45.png
00000009,290,1,1446218538513,1446218539143,1041,306,0,0,0,1,0,1,1,0005-00-0001-50.png,0001-00-0001-41.png
00000009,291,0,1446218540495,1446218541528,943,346,0,0,0,1,2,1,3,0005-00-0000-80.png,0003-00-0000-77.png
00000009,292,1,1446218544459,1446218545340,466,284,0,0,0,0,1,1,1,0001-00-0000-11.png,0005-00-0001-13.png
00000009,293,1,1446218546224,1446218546302,888,394,0,0,0,3,2,1,5,0002-00-0000-04.png,0003-00-0001-74.png
00000009,294,1,1446218547242,1446218547334,877,436,0,0,0,2,1,1,3,0003-00-0001-23.png,0005-00-0000-24.png
00000009,295,0,1446218548395,1446218548431,862,398,0,0,0,3,4,1,7,0002-00-0001-83.png,0004-00-0000-85.png
00000009,296,0,1446218551564,1446218552198,513,234,0,0,0,4,3,1,7,0004-00-0000-62.png,0002-00-0001-30.png
00000009,297,0,1446218555338,1446218556807,964,433,0,0,0,0,1,1,1,0001-00-0000-10.png,0005-00-0001-36.png
00000009,298,0,1446218559813,1446218560605,966,330,0,0,0,3,4,1,7,0002-00-0001-97.png,0004-00-0000-16.png
00000009,299,1,1446218564063,1446218564569,502,258,0,0,0,1,2,1,3,0005-00-0001-40.png,0003-00-0000-91.png
00000009,300,1,1446218565487,1446218565515,860,409,0,0,0,1,0,1,1,0005-00-0000-82.png,0001-00-0000-18.png
00000009,301,1,1446218566491,1446218566546,866,420,0,0,0,2,1,1,3,0003-00-0000-48.png,0005-00-0001-65.png
00000009,302,1,1446218567653,1446218567693,862,384,0,0,0,3,2,1,5,0002-00-0001-40.png,0003-00-0000-05.png
00000009,303,0,1446218568974,1446218569034,879,442,0,0,0,2,3,1,5,0003-00-0001-00.png,0002-00-0001-32.png
00000009,304,0,1446218572403,1446218573224,444,307,0,0,0,4,3,1,7,0004-00-0000-95.png,0002-00-0001-01.png
00000009,305,0,1446218576097,1446218576153,884,354,0,0,0,0,1,1,1,0001-00-0001-98.png,0005-00-0001-69.png
00000009,306,1,1446218579209,1446218580087,478,302,0,0,0,3,4,1,7,0002-00-0000-07.png,0004-00-0000-22.png
00000009,307,1,1446218580929,1446218581013,888,410,0,0,0,2,1,1,3,0003-00-0001-56.png,0005-00-0000-52.png
00000009,308,0,1446218581847,1446218581887,862,410,0,0,0,2,3,1,5,0003-00-0000-31.png,0002-00-0000-51.png
00000009,309,0,1446218585192,1446218586183,426,271,0,0,0,1,0,1,1,0005-00-0001-25.png,0001-00-0000-36.png
00000009,310,1,1446218589306,1446218590149,359,332,0,0,0,1,2,1,3,0005-00-0001-56.png,0003-00-0001-34.png
00000009,311,1,1446218591095,1446218591159,871,405,0,0,0,3,2,1,5,0002-00-0000-98.png,0003-00-0001-76.png
00000009,312,1,1446218592148,1446218592224,878,410,0,0,0,4,3,1,7,0004-00-0000-76.png,0002-00-0000-60.png
00000009,313,0,1446218593171,1446218593251,881,445,0,0,0,1,2,1,3,0005-00-0000-55.png,0003-00-0000-84.png
00000009,314,0,1446218596202,1446218596865,1050,279,0,0,0,2,3,1,5,0003-00-0001-52.png,0002-00-0000-76.png
00000009,315,0,1446218600038,1446218600533,389,384,0,0,0,3,2,1,5,0002-00-0001-25.png,0003-00-0000-44.png
00000009,316,1,1446218603902,1446218604088,888,358,0,0,0,2,1,1,3,0003-00-0000-53.png,0005-00-0001-58.png
00000009,317,1,1446218605074,1446218605134,888,384,0,0,0,4,3,1,7,0004-00-0000-07.png,0002-00-0001-82.png
00000009,318,1,1446218606050,1446218607213,964,419,0,0,0,1,0,1,1,0005-00-0001-00.png,0001-00-0001-45.png
00000009,319,0,1446218608156,1446218608176,918,308,0,0,0,3,4,1,7,0002-00-0001-01.png,0004-00-0001-15.png
00000009,320,1,1446218611046,1446218612013,480,280,0,0,0,0,1,1,1,0001-00-0001-86.png,0005-00-0000-91.png
00000009,321,0,1446218612915,1446218612971,883,414,0,0,0,1,2,1,3,0005-00-0000-40.png,0003-00-0000-72.png
00000009,322,0,1446218616067,1446218616588,1064,278,0,0,0,3,4,1,7,0002-00-0001-78.png,0004-00-0001-68.png
00000009,323,0,1446218619813,1446218620422,990,426,0,0,0,2,3,1,5,0003-00-0000-13.png,0002-00-0000-69.png
00000009,324,0,1446218623581,1446218624337,371,372,0,0,0,4,3,1,7,0004-00-0001-02.png,0002-00-0001-98.png
00000009,325,1,1446218627477,1446218628210,478,248,0,0,0,0,1,1,1,0001-00-0001-59.png,0005-00-0001-73.png
00000009,326,0,1446218629672,1446218630831,438,232,0,0,0,2,1,1,3,0003-00-0000-46.png,0005-00-0000-00.png
00000009,327,0,1446218633912,1446218634706,374,381,0,0,0,3,2,1,5,0002-00-0001-33.png,0003-00-0001-64.png
00000009,328,1,1446218638037,1446218639040,939,421,0,0,0,1,0,1,1,0005-00-0001-36.png,0001-00-0001-00.png
00000009,329,0,1446218639884,1446218639928,866,412,0,0,0,3,4,1,7,0002-00-0000-24.png,0004-00-0000-19.png
00000009,330,1,1446218643148,1446218643396,931,330,0,0,0,2,1,1,3,0003-00-0001-99.png,0005-00-0000-93.png
00000009,331,0,1446218644391,1446218644439,908,374,0,0,0,1,2,1,3,0005-00-0001-19.png,0003-00-0001-91.png
00000009,332,1,1446218647807,1446218648447,401,364,0,0,0,0,1,1,1,0001-00-0001-87.png,0005-00-0001-78.png
00000009,333,1,1446218649277,1446218649305,866,435,0,0,0,4,3,1,7,0004-00-0000-85.png,0002-00-0000-53.png
00000009,334,1,1446218650242,1446218650396,902,436,0,0,0,3,2,1,5,0002-00-0001-20.png,0003-00-0001-22.png
00000009,335,0,1446218651386,1446218651462,913,449,0,0,0,2,3,1,5,0003-00-0000-41.png,0002-00-0001-46.png
00000009,336,1,1446218654606,1446218655307,1068,280,0,0,0,1,0,1,1,0005-00-0001-93.png,0001-00-0000-20.png
00000009,337,1,1446218656152,1446218656184,892,433,0,0,0,3,2,1,5,0002-00-0000-60.png,0003-00-0000-43.png
00000009,338,0,1446218657151,1446218657199,877,426,0,0,0,0,1,1,1,0001-00-0001-25.png,0005-00-0000-06.png
00000009,339,0,1446218660320,1446218661128,1016,346,0,0,0,2,3,1,5,0003-00-0001-15.png,0002-00-0000-60.png
00000009,340,1,1446218664064,1446218664124,880,333,0,0,0,4,3,1,7,0004-00-0000-45.png,0002-00-0001-77.png
00000009,341,0,1446218665087,1446218665235,939,448,0,0,0,3,4,1,7,0002-00-0000-12.png,0004-00-0000-87.png
00000009,342,0,1446218668376,1446218669375,465,270,0,0,0,2,1,1,3,0003-00-0000-65.png,0005-00-0000-50.png
00000009,343,1,1446218672464,1446218673157,392,355,0,0,0,1,2,1,3,0005-00-0001-54.png,0003-00-0001-75.png
00000009,344,0,1446218674086,1446218675054,381,358,0,0,0,1,0,1,1,0005-00-0001-35.png,0001-00-0001-94.png
00000009,345,0,1446218678189,1446218678701,1066,276,0,0,0,2,3,1,5,0003-00-0001-49.png,0002-00-0001-72.png
00000009,346,0,1446218681589,1446218682135,504,239,0,0,0,3,2,1,5,0002-00-0000-12.png,0003-00-0001-94.png
00000009,347,1,1446218685297,1446218685977,990,421,0,0,0,1,0,1,1,0005-00-0000-56.png,0001-00-0000-39.png
00000009,348,1,1446218687360,1446218688476,474,243,0,0,0,0,1,1,1,0001-00-0001-84.png,0005-00-0001-61.png
00000009,349,0,1446218689380,1446218689428,890,410,0,0,0,3,4,1,7,0002-00-0000-22.png,0004-00-0000-54.png
00000009,350,0,1446218692351,1446218693229,482,292,0,0,0,4,3,1,7,0004-00-0000-14.png,0002-00-0000-07.png
00000009,351,1,1446218696293,1446218696983,404,382,0,0,0,1,2,1,3,0005-00-0001-02.png,0003-00-0000-94.png
00000009,352,1,1446218697892,1446218697920,885,417,0,0,0,2,1,1,3,0003-00-0001-88.png,0005-00-0001-07.png
00000009,353,0,1446218698975,1446218699043,939,400,0,0,0,2,3,1,5,0003-00-0000-52.png,0002-00-0001-33.png
00000009,354,1,1446218702179,1446218702740,967,342,0,0,0,1,0,1,1,0005-00-0001-88.png,0001-00-0001-06.png
00000009,355,0,1446218703608,1446218703735,913,436,0,0,0,3,4,1,7,0002-00-0001-63.png,0004-00-0001-92.png
00000009,356,0,1446218706849,1446218707671,479,263,0,0,0,3,2,1,5,0002-00-0001-54.png,0003-00-0000-37.png
00000009,357,0,1446218711330,1446218711539,888,301,0,0,0,0,1,1,1,0001-00-0000-53.png,0005-00-0001-14.png
00000009,358,0,1446218714580,1446218714738,862,422,0,0,0,1,2,1,3,0005-00-0001-34.png,0003-00-0001-11.png
00000009,359,0,1446218717866,1446218718575,479,272,0,0,0,4,3,1,7,0004-00-0001-51.png,0002-00-0000-92.png
00000009,360,0,1446218721586,1446218722536,470,252,0,0,0,2,1,1,3,0003-00-0000-73.png,0005-00-0000-45.png
00000009,361,0,1446218725570,1446218725704,879,392,0,0,0,2,3,1,5,0003-00-0000-42.png,0002-00-0001-14.png
00000009,362,1,1446218728700,1446218729576,990,436,0,0,0,1,0,1,1,0005-00-0001-34.png,0001-00-0000-18.png
00000009,363,0,1446218730439,1446218730558,963,407,0,0,0,0,1,1,1,0001-00-0000-81.png,0005-00-0001-12.png
00000009,364,0,1446218733460,1446218734155,366,356,0,0,0,4,3,1,7,0004-00-0000-93.png,0002-00-0001-40.png
00000009,365,1,1446218736985,1446218737578,500,245,0,0,0,3,4,1,7,0002-00-0001-76.png,0004-00-0001-84.png
00000009,366,0,1446218738418,1446218738479,895,416,0,0,0,1,2,1,3,0005-00-0001-73.png,0003-00-0000-70.png
00000009,367,0,1446218741632,1446218742821,477,259,0,0,0,2,1,1,3,0003-00-0000-57.png,0005-00-0000-94.png
00000009,368,1,1446218745972,1446218746197,928,384,0,0,0,3,2,1,5,0002-00-0001-88.png,0003-00-0001-51.png
00000009,369,1,1446218747114,1446218747182,964,410,0,0,0,4,3,1,7,0004-00-0000-91.png,0002-00-0001-32.png
00000009,370,0,1446218748239,1446218748333,918,448,0,0,0,1,2,1,3,0005-00-0000-25.png,0003-00-0001-49.png
00000009,371,0,1446218751329,1446218751829,481,279,0,0,0,3,2,1,5,0002-00-0001-79.png,0003-00-0000-25.png
00000009,372,0,1446218754728,1446218755683,1042,302,0,0,0,0,1,1,1,0001-00-0001-70.png,0005-00-0001-55.png
00000009,373,0,1446218758684,1446218760012,442,274,0,0,0,2,1,1,3,0003-00-0000-16.png,0005-00-0001-14.png
00000009,374,0,1446218763008,1446218763674,939,345,0,0,0,2,3,1,5,0003-00-0000-64.png,0002-00-0000-11.png
00000009,375,1,1446218766883,1446218767737,990,346,0,0,0,1,0,1,1,0005-00-0000-51.png,0001-00-0000-30.png
00000009,376,1,1446218769039,1446218769895,468,268,0,0,0,3,4,1,7,0002-00-0001-95.png,0004-00-0001-46.png
00000009,377,0,1446218770787,1446218770850,900,436,0,0,0,0,1,1,1,0001-00-0000-78.png,0005-00-0000-57.png
00000009,378,0,1446218773953,1446218774709,964,337,0,0,0,2,3,1,5,0003-00-0000-50.png,0002-00-0001-10.png
00000009,379,0,1446218777613,1446218778103,480,279,0,0,0,3,2,1,5,0002-00-0001-22.png,0003-00-0001-11.png
00000009,380,0,1446218781273,1446218782031,384,400,0,0,0,2,1,1,3,0003-00-0000-21.png,0005-00-0000-25.png
00000009,381,0,1446218785156,1446218785850,473,279,0,0,0,1,0,1,1,0005-00-0001-07.png,0001-00-0000-26.png
00000009,382,1,1446218788854,1446218789477,940,325,0,0,0,4,3,1,7,0004-00-0001-73.png,0002-00-0000-16.png
00000009,383,0,1446218790433,1446218790473,915,419,0,0,0,3,4,1,7,0002-00-0000-48.png,0004-00-0000-76.png
00000009,384,1,1446218793685,1446218794364,384,348,0,0,0,1,2,1,3,0005-00-0000-92.png,0003-00-0000-71.png
00000009,385,0,1446218795272,1446218795311,893,388,0,0,0,3,4,1,7,0002-00-0001-33.png,0004-00-0001-01.png
00000009,386,0,1446218798247,1446218799276,351,380,0,0,0,2,1,1,3,0003-00-0000-77.png,0005-00-0000-22.png
00000009,387,0,1446218802448,1446218803060,971,398,0,0,0,2,3,1,5,0003-00-0000-19.png,0002-00-0000-03.png
00000009,388,1,1446218806057,1446218806109,867,403,0,0,0,1,0,1,1,0005-00-0000-45.png,0001-00-0001-47.png
00000009,389,0,1446218807748,1446218808296,458,261,0,0,0,4,3,1,7,0004-00-0000-20.png,0002-00-0000-79.png
00000009,390,1,1446218811341,1446218811969,478,268,0,0,0,1,2,1,3,0005-00-0001-55.png,0003-00-0001-63.png
00000009,391,0,1446218812901,1446218812921,892,384,0,0,0,0,1,1,1,0001-00-0000-15.png,0005-00-0000-72.png
00000009,392,0,1446218815804,1446218816337,433,402,0,0,0,3,2,1,5,0002-00-0001-75.png,0003-00-0000-65.png
00000009,393,0,1446218819492,1446218819684,884,359,0,0,0,0,1,1,1,0001-00-0000-48.png,0005-00-0000-41.png
00000009,394,0,1446218822813,1446218823443,378,358,0,0,0,3,2,1,5,0002-00-0000-39.png,0003-00-0000-60.png
00000009,395,0,1446218826558,1446218827031,1067,280,0,0,0,2,3,1,5,0003-00-0000-39.png,0002-00-0001-48.png
00000009,396,1,1446218830574,1446218830614,927,331,0,0,0,1,0,1,1,0005-00-0001-22.png,0001-00-0000-24.png
00000009,397,1,1446218831594,1446218831625,862,436,0,0,0,4,3,1,7,0004-00-0000-20.png,0002-00-0001-30.png
00000009,398,1,1446218832611,1446218832863,923,462,0,0,0,2,1,1,3,0003-00-0001-32.png,0005-00-0000-71.png
00000009,399,0,1446218833940,1446218833980,888,436,0,0,0,3,4,1,7,0002-00-0000-52.png,0004-00-0000-16.png
00000009,400,0,1446218836983,1446218838063,969,359,0,0,0,1,2,1,3,0005-00-0000-43.png,0003-00-0001-37.png
00000009,401,1,1446218841125,1446218841801,987,408,0,0,0,1,0,1,1,0005-00-0001-07.png,0001-00-0001-43.png
00000009,402,1,1446218842728,1446218842772,917,427,0,0,0,4,3,1,7,0004-00-0001-01.png,0002-00-0000-66.png
00000009,403,1,1446218843700,1446218843787,905,410,0,0,0,3,2,1,5,0002-00-0001-08.png,0003-00-0000-71.png
00000009,404,0,1446218844890,1446218845013,908,459,0,0,0,2,3,1,5,0003-00-0000-54.png,0002-00-0000-42.png
00000009,405,0,1446218847860,1446218848149,892,383,0,0,0,3,4,1,7,0002-00-0000-98.png,0004-00-0000-64.png
00000009,406,0,1446218851064,1446218852245,964,319,0,0,0,0,1,1,1,0001-00-0000-02.png,0005-00-0001-51.png
00000009,407,0,1446218855426,1446218856503,353,389,0,0,0,2,1,1,3,0003-00-0001-09.png,0005-00-0001-92.png
00000009,408,1,1446218859380,1446218860340,360,356,0,0,0,1,2,1,3,0005-00-0000-59.png,0003-00-0001-90.png
00000009,409,0,1446218861363,1446218861461,939,401,0,0,0,1,2,1,3,0005-00-0001-45.png,0003-00-0000-38.png
00000009,410,0,1446218864661,1446218865498,484,279,0,0,0,2,1,1,3,0003-00-0000-96.png,0005-00-0001-06.png
00000009,411,1,1446218868663,1446218868708,910,331,0,0,0,3,2,1,5,0002-00-0001-77.png,0003-00-0001-37.png
00000009,412,0,1446218869636,1446218869648,859,434,0,0,0,3,4,1,7,0002-00-0001-85.png,0004-00-0001-28.png
00000009,413,0,1446218872506,1446218873125,1092,294,0,0,0,2,3,1,5,0003-00-0000-30.png,0002-00-0000-72.png
00000009,414,1,1446218876062,1446218876936,949,410,0,0,0,1,0,1,1,0005-00-0000-42.png,0001-00-0001-58.png
00000009,415,1,1446218877795,1446218877835,912,409,0,0,0,4,3,1,7,0004-00-0000-75.png,0002-00-0000-01.png
00000009,416,0,1446218878860,1446218878900,885,426,0,0,0,0,1,1,1,0001-00-0000-28.png,0005-00-0000-36.png
00000009,417,0,1446218881750,1446218882476,469,261,0,0,0,4,3,1,7,0004-00-0001-40.png,0002-00-0001-76.png
00000009,418,1,1446218885636,1446218886518,960,413,0,0,0,1,0,1,1,0005-00-0001-31.png,0001-00-0001-24.png
00000009,419,0,1446218887463,1446218887560,913,488,0,0,0,0,1,1,1,0001-00-0001-30.png,0005-00-0000-85.png
00000009,420,0,1446218890515,1446218891723,375,368,0,0,0,2,1,1,3,0003-00-0000-06.png,0005-00-0000-57.png
00000009,421,0,1446218894632,1446218895489,1041,279,0,0,0,2,3,1,5,0003-00-0000-87.png,0002-00-0001-08.png
00000009,422,0,1446218899810,1446218900322,1064,252,0,0,0,3,4,1,7,0002-00-0001-19.png,0004-00-0000-76.png
00000009,423,0,1446218903454,1446218904417,484,292,0,0,0,3,2,1,5,0002-00-0000-14.png,0003-00-0000-87.png
00000009,424,0,1446218907522,1446218908445,1016,348,0,0,0,1,2,1,3,0005-00-0001-13.png,0003-00-0001-94.png
00000009,425,0,1446218911666,1446218912238,495,271,0,0,0,3,2,1,5,0002-00-0001-20.png,0003-00-0001-14.png
00000009,426,1,1446218915403,1446218916036,1067,300,0,0,0,2,1,1,3,0003-00-0001-22.png,0005-00-0001-55.png
00000009,427,1,1446218917032,1446218917342,939,502,0,0,0,4,3,1,7,0004-00-0001-58.png,0002-00-0001-06.png
00000009,428,0,1446218918363,1446218918444,913,397,0,0,0,3,4,1,7,0002-00-0000-51.png,0004-00-0001-05.png
00000009,429,1,1446218921603,1446218921822,887,361,0,0,0,1,0,1,1,0005-00-0001-60.png,0001-00-0000-94.png
00000009,430,0,1446218922893,1446218922921,879,418,0,0,0,1,2,1,3,0005-00-0001-49.png,0003-00-0000-15.png
00000009,431,0,1446218926072,1446218926345,922,305,0,0,0,2,3,1,5,0003-00-0000-63.png,0002-00-0001-37.png
00000009,432,1,1446218929548,1446218930079,477,271,0,0,0,0,1,1,1,0001-00-0001-63.png,0005-00-0000-53.png
00000009,433,1,1446218930971,1446218931036,868,456,0,0,0,2,1,1,3,0003-00-0001-68.png,0005-00-0000-25.png
00000009,434,1,1446218931921,1446218932044,890,437,0,0,0,4,3,1,7,0004-00-0000-99.png,0002-00-0001-38.png
00000009,435,0,1446218933101,1446218933169,888,436,0,0,0,3,4,1,7,0002-00-0000-09.png,0004-00-0000-47.png
00000009,436,0,1446218936092,1446218936628,375,352,0,0,0,3,2,1,5,0002-00-0001-06.png,0003-00-0000-82.png
00000009,437,1,1446218939670,1446218940535,1090,317,0,0,0,1,0,1,1,0005-00-0000-19.png,0001-00-0000-51.png
00000009,438,0,1446218941443,1446218943175,1042,273,0,0,0,1,2,1,3,0005-00-0000-11.png,0003-00-0000-20.png
00000009,439,1,1446218946035,1446218947012,455,271,0,0,0,0,1,1,1,0001-00-0000-81.png,0005-00-0000-25.png
00000009,440,0,1446218947961,1446218947997,894,442,0,0,0,2,3,1,5,0003-00-0000-08.png,0002-00-0000-54.png
00000009,441,1,1446218951088,1446218951671,1073,306,0,0,0,4,3,1,7,0004-00-0000-75.png,0002-00-0001-43.png
00000009,442,0,1446218952518,1446218952706,949,469,0,0,0,1,2,1,3,0005-00-0000-39.png,0003-00-0001-97.png
00000009,443,0,1446218955577,1446218956111,506,272,0,0,0,3,2,1,5,0002-00-0000-41.png,0003-00-0000-00.png
00000009,444,0,1446218959245,1446218959297,913,306,0,0,0,2,3,1,5,0003-00-0000-05.png,0002-00-0000-25.png
00000009,445,0,1446218962418,1446218963370,974,384,0,0,0,3,4,1,7,0002-00-0001-08.png,0004-00-0001-11.png
00000009,446,0,1446218966503,1446218967392,969,334,0,0,0,0,1,1,1,0001-00-0000-81.png,0005-00-0001-59.png
00000009,447,1,1446218970584,1446218971322,963,406,0,0,0,1,0,1,1,0005-00-0000-72.png,0001-00-0000-78.png
00000009,448,1,1446218972246,1446218972289,913,415,0,0,0,2,1,1,3,0003-00-0000-10.png,0005-00-0001-61.png
00000009,449,0,1446218973316,1446218973418,914,449,0,0,0,0,1,1,1,0001-00-0001-74.png,0005-00-0001-80.png
00000009,450,0,1446218976521,1446218977096,429,392,0,0,0,3,2,1,5,0002-00-0001-00.png,0003-00-0001-69.png
00000009,451,0,1446218980282,1446218981237,399,359,0,0,0,2,1,1,3,0003-00-0001-76.png,0005-00-0000-09.png
00000009,452,0,1446218984291,1446218984899,938,327,0,0,0,2,3,1,5,0003-00-0000-85.png,0002-00-0000-36.png
00000009,453,0,1446218988000,1446218988830,502,280,0,0,0,1,0,1,1,0005-00-0001-16.png,0001-00-0001-50.png
00000009,454,1,1446218991824,1446218992449,484,277,0,0,0,3,4,1,7,0002-00-0000-38.png,0004-00-0000-57.png
00000009,455,1,1446218993335,1446218993418,923,455,0,0,0,4,3,1,7,0004-00-0001-16.png,0002-00-0001-81.png
00000009,456,0,1446218994377,1446218994448,904,462,0,0,0,1,2,1,3,0005-00-0001-51.png,0003-00-0000-28.png
00000009,457,0,1446218997508,1446218998304,506,300,0,0,0,2,1,1,3,0003-00-0001-19.png,0005-00-0000-64.png
00000009,458,1,1446219001564,1446219002148,913,396,0,0,0,4,3,1,7,0004-00-0000-96.png,0002-00-0000-33.png
00000009,459,0,1446219003061,1446219003159,913,449,0,0,0,1,2,1,3,0005-00-0000-52.png,0003-00-0001-35.png
00000009,460,0,1446219006004,1446219006664,990,332,0,0,0,2,3,1,5,0003-00-0001-47.png,0002-00-0000-37.png
00000009,461,0,1446219009871,1446219010384,491,275,0,0,0,3,2,1,5,0002-00-0000-38.png,0003-00-0001-63.png
00000009,462,0,1446219013544,1446219014150,968,339,0,0,0,3,4,1,7,0002-00-0001-74.png,0004-00-0001-88.png
00000009,463,1,1446219017346,1446219018011,1088,275,0,0,0,1,0,1,1,0005-00-0000-82.png,0001-00-0001-11.png
00000009,464,0,1446219018943,1446219018971,911,363,0,0,0,0,1,1,1,0001-00-0000-41.png,0005-00-0001-76.png
00000009,465,1,1446219022073,1446219022697,427,450,0,0,0,0,1,1,1,0001-00-0000-41.png,0005-00-0000-11.png
00000009,466,1,1446219024331,1446219025384,916,332,0,0,0,2,1,1,3,0003-00-0001-76.png,0005-00-0000-05.png
00000009,467,0,1446219026352,1446219026405,933,412,0,0,0,3,4,1,7,0002-00-0001-56.png,0004-00-0001-57.png
00000009,468,1,1446219029565,1446219030167,990,358,0,0,0,1,0,1,1,0005-00-0000-55.png,0001-00-0000-37.png
00000009,469,1,1446219031043,1446219031258,940,483,0,0,0,4,3,1,7,0004-00-0001-05.png,0002-00-0000-13.png
00000009,470,0,1446219032253,1446219033026,911,383,0,0,0,2,3,1,5,0003-00-0001-51.png,0002-00-0000-85.png
00000009,471,0,1446219036035,1446219036610,457,268,0,0,0,3,2,1,5,0002-00-0000-56.png,0003-00-0000-30.png
00000009,472,1,1446219039781,1446219040470,372,380,0,0,0,1,2,1,3,0005-00-0000-71.png,0003-00-0000-45.png
00000009,473,0,1446219042252,1446219042794,1067,279,0,0,0,3,4,1,7,0002-00-0000-73.png,0004-00-0000-70.png
00000009,474,0,1446219045780,1446219046461,507,273,0,0,0,4,3,1,7,0004-00-0001-87.png,0002-00-0000-76.png
00000009,475,0,1446219049785,1446219050392,385,385,0,0,0,3,2,1,5,0002-00-0001-17.png,0003-00-0000-73.png
00000009,476,0,1446219053635,1446219054193,976,340,0,0,0,2,3,1,5,0003-00-0000-93.png,0002-00-0001-91.png
00000009,477,0,1446219057347,1446219058353,965,329,0,0,0,1,2,1,3,0005-00-0001-01.png,0003-00-0001-14.png
00000009,478,1,1446219061468,1446219062490,370,340,0,0,0,0,1,1,1,0001-00-0000-95.png,0005-00-0000-21.png
00000009,479,1,1446219063446,1446219063513,912,434,0,0,0,2,1,1,3,0003-00-0000-88.png,0005-00-0001-16.png
00000009,480,1,1446219064488,1446219064575,926,462,0,0,0,1,0,1,1,0005-00-0001-68.png,0001-00-0001-67.png
00000009,481,1,1446219065608,1446219065672,939,462,0,0,0,1,0,1,1,0005-00-0001-72.png,0001-00-0000-95.png
00000009,482,0,1446219066911,1446219066959,913,462,0,0,0,3,4,1,7,0002-00-0001-51.png,0004-00-0001-39.png
00000009,483,0,1446219070109,1446219070684,410,380,0,0,0,3,2,1,5,0002-00-0000-97.png,0003-00-0000-20.png
00000009,484,0,1446219073750,1446219073943,898,378,0,0,0,0,1,1,1,0001-00-0001-34.png,0005-00-0001-24.png
00000009,485,1,1446219077055,1446219077691,1067,306,0,0,0,4,3,1,7,0004-00-0000-76.png,0002-00-0000-68.png
00000009,486,0,1446219078567,1446219078631,917,436,0,0,0,1,2,1,3,0005-00-0000-56.png,0003-00-0000-35.png
00000009,487,0,1446219081799,1446219082321,990,332,0,0,0,2,3,1,5,0003-00-0000-47.png,0002-00-0000-55.png
00000009,488,1,1446219085537,1446219086449,939,395,0,0,0,2,1,1,3,0003-00-0000-09.png,0005-00-0001-30.png
00000009,489,1,1446219087394,1446219087470,907,441,0,0,0,2,1,1,3,0003-00-0001-44.png,0005-00-0001-19.png
00000009,490,0,1446219088448,1446219088504,913,436,0,0,0,1,2,1,3,0005-00-0001-01.png,0003-00-0001-81.png
00000009,491,0,1446219091368,1446219091864,1071,281,0,0,0,2,3,1,5,0003-00-0001-52.png,0002-00-0001-83.png
00000009,492,1,1446219095072,1446219095930,391,351,0,0,0,0,1,1,1,0001-00-0001-29.png,0005-00-0000-25.png
00000009,493,0,1446219097559,1446219098344,489,277,0,0,0,3,2,1,5,0002-00-0001-53.png,0003-00-0001-75.png
00000009,494,1,1446219101274,1446219101805,1073,303,0,0,0,1,0,1,1,0005-00-0000-03.png,0001-00-0000-41.png
00000009,495,0,1446219102674,1446219102732,913,410,0,0,0,3,4,1,7,0002-00-0001-44.png,0004-00-0001-90.png
00000009,496,1,1446219105575,1446219106155,990,332,0,0,0,4,3,1,7,0004-00-0001-96.png,0002-00-0000-54.png
00000009,497,0,1446219107026,1446219107162,941,456,0,0,0,2,3,1,5,0003-00-0001-95.png,0002-00-0000-87.png
00000009,498,1,1446219110110,1446219110694,1092,315,0,0,0,4,3,1,7,0004-00-0001-66.png,0002-00-0000-63.png
00000009,499,1,1446219111546,1446219111610,960,439,0,0,0,1,0,1,1,0005-00-0000-48.png,0001-00-0000-67.png
00000009,500,0,1446219112671,1446219112700,938,453,0,0,0,0,1,1,1,0001-00-0000-10.png,0005-00-0000-87.png
00000009,501,0,1446219115894,1446219116655,987,300,0,0,0,3,4,1,7,0002-00-0000-82.png,0004-00-0001-82.png
00000009,502,0,1446219119820,1446219119901,939,306,0,0,0,1,2,1,3,0005-00-0001-15.png,0003-00-0000-43.png
00000009,503,1,1446219122750,1446219124020,943,358,0,0,0,2,1,1,3,0003-00-0000-93.png,0005-00-0000-33.png
00000009,504,1,1446219124973,1446219125068,949,436,0,0,0,3,2,1,5,0002-00-0000-24.png,0003-00-0000-54.png
00000009,505,1,1446219126061,1446219126117,950,410,0,0,0,1,0,1,1,0005-00-0001-19.png,0001-00-0001-82.png
00000009,506,0,1446219127380,1446219127588,955,469,0,0,0,2,3,1,5,0003-00-0001-05.png,0002-00-0001-69.png
00000009,507,1,1446219130564,1446219131251,952,405,0,0,0,4,3,1,7,0004-00-0001-48.png,0002-00-0001-95.png
00000009,508,0,1446219132132,1446219132188,913,417,0,0,0,3,4,1,7,0002-00-0001-65.png,0004-00-0001-84.png
00000009,509,1,1446219135145,1446219136346,923,358,0,0,0,2,1,1,3,0003-00-0000-55.png,0005-00-0000-83.png
00000009,510,0,1446219137270,1446219137388,939,436,0,0,0,1,2,1,3,0005-00-0000-96.png,0003-00-0001-54.png
00000009,511,0,1446219140490,1446219140702,867,380,0,0,0,0,1,1,1,0001-00-0000-58.png,0005-00-0000-65.png
00000009,512,0,1446219143848,1446219144418,489,272,0,0,0,3,2,1,5,0002-00-0001-64.png,0003-00-0000-60.png
00000009,513,1,1446219147475,1446219148071,964,402,0,0,0,1,0,1,1,0005-00-0000-51.png,0001-00-0000-04.png
00000009,514,0,1446219148965,1446219149183,964,488,0,0,0,1,2,1,3,0005-00-0000-91.png,0003-00-0000-82.png
00000009,515,1,1446219152687,1446219153402,482,283,0,0,0,3,4,1,7,0002-00-0000-96.png,0004-00-0000-37.png
00000009,516,1,1446219154332,1446219154372,893,447,0,0,0,4,3,1,7,0004-00-0000-94.png,0002-00-0000-15.png
00000009,517,0,1446219155277,1446219155359,920,452,0,0,0,0,1,1,1,0001-00-0001-95.png,0005-00-0000-43.png
00000009,518,0,1446219158487,1446219159062,507,262,0,0,0,3,2,1,5,0002-00-0001-17.png,0003-00-0000-62.png
00000009,519,1,1446219161952,1446219161960,939,332,0,0,0,2,1,1,3,0003-00-0001-25.png,0005-00-0001-48.png
00000009,520,0,1446219162949,1446219162980,872,384,0,0,0,2,3,1,5,0003-00-0001-54.png,0002-00-0000-32.png
00000009,521,0,1446219166090,1446219166957,953,436,0,0,0,3,4,1,7,0002-00-0000-06.png,0004-00-0000-73.png
00000009,522,1,1446219170088,1446219170606,466,285,0,0,0,0,1,1,1,0001-00-0001-81.png,0005-00-0001-21.png
00000009,523,1,1446219171492,1446219171577,913,448,0,0,0,4,3,1,7,0004-00-0001-90.png,0002-00-0000-18.png
00000009,524,0,1446219172431,1446219172540,888,447,0,0,0,1,2,1,3,0005-00-0000-20.png,0003-00-0001-71.png
00000009,525,1,1446219175698,1446219175856,862,384,0,0,0,2,1,1,3,0003-00-0000-50.png,0005-00-0001-74.png
00000009,526,1,1446219176836,1446219176951,913,436,0,0,0,1,0,1,1,0005-00-0001-03.png,0001-00-0001-53.png
00000009,527,0,1446219177823,1446219177900,888,447,0,0,0,2,3,1,5,0003-00-0001-34.png,0002-00-0000-09.png
00000009,528,1,1446219180723,1446219180755,939,358,0,0,0,3,2,1,5,0002-00-0000-14.png,0003-00-0001-75.png
00000009,529,1,1446219181718,1446219181758,885,415,0,0,0,1,0,1,1,0005-00-0001-55.png,0001-00-0001-12.png
00000009,530,0,1446219182878,1446219182974,888,458,0,0,0,3,4,1,7,0002-00-0000-47.png,0004-00-0000-26.png
00000009,531,0,1446219185850,1446219186410,413,382,0,0,0,3,2,1,5,0002-00-0001-04.png,0003-00-0000-58.png
00000009,532,1,1446219189493,1446219190143,492,298,0,0,0,0,1,1,1,0001-00-0000-69.png,0005-00-0001-65.png
00000009,533,1,1446219191070,1446219191108,887,413,0,0,0,2,1,1,3,0003-00-0001-86.png,0005-00-0001-62.png
00000009,534,1,1446219192120,1446219192172,888,448,0,0,0,4,3,1,7,0004-00-0000-42.png,0002-00-0001-03.png
00000009,535,0,1446219193246,1446219193329,888,462,0,0,0,2,3,1,5,0003-00-0000-75.png,0002-00-0000-10.png
00000009,536,1,1446219196543,1446219197336,419,381,0,0,0,1,2,1,3,0005-00-0001-98.png,0003-00-0001-22.png
00000009,537,1,1446219198331,1446219198432,878,450,0,0,0,3,2,1,5,0002-00-0001-47.png,0003-00-0001-08.png
00000009,538,1,1446219199448,1446219199512,878,436,0,0,0,2,1,1,3,0003-00-0000-02.png,0005-00-0000-09.png
00000009,539,0,1446219200590,1446219200654,888,471,0,0,0,1,2,1,3,0005-00-0000-78.png,0003-00-0001-74.png
00000009,540,0,1446219203799,1446219204492,401,380,0,0,0,4,3,1,7,0004-00-0001-56.png,0002-00-0000-01.png
00000009,541,1,1446219207669,1446219208410,508,274,0,0,0,0,1,1,1,0001-00-0000-09.png,0005-00-0000-14.png
00000009,542,0,1446219209315,1446219209413,888,462,0,0,0,3,4,1,7,0002-00-0001-40.png,0004-00-0001-16.png
00000009,543,0,1446219212939,1446219213545,964,344,0,0,0,2,3,1,5,0003-00-0001-93.png,0002-00-0001-57.png
00000009,544,1,1446219216697,1446219217353,964,332,0,0,0,1,0,1,1,0005-00-0001-71.png,0001-00-0001-21.png
00000009,545,0,1446219218193,1446219218245,913,410,0,0,0,3,4,1,7,0002-00-0001-09.png,0004-00-0000-16.png
00000009,546,1,1446219221374,1446219222123,964,358,0,0,0,2,1,1,3,0003-00-0001-28.png,0005-00-0000-70.png
00000009,547,1,1446219222973,1446219223055,913,410,0,0,0,3,2,1,5,0002-00-0001-17.png,0003-00-0001-87.png
00000009,548,0,1446219224131,1446219224225,897,436,0,0,0,1,2,1,3,0005-00-0000-22.png,0003-00-0001-12.png
00000009,549,0,1446219227381,1446219228181,422,418,0,0,0,4,3,1,7,0004-00-0000-53.png,0002-00-0001-45.png
00000009,550,1,1446219231355,1446219231994,939,373,0,0,0,1,0,1,1,0005-00-0001-16.png,0001-00-0001-39.png
00000009,551,0,1446219232924,1446219233023,924,480,0,0,0,0,1,1,1,0001-00-0001-97.png,0005-00-0001-49.png
00000009,552,0,1446219236104,1446219236700,1092,306,0,0,0,2,3,1,5,0003-00-0001-83.png,0002-00-0000-51.png
00000009,553,0,1446219239683,1446219240263,1067,279,0,0,0,2,3,1,5,0003-00-0000-58.png,0002-00-0000-08.png
00000009,554,1,1446219243118,1446219244041,470,278,0,0,0,1,2,1,3,0005-00-0001-31.png,0003-00-0000-01.png
00000009,555,1,1446219245010,1446219245097,923,462,0,0,0,3,2,1,5,0002-00-0001-17.png,0003-00-0000-95.png
00000009,556,0,1446219246134,1446219246190,898,436,0,0,0,0,1,1,1,0001-00-0001-08.png,0005-00-0000-40.png
00000009,557,1,1446219249244,1446219249865,395,376,0,0,0,3,4,1,7,0002-00-0001-80.png,0004-00-0001-61.png
00000009,558,1,1446219250825,1446219250940,944,442,0,0,0,1,0,1,1,0005-00-0000-98.png,0001-00-0000-04.png
00000009,559,1,1446219251865,1446219251956,911,433,0,0,0,2,1,1,3,0003-00-0001-35.png,0005-00-0001-24.png
00000009,560,1,1446219253046,1446219253115,913,473,0,0,0,4,3,1,7,0004-00-0000-93.png,0002-00-0001-63.png
00000009,561,0,1446219254342,1446219254436,919,490,0,0,0,3,4,1,7,0002-00-0000-16.png,0004-00-0001-93.png
00000009,562,1,1446219257650,1446219258632,1104,306,0,0,0,2,1,1,3,0003-00-0000-72.png,0005-00-0000-29.png
00000009,563,1,1446219259525,1446219259655,918,463,0,0,0,1,0,1,1,0005-00-0001-90.png,0001-00-0000-42.png
00000009,564,0,1446219260526,1446219260623,888,437,0,0,0,2,3,1,5,0003-00-0001-72.png,0002-00-0001-32.png
00000009,565,1,1446219263708,1446219264814,388,355,0,0,0,1,2,1,3,0005-00-0001-00.png,0003-00-0001-14.png
00000009,566,1,1446219265819,1446219265843,888,472,0,0,0,4,3,1,7,0004-00-0000-59.png,0002-00-0001-40.png
00000009,567,0,1446219266803,1446219266851,888,423,0,0,0,0,1,1,1,0001-00-0001-46.png,0005-00-0001-81.png
00000009,568,0,1446219269968,1446219270628,483,277,0,0,0,3,2,1,5,0002-00-0001-88.png,0003-00-0000-19.png
00000009,569,1,1446219273583,1446219274129,921,399,0,0,0,4,3,1,7,0004-00-0000-56.png,0002-00-0000-33.png
00000009,570,1,1446219274980,1446219275018,866,481,0,0,0,2,1,1,3,0003-00-0001-14.png,0005-00-0000-52.png
00000009,571,1,1446219275881,1446219275944,886,394,0,0,0,1,0,1,1,0005-00-0001-13.png,0001-00-0000-76.png
00000009,572,0,1446219277085,1446219277155,913,436,0,0,0,2,3,1,5,0003-00-0001-95.png,0002-00-0001-88.png
00000009,573,1,1446219280011,1446219280244,888,436,0,0,0,3,2,1,5,0002-00-0001-72.png,0003-00-0000-91.png
00000009,574,1,1446219281212,1446219282201,479,248,0,0,0,1,2,1,3,0005-00-0001-22.png,0003-00-0001-66.png
00000009,575,0,1446219283114,1446219283197,913,436,0,0,0,0,1,1,1,0001-00-0001-27.png,0005-00-0000-17.png
00000009,576,1,1446219286064,1446219286712,396,349,0,0,0,3,4,1,7,0002-00-0000-81.png,0004-00-0001-63.png
00000009,577,1,1446219287625,1446219287690,913,410,0,0,0,1,0,1,1,0005-00-0000-92.png,0001-00-0001-22.png
00000009,578,0,1446219288623,1446219288651,867,416,0,0,0,2,3,1,5,0003-00-0000-72.png,0002-00-0000-64.png
00000009,579,1,1446219291804,1446219292510,481,275,0,0,0,3,4,1,7,0002-00-0000-26.png,0004-00-0000-04.png
00000009,580,0,1446219293364,1446219293430,885,432,0,0,0,0,1,1,1,0001-00-0001-48.png,0005-00-0001-12.png
00000009,581,0,1446219296604,1446219297146,414,389,0,0,0,4,3,1,7,0004-00-0001-66.png,0002-00-0000-35.png
00000009,582,0,1446219299982,1446219300567,474,281,0,0,0,3,2,1,5,0002-00-0000-16.png,0003-00-0000-04.png
00000009,583,0,1446219303758,1446219304861,961,363,0,0,0,1,2,1,3,0005-00-0000-06.png,0003-00-0000-10.png
00000009,584,1,1446219307923,1446219308464,941,326,0,0,0,2,1,1,3,0003-00-0000-79.png,0005-00-0001-89.png
00000009,585,0,1446219309427,1446219309485,890,433,0,0,0,1,2,1,3,0005-00-0000-03.png,0003-00-0000-81.png
00000009,586,0,1446219312393,1446219313229,944,329,0,0,0,0,1,1,1,0001-00-0000-40.png,0005-00-0000-05.png
00000009,587,0,1446219316381,1446219317151,458,270,0,0,0,4,3,1,7,0004-00-0000-97.png,0002-00-0000-45.png
00000009,588,0,1446219320385,1446219321118,405,431,0,0,0,3,2,1,5,0002-00-0001-78.png,0003-00-0000-32.png
00000009,589,0,1446219324265,1446219324876,976,332,0,0,0,2,3,1,5,0003-00-0000-28.png,0002-00-0000-86.png
00000009,590,1,1446219328202,1446219328746,1067,292,0,0,0,2,1,1,3,0003-00-0001-48.png,0005-00-0001-09.png
00000009,591,1,1446219329776,1446219329801,896,402,0,0,0,1,0,1,1,0005-00-0001-84.png,0001-00-0001-46.png
00000009,592,0,1446219331018,1446219331078,913,409,0,0,0,3,4,1,7,0002-00-0000-72.png,0004-00-0001-35.png
00000009,593,0,1446219334223,1446219334858,943,355,0,0,0,2,3,1,5,0003-00-0001-80.png,0002-00-0000-52.png
00000009,594,1,1446219337928,1446219338474,1063,280,0,0,0,2,1,1,3,0003-00-0000-11.png,0005-00-0000-75.png
00000009,595,1,1446219339403,1446219339477,910,465,0,0,0,4,3,1,7,0004-00-0001-05.png,0002-00-0001-15.png
00000009,596,1,1446219340469,1446219340534,905,436,0,0,0,3,2,1,5,0002-00-0000-97.png,0003-00-0001-88.png
00000009,597,0,1446219341591,1446219341664,929,436,0,0,0,3,4,1,7,0002-00-0000-31.png,0004-00-0000-87.png
00000009,598,0,1446219344848,1446219345790,945,374,0,0,0,1,2,1,3,0005-00-0000-69.png,0003-00-0000-31.png
00000009,599,1,1446219348894,1446219349658,933,376,0,0,0,1,0,1,1,0005-00-0000-79.png,0001-00-0000-70.png
00000009,600,0,1446219351114,1446219351444,969,492,0,0,0,0,1,1,1,0001-00-0000-93.png,0005-00-0001-15.png
00000009,601,1,1446219354410,1446219355035,507,273,0,0,0,3,4,1,7,0002-00-0000-04.png,0004-00-0001-56.png
00000009,602,0,1446219355928,1446219356058,964,462,0,0,0,0,1,1,1,0001-00-0001-41.png,0005-00-0001-98.png
00000009,603,0,1446219359207,1446219359896,473,281,0,0,0,3,2,1,5,0002-00-0000-67.png,0003-00-0000-73.png
00000009,604,1,1446219363105,1446219363729,1016,321,0,0,0,1,0,1,1,0005-00-0000-05.png,0001-00-0000-76.png
00000009,605,0,1446219364609,1446219364673,953,433,0,0,0,1,2,1,3,0005-00-0000-48.png,0003-00-0001-95.png
00000009,606,1,1446219367607,1446219368228,957,391,0,0,0,2,1,1,3,0003-00-0000-03.png,0005-00-0001-56.png
00000009,607,1,1446219369118,1446219369187,961,430,0,0,0,4,3,1,7,0004-00-0001-39.png,0002-00-0001-55.png
00000009,608,0,1446219370169,1446219370201,913,410,0,0,0,2,3,1,5,0003-00-0001-45.png,0002-00-0000-42.png
00000009,609,0,1446219373079,1446219373618,478,242,0,0,0,3,2,1,5,0002-00-0001-50.png,0003-00-0001-11.png
00000009,610,0,1446219376808,1446219377624,375,350,0,0,0,2,1,1,3,0003-00-0001-13.png,0005-00-0001-36.png
00000009,611,0,1446219380724,1446219381397,1080,279,0,0,0,3,4,1,7,0002-00-0001-21.png,0004-00-0001-21.png
00000009,612,1,1446219384440,1446219385107,943,381,0,0,0,1,0,1,1,0005-00-0000-39.png,0001-00-0000-61.png
00000009,613,1,1446219386012,1446219386123,954,436,0,0,0,4,3,1,7,0004-00-0000-85.png,0002-00-0001-30.png
00000009,614,0,1446219387104,1446219387171,939,449,0,0,0,2,3,1,5,0003-00-0000-19.png,0002-00-0000-13.png
00000009,615,1,1446219390055,1446219390926,478,306,0,0,0,1,2,1,3,0005-00-0000-13.png,0003-00-0001-44.png
00000009,616,0,1446219391914,1446219392016,945,429,0,0,0,0,1,1,1,0001-00-0000-36.png,0005-00-0001-88.png
00000009,617,1,1446219394901,1446219395464,1093,314,0,0,0,1,0,1,1,0005-00-0000-06.png,0001-00-0000-45.png
00000009,618,1,1446219396337,1446219396417,924,443,0,0,0,2,1,1,3,0003-00-0000-99.png,0005-00-0000-90.png
00000009,619,1,1446219397394,1446219397459,926,462,0,0,0,3,2,1,5,0002-00-0001-55.png,0003-00-0001-32.png
00000009,620,1,1446219398651,1446219398712,939,449,0,0,0,4,3,1,7,0004-00-0001-84.png,0002-00-0000-22.png
00000009,621,0,1446219400865,1446219401942,913,306,0,0,0,1,2,1,3,0005-00-0000-64.png,0003-00-0001-21.png
00000009,622,1,1446219404828,1446219405360,471,296,0,0,0,3,4,1,7,0002-00-0001-44.png,0004-00-0000-56.png
00000009,623,0,1446219406236,1446219406280,893,409,0,0,0,2,3,1,5,0003-00-0000-99.png,0002-00-0000-58.png
00000009,624,1,1446219409107,1446219409800,394,359,0,0,0,0,1,1,1,0001-00-0001-64.png,0005-00-0001-88.png
00000009,625,1,1446219410711,1446219410783,896,508,0,0,0,2,1,1,3,0003-00-0001-94.png,0005-00-0001-86.png
00000009,626,0,1446219411708,1446219411752,907,464,0,0,0,0,1,1,1,0001-00-0001-13.png,0005-00-0000-12.png
00000009,627,1,1446219415044,1446219415628,983,416,0,0,0,4,3,1,7,0004-00-0001-78.png,0002-00-0001-52.png
00000009,628,0,1446219416484,1446219416538,889,461,0,0,0,1,2,1,3,0005-00-0000-82.png,0003-00-0001-82.png
00000009,629,0,1446219419756,1446219420300,515,279,0,0,0,3,2,1,5,0002-00-0001-82.png,0003-00-0001-20.png
00000009,630,0,1446219423152,1446219423239,924,334,0,0,0,2,3,1,5,0003-00-0000-97.png,0002-00-0001-85.png
00000009,631,1,1446219426582,1446219427141,388,391,0,0,0,3,4,1,7,0002-00-0001-10.png,0004-00-0000-82.png
00000009,632,1,1446219428008,1446219428907,943,325,0,0,0,1,0,1,1,0005-00-0000-93.png,0001-00-0000-78.png
00000009,633,1,1446219429840,1446219429902,970,440,0,0,0,1,0,1,1,0005-00-0001-68.png,0001-00-0000-66.png
00000009,634,1,1446219431672,1446219432557,1027,295,0,0,0,4,3,1,7,0004-00-0000-55.png,0002-00-0001-31.png
00000009,635,1,1446219433510,1446219433546,973,438,0,0,0,2,1,1,3,0003-00-0001-25.png,0005-00-0001-97.png
00000009,636,0,1446219435785,1446219436837,990,306,0,0,0,1,2,1,3,0005-00-0000-96.png,0003-00-0000-25.png
00000009,637,1,1446219439990,1446219440544,513,284,0,0,0,0,1,1,1,0001-00-0000-56.png,0005-00-0001-43.png
00000009,638,0,1446219441480,1446219441508,888,436,0,0,0,3,4,1,7,0002-00-0001-12.png,0004-00-0001-92.png
00000009,639,0,1446219444680,1446219445244,964,423,0,0,0,2,3,1,5,0003-00-0000-26.png,0002-00-0000-23.png
00000009,640,0,1446219448293,1446219449239,397,384,0,0,0,3,2,1,5,0002-00-0000-82.png,0003-00-0000-39.png
00000009,641,1,1446219452450,1446219453030,504,268,0,0,0,1,2,1,3,0005-00-0000-00.png,0003-00-0001-30.png
00000009,642,0,1446219453978,1446219454046,939,449,0,0,0,3,4,1,7,0002-00-0000-75.png,0004-00-0000-99.png
00000009,643,0,1446219456939,1446219458108,370,345,0,0,0,1,0,1,1,0005-00-0001-36.png,0001-00-0000-25.png
00000009,644,0,1446219461206,1446219462045,484,273,0,0,0,2,1,1,3,0003-00-0001-19.png,0005-00-0000-25.png
00000009,645,0,1446219465147,1446219465727,358,387,0,0,0,4,3,1,7,0004-00-0001-42.png,0002-00-0000-60.png
00000009,646,0,1446219468789,1446219469343,1097,311,0,0,0,2,3,1,5,0003-00-0000-11.png,0002-00-0001-82.png
00000009,647,0,1446219472541,1446219473126,965,330,0,0,0,0,1,1,1,0001-00-0000-92.png,0005-00-0000-93.png
00000009,648,0,1446219476292,1446219476790,461,287,0,0,0,3,2,1,5,0002-00-0000-49.png,0003-00-0000-67.png
00000009,649,1,1446219479973,1446219480996,937,371,0,0,0,3,2,1,5,0002-00-0001-47.png,0003-00-0001-50.png
00000009,650,1,1446219482631,1446219483674,501,267,0,0,0,0,1,1,1,0001-00-0001-83.png,0005-00-0000-03.png
00000009,651,0,1446219484684,1446219484733,936,421,0,0,0,1,2,1,3,0005-00-0001-49.png,0003-00-0000-24.png
00000009,652,0,1446219487719,1446219488623,491,291,0,0,0,4,3,1,7,0004-00-0000-62.png,0002-00-0000-82.png
00000009,653,0,1446219491469,1446219492075,944,378,0,0,0,2,3,1,5,0003-00-0000-96.png,0002-00-0000-60.png
00000009,654,0,1446219494972,1446219495516,939,367,0,0,0,3,4,1,7,0002-00-0000-34.png,0004-00-0001-68.png
00000009,655,1,1446219498561,1446219499095,1086,273,0,0,0,1,0,1,1,0005-00-0001-05.png,0001-00-0000-45.png
00000009,656,1,1446219499998,1446219500107,986,444,0,0,0,2,1,1,3,0003-00-0001-88.png,0005-00-0000-57.png
00000009,657,0,1446219501013,1446219501053,939,384,0,0,0,2,3,1,5,0003-00-0000-69.png,0002-00-0001-04.png
00000009,658,1,1446219504214,1446219504869,964,302,0,0,0,1,0,1,1,0005-00-0000-95.png,0001-00-0000-68.png
00000009,659,1,1446219505824,1446219505892,911,437,0,0,0,3,2,1,5,0002-00-0001-73.png,0003-00-0001-80.png
00000009,660,0,1446219506734,1446219506816,923,462,0,0,0,0,1,1,1,0001-00-0000-97.png,0005-00-0001-96.png
00000009,661,1,1446219509728,1446219510750,478,267,0,0,0,1,2,1,3,0005-00-0000-19.png,0003-00-0001-25.png
00000009,662,1,1446219511750,1446219511810,907,408,0,0,0,4,3,1,7,0004-00-0000-66.png,0002-00-0001-97.png
00000009,663,0,1446219512925,1446219512970,968,441,0,0,0,3,4,1,7,0002-00-0000-35.png,0004-00-0000-42.png
00000009,664,1,1446219516137,1446219516719,1067,306,0,0,0,2,1,1,3,0003-00-0000-82.png,0005-00-0001-04.png
00000009,665,1,1446219517593,1446219517663,917,411,0,0,0,3,2,1,5,0002-00-0001-07.png,0003-00-0001-83.png
00000009,666,0,1446219518652,1446219518704,878,436,0,0,0,2,3,1,5,0003-00-0000-39.png,0002-00-0000-58.png
00000009,667,0,1446219521992,1446219522550,939,396,0,0,0,3,4,1,7,0002-00-0001-05.png,0004-00-0000-36.png
00000009,668,0,1446219525658,1446219526490,964,332,0,0,0,0,1,1,1,0001-00-0000-87.png,0005-00-0000-18.png
00000009,669,0,1446219529447,1446219530107,444,449,0,0,0,4,3,1,7,0004-00-0001-02.png,0002-00-0001-70.png
00000009,670,0,1446219532967,1446219533845,427,425,0,0,0,1,0,1,1,0005-00-0001-31.png,0001-00-0001-34.png
00000009,671,1,1446219537108,1446219537900,493,278,0,0,0,1,2,1,3,0005-00-0001-70.png,0003-00-0001-41.png
00000009,672,1,1446219538865,1446219538932,921,463,0,0,0,2,1,1,3,0003-00-0001-48.png,0005-00-0001-38.png
00000009,673,1,1446219539881,1446219539916,894,427,0,0,0,3,2,1,5,0002-00-0000-18.png,0003-00-0000-43.png
00000009,674,0,1446219540922,1446219540958,889,442,0,0,0,0,1,1,1,0001-00-0001-22.png,0005-00-0000-28.png
00000009,675,1,1446219544002,1446219544640,939,321,0,0,0,4,3,1,7,0004-00-0000-56.png,0002-00-0000-42.png
00000009,676,0,1446219545544,1446219545617,926,426,0,0,0,3,4,1,7,0002-00-0000-92.png,0004-00-0001-75.png
00000009,677,0,1446219548752,1446219549348,504,270,0,0,0,2,1,1,3,0003-00-0001-77.png,0005-00-0000-06.png
00000009,678,0,1446219552340,1446219552903,1052,274,0,0,0,2,3,1,5,0003-00-0000-91.png,0002-00-0000-82.png
00000009,679,1,1446219555796,1446219556469,484,272,0,0,0,1,2,1,3,0005-00-0001-04.png,0003-00-0000-00.png
00000009,680,1,1446219557358,1446219557426,938,438,0,0,0,1,0,1,1,0005-00-0001-18.png,0001-00-0001-28.png
00000009,681,1,1446219558394,1446219558462,898,418,0,0,0,2,1,1,3,0003-00-0000-40.png,0005-00-0000-07.png
00000009,682,0,1446219559605,1446219559691,931,469,0,0,0,0,1,1,1,0001-00-0000-40.png,0005-00-0000-98.png
00000009,683,1,1446219562760,1446219563320,505,287,0,0,0,3,4,1,7,0002-00-0001-01.png,0004-00-0000-82.png
00000009,684,1,1446219564289,1446219564359,910,445,0,0,0,4,3,1,7,0004-00-0001-53.png,0002-00-0001-08.png
00000009,685,0,1446219565279,1446219565324,888,414,0,0,0,2,3,1,5,0003-00-0001-68.png,0002-00-0001-22.png
00000009,686,0,1446219568499,1446219569053,433,429,0,0,0,3,2,1,5,0002-00-0001-85.png,0003-00-0001-20.png
00000009,687,1,1446219572164,1446219572793,999,332,0,0,0,1,0,1,1,0005-00-0000-41.png,0001-00-0001-65.png
00000009,688,0,1446219573688,1446219573746,917,412,0,0,0,1,2,1,3,0005-00-0001-87.png,0003-00-0000-35.png
00000009,689,0,1446219576886,1446219577590,371,344,0,0,0,4,3,1,7,0004-00-0000-52.png,0002-00-0000-25.png
00000009,690,0,1446219580589,1446219581171,376,373,0,0,0,1,0,1,1,0005-00-0000-77.png,0001-00-0000-94.png
00000009,691,1,1446219584135,1446219584673,939,371,0,0,0,2,1,1,3,0003-00-0000-22.png,0005-00-0001-97.png
00000009,692,0,1446219585600,1446219585703,939,462,0,0,0,1,2,1,3,0005-00-0000-63.png,0003-00-0001-45.png
00000009,693,1,1446219588916,1446219589518,522,262,0,0,0,0,1,1,1,0001-00-0001-58.png,0005-00-0001-81.png
00000009,694,0,1446219590429,1446219590473,913,384,0,0,0,2,3,1,5,0003-00-0001-29.png,0002-00-0000-40.png
00000009,695,0,1446219593405,1446219594215,504,270,0,0,0,3,2,1,5,0002-00-0000-35.png,0003-00-0001-41.png
00000009,696,1,1446219597343,1446219597872,409,325,0,0,0,3,4,1,7,0002-00-0001-48.png,0004-00-0000-92.png
00000009,697,0,1446219598779,1446219598826,914,420,0,0,0,0,1,1,1,0001-00-0001-47.png,0005-00-0000-60.png
00000009,698,0,1446219602056,1446219602673,973,358,0,0,0,2,3,1,5,0003-00-0001-03.png,0002-00-0001-54.png
00000009,699,1,1446219605591,1446219606824,487,299,0,0,0,1,2,1,3,0005-00-0001-02.png,0003-00-0001-98.png
00000009,700,0,1446219607799,1446219607917,949,436,0,0,0,3,4,1,7,0002-00-0001-05.png,0004-00-0001-04.png
00000009,701,0,1446219611087,1446219612019,504,267,0,0,0,1,0,1,1,0005-00-0000-83.png,0001-00-0000-95.png
00000009,702,1,1446219615052,1446219615653,999,332,0,0,0,4,3,1,7,0004-00-0001-43.png,0002-00-0000-03.png
00000009,703,1,1446219616533,1446219616614,968,439,0,0,0,3,2,1,5,0002-00-0000-50.png,0003-00-0000-72.png
00000009,704,1,1446219617516,1446219617622,931,462,0,0,0,2,1,1,3,0003-00-0001-58.png,0005-00-0001-28.png
00000009,705,0,1446219618681,1446219618729,939,446,0,0,0,0,1,1,1,0001-00-0000-00.png,0005-00-0001-65.png
00000009,706,0,1446219621858,1446219622461,498,269,0,0,0,3,2,1,5,0002-00-0001-23.png,0003-00-0000-76.png
00000009,707,0,1446219625548,1446219626084,964,401,0,0,0,2,3,1,5,0003-00-0001-72.png,0002-00-0000-09.png
00000009,708,1,1446219629048,1446219630038,990,332,0,0,0,1,0,1,1,0005-00-0001-88.png,0001-00-0001-99.png
00000009,709,1,1446219631003,1446219631113,965,448,0,0,0,2,1,1,3,0003-00-0001-70.png,0005-00-0000-47.png
00000009,710,0,1446219632007,1446219632054,941,415,0,0,0,3,4,1,7,0002-00-0001-55.png,0004-00-0001-16.png
00000009,711,0,1446219635155,1446219635918,970,401,0,0,0,1,2,1,3,0005-00-0000-11.png,0003-00-0001-13.png
00000009,712,0,1446219638838,1446219639625,471,286,0,0,0,4,3,1,7,0004-00-0000-06.png,0002-00-0000-07.png
00000009,713,0,1446219642966,1446219643510,1068,282,0,0,0,2,3,1,5,0003-00-0000-98.png,0002-00-0000-58.png
00000009,714,1,1446219646645,1446219647371,358,373,0,0,0,0,1,1,1,0001-00-0001-71.png,0005-00-0001-10.png
00000009,715,0,1446219648302,1446219648397,911,413,0,0,0,1,2,1,3,0005-00-0000-71.png,0003-00-0000-16.png
00000009,716,1,1446219651486,1446219652138,967,307,0,0,0,2,1,1,3,0003-00-0000-09.png,0005-00-0001-18.png
00000009,717,1,1446219653022,1446219653046,891,412,0,0,0,1,0,1,1,0005-00-0001-72.png,0001-00-0000-52.png
00000009,718,0,1446219654156,1446219654314,934,460,0,0,0,3,4,1,7,0002-00-0001-67.png,0004-00-0001-29.png
00000009,719,0,1446219657445,1446219658184,410,377,0,0,0,4,3,1,7,0004-00-0000-57.png,0002-00-0001-55.png
00000009,720,0,1446219661319,1446219661898,385,381,0,0,0,3,2,1,5,0002-00-0001-00.png,0003-00-0001-38.png
00000009,721,0,1446219665057,1446219665908,362,346,0,0,0,1,0,1,1,0005-00-0000-01.png,0001-00-0001-37.png
00000009,722,1,1446219668753,1446219669367,939,370,0,0,0,4,3,1,7,0004-00-0001-04.png,0002-00-0001-53.png
00000009,723,0,1446219670963,1446219671121,994,463,0,0,0,2,3,1,5,0003-00-0000-17.png,0002-00-0000-43.png
00000009,724,1,1446219674016,1446219674876,964,332,0,0,0,2,1,1,3,0003-00-0001-74.png,0005-00-0000-81.png
00000009,725,0,1446219675788,1446219675852,937,425,0,0,0,0,1,1,1,0001-00-0000-30.png,0005-00-0000-06.png
00000009,726,0,1446219678883,1446219679400,505,296,0,0,0,3,2,1,5,0002-00-0000-98.png,0003-00-0000-54.png
00000009,727,1,1446219683672,1446219684170,426,367,0,0,0,1,2,1,3,0005-00-0001-04.png,0003-00-0001-59.png
00000009,728,1,1446219685121,1446219686151,385,361,0,0,0,3,4,1,7,0002-00-0000-13.png,0004-00-0000-65.png
00000009,729,0,1446219687070,1446219687957,934,354,0,0,0,3,4,1,7,0002-00-0001-56.png,0004-00-0000-68.png
00000009,730,1,1446219691049,1446219691625,964,399,0,0,0,2,1,1,3,0003-00-0000-78.png,0005-00-0000-47.png
00000009,731,0,1446219692469,1446219692525,945,414,0,0,0,1,2,1,3,0005-00-0001-58.png,0003-00-0000-88.png
00000009,732,0,1446219695642,1446219696168,394,339,0,0,0,3,2,1,5,0002-00-0000-33.png,0003-00-0000-62.png
00000009,733,1,1446219699355,1446219699889,1072,275,0,0,0,1,0,1,1,0005-00-0001-52.png,0001-00-0001-57.png
00000009,734,1,1446219700782,1446219700833,889,443,0,0,0,4,3,1,7,0004-00-0001-45.png,0002-00-0001-88.png
00000009,735,0,1446219701724,1446219701793,887,437,0,0,0,0,1,1,1,0001-00-0000-42.png,0005-00-0001-55.png
00000009,736,0,1446219705044,1446219705170,923,279,0,0,0,2,3,1,5,0003-00-0000-66.png,0002-00-0001-41.png
00000009,737,0,1446219718706,1446219719326,444,230,0,0,0,3,2,1,5,0002-00-0001-14.png,0003-00-0001-59.png
00000009,738,1,1446219722317,1446219722851,1060,275,0,0,0,1,0,1,1,0005-00-0000-30.png,0001-00-0000-17.png
00000009,739,0,1446219723796,1446219723903,949,462,0,0,0,1,2,1,3,0005-00-0001-26.png,0003-00-0001-25.png
00000009,740,1,1446219726815,1446219727420,966,329,0,0,0,4,3,1,7,0004-00-0001-11.png,0002-00-0001-84.png
00000009,741,0,1446219728316,1446219728445,939,462,0,0,0,3,4,1,7,0002-00-0000-09.png,0004-00-0000-43.png
00000009,742,1,1446219731359,1446219732195,1041,306,0,0,0,2,1,1,3,0003-00-0001-02.png,0005-00-0000-10.png
00000009,743,1,1446219733112,1446219734540,365,348,0,0,0,0,1,1,1,0001-00-0001-68.png,0005-00-0000-37.png
00000009,744,0,1446219735506,1446219735546,908,438,0,0,0,2,3,1,5,0003-00-0001-26.png,0002-00-0000-73.png
00000009,745,1,1446219738705,1446219739557,1070,274,0,0,0,2,1,1,3,0003-00-0001-82.png,0005-00-0000-13.png
00000009,746,0,1446219740485,1446219740549,921,467,0,0,0,3,4,1,7,0002-00-0001-84.png,0004-00-0001-72.png
00000009,747,1,1446219743412,1446219744238,977,365,0,0,0,1,0,1,1,0005-00-0000-08.png,0001-00-0001-04.png
00000009,748,1,1446219745735,1446219746645,499,262,0,0,0,1,2,1,3,0005-00-0000-88.png,0003-00-0001-05.png
00000009,749,1,1446219748225,1446219748923,1041,279,0,0,0,4,3,1,7,0004-00-0001-23.png,0002-00-0001-56.png
00000009,750,1,1446219749941,1446219749965,948,407,0,0,0,3,2,1,5,0002-00-0001-85.png,0003-00-0000-39.png
00000009,751,0,1446219751117,1446219751214,939,443,0,0,0,0,1,1,1,0001-00-0000-62.png,0005-00-0001-82.png
00000009,752,0,1446219754218,1446219754722,963,327,0,0,0,2,3,1,5,0003-00-0000-55.png,0002-00-0000-57.png
00000009,753,1,1446219757903,1446219758516,990,321,0,0,0,4,3,1,7,0004-00-0000-54.png,0002-00-0000-81.png
00000009,754,0,1446219759361,1446219759522,948,490,0,0,0,1,2,1,3,0005-00-0000-70.png,0003-00-0001-94.png
00000009,755,1,1446219762564,1446219763223,944,338,0,0,0,2,1,1,3,0003-00-0000-38.png,0005-00-0001-78.png
00000009,756,1,1446219764173,1446219765228,964,322,0,0,0,1,0,1,1,0005-00-0001-71.png,0001-00-0001-56.png
00000009,757,0,1446219766215,1446219767214,961,323,0,0,0,3,4,1,7,0002-00-0000-32.png,0004-00-0001-42.png
00000009,758,0,1446219770085,1446219770359,890,412,0,0,0,2,3,1,5,0003-00-0000-55.png,0002-00-0000-88.png
00000009,759,0,1446219773513,1446219774047,393,365,0,0,0,3,2,1,5,0002-00-0000-20.png,0003-00-0001-79.png
00000009,760,0,1446219776910,1446219778106,1140,409,0,0,0,0,1,1,1,0001-00-0000-59.png,0005-00-0000-33.png
00000009,761,0,1446219781307,1446219781860,964,349,0,0,0,2,3,1,5,0003-00-0000-54.png,0002-00-0001-73.png
00000009,762,0,1446219784865,1446219785759,376,367,0,0,0,1,0,1,1,0005-00-0000-94.png,0001-00-0000-84.png
00000009,763,1,1446219788670,1446219788748,888,384,0,0,0,3,2,1,5,0002-00-0001-32.png,0003-00-0001-95.png
00000009,764,1,1446219789757,1446219789842,939,478,0,0,0,2,1,1,3,0003-00-0001-19.png,0005-00-0000-71.png
00000009,765,0,1446219790837,1446219790881,975,463,0,0,0,1,2,1,3,0005-00-0000-54.png,0003-00-0001-49.png
00000009,766,0,1446219793786,1446219794683,964,348,0,0,0,3,4,1,7,0002-00-0001-82.png,0004-00-0000-63.png
00000009,767,0,1446219797533,1446219798146,482,230,0,0,0,4,3,1,7,0004-00-0001-09.png,0002-00-0000-77.png
00000009,768,1,1446219801344,1446219802174,401,358,0,0,0,0,1,1,1,0001-00-0000-40.png,0005-00-0000-94.png
00000009,769,0,1446219803166,1446219803223,945,440,0,0,0,2,3,1,5,0003-00-0000-28.png,0002-00-0001-17.png
00000009,770,0,1446219806104,1446219806782,517,244,0,0,0,4,3,1,7,0004-00-0001-86.png,0002-00-0001-99.png
00000009,771,1,1446219809966,1446219810837,503,300,0,0,0,0,1,1,1,0001-00-0001-43.png,0005-00-0000-67.png
00000009,772,1,1446219811831,1446219811884,964,410,0,0,0,2,1,1,3,0003-00-0001-26.png,0005-00-0001-09.png
00000009,773,1,1446219812926,1446219812993,925,440,0,0,0,3,2,1,5,0002-00-0000-03.png,0003-00-0001-16.png
00000009,774,0,1446219814021,1446219814108,949,462,0,0,0,3,4,1,7,0002-00-0000-09.png,0004-00-0000-64.png
00000009,775,1,1446219817250,1446219818684,510,269,0,0,0,1,2,1,3,0005-00-0001-53.png,0003-00-0001-97.png
00000009,776,1,1446219819655,1446219819710,888,447,0,0,0,1,0,1,1,0005-00-0001-84.png,0001-00-0001-13.png
00000009,777,0,1446219820658,1446219820893,920,486,0,0,0,2,3,1,5,0003-00-0001-05.png,0002-00-0000-93.png
00000009,778,1,1446219823760,1446219824507,494,257,0,0,0,0,1,1,1,0001-00-0000-51.png,0005-00-0001-02.png
00000009,779,1,1446219825486,1446219825518,913,436,0,0,0,4,3,1,7,0004-00-0001-27.png,0002-00-0001-38.png
00000009,780,1,1446219826432,1446219826464,891,446,0,0,0,2,1,1,3,0003-00-0001-29.png,0005-00-0001-00.png
00000009,781,1,1446219827435,1446219828816,384,350,0,0,0,1,2,1,3,0005-00-0000-34.png,0003-00-0000-42.png
00000009,782,0,1446219829780,1446219829836,909,446,0,0,0,3,4,1,7,0002-00-0000-40.png,0004-00-0000-72.png
00000009,783,0,1446219832739,1446219833295,393,366,0,0,0,3,2,1,5,0002-00-0001-52.png,0003-00-0000-22.png
00000009,784,0,1446219836186,1446219837026,384,379,0,0,0,1,0,1,1,0005-00-0001-92.png,0001-00-0001-36.png
00000009,785,1,1446219840176,1446219840770,407,350,0,0,0,3,4,1,7,0002-00-0001-94.png,0004-00-0000-65.png
00000009,786,0,1446219841667,1446219841765,939,448,0,0,0,1,2,1,3,0005-00-0001-14.png,0003-00-0000-97.png
00000009,787,1,1446219844975,1446219845071,955,287,0,0,0,2,1,1,3,0003-00-0001-59.png,0005-00-0000-01.png
00000009,788,1,1446219846068,1446219846104,917,448,0,0,0,4,3,1,7,0004-00-0001-43.png,0002-00-0001-11.png
00000009,789,0,1446219847113,1446219847202,939,410,0,0,0,2,3,1,5,0003-00-0001-70.png,0002-00-0001-10.png
00000009,790,0,1446219850786,1446219851291,486,276,0,0,0,3,2,1,5,0002-00-0001-41.png,0003-00-0001-06.png
00000009,791,0,1446219854375,1446219855236,496,257,0,0,0,1,0,1,1,0005-00-0001-00.png,0001-00-0001-22.png
00000009,792,1,1446219858178,1446219858727,507,268,0,0,0,0,1,1,1,0001-00-0001-46.png,0005-00-0001-45.png
00000009,793,1,1446219859673,1446219859753,913,473,0,0,0,2,1,1,3,0003-00-0000-58.png,0005-00-0001-23.png
00000009,794,1,1446219860720,1446219860757,915,411,0,0,0,1,0,1,1,0005-00-0000-63.png,0001-00-0000-83.png
00000009,795,0,1446219861872,1446219861948,939,451,0,0,0,1,2,1,3,0005-00-0001-60.png,0003-00-0001-65.png
00000009,796,1,1446219865001,1446219865707,1101,317,0,0,0,4,3,1,7,0004-00-0001-92.png,0002-00-0000-44.png
00000009,797,0,1446219866607,1446219866686,919,452,0,0,0,3,4,1,7,0002-00-0001-81.png,0004-00-0001-99.png
00000009,798,1,1446219869520,1446219870448,464,250,0,0,0,0,1,1,1,0001-00-0000-17.png,0005-00-0000-95.png
00000009,799,0,1446219872026,1446219873071,479,254,0,0,0,3,2,1,5,0002-00-0001-67.png,0003-00-0000-28.png
00000009,800,0,1446219876166,1446219876651,964,399,0,0,0,2,3,1,5,0003-00-0001-70.png,0002-00-0001-22.png
00000009,801,0,1446219879726,1446219880287,935,382,0,0,0,2,3,1,5,0003-00-0001-98.png,0002-00-0000-17.png
00000009,802,1,1446219883450,1446219884177,391,306,0,0,0,3,4,1,7,0002-00-0000-59.png,0004-00-0000-42.png
00000009,803,0,1446219885112,1446219885201,939,462,0,0,0,0,1,1,1,0001-00-0001-39.png,0005-00-0001-65.png
00000009,804,1,1446219888145,1446219888666,489,279,0,0,0,1,2,1,3,0005-00-0001-59.png,0003-00-0000-84.png
00000009,805,1,1446219889593,1446219889677,935,448,0,0,0,2,1,1,3,0003-00-0001-31.png,0005-00-0001-57.png
00000009,806,1,1446219890657,1446219890720,929,436,0,0,0,1,0,1,1,0005-00-0001-62.png,0001-00-0000-79.png
00000009,807,1,1446219891780,1446219891878,913,449,0,0,0,4,3,1,7,0004-00-0000-72.png,0002-00-0001-94.png
00000009,808,1,1446219893138,1446219893216,946,462,0,0,0,3,2,1,5,0002-00-0000-63.png,0003-00-0000-48.png
00000009,809,1,1446219894451,1446219894570,944,464,0,0,0,4,3,1,7,0004-00-0000-15.png,0002-00-0001-33.png
00000009,810,0,1446219895842,1446219895921,915,464,0,0,0,0,1,1,1,0001-00-0000-25.png,0005-00-0001-75.png
00000009,811,1,1446219899122,1446219899834,1095,285,0,0,0,2,1,1,3,0003-00-0001-53.png,0005-00-0000-45.png
00000009,812,0,1446219900811,1446219900847,913,410,0,0,0,2,3,1,5,0003-00-0001-93.png,0002-00-0000-36.png
00000009,813,1,1446219904000,1446219904469,402,369,0,0,0,1,2,1,3,0005-00-0001-97.png,0003-00-0000-78.png
00000009,814,1,1446219905439,1446219905550,935,455,0,0,0,3,2,1,5,0002-00-0001-76.png,0003-00-0000-60.png
00000009,815,1,1446219906431,1446219906494,911,443,0,0,0,1,0,1,1,0005-00-0000-70.png,0001-00-0001-03.png
00000009,816,0,1446219907526,1446219907586,936,442,0,0,0,3,4,1,7,0002-00-0001-17.png,0004-00-0001-41.png
00000009,817,1,1446219910445,1446219911184,935,333,0,0,0,2,1,1,3,0003-00-0001-30.png,0005-00-0000-74.png
00000009,818,1,1446219912140,1446219912251,936,489,0,0,0,3,2,1,5,0002-00-0000-19.png,0003-00-0000-75.png
00000009,819,0,1446219913277,1446219913332,913,461,0,0,0,1,2,1,3,0005-00-0000-17.png,0003-00-0001-84.png
00000009,820,0,1446219916338,1446219916381,914,380,0,0,0,0,1,1,1,0001-00-0000-53.png,0005-00-0001-77.png
00000009,821,1,1446219919526,1446219920303,459,404,0,0,0,3,4,1,7,0002-00-0001-46.png,0004-00-0000-43.png
00000009,822,1,1446219921689,1446219922732,939,398,0,0,0,1,0,1,1,0005-00-0001-93.png,0001-00-0000-90.png
00000009,823,0,1446219923606,1446219923684,939,439,0,0,0,2,3,1,5,0003-00-0000-49.png,0002-00-0000-76.png
00000009,824,1,1446219926695,1446219927158,962,334,0,0,0,4,3,1,7,0004-00-0000-34.png,0002-00-0000-93.png
00000009,825,0,1446219928027,1446219928106,915,456,0,0,0,3,4,1,7,0002-00-0000-34.png,0004-00-0001-16.png
00000009,826,1,1446219931069,1446219931889,506,244,0,0,0,1,2,1,3,0005-00-0001-47.png,0003-00-0001-26.png
00000009,827,0,1446219932778,1446219932826,888,478,0,0,0,0,1,1,1,0001-00-0000-44.png,0005-00-0001-27.png
00000009,828,1,1446219935751,1446219936458,939,384,0,0,0,1,0,1,1,0005-00-0001-52.png,0001-00-0001-03.png
00000009,829,1,1446219937329,1446219937365,917,439,0,0,0,3,2,1,5,0002-00-0000-26.png,0003-00-0001-70.png
00000009,830,0,1446219938222,1446219938319,888,410,0,0,0,2,3,1,5,0003-00-0001-23.png,0002-00-0001-91.png
00000009,831,1,1446219941531,1446219942271,944,334,0,0,0,4,3,1,7,0004-00-0001-50.png,0002-00-0001-98.png
00000009,832,1,1446219943656,1446219944421,909,353,0,0,0,2,1,1,3,0003-00-0000-69.png,0005-00-0001-26.png
00000009,833,0,1446219945341,1446219945426,939,478,0,0,0,0,1,1,1,0001-00-0000-73.png,0005-00-0000-88.png
00000009,834,1,1446219948627,1446219949360,472,272,0,0,0,1,2,1,3,0005-00-0001-54.png,0003-00-0001-17.png
00000009,835,1,1446219950299,1446219950379,942,449,0,0,0,2,1,1,3,0003-00-0000-73.png,0005-00-0001-46.png
00000009,836,1,1446219951269,1446219951396,902,462,0,0,0,4,3,1,7,0004-00-0000-77.png,0002-00-0000-99.png
00000009,837,0,1446219952471,1446219953523,516,251,0,0,0,3,2,1,5,0002-00-0000-70.png,0003-00-0001-42.png
00000009,838,0,1446219956479,1446219957105,939,312,0,0,0,3,4,1,7,0002-00-0001-90.png,0004-00-0000-98.png
00000009,839,0,1446219960120,1446219960666,1093,280,0,0,0,2,3,1,5,0003-00-0001-19.png,0002-00-0001-65.png
00000009,840,1,1446219963823,1446219964372,964,342,0,0,0,1,0,1,1,0005-00-0000-47.png,0001-00-0000-21.png
00000009,841,0,1446219965248,1446219965347,914,487,0,0,0,1,2,1,3,0005-00-0001-49.png,0003-00-0001-46.png
00000009,842,0,1446219968335,1446219968861,1052,295,0,0,0,2,3,1,5,0003-00-0000-68.png,0002-00-0001-80.png
00000009,843,0,1446219972050,1446219972742,1048,286,0,0,0,3,4,1,7,0002-00-0000-25.png,0004-00-0000-62.png
00000009,844,1,1446219975768,1446219975796,886,354,0,0,0,2,1,1,3,0003-00-0000-79.png,0005-00-0001-95.png
00000009,845,1,1446219976750,1446219976799,888,410,0,0,0,4,3,1,7,0004-00-0001-45.png,0002-00-0001-76.png
00000009,846,1,1446219977665,1446219977722,878,410,0,0,0,3,2,1,5,0002-00-0000-03.png,0003-00-0000-73.png
00000009,847,1,1446219978831,1446219978883,909,418,0,0,0,1,0,1,1,0005-00-0001-18.png,0001-00-0000-55.png
00000009,848,0,1446219980004,1446219980090,913,476,0,0,0,0,1,1,1,0001-00-0001-42.png,0005-00-0000-37.png
00000009,849,0,1446219983162,1446219983690,939,321,0,0,0,2,3,1,5,0003-00-0000-31.png,0002-00-0000-46.png
00000009,850,1,1446219986737,1446219987458,389,383,0,0,0,0,1,1,1,0001-00-0001-88.png,0005-00-0001-02.png
00000009,851,0,1446219988335,1446219989233,501,260,0,0,0,3,2,1,5,0002-00-0000-07.png,0003-00-0000-57.png
00000009,852,0,1446219992165,1446219992776,491,251,0,0,0,4,3,1,7,0004-00-0001-74.png,0002-00-0001-55.png
00000009,853,1,1446219996022,1446219996772,388,375,0,0,0,1,2,1,3,0005-00-0001-49.png,0003-00-0000-29.png
00000009,854,1,1446219997700,1446219997740,888,420,0,0,0,1,0,1,1,0005-00-0000-85.png,0001-00-0000-46.png
00000009,855,0,1446219998763,1446219998791,913,410,0,0,0,3,4,1,7,0002-00-0000-75.png,0004-00-0001-18.png
00000009,856,1,1446220001934,1446220002513,1045,304,0,0,0,2,1,1,3,0003-00-0001-91.png,0005-00-0001-96.png
00000009,857,1,1446220003415,1446220003509,941,471,0,0,0,2,1,1,3,0003-00-0000-55.png,0005-00-0001-14.png
00000009,858,0,1446220004459,1446220004566,928,436,0,0,0,0,1,1,1,0001-00-0000-31.png,0005-00-0001-43.png
00000009,859,0,1446220007496,1446220008076,939,399,0,0,0,2,3,1,5,0003-00-0000-17.png,0002-00-0001-81.png
00000009,860,0,1446220010975,1446220011887,913,371,0,0,0,3,4,1,7,0002-00-0001-15.png,0004-00-0001-70.png
00000009,861,0,1446220015130,1446220015638,413,358,0,0,0,3,2,1,5,0002-00-0000-96.png,0003-00-0000-82.png
00000009,862,1,1446220018516,1446220019116,1045,282,0,0,0,1,0,1,1,0005-00-0001-12.png,0001-00-0001-94.png
00000009,863,0,1446220020099,1446220020127,896,422,0,0,0,1,2,1,3,0005-00-0001-61.png,0003-00-0001-81.png
00000009,864,1,1446220023292,1446220023349,946,353,0,0,0,4,3,1,7,0004-00-0001-12.png,0002-00-0000-18.png
00000009,865,1,1446220024880,1446220025726,928,410,0,0,0,2,1,1,3,0003-00-0000-01.png,0005-00-0001-52.png
00000009,866,1,1446220026686,1446220026718,909,415,0,0,0,3,2,1,5,0002-00-0000-34.png,0003-00-0000-19.png
00000009,867,1,1446220027737,1446220027768,888,427,0,0,0,4,3,1,7,0004-00-0000-82.png,0002-00-0001-77.png
00000009,868,0,1446220028880,1446220028976,939,488,0,0,0,2,3,1,5,0003-00-0000-92.png,0002-00-0000-85.png
00000009,869,1,1446220032140,1446220032805,512,274,0,0,0,1,2,1,3,0005-00-0000-68.png,0003-00-0001-90.png
00000009,870,0,1446220033697,1446220033770,879,466,0,0,0,0,1,1,1,0001-00-0000-72.png,0005-00-0000-38.png
00000009,871,1,1446220036882,1446220037434,977,332,0,0,0,1,0,1,1,0005-00-0001-13.png,0001-00-0000-54.png
00000009,872,1,1446220038829,1446220039554,397,354,0,0,0,3,4,1,7,0002-00-0000-54.png,0004-00-0000-54.png
00000009,873,0,1446220040440,1446220040486,899,469,0,0,0,1,2,1,3,0005-00-0001-65.png,0003-00-0000-76.png
00000009,874,0,1446220043336,1446220043943,504,269,0,0,0,3,2,1,5,0002-00-0000-20.png,0003-00-0000-39.png
00000009,875,0,1446220047118,1446220047705,1070,280,0,0,0,3,4,1,7,0002-00-0001-96.png,0004-00-0001-55.png
00000009,876,1,1446220050548,1446220051181,913,332,0,0,0,4,3,1,7,0004-00-0001-66.png,0002-00-0001-87.png
00000009,877,0,1446220052656,1446220053222,504,267,0,0,0,1,0,1,1,0005-00-0001-67.png,0001-00-0000-08.png
00000009,878,1,1446220056218,1446220056792,964,400,0,0,0,2,1,1,3,0003-00-0001-20.png,0005-00-0000-21.png
00000009,879,0,1446220057711,1446220057751,920,427,0,0,0,0,1,1,1,0001-00-0000-32.png,0005-00-0000-78.png
00000009,880,0,1446220060920,1446220061450,990,306,0,0,0,2,3,1,5,0003-00-0000-27.png,0002-00-0001-50.png
00000009,881,1,1446220064399,1446220064641,858,435,0,0,0,3,2,1,5,0002-00-0001-92.png,0003-00-0001-35.png
00000009,882,1,1446220065602,1446220066380,397,364,0,0,0,0,1,1,1,0001-00-0000-97.png,0005-00-0000-86.png
00000009,883,1,1446220067318,1446220067386,897,410,0,0,0,4,3,1,7,0004-00-0000-58.png,0002-00-0001-19.png
00000009,884,0,1446220068295,1446220068347,931,393,0,0,0,2,3,1,5,0003-00-0000-39.png,0002-00-0000-91.png
00000009,885,1,1446220071857,1446220072424,1067,253,0,0,0,1,0,1,1,0005-00-0000-19.png,0001-00-0000-86.png
00000009,886,0,1446220073354,1446220073391,862,464,0,0,0,1,2,1,3,0005-00-0000-86.png,0003-00-0001-93.png
00000009,887,1,1446220076344,1446220076858,501,282,0,0,0,3,4,1,7,0002-00-0001-77.png,0004-00-0001-96.png
00000009,888,1,1446220077785,1446220079084,892,409,0,0,0,2,1,1,3,0003-00-0000-65.png,0005-00-0001-54.png
00000009,889,0,1446220079999,1446220081247,364,348,0,0,0,1,0,1,1,0005-00-0001-15.png,0001-00-0000-11.png
00000009,890,1,1446220084448,1446220084960,1043,278,0,0,0,4,3,1,7,0004-00-0001-50.png,0002-00-0000-14.png
00000009,891,0,1446220085805,1446220085861,917,485,0,0,0,0,1,1,1,0001-00-0000-05.png,0005-00-0000-13.png
00000009,892,0,1446220088842,1446220089328,478,265,0,0,0,3,2,1,5,0002-00-0000-77.png,0003-00-0001-14.png
00000009,893,1,1446220092509,1446220093200,496,286,0,0,0,3,4,1,7,0002-00-0000-80.png,0004-00-0001-74.png
00000009,894,0,1446220094038,1446220094105,913,450,0,0,0,1,2,1,3,0005-00-0001-78.png,0003-00-0000-13.png
00000009,895,1,1446220097289,1446220097847,939,426,0,0,0,2,1,1,3,0003-00-0000-41.png,0005-00-0001-60.png
00000009,896,0,1446220099258,1446220099846,925,327,0,0,0,2,3,1,5,0003-00-0000-52.png,0002-00-0000-63.png
00000009,897,0,1446220102784,1446220103738,478,264,0,0,0,1,0,1,1,0005-00-0000-51.png,0001-00-0000-64.png
00000009,898,0,1446220106783,1446220106833,875,382,0,0,0,3,4,1,7,0002-00-0000-43.png,0004-00-0001-79.png
00000009,899,0,1446220110017,1446220110061,898,358,0,0,0,0,1,1,1,0001-00-0000-31.png,0005-00-0000-23.png
00000009,900,1,1446220113221,1446220113864,489,273,0,0,0,1,2,1,3,0005-00-0001-57.png,0003-00-0001-57.png
00000009,901,0,1446220115547,1446220116215,498,282,0,0,0,4,3,1,7,0004-00-0000-11.png,0002-00-0000-49.png
00000009,902,1,1446220119551,1446220119579,921,329,0,0,0,2,1,1,3,0003-00-0001-30.png,0005-00-0000-11.png
00000009,903,1,1446220120585,1446220120637,952,426,0,0,0,3,2,1,5,0002-00-0001-65.png,0003-00-0001-90.png
00000009,904,0,1446220121528,1446220121568,913,384,0,0,0,2,3,1,5,0003-00-0001-93.png,0002-00-0001-01.png
00000009,905,1,1446220124599,1446220125673,493,265,0,0,0,1,2,1,3,0005-00-0000-75.png,0003-00-0000-34.png
00000009,906,0,1446220126644,1446220126686,912,421,0,0,0,0,1,1,1,0001-00-0000-81.png,0005-00-0000-17.png
00000009,907,1,1446220129535,1446220130326,939,395,0,0,0,4,3,1,7,0004-00-0000-12.png,0002-00-0000-48.png
00000009,908,0,1446220131725,1446220132467,908,359,0,0,0,2,3,1,5,0003-00-0001-17.png,0002-00-0001-64.png
00000009,909,1,1446220135669,1446220136308,1043,315,0,0,0,1,0,1,1,0005-00-0000-92.png,0001-00-0001-71.png
00000009,910,1,1446220137196,1446220137236,904,467,0,0,0,3,2,1,5,0002-00-0000-21.png,0003-00-0001-09.png
00000009,911,0,1446220138062,1446220138153,908,462,0,0,0,3,4,1,7,0002-00-0000-71.png,0004-00-0000-22.png
00000009,912,1,1446220141222,1446220141824,939,384,0,0,0,2,1,1,3,0003-00-0000-58.png,0005-00-0000-42.png
00000009,913,0,1446220143261,1446220143473,964,465,0,0,0,1,2,1,3,0005-00-0001-06.png,0003-00-0001-41.png
00000009,914,1,1446220146319,1446220146783,422,365,0,0,0,0,1,1,1,0001-00-0000-37.png,0005-00-0001-74.png
00000009,915,1,1446220147661,1446220147693,884,371,0,0,0,3,2,1,5,0002-00-0001-79.png,0003-00-0001-65.png
00000009,916,0,1446220149213,1446220149413,946,463,0,0,0,2,3,1,5,0003-00-0001-31.png,0002-00-0001-84.png
00000009,917,1,1446220152594,1446220153195,1094,304,0,0,0,2,1,1,3,0003-00-0000-05.png,0005-00-0001-72.png
00000009,918,1,1446220154490,1446220155196,928,334,0,0,0,4,3,1,7,0004-00-0001-35.png,0002-00-0000-61.png
00000009,919,0,1446220156089,1446220156974,968,331,0,0,0,3,4,1,7,0002-00-0001-05.png,0004-00-0001-65.png
00000009,920,1,1446220159856,1446220160742,939,348,0,0,0,1,0,1,1,0005-00-0000-04.png,0001-00-0000-94.png
00000009,921,1,1446220162134,1446220163135,1092,306,0,0,0,2,1,1,3,0003-00-0001-97.png,0005-00-0000-04.png
00000009,922,1,1446220164077,1446220164140,913,422,0,0,0,3,2,1,5,0002-00-0000-83.png,0003-00-0001-00.png
00000009,923,0,1446220165184,1446220165252,933,469,0,0,0,3,4,1,7,0002-00-0000-91.png,0004-00-0000-48.png
00000009,924,1,1446220168244,1446220168789,945,401,0,0,0,4,3,1,7,0004-00-0001-11.png,0002-00-0000-68.png
00000009,925,0,1446220169665,1446220169685,863,461,0,0,0,0,1,1,1,0001-00-0000-83.png,0005-00-0001-71.png
00000009,926,0,1446220172592,1446220173241,1096,308,0,0,0,2,3,1,5,0003-00-0001-34.png,0002-00-0000-16.png
00000009,927,0,1446220176163,1446220176636,382,358,0,0,0,1,0,1,1,0005-00-0000-40.png,0001-00-0001-95.png
00000009,928,1,1446220180158,1446220180949,506,258,0,0,0,1,2,1,3,0005-00-0000-18.png,0003-00-0001-55.png
00000009,929,1,1446220182365,1446220183336,913,397,0,0,0,4,3,1,7,0004-00-0001-86.png,0002-00-0001-47.png
00000009,930,0,1446220184268,1446220184316,917,408,0,0,0,0,1,1,1,0001-00-0000-98.png,0005-00-0001-26.png
00000009,931,0,1446220187154,1446220188130,458,249,0,0,0,3,2,1,5,0002-00-0000-69.png,0003-00-0001-37.png
00000009,932,0,1446220191316,1446220192126,949,406,0,0,0,2,3,1,5,0003-00-0000-88.png,0002-00-0001-33.png
00000009,933,0,1446220195184,1446220195237,888,358,0,0,0,3,4,1,7,0002-00-0000-23.png,0004-00-0001-19.png
00000009,934,1,1446220198354,1446220198410,910,359,0,0,0,1,0,1,1,0005-00-0000-27.png,0001-00-0001-83.png
00000009,935,1,1446220199357,1446220199429,860,443,0,0,0,2,1,1,3,0003-00-0001-82.png,0005-00-0000-62.png
00000009,936,0,1446220200321,1446220200396,894,414,0,0,0,1,2,1,3,0005-00-0001-49.png,0003-00-0001-32.png
00000009,937,0,1446220203521,1446220204155,1092,318,0,0,0,3,4,1,7,0002-00-0001-57.png,0004-00-0000-81.png
00000009,938,1,1446220207375,1446220207913,950,322,0,0,0,1,0,1,1,0005-00-0001-61.png,0001-00-0000-39.png
00000009,939,1,1446220209820,1446220210643,365,362,0,0,0,1,2,1,3,0005-00-0001-45.png,0003-00-0001-41.png
00000009,940,1,1446220211633,1446220211690,922,428,0,0,0,2,1,1,3,0003-00-0001-23.png,0005-00-0001-60.png
00000009,941,0,1446220212773,1446220212841,929,446,0,0,0,0,1,1,1,0001-00-0000-57.png,0005-00-0000-24.png
00000009,942,1,1446220216430,1446220216745,901,313,0,0,0,3,2,1,5,0002-00-0001-37.png,0003-00-0000-46.png
00000009,943,1,1446220217698,1446220217734,893,406,0,0,0,4,3,1,7,0004-00-0001-96.png,0002-00-0000-15.png
00000009,944,0,1446220218655,1446220218711,925,431,0,0,0,2,3,1,5,0003-00-0000-80.png,0002-00-0000-92.png
00000009,945,0,1446220221772,1446220222050,949,298,0,0,0,3,4,1,7,0002-00-0001-89.png,0004-00-0001-46.png
00000009,946,1,1446220225063,1446220225635,485,271,0,0,0,0,1,1,1,0001-00-0001-03.png,0005-00-0000-74.png
00000009,947,0,1446220226557,1446220226705,939,474,0,0,0,2,3,1,5,0003-00-0001-97.png,0002-00-0001-72.png
00000009,948,1,1446220229552,1446220230085,376,371,0,0,0,1,2,1,3,0005-00-0000-30.png,0003-00-0000-50.png
00000009,949,1,1446220230993,1446220231057,895,416,0,0,0,1,0,1,1,0005-00-0000-87.png,0001-00-0001-87.png
00000009,950,1,1446220231930,1446220231976,876,393,0,0,0,2,1,1,3,0003-00-0000-80.png,0005-00-0000-94.png
