subject_id,trial,correct_response,stim_time,response_time,x_coord,y_coord,trial_timeout,timeout_time,interTrial_timeout,left_rank,right_rank,distance,joint_rank,left_image,right_image
00000009,1,0,1446565844583,1446565845237,1044,278,0,0,0,2,3,1,5,0003-00-0000-54.png,0002-00-0000-30.png
00000009,2,1,1446565848449,1446565849127,1038,317,0,0,0,2,1,1,3,0003-00-0001-39.png,0005-00-0000-92.png
00000009,3,0,1446565850129,1446565850486,939,436,0,0,0,1,2,1,3,0005-00-0000-85.png,0003-00-0000-42.png
00000009,4,1,1446565853587,1446565854312,501,226,0,0,0,3,4,1,7,0002-00-0001-27.png,0004-00-0001-19.png
00000009,5,1,1446565855276,1446565855312,893,388,0,0,0,3,2,1,5,0002-00-0001-39.png,0003-00-0001-42.png
00000009,6,0,1446565856348,1446565856404,893,427,0,0,0,0,1,1,1,0001-00-0001-98.png,0005-00-0001-89.png
00000009,7,1,1446565859678,1446565860166,1062,306,0,0,0,4,3,1,7,0004-00-0001-32.png,0002-00-0001-27.png
00000009,8,0,1446565861492,1446565862196,440,258,0,0,0,1,0,1,1,0005-00-0000-71.png,0001-00-0000-14.png
00000009,9,0,1446565865048,1446565865080,890,334,0,0,0,0,1,1,1,0001-00-0001-55.png,0005-00-0001-51.png
00000009,10,0,1446565868657,1446565869248,341,422,0,0,0,1,0,1,1,0005-00-0000-16.png,0001-00-0001-80.png
00000009,11,0,1446565872171,1446565872778,382,378,0,0,0,3,2,1,5,0002-00-0001-88.png,0003-00-0001-92.png
00000009,12,1,1446565875778,1446565875842,862,282,0,0,0,4,3,1,7,0004-00-0001-33.png,0002-00-0000-09.png
00000009,13,0,1446565876872,1446565876928,862,397,0,0,0,2,3,1,5,0003-00-0000-80.png,0002-00-0001-87.png
00000009,14,1,1446565880229,1446565880233,860,313,0,0,0,2,1,1,3,0003-00-0001-25.png,0005-00-0001-69.png
00000009,15,0,1446565881219,1446565881271,932,391,0,0,0,1,2,1,3,0005-00-0001-29.png,0003-00-0000-63.png
00000009,16,0,1446565884240,1446565884965,913,393,0,0,0,3,4,1,7,0002-00-0000-50.png,0004-00-0001-46.png
00000009,17,1,1446565888448,1446565888975,1014,300,0,0,0,2,1,1,3,0003-00-0001-98.png,0005-00-0000-34.png
00000009,18,0,1446565889837,1446565889905,865,408,0,0,0,2,3,1,5,0003-00-0000-09.png,0002-00-0001-26.png
00000009,19,1,1446565893042,1446565893646,1066,300,0,0,0,4,3,1,7,0004-00-0001-72.png,0002-00-0001-04.png
00000009,20,1,1446565894541,1446565895407,462,228,0,0,0,1,2,1,3,0005-00-0001-71.png,0003-00-0001-08.png
00000009,21,0,1446565896374,1446565896434,924,363,0,0,0,3,4,1,7,0002-00-0000-03.png,0004-00-0000-18.png
00000009,22,1,1446565899589,1446565900174,410,399,0,0,0,0,1,1,1,0001-00-0000-39.png,0005-00-0000-76.png
00000009,23,0,1446565901065,1446565901785,346,351,0,0,0,3,2,1,5,0002-00-0000-85.png,0003-00-0000-38.png
00000009,24,0,1446565904938,1446565905542,469,267,0,0,0,1,0,1,1,0005-00-0000-00.png,0001-00-0001-17.png
00000009,25,1,1446565908548,1446565909112,461,251,0,0,0,3,4,1,7,0002-00-0000-56.png,0004-00-0001-60.png
00000009,26,0,1446565910014,1446565910795,376,360,0,0,0,3,2,1,5,0002-00-0001-28.png,0003-00-0001-87.png
00000009,27,1,1446565913784,1446565914483,368,374,0,0,0,1,2,1,3,0005-00-0001-47.png,0003-00-0001-79.png
00000009,28,0,1446565915364,1446565916316,468,219,0,0,0,4,3,1,7,0004-00-0000-29.png,0002-00-0000-53.png
00000009,29,0,1446565920568,1446565921125,906,313,0,0,0,0,1,1,1,0001-00-0001-88.png,0005-00-0000-76.png
00000009,30,1,1446565924273,1446565924786,1040,294,0,0,0,2,1,1,3,0003-00-0001-80.png,0005-00-0000-89.png
00000009,31,1,1446565925629,1446565926339,1088,296,0,0,0,1,0,1,1,0005-00-0001-02.png,0001-00-0001-99.png
00000009,32,0,1446565927245,1446565927273,905,375,0,0,0,2,3,1,5,0003-00-0000-10.png,0002-00-0000-24.png
00000009,33,1,1446565930356,1446565930905,910,372,0,0,0,4,3,1,7,0004-00-0001-04.png,0002-00-0001-84.png
00000009,34,1,1446565931847,1446565932609,942,354,0,0,0,2,1,1,3,0003-00-0000-51.png,0005-00-0000-08.png
00000009,35,0,1446565933535,1446565933599,897,400,0,0,0,0,1,1,1,0001-00-0001-82.png,0005-00-0001-50.png
00000009,36,1,1446565936733,1446565937270,939,422,0,0,0,1,0,1,1,0005-00-0001-58.png,0001-00-0000-12.png
00000009,37,0,1446565938123,1446565938893,928,326,0,0,0,2,3,1,5,0003-00-0001-80.png,0002-00-0000-64.png
00000009,38,1,1446565941842,1446565941870,885,350,0,0,0,3,2,1,5,0002-00-0001-21.png,0003-00-0001-19.png
00000009,39,0,1446565942865,1446565943485,957,361,0,0,0,3,4,1,7,0002-00-0000-32.png,0004-00-0000-50.png
00000009,40,0,1446565946525,1446565946687,862,436,0,0,0,1,2,1,3,0005-00-0000-34.png,0003-00-0000-24.png
00000009,41,1,1446565949543,1446565950144,374,366,0,0,0,1,2,1,3,0005-00-0001-50.png,0003-00-0000-64.png
00000009,42,1,1446565951033,1446565951124,892,431,0,0,0,3,2,1,5,0002-00-0001-17.png,0003-00-0000-59.png
00000009,43,1,1446565952071,1446565953002,913,341,0,0,0,4,3,1,7,0004-00-0001-07.png,0002-00-0000-32.png
00000009,44,1,1446565953896,1446565953956,939,388,0,0,0,2,1,1,3,0003-00-0001-00.png,0005-00-0000-00.png
00000009,45,1,1446565955087,1446565955187,936,453,0,0,0,1,0,1,1,0005-00-0001-45.png,0001-00-0000-30.png
00000009,46,0,1446565956326,1446565956445,923,438,0,0,0,0,1,1,1,0001-00-0001-26.png,0005-00-0001-41.png
00000009,47,0,1446565959564,1446565959600,884,317,0,0,0,3,4,1,7,0002-00-0000-78.png,0004-00-0001-87.png
00000009,48,0,1446565962434,1446565962949,1046,277,0,0,0,2,3,1,5,0003-00-0000-35.png,0002-00-0001-33.png
00000009,49,1,1446565966082,1446565966619,364,394,0,0,0,1,2,1,3,0005-00-0000-98.png,0003-00-0001-17.png
00000009,50,1,1446565967449,1446565968354,913,394,0,0,0,2,1,1,3,0003-00-0000-70.png,0005-00-0001-01.png
00000009,51,1,1446565969269,1446565969380,990,384,0,0,0,4,3,1,7,0004-00-0000-16.png,0002-00-0000-09.png
00000009,52,0,1446565970348,1446565971247,933,296,0,0,0,2,3,1,5,0003-00-0001-72.png,0002-00-0001-43.png
00000009,53,0,1446565974412,1446565974605,913,384,0,0,0,0,1,1,1,0001-00-0000-78.png,0005-00-0000-76.png
00000009,54,1,1446565977481,1446565978029,367,390,0,0,0,3,4,1,7,0002-00-0000-65.png,0004-00-0000-35.png
00000009,55,0,1446565978883,1446565979557,482,256,0,0,0,3,2,1,5,0002-00-0000-30.png,0003-00-0001-77.png
00000009,56,1,1446565982695,1446565983354,935,351,0,0,0,1,0,1,1,0005-00-0001-94.png,0001-00-0001-47.png
00000009,57,1,1446565984678,1446565985380,479,266,0,0,0,3,4,1,7,0002-00-0001-91.png,0004-00-0001-90.png
00000009,58,1,1446565986265,1446565986301,900,390,0,0,0,1,0,1,1,0005-00-0000-50.png,0001-00-0001-24.png
00000009,59,1,1446565987367,1446565987427,932,391,0,0,0,4,3,1,7,0004-00-0000-77.png,0002-00-0001-14.png
00000009,60,0,1446565988518,1446565988545,900,410,0,0,0,2,3,1,5,0003-00-0001-01.png,0002-00-0000-52.png
00000009,61,0,1446566000088,1446566000750,898,410,0,0,0,1,2,1,3,0005-00-0001-76.png,0003-00-0001-77.png
00000009,62,0,1446566004213,1446566004944,1016,279,0,0,0,0,1,1,1,0001-00-0000-06.png,0005-00-0001-07.png
00000009,63,1,1446566007891,1446566007900,888,371,0,0,0,3,2,1,5,0002-00-0001-02.png,0003-00-0000-20.png
00000009,64,1,1446566008783,1446566008859,888,395,0,0,0,2,1,1,3,0003-00-0001-82.png,0005-00-0001-41.png
00000009,65,1,1446566009719,1446566010050,990,459,0,0,0,4,3,1,7,0004-00-0000-81.png,0002-00-0001-49.png
00000009,66,0,1446566011092,1446566011115,891,391,0,0,0,3,4,1,7,0002-00-0001-20.png,0004-00-0000-44.png
00000009,67,0,1446566014827,1446566015027,862,306,0,0,0,2,3,1,5,0003-00-0000-54.png,0002-00-0000-08.png
00000009,68,1,1446566018265,1446566018888,481,243,0,0,0,1,2,1,3,0005-00-0000-47.png,0003-00-0000-76.png
00000009,69,1,1446566019735,1446566020743,892,325,0,0,0,2,1,1,3,0003-00-0000-85.png,0005-00-0000-19.png
00000009,70,1,1446566021571,1446566021623,873,389,0,0,0,1,0,1,1,0005-00-0000-61.png,0001-00-0001-16.png
00000009,71,1,1446566022539,1446566022638,888,420,0,0,0,3,2,1,5,0002-00-0000-57.png,0003-00-0001-01.png
00000009,72,0,1446566023602,1446566023666,862,400,0,0,0,0,1,1,1,0001-00-0001-59.png,0005-00-0001-99.png
00000009,73,1,1446566026659,1446566026816,862,384,0,0,0,4,3,1,7,0004-00-0001-45.png,0002-00-0000-92.png
00000009,74,0,1446566027798,1446566028738,1020,284,0,0,0,2,3,1,5,0003-00-0001-20.png,0002-00-0001-33.png
00000009,75,1,1446566031797,1446566032452,944,386,0,0,0,1,0,1,1,0005-00-0000-40.png,0001-00-0000-83.png
00000009,76,1,1446566033747,1446566034362,463,298,0,0,0,0,1,1,1,0001-00-0000-69.png,0005-00-0001-10.png
00000009,77,1,1446566035933,1446566036496,960,313,0,0,0,2,1,1,3,0003-00-0000-58.png,0005-00-0000-93.png
00000009,78,0,1446566037312,1446566037340,867,381,0,0,0,1,2,1,3,0005-00-0000-50.png,0003-00-0000-30.png
00000009,79,0,1446566040675,1446566041190,457,260,0,0,0,3,2,1,5,0002-00-0000-21.png,0003-00-0000-60.png
00000009,80,0,1446566044738,1446566045202,1036,284,0,0,0,3,4,1,7,0002-00-0000-75.png,0004-00-0001-07.png
00000009,81,0,1446566048128,1446566048220,887,276,0,0,0,0,1,1,1,0001-00-0001-72.png,0005-00-0001-08.png
00000009,82,0,1446566051426,1446566051973,1072,282,0,0,0,2,3,1,5,0003-00-0000-21.png,0002-00-0001-24.png
00000009,83,1,1446566057081,1446566057109,876,306,0,0,0,3,2,1,5,0002-00-0001-10.png,0003-00-0001-89.png
00000009,84,1,1446566058096,1446566058789,478,270,0,0,0,3,4,1,7,0002-00-0001-79.png,0004-00-0000-31.png
00000009,85,1,1446566059611,1446566060454,929,349,0,0,0,2,1,1,3,0003-00-0001-27.png,0005-00-0001-58.png
00000009,86,0,1446566061365,1446566061449,935,396,0,0,0,1,2,1,3,0005-00-0001-32.png,0003-00-0001-95.png
00000009,87,1,1446566064582,1446566064602,858,319,0,0,0,1,0,1,1,0005-00-0000-96.png,0001-00-0001-86.png
00000009,88,1,1446566065954,1446566066582,1017,284,0,0,0,4,3,1,7,0004-00-0000-78.png,0002-00-0001-32.png
00000009,89,1,1446566067910,1446566068658,1041,263,0,0,0,4,3,1,7,0004-00-0000-72.png,0002-00-0001-04.png
00000009,90,1,1446566069930,1446566070845,500,288,0,0,0,2,3,1,5,0003-00-0000-62.png,0002-00-0000-92.png
00000009,91,0,1446566071708,1446566072344,477,284,0,0,0,3,2,1,5,0002-00-0000-98.png,0003-00-0000-84.png
00000009,92,1,1446566075954,1446566076476,470,272,0,0,0,1,2,1,3,0005-00-0000-01.png,0003-00-0000-13.png
00000009,93,0,1446566077732,1446566078356,1057,298,0,0,0,3,4,1,7,0002-00-0000-69.png,0004-00-0000-84.png
00000009,94,1,1446566081994,1446566082488,1018,310,0,0,0,2,1,1,3,0003-00-0001-41.png,0005-00-0001-33.png
00000009,95,0,1446566083641,1446566084356,419,415,0,0,0,1,0,1,1,0005-00-0001-65.png,0001-00-0000-79.png
00000009,96,1,1446566090878,1446566091312,431,294,0,0,0,0,1,1,1,0001-00-0000-80.png,0005-00-0000-63.png
00000009,97,0,1446566092241,1446566092904,478,290,0,0,0,4,3,1,7,0004-00-0001-14.png,0002-00-0000-98.png
00000009,98,0,1446566096045,1446566096073,917,269,0,0,0,0,1,1,1,0001-00-0001-25.png,0005-00-0000-86.png
00000009,99,1,1446566098970,1446566099652,1105,306,0,0,0,1,0,1,1,0005-00-0001-12.png,0001-00-0000-99.png
00000009,100,1,1446566100482,1446566101146,445,277,0,0,0,1,2,1,3,0005-00-0000-51.png,0003-00-0000-79.png
00000009,101,1,1446566102037,1446566102073,896,358,0,0,0,3,2,1,5,0002-00-0000-77.png,0003-00-0000-52.png
00000009,102,0,1446566103133,1446566103181,913,384,0,0,0,2,3,1,5,0003-00-0001-60.png,0002-00-0001-90.png
00000009,103,0,1446566106332,1446566106352,910,301,0,0,0,3,4,1,7,0002-00-0001-47.png,0004-00-0000-90.png
00000009,104,1,1446566109347,1446566109389,867,375,0,0,0,2,1,1,3,0003-00-0001-59.png,0005-00-0000-82.png
00000009,105,0,1446566110295,1446566111016,940,343,0,0,0,2,3,1,5,0003-00-0000-99.png,0002-00-0001-68.png
00000009,106,0,1446566114105,1446566114665,439,286,0,0,0,4,3,1,7,0004-00-0001-23.png,0002-00-0000-36.png
00000009,107,1,1446566117790,1446566118006,876,309,0,0,0,3,2,1,5,0002-00-0001-35.png,0003-00-0001-91.png
00000009,108,1,1446566118848,1446566119558,1058,311,0,0,0,2,1,1,3,0003-00-0000-13.png,0005-00-0000-56.png
00000009,109,0,1446566120403,1446566120443,933,339,0,0,0,1,2,1,3,0005-00-0000-41.png,0003-00-0001-28.png
00000009,110,0,1446566123304,1446566123344,888,358,0,0,0,3,4,1,7,0002-00-0000-25.png,0004-00-0000-24.png
00000009,111,1,1446566126359,1446566126877,463,293,0,0,0,0,1,1,1,0001-00-0000-38.png,0005-00-0000-20.png
00000009,112,1,1446566128057,1446566128759,930,356,0,0,0,1,0,1,1,0005-00-0000-56.png,0001-00-0001-99.png
00000009,113,1,1446566130052,1446566130747,1041,292,0,0,0,4,3,1,7,0004-00-0000-77.png,0002-00-0001-27.png
00000009,114,0,1446566132190,1446566132887,488,238,0,0,0,3,2,1,5,0002-00-0000-00.png,0003-00-0000-65.png
00000009,115,1,1446566136354,1446566136798,969,326,0,0,0,2,1,1,3,0003-00-0000-29.png,0005-00-0000-93.png
00000009,116,1,1446566137641,1446566138259,486,281,0,0,0,1,2,1,3,0005-00-0000-94.png,0003-00-0000-85.png
00000009,117,1,1446566139108,1446566139954,921,351,0,0,0,1,0,1,1,0005-00-0000-17.png,0001-00-0000-43.png
00000009,118,0,1446566140864,1446566140892,897,407,0,0,0,0,1,1,1,0001-00-0001-28.png,0005-00-0001-03.png
00000009,119,0,1446566144085,1446566144268,913,384,0,0,0,3,4,1,7,0002-00-0000-03.png,0004-00-0000-06.png
00000009,120,0,1446566147286,1446566147872,1118,296,0,0,0,2,3,1,5,0003-00-0000-94.png,0002-00-0001-61.png
00000009,121,0,1446566150934,1446566151439,473,269,0,0,0,3,2,1,5,0002-00-0001-30.png,0003-00-0000-84.png
00000009,122,1,1446566154550,1446566155194,488,289,0,0,0,3,4,1,7,0002-00-0000-61.png,0004-00-0001-02.png
00000009,123,1,1446566156064,1446566157094,913,395,0,0,0,4,3,1,7,0004-00-0001-84.png,0002-00-0000-39.png
00000009,124,0,1446566157978,1446566158026,889,388,0,0,0,2,3,1,5,0003-00-0001-91.png,0002-00-0001-48.png
00000009,125,0,1446566160909,1446566161505,939,341,0,0,0,0,1,1,1,0001-00-0001-56.png,0005-00-0001-44.png
00000009,126,1,1446566164677,1446566165290,974,332,0,0,0,2,1,1,3,0003-00-0001-57.png,0005-00-0001-90.png
00000009,127,0,1446566166478,1446566167112,469,232,0,0,0,1,0,1,1,0005-00-0000-89.png,0001-00-0000-55.png
00000009,128,1,1446566169982,1446566170552,462,277,0,0,0,1,2,1,3,0005-00-0001-75.png,0003-00-0000-18.png
00000009,129,0,1446566171821,1446566172993,440,252,0,0,0,3,2,1,5,0002-00-0000-75.png,0003-00-0000-34.png
00000009,130,1,1446566175967,1446566176003,879,336,0,0,0,4,3,1,7,0004-00-0000-30.png,0002-00-0000-27.png
00000009,131,1,1446566176919,1446566177680,468,264,0,0,0,3,4,1,7,0002-00-0000-39.png,0004-00-0000-75.png
00000009,132,1,1446566178518,1446566178570,861,400,0,0,0,1,0,1,1,0005-00-0001-25.png,0001-00-0000-00.png
00000009,133,0,1446566179584,1446566179732,913,421,0,0,0,0,1,1,1,0001-00-0000-46.png,0005-00-0001-54.png
00000009,134,0,1446566182624,1446566182660,951,354,0,0,0,1,2,1,3,0005-00-0000-45.png,0003-00-0000-56.png
00000009,135,0,1446566185647,1446566186321,922,389,0,0,0,2,3,1,5,0003-00-0000-12.png,0002-00-0001-53.png
00000009,136,1,1446566189463,1446566189746,986,328,0,0,0,2,1,1,3,0003-00-0001-99.png,0005-00-0001-45.png
00000009,137,1,1446566190623,1446566191457,397,352,0,0,0,1,2,1,3,0005-00-0001-90.png,0003-00-0000-93.png
00000009,138,1,1446566192374,1446566192390,888,350,0,0,0,3,2,1,5,0002-00-0001-27.png,0003-00-0001-01.png
00000009,139,1,1446566193518,1446566193622,939,384,0,0,0,1,0,1,1,0005-00-0001-17.png,0001-00-0001-64.png
00000009,140,0,1446566194610,1446566194646,914,382,0,0,0,3,4,1,7,0002-00-0001-25.png,0004-00-0001-39.png
00000009,141,0,1446566197701,1446566198154,1036,257,0,0,0,2,3,1,5,0003-00-0000-46.png,0002-00-0000-32.png
00000009,142,1,1446566201298,1446566202060,982,422,0,0,0,4,3,1,7,0004-00-0001-54.png,0002-00-0001-00.png
00000009,143,0,1446566203317,1446566204413,913,355,0,0,0,0,1,1,1,0001-00-0001-17.png,0005-00-0000-07.png
00000009,144,1,1446566207658,1446566208260,1090,275,0,0,0,2,1,1,3,0003-00-0001-87.png,0005-00-0000-98.png
00000009,145,0,1446566209116,1446566209913,472,244,0,0,0,1,0,1,1,0005-00-0000-28.png,0001-00-0001-94.png
00000009,146,0,1446566212805,1446566212861,892,336,0,0,0,3,4,1,7,0002-00-0001-69.png,0004-00-0000-68.png
00000009,147,1,1446566215958,1446566216529,939,394,0,0,0,4,3,1,7,0004-00-0000-11.png,0002-00-0001-80.png
00000009,148,1,1446566217755,1446566218462,962,305,0,0,0,2,1,1,3,0003-00-0001-82.png,0005-00-0001-54.png
00000009,149,0,1446566219894,1446566220584,1041,268,0,0,0,2,3,1,5,0003-00-0001-55.png,0002-00-0001-73.png
00000009,150,1,1446566223642,1446566224036,372,377,0,0,0,1,2,1,3,0005-00-0000-62.png,0003-00-0000-18.png
00000009,151,1,1446566224877,1446566225509,477,262,0,0,0,0,1,1,1,0001-00-0001-27.png,0005-00-0000-71.png
00000009,152,0,1446566226358,1446566227551,482,240,0,0,0,3,2,1,5,0002-00-0000-71.png,0003-00-0001-71.png
00000009,153,0,1446566230554,1446566231020,1043,275,0,0,0,2,3,1,5,0003-00-0001-24.png,0002-00-0000-30.png
00000009,154,0,1446566234163,1446566234620,385,376,0,0,0,3,2,1,5,0002-00-0001-87.png,0003-00-0001-49.png
00000009,155,1,1446566237670,1446566238315,964,398,0,0,0,4,3,1,7,0004-00-0001-44.png,0002-00-0001-20.png
00000009,156,0,1446566239187,1446566240129,1041,301,0,0,0,0,1,1,1,0001-00-0001-95.png,0005-00-0001-09.png
00000009,157,1,1446566243255,1446566243428,888,343,0,0,0,2,1,1,3,0003-00-0001-24.png,0005-00-0001-87.png
00000009,158,1,1446566244379,1446566245101,478,253,0,0,0,3,4,1,7,0002-00-0001-70.png,0004-00-0000-84.png
00000009,159,0,1446566246009,1446566246074,913,384,0,0,0,1,2,1,3,0005-00-0001-00.png,0003-00-0000-78.png
00000009,160,1,1446566248941,1446566249038,911,303,0,0,0,1,0,1,1,0005-00-0001-00.png,0001-00-0001-26.png
00000009,161,1,1446566249922,1446566250688,916,351,0,0,0,1,0,1,1,0005-00-0000-74.png,0001-00-0001-09.png
00000009,162,1,1446566251531,1446566251591,936,373,0,0,0,2,1,1,3,0003-00-0000-26.png,0005-00-0000-27.png
00000009,163,0,1446566252618,1446566252682,913,397,0,0,0,0,1,1,1,0001-00-0001-10.png,0005-00-0001-29.png
00000009,164,0,1446566255669,1446566256194,939,321,0,0,0,1,2,1,3,0005-00-0000-53.png,0003-00-0000-27.png
00000009,165,0,1446566259265,1446566259913,1050,288,0,0,0,3,4,1,7,0002-00-0000-71.png,0004-00-0001-95.png
00000009,166,0,1446566262814,1446566263836,362,376,0,0,0,3,2,1,5,0002-00-0001-38.png,0003-00-0001-14.png
00000009,167,1,1446566267178,1446566267831,939,423,0,0,0,4,3,1,7,0004-00-0001-39.png,0002-00-0000-48.png
00000009,168,0,1446566268685,1446566269393,1067,264,0,0,0,2,3,1,5,0003-00-0001-37.png,0002-00-0001-34.png
00000009,169,1,1446566272545,1446566273091,965,330,0,0,0,4,3,1,7,0004-00-0001-98.png,0002-00-0001-92.png
00000009,170,1,1446566274313,1446566275039,494,233,0,0,0,0,1,1,1,0001-00-0000-03.png,0005-00-0001-73.png
00000009,171,1,1446566275931,1446566275971,865,343,0,0,0,1,0,1,1,0005-00-0001-38.png,0001-00-0001-10.png
00000009,172,0,1446566277037,1446566277049,860,387,0,0,0,2,3,1,5,0003-00-0000-59.png,0002-00-0001-12.png
00000009,173,1,1446566280037,1446566281336,453,264,0,0,0,3,4,1,7,0002-00-0001-39.png,0004-00-0000-04.png
00000009,174,1,1446566282193,1446566282809,501,269,0,0,0,1,2,1,3,0005-00-0001-97.png,0003-00-0001-87.png
00000009,175,1,1446566283721,1446566283741,870,411,0,0,0,2,1,1,3,0003-00-0001-65.png,0005-00-0000-20.png
00000009,176,1,1446566284828,1446566284880,888,399,0,0,0,3,2,1,5,0002-00-0000-53.png,0003-00-0001-59.png
00000009,177,1,1446566285929,1446566285977,900,410,0,0,0,4,3,1,7,0004-00-0001-67.png,0002-00-0001-89.png
00000009,178,1,1446566287083,1446566287143,907,439,0,0,0,2,1,1,3,0003-00-0001-53.png,0005-00-0001-39.png
00000009,179,1,1446566288305,1446566288341,888,451,0,0,0,1,0,1,1,0005-00-0000-90.png,0001-00-0001-17.png
00000009,180,0,1446566289562,1446566289611,886,447,0,0,0,0,1,1,1,0001-00-0000-43.png,0005-00-0001-43.png
00000009,181,0,1446566292775,1446566293247,488,253,0,0,0,3,2,1,5,0002-00-0001-73.png,0003-00-0000-29.png
00000009,182,0,1446566296224,1446566296363,982,295,0,0,0,1,2,1,3,0005-00-0000-00.png,0003-00-0001-83.png
00000009,183,1,1446566299427,1446566300484,373,323,0,0,0,3,4,1,7,0002-00-0000-03.png,0004-00-0000-79.png
00000009,184,0,1446566301343,1446566302392,1034,294,0,0,0,2,3,1,5,0003-00-0000-19.png,0002-00-0000-12.png
00000009,185,1,1446566305516,1446566306066,941,329,0,0,0,2,1,1,3,0003-00-0000-92.png,0005-00-0000-99.png
00000009,186,1,1446566307377,1446566308123,964,426,0,0,0,4,3,1,7,0004-00-0001-47.png,0002-00-0000-93.png
00000009,187,0,1446566309601,1446566310392,942,347,0,0,0,0,1,1,1,0001-00-0000-92.png,0005-00-0000-18.png
00000009,188,1,1446566319165,1446566319761,335,380,0,0,0,3,4,1,7,0002-00-0000-83.png,0004-00-0000-08.png
00000009,189,1,1446566320725,1446566320754,896,358,0,0,0,3,2,1,5,0002-00-0000-25.png,0003-00-0001-26.png
00000009,190,1,1446566321760,1446566322073,1016,488,0,0,0,1,0,1,1,0005-00-0000-39.png,0001-00-0001-05.png
00000009,191,0,1446566323050,1446566323118,951,370,0,0,0,1,2,1,3,0005-00-0001-61.png,0003-00-0001-81.png
00000009,192,0,1446566326278,1446566326506,934,321,0,0,0,2,3,1,5,0003-00-0000-98.png,0002-00-0001-40.png
00000009,193,1,1446566329640,1446566330236,470,268,0,0,0,1,2,1,3,0005-00-0001-11.png,0003-00-0000-76.png
00000009,194,0,1446566331554,1446566332209,488,229,0,0,0,3,2,1,5,0002-00-0000-50.png,0003-00-0000-27.png
00000009,195,1,1446566335136,1446566335192,890,370,0,0,0,4,3,1,7,0004-00-0000-39.png,0002-00-0000-96.png
00000009,196,1,1446566336068,1446566337009,1023,283,0,0,0,2,1,1,3,0003-00-0000-17.png,0005-00-0000-47.png
00000009,197,0,1446566337856,1446566337909,942,395,0,0,0,2,3,1,5,0003-00-0001-62.png,0002-00-0000-01.png
00000009,198,0,1446566340989,1446566341562,1118,289,0,0,0,0,1,1,1,0001-00-0000-63.png,0005-00-0001-53.png
00000009,199,0,1446566344515,1446566345240,939,395,0,0,0,3,4,1,7,0002-00-0000-11.png,0004-00-0001-27.png
00000009,200,0,1446566348344,1446566348797,405,366,0,0,0,1,0,1,1,0005-00-0000-98.png,0001-00-0000-10.png
00000009,201,0,1446566351922,1446566352463,481,245,0,0,0,3,2,1,5,0002-00-0000-70.png,0003-00-0000-24.png
00000009,202,1,1446566355554,1446566356116,1043,304,0,0,0,2,1,1,3,0003-00-0001-05.png,0005-00-0001-81.png
00000009,203,1,1446566356966,1446566357978,939,370,0,0,0,1,0,1,1,0005-00-0000-89.png,0001-00-0000-57.png
00000009,204,0,1446566358879,1446566358915,950,400,0,0,0,3,4,1,7,0002-00-0001-68.png,0004-00-0000-10.png
00000009,205,1,1446566361974,1446566362485,480,275,0,0,0,1,2,1,3,0005-00-0001-40.png,0003-00-0001-04.png
00000009,206,0,1446566363676,1446566364381,945,340,0,0,0,0,1,1,1,0001-00-0001-37.png,0005-00-0001-40.png
00000009,207,1,1446566367493,1446566368154,972,324,0,0,0,4,3,1,7,0004-00-0000-85.png,0002-00-0001-12.png
00000009,208,0,1446566368992,1446566369663,920,318,0,0,0,2,3,1,5,0003-00-0001-78.png,0002-00-0001-83.png
00000009,209,0,1446566372841,1446566372877,921,318,0,0,0,0,1,1,1,0001-00-0001-01.png,0005-00-0001-53.png
00000009,210,0,1446566376000,1446566376060,936,306,0,0,0,2,3,1,5,0003-00-0001-66.png,0002-00-0000-76.png
00000009,211,0,1446566379193,1446566379414,864,348,0,0,0,3,4,1,7,0002-00-0001-88.png,0004-00-0000-81.png
00000009,212,0,1446566382341,1446566382867,478,306,0,0,0,4,3,1,7,0004-00-0000-56.png,0002-00-0000-92.png
00000009,213,1,1446566386029,1446566386697,474,313,0,0,0,1,2,1,3,0005-00-0000-40.png,0003-00-0001-55.png
00000009,214,0,1446566387579,1446566388273,480,232,0,0,0,3,2,1,5,0002-00-0000-39.png,0003-00-0000-58.png
00000009,215,1,1446566393862,1446566393908,903,314,0,0,0,2,1,1,3,0003-00-0000-76.png,0005-00-0000-50.png
00000009,216,1,1446566394803,1446566394910,888,410,0,0,0,1,0,1,1,0005-00-0001-51.png,0001-00-0001-04.png
00000009,217,0,1446566395916,1446566396024,913,410,0,0,0,3,4,1,7,0002-00-0001-62.png,0004-00-0001-70.png
00000009,218,1,1446566399208,1446566399244,875,279,0,0,0,3,2,1,5,0002-00-0001-55.png,0003-00-0000-48.png
00000009,219,1,1446566400139,1446566401109,939,384,0,0,0,2,1,1,3,0003-00-0001-52.png,0005-00-0001-88.png
00000009,220,0,1446566402524,1446566403131,472,271,0,0,0,1,0,1,1,0005-00-0000-22.png,0001-00-0000-72.png
00000009,221,0,1446566406301,1446566406329,935,299,0,0,0,0,1,1,1,0001-00-0000-56.png,0005-00-0001-87.png
00000009,222,0,1446566409255,1446566409886,1017,309,0,0,0,2,3,1,5,0003-00-0000-31.png,0002-00-0001-70.png
00000009,223,0,1446566412957,1446566413532,473,283,0,0,0,4,3,1,7,0004-00-0001-88.png,0002-00-0001-16.png
00000009,224,1,1446566416620,1446566417116,366,358,0,0,0,1,2,1,3,0005-00-0000-22.png,0003-00-0000-50.png
00000009,225,1,1446566417955,1446566418027,894,440,0,0,0,4,3,1,7,0004-00-0001-50.png,0002-00-0001-87.png
00000009,226,0,1446566419135,1446566420212,391,368,0,0,0,3,2,1,5,0002-00-0000-42.png,0003-00-0001-26.png
00000009,227,0,1446566423247,1446566423808,1104,296,0,0,0,2,3,1,5,0003-00-0001-93.png,0002-00-0001-23.png
00000009,228,1,1446566426895,1446566427447,389,382,0,0,0,0,1,1,1,0001-00-0000-09.png,0005-00-0000-89.png
00000009,229,1,1446566428317,1446566428365,896,400,0,0,0,2,1,1,3,0003-00-0001-34.png,0005-00-0000-91.png
00000009,230,1,1446566429258,1446566429526,905,465,0,0,0,1,0,1,1,0005-00-0001-82.png,0001-00-0000-41.png
00000009,231,0,1446566430721,1446566430867,910,463,0,0,0,1,2,1,3,0005-00-0000-29.png,0003-00-0000-68.png
00000009,232,1,1446566433899,1446566434407,406,384,0,0,0,3,4,1,7,0002-00-0000-23.png,0004-00-0000-37.png
00000009,233,1,1446566435259,1446566436030,485,256,0,0,0,0,1,1,1,0001-00-0000-29.png,0005-00-0001-11.png
00000009,234,1,1446566436897,1446566436951,859,426,0,0,0,4,3,1,7,0004-00-0001-71.png,0002-00-0000-16.png
00000009,235,1,1446566438034,1446566438074,861,428,0,0,0,2,1,1,3,0003-00-0001-11.png,0005-00-0001-14.png
00000009,236,1,1446566439268,1446566439339,867,421,0,0,0,1,0,1,1,0005-00-0001-08.png,0001-00-0001-75.png
00000009,237,1,1446566440591,1446566440628,862,457,0,0,0,3,2,1,5,0002-00-0001-15.png,0003-00-0000-59.png
00000009,238,0,1446566441872,1446566441924,862,453,0,0,0,1,2,1,3,0005-00-0000-59.png,0003-00-0000-16.png
00000009,239,0,1446566444758,1446566445334,939,399,0,0,0,2,3,1,5,0003-00-0000-51.png,0002-00-0001-23.png
00000009,240,0,1446566448443,1446566448587,873,368,0,0,0,3,4,1,7,0002-00-0001-65.png,0004-00-0001-67.png
00000009,241,0,1446566451710,1446566452153,373,400,0,0,0,3,2,1,5,0002-00-0001-40.png,0003-00-0001-63.png
00000009,242,0,1446566455069,1446566455125,901,384,0,0,0,3,4,1,7,0002-00-0001-94.png,0004-00-0000-71.png
00000009,243,0,1446566458228,1446566458756,1094,281,0,0,0,2,3,1,5,0003-00-0001-36.png,0002-00-0000-06.png
00000009,244,1,1446566461767,1446566462262,401,350,0,0,0,1,2,1,3,0005-00-0000-20.png,0003-00-0000-32.png
00000009,245,1,1446566463145,1446566464073,941,336,0,0,0,2,1,1,3,0003-00-0000-77.png,0005-00-0000-44.png
00000009,246,1,1446566464903,1446566464959,862,427,0,0,0,4,3,1,7,0004-00-0001-98.png,0002-00-0000-38.png
00000009,247,1,1446566465898,1446566467248,474,244,0,0,0,0,1,1,1,0001-00-0001-83.png,0005-00-0000-03.png
00000009,248,1,1446566468125,1446566469019,1016,290,0,0,0,1,0,1,1,0005-00-0000-59.png,0001-00-0001-26.png
00000009,249,0,1446566469882,1446566470855,465,238,0,0,0,4,3,1,7,0004-00-0000-72.png,0002-00-0000-98.png
00000009,250,1,1446566473878,1446566473914,939,373,0,0,0,3,2,1,5,0002-00-0000-83.png,0003-00-0001-16.png
00000009,251,0,1446566474771,1446566474846,872,436,0,0,0,3,4,1,7,0002-00-0001-92.png,0004-00-0000-46.png
00000009,252,0,1446566478003,1446566478602,1073,282,0,0,0,2,3,1,5,0003-00-0001-65.png,0002-00-0001-21.png
00000009,253,0,1446566481672,1446566481740,913,298,0,0,0,0,1,1,1,0001-00-0001-03.png,0005-00-0000-43.png
00000009,254,1,1446566484802,1446566485347,919,333,0,0,0,2,1,1,3,0003-00-0000-50.png,0005-00-0001-84.png
00000009,255,0,1446566486200,1446566487283,488,223,0,0,0,1,0,1,1,0005-00-0000-24.png,0001-00-0000-74.png
00000009,256,1,1446566490397,1446566490909,507,281,0,0,0,1,2,1,3,0005-00-0000-39.png,0003-00-0000-94.png
00000009,257,1,1446566491807,1446566491875,859,467,0,0,0,1,0,1,1,0005-00-0000-25.png,0001-00-0000-42.png
00000009,258,1,1446566492750,1446566493805,501,262,0,0,0,3,4,1,7,0002-00-0001-88.png,0004-00-0001-35.png
00000009,259,0,1446566494781,1446566495004,913,436,0,0,0,1,2,1,3,0005-00-0000-24.png,0003-00-0000-32.png
00000009,260,0,1446566498238,1446566498714,1045,257,0,0,0,0,1,1,1,0001-00-0001-53.png,0005-00-0000-68.png
00000009,261,0,1446566502570,1446566503132,392,368,0,0,0,3,2,1,5,0002-00-0000-34.png,0003-00-0000-37.png
00000009,262,0,1446566506791,1446566507356,453,253,0,0,0,4,3,1,7,0004-00-0000-75.png,0002-00-0001-26.png
00000009,263,0,1446566512907,1446566513387,1041,306,0,0,0,2,3,1,5,0003-00-0000-53.png,0002-00-0000-09.png
00000009,264,1,1446566517229,1446566517269,880,281,0,0,0,2,1,1,3,0003-00-0000-61.png,0005-00-0000-30.png
00000009,265,0,1446566518252,1446566519018,467,230,0,0,0,4,3,1,7,0004-00-0000-79.png,0002-00-0001-61.png
00000009,266,0,1446566521887,1446566522429,485,260,0,0,0,3,2,1,5,0002-00-0000-32.png,0003-00-0001-94.png
00000009,267,1,1446566525567,1446566525603,892,306,0,0,0,1,0,1,1,0005-00-0000-01.png,0001-00-0000-15.png
00000009,268,0,1446566526500,1446566527607,946,377,0,0,0,2,3,1,5,0003-00-0001-92.png,0002-00-0000-57.png
00000009,269,0,1446566530745,1446566530785,905,277,0,0,0,3,4,1,7,0002-00-0001-36.png,0004-00-0000-32.png
00000009,270,1,1446566533996,1446566534487,481,224,0,0,0,0,1,1,1,0001-00-0000-12.png,0005-00-0001-16.png
00000009,271,1,1446566535826,1446566536486,937,359,0,0,0,2,1,1,3,0003-00-0001-19.png,0005-00-0001-23.png
00000009,272,1,1446566537312,1446566538053,436,377,0,0,0,1,2,1,3,0005-00-0001-15.png,0003-00-0001-11.png
00000009,273,1,1446566538932,1446566539899,444,384,0,0,0,3,4,1,7,0002-00-0000-79.png,0004-00-0000-31.png
00000009,274,0,1446566540842,1446566540878,905,366,0,0,0,1,2,1,3,0005-00-0000-03.png,0003-00-0001-36.png
00000009,275,0,1446566548189,1446566548648,1036,305,0,0,0,2,3,1,5,0003-00-0001-04.png,0002-00-0000-66.png
00000009,276,1,1446566553838,1446566554196,906,304,0,0,0,1,0,1,1,0005-00-0001-05.png,0001-00-0000-93.png
00000009,277,1,1446566555119,1446566556009,898,385,0,0,0,4,3,1,7,0004-00-0000-60.png,0002-00-0000-41.png
00000009,278,1,1446566556900,1446566556944,897,426,0,0,0,2,1,1,3,0003-00-0000-20.png,0005-00-0000-33.png
00000009,279,1,1446566557892,1446566558616,368,390,0,0,0,0,1,1,1,0001-00-0000-38.png,0005-00-0000-79.png
00000009,280,1,1446566559500,1446566560668,1047,322,0,0,0,3,2,1,5,0002-00-0000-52.png,0003-00-0000-85.png
00000009,281,0,1446566561659,1446566561719,892,398,0,0,0,1,2,1,3,0005-00-0001-39.png,0003-00-0000-62.png
00000009,282,0,1446566564577,1446566564617,926,345,0,0,0,2,3,1,5,0003-00-0000-47.png,0002-00-0001-72.png
00000009,283,0,1446566567769,1446566568362,940,389,0,0,0,0,1,1,1,0001-00-0000-17.png,0005-00-0001-16.png
00000009,284,1,1446566571309,1446566571325,909,395,0,0,0,3,2,1,5,0002-00-0000-67.png,0003-00-0000-53.png
00000009,285,1,1446566572273,1446566573222,487,242,0,0,0,3,4,1,7,0002-00-0001-31.png,0004-00-0001-09.png
00000009,286,1,1446566574154,1446566574500,888,462,0,0,0,2,1,1,3,0003-00-0000-00.png,0005-00-0000-40.png
00000009,287,1,1446566575571,1446566576513,1041,237,0,0,0,4,3,1,7,0004-00-0001-64.png,0002-00-0000-30.png
00000009,288,1,1446566577386,1446566577462,888,384,0,0,0,1,0,1,1,0005-00-0001-89.png,0001-00-0000-80.png
00000009,289,1,1446566578503,1446566578621,862,421,0,0,0,4,3,1,7,0004-00-0001-25.png,0002-00-0000-29.png
00000009,290,1,1446566579788,1446566579895,879,431,0,0,0,3,2,1,5,0002-00-0000-81.png,0003-00-0000-72.png
00000009,291,0,1446566581065,1446566581169,872,462,0,0,0,0,1,1,1,0001-00-0000-35.png,0005-00-0001-43.png
00000009,292,1,1446566584201,1446566584681,487,268,0,0,0,1,2,1,3,0005-00-0000-98.png,0003-00-0001-30.png
00000009,293,1,1446566585567,1446566586433,1037,301,0,0,0,1,0,1,1,0005-00-0001-22.png,0001-00-0000-60.png
00000009,294,1,1446566587763,1446566587847,886,414,0,0,0,2,1,1,3,0003-00-0001-20.png,0005-00-0001-25.png
00000009,295,0,1446566588941,1446566589025,888,436,0,0,0,2,3,1,5,0003-00-0000-73.png,0002-00-0000-84.png
00000009,296,1,1446566592067,1446566592552,504,252,0,0,0,3,4,1,7,0002-00-0001-89.png,0004-00-0001-92.png
00000009,297,0,1446566593406,1446566594690,1049,273,0,0,0,2,3,1,5,0003-00-0000-44.png,0002-00-0001-48.png
00000009,298,0,1446566597901,1446566598448,506,255,0,0,0,3,2,1,5,0002-00-0000-44.png,0003-00-0001-00.png
00000009,299,0,1446566601465,1446566601541,978,333,0,0,0,1,2,1,3,0005-00-0001-25.png,0003-00-0000-38.png
00000009,300,1,1446566604468,1446566605026,911,370,0,0,0,2,1,1,3,0003-00-0000-06.png,0005-00-0000-93.png
00000009,301,1,1446566605909,1446566606775,392,347,0,0,0,3,4,1,7,0002-00-0000-55.png,0004-00-0001-32.png
00000009,302,1,1446566607691,1446566607747,902,393,0,0,0,4,3,1,7,0004-00-0001-09.png,0002-00-0000-97.png
00000009,303,0,1446566608819,1446566608960,888,420,0,0,0,0,1,1,1,0001-00-0000-29.png,0005-00-0001-47.png
00000009,304,0,1446566612141,1446566612823,497,257,0,0,0,1,0,1,1,0005-00-0000-81.png,0001-00-0001-81.png
00000009,305,1,1446566616007,1446566616035,913,317,0,0,0,3,2,1,5,0002-00-0000-40.png,0003-00-0001-41.png
00000009,306,1,1446566616941,1446566617744,472,227,0,0,0,0,1,1,1,0001-00-0001-26.png,0005-00-0001-16.png
00000009,307,0,1446566618638,1446566619645,916,328,0,0,0,2,3,1,5,0003-00-0001-96.png,0002-00-0000-76.png
00000009,308,0,1446566622623,1446566622644,857,305,0,0,0,1,2,1,3,0005-00-0000-20.png,0003-00-0000-53.png
00000009,309,0,1446566625707,1446566626231,446,407,0,0,0,1,0,1,1,0005-00-0001-75.png,0001-00-0001-59.png
00000009,310,1,1446566629381,1446566629430,937,308,0,0,0,4,3,1,7,0004-00-0001-09.png,0002-00-0001-11.png
00000009,311,1,1446566630326,1446566631351,1050,249,0,0,0,2,1,1,3,0003-00-0001-66.png,0005-00-0000-31.png
00000009,312,0,1446566632298,1446566632366,865,444,0,0,0,3,4,1,7,0002-00-0000-90.png,0004-00-0001-73.png
00000009,313,0,1446566635508,1446566636026,503,252,0,0,0,3,2,1,5,0002-00-0000-15.png,0003-00-0001-52.png
00000009,314,0,1446566639146,1446566639182,912,307,0,0,0,2,3,1,5,0003-00-0001-19.png,0002-00-0001-39.png
00000009,315,1,1446566642287,1446566642898,408,390,0,0,0,1,2,1,3,0005-00-0001-83.png,0003-00-0000-06.png
00000009,316,1,1446566644311,1446566644996,1014,284,0,0,0,2,1,1,3,0003-00-0000-26.png,0005-00-0000-34.png
00000009,317,1,1446566645902,1446566645978,858,409,0,0,0,4,3,1,7,0004-00-0000-79.png,0002-00-0000-58.png
00000009,318,0,1446566647038,1446566647234,888,436,0,0,0,3,4,1,7,0002-00-0001-50.png,0004-00-0001-50.png
00000009,319,1,1446566650093,1446566650686,484,253,0,0,0,0,1,1,1,0001-00-0000-24.png,0005-00-0001-26.png
00000009,320,0,1446566652053,1446566652728,488,254,0,0,0,1,0,1,1,0005-00-0001-37.png,0001-00-0001-54.png
00000009,321,0,1446566655603,1446566655635,884,312,0,0,0,1,2,1,3,0005-00-0000-80.png,0003-00-0000-20.png
00000009,322,0,1446566658819,1446566658851,901,315,0,0,0,2,3,1,5,0003-00-0000-82.png,0002-00-0000-18.png
00000009,323,1,1446566661814,1446566661913,1010,296,0,0,0,1,0,1,1,0005-00-0000-85.png,0001-00-0001-67.png
00000009,324,0,1446566662770,1446566663538,482,237,0,0,0,3,2,1,5,0002-00-0000-84.png,0003-00-0001-82.png
00000009,325,1,1446566666445,1446566666927,414,332,0,0,0,0,1,1,1,0001-00-0001-21.png,0005-00-0000-70.png
00000009,326,0,1446566667789,1446566669464,358,342,0,0,0,4,3,1,7,0004-00-0000-99.png,0002-00-0001-53.png
00000009,327,1,1446566672575,1446566672623,903,302,0,0,0,2,1,1,3,0003-00-0000-78.png,0005-00-0000-87.png
00000009,328,1,1446566673521,1446566674845,464,217,0,0,0,3,4,1,7,0002-00-0000-87.png,0004-00-0000-70.png
00000009,329,0,1446566675715,1446566675771,860,437,0,0,0,1,2,1,3,0005-00-0001-02.png,0003-00-0001-06.png
00000009,330,1,1446566678862,1446566678884,868,353,0,0,0,1,0,1,1,0005-00-0001-10.png,0001-00-0000-68.png
00000009,331,1,1446566679801,1446566681141,1045,265,0,0,0,3,2,1,5,0002-00-0001-38.png,0003-00-0000-74.png
00000009,332,1,1446566682076,1446566682946,389,358,0,0,0,3,4,1,7,0002-00-0001-14.png,0004-00-0000-10.png
00000009,333,1,1446566683972,1446566684900,511,221,0,0,0,2,3,1,5,0003-00-0001-07.png,0002-00-0000-13.png
00000009,334,1,1446566686007,1446566686075,881,472,0,0,0,2,1,1,3,0003-00-0001-49.png,0005-00-0000-96.png
00000009,335,0,1446566687229,1446566687305,868,398,0,0,0,0,1,1,1,0001-00-0001-12.png,0005-00-0001-02.png
00000009,336,1,1446566690281,1446566691039,938,349,0,0,0,4,3,1,7,0004-00-0000-32.png,0002-00-0001-56.png
00000009,337,0,1446566692300,1446566692994,477,252,0,0,0,3,2,1,5,0002-00-0000-23.png,0003-00-0000-89.png
00000009,338,1,1446566696048,1446566696554,1037,283,0,0,0,2,1,1,3,0003-00-0001-67.png,0005-00-0001-00.png
00000009,339,0,1446566697776,1446566698440,505,239,0,0,0,4,3,1,7,0004-00-0000-97.png,0002-00-0000-93.png
00000009,340,0,1446566701445,1446566701481,880,362,0,0,0,3,4,1,7,0002-00-0000-23.png,0004-00-0000-61.png
00000009,341,1,1446566704583,1446566705174,416,372,0,0,0,1,2,1,3,0005-00-0001-57.png,0003-00-0001-79.png
00000009,342,1,1446566706043,1446566706907,921,348,0,0,0,1,0,1,1,0005-00-0001-19.png,0001-00-0000-20.png
00000009,343,0,1446566708325,1446566708708,887,513,0,0,0,2,3,1,5,0003-00-0001-92.png,0002-00-0001-66.png
00000009,344,0,1446566711930,1446566711950,910,306,0,0,0,0,1,1,1,0001-00-0001-94.png,0005-00-0001-49.png
00000009,345,0,1446566714780,1446566715804,461,280,0,0,0,3,2,1,5,0002-00-0001-55.png,0003-00-0000-45.png
00000009,346,0,1446566718936,1446566719465,1040,277,0,0,0,2,3,1,5,0003-00-0000-96.png,0002-00-0000-57.png
00000009,347,1,1446566722523,1446566723071,411,347,0,0,0,3,4,1,7,0002-00-0001-89.png,0004-00-0000-24.png
00000009,348,1,1446566723902,1446566724759,917,329,0,0,0,4,3,1,7,0004-00-0000-99.png,0002-00-0001-35.png
00000009,349,1,1446566725651,1446566726556,443,379,0,0,0,0,1,1,1,0001-00-0001-29.png,0005-00-0001-46.png
00000009,350,1,1446566727488,1446566729038,1055,331,0,0,0,1,0,1,1,0005-00-0001-51.png,0001-00-0000-04.png
00000009,351,1,1446566729995,1446566730814,503,225,0,0,0,1,2,1,3,0005-00-0000-23.png,0003-00-0001-21.png
00000009,352,1,1446566731814,1446566732777,1041,289,0,0,0,2,1,1,3,0003-00-0000-48.png,0005-00-0000-28.png
00000009,353,1,1446566733811,1446566733988,877,463,0,0,0,1,0,1,1,0005-00-0000-71.png,0001-00-0001-24.png
00000009,354,1,1446566735214,1446566735230,865,442,0,0,0,2,1,1,3,0003-00-0000-51.png,0005-00-0000-56.png
00000009,355,1,1446566736324,1446566736478,862,473,0,0,0,3,2,1,5,0002-00-0001-24.png,0003-00-0001-71.png
00000009,356,0,1446566737737,1446566738588,485,219,0,0,0,4,3,1,7,0004-00-0000-40.png,0002-00-0000-46.png
00000009,357,0,1446566741642,1446566741670,889,351,0,0,0,1,2,1,3,0005-00-0001-38.png,0003-00-0000-15.png
00000009,358,1,1446566744553,1446566745117,499,267,0,0,0,0,1,1,1,0001-00-0000-00.png,0005-00-0000-74.png
00000009,359,0,1446566746004,1446566746787,918,355,0,0,0,3,4,1,7,0002-00-0001-96.png,0004-00-0000-53.png
00000009,360,0,1446566749882,1446566749929,902,333,0,0,0,2,3,1,5,0003-00-0000-99.png,0002-00-0001-56.png
00000009,361,1,1446566753055,1446566753601,1064,273,0,0,0,2,1,1,3,0003-00-0001-16.png,0005-00-0001-94.png
00000009,362,0,1446566755041,1446566755684,482,225,0,0,0,4,3,1,7,0004-00-0000-27.png,0002-00-0001-10.png
00000009,363,1,1446566758894,1446566759135,934,336,0,0,0,3,2,1,5,0002-00-0001-42.png,0003-00-0000-21.png
00000009,364,1,1446566760055,1446566761109,499,235,0,0,0,1,2,1,3,0005-00-0001-91.png,0003-00-0000-25.png
00000009,365,0,1446566762006,1446566763001,1040,258,0,0,0,3,4,1,7,0002-00-0000-42.png,0004-00-0000-99.png
00000009,366,0,1446566766007,1446566766063,924,358,0,0,0,2,3,1,5,0003-00-0001-39.png,0002-00-0001-59.png
00000009,367,1,1446566769223,1446566770183,398,392,0,0,0,0,1,1,1,0001-00-0001-04.png,0005-00-0000-32.png
00000009,368,0,1446566771068,1446566771964,379,363,0,0,0,1,0,1,1,0005-00-0001-40.png,0001-00-0001-99.png
00000009,369,1,1446566775036,1446566775607,414,357,0,0,0,3,4,1,7,0002-00-0000-13.png,0004-00-0000-80.png
00000009,370,1,1446566776452,1446566777572,380,349,0,0,0,1,2,1,3,0005-00-0000-49.png,0003-00-0000-94.png
00000009,371,1,1446566778603,1446566779725,945,401,0,0,0,2,1,1,3,0003-00-0001-56.png,0005-00-0000-32.png
00000009,372,0,1446566780769,1446566781891,1041,279,0,0,0,2,3,1,5,0003-00-0001-66.png,0002-00-0001-77.png
00000009,373,0,1446566785069,1446566785101,888,320,0,0,0,0,1,1,1,0001-00-0000-56.png,0005-00-0001-49.png
00000009,374,1,1446566788258,1446566788832,1041,289,0,0,0,1,0,1,1,0005-00-0001-69.png,0001-00-0000-05.png
00000009,375,0,1446566789736,1446566790448,427,384,0,0,0,3,2,1,5,0002-00-0000-06.png,0003-00-0001-07.png
00000009,376,1,1446566793521,1446566793555,901,342,0,0,0,4,3,1,7,0004-00-0000-56.png,0002-00-0001-71.png
00000009,377,1,1446566794474,1446566795592,494,217,0,0,0,1,2,1,3,0005-00-0000-50.png,0003-00-0001-63.png
00000009,378,1,1446566796556,1446566797532,918,334,0,0,0,2,1,1,3,0003-00-0000-18.png,0005-00-0000-78.png
00000009,379,0,1446566798527,1446566798563,889,407,0,0,0,2,3,1,5,0003-00-0000-71.png,0002-00-0000-55.png
00000009,380,1,1446566801635,1446566801701,1008,363,0,0,0,4,3,1,7,0004-00-0000-57.png,0002-00-0001-79.png
00000009,381,0,1446566802574,1446566803586,472,227,0,0,0,3,2,1,5,0002-00-0001-49.png,0003-00-0001-71.png
00000009,382,0,1446566806759,1446566806792,934,302,0,0,0,0,1,1,1,0001-00-0001-57.png,0005-00-0000-41.png
00000009,383,0,1446566809746,1446566810393,393,353,0,0,0,1,0,1,1,0005-00-0001-96.png,0001-00-0000-66.png
00000009,384,0,1446566813523,1446566813563,942,308,0,0,0,3,4,1,7,0002-00-0000-52.png,0004-00-0001-11.png
00000009,385,0,1446566816665,1446566816681,890,323,0,0,0,1,2,1,3,0005-00-0000-11.png,0003-00-0001-61.png
00000009,386,0,1446566819677,1446566819713,1036,384,0,0,0,0,1,1,1,0001-00-0000-13.png,0005-00-0000-00.png
00000009,387,0,1446566822862,1446566823133,871,319,0,0,0,2,3,1,5,0003-00-0001-97.png,0002-00-0001-68.png
00000009,388,1,1446566826363,1446566826473,862,248,0,0,0,2,1,1,3,0003-00-0001-17.png,0005-00-0001-24.png
00000009,389,1,1446566827396,1446566827460,860,407,0,0,0,3,2,1,5,0002-00-0000-21.png,0003-00-0001-83.png
00000009,390,1,1446566828518,1446566829745,451,324,0,0,0,3,4,1,7,0002-00-0000-71.png,0004-00-0001-93.png
00000009,391,1,1446566830664,1446566830700,864,394,0,0,0,4,3,1,7,0004-00-0001-45.png,0002-00-0000-38.png
00000009,392,1,1446566832585,1446566833169,1048,254,0,0,0,1,0,1,1,0005-00-0001-41.png,0001-00-0000-58.png
00000009,393,0,1446566834022,1446566834089,870,410,0,0,0,0,1,1,1,0001-00-0000-53.png,0005-00-0000-62.png
00000009,394,0,1446566837206,1446566837222,901,347,0,0,0,2,3,1,5,0003-00-0000-16.png,0002-00-0001-13.png
00000009,395,1,1446566840642,1446566841166,429,373,0,0,0,1,2,1,3,0005-00-0001-80.png,0003-00-0000-31.png
00000009,396,1,1446566842553,1446566843318,957,337,0,0,0,4,3,1,7,0004-00-0000-82.png,0002-00-0001-09.png
00000009,397,0,1446566844209,1446566844957,444,390,0,0,0,1,0,1,1,0005-00-0001-87.png,0001-00-0001-74.png
00000009,398,1,1446566848083,1446566848120,913,332,0,0,0,2,1,1,3,0003-00-0000-58.png,0005-00-0000-59.png
00000009,399,1,1446566848945,1446566849996,942,333,0,0,0,3,2,1,5,0002-00-0000-14.png,0003-00-0001-89.png
00000009,400,0,1446566850887,1446566850943,904,415,0,0,0,3,4,1,7,0002-00-0001-85.png,0004-00-0000-31.png
00000009,401,1,1446566854047,1446566854569,506,227,0,0,0,0,1,1,1,0001-00-0000-58.png,0005-00-0001-16.png
00000009,402,0,1446566855891,1446566856709,487,247,0,0,0,3,2,1,5,0002-00-0001-24.png,0003-00-0001-74.png
00000009,403,0,1446566859808,1446566859857,887,321,0,0,0,3,4,1,7,0002-00-0000-73.png,0004-00-0001-22.png
00000009,404,1,1446566862871,1446566862940,939,333,0,0,0,2,1,1,3,0003-00-0001-40.png,0005-00-0000-47.png
00000009,405,0,1446566864294,1446566864957,502,243,0,0,0,4,3,1,7,0004-00-0000-86.png,0002-00-0000-66.png
00000009,406,1,1446566867819,1446566868354,417,356,0,0,0,1,2,1,3,0005-00-0000-63.png,0003-00-0001-79.png
00000009,407,0,1446566869178,1446566870017,1058,325,0,0,0,2,3,1,5,0003-00-0001-22.png,0002-00-0000-34.png
00000009,408,1,1446566872888,1446566873811,1092,279,0,0,0,1,0,1,1,0005-00-0000-73.png,0001-00-0000-31.png
00000009,409,1,1446566874634,1446566875659,968,330,0,0,0,4,3,1,7,0004-00-0001-70.png,0002-00-0001-75.png
00000009,410,0,1446566876525,1446566876566,916,382,0,0,0,3,4,1,7,0002-00-0000-72.png,0004-00-0000-29.png
00000009,411,1,1446566879803,1446566880356,446,364,0,0,0,1,2,1,3,0005-00-0001-78.png,0003-00-0000-55.png
00000009,412,1,1446566881276,1446566882214,1041,306,0,0,0,1,0,1,1,0005-00-0000-73.png,0001-00-0001-72.png
00000009,413,1,1446566883166,1446566884625,1017,255,0,0,0,2,1,1,3,0003-00-0000-72.png,0005-00-0000-81.png
00000009,414,0,1446566885528,1446566885576,888,398,0,0,0,2,3,1,5,0003-00-0000-44.png,0002-00-0000-92.png
00000009,415,0,1446566888665,1446566888701,913,306,0,0,0,0,1,1,1,0001-00-0000-09.png,0005-00-0000-16.png
00000009,416,0,1446566892105,1446566892631,486,256,0,0,0,3,2,1,5,0002-00-0001-27.png,0003-00-0000-92.png
00000009,417,1,1446566895702,1446566895754,944,326,0,0,0,4,3,1,7,0004-00-0001-99.png,0002-00-0001-67.png
00000009,418,0,1446566896636,1446566897520,399,339,0,0,0,3,2,1,5,0002-00-0000-23.png,0003-00-0000-17.png
00000009,419,1,1446566900651,1446566900691,920,310,0,0,0,2,1,1,3,0003-00-0001-32.png,0005-00-0000-10.png
00000009,420,1,1446566901635,1446566902440,503,220,0,0,0,0,1,1,1,0001-00-0000-70.png,0005-00-0001-02.png
00000009,421,0,1446566903356,1446566903416,888,399,0,0,0,3,4,1,7,0002-00-0001-60.png,0004-00-0001-31.png
00000009,422,1,1446566906618,1446566906644,935,324,0,0,0,1,0,1,1,0005-00-0000-55.png,0001-00-0001-80.png
00000009,423,1,1446566907560,1446566908766,473,255,0,0,0,1,2,1,3,0005-00-0000-22.png,0003-00-0000-89.png
00000009,424,0,1446566909625,1446566910761,946,355,0,0,0,2,3,1,5,0003-00-0001-10.png,0002-00-0000-07.png
00000009,425,1,1446566913908,1446566913974,965,307,0,0,0,2,1,1,3,0003-00-0001-21.png,0005-00-0001-08.png
00000009,426,1,1446566914832,1446566915795,1039,274,0,0,0,1,0,1,1,0005-00-0000-53.png,0001-00-0001-28.png
00000009,427,0,1446566916725,1446566916781,897,436,0,0,0,2,3,1,5,0003-00-0000-26.png,0002-00-0000-04.png
00000009,428,1,1446566919944,1446566919992,984,266,0,0,0,3,2,1,5,0002-00-0000-37.png,0003-00-0000-21.png
00000009,429,0,1446566920865,1446566921021,862,488,0,0,0,3,4,1,7,0002-00-0001-23.png,0004-00-0000-53.png
00000009,430,1,1446566924035,1446566924622,964,400,0,0,0,4,3,1,7,0004-00-0001-72.png,0002-00-0001-97.png
00000009,431,1,1446566926017,1446566926919,401,342,0,0,0,1,2,1,3,0005-00-0001-81.png,0003-00-0000-12.png
00000009,432,0,1446566927753,1446566929014,1022,284,0,0,0,0,1,1,1,0001-00-0000-48.png,0005-00-0001-83.png
00000009,433,1,1446566932097,1446566932153,978,337,0,0,0,4,3,1,7,0004-00-0001-54.png,0002-00-0000-66.png
00000009,434,0,1446566933091,1446566933209,862,488,0,0,0,3,4,1,7,0002-00-0001-95.png,0004-00-0001-63.png
00000009,435,0,1446566936253,1446566937045,964,433,0,0,0,2,3,1,5,0003-00-0001-76.png,0002-00-0001-99.png
00000009,436,1,1446566939937,1446566940524,487,261,0,0,0,0,1,1,1,0001-00-0000-52.png,0005-00-0000-99.png
00000009,437,1,1446566941998,1446566942750,1047,277,0,0,0,3,2,1,5,0002-00-0000-68.png,0003-00-0001-36.png
00000009,438,0,1446566943656,1446566943696,868,385,0,0,0,1,2,1,3,0005-00-0000-15.png,0003-00-0001-91.png
00000009,439,1,1446566946853,1446566947408,939,344,0,0,0,2,1,1,3,0003-00-0000-76.png,0005-00-0000-24.png
00000009,440,1,1446566948250,1446566948306,899,467,0,0,0,1,0,1,1,0005-00-0000-42.png,0001-00-0001-92.png
00000009,441,1,1446566949368,1446566950613,468,223,0,0,0,0,1,1,1,0001-00-0000-98.png,0005-00-0001-20.png
00000009,442,1,1446566951595,1446566951623,860,387,0,0,0,4,3,1,7,0004-00-0001-44.png,0002-00-0000-96.png
00000009,443,1,1446566952698,1446566953908,1045,302,0,0,0,2,1,1,3,0003-00-0001-80.png,0005-00-0001-05.png
00000009,444,1,1446566954893,1446566955812,484,235,0,0,0,1,2,1,3,0005-00-0000-22.png,0003-00-0001-32.png
00000009,445,1,1446566956781,1446566957762,930,456,0,0,0,1,0,1,1,0005-00-0001-11.png,0001-00-0001-61.png
00000009,446,0,1446566958698,1446566958739,905,387,0,0,0,3,4,1,7,0002-00-0001-64.png,0004-00-0001-07.png
00000009,447,0,1446566961684,1446566961727,938,313,0,0,0,2,3,1,5,0003-00-0001-53.png,0002-00-0001-17.png
00000009,448,0,1446566964711,1446566965255,493,280,0,0,0,3,2,1,5,0002-00-0001-53.png,0003-00-0000-95.png
00000009,449,1,1446566968289,1446566968325,888,384,0,0,0,1,0,1,1,0005-00-0000-84.png,0001-00-0001-51.png
00000009,450,1,1446566969244,1446566970110,416,334,0,0,0,0,1,1,1,0001-00-0001-17.png,0005-00-0001-79.png
00000009,451,1,1446566971002,1446566972003,1064,304,0,0,0,2,1,1,3,0003-00-0000-78.png,0005-00-0001-82.png
00000009,452,1,1446566972992,1446566973028,896,411,0,0,0,4,3,1,7,0004-00-0000-51.png,0002-00-0000-40.png
00000009,453,1,1446566973965,1446566975054,461,233,0,0,0,3,4,1,7,0002-00-0000-55.png,0004-00-0001-62.png
00000009,454,0,1446566976042,1446566977160,1039,288,0,0,0,2,3,1,5,0003-00-0000-94.png,0002-00-0001-21.png
00000009,455,1,1446566980375,1446566980403,888,297,0,0,0,3,2,1,5,0002-00-0001-19.png,0003-00-0000-22.png
00000009,456,0,1446566981308,1446566982415,939,436,0,0,0,1,2,1,3,0005-00-0001-10.png,0003-00-0001-32.png
00000009,457,0,1446566985554,1446566986073,513,257,0,0,0,4,3,1,7,0004-00-0001-41.png,0002-00-0001-38.png
00000009,458,1,1446566989039,1446566989059,872,353,0,0,0,3,2,1,5,0002-00-0001-37.png,0003-00-0001-74.png
00000009,459,1,1446566990014,1446566990958,476,255,0,0,0,1,2,1,3,0005-00-0001-02.png,0003-00-0001-43.png
00000009,460,1,1446566991908,1446566992923,921,330,0,0,0,2,1,1,3,0003-00-0001-57.png,0005-00-0001-55.png
00000009,461,1,1446566993880,1446566994888,483,235,0,0,0,0,1,1,1,0001-00-0001-44.png,0005-00-0000-51.png
00000009,462,1,1446566995948,1446566996749,509,255,0,0,0,3,4,1,7,0002-00-0001-92.png,0004-00-0001-53.png
00000009,463,0,1446566997756,1446566998760,1041,296,0,0,0,2,3,1,5,0003-00-0001-38.png,0002-00-0000-15.png
00000009,464,0,1446567001749,1446567002377,504,244,0,0,0,1,0,1,1,0005-00-0001-79.png,0001-00-0000-91.png
00000009,465,1,1446567006978,1446567007514,496,268,0,0,0,1,2,1,3,0005-00-0001-32.png,0003-00-0000-07.png
00000009,466,0,1446567008419,1446567008602,862,384,0,0,0,0,1,1,1,0001-00-0001-45.png,0005-00-0000-72.png
00000009,467,0,1446567011939,1446567012430,1071,278,0,0,0,2,3,1,5,0003-00-0000-96.png,0002-00-0000-16.png
00000009,468,1,1446567016907,1446567017422,487,280,0,0,0,3,4,1,7,0002-00-0001-05.png,0004-00-0001-91.png
00000009,469,1,1446567018376,1446567019416,914,377,0,0,0,2,1,1,3,0003-00-0001-77.png,0005-00-0001-65.png
00000009,470,0,1446567020272,1446567021181,415,339,0,0,0,1,0,1,1,0005-00-0000-13.png,0001-00-0000-01.png
00000009,471,1,1446567024287,1446567024319,878,332,0,0,0,4,3,1,7,0004-00-0001-29.png,0002-00-0000-52.png
00000009,472,0,1446567025191,1446567026067,510,236,0,0,0,3,2,1,5,0002-00-0001-30.png,0003-00-0001-92.png
00000009,473,1,1446567029268,1446567029288,963,307,0,0,0,1,0,1,1,0005-00-0000-61.png,0001-00-0000-89.png
00000009,474,1,1446567030648,1446567031537,505,220,0,0,0,0,1,1,1,0001-00-0001-38.png,0005-00-0000-90.png
00000009,475,1,1446567032446,1446567033469,1070,283,0,0,0,3,2,1,5,0002-00-0001-38.png,0003-00-0001-95.png
00000009,476,1,1446567034467,1446567034491,862,378,0,0,0,4,3,1,7,0004-00-0001-33.png,0002-00-0000-76.png
00000009,477,0,1446567035696,1446567035767,869,452,0,0,0,3,4,1,7,0002-00-0000-47.png,0004-00-0001-76.png
00000009,478,0,1446567038956,1446567039438,964,351,0,0,0,2,3,1,5,0003-00-0001-27.png,0002-00-0000-25.png
00000009,479,1,1446567042586,1446567042643,888,306,0,0,0,2,1,1,3,0003-00-0000-92.png,0005-00-0000-33.png
00000009,480,1,1446567043516,1446567044123,509,265,0,0,0,1,2,1,3,0005-00-0001-31.png,0003-00-0000-60.png
00000009,481,0,1446567045008,1446567045875,964,374,0,0,0,2,3,1,5,0003-00-0001-58.png,0002-00-0000-76.png
00000009,482,1,1446567048994,1446567049014,870,311,0,0,0,4,3,1,7,0004-00-0001-27.png,0002-00-0001-57.png
00000009,483,1,1446567049879,1446567050760,931,361,0,0,0,1,0,1,1,0005-00-0000-90.png,0001-00-0001-43.png
00000009,484,1,1446567051586,1446567052518,975,357,0,0,0,2,1,1,3,0003-00-0001-28.png,0005-00-0001-95.png
00000009,485,1,1446567053457,1446567053512,862,418,0,0,0,3,2,1,5,0002-00-0000-23.png,0003-00-0000-30.png
00000009,486,1,1446567054659,1446567055601,471,412,0,0,0,0,1,1,1,0001-00-0000-93.png,0005-00-0000-33.png
00000009,487,0,1446567056442,1446567057359,1038,293,0,0,0,3,4,1,7,0002-00-0001-86.png,0004-00-0001-79.png
00000009,488,0,1446567060400,1446567060431,934,312,0,0,0,1,2,1,3,0005-00-0000-97.png,0003-00-0000-30.png
00000009,489,0,1446567063465,1446567063513,939,345,0,0,0,3,4,1,7,0002-00-0000-39.png,0004-00-0000-10.png
00000009,490,1,1446567066733,1446567067259,1038,277,0,0,0,2,1,1,3,0003-00-0001-43.png,0005-00-0001-55.png
00000009,491,0,1446567068105,1446567068162,864,413,0,0,0,1,2,1,3,0005-00-0000-72.png,0003-00-0000-86.png
00000009,492,1,1446567071164,1446567071200,880,341,0,0,0,3,2,1,5,0002-00-0001-36.png,0003-00-0001-58.png
00000009,493,0,1446567072143,1446567073046,439,384,0,0,0,1,0,1,1,0005-00-0000-84.png,0001-00-0000-77.png
00000009,494,0,1446567076580,1446567076592,885,316,0,0,0,0,1,1,1,0001-00-0001-97.png,0005-00-0000-95.png
00000009,495,1,1446567079754,1446567079798,909,304,0,0,0,4,3,1,7,0004-00-0001-29.png,0002-00-0000-47.png
00000009,496,0,1446567080675,1446567081373,943,359,0,0,0,2,3,1,5,0003-00-0000-42.png,0002-00-0001-14.png
00000009,497,1,1446567084291,1446567084351,939,346,0,0,0,2,1,1,3,0003-00-0000-43.png,0005-00-0000-06.png
00000009,498,0,1446567085225,1446567086267,401,317,0,0,0,4,3,1,7,0004-00-0001-25.png,0002-00-0000-57.png
00000009,499,0,1446567089118,1446567089186,875,381,0,0,0,1,2,1,3,0005-00-0000-35.png,0003-00-0001-56.png
00000009,500,1,1446567092271,1446567092287,862,331,0,0,0,1,0,1,1,0005-00-0000-18.png,0001-00-0000-83.png
00000009,501,0,1446567093155,1446567093817,493,235,0,0,0,3,2,1,5,0002-00-0000-43.png,0003-00-0000-97.png
00000009,502,0,1446567096795,1446567097847,911,366,0,0,0,0,1,1,1,0001-00-0000-48.png,0005-00-0001-92.png
00000009,503,0,1446567101051,1446567101087,873,323,0,0,0,3,4,1,7,0002-00-0001-19.png,0004-00-0001-06.png
00000009,504,0,1446567104103,1446567104127,886,355,0,0,0,2,3,1,5,0003-00-0001-52.png,0002-00-0001-15.png
00000009,505,0,1446567106964,1446567107705,990,399,0,0,0,3,4,1,7,0002-00-0000-34.png,0004-00-0001-77.png
00000009,506,1,1446567110883,1446567110915,868,315,0,0,0,1,0,1,1,0005-00-0000-05.png,0001-00-0000-74.png
00000009,507,1,1446567111812,1446567112729,440,384,0,0,0,1,2,1,3,0005-00-0001-06.png,0003-00-0001-96.png
00000009,508,1,1446567113720,1446567114713,923,350,0,0,0,2,1,1,3,0003-00-0001-48.png,0005-00-0001-06.png
00000009,509,1,1446567115718,1446567115758,872,363,0,0,0,4,3,1,7,0004-00-0000-52.png,0002-00-0001-66.png
00000009,510,1,1446567116807,1446567117683,509,235,0,0,0,0,1,1,1,0001-00-0001-70.png,0005-00-0001-49.png
00000009,511,1,1446567118650,1446567118707,881,450,0,0,0,3,2,1,5,0002-00-0001-54.png,0003-00-0001-14.png
00000009,512,0,1446567119821,1446567119889,880,478,0,0,0,2,3,1,5,0003-00-0001-27.png,0002-00-0001-03.png
00000009,513,0,1446567122872,1446567123400,401,375,0,0,0,3,2,1,5,0002-00-0001-30.png,0003-00-0000-30.png
00000009,514,1,1446567126520,1446567126546,877,312,0,0,0,1,0,1,1,0005-00-0000-26.png,0001-00-0000-85.png
00000009,515,1,1446567127423,1446567128146,424,353,0,0,0,3,4,1,7,0002-00-0001-33.png,0004-00-0000-57.png
00000009,516,1,1446567129064,1446567129776,482,241,0,0,0,0,1,1,1,0001-00-0000-14.png,0005-00-0001-96.png
00000009,517,0,1446567130779,1446567130814,862,404,0,0,0,2,3,1,5,0003-00-0000-79.png,0002-00-0001-86.png
00000009,518,1,1446567133793,1446567134677,483,234,0,0,0,1,2,1,3,0005-00-0000-00.png,0003-00-0001-53.png
00000009,519,1,1446567135538,1446567136602,1041,279,0,0,0,2,1,1,3,0003-00-0000-73.png,0005-00-0000-19.png
00000009,520,1,1446567137506,1446567137532,876,354,0,0,0,4,3,1,7,0004-00-0000-17.png,0002-00-0000-58.png
00000009,521,1,1446567138653,1446567139775,940,360,0,0,0,2,1,1,3,0003-00-0001-80.png,0005-00-0000-32.png
00000009,522,1,1446567140741,1446567141616,1038,295,0,0,0,4,3,1,7,0004-00-0001-08.png,0002-00-0001-92.png
00000009,523,1,1446567142579,1446567142673,872,436,0,0,0,1,0,1,1,0005-00-0001-97.png,0001-00-0001-03.png
00000009,524,0,1446567143870,1446567143929,881,470,0,0,0,3,4,1,7,0002-00-0001-73.png,0004-00-0000-77.png
00000009,525,0,1446567147021,1446567147622,1031,288,0,0,0,2,3,1,5,0003-00-0000-64.png,0002-00-0000-26.png
00000009,526,1,1446567150797,1446567151312,504,241,0,0,0,1,2,1,3,0005-00-0001-67.png,0003-00-0000-17.png
00000009,527,0,1446567152177,1446567153171,482,257,0,0,0,3,2,1,5,0002-00-0001-41.png,0003-00-0001-29.png
00000009,528,0,1446567156315,1446567156339,887,329,0,0,0,0,1,1,1,0001-00-0001-09.png,0005-00-0000-78.png
00000009,529,1,1446567159373,1446567159943,514,253,0,0,0,0,1,1,1,0001-00-0000-45.png,0005-00-0001-75.png
00000009,530,1,1446567160787,1446567161535,496,235,0,0,0,3,4,1,7,0002-00-0000-84.png,0004-00-0001-14.png
00000009,531,1,1446567162454,1446567163595,1037,281,0,0,0,2,1,1,3,0003-00-0001-27.png,0005-00-0001-52.png
00000009,532,1,1446567164510,1446567165514,1041,255,0,0,0,1,0,1,1,0005-00-0001-23.png,0001-00-0001-09.png
00000009,533,1,1446567166478,1446567166494,869,405,0,0,0,3,2,1,5,0002-00-0001-00.png,0003-00-0001-98.png
00000009,534,0,1446567167571,1446567167619,862,461,0,0,0,2,3,1,5,0003-00-0000-93.png,0002-00-0000-38.png
00000009,535,1,1446567170462,1446567170502,894,406,0,0,0,4,3,1,7,0004-00-0000-61.png,0002-00-0000-79.png
00000009,536,1,1446567171454,1446567172170,515,235,0,0,0,1,2,1,3,0005-00-0000-80.png,0003-00-0000-07.png
00000009,537,1,1446567173047,1446567173922,391,351,0,0,0,1,2,1,3,0005-00-0001-86.png,0003-00-0001-05.png
00000009,538,1,1446567174945,1446567175996,1039,301,0,0,0,4,3,1,7,0004-00-0001-04.png,0002-00-0000-45.png
00000009,539,0,1446567176921,1446567177677,427,340,0,0,0,3,2,1,5,0002-00-0001-21.png,0003-00-0001-62.png
00000009,540,0,1446567180579,1446567181094,507,231,0,0,0,1,0,1,1,0005-00-0000-30.png,0001-00-0001-54.png
00000009,541,0,1446567184118,1446567184752,1044,302,0,0,0,2,3,1,5,0003-00-0001-50.png,0002-00-0000-66.png
00000009,542,0,1446567187586,1446567188257,946,368,0,0,0,3,4,1,7,0002-00-0001-52.png,0004-00-0000-77.png
00000009,543,1,1446567191384,1446567191412,924,299,0,0,0,2,1,1,3,0003-00-0000-46.png,0005-00-0001-99.png
00000009,544,1,1446567192267,1446567193379,432,345,0,0,0,0,1,1,1,0001-00-0001-65.png,0005-00-0001-46.png
00000009,545,1,1446567194267,1446567195100,1043,283,0,0,0,2,1,1,3,0003-00-0000-03.png,0005-00-0000-16.png
00000009,546,0,1446567196035,1446567196985,1040,283,0,0,0,0,1,1,1,0001-00-0001-87.png,0005-00-0000-39.png
00000009,547,1,1446567199880,1446567199932,885,378,0,0,0,1,0,1,1,0005-00-0001-93.png,0001-00-0000-51.png
00000009,548,1,1446567200854,1446567201865,442,384,0,0,0,1,2,1,3,0005-00-0001-10.png,0003-00-0000-15.png
00000009,549,0,1446567202740,1446567202764,859,385,0,0,0,2,3,1,5,0003-00-0001-05.png,0002-00-0000-89.png
00000009,550,0,1446567205750,1446567205938,862,422,0,0,0,3,4,1,7,0002-00-0000-69.png,0004-00-0001-09.png
00000009,551,0,1446567208843,1446567209396,478,250,0,0,0,3,2,1,5,0002-00-0001-31.png,0003-00-0001-64.png
00000009,552,0,1446567212973,1446567213614,490,274,0,0,0,4,3,1,7,0004-00-0001-84.png,0002-00-0000-29.png
00000009,553,0,1446567216604,1446567216761,1021,307,0,0,0,2,3,1,5,0003-00-0001-83.png,0002-00-0001-10.png
00000009,554,1,1446567219915,1446567219967,905,316,0,0,0,2,1,1,3,0003-00-0000-22.png,0005-00-0001-53.png
00000009,555,1,1446567220822,1446567221616,408,347,0,0,0,1,2,1,3,0005-00-0000-32.png,0003-00-0001-95.png
00000009,556,1,1446567222560,1446567222631,862,420,0,0,0,1,0,1,1,0005-00-0000-33.png,0001-00-0001-64.png
00000009,557,1,1446567223672,1446567224963,916,341,0,0,0,4,3,1,7,0004-00-0000-28.png,0002-00-0000-51.png
00000009,558,1,1446567225845,1446567226588,478,236,0,0,0,3,4,1,7,0002-00-0001-67.png,0004-00-0001-52.png
00000009,559,0,1446567227476,1446567228310,506,225,0,0,0,3,2,1,5,0002-00-0001-62.png,0003-00-0000-45.png
00000009,560,0,1446567231453,1446567231498,943,300,0,0,0,0,1,1,1,0001-00-0000-20.png,0005-00-0001-07.png
00000009,561,1,1446567234622,1446567234662,900,331,0,0,0,2,1,1,3,0003-00-0001-03.png,0005-00-0000-52.png
00000009,562,1,1446567235503,1446567236824,985,366,0,0,0,3,2,1,5,0002-00-0000-44.png,0003-00-0001-94.png
00000009,563,1,1446567237733,1446567238655,504,249,0,0,0,1,2,1,3,0005-00-0000-30.png,0003-00-0000-39.png
00000009,564,0,1446567239642,1446567240456,510,253,0,0,0,1,0,1,1,0005-00-0001-24.png,0001-00-0001-54.png
00000009,565,0,1446567243576,1446567244156,405,363,0,0,0,4,3,1,7,0004-00-0001-85.png,0002-00-0001-47.png
00000009,566,0,1446567247103,1446567247170,1041,347,0,0,0,0,1,1,1,0001-00-0000-62.png,0005-00-0000-99.png
00000009,567,0,1446567250050,1446567250094,868,431,0,0,0,3,4,1,7,0002-00-0001-05.png,0004-00-0001-15.png
00000009,568,0,1446567253266,1446567253292,867,302,0,0,0,2,3,1,5,0003-00-0000-81.png,0002-00-0001-42.png
00000009,569,1,1446567256389,1446567256951,403,354,0,0,0,1,2,1,3,0005-00-0001-65.png,0003-00-0000-92.png
00000009,570,0,1446567258367,1446567258881,475,269,0,0,0,3,2,1,5,0002-00-0001-95.png,0003-00-0001-85.png
00000009,571,1,1446567261900,1446567262624,942,360,0,0,0,1,0,1,1,0005-00-0000-29.png,0001-00-0000-56.png
00000009,572,1,1446567263462,1446567264422,935,335,0,0,0,4,3,1,7,0004-00-0001-34.png,0002-00-0001-66.png
00000009,573,0,1446567265341,1446567266371,1039,291,0,0,0,3,4,1,7,0002-00-0001-68.png,0004-00-0000-93.png
00000009,574,0,1446567269445,1446567269515,937,300,0,0,0,0,1,1,1,0001-00-0001-00.png,0005-00-0001-23.png
00000009,575,1,1446567272562,1446567273130,1067,279,0,0,0,2,1,1,3,0003-00-0001-29.png,0005-00-0001-15.png
00000009,576,0,1446567274355,1446567275059,947,376,0,0,0,2,3,1,5,0003-00-0000-00.png,0002-00-0000-70.png
00000009,577,0,1446567278190,1446567278210,888,332,0,0,0,0,1,1,1,0001-00-0000-44.png,0005-00-0001-36.png
00000009,578,1,1446567281321,1446567281341,884,360,0,0,0,3,2,1,5,0002-00-0001-10.png,0003-00-0001-34.png
00000009,579,1,1446567282265,1446567283269,931,325,0,0,0,4,3,1,7,0004-00-0000-47.png,0002-00-0001-68.png
00000009,580,0,1446567284209,1446567284237,879,361,0,0,0,3,4,1,7,0002-00-0001-03.png,0004-00-0000-48.png
00000009,581,1,1446567287429,1446567287947,945,324,0,0,0,2,1,1,3,0003-00-0000-86.png,0005-00-0001-96.png
00000009,582,1,1446567289182,1446567290064,1048,303,0,0,0,1,0,1,1,0005-00-0001-24.png,0001-00-0001-19.png
00000009,583,0,1446567290915,1446567290964,910,310,0,0,0,2,3,1,5,0003-00-0000-86.png,0002-00-0001-13.png
00000009,584,1,1446567293798,1446567294710,476,238,0,0,0,1,2,1,3,0005-00-0001-67.png,0003-00-0001-81.png
00000009,585,1,1446567295559,1446567296456,501,248,0,0,0,0,1,1,1,0001-00-0001-02.png,0005-00-0001-03.png
00000009,586,0,1446567297388,1446567298212,511,246,0,0,0,3,2,1,5,0002-00-0001-09.png,0003-00-0000-82.png
00000009,587,0,1446567301357,1446567301414,903,332,0,0,0,2,3,1,5,0003-00-0001-35.png,0002-00-0001-31.png
00000009,588,1,1446567304536,1446567304584,940,332,0,0,0,2,1,1,3,0003-00-0000-09.png,0005-00-0001-22.png
00000009,589,1,1446567305415,1446567306520,461,402,0,0,0,1,2,1,3,0005-00-0001-00.png,0003-00-0001-91.png
00000009,590,1,1446567307405,1446567308307,964,448,0,0,0,1,0,1,1,0005-00-0001-68.png,0001-00-0001-64.png
00000009,591,1,1446567309184,1446567309244,898,419,0,0,0,4,3,1,7,0004-00-0001-56.png,0002-00-0000-71.png
00000009,592,0,1446567310240,1446567311391,910,341,0,0,0,3,4,1,7,0002-00-0001-36.png,0004-00-0001-79.png
00000009,593,0,1446567314482,1446567314550,1016,306,0,0,0,2,3,1,5,0003-00-0000-14.png,0002-00-0000-75.png
00000009,594,0,1446567317732,1446567317752,909,340,0,0,0,1,2,1,3,0005-00-0001-41.png,0003-00-0001-02.png
00000009,595,0,1446567320763,1446567320795,863,353,0,0,0,3,4,1,7,0002-00-0001-13.png,0004-00-0001-78.png
00000009,596,1,1446567323945,1446567323974,898,302,0,0,0,1,0,1,1,0005-00-0001-44.png,0001-00-0001-64.png
00000009,597,0,1446567324921,1446567325823,940,346,0,0,0,0,1,1,1,0001-00-0001-81.png,0005-00-0000-88.png
00000009,598,1,1446567328864,1446567328892,862,347,0,0,0,4,3,1,7,0004-00-0000-47.png,0002-00-0001-73.png
00000009,599,0,1446567329757,1446567330576,503,232,0,0,0,3,2,1,5,0002-00-0000-50.png,0003-00-0001-00.png
00000009,600,1,1446567333663,1446567333714,890,352,0,0,0,2,1,1,3,0003-00-0000-40.png,0005-00-0001-93.png
00000009,601,1,1446567334607,1446567335341,507,220,0,0,0,1,2,1,3,0005-00-0001-48.png,0003-00-0001-26.png
00000009,602,1,1446567336329,1446567337310,1036,282,0,0,0,1,0,1,1,0005-00-0000-97.png,0001-00-0000-61.png
00000009,603,0,1446567338285,1446567338313,909,364,0,0,0,2,3,1,5,0003-00-0000-37.png,0002-00-0001-91.png
00000009,604,0,1446567341366,1446567341414,993,345,0,0,0,0,1,1,1,0001-00-0001-25.png,0005-00-0000-55.png
00000009,605,1,1446567344573,1446567345554,964,421,0,0,0,4,3,1,7,0004-00-0000-44.png,0002-00-0001-21.png
00000009,606,1,1446567346426,1446567347544,937,354,0,0,0,2,1,1,3,0003-00-0000-66.png,0005-00-0001-69.png
00000009,607,1,1446567348452,1446567348472,871,326,0,0,0,3,2,1,5,0002-00-0001-64.png,0003-00-0001-72.png
00000009,608,1,1446567349546,1446567350682,497,236,0,0,0,3,4,1,7,0002-00-0001-56.png,0004-00-0001-46.png
00000009,609,1,1446567351592,1446567352471,385,358,0,0,0,3,4,1,7,0002-00-0001-51.png,0004-00-0000-24.png
00000009,610,1,1446567353428,1446567354327,489,236,0,0,0,0,1,1,1,0001-00-0000-66.png,0005-00-0001-81.png
00000009,611,1,1446567355448,1446567355496,864,448,0,0,0,3,2,1,5,0002-00-0000-19.png,0003-00-0000-37.png
00000009,612,0,1446567356619,1446567357456,480,246,0,0,0,4,3,1,7,0004-00-0001-36.png,0002-00-0000-95.png
00000009,613,1,1446567360412,1446567361020,461,305,0,0,0,2,3,1,5,0003-00-0000-19.png,0002-00-0000-53.png
00000009,614,1,1446567361927,1446567363075,365,386,0,0,0,1,2,1,3,0005-00-0001-25.png,0003-00-0000-18.png
00000009,615,0,1446567363991,1446567365131,450,252,0,0,0,2,1,1,3,0003-00-0000-98.png,0005-00-0000-18.png
00000009,616,0,1446567368351,1446567368875,512,235,0,0,0,1,0,1,1,0005-00-0001-44.png,0001-00-0000-92.png
00000009,617,1,1446567372430,1446567372507,987,280,0,0,0,3,2,1,5,0002-00-0001-87.png,0003-00-0000-21.png
00000009,618,1,1446567373425,1446567374504,1047,274,0,0,0,1,0,1,1,0005-00-0000-56.png,0001-00-0001-52.png
00000009,619,1,1446567375392,1446567375440,881,367,0,0,0,4,3,1,7,0004-00-0001-80.png,0002-00-0000-03.png
00000009,620,1,1446567376593,1446567377694,514,250,0,0,0,0,1,1,1,0001-00-0001-71.png,0005-00-0001-50.png
00000009,621,0,1446567378648,1446567379604,958,358,0,0,0,2,3,1,5,0003-00-0001-86.png,0002-00-0000-89.png
00000009,622,0,1446567382677,1446567382714,895,349,0,0,0,3,4,1,7,0002-00-0000-04.png,0004-00-0000-87.png
00000009,623,1,1446567385566,1446567386366,1019,288,0,0,0,2,1,1,3,0003-00-0000-27.png,0005-00-0001-25.png
00000009,624,0,1446567387218,1446567387306,880,450,0,0,0,1,2,1,3,0005-00-0001-60.png,0003-00-0000-35.png
00000009,625,0,1446567390448,1446567390475,866,345,0,0,0,0,1,1,1,0001-00-0000-08.png,0005-00-0000-54.png
00000009,626,1,1446567393613,1446567394210,515,247,0,0,0,3,4,1,7,0002-00-0001-40.png,0004-00-0001-44.png
00000009,627,1,1446567395087,1446567395913,917,362,0,0,0,4,3,1,7,0004-00-0001-21.png,0002-00-0000-16.png
00000009,628,0,1446567396836,1446567396867,859,340,0,0,0,1,2,1,3,0005-00-0000-12.png,0003-00-0001-95.png
00000009,629,1,1446567400039,1446567400058,913,306,0,0,0,2,1,1,3,0003-00-0001-12.png,0005-00-0001-82.png
00000009,630,0,1446567401043,1446567401812,493,243,0,0,0,3,2,1,5,0002-00-0001-76.png,0003-00-0000-61.png
00000009,631,1,1446567404827,1446567405404,1037,300,0,0,0,1,0,1,1,0005-00-0001-56.png,0001-00-0001-48.png
00000009,632,0,1446567406264,1446567407247,1016,288,0,0,0,2,3,1,5,0003-00-0001-36.png,0002-00-0000-43.png
00000009,633,1,1446567410311,1446567410360,876,356,0,0,0,2,1,1,3,0003-00-0000-24.png,0005-00-0001-49.png
00000009,634,0,1446567411216,1446567412125,938,326,0,0,0,2,3,1,5,0003-00-0001-09.png,0002-00-0000-00.png
00000009,635,0,1446567415201,1446567415241,886,358,0,0,0,1,2,1,3,0005-00-0001-86.png,0003-00-0000-69.png
00000009,636,1,1446567418356,1446567418393,936,328,0,0,0,4,3,1,7,0004-00-0001-29.png,0002-00-0000-93.png
00000009,637,1,1446567419289,1446567420053,472,234,0,0,0,0,1,1,1,0001-00-0000-98.png,0005-00-0000-01.png
00000009,638,0,1446567420975,1446567421797,395,343,0,0,0,3,2,1,5,0002-00-0001-73.png,0003-00-0000-54.png
00000009,639,0,1446567424863,1446567424903,860,356,0,0,0,3,4,1,7,0002-00-0001-08.png,0004-00-0000-11.png
00000009,640,1,1446567429523,1446567430067,1041,291,0,0,0,1,0,1,1,0005-00-0000-26.png,0001-00-0000-77.png
00000009,641,0,1446567430945,1446567430961,894,408,0,0,0,1,2,1,3,0005-00-0001-54.png,0003-00-0000-00.png
00000009,642,1,1446567434102,1446567434128,871,300,0,0,0,4,3,1,7,0004-00-0000-11.png,0002-00-0001-48.png
00000009,643,1,1446567435080,1446567435968,939,347,0,0,0,2,1,1,3,0003-00-0001-54.png,0005-00-0000-12.png
00000009,644,0,1446567436970,1446567437967,934,338,0,0,0,3,4,1,7,0002-00-0000-64.png,0004-00-0001-90.png
00000009,645,1,1446567440911,1446567441628,487,254,0,0,0,0,1,1,1,0001-00-0001-24.png,0005-00-0000-77.png
00000009,646,0,1446567442521,1446567443632,1067,320,0,0,0,2,3,1,5,0003-00-0001-23.png,0002-00-0001-60.png
00000009,647,1,1446567446824,1446567446836,874,308,0,0,0,3,2,1,5,0002-00-0001-70.png,0003-00-0000-11.png
00000009,648,1,1446567447770,1446567448701,938,348,0,0,0,1,0,1,1,0005-00-0001-62.png,0001-00-0000-64.png
00000009,649,0,1446567449618,1446567449637,887,342,0,0,0,2,3,1,5,0003-00-0001-80.png,0002-00-0000-07.png
00000009,650,1,1446567452489,1446567453152,1041,277,0,0,0,4,3,1,7,0004-00-0000-88.png,0002-00-0001-72.png
00000009,651,1,1446567454008,1446567454680,440,384,0,0,0,3,4,1,7,0002-00-0000-71.png,0004-00-0001-11.png
00000009,652,0,1446567455659,1446567456600,486,244,0,0,0,1,0,1,1,0005-00-0000-79.png,0001-00-0001-31.png
00000009,653,0,1446567459686,1446567459734,925,332,0,0,0,1,2,1,3,0005-00-0001-34.png,0003-00-0001-47.png
00000009,654,0,1446567462762,1446567462892,998,322,0,0,0,0,1,1,1,0001-00-0001-99.png,0005-00-0000-87.png
00000009,655,1,1446567466056,1446567466072,863,332,0,0,0,2,1,1,3,0003-00-0001-37.png,0005-00-0001-27.png
00000009,656,0,1446567467031,1446567467874,469,224,0,0,0,3,2,1,5,0002-00-0001-67.png,0003-00-0000-02.png
00000009,657,0,1446567470935,1446567471470,909,338,0,0,0,3,4,1,7,0002-00-0000-04.png,0004-00-0001-95.png
00000009,658,1,1446567474591,1446567474648,931,320,0,0,0,2,1,1,3,0003-00-0001-71.png,0005-00-0000-50.png
00000009,659,0,1446567475554,1446567476569,478,218,0,0,0,4,3,1,7,0004-00-0001-76.png,0002-00-0000-83.png
00000009,660,1,1446567479720,1446567479760,893,320,0,0,0,3,2,1,5,0002-00-0000-83.png,0003-00-0001-73.png
00000009,661,1,1446567480697,1446567481438,510,225,0,0,0,1,2,1,3,0005-00-0000-70.png,0003-00-0000-72.png
00000009,662,1,1446567482413,1446567482437,860,333,0,0,0,1,0,1,1,0005-00-0001-41.png,0001-00-0001-46.png
00000009,663,1,1446567483507,1446567484342,508,245,0,0,0,0,1,1,1,0001-00-0000-05.png,0005-00-0001-89.png
00000009,664,0,1446567485367,1446567485411,880,497,0,0,0,2,3,1,5,0003-00-0000-12.png,0002-00-0001-22.png
00000009,665,0,1446567488376,1446567488884,495,233,0,0,0,4,3,1,7,0004-00-0001-78.png,0002-00-0001-34.png
00000009,666,0,1446567491817,1446567492420,946,342,0,0,0,0,1,1,1,0001-00-0000-29.png,0005-00-0001-82.png
00000009,667,0,1446567495412,1446567495957,483,263,0,0,0,3,2,1,5,0002-00-0000-11.png,0003-00-0001-59.png
00000009,668,1,1446567499111,1446567499604,511,242,0,0,0,1,2,1,3,0005-00-0000-96.png,0003-00-0000-97.png
00000009,669,0,1446567500491,1446567501308,923,327,0,0,0,2,3,1,5,0003-00-0000-01.png,0002-00-0001-33.png
00000009,670,0,1446567504319,1446567504395,862,396,0,0,0,3,4,1,7,0002-00-0000-44.png,0004-00-0000-54.png
00000009,671,1,1446567507279,1446567507335,862,347,0,0,0,2,1,1,3,0003-00-0001-75.png,0005-00-0001-22.png
00000009,672,0,1446567508253,1446567509236,399,342,0,0,0,1,0,1,1,0005-00-0000-61.png,0001-00-0000-57.png
00000009,673,1,1446567512388,1446567512404,903,322,0,0,0,4,3,1,7,0004-00-0000-28.png,0002-00-0001-37.png
00000009,674,1,1446567513290,1446567514312,469,242,0,0,0,1,2,1,3,0005-00-0000-59.png,0003-00-0001-29.png
00000009,675,0,1446567515327,1446567515347,882,403,0,0,0,3,4,1,7,0002-00-0000-00.png,0004-00-0001-81.png
00000009,676,0,1446567518240,1446567518777,1047,288,0,0,0,2,3,1,5,0003-00-0001-32.png,0002-00-0000-79.png
00000009,677,0,1446567521896,1446567521924,863,349,0,0,0,0,1,1,1,0001-00-0000-13.png,0005-00-0000-47.png
00000009,678,0,1446567525054,1446567525647,514,253,0,0,0,3,2,1,5,0002-00-0001-16.png,0003-00-0001-47.png
00000009,679,1,1446567528786,1446567528814,888,294,0,0,0,1,0,1,1,0005-00-0001-44.png,0001-00-0001-29.png
00000009,680,1,1446567529721,1446567530615,1036,272,0,0,0,2,1,1,3,0003-00-0000-60.png,0005-00-0001-47.png
00000009,681,0,1446567531545,1446567531565,898,304,0,0,0,2,3,1,5,0003-00-0000-12.png,0002-00-0001-92.png
00000009,682,0,1446567534489,1446567534517,888,396,0,0,0,3,4,1,7,0002-00-0000-16.png,0004-00-0000-17.png
00000009,683,1,1446567537442,1446567537458,913,370,0,0,0,3,2,1,5,0002-00-0001-77.png,0003-00-0001-78.png
00000009,684,1,1446567538315,1446567539389,1057,288,0,0,0,1,0,1,1,0005-00-0001-44.png,0001-00-0001-04.png
00000009,685,1,1446567540298,1446567541181,521,228,0,0,0,1,2,1,3,0005-00-0001-99.png,0003-00-0001-38.png
00000009,686,1,1446567542171,1446567543422,476,260,0,0,0,0,1,1,1,0001-00-0001-29.png,0005-00-0001-73.png
00000009,687,1,1446567544387,1446567545388,930,358,0,0,0,2,1,1,3,0003-00-0000-55.png,0005-00-0001-43.png
00000009,688,1,1446567546415,1446567547484,964,329,0,0,0,4,3,1,7,0004-00-0001-92.png,0002-00-0001-11.png
00000009,689,1,1446567548431,1446567549472,497,244,0,0,0,1,2,1,3,0005-00-0001-03.png,0003-00-0000-69.png
00000009,690,1,1446567550448,1446567551577,1045,252,0,0,0,4,3,1,7,0004-00-0001-02.png,0002-00-0001-68.png
00000009,691,1,1446567552616,1446567553596,1064,282,0,0,0,2,1,1,3,0003-00-0001-20.png,0005-00-0000-10.png
00000009,692,0,1446567554633,1446567555666,380,357,0,0,0,1,0,1,1,0005-00-0001-09.png,0001-00-0001-44.png
00000009,693,1,1446567558764,1446567558813,900,346,0,0,0,3,2,1,5,0002-00-0001-37.png,0003-00-0000-32.png
00000009,694,0,1446567559710,1446567560789,1043,310,0,0,0,0,1,1,1,0001-00-0000-65.png,0005-00-0001-78.png
00000009,695,1,1446567563891,1446567564461,431,385,0,0,0,3,4,1,7,0002-00-0000-90.png,0004-00-0001-37.png
00000009,696,0,1446567565365,1446567565385,869,376,0,0,0,2,3,1,5,0003-00-0000-16.png,0002-00-0000-05.png
00000009,697,1,1446567568423,1446567569678,1102,323,0,0,0,2,1,1,3,0003-00-0001-48.png,0005-00-0000-69.png
00000009,698,1,1446567570603,1446567571486,485,244,0,0,0,0,1,1,1,0001-00-0001-85.png,0005-00-0000-26.png
00000009,699,0,1446567572433,1446567573423,504,246,0,0,0,3,2,1,5,0002-00-0001-28.png,0003-00-0001-26.png
00000009,700,0,1446567576755,1446567577339,489,384,0,0,0,4,3,1,7,0004-00-0000-16.png,0002-00-0000-24.png
00000009,701,1,1446567580463,1446567580499,878,332,0,0,0,1,0,1,1,0005-00-0000-27.png,0001-00-0000-44.png
00000009,702,0,1446567581407,1446567582324,930,353,0,0,0,2,3,1,5,0003-00-0001-39.png,0002-00-0001-02.png
00000009,703,0,1446567585352,1446567585392,862,374,0,0,0,1,2,1,3,0005-00-0001-33.png,0003-00-0001-01.png
00000009,704,0,1446567588531,1446567588555,862,347,0,0,0,3,4,1,7,0002-00-0001-23.png,0004-00-0000-11.png
00000009,705,1,1446567591747,1446567592482,943,351,0,0,0,4,3,1,7,0004-00-0001-29.png,0002-00-0001-09.png
00000009,706,1,1446567593819,1446567594586,938,356,0,0,0,2,1,1,3,0003-00-0000-04.png,0005-00-0001-33.png
00000009,707,0,1446567595527,1446567595562,900,384,0,0,0,1,2,1,3,0005-00-0001-06.png,0003-00-0000-46.png
00000009,708,1,1446567598569,1446567598597,862,358,0,0,0,1,0,1,1,0005-00-0001-32.png,0001-00-0001-85.png
00000009,709,0,1446567599565,1446567599668,888,488,0,0,0,3,4,1,7,0002-00-0000-11.png,0004-00-0001-43.png
00000009,710,0,1446567603070,1446567603552,483,282,0,0,0,3,2,1,5,0002-00-0000-45.png,0003-00-0000-35.png
00000009,711,0,1446567607284,1446567607815,1041,276,0,0,0,2,3,1,5,0003-00-0000-26.png,0002-00-0001-63.png
00000009,712,0,1446567610719,1446567610780,877,358,0,0,0,0,1,1,1,0001-00-0000-54.png,0005-00-0001-18.png
00000009,713,0,1446567613994,1446567614544,479,263,0,0,0,1,0,1,1,0005-00-0001-43.png,0001-00-0000-87.png
00000009,714,0,1446567617790,1446567617910,904,296,0,0,0,2,3,1,5,0003-00-0000-73.png,0002-00-0000-45.png
00000009,715,0,1446567621093,1446567621138,889,335,0,0,0,0,1,1,1,0001-00-0000-88.png,0005-00-0000-05.png
00000009,716,1,1446567624087,1446567624145,936,328,0,0,0,3,2,1,5,0002-00-0000-73.png,0003-00-0000-84.png
00000009,717,1,1446567625253,1446567626325,402,349,0,0,0,3,4,1,7,0002-00-0000-71.png,0004-00-0000-54.png
00000009,718,1,1446567627286,1446567628223,1047,296,0,0,0,4,3,1,7,0004-00-0000-90.png,0002-00-0000-94.png
00000009,719,1,1446567629268,1446567629315,888,398,0,0,0,2,1,1,3,0003-00-0001-59.png,0005-00-0001-29.png
00000009,720,0,1446567630450,1446567630492,897,418,0,0,0,1,2,1,3,0005-00-0001-53.png,0003-00-0001-60.png
00000009,721,0,1446567633558,1446567634108,1046,282,0,0,0,2,3,1,5,0003-00-0000-12.png,0002-00-0001-91.png
00000009,722,1,1446567636939,1446567637454,478,266,0,0,0,1,2,1,3,0005-00-0000-11.png,0003-00-0000-45.png
00000009,723,0,1446567638895,1446567639452,498,235,0,0,0,3,2,1,5,0002-00-0001-95.png,0003-00-0001-92.png
00000009,724,1,1446567642525,1446567642567,879,328,0,0,0,1,0,1,1,0005-00-0000-25.png,0001-00-0000-52.png
00000009,725,0,1446567643499,1446567644562,1042,252,0,0,0,3,4,1,7,0002-00-0001-97.png,0004-00-0001-76.png
00000009,726,1,1446567647861,1446567648054,862,399,0,0,0,4,3,1,7,0004-00-0001-73.png,0002-00-0000-78.png
00000009,727,1,1446567648972,1446567649795,940,348,0,0,0,2,1,1,3,0003-00-0000-27.png,0005-00-0000-43.png
00000009,728,0,1446567650652,1446567650716,878,378,0,0,0,0,1,1,1,0001-00-0000-12.png,0005-00-0000-86.png
00000009,729,0,1446567653561,1446567654099,919,324,0,0,0,2,3,1,5,0003-00-0001-63.png,0002-00-0000-31.png
00000009,730,0,1446567657199,1446567657223,907,357,0,0,0,3,4,1,7,0002-00-0001-05.png,0004-00-0000-61.png
00000009,731,0,1446567660410,1446567660442,871,333,0,0,0,0,1,1,1,0001-00-0001-16.png,0005-00-0000-93.png
00000009,732,1,1446567663454,1446567663534,857,318,0,0,0,1,0,1,1,0005-00-0001-17.png,0001-00-0001-69.png
00000009,733,1,1446567664435,1446567665444,1026,305,0,0,0,4,3,1,7,0004-00-0000-90.png,0002-00-0001-09.png
00000009,734,1,1446567666360,1446567666382,900,380,0,0,0,2,1,1,3,0003-00-0000-26.png,0005-00-0001-38.png
00000009,735,1,1446567667487,1446567668597,944,343,0,0,0,3,2,1,5,0002-00-0000-17.png,0003-00-0001-39.png
00000009,736,0,1446567669525,1446567669573,885,411,0,0,0,1,2,1,3,0005-00-0001-31.png,0003-00-0000-09.png
00000009,737,1,1446567672456,1446567672484,857,442,0,0,0,1,0,1,1,0005-00-0001-08.png,0001-00-0000-62.png
00000009,738,0,1446567673380,1446567674298,477,233,0,0,0,4,3,1,7,0004-00-0001-24.png,0002-00-0000-77.png
00000009,739,1,1446567677423,1446567678034,485,256,0,0,0,3,4,1,7,0002-00-0000-44.png,0004-00-0001-54.png
00000009,740,0,1446567678948,1446567679915,398,340,0,0,0,3,2,1,5,0002-00-0001-86.png,0003-00-0001-76.png
00000009,741,1,1446567682970,1446567683538,499,272,0,0,0,1,2,1,3,0005-00-0001-30.png,0003-00-0000-16.png
00000009,742,0,1446567684389,1446567685667,1019,304,0,0,0,2,3,1,5,0003-00-0000-00.png,0002-00-0001-26.png
00000009,743,1,1446567688853,1446567688877,882,330,0,0,0,2,1,1,3,0003-00-0000-24.png,0005-00-0000-49.png
00000009,744,0,1446567689791,1446567690777,1016,307,0,0,0,0,1,1,1,0001-00-0001-78.png,0005-00-0001-66.png
00000009,745,1,1446567693703,1446567693719,905,394,0,0,0,4,3,1,7,0004-00-0001-39.png,0002-00-0001-59.png
00000009,746,0,1446567694687,1446567695472,918,339,0,0,0,2,3,1,5,0003-00-0001-48.png,0002-00-0000-85.png
00000009,747,0,1446567698294,1446567698330,890,382,0,0,0,1,2,1,3,0005-00-0000-13.png,0003-00-0001-36.png
00000009,748,1,1446567701496,1446567702050,1038,283,0,0,0,2,1,1,3,0003-00-0000-99.png,0005-00-0000-30.png
00000009,749,1,1446567702936,1446567702985,865,374,0,0,0,3,2,1,5,0002-00-0000-70.png,0003-00-0001-81.png
00000009,750,0,1446567704197,1446567705603,490,217,0,0,0,1,0,1,1,0005-00-0000-56.png,0001-00-0000-68.png
00000009,751,0,1446567708562,1446567708607,896,363,0,0,0,3,4,1,7,0002-00-0001-89.png,0004-00-0000-39.png
00000009,752,1,1446567711665,1446567712181,431,413,0,0,0,0,1,1,1,0001-00-0001-48.png,0005-00-0001-03.png
00000009,753,1,1446567713082,1446567714115,467,253,0,0,0,3,4,1,7,0002-00-0001-66.png,0004-00-0000-45.png
00000009,754,0,1446567715091,1446567716103,948,336,0,0,0,2,3,1,5,0003-00-0000-23.png,0002-00-0001-95.png
00000009,755,0,1446567718994,1446567719489,406,357,0,0,0,1,0,1,1,0005-00-0001-57.png,0001-00-0000-37.png
00000009,756,0,1446567722685,1446567722702,865,309,0,0,0,1,2,1,3,0005-00-0000-06.png,0003-00-0001-06.png
00000009,757,1,1446567725834,1446567725862,865,324,0,0,0,4,3,1,7,0004-00-0001-66.png,0002-00-0001-29.png
00000009,758,1,1446567726785,1446567727847,931,361,0,0,0,2,1,1,3,0003-00-0000-51.png,0005-00-0000-15.png
00000009,759,0,1446567728886,1446567729905,503,242,0,0,0,3,2,1,5,0002-00-0001-60.png,0003-00-0001-12.png
00000009,760,0,1446567732871,1446567732904,916,389,0,0,0,0,1,1,1,0001-00-0001-48.png,0005-00-0000-19.png
00000009,761,1,1446567736070,1446567736086,892,321,0,0,0,3,2,1,5,0002-00-0001-46.png,0003-00-0000-93.png
00000009,762,0,1446567736984,1446567737916,520,243,0,0,0,1,0,1,1,0005-00-0001-60.png,0001-00-0000-67.png
00000009,763,1,1446567740748,1446567741348,482,243,0,0,0,1,2,1,3,0005-00-0001-76.png,0003-00-0001-15.png
00000009,764,0,1446567742220,1446567742264,869,404,0,0,0,2,3,1,5,0003-00-0001-21.png,0002-00-0000-31.png
00000009,765,0,1446567745194,1446567745799,935,336,0,0,0,3,4,1,7,0002-00-0000-18.png,0004-00-0000-94.png
00000009,766,1,1446567748997,1446567749029,860,331,0,0,0,2,1,1,3,0003-00-0001-36.png,0005-00-0001-50.png
00000009,767,0,1446567749975,1446567750842,503,234,0,0,0,4,3,1,7,0004-00-0000-52.png,0002-00-0001-54.png
00000009,768,0,1446567753929,1446567753958,872,329,0,0,0,0,1,1,1,0001-00-0000-87.png,0005-00-0000-85.png
00000009,769,1,1446567756942,1446567757471,500,239,0,0,0,1,2,1,3,0005-00-0000-17.png,0003-00-0001-39.png
00000009,770,1,1446567758330,1446567759372,391,346,0,0,0,3,4,1,7,0002-00-0001-13.png,0004-00-0000-35.png
00000009,771,0,1446567760329,1446567760408,900,462,0,0,0,0,1,1,1,0001-00-0001-05.png,0005-00-0000-95.png
00000009,772,1,1446567763498,1446567763550,902,329,0,0,0,4,3,1,7,0004-00-0000-77.png,0002-00-0001-69.png
00000009,773,0,1446567764523,1446567765420,489,251,0,0,0,1,0,1,1,0005-00-0001-21.png,0001-00-0001-52.png
00000009,774,0,1446567768607,1446567768626,927,293,0,0,0,2,3,1,5,0003-00-0000-27.png,0002-00-0001-65.png
00000009,775,1,1446567771664,1446567771732,920,335,0,0,0,3,2,1,5,0002-00-0001-68.png,0003-00-0000-48.png
00000009,776,1,1446567772649,1446567773662,1063,277,0,0,0,2,1,1,3,0003-00-0001-73.png,0005-00-0001-72.png
00000009,777,0,1446567774654,1446567774698,883,387,0,0,0,0,1,1,1,0001-00-0000-32.png,0005-00-0001-35.png
00000009,778,1,1446567777550,1446567778124,1044,259,0,0,0,1,0,1,1,0005-00-0001-26.png,0001-00-0001-39.png
00000009,779,0,1446567778976,1446567779047,906,414,0,0,0,3,4,1,7,0002-00-0000-37.png,0004-00-0000-13.png
00000009,780,0,1446567781924,1446567782619,918,358,0,0,0,2,3,1,5,0003-00-0001-53.png,0002-00-0001-96.png
00000009,781,1,1446567785825,1446567786471,1063,283,0,0,0,4,3,1,7,0004-00-0001-58.png,0002-00-0000-00.png
00000009,782,1,1446567787339,1446567788100,504,241,0,0,0,1,2,1,3,0005-00-0001-87.png,0003-00-0001-54.png
00000009,783,1,1446567789057,1446567789082,885,357,0,0,0,2,1,1,3,0003-00-0001-85.png,0005-00-0001-94.png
00000009,784,1,1446567790193,1446567790237,881,417,0,0,0,3,2,1,5,0002-00-0000-99.png,0003-00-0000-88.png
00000009,785,0,1446567791454,1446567791471,892,411,0,0,0,1,2,1,3,0005-00-0001-27.png,0003-00-0001-97.png
00000009,786,1,1446567795043,1446567795067,903,306,0,0,0,4,3,1,7,0004-00-0000-84.png,0002-00-0001-24.png
00000009,787,0,1446567796092,1446567797214,934,380,0,0,0,3,4,1,7,0002-00-0001-29.png,0004-00-0001-70.png
00000009,788,0,1446567800217,1446567800702,505,267,0,0,0,1,0,1,1,0005-00-0001-88.png,0001-00-0000-63.png
00000009,789,0,1446567803854,1446567803878,889,331,0,0,0,0,1,1,1,0001-00-0000-00.png,0005-00-0001-23.png
00000009,790,1,1446567807026,1446567807070,893,309,0,0,0,2,1,1,3,0003-00-0001-30.png,0005-00-0001-39.png
00000009,791,1,1446567808040,1446567808104,863,433,0,0,0,3,2,1,5,0002-00-0000-78.png,0003-00-0001-57.png
00000009,792,0,1446567809310,1446567810229,931,368,0,0,0,2,3,1,5,0003-00-0000-80.png,0002-00-0000-62.png
00000009,793,1,1446567813421,1446567813988,504,400,0,0,0,1,2,1,3,0005-00-0000-19.png,0003-00-0001-95.png
00000009,794,0,1446567814873,1446567815849,934,357,0,0,0,2,3,1,5,0003-00-0000-24.png,0002-00-0000-20.png
00000009,795,0,1446567819007,1446567819051,902,332,0,0,0,0,1,1,1,0001-00-0001-82.png,0005-00-0000-05.png
00000009,796,0,1446567822360,1446567823380,457,293,0,0,0,3,2,1,5,0002-00-0001-93.png,0003-00-0001-72.png
00000009,797,1,1446567826305,1446567826393,950,356,0,0,0,4,3,1,7,0004-00-0000-14.png,0002-00-0000-06.png
00000009,798,1,1446567827338,1446567828497,1047,279,0,0,0,1,0,1,1,0005-00-0001-58.png,0001-00-0001-45.png
00000009,799,0,1446567829494,1446567829514,887,468,0,0,0,3,4,1,7,0002-00-0000-02.png,0004-00-0001-17.png
00000009,800,1,1446567832404,1446567833038,1041,277,0,0,0,2,1,1,3,0003-00-0000-39.png,0005-00-0000-43.png
00000009,801,1,1446567833943,1446567833982,885,388,0,0,0,3,2,1,5,0002-00-0001-95.png,0003-00-0001-79.png
00000009,802,1,1446567835076,1446567835124,888,419,0,0,0,4,3,1,7,0004-00-0001-47.png,0002-00-0000-07.png
00000009,803,1,1446567836202,1446567836236,883,449,0,0,0,1,0,1,1,0005-00-0000-86.png,0001-00-0001-57.png
00000009,804,0,1446567837484,1446567838654,1033,309,0,0,0,2,3,1,5,0003-00-0001-99.png,0002-00-0001-93.png
00000009,805,1,1446567841547,1446567842121,1070,283,0,0,0,2,1,1,3,0003-00-0001-26.png,0005-00-0000-67.png
00000009,806,0,1446567842936,1446567843006,892,441,0,0,0,0,1,1,1,0001-00-0001-53.png,0005-00-0000-80.png
00000009,807,1,1446567845880,1446567846532,480,279,0,0,0,3,4,1,7,0002-00-0000-86.png,0004-00-0000-03.png
00000009,808,1,1446567847393,1446567848610,492,253,0,0,0,1,2,1,3,0005-00-0001-67.png,0003-00-0000-95.png
00000009,809,0,1446567849557,1446567850694,943,366,0,0,0,0,1,1,1,0001-00-0001-75.png,0005-00-0000-84.png
00000009,810,0,1446567853530,1446567854074,474,261,0,0,0,1,0,1,1,0005-00-0001-06.png,0001-00-0000-16.png
00000009,811,0,1446567857289,1446567857317,875,331,0,0,0,3,4,1,7,0002-00-0000-66.png,0004-00-0000-39.png
00000009,812,0,1446567860546,1446567861170,965,331,0,0,0,2,3,1,5,0003-00-0000-63.png,0002-00-0001-04.png
00000009,813,0,1446567864257,1446567864801,478,278,0,0,0,4,3,1,7,0004-00-0001-62.png,0002-00-0000-80.png
00000009,814,1,1446567867972,1446567868000,873,332,0,0,0,3,2,1,5,0002-00-0001-59.png,0003-00-0000-68.png
00000009,815,1,1446567868945,1446567869856,504,246,0,0,0,1,2,1,3,0005-00-0000-02.png,0003-00-0000-26.png
00000009,816,1,1446567870803,1446567872006,1041,280,0,0,0,2,1,1,3,0003-00-0000-28.png,0005-00-0000-09.png
00000009,817,0,1446567872931,1446567872963,862,384,0,0,0,0,1,1,1,0001-00-0001-64.png,0005-00-0001-45.png
00000009,818,1,1446567875982,1446567876495,480,251,0,0,0,3,4,1,7,0002-00-0001-14.png,0004-00-0000-27.png
00000009,819,0,1446567877386,1446567877598,897,534,0,0,0,2,3,1,5,0003-00-0000-76.png,0002-00-0000-52.png
00000009,820,0,1446567880544,1446567881048,486,268,0,0,0,1,0,1,1,0005-00-0000-89.png,0001-00-0000-12.png
00000009,821,1,1446567884179,1446567884221,888,347,0,0,0,3,2,1,5,0002-00-0001-23.png,0003-00-0001-58.png
00000009,822,0,1446567885212,1446567886097,499,251,0,0,0,4,3,1,7,0004-00-0001-55.png,0002-00-0001-69.png
00000009,823,1,1446567888975,1446567889518,1041,284,0,0,0,2,1,1,3,0003-00-0001-68.png,0005-00-0001-51.png
00000009,824,0,1446567890360,1446567890436,894,427,0,0,0,1,2,1,3,0005-00-0000-06.png,0003-00-0000-66.png
00000009,825,0,1446567893581,1446567893649,910,329,0,0,0,2,3,1,5,0003-00-0001-48.png,0002-00-0000-74.png
00000009,826,1,1446567896794,1446567897652,964,422,0,0,0,3,2,1,5,0002-00-0000-46.png,0003-00-0000-11.png
00000009,827,1,1446567899246,1446567899817,1038,301,0,0,0,4,3,1,7,0004-00-0000-24.png,0002-00-0000-37.png
00000009,828,0,1446567900787,1446567900815,865,365,0,0,0,3,4,1,7,0002-00-0000-46.png,0004-00-0001-84.png
00000009,829,0,1446567903685,1446567903749,891,382,0,0,0,0,1,1,1,0001-00-0000-29.png,0005-00-0000-76.png
00000009,830,0,1446567906904,1446567906917,861,329,0,0,0,1,2,1,3,0005-00-0001-13.png,0003-00-0001-69.png
00000009,831,1,1446567910162,1446567910683,1072,277,0,0,0,2,1,1,3,0003-00-0001-05.png,0005-00-0001-44.png
00000009,832,1,1446567911647,1446567911667,865,440,0,0,0,1,0,1,1,0005-00-0001-78.png,0001-00-0001-43.png
00000009,833,0,1446567912660,1446567912749,883,415,0,0,0,1,2,1,3,0005-00-0000-80.png,0003-00-0001-13.png
00000009,834,0,1446567915762,1446567916575,1065,302,0,0,0,0,1,1,1,0001-00-0000-02.png,0005-00-0000-42.png
00000009,835,1,1446567920054,1446567920618,508,271,0,0,0,3,4,1,7,0002-00-0001-13.png,0004-00-0000-84.png
00000009,836,1,1446567921504,1446567922459,932,348,0,0,0,3,2,1,5,0002-00-0001-56.png,0003-00-0001-93.png
00000009,837,1,1446567923415,1446567924401,918,360,0,0,0,2,1,1,3,0003-00-0000-96.png,0005-00-0001-16.png
00000009,838,1,1446567925374,1446567926850,1069,277,0,0,0,1,0,1,1,0005-00-0001-99.png,0001-00-0001-10.png
00000009,839,0,1446567927764,1446567927788,907,394,0,0,0,2,3,1,5,0003-00-0001-57.png,0002-00-0000-12.png
00000009,840,1,1446567931040,1446567931605,1042,303,0,0,0,4,3,1,7,0004-00-0001-43.png,0002-00-0001-72.png
00000009,841,1,1446567932434,1446567932521,859,461,0,0,0,3,2,1,5,0002-00-0000-29.png,0003-00-0000-88.png
00000009,842,1,1446567933690,1446567933722,862,397,0,0,0,4,3,1,7,0004-00-0000-63.png,0002-00-0001-33.png
00000009,843,0,1446567934833,1446567934889,871,462,0,0,0,2,3,1,5,0003-00-0000-82.png,0002-00-0001-81.png
00000009,844,1,1446567938021,1446567938536,483,276,0,0,0,1,2,1,3,0005-00-0001-27.png,0003-00-0001-05.png
00000009,845,1,1446567939474,1446567939506,874,404,0,0,0,2,1,1,3,0003-00-0000-20.png,0005-00-0000-94.png
00000009,846,0,1446567940608,1446567940663,877,433,0,0,0,3,4,1,7,0002-00-0000-68.png,0004-00-0000-44.png
00000009,847,1,1446567943788,1446567944360,940,356,0,0,0,1,0,1,1,0005-00-0001-29.png,0001-00-0001-67.png
00000009,848,1,1446567945731,1446567946388,513,217,0,0,0,0,1,1,1,0001-00-0001-46.png,0005-00-0001-90.png
00000009,849,1,1446567947345,1446567948499,501,248,0,0,0,2,3,1,5,0003-00-0000-58.png,0002-00-0001-87.png
00000009,850,1,1446567949432,1446567949539,895,501,0,0,0,3,2,1,5,0002-00-0000-15.png,0003-00-0001-66.png
00000009,851,0,1446567950671,1446567951732,1037,279,0,0,0,0,1,1,1,0001-00-0000-84.png,0005-00-0001-44.png
00000009,852,0,1446567954866,1446567954891,886,341,0,0,0,3,4,1,7,0002-00-0001-43.png,0004-00-0000-12.png
00000009,853,1,1446567957998,1446567958026,871,331,0,0,0,1,0,1,1,0005-00-0001-88.png,0001-00-0000-04.png
00000009,854,1,1446567959019,1446567959103,862,463,0,0,0,2,1,1,3,0003-00-0001-80.png,0005-00-0000-93.png
00000009,855,1,1446567960234,1446567961355,943,355,0,0,0,4,3,1,7,0004-00-0000-48.png,0002-00-0001-54.png
00000009,856,0,1446567962323,1446567962351,888,437,0,0,0,1,2,1,3,0005-00-0000-02.png,0003-00-0000-41.png
00000009,857,1,1446567965554,1446567966302,970,348,0,0,0,4,3,1,7,0004-00-0001-33.png,0002-00-0001-79.png
00000009,858,0,1446567967208,1446567967264,877,410,0,0,0,1,2,1,3,0005-00-0000-08.png,0003-00-0000-76.png
00000009,859,1,1446567970181,1446567970780,1050,282,0,0,0,2,1,1,3,0003-00-0001-42.png,0005-00-0001-74.png
00000009,860,0,1446567971627,1446567971699,884,446,0,0,0,3,4,1,7,0002-00-0000-75.png,0004-00-0000-85.png
00000009,861,0,1446567974762,1446567975326,1041,281,0,0,0,2,3,1,5,0003-00-0001-98.png,0002-00-0000-79.png
00000009,862,0,1446567978466,1446567978973,504,289,0,0,0,1,0,1,1,0005-00-0000-74.png,0001-00-0001-95.png
00000009,863,0,1446567981812,1446567982391,497,261,0,0,0,3,2,1,5,0002-00-0001-42.png,0003-00-0000-22.png
00000009,864,0,1446567985572,1446567985592,881,348,0,0,0,0,1,1,1,0001-00-0001-06.png,0005-00-0000-72.png
00000009,865,1,1446567988802,1446567988834,890,333,0,0,0,4,3,1,7,0004-00-0000-21.png,0002-00-0000-20.png
00000009,866,0,1446567989825,1446567990791,502,271,0,0,0,1,0,1,1,0005-00-0000-24.png,0001-00-0001-00.png
00000009,867,1,1446567993918,1446567994439,939,358,0,0,0,2,1,1,3,0003-00-0001-25.png,0005-00-0000-80.png
00000009,868,1,1446567995311,1446567996396,457,430,0,0,0,3,4,1,7,0002-00-0001-03.png,0004-00-0000-13.png
00000009,869,0,1446567997374,1446567998277,1039,288,0,0,0,2,3,1,5,0003-00-0000-81.png,0002-00-0001-36.png
00000009,870,1,1446568001208,1446568001228,914,385,0,0,0,3,2,1,5,0002-00-0000-31.png,0003-00-0000-60.png
00000009,871,0,1446568002181,1446568003097,1040,288,0,0,0,0,1,1,1,0001-00-0000-48.png,0005-00-0001-15.png
00000009,872,0,1446568006283,1446568006323,872,332,0,0,0,1,2,1,3,0005-00-0001-44.png,0003-00-0000-10.png
00000009,873,0,1446568009278,1446568010138,964,347,0,0,0,0,1,1,1,0001-00-0000-64.png,0005-00-0000-85.png
00000009,874,1,1446568013341,1446568013962,1044,299,0,0,0,2,1,1,3,0003-00-0000-43.png,0005-00-0000-92.png
00000009,875,1,1446568015443,1446568015571,888,410,0,0,0,3,2,1,5,0002-00-0000-59.png,0003-00-0001-84.png
00000009,876,0,1446568016638,1446568017851,1037,280,0,0,0,2,3,1,5,0003-00-0000-82.png,0002-00-0000-49.png
00000009,877,0,1446568021241,1446568021273,862,332,0,0,0,3,4,1,7,0002-00-0000-38.png,0004-00-0000-48.png
00000009,878,1,1446568024443,1446568024989,501,282,0,0,0,1,2,1,3,0005-00-0000-47.png,0003-00-0001-17.png
00000009,879,1,1446568025914,1446568025942,868,387,0,0,0,4,3,1,7,0004-00-0001-94.png,0002-00-0000-36.png
00000009,880,1,1446568026977,1446568027009,883,413,0,0,0,1,0,1,1,0005-00-0000-07.png,0001-00-0001-07.png
00000009,881,1,1446568028226,1446568028313,871,474,0,0,0,2,1,1,3,0003-00-0000-57.png,0005-00-0001-84.png
00000009,882,0,1446568029561,1446568029628,877,446,0,0,0,1,2,1,3,0005-00-0001-90.png,0003-00-0000-07.png
00000009,883,0,1446568032615,1446568033196,504,291,0,0,0,4,3,1,7,0004-00-0001-12.png,0002-00-0000-65.png
00000009,884,0,1446568036399,1446568036427,864,371,0,0,0,2,3,1,5,0003-00-0001-57.png,0002-00-0001-87.png
00000009,885,0,1446568039504,1446568039549,859,340,0,0,0,0,1,1,1,0001-00-0001-77.png,0005-00-0000-22.png
00000009,886,1,1446568042733,1446568042776,901,346,0,0,0,1,0,1,1,0005-00-0000-76.png,0001-00-0000-41.png
00000009,887,0,1446568043751,1446568043832,862,420,0,0,0,3,4,1,7,0002-00-0001-60.png,0004-00-0001-00.png
00000009,888,1,1446568046795,1446568047408,1041,306,0,0,0,3,2,1,5,0002-00-0000-92.png,0003-00-0000-86.png
00000009,889,0,1446568048332,1446568049302,401,331,0,0,0,2,1,1,3,0003-00-0000-44.png,0005-00-0001-44.png
00000009,890,1,1446568052155,1446568052195,964,393,0,0,0,3,2,1,5,0002-00-0000-55.png,0003-00-0001-13.png
00000009,891,1,1446568053245,1446568054101,1017,275,0,0,0,4,3,1,7,0004-00-0001-26.png,0002-00-0001-57.png
00000009,892,1,1446568055041,1446568056036,922,323,0,0,0,1,0,1,1,0005-00-0001-28.png,0001-00-0001-58.png
00000009,893,0,1446568057029,1446568057065,909,469,0,0,0,2,3,1,5,0003-00-0001-80.png,0002-00-0000-80.png
00000009,894,0,1446568059925,1446568060469,935,328,0,0,0,3,4,1,7,0002-00-0000-42.png,0004-00-0000-16.png
00000009,895,1,1446568063505,1446568064037,504,239,0,0,0,0,1,1,1,0001-00-0001-45.png,0005-00-0000-69.png
00000009,896,0,1446568064896,1446568064946,875,436,0,0,0,1,2,1,3,0005-00-0000-09.png,0003-00-0000-72.png
00000009,897,0,1446568067888,1446568068509,1027,294,0,0,0,0,1,1,1,0001-00-0001-34.png,0005-00-0000-40.png
00000009,898,1,1446568071348,1446568072043,393,363,0,0,0,1,2,1,3,0005-00-0000-59.png,0003-00-0000-38.png
00000009,899,1,1446568072990,1446568074038,943,338,0,0,0,2,1,1,3,0003-00-0000-64.png,0005-00-0000-82.png
00000009,900,1,1446568074958,1446568074995,858,414,0,0,0,4,3,1,7,0004-00-0000-46.png,0002-00-0000-36.png
00000009,901,1,1446568076232,1446568076258,863,422,0,0,0,3,2,1,5,0002-00-0001-04.png,0003-00-0001-76.png
00000009,902,0,1446568077501,1446568077549,907,423,0,0,0,2,3,1,5,0003-00-0001-18.png,0002-00-0001-79.png
00000009,903,1,1446568080945,1446568081613,939,370,0,0,0,1,0,1,1,0005-00-0001-04.png,0001-00-0000-71.png
00000009,904,0,1446568082607,1446568082667,862,446,0,0,0,3,4,1,7,0002-00-0000-67.png,0004-00-0001-95.png
00000009,905,0,1446568085818,1446568085879,922,323,0,0,0,2,3,1,5,0003-00-0001-78.png,0002-00-0001-24.png
00000009,906,0,1446568089047,1446568089653,504,279,0,0,0,1,0,1,1,0005-00-0000-92.png,0001-00-0001-23.png
00000009,907,0,1446568092823,1446568093399,501,267,0,0,0,4,3,1,7,0004-00-0000-02.png,0002-00-0000-42.png
00000009,908,1,1446568096280,1446568096856,1054,280,0,0,0,2,1,1,3,0003-00-0000-61.png,0005-00-0000-58.png
00000009,909,0,1446568097786,1446568097802,893,426,0,0,0,3,4,1,7,0002-00-0000-32.png,0004-00-0000-29.png
00000009,910,1,1446568100971,1446568101549,499,261,0,0,0,1,2,1,3,0005-00-0001-60.png,0003-00-0000-65.png
00000009,911,1,1446568102495,1446568103373,513,241,0,0,0,0,1,1,1,0001-00-0000-09.png,0005-00-0001-94.png
00000009,912,1,1446568104350,1446568104410,906,446,0,0,0,3,2,1,5,0002-00-0000-54.png,0003-00-0001-90.png
00000009,913,0,1446568106497,1446568107417,498,245,0,0,0,4,3,1,7,0004-00-0001-05.png,0002-00-0000-20.png
00000009,914,1,1446568110434,1446568111222,937,349,0,0,0,3,2,1,5,0002-00-0001-20.png,0003-00-0001-76.png
00000009,915,1,1446568112105,1446568113192,492,221,0,0,0,0,1,1,1,0001-00-0001-37.png,0005-00-0000-98.png
00000009,916,1,1446568114106,1446568114949,506,229,0,0,0,1,2,1,3,0005-00-0001-99.png,0003-00-0001-82.png
00000009,917,0,1446568116022,1446568117102,478,253,0,0,0,1,0,1,1,0005-00-0000-40.png,0001-00-0000-41.png
00000009,918,0,1446568120001,1446568120611,1017,276,0,0,0,2,3,1,5,0003-00-0001-83.png,0002-00-0001-29.png
00000009,919,0,1446568123500,1446568123520,861,411,0,0,0,3,4,1,7,0002-00-0001-37.png,0004-00-0001-39.png
00000009,920,1,1446568126692,1446568126904,862,384,0,0,0,2,1,1,3,0003-00-0001-00.png,0005-00-0000-08.png
00000009,921,1,1446568127860,1446568127876,862,410,0,0,0,4,3,1,7,0004-00-0001-24.png,0002-00-0001-31.png
00000009,922,0,1446568128745,1446568128807,859,408,0,0,0,0,1,1,1,0001-00-0000-32.png,0005-00-0000-26.png
00000009,923,0,1446568131965,1446568132017,925,312,0,0,0,2,3,1,5,0003-00-0001-78.png,0002-00-0000-56.png
00000009,924,0,1446568135178,1446568135726,504,242,0,0,0,1,0,1,1,0005-00-0001-20.png,0001-00-0001-12.png
00000009,925,1,1446568138873,1446568138921,923,332,0,0,0,3,2,1,5,0002-00-0000-82.png,0003-00-0000-99.png
00000009,926,0,1446568139869,1446568140965,1065,277,0,0,0,3,4,1,7,0002-00-0000-13.png,0004-00-0000-30.png
00000009,927,1,1446568143973,1446568144570,501,243,0,0,0,1,2,1,3,0005-00-0001-63.png,0003-00-0000-51.png
00000009,928,1,1446568145451,1446568146420,964,426,0,0,0,2,1,1,3,0003-00-0001-16.png,0005-00-0001-63.png
00000009,929,1,1446568147492,1446568147528,878,410,0,0,0,2,1,1,3,0003-00-0000-28.png,0005-00-0000-60.png
00000009,930,0,1446568148660,1446568148688,894,449,0,0,0,1,2,1,3,0005-00-0000-33.png,0003-00-0001-25.png
00000009,931,0,1446568151744,1446568151772,893,392,0,0,0,0,1,1,1,0001-00-0001-72.png,0005-00-0001-04.png
00000009,932,0,1446568154965,1446568155535,948,349,0,0,0,2,3,1,5,0003-00-0000-32.png,0002-00-0001-99.png
00000009,933,0,1446568158688,1446568158700,867,337,0,0,0,3,4,1,7,0002-00-0001-45.png,0004-00-0001-80.png
00000009,934,0,1446568161810,1446568162346,521,260,0,0,0,4,3,1,7,0004-00-0000-25.png,0002-00-0001-11.png
00000009,935,0,1446568165530,1446568166056,477,285,0,0,0,3,2,1,5,0002-00-0000-86.png,0003-00-0001-45.png
00000009,936,0,1446568169265,1446568169927,482,251,0,0,0,1,0,1,1,0005-00-0000-78.png,0001-00-0000-36.png
00000009,937,0,1446568172971,1446568173517,1040,287,0,0,0,2,3,1,5,0003-00-0000-31.png,0002-00-0001-43.png
00000009,938,1,1446568176706,1446568176903,967,303,0,0,0,4,3,1,7,0004-00-0000-73.png,0002-00-0000-52.png
00000009,939,1,1446568177899,1446568178021,873,462,0,0,0,3,2,1,5,0002-00-0001-77.png,0003-00-0000-42.png
00000009,940,0,1446568179174,1446568179234,913,396,0,0,0,0,1,1,1,0001-00-0000-54.png,0005-00-0000-58.png
00000009,941,1,1446568182365,1446568182488,874,294,0,0,0,2,1,1,3,0003-00-0000-80.png,0005-00-0001-76.png
00000009,942,0,1446568183424,1446568183464,862,397,0,0,0,3,4,1,7,0002-00-0000-20.png,0004-00-0000-34.png
00000009,943,0,1446568186387,1446568187029,481,281,0,0,0,1,0,1,1,0005-00-0000-97.png,0001-00-0001-51.png
00000009,944,1,1446568190112,1446568190647,509,243,0,0,0,1,2,1,3,0005-00-0000-10.png,0003-00-0000-15.png
00000009,945,1,1446568192075,1446568192935,494,241,0,0,0,1,2,1,3,0005-00-0000-56.png,0003-00-0000-81.png
00000009,946,1,1446568193852,1446568195469,946,323,0,0,0,4,3,1,7,0004-00-0001-86.png,0002-00-0000-46.png
00000009,947,1,1446568196483,1446568196571,888,422,0,0,0,3,2,1,5,0002-00-0001-46.png,0003-00-0000-92.png
00000009,948,1,1446568197650,1446568198680,510,267,0,0,0,3,4,1,7,0002-00-0000-40.png,0004-00-0001-72.png
00000009,949,0,1446568199634,1446568199666,886,428,0,0,0,2,3,1,5,0003-00-0000-00.png,0002-00-0000-49.png
00000009,950,0,1446568202775,1446568202811,897,332,0,0,0,0,1,1,1,0001-00-0000-64.png,0005-00-0001-83.png
