subject_id,trial,correct_response,stim_time,response_time,x_coord,y_coord,trial_timeout,timeout_time,interTrial_timeout,left_rank,right_rank,distance,joint_rank,left_image,right_image
00000009,1,0,1446497012822,1446497013791,413,392,0,0,0,3,2,1,5,0002-00-0001-20.png,0003-00-0000-87.png
00000009,2,1,1446497017368,1446497017881,1016,345,0,0,0,1,0,1,1,0005-00-0000-67.png,0001-00-0000-68.png
00000009,3,0,1446497019034,1446497019113,909,388,0,0,0,1,2,1,3,0005-00-0000-69.png,0003-00-0001-17.png
00000009,4,0,1446497022266,1446497022863,1103,265,0,0,0,3,4,1,7,0002-00-0001-71.png,0004-00-0000-62.png
00000009,5,0,1446497025984,1446497026560,964,393,0,0,0,2,3,1,5,0003-00-0001-67.png,0002-00-0001-29.png
00000009,6,1,1446497029709,1446497030535,1118,264,0,0,0,2,1,1,3,0003-00-0001-79.png,0005-00-0000-54.png
00000009,7,0,1446497031489,1446497031581,964,410,0,0,0,0,1,1,1,0001-00-0001-76.png,0005-00-0000-06.png
00000009,8,1,1446497034767,1446497035310,1092,279,0,0,0,4,3,1,7,0004-00-0000-24.png,0002-00-0000-77.png
00000009,9,0,1446497036692,1446497037538,964,394,0,0,0,2,3,1,5,0003-00-0001-40.png,0002-00-0000-44.png
00000009,10,0,1446497040901,1446497041474,482,278,0,0,0,3,2,1,5,0002-00-0001-24.png,0003-00-0001-72.png
00000009,11,1,1446497044935,1446497045585,364,344,0,0,0,3,4,1,7,0002-00-0000-07.png,0004-00-0000-21.png
00000009,12,1,1446497046693,1446497046749,881,416,0,0,0,4,3,1,7,0004-00-0000-64.png,0002-00-0000-03.png
00000009,13,1,1446497048193,1446497048738,377,384,0,0,0,1,2,1,3,0005-00-0001-87.png,0003-00-0001-30.png
00000009,14,1,1446497049662,1446497049742,901,416,0,0,0,1,0,1,1,0005-00-0000-06.png,0001-00-0001-57.png
00000009,15,1,1446497050885,1446497050949,879,410,0,0,0,2,1,1,3,0003-00-0001-97.png,0005-00-0000-82.png
00000009,16,0,1446497052078,1446497052126,862,384,0,0,0,0,1,1,1,0001-00-0000-38.png,0005-00-0000-31.png
00000009,17,1,1446497055895,1446497056494,466,231,0,0,0,0,1,1,1,0001-00-0000-82.png,0005-00-0001-01.png
00000009,18,1,1446497057374,1446497058112,354,370,0,0,0,3,4,1,7,0002-00-0000-56.png,0004-00-0000-94.png
00000009,19,0,1446497059023,1446497059083,870,423,0,0,0,2,3,1,5,0003-00-0001-26.png,0002-00-0001-12.png
00000009,20,1,1446497062505,1446497062981,964,425,0,0,0,3,2,1,5,0002-00-0001-08.png,0003-00-0001-10.png
00000009,21,1,1446497063937,1446497064001,929,354,0,0,0,1,0,1,1,0005-00-0001-78.png,0001-00-0000-97.png
00000009,22,1,1446497065137,1446497065217,875,410,0,0,0,4,3,1,7,0004-00-0001-15.png,0002-00-0001-92.png
00000009,23,0,1446497066377,1446497066469,913,436,0,0,0,1,2,1,3,0005-00-0001-98.png,0003-00-0001-69.png
00000009,24,1,1446497069578,1446497070123,942,420,0,0,0,2,1,1,3,0003-00-0001-16.png,0005-00-0001-23.png
00000009,25,0,1446497071077,1446497071105,907,400,0,0,0,3,4,1,7,0002-00-0001-04.png,0004-00-0000-27.png
00000009,26,1,1446497074161,1446497074686,381,353,0,0,0,1,2,1,3,0005-00-0001-57.png,0003-00-0001-13.png
00000009,27,0,1446497075571,1446497075599,890,419,0,0,0,2,3,1,5,0003-00-0001-16.png,0002-00-0000-89.png
00000009,28,0,1446497078610,1446497079169,458,238,0,0,0,4,3,1,7,0004-00-0000-11.png,0002-00-0000-34.png
00000009,29,0,1446497082310,1446497082468,491,416,0,0,0,1,0,1,1,0005-00-0001-43.png,0001-00-0001-07.png
00000009,30,1,1446497085646,1446497085667,865,332,0,0,0,3,2,1,5,0002-00-0000-23.png,0003-00-0001-77.png
00000009,31,0,1446497086662,1446497087887,1050,253,0,0,0,0,1,1,1,0001-00-0001-08.png,0005-00-0000-90.png
00000009,32,1,1446497091024,1446497091667,1014,328,0,0,0,2,1,1,3,0003-00-0001-56.png,0005-00-0000-20.png
00000009,33,0,1446497092625,1446497092657,875,412,0,0,0,2,3,1,5,0003-00-0001-21.png,0002-00-0000-84.png
00000009,34,1,1446497095716,1446497095760,901,304,0,0,0,4,3,1,7,0004-00-0000-25.png,0002-00-0001-65.png
00000009,35,0,1446497096770,1446497097498,379,342,0,0,0,3,2,1,5,0002-00-0001-67.png,0003-00-0000-81.png
00000009,36,1,1446497100615,1446497101194,487,221,0,0,0,3,4,1,7,0002-00-0000-40.png,0004-00-0001-37.png
00000009,37,1,1446497102043,1446497102083,867,429,0,0,0,2,1,1,3,0003-00-0001-32.png,0005-00-0001-54.png
00000009,38,0,1446497103019,1446497103850,443,245,0,0,0,1,0,1,1,0005-00-0000-37.png,0001-00-0000-45.png
00000009,39,1,1446497107024,1446497107790,373,351,0,0,0,1,2,1,3,0005-00-0001-14.png,0003-00-0001-80.png
00000009,40,0,1446497108697,1446497109418,919,325,0,0,0,0,1,1,1,0001-00-0000-69.png,0005-00-0000-49.png
00000009,41,0,1446497112291,1446497112801,476,244,0,0,0,3,2,1,5,0002-00-0000-97.png,0003-00-0001-99.png
00000009,42,1,1446497115907,1446497116015,862,410,0,0,0,4,3,1,7,0004-00-0000-52.png,0002-00-0000-35.png
00000009,43,1,1446497116903,1446497116939,879,366,0,0,0,1,0,1,1,0005-00-0001-19.png,0001-00-0001-63.png
00000009,44,1,1446497117825,1446497118828,1032,272,0,0,0,2,1,1,3,0003-00-0001-28.png,0005-00-0001-40.png
00000009,45,0,1446497119774,1446497119798,885,347,0,0,0,0,1,1,1,0001-00-0001-54.png,0005-00-0000-42.png
00000009,46,0,1446497123034,1446497123240,934,307,0,0,0,3,4,1,7,0002-00-0001-89.png,0004-00-0000-30.png
00000009,47,1,1446497126413,1446497126953,496,228,0,0,0,1,2,1,3,0005-00-0001-16.png,0003-00-0000-43.png
00000009,48,0,1446497127792,1446497128592,960,354,0,0,0,2,3,1,5,0003-00-0000-92.png,0002-00-0001-97.png
00000009,49,0,1446497131711,1446497132265,974,404,0,0,0,2,3,1,5,0003-00-0000-32.png,0002-00-0000-10.png
00000009,50,1,1446497135417,1446497135442,934,273,0,0,0,1,0,1,1,0005-00-0001-79.png,0001-00-0001-28.png
00000009,51,0,1446497136391,1446497137316,441,231,0,0,0,4,3,1,7,0004-00-0000-98.png,0002-00-0000-95.png
00000009,52,1,1446497140445,1446497141104,357,377,0,0,0,3,4,1,7,0002-00-0000-17.png,0004-00-0000-47.png
00000009,53,1,1446497141945,1446497143059,466,228,0,0,0,0,1,1,1,0001-00-0000-59.png,0005-00-0000-20.png
00000009,54,1,1446497143994,1446497144018,860,395,0,0,0,2,1,1,3,0003-00-0001-04.png,0005-00-0000-21.png
00000009,55,0,1446497145167,1446497145203,870,411,0,0,0,1,2,1,3,0005-00-0001-18.png,0003-00-0000-40.png
00000009,56,0,1446497148315,1446497148771,376,353,0,0,0,3,2,1,5,0002-00-0001-20.png,0003-00-0000-18.png
00000009,57,0,1446497151844,1446497152399,1064,289,0,0,0,2,3,1,5,0003-00-0000-71.png,0002-00-0001-03.png
00000009,58,1,1446497155512,1446497156050,486,235,0,0,0,0,1,1,1,0001-00-0000-46.png,0005-00-0001-75.png
00000009,59,1,1446497156932,1446497157817,1069,280,0,0,0,2,1,1,3,0003-00-0001-68.png,0005-00-0000-96.png
00000009,60,1,1446497158733,1446497158769,870,384,0,0,0,1,0,1,1,0005-00-0001-83.png,0001-00-0001-01.png
00000009,61,1,1446497159815,1446497160765,1067,279,0,0,0,4,3,1,7,0004-00-0001-09.png,0002-00-0000-58.png
00000009,62,1,1446497161682,1446497161710,895,386,0,0,0,3,2,1,5,0002-00-0000-96.png,0003-00-0000-98.png
00000009,63,0,1446497162794,1446497162842,884,409,0,0,0,3,4,1,7,0002-00-0000-99.png,0004-00-0000-37.png
00000009,64,1,1446497166115,1446497166653,400,336,0,0,0,1,2,1,3,0005-00-0001-12.png,0003-00-0000-14.png
00000009,65,0,1446497167513,1446497167541,862,384,0,0,0,3,4,1,7,0002-00-0000-06.png,0004-00-0001-28.png
00000009,66,1,1446497170654,1446497170883,952,283,0,0,0,3,2,1,5,0002-00-0000-20.png,0003-00-0001-11.png
00000009,67,0,1446497171849,1446497171893,895,403,0,0,0,1,2,1,3,0005-00-0001-89.png,0003-00-0000-49.png
00000009,68,1,1446497174789,1446497175357,1101,262,0,0,0,1,0,1,1,0005-00-0001-19.png,0001-00-0001-98.png
00000009,69,1,1446497176220,1446497177085,941,356,0,0,0,2,1,1,3,0003-00-0000-18.png,0005-00-0000-80.png
00000009,70,1,1446497178063,1446497178081,912,399,0,0,0,4,3,1,7,0004-00-0001-84.png,0002-00-0000-60.png
00000009,71,0,1446497179162,1446497179198,894,403,0,0,0,0,1,1,1,0001-00-0001-07.png,0005-00-0001-76.png
00000009,72,0,1446497182193,1446497182229,866,364,0,0,0,2,3,1,5,0003-00-0000-74.png,0002-00-0000-33.png
00000009,73,1,1446497185095,1446497185131,869,325,0,0,0,4,3,1,7,0004-00-0001-82.png,0002-00-0000-21.png
00000009,74,1,1446497186116,1446497186168,870,401,0,0,0,1,0,1,1,0005-00-0001-45.png,0001-00-0000-44.png
00000009,75,1,1446497187111,1446497187963,1058,246,0,0,0,2,1,1,3,0003-00-0000-26.png,0005-00-0000-99.png
00000009,76,0,1446497188816,1446497189580,391,384,0,0,0,3,2,1,5,0002-00-0001-26.png,0003-00-0001-88.png
00000009,77,1,1446497192688,1446497193215,427,269,0,0,0,1,2,1,3,0005-00-0000-23.png,0003-00-0001-56.png
00000009,78,0,1446497194067,1446497194850,1081,296,0,0,0,2,3,1,5,0003-00-0000-90.png,0002-00-0001-35.png
00000009,79,1,1446497197990,1446497198537,512,238,0,0,0,0,1,1,1,0001-00-0001-81.png,0005-00-0000-75.png
00000009,80,0,1446497199380,1446497200144,1041,266,0,0,0,3,4,1,7,0002-00-0000-18.png,0004-00-0000-48.png
00000009,81,1,1446497203083,1446497203099,863,406,0,0,0,4,3,1,7,0004-00-0001-66.png,0002-00-0001-77.png
00000009,82,0,1446497204056,1446497204146,890,422,0,0,0,3,4,1,7,0002-00-0001-17.png,0004-00-0000-85.png
00000009,83,1,1446497207297,1446497207953,362,330,0,0,0,0,1,1,1,0001-00-0001-12.png,0005-00-0000-51.png
00000009,84,0,1446497208815,1446497210226,366,410,0,0,0,3,2,1,5,0002-00-0000-79.png,0003-00-0001-23.png
00000009,85,0,1446497213096,1446497213672,939,345,0,0,0,2,3,1,5,0003-00-0001-96.png,0002-00-0000-55.png
00000009,86,0,1446497216726,1446497217620,431,311,0,0,0,1,0,1,1,0005-00-0000-15.png,0001-00-0000-92.png
00000009,87,1,1446497220743,1446497220823,890,304,0,0,0,2,1,1,3,0003-00-0000-44.png,0005-00-0001-60.png
00000009,88,0,1446497221735,1446497221791,879,384,0,0,0,1,2,1,3,0005-00-0001-38.png,0003-00-0000-98.png
00000009,89,1,1446497224875,1446497225478,973,350,0,0,0,2,1,1,3,0003-00-0000-39.png,0005-00-0000-93.png
00000009,90,1,1446497226356,1446497226392,862,401,0,0,0,4,3,1,7,0004-00-0001-13.png,0002-00-0001-26.png
00000009,91,0,1446497227527,1446497227567,862,375,0,0,0,3,4,1,7,0002-00-0000-57.png,0004-00-0000-77.png
00000009,92,1,1446497230628,1446497231172,490,265,0,0,0,1,2,1,3,0005-00-0001-12.png,0003-00-0000-49.png
00000009,93,1,1446497232020,1446497232894,466,240,0,0,0,0,1,1,1,0001-00-0000-62.png,0005-00-0001-33.png
00000009,94,0,1446497233797,1446497233873,864,451,0,0,0,2,3,1,5,0003-00-0001-60.png,0002-00-0000-37.png
00000009,95,1,1446497237060,1446497237068,899,272,0,0,0,1,0,1,1,0005-00-0001-36.png,0001-00-0001-03.png
00000009,96,0,1446497237962,1446497238956,451,248,0,0,0,3,2,1,5,0002-00-0001-96.png,0003-00-0001-74.png
00000009,97,0,1446497241979,1446497242142,913,395,0,0,0,1,2,1,3,0005-00-0000-53.png,0003-00-0000-97.png
00000009,98,0,1446497245305,1446497245857,363,341,0,0,0,4,3,1,7,0004-00-0000-01.png,0002-00-0001-71.png
00000009,99,1,1446497248746,1446497248762,896,304,0,0,0,3,2,1,5,0002-00-0000-69.png,0003-00-0000-13.png
00000009,100,0,1446497249672,1446497250335,951,333,0,0,0,2,3,1,5,0003-00-0001-33.png,0002-00-0001-48.png
00000009,101,0,1446497253368,1446497253592,969,297,0,0,0,0,1,1,1,0001-00-0001-24.png,0005-00-0001-00.png
00000009,102,0,1446497256496,1446497256627,873,351,0,0,0,3,4,1,7,0002-00-0000-32.png,0004-00-0000-96.png
00000009,103,1,1446497259678,1446497259734,888,318,0,0,0,2,1,1,3,0003-00-0001-75.png,0005-00-0001-18.png
00000009,104,1,1446497260581,1446497260648,865,404,0,0,0,1,0,1,1,0005-00-0001-54.png,0001-00-0001-81.png
00000009,105,1,1446497261714,1446497261782,888,410,0,0,0,1,0,1,1,0005-00-0000-34.png,0001-00-0000-61.png
00000009,106,1,1446497262870,1446497262914,872,438,0,0,0,4,3,1,7,0004-00-0001-82.png,0002-00-0000-51.png
00000009,107,1,1446497264099,1446497264147,868,413,0,0,0,2,1,1,3,0003-00-0000-98.png,0005-00-0001-78.png
00000009,108,0,1446497265364,1446497265452,877,462,0,0,0,3,4,1,7,0002-00-0000-75.png,0004-00-0001-75.png
00000009,109,1,1446497268553,1446497269193,478,263,0,0,0,0,1,1,1,0001-00-0001-23.png,0005-00-0001-16.png
00000009,110,1,1446497270549,1446497270611,872,384,0,0,0,3,2,1,5,0002-00-0001-86.png,0003-00-0001-84.png
00000009,111,0,1446497271604,1446497272288,1053,279,0,0,0,2,3,1,5,0003-00-0001-78.png,0002-00-0001-79.png
00000009,112,1,1446497275400,1446497275946,473,247,0,0,0,1,2,1,3,0005-00-0001-52.png,0003-00-0000-30.png
00000009,113,1,1446497276852,1446497276880,876,420,0,0,0,3,2,1,5,0002-00-0001-77.png,0003-00-0000-95.png
00000009,114,0,1446497277734,1446497277790,862,436,0,0,0,1,2,1,3,0005-00-0001-91.png,0003-00-0000-32.png
00000009,115,0,1446497280836,1446497281320,489,267,0,0,0,1,0,1,1,0005-00-0001-87.png,0001-00-0000-33.png
00000009,116,1,1446497284323,1446497285126,924,344,0,0,0,2,1,1,3,0003-00-0000-35.png,0005-00-0001-76.png
00000009,117,0,1446497286589,1446497287189,1067,268,0,0,0,2,3,1,5,0003-00-0000-15.png,0002-00-0001-74.png
00000009,118,0,1446497290089,1446497290834,943,324,0,0,0,0,1,1,1,0001-00-0000-03.png,0005-00-0000-23.png
00000009,119,1,1446497293930,1446497294097,862,423,0,0,0,4,3,1,7,0004-00-0000-74.png,0002-00-0001-64.png
00000009,120,0,1446497294985,1446497295128,913,423,0,0,0,3,4,1,7,0002-00-0000-15.png,0004-00-0001-46.png
00000009,121,1,1446497298298,1446497298936,941,329,0,0,0,2,1,1,3,0003-00-0000-06.png,0005-00-0000-52.png
00000009,122,0,1446497299775,1446497299870,913,410,0,0,0,1,2,1,3,0005-00-0000-44.png,0003-00-0000-40.png
00000009,123,1,1446497303207,1446497303762,962,329,0,0,0,1,0,1,1,0005-00-0001-78.png,0001-00-0001-49.png
00000009,124,1,1446497305124,1446497305869,427,384,0,0,0,0,1,1,1,0001-00-0001-67.png,0005-00-0000-00.png
00000009,125,0,1446497307292,1446497308042,965,330,0,0,0,2,3,1,5,0003-00-0000-49.png,0002-00-0000-55.png
00000009,126,0,1446497311303,1446497311913,443,436,0,0,0,3,2,1,5,0002-00-0000-28.png,0003-00-0001-85.png
00000009,127,0,1446497315267,1446497315960,450,262,0,0,0,4,3,1,7,0004-00-0001-73.png,0002-00-0000-66.png
00000009,128,0,1446497319133,1446497319806,1072,277,0,0,0,3,4,1,7,0002-00-0001-85.png,0004-00-0000-50.png
00000009,129,1,1446497322912,1446497323369,396,393,0,0,0,1,2,1,3,0005-00-0000-63.png,0003-00-0000-74.png
00000009,130,1,1446497324252,1446497325742,350,369,0,0,0,0,1,1,1,0001-00-0001-07.png,0005-00-0001-66.png
00000009,131,1,1446497326716,1446497326766,888,410,0,0,0,2,1,1,3,0003-00-0000-50.png,0005-00-0000-24.png
00000009,132,0,1446497327881,1446497327937,896,440,0,0,0,3,4,1,7,0002-00-0000-39.png,0004-00-0000-62.png
00000009,133,0,1446497331060,1446497331253,912,337,0,0,0,2,3,1,5,0003-00-0001-11.png,0002-00-0000-76.png
00000009,134,1,1446497334397,1446497334925,1078,266,0,0,0,4,3,1,7,0004-00-0000-18.png,0002-00-0000-89.png
00000009,135,0,1446497336233,1446497336839,438,265,0,0,0,1,0,1,1,0005-00-0000-15.png,0001-00-0001-79.png
00000009,136,0,1446497339955,1446497340508,506,282,0,0,0,3,2,1,5,0002-00-0001-37.png,0003-00-0001-95.png
00000009,137,1,1446497343603,1446497344408,1042,256,0,0,0,1,0,1,1,0005-00-0000-18.png,0001-00-0001-41.png
00000009,138,0,1446497345292,1446497346228,444,250,0,0,0,3,2,1,5,0002-00-0000-95.png,0003-00-0001-59.png
00000009,139,0,1446497349403,1446497349435,936,300,0,0,0,1,2,1,3,0005-00-0001-68.png,0003-00-0001-12.png
00000009,140,0,1446497352628,1446497353125,980,355,0,0,0,2,3,1,5,0003-00-0000-30.png,0002-00-0001-86.png
00000009,141,1,1446497356820,1446497357393,363,362,0,0,0,3,4,1,7,0002-00-0000-07.png,0004-00-0000-19.png
00000009,142,0,1446497358226,1446497359242,1041,253,0,0,0,0,1,1,1,0001-00-0000-02.png,0005-00-0000-92.png
00000009,143,1,1446497362337,1446497362513,873,355,0,0,0,4,3,1,7,0004-00-0001-41.png,0002-00-0000-94.png
00000009,144,1,1446497363478,1446497363502,904,416,0,0,0,2,1,1,3,0003-00-0001-69.png,0005-00-0001-26.png
00000009,145,1,1446497364431,1446497364507,871,428,0,0,0,2,1,1,3,0003-00-0001-39.png,0005-00-0000-04.png
00000009,146,1,1446497365572,1446497365620,888,420,0,0,0,3,2,1,5,0002-00-0001-48.png,0003-00-0000-09.png
00000009,147,1,1446497366877,1446497366944,902,436,0,0,0,4,3,1,7,0004-00-0000-86.png,0002-00-0001-25.png
00000009,148,1,1446497367999,1446497369293,451,241,0,0,0,1,2,1,3,0005-00-0000-03.png,0003-00-0001-25.png
00000009,149,1,1446497370204,1446497371106,959,321,0,0,0,1,0,1,1,0005-00-0000-31.png,0001-00-0000-08.png
00000009,150,0,1446497372032,1446497372068,932,417,0,0,0,0,1,1,1,0001-00-0000-23.png,0005-00-0000-92.png
00000009,151,1,1446497374896,1446497375665,423,252,0,0,0,3,4,1,7,0002-00-0001-49.png,0004-00-0001-62.png
00000009,152,0,1446497376534,1446497376562,861,448,0,0,0,2,3,1,5,0003-00-0000-91.png,0002-00-0001-60.png
00000009,153,1,1446497379637,1446497380377,964,410,0,0,0,2,1,1,3,0003-00-0000-56.png,0005-00-0000-83.png
00000009,154,0,1446497381264,1446497381276,890,444,0,0,0,1,2,1,3,0005-00-0001-71.png,0003-00-0000-58.png
00000009,155,1,1446497384156,1446497384176,984,306,0,0,0,1,0,1,1,0005-00-0001-25.png,0001-00-0001-09.png
00000009,156,0,1446497385095,1446497386116,951,347,0,0,0,0,1,1,1,0001-00-0000-36.png,0005-00-0000-31.png
00000009,157,1,1446497389224,1446497389805,494,267,0,0,0,3,4,1,7,0002-00-0001-18.png,0004-00-0000-98.png
00000009,158,1,1446497390686,1446497391463,959,346,0,0,0,4,3,1,7,0004-00-0000-63.png,0002-00-0001-35.png
00000009,159,1,1446497392397,1446497392433,913,384,0,0,0,3,2,1,5,0002-00-0000-91.png,0003-00-0001-28.png
00000009,160,0,1446497393519,1446497393575,862,410,0,0,0,2,3,1,5,0003-00-0001-26.png,0002-00-0000-67.png
00000009,161,1,1446497396528,1446497397232,357,379,0,0,0,0,1,1,1,0001-00-0000-13.png,0005-00-0001-15.png
00000009,162,1,1446497398616,1446497399390,1092,279,0,0,0,4,3,1,7,0004-00-0001-65.png,0002-00-0001-79.png
00000009,163,0,1446497400336,1446497400352,922,389,0,0,0,3,4,1,7,0002-00-0000-95.png,0004-00-0000-19.png
00000009,164,0,1446497403526,1446497404077,469,251,0,0,0,3,2,1,5,0002-00-0001-94.png,0003-00-0000-76.png
00000009,165,0,1446497406943,1446497406979,880,291,0,0,0,1,2,1,3,0005-00-0001-18.png,0003-00-0001-99.png
00000009,166,0,1446497409976,1446497410079,954,289,0,0,0,2,3,1,5,0003-00-0001-25.png,0002-00-0001-50.png
00000009,167,1,1446497413237,1446497413273,939,285,0,0,0,2,1,1,3,0003-00-0001-81.png,0005-00-0000-89.png
00000009,168,1,1446497414218,1446497415136,1064,277,0,0,0,1,0,1,1,0005-00-0001-19.png,0001-00-0000-18.png
00000009,169,0,1446497416015,1446497416035,931,390,0,0,0,3,4,1,7,0002-00-0000-64.png,0004-00-0000-86.png
00000009,170,1,1446497419127,1446497419653,1063,263,0,0,0,1,0,1,1,0005-00-0001-06.png,0001-00-0000-24.png
00000009,171,1,1446497420927,1446497421761,1055,261,0,0,0,2,1,1,3,0003-00-0000-39.png,0005-00-0000-16.png
00000009,172,0,1446497422636,1446497422692,915,420,0,0,0,1,2,1,3,0005-00-0001-93.png,0003-00-0001-58.png
00000009,173,0,1446497425646,1446497426174,478,279,0,0,0,3,2,1,5,0002-00-0001-52.png,0003-00-0001-08.png
00000009,174,1,1446497429096,1446497429666,468,226,0,0,0,0,1,1,1,0001-00-0001-73.png,0005-00-0000-85.png
00000009,175,1,1446497430491,1446497430543,888,410,0,0,0,4,3,1,7,0004-00-0001-79.png,0002-00-0000-56.png
00000009,176,0,1446497431421,1446497431466,893,401,0,0,0,2,3,1,5,0003-00-0001-20.png,0002-00-0000-83.png
00000009,177,1,1446497434362,1446497435055,942,323,0,0,0,1,0,1,1,0005-00-0000-46.png,0001-00-0001-56.png
00000009,178,0,1446497435890,1446497436813,1071,298,0,0,0,2,3,1,5,0003-00-0000-16.png,0002-00-0001-77.png
00000009,179,1,1446497439988,1446497440619,479,255,0,0,0,1,2,1,3,0005-00-0000-88.png,0003-00-0000-41.png
00000009,180,1,1446497441487,1446497442628,964,410,0,0,0,2,1,1,3,0003-00-0000-83.png,0005-00-0000-32.png
00000009,181,1,1446497443536,1446497443572,886,380,0,0,0,4,3,1,7,0004-00-0001-97.png,0002-00-0000-04.png
00000009,182,0,1446497444546,1446497445398,482,218,0,0,0,3,2,1,5,0002-00-0000-49.png,0003-00-0001-61.png
00000009,183,0,1446497448322,1446497448350,901,358,0,0,0,0,1,1,1,0001-00-0000-25.png,0005-00-0000-15.png
00000009,184,0,1446497451465,1446497452176,1090,289,0,0,0,3,4,1,7,0002-00-0000-57.png,0004-00-0000-06.png
00000009,185,1,1446497455062,1446497455556,372,368,0,0,0,1,2,1,3,0005-00-0001-36.png,0003-00-0000-00.png
00000009,186,0,1446497456410,1446497456482,877,436,0,0,0,0,1,1,1,0001-00-0000-29.png,0005-00-0000-94.png
00000009,187,0,1446497459615,1446497460150,1092,264,0,0,0,2,3,1,5,0003-00-0000-90.png,0002-00-0001-47.png
00000009,188,0,1446497463314,1446497463835,488,268,0,0,0,3,2,1,5,0002-00-0000-30.png,0003-00-0000-53.png
00000009,189,1,1446497466961,1446497467633,986,323,0,0,0,4,3,1,7,0004-00-0000-15.png,0002-00-0001-05.png
00000009,190,1,1446497468997,1446497469606,939,330,0,0,0,1,0,1,1,0005-00-0001-51.png,0001-00-0001-25.png
00000009,191,1,1446497470504,1446497470540,878,410,0,0,0,2,1,1,3,0003-00-0000-47.png,0005-00-0000-31.png
00000009,192,0,1446497471580,1446497471616,862,398,0,0,0,3,4,1,7,0002-00-0000-26.png,0004-00-0001-07.png
00000009,193,1,1446497475705,1446497475721,899,299,0,0,0,2,1,1,3,0003-00-0000-75.png,0005-00-0000-95.png
00000009,194,0,1446497476668,1446497477306,943,307,0,0,0,2,3,1,5,0003-00-0001-51.png,0002-00-0000-30.png
00000009,195,1,1446497480403,1446497481162,502,240,0,0,0,3,4,1,7,0002-00-0000-58.png,0004-00-0001-74.png
00000009,196,1,1446497482589,1446497483444,369,371,0,0,0,1,2,1,3,0005-00-0000-92.png,0003-00-0001-68.png
00000009,197,1,1446497484297,1446497485254,462,240,0,0,0,0,1,1,1,0001-00-0000-15.png,0005-00-0001-53.png
00000009,198,0,1446497486198,1446497487057,489,237,0,0,0,4,3,1,7,0004-00-0001-34.png,0002-00-0001-37.png
00000009,199,0,1446497490280,1446497490788,437,292,0,0,0,3,2,1,5,0002-00-0001-22.png,0003-00-0000-45.png
00000009,200,1,1446497493842,1446497494349,960,327,0,0,0,1,0,1,1,0005-00-0001-56.png,0001-00-0000-60.png
00000009,201,0,1446497495197,1446497495335,956,459,0,0,0,2,3,1,5,0003-00-0000-92.png,0002-00-0000-12.png
00000009,202,1,1446497498203,1446497498846,1040,276,0,0,0,4,3,1,7,0004-00-0000-04.png,0002-00-0001-69.png
00000009,203,1,1446497499711,1446497499739,888,400,0,0,0,3,2,1,5,0002-00-0000-40.png,0003-00-0000-37.png
00000009,204,1,1446497500668,1446497501657,475,240,0,0,0,0,1,1,1,0001-00-0001-55.png,0005-00-0001-74.png
00000009,205,0,1446497502546,1446497502574,884,410,0,0,0,1,2,1,3,0005-00-0000-91.png,0003-00-0000-27.png
00000009,206,1,1446497505678,1446497505743,929,306,0,0,0,1,0,1,1,0005-00-0000-88.png,0001-00-0000-64.png
00000009,207,1,1446497506629,1446497506677,862,436,0,0,0,2,1,1,3,0003-00-0001-21.png,0005-00-0001-24.png
00000009,208,0,1446497507683,1446497507727,873,421,0,0,0,3,4,1,7,0002-00-0000-04.png,0004-00-0000-62.png
00000009,209,1,1446497510854,1446497511355,419,331,0,0,0,3,4,1,7,0002-00-0001-14.png,0004-00-0000-29.png
00000009,210,1,1446497512811,1446497513460,1056,246,0,0,0,2,1,1,3,0003-00-0001-18.png,0005-00-0001-73.png
00000009,211,1,1446497514297,1446497514369,903,410,0,0,0,3,2,1,5,0002-00-0001-37.png,0003-00-0000-07.png
00000009,212,0,1446497515351,1446497515380,866,387,0,0,0,0,1,1,1,0001-00-0001-50.png,0005-00-0001-52.png
00000009,213,0,1446497518434,1446497518944,502,248,0,0,0,4,3,1,7,0004-00-0001-84.png,0002-00-0000-87.png
00000009,214,1,1446497522081,1446497522615,1096,252,0,0,0,1,0,1,1,0005-00-0001-64.png,0001-00-0001-57.png
00000009,215,0,1446497523922,1446497524737,937,316,0,0,0,2,3,1,5,0003-00-0001-56.png,0002-00-0000-86.png
00000009,216,1,1446497527689,1446497528262,516,279,0,0,0,1,2,1,3,0005-00-0001-67.png,0003-00-0000-78.png
00000009,217,1,1446497529127,1446497529905,389,317,0,0,0,0,1,1,1,0001-00-0001-57.png,0005-00-0001-32.png
00000009,218,1,1446497530836,1446497530874,894,395,0,0,0,3,2,1,5,0002-00-0000-31.png,0003-00-0000-34.png
00000009,219,1,1446497531891,1446497531919,862,410,0,0,0,2,1,1,3,0003-00-0001-50.png,0005-00-0001-54.png
00000009,220,0,1446497532953,1446497533831,412,306,0,0,0,1,0,1,1,0005-00-0001-21.png,0001-00-0000-33.png
00000009,221,0,1446497536979,1446497537173,886,345,0,0,0,3,4,1,7,0002-00-0001-73.png,0004-00-0001-38.png
00000009,222,1,1446497540300,1446497540856,453,398,0,0,0,1,2,1,3,0005-00-0001-79.png,0003-00-0001-98.png
00000009,223,1,1446497541696,1446497541748,862,395,0,0,0,4,3,1,7,0004-00-0001-16.png,0002-00-0000-99.png
00000009,224,0,1446497542581,1446497543528,1056,308,0,0,0,2,3,1,5,0003-00-0001-20.png,0002-00-0000-84.png
00000009,225,0,1446497546684,1446497547154,478,268,0,0,0,2,1,1,3,0003-00-0000-44.png,0005-00-0001-53.png
00000009,226,1,1446497550199,1446497550745,504,252,0,0,0,1,2,1,3,0005-00-0000-75.png,0003-00-0000-67.png
00000009,227,1,1446497551597,1446497552720,954,384,0,0,0,1,0,1,1,0005-00-0000-63.png,0001-00-0001-51.png
00000009,228,0,1446497553612,1446497553640,890,411,0,0,0,3,4,1,7,0002-00-0001-48.png,0004-00-0000-97.png
00000009,229,1,1446497556745,1446497556781,920,307,0,0,0,3,2,1,5,0002-00-0001-94.png,0003-00-0001-73.png
00000009,230,1,1446497557694,1446497558401,933,326,0,0,0,4,3,1,7,0004-00-0000-76.png,0002-00-0000-31.png
00000009,231,0,1446497559286,1446497559310,893,412,0,0,0,0,1,1,1,0001-00-0000-23.png,0005-00-0001-71.png
00000009,232,0,1446497562367,1446497562935,1041,436,0,0,0,2,3,1,5,0003-00-0000-47.png,0002-00-0001-58.png
00000009,233,1,1446497565861,1446497565885,882,358,0,0,0,1,0,1,1,0005-00-0001-63.png,0001-00-0000-16.png
00000009,234,1,1446497566793,1446497567497,423,324,0,0,0,1,2,1,3,0005-00-0001-40.png,0003-00-0000-34.png
00000009,235,1,1446497568431,1446497568459,858,391,0,0,0,2,1,1,3,0003-00-0001-04.png,0005-00-0000-41.png
00000009,236,0,1446497569505,1446497570481,943,350,0,0,0,2,3,1,5,0003-00-0001-14.png,0002-00-0000-53.png
00000009,237,1,1446497573591,1446497573742,881,420,0,0,0,4,3,1,7,0004-00-0000-56.png,0002-00-0001-21.png
00000009,238,0,1446497574681,1446497574689,869,393,0,0,0,3,4,1,7,0002-00-0000-73.png,0004-00-0000-72.png
00000009,239,0,1446497577578,1446497578056,488,279,0,0,0,3,2,1,5,0002-00-0001-14.png,0003-00-0001-79.png
00000009,240,1,1446497581154,1446497581670,516,256,0,0,0,0,1,1,1,0001-00-0000-61.png,0005-00-0000-74.png
00000009,241,0,1446497583081,1446497583763,1070,276,0,0,0,2,3,1,5,0003-00-0000-54.png,0002-00-0000-65.png
00000009,242,0,1446497586749,1446497586980,948,344,0,0,0,3,4,1,7,0002-00-0001-78.png,0004-00-0000-63.png
00000009,243,1,1446497590032,1446497590570,1070,282,0,0,0,4,3,1,7,0004-00-0001-47.png,0002-00-0000-38.png
00000009,244,1,1446497591976,1446497592650,476,269,0,0,0,1,2,1,3,0005-00-0001-86.png,0003-00-0000-22.png
00000009,245,1,1446497593514,1446497593554,862,384,0,0,0,3,2,1,5,0002-00-0001-52.png,0003-00-0000-86.png
00000009,246,0,1446497594569,1446497594613,895,376,0,0,0,0,1,1,1,0001-00-0001-19.png,0005-00-0001-61.png
00000009,247,1,1446497597714,1446497598252,1103,279,0,0,0,1,0,1,1,0005-00-0000-42.png,0001-00-0001-28.png
00000009,248,1,1446497599569,1446497600539,934,351,0,0,0,2,1,1,3,0003-00-0001-59.png,0005-00-0001-20.png
00000009,249,1,1446497601407,1446497601432,918,375,0,0,0,3,2,1,5,0002-00-0000-06.png,0003-00-0000-10.png
00000009,250,0,1446497602410,1446497602446,869,400,0,0,0,0,1,1,1,0001-00-0001-61.png,0005-00-0000-22.png
00000009,251,0,1446497605640,1446497606352,964,326,0,0,0,3,4,1,7,0002-00-0000-87.png,0004-00-0000-57.png
00000009,252,0,1446497609427,1446497610117,1067,306,0,0,0,1,2,1,3,0005-00-0000-29.png,0003-00-0000-61.png
00000009,253,0,1446497613084,1446497613630,510,247,0,0,0,4,3,1,7,0004-00-0000-10.png,0002-00-0001-36.png
00000009,254,0,1446497616512,1446497616564,911,383,0,0,0,2,3,1,5,0003-00-0001-81.png,0002-00-0001-19.png
00000009,255,1,1446497619657,1446497620156,950,362,0,0,0,1,0,1,1,0005-00-0001-73.png,0001-00-0000-13.png
00000009,256,1,1446497621073,1446497621089,890,382,0,0,0,2,1,1,3,0003-00-0000-81.png,0005-00-0000-42.png
00000009,257,1,1446497621956,1446497622913,453,358,0,0,0,0,1,1,1,0001-00-0001-80.png,0005-00-0000-26.png
00000009,258,0,1446497623754,1446497624669,940,324,0,0,0,2,3,1,5,0003-00-0000-86.png,0002-00-0001-54.png
00000009,259,1,1446497627820,1446497627848,935,327,0,0,0,1,0,1,1,0005-00-0000-65.png,0001-00-0001-76.png
00000009,260,1,1446497628701,1446497628761,878,436,0,0,0,2,1,1,3,0003-00-0000-88.png,0005-00-0000-08.png
00000009,261,0,1446497630274,1446497630606,939,488,0,0,0,1,2,1,3,0005-00-0001-78.png,0003-00-0001-30.png
00000009,262,1,1446497633664,1446497634173,494,269,0,0,0,3,4,1,7,0002-00-0000-25.png,0004-00-0000-80.png
00000009,263,1,1446497635033,1446497635053,873,396,0,0,0,4,3,1,7,0004-00-0001-60.png,0002-00-0001-49.png
00000009,264,1,1446497636024,1446497636128,888,397,0,0,0,3,2,1,5,0002-00-0001-59.png,0003-00-0001-86.png
00000009,265,0,1446497637121,1446497637159,867,396,0,0,0,1,2,1,3,0005-00-0001-15.png,0003-00-0001-75.png
00000009,266,1,1446497640271,1446497640846,507,260,0,0,0,3,4,1,7,0002-00-0001-23.png,0004-00-0000-36.png
00000009,267,1,1446497642190,1446497642992,1041,263,0,0,0,1,0,1,1,0005-00-0000-32.png,0001-00-0000-77.png
00000009,268,0,1446497643856,1446497643876,913,353,0,0,0,0,1,1,1,0001-00-0001-39.png,0005-00-0000-74.png
00000009,269,1,1446497646986,1446497647018,925,299,0,0,0,3,2,1,5,0002-00-0001-84.png,0003-00-0001-39.png
00000009,270,1,1446497647893,1446497648702,908,325,0,0,0,4,3,1,7,0004-00-0000-73.png,0002-00-0000-73.png
00000009,271,0,1446497649554,1446497649574,941,362,0,0,0,2,3,1,5,0003-00-0001-06.png,0002-00-0001-69.png
00000009,272,1,1446497653019,1446497653558,943,348,0,0,0,2,1,1,3,0003-00-0001-85.png,0005-00-0001-89.png
00000009,273,1,1446497654399,1446497654467,888,436,0,0,0,3,2,1,5,0002-00-0000-07.png,0003-00-0001-46.png
00000009,274,0,1446497655311,1446497655351,913,395,0,0,0,3,4,1,7,0002-00-0001-76.png,0004-00-0001-85.png
00000009,275,1,1446497658386,1446497658833,413,371,0,0,0,0,1,1,1,0001-00-0001-28.png,0005-00-0001-56.png
00000009,276,0,1446497660216,1446497661178,497,260,0,0,0,2,1,1,3,0003-00-0001-65.png,0005-00-0000-35.png
00000009,277,0,1446497664189,1446497664702,945,325,0,0,0,2,3,1,5,0003-00-0001-67.png,0002-00-0000-32.png
00000009,278,1,1446497667525,1446497668114,965,328,0,0,0,1,0,1,1,0005-00-0001-84.png,0001-00-0001-61.png
00000009,279,1,1446497669377,1446497670330,401,332,0,0,0,1,2,1,3,0005-00-0000-98.png,0003-00-0001-41.png
00000009,280,0,1446497671176,1446497672068,399,339,0,0,0,4,3,1,7,0004-00-0000-72.png,0002-00-0001-83.png
00000009,281,1,1446497675169,1446497675775,503,250,0,0,0,3,4,1,7,0002-00-0000-01.png,0004-00-0000-73.png
00000009,282,1,1446497677167,1446497678178,382,357,0,0,0,1,2,1,3,0005-00-0000-92.png,0003-00-0001-78.png
00000009,283,1,1446497679054,1446497679074,858,411,0,0,0,3,2,1,5,0002-00-0001-39.png,0003-00-0000-52.png
00000009,284,0,1446497680120,1446497680176,878,410,0,0,0,2,3,1,5,0003-00-0000-65.png,0002-00-0000-57.png
00000009,285,1,1446497683163,1446497683827,1051,306,0,0,0,2,1,1,3,0003-00-0000-54.png,0005-00-0000-06.png
00000009,286,0,1446497684676,1446497684728,895,403,0,0,0,0,1,1,1,0001-00-0001-58.png,0005-00-0000-39.png
00000009,287,1,1446497687570,1446497687618,901,403,0,0,0,4,3,1,7,0004-00-0001-84.png,0002-00-0000-91.png
00000009,288,1,1446497688453,1446497688525,888,398,0,0,0,1,0,1,1,0005-00-0000-97.png,0001-00-0000-58.png
00000009,289,0,1446497689418,1446497689502,888,410,0,0,0,3,4,1,7,0002-00-0001-86.png,0004-00-0001-66.png
00000009,290,0,1446497692610,1446497693231,964,306,0,0,0,2,3,1,5,0003-00-0001-83.png,0002-00-0001-31.png
00000009,291,1,1446497696319,1446497696817,380,352,0,0,0,0,1,1,1,0001-00-0000-08.png,0005-00-0000-41.png
00000009,292,1,1446497698150,1446497699230,1067,265,0,0,0,1,0,1,1,0005-00-0001-47.png,0001-00-0000-33.png
00000009,293,1,1446497700072,1446497700114,910,388,0,0,0,3,2,1,5,0002-00-0000-89.png,0003-00-0001-18.png
00000009,294,1,1446497701048,1446497702118,941,337,0,0,0,2,1,1,3,0003-00-0000-89.png,0005-00-0001-23.png
00000009,295,0,1446497703013,1446497703033,926,388,0,0,0,1,2,1,3,0005-00-0001-86.png,0003-00-0001-63.png
00000009,296,1,1446497705900,1446497705914,905,345,0,0,0,4,3,1,7,0004-00-0000-09.png,0002-00-0000-71.png
00000009,297,1,1446497707022,1446497708037,1067,289,0,0,0,2,1,1,3,0003-00-0000-75.png,0005-00-0000-76.png
00000009,298,1,1446497708896,1446497708936,939,400,0,0,0,4,3,1,7,0004-00-0000-63.png,0002-00-0000-82.png
00000009,299,0,1446497709872,1446497709900,923,415,0,0,0,2,3,1,5,0003-00-0001-76.png,0002-00-0000-67.png
00000009,300,0,1446497713012,1446497713158,950,279,0,0,0,1,2,1,3,0005-00-0001-64.png,0003-00-0000-29.png
00000009,301,1,1446497716302,1446497716439,890,414,0,0,0,3,2,1,5,0002-00-0001-73.png,0003-00-0000-10.png
00000009,302,0,1446497717380,1446497717427,875,408,0,0,0,0,1,1,1,0001-00-0000-21.png,0005-00-0000-93.png
00000009,303,0,1446497720479,1446497720495,918,360,0,0,0,3,4,1,7,0002-00-0001-82.png,0004-00-0001-19.png
00000009,304,1,1446497723638,1446497723670,908,303,0,0,0,1,0,1,1,0005-00-0000-05.png,0001-00-0001-39.png
00000009,305,1,1446497724571,1446497724587,892,413,0,0,0,1,0,1,1,0005-00-0000-09.png,0001-00-0001-54.png
00000009,306,0,1446497725434,1446497726197,491,223,0,0,0,4,3,1,7,0004-00-0001-64.png,0002-00-0001-37.png
00000009,307,1,1446497729134,1446497729670,1068,277,0,0,0,2,1,1,3,0003-00-0001-48.png,0005-00-0001-92.png
00000009,308,0,1446497731081,1446497731970,942,343,0,0,0,0,1,1,1,0001-00-0000-64.png,0005-00-0000-09.png
00000009,309,0,1446497735016,1446497735658,972,353,0,0,0,2,3,1,5,0003-00-0000-94.png,0002-00-0001-85.png
00000009,310,1,1446497738671,1446497739620,467,255,0,0,0,1,2,1,3,0005-00-0000-45.png,0003-00-0001-01.png
00000009,311,0,1446497740469,1446497740509,862,380,0,0,0,3,4,1,7,0002-00-0000-22.png,0004-00-0001-02.png
00000009,312,1,1446497743659,1446497744734,939,372,0,0,0,3,2,1,5,0002-00-0001-39.png,0003-00-0001-79.png
00000009,313,0,1446497745568,1446497746319,492,224,0,0,0,3,2,1,5,0002-00-0001-21.png,0003-00-0000-48.png
00000009,314,0,1446497749286,1446497749837,939,306,0,0,0,2,3,1,5,0003-00-0001-57.png,0002-00-0001-21.png
00000009,315,1,1446497752975,1446497753516,991,301,0,0,0,1,0,1,1,0005-00-0001-29.png,0001-00-0001-57.png
00000009,316,0,1446497754841,1446497755169,990,418,0,0,0,3,4,1,7,0002-00-0001-90.png,0004-00-0001-88.png
00000009,317,0,1446497758330,1446497758449,874,410,0,0,0,0,1,1,1,0001-00-0000-11.png,0005-00-0000-33.png
00000009,318,0,1446497761540,1446497762025,382,354,0,0,0,4,3,1,7,0004-00-0001-82.png,0002-00-0000-86.png
00000009,319,1,1446497764881,1446497765450,475,283,0,0,0,1,2,1,3,0005-00-0001-03.png,0003-00-0000-67.png
00000009,320,1,1446497766836,1446497767428,1076,279,0,0,0,2,1,1,3,0003-00-0001-26.png,0005-00-0000-93.png
00000009,321,0,1446497768317,1446497768357,921,387,0,0,0,2,3,1,5,0003-00-0000-99.png,0002-00-0001-75.png
00000009,322,1,1446497771499,1446497772393,476,246,0,0,0,0,1,1,1,0001-00-0000-71.png,0005-00-0001-84.png
00000009,323,1,1446497773244,1446497774234,468,259,0,0,0,3,4,1,7,0002-00-0001-81.png,0004-00-0001-12.png
00000009,324,1,1446497775124,1446497775176,876,414,0,0,0,1,0,1,1,0005-00-0001-80.png,0001-00-0001-64.png
00000009,325,1,1446497776200,1446497776256,878,436,0,0,0,3,2,1,5,0002-00-0000-46.png,0003-00-0001-54.png
00000009,326,0,1446497777332,1446497777372,875,426,0,0,0,1,2,1,3,0005-00-0001-05.png,0003-00-0001-40.png
00000009,327,1,1446497780403,1446497780914,918,334,0,0,0,4,3,1,7,0004-00-0001-27.png,0002-00-0001-63.png
00000009,328,0,1446497781742,1446497782447,440,363,0,0,0,2,1,1,3,0003-00-0001-87.png,0005-00-0001-10.png
00000009,329,1,1446497785552,1446497785737,895,328,0,0,0,2,1,1,3,0003-00-0001-19.png,0005-00-0001-98.png
00000009,330,0,1446497786664,1446497786692,894,413,0,0,0,0,1,1,1,0001-00-0001-06.png,0005-00-0001-91.png
00000009,331,1,1446497789773,1446497790426,1067,279,0,0,0,1,0,1,1,0005-00-0000-71.png,0001-00-0000-52.png
00000009,332,1,1446497791794,1446497792745,472,246,0,0,0,1,2,1,3,0005-00-0001-76.png,0003-00-0001-82.png
00000009,333,1,1446497793648,1446497793696,890,402,0,0,0,3,2,1,5,0002-00-0001-17.png,0003-00-0000-66.png
00000009,334,0,1446497794762,1446497794837,897,410,0,0,0,3,4,1,7,0002-00-0001-74.png,0004-00-0000-50.png
00000009,335,0,1446497797863,1446497797893,867,357,0,0,0,2,3,1,5,0003-00-0000-97.png,0002-00-0000-21.png
00000009,336,1,1446497800936,1446497801564,1069,276,0,0,0,4,3,1,7,0004-00-0001-49.png,0002-00-0000-11.png
00000009,337,0,1446497802863,1446497803821,484,228,0,0,0,1,0,1,1,0005-00-0000-80.png,0001-00-0000-44.png
00000009,338,1,1446497806777,1446497807384,503,244,0,0,0,3,4,1,7,0002-00-0000-81.png,0004-00-0001-46.png
00000009,339,1,1446497808230,1446497809464,365,365,0,0,0,1,2,1,3,0005-00-0001-02.png,0003-00-0001-93.png
00000009,340,0,1446497810355,1446497810415,873,410,0,0,0,0,1,1,1,0001-00-0000-10.png,0005-00-0001-49.png
00000009,341,0,1446497813486,1446497814011,983,329,0,0,0,2,3,1,5,0003-00-0000-87.png,0002-00-0001-49.png
00000009,342,1,1446497817123,1446497817332,913,320,0,0,0,3,2,1,5,0002-00-0001-69.png,0003-00-0000-36.png
00000009,343,1,1446497818216,1446497818289,926,425,0,0,0,4,3,1,7,0004-00-0000-24.png,0002-00-0000-05.png
00000009,344,1,1446497819797,1446497819885,873,410,0,0,0,2,1,1,3,0003-00-0000-95.png,0005-00-0000-41.png
00000009,345,0,1446497820840,1446497820880,897,384,0,0,0,2,3,1,5,0003-00-0000-19.png,0002-00-0000-47.png
00000009,346,1,1446497823924,1446497824734,964,345,0,0,0,1,0,1,1,0005-00-0001-09.png,0001-00-0000-08.png
00000009,347,1,1446497825981,1446497826778,490,229,0,0,0,0,1,1,1,0001-00-0001-86.png,0005-00-0001-62.png
00000009,348,1,1446497827604,1446497828715,475,249,0,0,0,1,2,1,3,0005-00-0001-41.png,0003-00-0001-90.png
00000009,349,0,1446497829533,1446497830330,490,254,0,0,0,3,2,1,5,0002-00-0001-57.png,0003-00-0001-89.png
00000009,350,1,1446497833182,1446497833819,507,286,0,0,0,3,4,1,7,0002-00-0000-93.png,0004-00-0000-73.png
00000009,351,0,1446497835132,1446497835922,470,242,0,0,0,4,3,1,7,0004-00-0001-66.png,0002-00-0001-64.png
00000009,352,1,1446497839068,1446497839623,1068,278,0,0,0,2,1,1,3,0003-00-0001-16.png,0005-00-0000-51.png
00000009,353,0,1446497840957,1446497841748,466,218,0,0,0,3,2,1,5,0002-00-0001-06.png,0003-00-0001-43.png
00000009,354,0,1446497844881,1446497845000,862,421,0,0,0,1,2,1,3,0005-00-0000-38.png,0003-00-0001-90.png
00000009,355,0,1446497847935,1446497848468,488,270,0,0,0,1,0,1,1,0005-00-0000-05.png,0001-00-0001-96.png
00000009,356,0,1446497851628,1446497851668,912,306,0,0,0,0,1,1,1,0001-00-0000-79.png,0005-00-0001-52.png
00000009,357,0,1446497854750,1446497855309,405,340,0,0,0,2,1,1,3,0003-00-0000-98.png,0005-00-0001-39.png
00000009,358,0,1446497858438,1446497858462,963,325,0,0,0,3,4,1,7,0002-00-0000-05.png,0004-00-0000-64.png
00000009,359,0,1446497861608,1446497862110,1067,253,0,0,0,2,3,1,5,0003-00-0001-69.png,0002-00-0001-69.png
00000009,360,1,1446497865265,1446497866137,943,334,0,0,0,4,3,1,7,0004-00-0001-33.png,0002-00-0001-82.png
00000009,361,0,1446497866977,1446497867097,939,410,0,0,0,0,1,1,1,0001-00-0000-22.png,0005-00-0001-50.png
00000009,362,0,1446497870173,1446497870718,1096,274,0,0,0,2,3,1,5,0003-00-0001-94.png,0002-00-0000-62.png
00000009,363,1,1446497873879,1446497874107,909,310,0,0,0,4,3,1,7,0004-00-0001-37.png,0002-00-0000-45.png
00000009,364,0,1446497875046,1446497875120,939,393,0,0,0,3,4,1,7,0002-00-0000-63.png,0004-00-0001-03.png
00000009,365,1,1446497878223,1446497878259,969,332,0,0,0,3,2,1,5,0002-00-0000-25.png,0003-00-0000-61.png
00000009,366,1,1446497879149,1446497880229,1041,265,0,0,0,1,0,1,1,0005-00-0000-95.png,0001-00-0001-56.png
00000009,367,0,1446497881072,1446497881112,927,375,0,0,0,1,2,1,3,0005-00-0000-89.png,0003-00-0000-32.png
00000009,368,1,1446497884216,1446497884264,944,331,0,0,0,2,1,1,3,0003-00-0001-43.png,0005-00-0001-94.png
00000009,369,0,1446497885096,1446497885207,904,436,0,0,0,3,4,1,7,0002-00-0001-15.png,0004-00-0000-28.png
00000009,370,0,1446497888182,1446497888242,936,356,0,0,0,1,2,1,3,0005-00-0001-42.png,0003-00-0000-22.png
00000009,371,0,1446497891423,1446497891971,453,423,0,0,0,4,3,1,7,0004-00-0001-78.png,0002-00-0001-71.png
00000009,372,0,1446497894934,1446497895497,1066,269,0,0,0,2,3,1,5,0003-00-0000-39.png,0002-00-0001-24.png
00000009,373,0,1446497898586,1446497899059,395,341,0,0,0,3,2,1,5,0002-00-0001-80.png,0003-00-0001-48.png
00000009,374,1,1446497901986,1446497902783,1041,255,0,0,0,2,1,1,3,0003-00-0000-44.png,0005-00-0001-31.png
00000009,375,1,1446497903654,1446497903682,930,384,0,0,0,1,0,1,1,0005-00-0000-58.png,0001-00-0001-94.png
00000009,376,0,1446497904770,1446497904852,863,405,0,0,0,0,1,1,1,0001-00-0000-24.png,0005-00-0000-75.png
00000009,377,1,1446497907811,1446497908075,884,318,0,0,0,2,1,1,3,0003-00-0000-85.png,0005-00-0000-62.png
00000009,378,1,1446497908963,1446497908999,915,409,0,0,0,1,0,1,1,0005-00-0001-36.png,0001-00-0000-00.png
00000009,379,0,1446497909914,1446497911019,921,333,0,0,0,0,1,1,1,0001-00-0001-08.png,0005-00-0000-26.png
00000009,380,1,1446497914030,1446497914753,490,257,0,0,0,3,4,1,7,0002-00-0000-62.png,0004-00-0001-34.png
00000009,381,1,1446497916067,1446497916115,893,334,0,0,0,3,2,1,5,0002-00-0000-29.png,0003-00-0000-84.png
00000009,382,0,1446497917090,1446497917996,963,354,0,0,0,2,3,1,5,0003-00-0001-34.png,0002-00-0000-87.png
00000009,383,1,1446497920997,1446497922058,475,274,0,0,0,1,2,1,3,0005-00-0001-93.png,0003-00-0000-76.png
00000009,384,1,1446497922933,1446497922973,873,390,0,0,0,4,3,1,7,0004-00-0000-40.png,0002-00-0000-08.png
00000009,385,0,1446497923837,1446497923865,863,389,0,0,0,3,4,1,7,0002-00-0001-02.png,0004-00-0000-93.png
00000009,386,0,1446497926970,1446497927477,504,240,0,0,0,3,2,1,5,0002-00-0000-77.png,0003-00-0000-53.png
00000009,387,1,1446497930396,1446497930971,472,271,0,0,0,0,1,1,1,0001-00-0001-59.png,0005-00-0000-75.png
00000009,388,1,1446497932345,1446497932881,478,240,0,0,0,1,2,1,3,0005-00-0000-96.png,0003-00-0001-69.png
00000009,389,0,1446497933744,1446497933784,873,405,0,0,0,2,3,1,5,0003-00-0001-99.png,0002-00-0001-45.png
00000009,390,0,1446497936729,1446497937414,501,270,0,0,0,4,3,1,7,0004-00-0000-70.png,0002-00-0001-58.png
00000009,391,1,1446497940294,1446497941009,1093,272,0,0,0,2,1,1,3,0003-00-0000-68.png,0005-00-0000-55.png
00000009,392,0,1446497942363,1446497943206,479,240,0,0,0,1,0,1,1,0005-00-0001-63.png,0001-00-0001-85.png
00000009,393,1,1446497946239,1446497946752,964,395,0,0,0,2,1,1,3,0003-00-0001-22.png,0005-00-0000-03.png
00000009,394,0,1446497948006,1446497948900,913,347,0,0,0,0,1,1,1,0001-00-0000-43.png,0005-00-0001-70.png
00000009,395,0,1446497952069,1446497952530,390,372,0,0,0,3,2,1,5,0002-00-0000-34.png,0003-00-0000-36.png
00000009,396,1,1446497955730,1446497956267,510,264,0,0,0,3,4,1,7,0002-00-0000-83.png,0004-00-0000-12.png
00000009,397,0,1446497957104,1446497957136,862,436,0,0,0,1,2,1,3,0005-00-0000-67.png,0003-00-0001-40.png
00000009,398,0,1446497960259,1446497960752,967,326,0,0,0,2,3,1,5,0003-00-0001-09.png,0002-00-0000-13.png
00000009,399,1,1446497963908,1446497963944,935,308,0,0,0,4,3,1,7,0004-00-0000-22.png,0002-00-0001-87.png
00000009,400,1,1446497964863,1446497964891,865,421,0,0,0,1,0,1,1,0005-00-0001-55.png,0001-00-0001-29.png
00000009,401,1,1446497965836,1446497966708,471,234,0,0,0,3,4,1,7,0002-00-0001-72.png,0004-00-0000-50.png
00000009,402,0,1446497967605,1446497967625,885,418,0,0,0,0,1,1,1,0001-00-0001-73.png,0005-00-0001-01.png
00000009,403,1,1446497970605,1446497970633,909,340,0,0,0,2,1,1,3,0003-00-0000-26.png,0005-00-0000-71.png
00000009,404,1,1446497971530,1446497971558,865,438,0,0,0,4,3,1,7,0004-00-0000-16.png,0002-00-0000-58.png
00000009,405,1,1446497972422,1446497972466,864,384,0,0,0,3,2,1,5,0002-00-0001-67.png,0003-00-0001-09.png
00000009,406,1,1446497973577,1446497974402,496,222,0,0,0,1,2,1,3,0005-00-0000-60.png,0003-00-0000-13.png
00000009,407,0,1446497975306,1446497975334,886,388,0,0,0,2,3,1,5,0003-00-0001-44.png,0002-00-0000-36.png
00000009,408,1,1446497978165,1446497978782,1101,259,0,0,0,1,0,1,1,0005-00-0000-51.png,0001-00-0000-10.png
00000009,409,1,1446497980044,1446497980677,519,248,0,0,0,3,4,1,7,0002-00-0001-80.png,0004-00-0000-02.png
00000009,410,0,1446497981990,1446497982050,869,409,0,0,0,0,1,1,1,0001-00-0000-07.png,0005-00-0000-62.png
00000009,411,0,1446497985183,1446497985203,939,317,0,0,0,1,2,1,3,0005-00-0001-00.png,0003-00-0001-66.png
00000009,412,1,1446497988176,1446497988427,954,293,0,0,0,2,1,1,3,0003-00-0000-53.png,0005-00-0001-01.png
00000009,413,1,1446497989256,1446497989292,913,462,0,0,0,3,2,1,5,0002-00-0000-75.png,0003-00-0000-81.png
00000009,414,1,1446497990623,1446497990695,871,427,0,0,0,4,3,1,7,0004-00-0001-17.png,0002-00-0000-08.png
00000009,415,1,1446497991702,1446497991820,878,443,0,0,0,1,0,1,1,0005-00-0000-19.png,0001-00-0000-78.png
00000009,416,0,1446497992915,1446497992943,868,390,0,0,0,2,3,1,5,0003-00-0001-28.png,0002-00-0001-08.png
00000009,417,1,1446497995849,1446497996521,944,334,0,0,0,1,0,1,1,0005-00-0001-68.png,0001-00-0001-61.png
00000009,418,0,1446497997783,1446497998436,496,249,0,0,0,4,3,1,7,0004-00-0001-87.png,0002-00-0001-79.png
00000009,419,0,1446498001432,1446498002000,1064,305,0,0,0,0,1,1,1,0001-00-0001-32.png,0005-00-0001-60.png
00000009,420,1,1446498004869,1446498005457,515,288,0,0,0,1,2,1,3,0005-00-0000-98.png,0003-00-0000-49.png
00000009,421,1,1446498006309,1446498006329,884,434,0,0,0,2,1,1,3,0003-00-0001-35.png,0005-00-0001-25.png
00000009,422,0,1446498007195,1446498008243,969,377,0,0,0,3,4,1,7,0002-00-0000-82.png,0004-00-0000-54.png
00000009,423,0,1446498011387,1446498011896,1085,273,0,0,0,2,3,1,5,0003-00-0000-99.png,0002-00-0001-81.png
00000009,424,0,1446498014918,1446498015431,506,270,0,0,0,3,2,1,5,0002-00-0001-97.png,0003-00-0000-46.png
00000009,425,1,1446498018417,1446498018938,968,335,0,0,0,1,0,1,1,0005-00-0001-30.png,0001-00-0000-29.png
00000009,426,0,1446498020254,1446498020619,939,462,0,0,0,0,1,1,1,0001-00-0000-36.png,0005-00-0001-96.png
00000009,427,0,1446498023652,1446498024197,504,253,0,0,0,3,2,1,5,0002-00-0001-10.png,0003-00-0000-15.png
00000009,428,1,1446498027340,1446498027873,417,368,0,0,0,1,2,1,3,0005-00-0000-13.png,0003-00-0001-10.png
00000009,429,1,1446498028719,1446498028742,859,385,0,0,0,4,3,1,7,0004-00-0001-31.png,0002-00-0000-14.png
00000009,430,0,1446498029792,1446498029871,895,400,0,0,0,2,3,1,5,0003-00-0000-14.png,0002-00-0000-56.png
00000009,431,1,1446498033005,1446498033825,1076,306,0,0,0,2,1,1,3,0003-00-0000-44.png,0005-00-0001-23.png
00000009,432,1,1446498034697,1446498035705,501,227,0,0,0,3,4,1,7,0002-00-0001-14.png,0004-00-0001-45.png
00000009,433,1,1446498036590,1446498036618,887,412,0,0,0,1,0,1,1,0005-00-0000-85.png,0001-00-0001-16.png
00000009,434,0,1446498037713,1446498037761,885,416,0,0,0,3,4,1,7,0002-00-0000-48.png,0004-00-0000-76.png
00000009,435,1,1446498040768,1446498041299,943,327,0,0,0,4,3,1,7,0004-00-0001-11.png,0002-00-0000-43.png
00000009,436,1,1446498042635,1446498042683,892,377,0,0,0,3,2,1,5,0002-00-0001-74.png,0003-00-0000-01.png
00000009,437,0,1446498043646,1446498043739,901,410,0,0,0,2,3,1,5,0003-00-0001-38.png,0002-00-0001-66.png
00000009,438,1,1446498046580,1446498047372,966,324,0,0,0,2,1,1,3,0003-00-0000-09.png,0005-00-0000-29.png
00000009,439,1,1446498048696,1446498049479,492,254,0,0,0,0,1,1,1,0001-00-0000-28.png,0005-00-0000-81.png
00000009,440,1,1446498050313,1446498051296,488,236,0,0,0,1,2,1,3,0005-00-0000-27.png,0003-00-0000-37.png
00000009,441,0,1446498052183,1446498053180,424,374,0,0,0,1,0,1,1,0005-00-0000-94.png,0001-00-0001-22.png
00000009,442,0,1446498056358,1446498056883,486,266,0,0,0,4,3,1,7,0004-00-0001-19.png,0002-00-0000-64.png
00000009,443,1,1446498059834,1446498060435,389,389,0,0,0,3,4,1,7,0002-00-0000-05.png,0004-00-0001-77.png
00000009,444,0,1446498061272,1446498061322,862,449,0,0,0,2,3,1,5,0003-00-0001-35.png,0002-00-0001-57.png
00000009,445,1,1446498064299,1446498064323,873,386,0,0,0,3,2,1,5,0002-00-0000-50.png,0003-00-0001-21.png
00000009,446,1,1446498065211,1446498066243,1032,253,0,0,0,2,1,1,3,0003-00-0000-11.png,0005-00-0001-85.png
00000009,447,0,1446498067147,1446498067191,928,410,0,0,0,0,1,1,1,0001-00-0000-02.png,0005-00-0001-33.png
00000009,448,0,1446498070122,1446498070142,873,358,0,0,0,1,2,1,3,0005-00-0001-62.png,0003-00-0000-17.png
00000009,449,0,1446498073143,1446498073640,478,317,0,0,0,3,2,1,5,0002-00-0001-88.png,0003-00-0001-17.png
00000009,450,1,1446498076500,1446498077033,939,347,0,0,0,2,1,1,3,0003-00-0001-15.png,0005-00-0001-56.png
00000009,451,1,1446498078271,1446498078991,471,385,0,0,0,0,1,1,1,0001-00-0001-24.png,0005-00-0001-24.png
00000009,452,0,1446498079868,1446498079920,899,384,0,0,0,1,2,1,3,0005-00-0001-91.png,0003-00-0000-92.png
00000009,453,0,1446498083013,1446498083188,908,358,0,0,0,3,4,1,7,0002-00-0001-06.png,0004-00-0001-61.png
00000009,454,0,1446498086262,1446498086753,964,395,0,0,0,2,3,1,5,0003-00-0001-44.png,0002-00-0001-72.png
00000009,455,1,1446498090157,1446498090712,1067,280,0,0,0,4,3,1,7,0004-00-0000-69.png,0002-00-0000-58.png
00000009,456,1,1446498091546,1446498091614,913,446,0,0,0,1,0,1,1,0005-00-0001-58.png,0001-00-0000-47.png
00000009,457,1,1446498092511,1446498092570,878,391,0,0,0,3,2,1,5,0002-00-0000-00.png,0003-00-0001-08.png
00000009,458,0,1446498093656,1446498093707,881,382,0,0,0,2,3,1,5,0003-00-0000-06.png,0002-00-0000-53.png
00000009,459,1,1446498096754,1446498097268,478,269,0,0,0,3,4,1,7,0002-00-0000-61.png,0004-00-0001-06.png
00000009,460,1,1446498098145,1446498098157,881,442,0,0,0,1,0,1,1,0005-00-0001-18.png,0001-00-0001-83.png
00000009,461,1,1446498098998,1446498099077,862,410,0,0,0,2,1,1,3,0003-00-0000-53.png,0005-00-0000-53.png
00000009,462,0,1446498100142,1446498100182,862,384,0,0,0,1,2,1,3,0005-00-0000-96.png,0003-00-0001-55.png
00000009,463,1,1446498103135,1446498104014,522,304,0,0,0,0,1,1,1,0001-00-0000-26.png,0005-00-0001-35.png
00000009,464,1,1446498104872,1446498104934,891,437,0,0,0,4,3,1,7,0004-00-0000-78.png,0002-00-0000-05.png
00000009,465,0,1446498105751,1446498106783,1041,290,0,0,0,2,3,1,5,0003-00-0000-42.png,0002-00-0000-52.png
00000009,466,1,1446498109773,1446498109994,913,343,0,0,0,4,3,1,7,0004-00-0000-44.png,0002-00-0000-97.png
00000009,467,0,1446498110876,1446498110916,857,433,0,0,0,1,2,1,3,0005-00-0000-16.png,0003-00-0001-45.png
00000009,468,1,1446498113846,1446498114335,507,288,0,0,0,3,4,1,7,0002-00-0000-40.png,0004-00-0000-48.png
00000009,469,0,1446498115657,1446498115697,888,358,0,0,0,0,1,1,1,0001-00-0000-74.png,0005-00-0001-77.png
00000009,470,1,1446498118799,1446498119375,971,333,0,0,0,2,1,1,3,0003-00-0001-02.png,0005-00-0001-50.png
00000009,471,1,1446498120776,1446498121057,975,436,0,0,0,3,2,1,5,0002-00-0000-96.png,0003-00-0001-84.png
00000009,472,1,1446498121896,1446498121944,913,444,0,0,0,1,0,1,1,0005-00-0000-42.png,0001-00-0001-20.png
00000009,473,1,1446498122791,1446498122819,862,397,0,0,0,4,3,1,7,0004-00-0001-34.png,0002-00-0001-40.png
00000009,474,1,1446498123887,1446498124786,465,347,0,0,0,1,2,1,3,0005-00-0000-68.png,0003-00-0001-07.png
00000009,475,0,1446498125651,1446498125707,883,454,0,0,0,2,3,1,5,0003-00-0001-50.png,0002-00-0000-13.png
00000009,476,1,1446498128883,1446498129396,1074,297,0,0,0,2,1,1,3,0003-00-0000-95.png,0005-00-0000-42.png
00000009,477,0,1446498130661,1446498130673,888,410,0,0,0,3,4,1,7,0002-00-0001-96.png,0004-00-0000-89.png
00000009,478,1,1446498133790,1446498134268,504,267,0,0,0,0,1,1,1,0001-00-0001-59.png,0005-00-0000-85.png
00000009,479,1,1446498135592,1446498135957,964,475,0,0,0,1,0,1,1,0005-00-0001-07.png,0001-00-0000-66.png
00000009,480,1,1446498136924,1446498136940,890,386,0,0,0,3,2,1,5,0002-00-0001-42.png,0003-00-0001-90.png
00000009,481,1,1446498137934,1446498137965,870,384,0,0,0,2,1,1,3,0003-00-0000-18.png,0005-00-0000-63.png
00000009,482,1,1446498138951,1446498139008,881,418,0,0,0,1,0,1,1,0005-00-0000-78.png,0001-00-0001-85.png
00000009,483,1,1446498140121,1446498140171,884,450,0,0,0,3,2,1,5,0002-00-0000-85.png,0003-00-0000-80.png
00000009,484,0,1446498141276,1446498141304,888,411,0,0,0,0,1,1,1,0001-00-0000-36.png,0005-00-0000-44.png
00000009,485,1,1446498144344,1446498144364,969,335,0,0,0,4,3,1,7,0004-00-0000-99.png,0002-00-0001-72.png
00000009,486,0,1446498145195,1446498145239,910,437,0,0,0,1,2,1,3,0005-00-0001-45.png,0003-00-0001-53.png
00000009,487,0,1446498148232,1446498148736,1066,303,0,0,0,2,3,1,5,0003-00-0001-29.png,0002-00-0001-96.png
00000009,488,0,1446498151721,1446498151883,876,436,0,0,0,3,4,1,7,0002-00-0000-25.png,0004-00-0000-53.png
00000009,489,1,1446498154789,1446498155287,396,373,0,0,0,2,3,1,5,0003-00-0001-01.png,0002-00-0001-58.png
00000009,490,1,1446498156127,1446498156906,477,265,0,0,0,3,4,1,7,0002-00-0001-55.png,0004-00-0001-54.png
00000009,491,0,1446498157760,1446498157808,877,384,0,0,0,1,2,1,3,0005-00-0000-87.png,0003-00-0001-47.png
00000009,492,0,1446498160903,1446498161383,519,251,0,0,0,3,2,1,5,0002-00-0000-25.png,0003-00-0000-00.png
00000009,493,1,1446498164301,1446498164815,1067,279,0,0,0,4,3,1,7,0004-00-0001-04.png,0002-00-0001-13.png
00000009,494,0,1446498166008,1446498166756,460,402,0,0,0,1,0,1,1,0005-00-0001-00.png,0001-00-0001-14.png
00000009,495,1,1446498169845,1446498170363,514,260,0,0,0,0,1,1,1,0001-00-0001-93.png,0005-00-0000-08.png
00000009,496,1,1446498171582,1446498171740,913,390,0,0,0,2,1,1,3,0003-00-0001-64.png,0005-00-0000-97.png
00000009,497,0,1446498172686,1446498172758,896,427,0,0,0,1,2,1,3,0005-00-0001-61.png,0003-00-0000-54.png
00000009,498,1,1446498175718,1446498176237,1067,281,0,0,0,1,0,1,1,0005-00-0001-16.png,0001-00-0001-28.png
00000009,499,0,1446498177486,1446498177518,861,393,0,0,0,2,3,1,5,0003-00-0001-28.png,0002-00-0001-98.png
00000009,500,1,1446498180478,1446498181016,964,332,0,0,0,2,1,1,3,0003-00-0001-42.png,0005-00-0000-78.png
00000009,501,0,1446498182267,1446498182296,885,356,0,0,0,3,4,1,7,0002-00-0001-39.png,0004-00-0000-46.png
00000009,502,0,1446498185400,1446498185436,937,331,0,0,0,0,1,1,1,0001-00-0001-82.png,0005-00-0000-18.png
00000009,503,0,1446498188429,1446498188936,478,260,0,0,0,3,2,1,5,0002-00-0001-74.png,0003-00-0001-26.png
00000009,504,1,1446498192057,1446498192700,1092,295,0,0,0,4,3,1,7,0004-00-0001-92.png,0002-00-0000-05.png
00000009,505,0,1446498193975,1446498194203,940,438,0,0,0,0,1,1,1,0001-00-0000-30.png,0005-00-0001-60.png
00000009,506,1,1446498197043,1446498197544,478,264,0,0,0,3,4,1,7,0002-00-0001-14.png,0004-00-0001-24.png
00000009,507,1,1446498198384,1446498198424,896,400,0,0,0,1,0,1,1,0005-00-0000-91.png,0001-00-0000-32.png
00000009,508,1,1446498199460,1446498199485,866,363,0,0,0,2,1,1,3,0003-00-0001-99.png,0005-00-0000-21.png
00000009,509,0,1446498200544,1446498200581,874,410,0,0,0,2,3,1,5,0003-00-0001-21.png,0002-00-0001-81.png
00000009,510,1,1446498203595,1446498204194,939,297,0,0,0,4,3,1,7,0004-00-0001-12.png,0002-00-0001-91.png
00000009,511,0,1446498205442,1446498205857,939,462,0,0,0,1,2,1,3,0005-00-0000-52.png,0003-00-0001-07.png
00000009,512,0,1446498208741,1446498209222,478,263,0,0,0,3,2,1,5,0002-00-0000-37.png,0003-00-0001-07.png
00000009,513,0,1446498212358,1446498212860,478,291,0,0,0,3,2,1,5,0002-00-0001-56.png,0003-00-0000-17.png
00000009,514,1,1446498215871,1446498216783,362,358,0,0,0,1,2,1,3,0005-00-0000-38.png,0003-00-0001-23.png
00000009,515,1,1446498217725,1446498218650,1041,279,0,0,0,2,1,1,3,0003-00-0001-98.png,0005-00-0001-70.png
00000009,516,1,1446498219471,1446498219514,913,410,0,0,0,1,0,1,1,0005-00-0001-00.png,0001-00-0000-69.png
00000009,517,1,1446498220451,1446498220514,885,408,0,0,0,4,3,1,7,0004-00-0001-67.png,0002-00-0000-53.png
00000009,518,0,1446498221534,1446498221570,861,411,0,0,0,3,4,1,7,0002-00-0000-18.png,0004-00-0001-20.png
00000009,519,0,1446498224444,1446498224452,863,363,0,0,0,0,1,1,1,0001-00-0000-34.png,0005-00-0001-44.png
00000009,520,0,1446498227347,1446498227849,1051,279,0,0,0,2,3,1,5,0003-00-0001-73.png,0002-00-0000-52.png
00000009,521,0,1446498230895,1446498231027,862,449,0,0,0,2,3,1,5,0003-00-0001-77.png,0002-00-0001-78.png
00000009,522,1,1446498234066,1446498234541,1072,298,0,0,0,4,3,1,7,0004-00-0001-27.png,0002-00-0000-84.png
00000009,523,1,1446498235842,1446498236622,489,256,0,0,0,1,2,1,3,0005-00-0001-31.png,0003-00-0000-20.png
00000009,524,1,1446498237458,1446498238427,1059,299,0,0,0,2,1,1,3,0003-00-0001-24.png,0005-00-0000-79.png
00000009,525,0,1446498239335,1446498240280,1088,279,0,0,0,0,1,1,1,0001-00-0001-50.png,0005-00-0001-32.png
00000009,526,1,1446498243454,1446498243474,891,315,0,0,0,1,0,1,1,0005-00-0001-23.png,0001-00-0000-25.png
00000009,527,0,1446498244338,1446498245261,481,254,0,0,0,3,2,1,5,0002-00-0000-70.png,0003-00-0001-60.png
00000009,528,1,1446498248384,1446498248912,405,345,0,0,0,3,4,1,7,0002-00-0001-17.png,0004-00-0000-37.png
00000009,529,1,1446498249753,1446498250783,401,323,0,0,0,1,2,1,3,0005-00-0000-76.png,0003-00-0000-45.png
00000009,530,1,1446498251653,1446498251677,857,393,0,0,0,1,0,1,1,0005-00-0001-47.png,0001-00-0001-06.png
00000009,531,1,1446498252726,1446498252758,871,391,0,0,0,3,2,1,5,0002-00-0001-25.png,0003-00-0001-57.png
00000009,532,0,1446498253808,1446498253848,862,392,0,0,0,3,4,1,7,0002-00-0000-21.png,0004-00-0001-55.png
00000009,533,1,1446498256982,1446498257461,1044,278,0,0,0,2,1,1,3,0003-00-0000-87.png,0005-00-0000-90.png
00000009,534,0,1446498258802,1446498259675,939,397,0,0,0,2,3,1,5,0003-00-0000-05.png,0002-00-0000-82.png
00000009,535,1,1446498262518,1446498263078,420,383,0,0,0,0,1,1,1,0001-00-0001-00.png,0005-00-0001-75.png
00000009,536,0,1446498264455,1446498265323,481,248,0,0,0,4,3,1,7,0004-00-0001-81.png,0002-00-0000-74.png
00000009,537,0,1446498268370,1446498268466,926,277,0,0,0,2,3,1,5,0003-00-0001-34.png,0002-00-0001-43.png
00000009,538,1,1446498271591,1446498272124,514,286,0,0,0,0,1,1,1,0001-00-0001-14.png,0005-00-0001-63.png
00000009,539,1,1446498273437,1446498273780,990,477,0,0,0,2,1,1,3,0003-00-0000-18.png,0005-00-0000-86.png
00000009,540,1,1446498274679,1446498274723,909,378,0,0,0,1,0,1,1,0005-00-0000-26.png,0001-00-0001-16.png
00000009,541,1,1446498275684,1446498275724,913,386,0,0,0,4,3,1,7,0004-00-0001-01.png,0002-00-0000-91.png
00000009,542,1,1446498276895,1446498276915,871,358,0,0,0,3,2,1,5,0002-00-0001-81.png,0003-00-0001-30.png
00000009,543,0,1446498278016,1446498278048,887,395,0,0,0,3,4,1,7,0002-00-0000-97.png,0004-00-0001-05.png
00000009,544,1,1446498280879,1446498281420,454,272,0,0,0,1,2,1,3,0005-00-0001-08.png,0003-00-0000-87.png
00000009,545,1,1446498282252,1446498283103,1025,298,0,0,0,1,0,1,1,0005-00-0001-54.png,0001-00-0001-98.png
00000009,546,0,1446498283983,1446498284015,913,437,0,0,0,0,1,1,1,0001-00-0001-86.png,0005-00-0000-94.png
00000009,547,1,1446498287062,1446498287560,1075,280,0,0,0,2,1,1,3,0003-00-0001-78.png,0005-00-0001-48.png
00000009,548,0,1446498288863,1446498288927,913,387,0,0,0,1,2,1,3,0005-00-0000-56.png,0003-00-0001-46.png
00000009,549,1,1446498291974,1446498292447,504,268,0,0,0,3,4,1,7,0002-00-0001-50.png,0004-00-0001-05.png
00000009,550,0,1446498293772,1446498294349,504,249,0,0,0,4,3,1,7,0004-00-0000-02.png,0002-00-0001-78.png
00000009,551,0,1446498297217,1446498297249,884,312,0,0,0,2,3,1,5,0003-00-0001-45.png,0002-00-0000-02.png
00000009,552,0,1446498300111,1446498301171,401,368,0,0,0,3,2,1,5,0002-00-0001-82.png,0003-00-0001-22.png
00000009,553,0,1446498304327,1446498304495,880,424,0,0,0,0,1,1,1,0001-00-0001-03.png,0005-00-0000-18.png
00000009,554,1,1446498307636,1446498308125,514,239,0,0,0,3,4,1,7,0002-00-0000-33.png,0004-00-0001-06.png
00000009,555,1,1446498309027,1446498309043,862,408,0,0,0,3,2,1,5,0002-00-0000-02.png,0003-00-0000-54.png
00000009,556,0,1446498309908,1446498309928,871,384,0,0,0,2,3,1,5,0003-00-0000-79.png,0002-00-0000-10.png
00000009,557,1,1446498313002,1446498313034,916,314,0,0,0,1,0,1,1,0005-00-0001-61.png,0001-00-0001-68.png
00000009,558,0,1446498313922,1446498313981,880,410,0,0,0,1,2,1,3,0005-00-0000-61.png,0003-00-0001-77.png
00000009,559,0,1446498316938,1446498317482,505,244,0,0,0,2,1,1,3,0003-00-0001-77.png,0005-00-0000-09.png
00000009,560,0,1446498320620,1446498321318,511,258,0,0,0,4,3,1,7,0004-00-0001-43.png,0002-00-0001-56.png
00000009,561,0,1446498324311,1446498324834,1001,315,0,0,0,2,3,1,5,0003-00-0001-69.png,0002-00-0001-26.png
00000009,562,1,1446498327890,1446498328505,939,340,0,0,0,1,0,1,1,0005-00-0001-83.png,0001-00-0000-11.png
00000009,563,0,1446498329914,1446498330663,940,336,0,0,0,3,4,1,7,0002-00-0001-96.png,0004-00-0000-50.png
00000009,564,0,1446498333819,1446498334316,510,274,0,0,0,4,3,1,7,0004-00-0001-75.png,0002-00-0000-54.png
00000009,565,0,1446498337231,1446498337736,1015,272,0,0,0,0,1,1,1,0001-00-0000-22.png,0005-00-0000-99.png
00000009,566,0,1446498340776,1446498341258,482,287,0,0,0,3,2,1,5,0002-00-0000-80.png,0003-00-0000-54.png
00000009,567,1,1446498344159,1446498344194,879,332,0,0,0,2,1,1,3,0003-00-0001-69.png,0005-00-0001-15.png
00000009,568,1,1446498345124,1446498346053,451,408,0,0,0,1,2,1,3,0005-00-0001-14.png,0003-00-0000-86.png
00000009,569,0,1446498346968,1446498346976,862,391,0,0,0,2,3,1,5,0003-00-0000-72.png,0002-00-0001-15.png
00000009,570,0,1446498350120,1446498350148,862,306,0,0,0,3,4,1,7,0002-00-0000-12.png,0004-00-0000-72.png
00000009,571,1,1446498353132,1446498353803,927,334,0,0,0,4,3,1,7,0004-00-0000-35.png,0002-00-0001-19.png
00000009,572,0,1446498354990,1446498355690,478,264,0,0,0,1,0,1,1,0005-00-0000-08.png,0001-00-0001-66.png
00000009,573,0,1446498358544,1446498359200,468,271,0,0,0,2,1,1,3,0003-00-0001-55.png,0005-00-0000-03.png
00000009,574,1,1446498362345,1446498362919,513,293,0,0,0,0,1,1,1,0001-00-0001-84.png,0005-00-0000-09.png
00000009,575,1,1446498364201,1446498364306,911,381,0,0,0,3,2,1,5,0002-00-0000-59.png,0003-00-0001-18.png
00000009,576,0,1446498365235,1446498365275,862,384,0,0,0,1,2,1,3,0005-00-0001-26.png,0003-00-0000-56.png
00000009,577,1,1446498368112,1446498368687,1045,299,0,0,0,2,1,1,3,0003-00-0000-00.png,0005-00-0000-85.png
00000009,578,1,1446498369604,1446498370370,495,254,0,0,0,1,2,1,3,0005-00-0001-47.png,0003-00-0000-36.png
00000009,579,0,1446498371258,1446498371290,913,410,0,0,0,2,3,1,5,0003-00-0001-34.png,0002-00-0001-89.png
00000009,580,0,1446498374754,1446498374786,913,332,0,0,0,0,1,1,1,0001-00-0001-59.png,0005-00-0001-17.png
00000009,581,0,1446498377768,1446498378528,465,254,0,0,0,4,3,1,7,0004-00-0001-03.png,0002-00-0000-92.png
00000009,582,0,1446498381446,1446498381885,417,369,0,0,0,1,0,1,1,0005-00-0000-44.png,0001-00-0001-85.png
00000009,583,1,1446498384752,1446498384803,862,410,0,0,0,3,2,1,5,0002-00-0001-09.png,0003-00-0001-95.png
00000009,584,0,1446498385667,1446498385735,922,436,0,0,0,3,4,1,7,0002-00-0001-60.png,0004-00-0000-05.png
00000009,585,0,1446498388573,1446498389154,1041,278,0,0,0,2,3,1,5,0003-00-0001-75.png,0002-00-0001-24.png
00000009,586,0,1446498392278,1446498392833,504,271,0,0,0,4,3,1,7,0004-00-0000-56.png,0002-00-0000-64.png
00000009,587,0,1446498395827,1446498396331,421,350,0,0,0,2,1,1,3,0003-00-0001-01.png,0005-00-0000-99.png
00000009,588,0,1446498399424,1446498399944,964,400,0,0,0,0,1,1,1,0001-00-0000-64.png,0005-00-0000-98.png
00000009,589,1,1446498403131,1446498403378,908,337,0,0,0,3,2,1,5,0002-00-0000-00.png,0003-00-0001-75.png
00000009,590,0,1446498404295,1446498404315,892,452,0,0,0,1,2,1,3,0005-00-0001-89.png,0003-00-0001-71.png
00000009,591,0,1446498407246,1446498407807,487,293,0,0,0,1,0,1,1,0005-00-0001-27.png,0001-00-0001-69.png
00000009,592,0,1446498410982,1446498410998,861,281,0,0,0,3,4,1,7,0002-00-0000-02.png,0004-00-0000-48.png
00000009,593,1,1446498414143,1446498414750,990,400,0,0,0,2,1,1,3,0003-00-0001-49.png,0005-00-0000-73.png
00000009,594,0,1446498415632,1446498415680,888,377,0,0,0,0,1,1,1,0001-00-0000-76.png,0005-00-0001-97.png
00000009,595,0,1446498418891,1446498419169,888,291,0,0,0,2,3,1,5,0003-00-0001-41.png,0002-00-0001-11.png
00000009,596,1,1446498422098,1446498422638,473,275,0,0,0,3,4,1,7,0002-00-0000-84.png,0004-00-0000-89.png
00000009,597,1,1446498423562,1446498424633,1045,271,0,0,0,3,2,1,5,0002-00-0001-12.png,0003-00-0001-77.png
00000009,598,0,1446498425497,1446498425592,925,423,0,0,0,1,2,1,3,0005-00-0001-60.png,0003-00-0001-83.png
00000009,599,0,1446498428450,1446498428984,381,365,0,0,0,1,0,1,1,0005-00-0001-49.png,0001-00-0001-40.png
00000009,600,1,1446498432069,1446498432560,1081,278,0,0,0,4,3,1,7,0004-00-0001-10.png,0002-00-0000-84.png
00000009,601,1,1446498433937,1446498434810,1041,264,0,0,0,4,3,1,7,0004-00-0000-22.png,0002-00-0001-07.png
00000009,602,0,1446498435733,1446498435753,946,377,0,0,0,0,1,1,1,0001-00-0001-59.png,0005-00-0001-48.png
00000009,603,1,1446498438717,1446498438753,862,384,0,0,0,1,0,1,1,0005-00-0000-59.png,0001-00-0001-34.png
00000009,604,1,1446498439687,1446498439739,958,397,0,0,0,3,2,1,5,0002-00-0001-85.png,0003-00-0001-67.png
00000009,605,0,1446498440651,1446498440683,873,368,0,0,0,1,2,1,3,0005-00-0001-74.png,0003-00-0001-32.png
00000009,606,0,1446498443633,1446498444279,934,335,0,0,0,3,4,1,7,0002-00-0000-94.png,0004-00-0000-93.png
00000009,607,0,1446498447581,1446498448060,967,324,0,0,0,2,3,1,5,0003-00-0001-99.png,0002-00-0001-80.png
00000009,608,1,1446498450979,1446498451596,1067,294,0,0,0,2,1,1,3,0003-00-0001-67.png,0005-00-0001-88.png
00000009,609,1,1446498452459,1446498452514,990,391,0,0,0,3,2,1,5,0002-00-0000-91.png,0003-00-0000-81.png
00000009,610,1,1446498453454,1446498453498,912,372,0,0,0,4,3,1,7,0004-00-0000-50.png,0002-00-0000-35.png
00000009,611,0,1446498454618,1446498454654,921,400,0,0,0,0,1,1,1,0001-00-0000-33.png,0005-00-0000-27.png
00000009,612,0,1446498457767,1446498458379,964,320,0,0,0,1,2,1,3,0005-00-0001-73.png,0003-00-0000-88.png
00000009,613,1,1446498461524,1446498462184,973,323,0,0,0,2,1,1,3,0003-00-0001-93.png,0005-00-0001-92.png
00000009,614,0,1446498463072,1446498463159,955,444,0,0,0,2,3,1,5,0003-00-0001-38.png,0002-00-0001-47.png
00000009,615,1,1446498466143,1446498466182,865,383,0,0,0,1,0,1,1,0005-00-0001-31.png,0001-00-0001-14.png
00000009,616,0,1446498467057,1446498467081,889,439,0,0,0,3,4,1,7,0002-00-0000-10.png,0004-00-0001-68.png
00000009,617,1,1446498470012,1446498470564,1071,324,0,0,0,4,3,1,7,0004-00-0001-47.png,0002-00-0000-72.png
00000009,618,1,1446498471399,1446498471467,960,412,0,0,0,3,2,1,5,0002-00-0000-47.png,0003-00-0000-74.png
00000009,619,0,1446498472407,1446498472451,906,366,0,0,0,0,1,1,1,0001-00-0001-40.png,0005-00-0001-97.png
00000009,620,0,1446498475516,1446498475564,916,364,0,0,0,3,4,1,7,0002-00-0000-92.png,0004-00-0000-63.png
00000009,621,1,1446498478457,1446498478991,1019,275,0,0,0,2,1,1,3,0003-00-0000-90.png,0005-00-0000-83.png
00000009,622,1,1446498479837,1446498479869,913,439,0,0,0,1,0,1,1,0005-00-0000-91.png,0001-00-0001-30.png
00000009,623,0,1446498480739,1446498480783,862,368,0,0,0,1,2,1,3,0005-00-0000-50.png,0003-00-0001-56.png
00000009,624,0,1446498483654,1446498484217,966,341,0,0,0,2,3,1,5,0003-00-0000-57.png,0002-00-0000-09.png
00000009,625,1,1446498487098,1446498487646,964,384,0,0,0,1,0,1,1,0005-00-0001-30.png,0001-00-0000-34.png
00000009,626,1,1446498488971,1446498489013,876,384,0,0,0,4,3,1,7,0004-00-0001-87.png,0002-00-0001-07.png
00000009,627,0,1446498490085,1446498490145,880,417,0,0,0,2,3,1,5,0003-00-0001-75.png,0002-00-0001-39.png
00000009,628,0,1446498493136,1446498493621,521,282,0,0,0,3,2,1,5,0002-00-0001-44.png,0003-00-0000-00.png
00000009,629,1,1446498496533,1446498497089,464,306,0,0,0,1,2,1,3,0005-00-0001-78.png,0003-00-0001-81.png
00000009,630,0,1446498497915,1446498497931,866,408,0,0,0,3,4,1,7,0002-00-0001-68.png,0004-00-0001-25.png
00000009,631,1,1446498500949,1446498501522,1085,310,0,0,0,2,1,1,3,0003-00-0000-99.png,0005-00-0000-58.png
00000009,632,0,1446498502347,1446498502387,939,410,0,0,0,0,1,1,1,0001-00-0000-99.png,0005-00-0001-99.png
00000009,633,1,1446498505411,1446498505883,484,247,0,0,0,3,4,1,7,0002-00-0000-58.png,0004-00-0001-65.png
00000009,634,0,1446498507306,1446498507354,877,384,0,0,0,2,3,1,5,0003-00-0001-96.png,0002-00-0001-09.png
00000009,635,0,1446498510280,1446498510798,508,261,0,0,0,3,2,1,5,0002-00-0001-45.png,0003-00-0000-99.png
00000009,636,0,1446498513687,1446498514720,1047,310,0,0,0,0,1,1,1,0001-00-0001-02.png,0005-00-0000-22.png
00000009,637,0,1446498517577,1446498518090,480,267,0,0,0,1,0,1,1,0005-00-0000-60.png,0001-00-0001-66.png
00000009,638,1,1446498521052,1446498521253,862,421,0,0,0,2,1,1,3,0003-00-0000-57.png,0005-00-0000-17.png
00000009,639,1,1446498522194,1446498522206,934,395,0,0,0,4,3,1,7,0004-00-0001-12.png,0002-00-0000-46.png
00000009,640,0,1446498523317,1446498523416,901,410,0,0,0,1,2,1,3,0005-00-0001-47.png,0003-00-0000-90.png
00000009,641,1,1446498526277,1446498526847,938,336,0,0,0,2,1,1,3,0003-00-0000-07.png,0005-00-0001-32.png
00000009,642,0,1446498527720,1446498527740,923,366,0,0,0,2,3,1,5,0003-00-0001-18.png,0002-00-0000-77.png
00000009,643,1,1446498530683,1446498531209,505,276,0,0,0,3,4,1,7,0002-00-0000-54.png,0004-00-0000-32.png
00000009,644,1,1446498532062,1446498532094,874,438,0,0,0,3,2,1,5,0002-00-0001-77.png,0003-00-0001-33.png
00000009,645,1,1446498533076,1446498533125,893,366,0,0,0,1,0,1,1,0005-00-0000-56.png,0001-00-0001-90.png
00000009,646,0,1446498534331,1446498534371,898,399,0,0,0,1,2,1,3,0005-00-0001-02.png,0003-00-0000-08.png
00000009,647,0,1446498537541,1446498538039,516,255,0,0,0,4,3,1,7,0004-00-0001-85.png,0002-00-0000-46.png
00000009,648,0,1446498541204,1446498541817,1079,306,0,0,0,0,1,1,1,0001-00-0000-63.png,0005-00-0001-77.png
00000009,649,1,1446498544923,1446498545444,946,323,0,0,0,1,0,1,1,0005-00-0000-10.png,0001-00-0000-28.png
00000009,650,0,1446498546284,1446498546323,940,407,0,0,0,0,1,1,1,0001-00-0000-70.png,0005-00-0001-67.png
00000009,651,1,1446498549412,1446498549943,1070,283,0,0,0,2,1,1,3,0003-00-0001-04.png,0005-00-0001-85.png
00000009,652,0,1446498550781,1446498550820,913,451,0,0,0,1,2,1,3,0005-00-0000-98.png,0003-00-0001-65.png
00000009,653,1,1446498553888,1446498554104,889,332,0,0,0,4,3,1,7,0004-00-0000-86.png,0002-00-0001-17.png
00000009,654,0,1446498555506,1446498556215,1053,317,0,0,0,3,4,1,7,0002-00-0000-08.png,0004-00-0001-02.png
00000009,655,0,1446498559392,1446498559910,514,256,0,0,0,3,2,1,5,0002-00-0000-46.png,0003-00-0001-18.png
00000009,656,0,1446498563020,1446498563535,1118,296,0,0,0,2,3,1,5,0003-00-0001-42.png,0002-00-0000-24.png
00000009,657,1,1446498566539,1446498567026,492,273,0,0,0,0,1,1,1,0001-00-0001-79.png,0005-00-0001-71.png
00000009,658,1,1446498567887,1446498567916,894,463,0,0,0,1,0,1,1,0005-00-0001-91.png,0001-00-0000-34.png
00000009,659,0,1446498568870,1446498568902,868,401,0,0,0,3,4,1,7,0002-00-0001-34.png,0004-00-0000-05.png
00000009,660,1,1446498572070,1446498572644,961,330,0,0,0,4,3,1,7,0004-00-0001-37.png,0002-00-0001-01.png
00000009,661,1,1446498574071,1446498574312,944,466,0,0,0,2,1,1,3,0003-00-0001-67.png,0005-00-0001-30.png
00000009,662,1,1446498575282,1446498575321,912,448,0,0,0,3,2,1,5,0002-00-0001-50.png,0003-00-0000-40.png
00000009,663,0,1446498576298,1446498576354,888,445,0,0,0,2,3,1,5,0003-00-0000-84.png,0002-00-0001-60.png
00000009,664,1,1446498579514,1446498580031,478,277,0,0,0,1,2,1,3,0005-00-0000-18.png,0003-00-0000-01.png
00000009,665,1,1446498581415,1446498582513,487,279,0,0,0,1,2,1,3,0005-00-0001-17.png,0003-00-0001-56.png
00000009,666,0,1446498583421,1446498583465,888,436,0,0,0,3,4,1,7,0002-00-0000-13.png,0004-00-0000-53.png
00000009,667,0,1446498586342,1446498586996,484,268,0,0,0,1,0,1,1,0005-00-0000-10.png,0001-00-0000-50.png
00000009,668,1,1446498590589,1446498591090,964,358,0,0,0,4,3,1,7,0004-00-0001-47.png,0002-00-0000-79.png
00000009,669,0,1446498591946,1446498591974,866,455,0,0,0,2,3,1,5,0003-00-0000-22.png,0002-00-0000-63.png
00000009,670,0,1446498595038,1446498595556,486,273,0,0,0,3,2,1,5,0002-00-0001-66.png,0003-00-0000-09.png
00000009,671,1,1446498598720,1446498599203,1102,279,0,0,0,2,1,1,3,0003-00-0001-64.png,0005-00-0000-33.png
00000009,672,0,1446498600037,1446498600097,950,411,0,0,0,0,1,1,1,0001-00-0001-35.png,0005-00-0000-00.png
00000009,673,1,1446498603129,1446498603684,397,347,0,0,0,0,1,1,1,0001-00-0000-15.png,0005-00-0001-44.png
00000009,674,1,1446498604506,1446498604546,889,397,0,0,0,1,0,1,1,0005-00-0000-89.png,0001-00-0000-79.png
00000009,675,1,1446498605513,1446498605561,894,428,0,0,0,4,3,1,7,0004-00-0001-70.png,0002-00-0000-76.png
00000009,676,0,1446498606608,1446498606636,885,363,0,0,0,3,4,1,7,0002-00-0001-40.png,0004-00-0001-20.png
00000009,677,0,1446498609600,1446498609636,862,384,0,0,0,1,2,1,3,0005-00-0000-82.png,0003-00-0001-05.png
00000009,678,0,1446498612573,1446498613074,1066,305,0,0,0,2,3,1,5,0003-00-0001-63.png,0002-00-0001-80.png
00000009,679,0,1446498615958,1446498616483,398,347,0,0,0,3,2,1,5,0002-00-0000-58.png,0003-00-0001-96.png
00000009,680,1,1446498620521,1446498621556,1008,458,0,0,0,2,1,1,3,0003-00-0001-50.png,0005-00-0001-29.png
00000009,681,0,1446498623088,1446498623220,911,435,0,0,0,3,4,1,7,0002-00-0000-00.png,0004-00-0000-94.png
00000009,682,1,1446498626097,1446498626613,504,251,0,0,0,1,2,1,3,0005-00-0001-52.png,0003-00-0001-34.png
00000009,683,0,1446498628028,1446498628300,964,488,0,0,0,0,1,1,1,0001-00-0000-39.png,0005-00-0001-85.png
00000009,684,0,1446498631447,1446498631994,487,426,0,0,0,1,0,1,1,0005-00-0001-57.png,0001-00-0001-34.png
00000009,685,0,1446498635189,1446498635686,503,245,0,0,0,3,2,1,5,0002-00-0000-12.png,0003-00-0000-13.png
00000009,686,1,1446498638541,1446498639097,941,314,0,0,0,4,3,1,7,0004-00-0000-09.png,0002-00-0001-37.png
00000009,687,0,1446498639960,1446498639992,906,456,0,0,0,2,3,1,5,0003-00-0000-71.png,0002-00-0001-42.png
00000009,688,1,1446498643120,1446498643655,939,348,0,0,0,2,1,1,3,0003-00-0000-74.png,0005-00-0001-32.png
00000009,689,1,1446498644522,1446498644563,878,436,0,0,0,4,3,1,7,0004-00-0000-22.png,0002-00-0001-23.png
00000009,690,1,1446498645548,1446498646620,1072,332,0,0,0,3,2,1,5,0002-00-0001-42.png,0003-00-0000-98.png
00000009,691,0,1446498647529,1446498647579,920,426,0,0,0,3,4,1,7,0002-00-0000-76.png,0004-00-0001-12.png
00000009,692,1,1446498650684,1446498651245,939,320,0,0,0,1,0,1,1,0005-00-0001-72.png,0001-00-0001-26.png
00000009,693,1,1446498652133,1446498652213,913,436,0,0,0,2,1,1,3,0003-00-0000-51.png,0005-00-0000-64.png
00000009,694,0,1446498653088,1446498653116,890,388,0,0,0,2,3,1,5,0003-00-0000-06.png,0002-00-0001-85.png
00000009,695,0,1446498656257,1446498656289,940,324,0,0,0,1,2,1,3,0005-00-0001-06.png,0003-00-0001-73.png
00000009,696,0,1446498659221,1446498659830,939,395,0,0,0,0,1,1,1,0001-00-0001-87.png,0005-00-0001-11.png
00000009,697,1,1446498662949,1446498663092,862,396,0,0,0,3,2,1,5,0002-00-0000-97.png,0003-00-0000-03.png
00000009,698,0,1446498664083,1446498664151,901,436,0,0,0,0,1,1,1,0001-00-0000-19.png,0005-00-0000-77.png
00000009,699,0,1446498667160,1446498667193,890,402,0,0,0,3,4,1,7,0002-00-0001-18.png,0004-00-0000-62.png
00000009,700,0,1446498670293,1446498670876,1075,292,0,0,0,2,3,1,5,0003-00-0001-08.png,0002-00-0001-87.png
00000009,701,1,1446498674070,1446498674639,511,273,0,0,0,1,2,1,3,0005-00-0001-36.png,0003-00-0000-98.png
00000009,702,1,1446498675468,1446498675514,906,418,0,0,0,4,3,1,7,0004-00-0000-56.png,0002-00-0001-58.png
00000009,703,1,1446498676474,1446498676514,888,384,0,0,0,2,1,1,3,0003-00-0000-53.png,0005-00-0001-80.png
00000009,704,1,1446498677625,1446498677709,916,425,0,0,0,1,0,1,1,0005-00-0001-28.png,0001-00-0001-53.png
00000009,705,0,1446498678796,1446498678852,881,419,0,0,0,1,2,1,3,0005-00-0000-37.png,0003-00-0000-83.png
00000009,706,0,1446498681769,1446498682424,1046,304,0,0,0,2,3,1,5,0003-00-0001-26.png,0002-00-0000-51.png
00000009,707,0,1446498685380,1446498686314,960,305,0,0,0,0,1,1,1,0001-00-0001-78.png,0005-00-0000-20.png
00000009,708,0,1446498689435,1446498690021,498,270,0,0,0,3,2,1,5,0002-00-0001-47.png,0003-00-0000-13.png
00000009,709,1,1446498693212,1446498693805,925,430,0,0,0,4,3,1,7,0004-00-0000-81.png,0002-00-0001-35.png
00000009,710,1,1446498695238,1446498695463,916,435,0,0,0,2,1,1,3,0003-00-0000-40.png,0005-00-0001-58.png
00000009,711,1,1446498696407,1446498696466,902,443,0,0,0,1,0,1,1,0005-00-0000-89.png,0001-00-0000-31.png
00000009,712,0,1446498697433,1446498697473,888,410,0,0,0,3,4,1,7,0002-00-0000-13.png,0004-00-0000-49.png
00000009,713,1,1446498700320,1446498701192,1092,291,0,0,0,4,3,1,7,0004-00-0001-40.png,0002-00-0000-00.png
00000009,714,0,1446498702532,1446498702916,990,495,0,0,0,2,3,1,5,0003-00-0000-78.png,0002-00-0001-87.png
00000009,715,1,1446498705880,1446498706452,1024,288,0,0,0,2,1,1,3,0003-00-0001-97.png,0005-00-0001-65.png
00000009,716,1,1446498707342,1446498707374,913,447,0,0,0,1,0,1,1,0005-00-0000-26.png,0001-00-0000-54.png
00000009,717,0,1446498708337,1446498708369,918,438,0,0,0,0,1,1,1,0001-00-0000-66.png,0005-00-0001-07.png
00000009,718,1,1446498711336,1446498711830,409,335,0,0,0,3,4,1,7,0002-00-0000-33.png,0004-00-0000-97.png
00000009,719,1,1446498713143,1446498713167,867,412,0,0,0,3,2,1,5,0002-00-0001-59.png,0003-00-0000-01.png
00000009,720,0,1446498714087,1446498714143,898,436,0,0,0,1,2,1,3,0005-00-0001-55.png,0003-00-0000-79.png
00000009,721,0,1446498717168,1446498717333,873,361,0,0,0,2,3,1,5,0003-00-0001-67.png,0002-00-0001-93.png
00000009,722,1,1446498720469,1446498721016,508,289,0,0,0,0,1,1,1,0001-00-0000-40.png,0005-00-0001-65.png
00000009,723,0,1446498722360,1446498722463,887,432,0,0,0,1,2,1,3,0005-00-0000-28.png,0003-00-0001-16.png
00000009,724,0,1446498725538,1446498726067,1071,277,0,0,0,3,4,1,7,0002-00-0001-71.png,0004-00-0000-75.png
00000009,725,1,1446498729123,1446498729779,1092,294,0,0,0,1,0,1,1,0005-00-0000-25.png,0001-00-0000-85.png
00000009,726,1,1446498730611,1446498730659,913,426,0,0,0,2,1,1,3,0003-00-0001-83.png,0005-00-0000-49.png
00000009,727,1,1446498731706,1446498731801,888,410,0,0,0,3,2,1,5,0002-00-0001-86.png,0003-00-0001-80.png
00000009,728,1,1446498732852,1446498732931,898,436,0,0,0,4,3,1,7,0004-00-0001-24.png,0002-00-0000-62.png
00000009,729,0,1446498734025,1446498734061,888,410,0,0,0,3,4,1,7,0002-00-0000-55.png,0004-00-0001-81.png
00000009,730,0,1446498736899,1446498737547,963,349,0,0,0,2,3,1,5,0003-00-0000-73.png,0002-00-0001-21.png
00000009,731,1,1446498740525,1446498741048,1062,308,0,0,0,2,1,1,3,0003-00-0000-60.png,0005-00-0000-76.png
00000009,732,1,1446498742339,1446498742680,965,519,0,0,0,4,3,1,7,0004-00-0001-68.png,0002-00-0000-66.png
00000009,733,1,1446498743661,1446498743693,890,417,0,0,0,3,2,1,5,0002-00-0000-67.png,0003-00-0001-57.png
00000009,734,0,1446498744818,1446498744869,913,463,0,0,0,0,1,1,1,0001-00-0001-76.png,0005-00-0001-64.png
00000009,735,1,1446498747765,1446498748750,500,277,0,0,0,1,2,1,3,0005-00-0001-93.png,0003-00-0000-89.png
00000009,736,1,1446498749656,1446498749676,887,494,0,0,0,1,0,1,1,0005-00-0001-66.png,0001-00-0001-19.png
00000009,737,0,1446498750617,1446498750739,913,496,0,0,0,2,3,1,5,0003-00-0000-56.png,0002-00-0000-54.png
00000009,738,0,1446498753817,1446498754804,507,286,0,0,0,4,3,1,7,0004-00-0000-24.png,0002-00-0001-26.png
00000009,739,1,1446498758079,1446498758604,1084,306,0,0,0,2,1,1,3,0003-00-0001-95.png,0005-00-0001-56.png
00000009,740,0,1446498759941,1446498760263,943,466,0,0,0,1,2,1,3,0005-00-0000-09.png,0003-00-0001-31.png
00000009,741,1,1446498763350,1446498764156,987,411,0,0,0,1,0,1,1,0005-00-0001-07.png,0001-00-0000-77.png
00000009,742,1,1446498765473,1446498765779,989,494,0,0,0,3,2,1,5,0002-00-0001-55.png,0003-00-0001-48.png
00000009,743,0,1446498766716,1446498766764,934,416,0,0,0,0,1,1,1,0001-00-0001-16.png,0005-00-0000-23.png
00000009,744,1,1446498769888,1446498770495,488,260,0,0,0,3,4,1,7,0002-00-0001-10.png,0004-00-0000-76.png
00000009,745,1,1446498771366,1446498771394,880,460,0,0,0,2,1,1,3,0003-00-0001-19.png,0005-00-0001-17.png
00000009,746,0,1446498772296,1446498772336,899,410,0,0,0,2,3,1,5,0003-00-0000-37.png,0002-00-0000-22.png
00000009,747,0,1446498775182,1446498775762,507,263,0,0,0,1,0,1,1,0005-00-0000-07.png,0001-00-0000-86.png
00000009,748,0,1446498778628,1446498779598,485,271,0,0,0,3,2,1,5,0002-00-0001-07.png,0003-00-0000-12.png
00000009,749,1,1446498782721,1446498783322,1091,280,0,0,0,4,3,1,7,0004-00-0001-93.png,0002-00-0001-03.png
00000009,750,0,1446498784626,1446498785842,1066,270,0,0,0,1,2,1,3,0005-00-0001-12.png,0003-00-0001-47.png
00000009,751,0,1446498797572,1446498798190,1054,294,0,0,0,3,4,1,7,0002-00-0000-36.png,0004-00-0001-57.png
00000009,752,1,1446498801150,1446498801607,415,372,0,0,0,0,1,1,1,0001-00-0000-51.png,0005-00-0001-54.png
00000009,753,0,1446498802532,1446498803302,468,273,0,0,0,3,2,1,5,0002-00-0000-84.png,0003-00-0001-79.png
00000009,754,0,1446498806460,1446498806926,964,349,0,0,0,2,3,1,5,0003-00-0000-76.png,0002-00-0000-38.png
00000009,755,0,1446498810084,1446498810667,949,360,0,0,0,3,4,1,7,0002-00-0000-96.png,0004-00-0001-19.png
00000009,756,1,1446498813762,1446498814233,478,293,0,0,0,1,2,1,3,0005-00-0000-97.png,0003-00-0000-75.png
00000009,757,1,1446498815091,1446498815131,885,421,0,0,0,2,1,1,3,0003-00-0000-28.png,0005-00-0001-45.png
00000009,758,0,1446498816036,1446498816096,881,426,0,0,0,0,1,1,1,0001-00-0000-62.png,0005-00-0001-45.png
00000009,759,0,1446498818944,1446498819523,477,257,0,0,0,1,0,1,1,0005-00-0001-32.png,0001-00-0000-43.png
00000009,760,1,1446498822516,1446498823029,1063,281,0,0,0,4,3,1,7,0004-00-0001-86.png,0002-00-0001-13.png
00000009,761,0,1446498824291,1446498824334,891,388,0,0,0,3,4,1,7,0002-00-0000-64.png,0004-00-0000-50.png
00000009,762,1,1446498828509,1446498829007,960,325,0,0,0,4,3,1,7,0004-00-0001-02.png,0002-00-0000-58.png
00000009,763,1,1446498829878,1446498829931,889,444,0,0,0,1,0,1,1,0005-00-0001-36.png,0001-00-0001-15.png
00000009,764,1,1446498830933,1446498830981,874,436,0,0,0,3,2,1,5,0002-00-0001-58.png,0003-00-0000-31.png
00000009,765,0,1446498831997,1446498832025,867,447,0,0,0,1,2,1,3,0005-00-0001-10.png,0003-00-0000-06.png
00000009,766,0,1446498835248,1446498835276,907,352,0,0,0,2,3,1,5,0003-00-0000-25.png,0002-00-0000-38.png
00000009,767,0,1446498838497,1446498839125,964,373,0,0,0,0,1,1,1,0001-00-0001-31.png,0005-00-0001-68.png
00000009,768,1,1446498842061,1446498842725,1072,276,0,0,0,2,1,1,3,0003-00-0000-97.png,0005-00-0001-43.png
00000009,769,0,1446498843611,1446498843690,942,414,0,0,0,3,4,1,7,0002-00-0000-86.png,0004-00-0001-82.png
00000009,770,1,1446498846792,1446498847307,495,278,0,0,0,1,2,1,3,0005-00-0001-91.png,0003-00-0000-64.png
00000009,771,1,1446498848692,1446498849499,935,354,0,0,0,2,1,1,3,0003-00-0000-67.png,0005-00-0000-33.png
00000009,772,1,1446498850359,1446498850421,929,410,0,0,0,1,0,1,1,0005-00-0001-07.png,0001-00-0000-03.png
00000009,773,0,1446498851376,1446498851400,862,410,0,0,0,2,3,1,5,0003-00-0000-08.png,0002-00-0000-50.png
00000009,774,1,1446498854447,1446498855017,508,289,0,0,0,0,1,1,1,0001-00-0001-02.png,0005-00-0000-79.png
00000009,775,1,1446498856302,1446498857007,917,335,0,0,0,4,3,1,7,0004-00-0001-14.png,0002-00-0000-83.png
00000009,776,1,1446498857869,1446498857919,952,446,0,0,0,3,2,1,5,0002-00-0001-75.png,0003-00-0001-97.png
00000009,777,0,1446498858935,1446498858982,931,468,0,0,0,1,2,1,3,0005-00-0001-09.png,0003-00-0000-01.png
00000009,778,1,1446498861910,1446498862411,941,321,0,0,0,1,0,1,1,0005-00-0000-76.png,0001-00-0001-21.png
00000009,779,1,1446498863608,1446498864708,499,258,0,0,0,0,1,1,1,0001-00-0000-15.png,0005-00-0001-05.png
00000009,780,0,1446498865623,1446498865646,888,451,0,0,0,3,4,1,7,0002-00-0000-12.png,0004-00-0000-20.png
00000009,781,0,1446498868776,1446498869390,507,262,0,0,0,4,3,1,7,0004-00-0001-66.png,0002-00-0001-59.png
00000009,782,0,1446498872614,1446498873090,1092,306,0,0,0,2,3,1,5,0003-00-0000-82.png,0002-00-0001-11.png
00000009,783,1,1446498875969,1446498875985,900,407,0,0,0,3,2,1,5,0002-00-0001-57.png,0003-00-0000-68.png
00000009,784,1,1446498876915,1446498876935,864,461,0,0,0,2,1,1,3,0003-00-0001-17.png,0005-00-0001-73.png
00000009,785,0,1446498877900,1446498877932,874,418,0,0,0,3,4,1,7,0002-00-0001-73.png,0004-00-0001-11.png
00000009,786,1,1446498881071,1446498881545,1043,297,0,0,0,4,3,1,7,0004-00-0000-80.png,0002-00-0000-93.png
00000009,787,0,1446498882878,1446498883619,1029,307,0,0,0,0,1,1,1,0001-00-0000-90.png,0005-00-0001-56.png
00000009,788,1,1446498886532,1446498886562,888,358,0,0,0,3,2,1,5,0002-00-0000-82.png,0003-00-0001-96.png
00000009,789,0,1446498887499,1446498887547,903,436,0,0,0,2,3,1,5,0003-00-0000-28.png,0002-00-0001-25.png
00000009,790,1,1446498890695,1446498891215,412,396,0,0,0,1,2,1,3,0005-00-0001-11.png,0003-00-0001-36.png
00000009,791,1,1446498892513,1446498892537,888,396,0,0,0,2,1,1,3,0003-00-0001-01.png,0005-00-0000-97.png
00000009,792,1,1446498893509,1446498893537,903,410,0,0,0,1,0,1,1,0005-00-0000-54.png,0001-00-0001-18.png
00000009,793,0,1446498894786,1446498894837,910,470,0,0,0,1,2,1,3,0005-00-0000-39.png,0003-00-0000-28.png
00000009,794,1,1446498898034,1446498898490,489,277,0,0,0,0,1,1,1,0001-00-0000-21.png,0005-00-0000-98.png
00000009,795,1,1446498899762,1446498900630,484,258,0,0,0,3,4,1,7,0002-00-0000-05.png,0004-00-0001-04.png
00000009,796,1,1446498901465,1446498901497,862,411,0,0,0,1,0,1,1,0005-00-0001-79.png,0001-00-0000-17.png
00000009,797,1,1446498902454,1446498902486,903,421,0,0,0,4,3,1,7,0004-00-0001-26.png,0002-00-0000-79.png
00000009,798,0,1446498903698,1446498903734,901,446,0,0,0,2,3,1,5,0003-00-0000-94.png,0002-00-0001-77.png
00000009,799,1,1446498906760,1446498907313,1067,294,0,0,0,2,1,1,3,0003-00-0001-90.png,0005-00-0000-94.png
00000009,800,1,1446498908625,1446498908653,888,410,0,0,0,3,2,1,5,0002-00-0000-73.png,0003-00-0001-76.png
00000009,801,1,1446498909622,1446498909686,921,449,0,0,0,2,1,1,3,0003-00-0000-00.png,0005-00-0001-04.png
00000009,802,1,1446498910660,1446498910707,898,436,0,0,0,4,3,1,7,0004-00-0001-37.png,0002-00-0000-71.png
00000009,803,1,1446498911876,1446498911912,894,437,0,0,0,3,2,1,5,0002-00-0000-36.png,0003-00-0001-11.png
00000009,804,0,1446498913027,1446498913059,882,470,0,0,0,3,4,1,7,0002-00-0001-71.png,0004-00-0000-85.png
00000009,805,0,1446498916755,1446498916836,926,303,0,0,0,2,3,1,5,0003-00-0000-18.png,0002-00-0001-51.png
00000009,806,1,1446498919813,1446498920075,942,292,0,0,0,1,0,1,1,0005-00-0000-74.png,0001-00-0001-66.png
00000009,807,0,1446498921079,1446498921143,921,481,0,0,0,1,2,1,3,0005-00-0001-08.png,0003-00-0001-16.png
00000009,808,0,1446498924152,1446498924911,1065,280,0,0,0,0,1,1,1,0001-00-0000-27.png,0005-00-0001-56.png
00000009,809,1,1446498927818,1446498928710,421,377,0,0,0,0,1,1,1,0001-00-0000-16.png,0005-00-0001-94.png
00000009,810,0,1446498930022,1446498930636,932,343,0,0,0,2,3,1,5,0003-00-0001-47.png,0002-00-0000-30.png
00000009,811,1,1446498933527,1446498934302,936,332,0,0,0,4,3,1,7,0004-00-0001-28.png,0002-00-0001-00.png
00000009,812,1,1446498935133,1446498936102,1036,279,0,0,0,2,1,1,3,0003-00-0001-29.png,0005-00-0000-91.png
00000009,813,0,1446498937077,1446498937101,882,361,0,0,0,1,2,1,3,0005-00-0000-29.png,0003-00-0001-67.png
00000009,814,0,1446498940160,1446498940673,439,389,0,0,0,3,2,1,5,0002-00-0001-54.png,0003-00-0001-69.png
00000009,815,1,1446498943908,1446498944479,1076,300,0,0,0,1,0,1,1,0005-00-0001-43.png,0001-00-0001-26.png
00000009,816,0,1446498945324,1446498945368,898,411,0,0,0,3,4,1,7,0002-00-0001-52.png,0004-00-0001-37.png
00000009,817,1,1446498948309,1446498948823,939,330,0,0,0,2,1,1,3,0003-00-0001-39.png,0005-00-0000-31.png
00000009,818,0,1446498949648,1446498949696,888,436,0,0,0,3,4,1,7,0002-00-0000-27.png,0004-00-0000-40.png
00000009,819,0,1446498952710,1446498953233,1048,297,0,0,0,1,2,1,3,0005-00-0001-17.png,0003-00-0000-37.png
00000009,820,0,1446498956197,1446498956672,478,399,0,0,0,3,2,1,5,0002-00-0001-94.png,0003-00-0001-98.png
00000009,821,0,1446498959757,1446498959789,911,347,0,0,0,2,3,1,5,0003-00-0000-05.png,0002-00-0001-94.png
00000009,822,1,1446498962815,1446498963361,1018,252,0,0,0,4,3,1,7,0004-00-0001-63.png,0002-00-0001-27.png
00000009,823,0,1446498964340,1446498964376,913,434,0,0,0,0,1,1,1,0001-00-0000-55.png,0005-00-0001-62.png
00000009,824,1,1446498974797,1446498975338,1033,270,0,0,0,1,0,1,1,0005-00-0001-58.png,0001-00-0000-56.png
00000009,825,1,1446498976271,1446498976334,862,436,0,0,0,2,1,1,3,0003-00-0001-64.png,0005-00-0001-61.png
00000009,826,0,1446498977276,1446498977336,870,453,0,0,0,3,4,1,7,0002-00-0001-89.png,0004-00-0000-66.png
00000009,827,0,1446498980273,1446498980305,901,410,0,0,0,0,1,1,1,0001-00-0001-35.png,0005-00-0001-39.png
00000009,828,0,1446498983363,1446498983395,869,318,0,0,0,2,3,1,5,0003-00-0000-63.png,0002-00-0001-64.png
00000009,829,1,1446498986513,1446498987033,479,249,0,0,0,1,2,1,3,0005-00-0000-87.png,0003-00-0000-02.png
00000009,830,0,1446498988326,1446498989287,446,235,0,0,0,3,2,1,5,0002-00-0001-06.png,0003-00-0000-78.png
00000009,831,1,1446498992117,1446498992614,918,304,0,0,0,1,0,1,1,0005-00-0001-25.png,0001-00-0000-61.png
00000009,832,1,1446498993890,1446498994686,922,346,0,0,0,4,3,1,7,0004-00-0001-53.png,0002-00-0000-21.png
00000009,833,1,1446498995567,1446498995591,912,390,0,0,0,1,0,1,1,0005-00-0001-43.png,0001-00-0001-63.png
00000009,834,0,1446498996592,1446498996620,862,384,0,0,0,0,1,1,1,0001-00-0001-06.png,0005-00-0001-23.png
00000009,835,1,1446498999790,1446499000332,942,358,0,0,0,4,3,1,7,0004-00-0001-28.png,0002-00-0001-24.png
00000009,836,1,1446499001601,1446499001669,888,432,0,0,0,3,2,1,5,0002-00-0001-87.png,0003-00-0000-62.png
00000009,837,0,1446499002661,1446499002689,887,420,0,0,0,2,3,1,5,0003-00-0001-42.png,0002-00-0001-31.png
00000009,838,1,1446499005822,1446499005855,901,306,0,0,0,2,1,1,3,0003-00-0001-11.png,0005-00-0001-50.png
00000009,839,0,1446499006759,1446499006775,870,485,0,0,0,3,4,1,7,0002-00-0000-63.png,0004-00-0000-95.png
00000009,840,1,1446499009691,1446499010177,478,262,0,0,0,1,2,1,3,0005-00-0001-28.png,0003-00-0000-49.png
00000009,841,0,1446499011015,1446499011076,888,394,0,0,0,2,3,1,5,0003-00-0000-62.png,0002-00-0000-00.png
00000009,842,1,1446499014043,1446499014102,862,402,0,0,0,3,2,1,5,0002-00-0001-75.png,0003-00-0000-78.png
00000009,843,0,1446499014996,1446499015016,886,409,0,0,0,3,4,1,7,0002-00-0001-56.png,0004-00-0001-49.png
00000009,844,1,1446499018067,1446499018675,496,258,0,0,0,1,2,1,3,0005-00-0000-02.png,0003-00-0001-35.png
00000009,845,1,1446499020055,1446499020251,942,412,0,0,0,2,1,1,3,0003-00-0001-46.png,0005-00-0000-07.png
00000009,846,1,1446499021215,1446499021267,931,417,0,0,0,1,0,1,1,0005-00-0000-49.png,0001-00-0001-95.png
00000009,847,1,1446499022391,1446499022447,921,436,0,0,0,4,3,1,7,0004-00-0001-62.png,0002-00-0001-49.png
00000009,848,0,1446499023621,1446499023659,901,424,0,0,0,0,1,1,1,0001-00-0001-40.png,0005-00-0001-92.png
00000009,849,1,1446499026714,1446499027236,510,256,0,0,0,1,2,1,3,0005-00-0001-50.png,0003-00-0001-95.png
00000009,850,1,1446499028101,1446499028121,869,455,0,0,0,2,1,1,3,0003-00-0001-33.png,0005-00-0000-36.png
00000009,851,0,1446499028965,1446499029043,879,436,0,0,0,0,1,1,1,0001-00-0000-29.png,0005-00-0000-04.png
00000009,852,0,1446499031995,1446499032509,509,289,0,0,0,1,0,1,1,0005-00-0001-99.png,0001-00-0001-34.png
00000009,853,0,1446499035655,1446499036398,999,303,0,0,0,3,4,1,7,0002-00-0000-44.png,0004-00-0001-45.png
00000009,854,0,1446499039366,1446499039881,939,345,0,0,0,2,3,1,5,0003-00-0001-36.png,0002-00-0000-03.png
00000009,855,0,1446499043098,1446499043621,520,252,0,0,0,4,3,1,7,0004-00-0001-53.png,0002-00-0000-36.png
00000009,856,1,1446499046744,1446499046773,905,353,0,0,0,3,2,1,5,0002-00-0001-36.png,0003-00-0001-21.png
00000009,857,1,1446499047719,1446499047753,913,366,0,0,0,2,1,1,3,0003-00-0000-70.png,0005-00-0001-45.png
00000009,858,0,1446499048744,1446499049667,1041,295,0,0,0,3,4,1,7,0002-00-0000-53.png,0004-00-0000-73.png
00000009,859,1,1446499052798,1446499052898,913,279,0,0,0,1,0,1,1,0005-00-0001-49.png,0001-00-0001-32.png
00000009,860,0,1446499053791,1446499053831,905,469,0,0,0,2,3,1,5,0003-00-0000-56.png,0002-00-0000-35.png
00000009,861,1,1446499056981,1446499057013,900,330,0,0,0,4,3,1,7,0004-00-0000-34.png,0002-00-0001-33.png
00000009,862,0,1446499057897,1446499057934,882,459,0,0,0,1,2,1,3,0005-00-0000-97.png,0003-00-0001-59.png
00000009,863,0,1446499060787,1446499061332,496,263,0,0,0,3,2,1,5,0002-00-0001-93.png,0003-00-0000-75.png
00000009,864,1,1446499064564,1446499065092,504,240,0,0,0,0,1,1,1,0001-00-0001-27.png,0005-00-0000-69.png
00000009,865,1,1446499066402,1446499066450,910,391,0,0,0,1,0,1,1,0005-00-0000-21.png,0001-00-0000-30.png
00000009,866,0,1446499067345,1446499067417,925,384,0,0,0,3,4,1,7,0002-00-0001-67.png,0004-00-0001-87.png
00000009,867,1,1446499070349,1446499070943,956,417,0,0,0,2,1,1,3,0003-00-0000-97.png,0005-00-0001-66.png
00000009,868,0,1446499072334,1446499072366,898,410,0,0,0,2,3,1,5,0003-00-0001-04.png,0002-00-0001-24.png
00000009,869,0,1446499075553,1446499076043,504,254,0,0,0,3,2,1,5,0002-00-0000-59.png,0003-00-0001-54.png
00000009,870,1,1446499079085,1446499079607,1046,282,0,0,0,4,3,1,7,0004-00-0001-31.png,0002-00-0000-00.png
00000009,871,0,1446499080445,1446499080493,945,426,0,0,0,0,1,1,1,0001-00-0001-03.png,0005-00-0000-41.png
00000009,872,0,1446499083638,1446499083909,943,308,0,0,0,1,2,1,3,0005-00-0000-67.png,0003-00-0000-06.png
00000009,873,1,1446499087448,1446499087485,888,342,0,0,0,3,2,1,5,0002-00-0000-56.png,0003-00-0000-95.png
00000009,874,0,1446499088408,1446499088436,888,439,0,0,0,3,4,1,7,0002-00-0001-02.png,0004-00-0000-80.png
00000009,875,1,1446499091386,1446499091954,943,327,0,0,0,4,3,1,7,0004-00-0000-33.png,0002-00-0001-41.png
00000009,876,0,1446499093297,1446499094363,1021,301,0,0,0,2,3,1,5,0003-00-0000-15.png,0002-00-0001-18.png
00000009,877,1,1446499097381,1446499097944,512,257,0,0,0,0,1,1,1,0001-00-0001-41.png,0005-00-0000-19.png
00000009,878,1,1446499099287,1446499099307,903,358,0,0,0,1,0,1,1,0005-00-0001-20.png,0001-00-0000-99.png
00000009,879,1,1446499100205,1446499100254,906,395,0,0,0,2,1,1,3,0003-00-0001-61.png,0005-00-0000-68.png
00000009,880,0,1446499101349,1446499101394,896,429,0,0,0,1,2,1,3,0005-00-0000-36.png,0003-00-0000-99.png
00000009,881,1,1446499104627,1446499105186,488,278,0,0,0,1,2,1,3,0005-00-0000-27.png,0003-00-0000-57.png
00000009,882,1,1446499106064,1446499106096,905,436,0,0,0,4,3,1,7,0004-00-0001-87.png,0002-00-0001-19.png
00000009,883,1,1446499107138,1446499107166,888,398,0,0,0,2,1,1,3,0003-00-0000-51.png,0005-00-0001-28.png
00000009,884,0,1446499108223,1446499108304,905,420,0,0,0,0,1,1,1,0001-00-0000-53.png,0005-00-0001-51.png
00000009,885,1,1446499111194,1446499111725,1059,288,0,0,0,1,0,1,1,0005-00-0001-95.png,0001-00-0001-21.png
00000009,886,0,1446499113031,1446499113295,929,436,0,0,0,2,3,1,5,0003-00-0000-63.png,0002-00-0000-28.png
00000009,887,0,1446499116170,1446499116227,942,384,0,0,0,3,4,1,7,0002-00-0000-60.png,0004-00-0000-46.png
00000009,888,1,1446499119321,1446499119353,924,357,0,0,0,3,2,1,5,0002-00-0001-72.png,0003-00-0000-87.png
00000009,889,0,1446499120254,1446499120294,887,460,0,0,0,1,2,1,3,0005-00-0000-66.png,0003-00-0001-26.png
00000009,890,1,1446499123465,1446499123929,483,278,0,0,0,0,1,1,1,0001-00-0000-78.png,0005-00-0000-69.png
00000009,891,1,1446499125207,1446499125239,889,380,0,0,0,1,0,1,1,0005-00-0000-90.png,0001-00-0001-20.png
00000009,892,1,1446499126096,1446499126134,885,385,0,0,0,3,2,1,5,0002-00-0000-63.png,0003-00-0001-33.png
00000009,893,0,1446499127155,1446499127215,882,418,0,0,0,2,3,1,5,0003-00-0000-77.png,0002-00-0000-96.png
00000009,894,1,1446499130072,1446499130629,1039,254,0,0,0,4,3,1,7,0004-00-0001-32.png,0002-00-0001-44.png
00000009,895,1,1446499131981,1446499132138,944,434,0,0,0,2,1,1,3,0003-00-0000-91.png,0005-00-0000-32.png
00000009,896,0,1446499133093,1446499133125,897,408,0,0,0,3,4,1,7,0002-00-0000-29.png,0004-00-0001-92.png
00000009,897,0,1446499136283,1446499136814,939,347,0,0,0,2,3,1,5,0003-00-0000-78.png,0002-00-0001-21.png
00000009,898,1,1446499139982,1446499140606,1041,291,0,0,0,4,3,1,7,0004-00-0001-44.png,0002-00-0001-10.png
00000009,899,1,1446499141419,1446499141447,887,435,0,0,0,3,2,1,5,0002-00-0000-25.png,0003-00-0001-66.png
00000009,900,1,1446499142415,1446499142466,871,410,0,0,0,2,1,1,3,0003-00-0001-80.png,0005-00-0001-88.png
00000009,901,0,1446499143512,1446499143560,879,417,0,0,0,0,1,1,1,0001-00-0000-07.png,0005-00-0000-45.png
00000009,902,0,1446499146494,1446499147070,1041,270,0,0,0,1,2,1,3,0005-00-0000-50.png,0003-00-0000-58.png
00000009,903,0,1446499149927,1446499150430,385,383,0,0,0,1,0,1,1,0005-00-0001-04.png,0001-00-0001-83.png
00000009,904,0,1446499153447,1446499153977,1072,274,0,0,0,3,4,1,7,0002-00-0000-81.png,0004-00-0000-74.png
00000009,905,1,1446499157018,1446499157570,940,305,0,0,0,1,0,1,1,0005-00-0000-09.png,0001-00-0000-13.png
00000009,906,0,1446499158945,1446499159906,1060,297,0,0,0,0,1,1,1,0001-00-0001-33.png,0005-00-0000-73.png
00000009,907,0,1446499162828,1446499162868,939,361,0,0,0,2,3,1,5,0003-00-0001-05.png,0002-00-0000-35.png
00000009,908,0,1446499166336,1446499166801,421,388,0,0,0,3,2,1,5,0002-00-0000-81.png,0003-00-0000-91.png
00000009,909,1,1446499169980,1446499170599,1078,279,0,0,0,4,3,1,7,0004-00-0001-91.png,0002-00-0001-53.png
00000009,910,1,1446499171524,1446499171595,956,410,0,0,0,2,1,1,3,0003-00-0000-44.png,0005-00-0001-83.png
00000009,911,0,1446499172610,1446499172657,910,387,0,0,0,1,2,1,3,0005-00-0000-31.png,0003-00-0000-53.png
00000009,912,1,1446499175779,1446499176220,478,244,0,0,0,3,4,1,7,0002-00-0000-80.png,0004-00-0001-86.png
00000009,913,1,1446499177077,1446499177125,899,410,0,0,0,3,2,1,5,0002-00-0001-14.png,0003-00-0001-23.png
00000009,914,0,1446499178074,1446499178141,903,397,0,0,0,3,4,1,7,0002-00-0001-08.png,0004-00-0000-14.png
00000009,915,1,1446499181073,1446499181558,942,366,0,0,0,4,3,1,7,0004-00-0001-33.png,0002-00-0000-43.png
00000009,916,0,1446499182399,1446499182431,898,411,0,0,0,0,1,1,1,0001-00-0001-84.png,0005-00-0000-74.png
00000009,917,0,1446499185575,1446499186071,931,334,0,0,0,2,3,1,5,0003-00-0001-45.png,0002-00-0000-60.png
00000009,918,1,1446499189058,1446499189598,963,359,0,0,0,2,1,1,3,0003-00-0000-21.png,0005-00-0001-61.png
00000009,919,1,1446499190433,1446499190497,964,410,0,0,0,1,0,1,1,0005-00-0001-89.png,0001-00-0001-36.png
00000009,920,0,1446499191479,1446499191511,924,388,0,0,0,1,2,1,3,0005-00-0001-94.png,0003-00-0000-66.png
00000009,921,1,1446499194570,1446499195113,513,273,0,0,0,0,1,1,1,0001-00-0000-65.png,0005-00-0001-08.png
00000009,922,1,1446499195968,1446499196008,916,384,0,0,0,3,2,1,5,0002-00-0001-76.png,0003-00-0000-60.png
00000009,923,1,1446499196995,1446499197039,913,422,0,0,0,4,3,1,7,0004-00-0000-19.png,0002-00-0000-77.png
00000009,924,1,1446499198145,1446499198204,913,419,0,0,0,2,1,1,3,0003-00-0001-75.png,0005-00-0001-88.png
00000009,925,0,1446499199357,1446499199416,913,447,0,0,0,3,4,1,7,0002-00-0001-45.png,0004-00-0000-62.png
00000009,926,0,1446499202517,1446499203009,964,346,0,0,0,2,3,1,5,0003-00-0000-53.png,0002-00-0001-44.png
00000009,927,1,1446499205907,1446499206554,1039,269,0,0,0,1,0,1,1,0005-00-0001-78.png,0001-00-0001-39.png
00000009,928,0,1446499207388,1446499207408,959,385,0,0,0,1,2,1,3,0005-00-0001-27.png,0003-00-0000-46.png
00000009,929,0,1446499210238,1446499210763,964,347,0,0,0,2,3,1,5,0003-00-0000-84.png,0002-00-0001-92.png
00000009,930,0,1446499213638,1446499213725,936,339,0,0,0,3,4,1,7,0002-00-0000-69.png,0004-00-0000-34.png
00000009,931,1,1446499216747,1446499217272,1042,279,0,0,0,2,1,1,3,0003-00-0000-90.png,0005-00-0001-59.png
00000009,932,0,1446499218103,1446499218137,914,413,0,0,0,0,1,1,1,0001-00-0001-10.png,0005-00-0001-84.png
00000009,933,0,1446499221260,1446499221906,510,253,0,0,0,3,2,1,5,0002-00-0001-90.png,0003-00-0001-42.png
00000009,934,1,1446499225339,1446499225367,879,358,0,0,0,4,3,1,7,0004-00-0001-42.png,0002-00-0000-99.png
00000009,935,0,1446499226299,1446499226365,886,460,0,0,0,1,2,1,3,0005-00-0000-58.png,0003-00-0000-51.png
00000009,936,0,1446499229452,1446499230161,462,256,0,0,0,1,0,1,1,0005-00-0001-47.png,0001-00-0000-89.png
00000009,937,1,1446499233009,1446499233571,970,420,0,0,0,2,1,1,3,0003-00-0001-60.png,0005-00-0000-33.png
00000009,938,1,1446499234387,1446499234419,906,415,0,0,0,1,0,1,1,0005-00-0001-01.png,0001-00-0001-81.png
00000009,939,0,1446499235334,1446499235390,888,397,0,0,0,3,4,1,7,0002-00-0000-68.png,0004-00-0000-38.png
00000009,940,0,1446499238322,1446499238832,945,333,0,0,0,2,3,1,5,0003-00-0000-40.png,0002-00-0001-79.png
00000009,941,1,1446499241965,1446499242445,486,265,0,0,0,1,2,1,3,0005-00-0000-58.png,0003-00-0000-78.png
00000009,942,1,1446499243281,1446499244277,930,330,0,0,0,4,3,1,7,0004-00-0001-04.png,0002-00-0000-31.png
00000009,943,1,1446499245131,1446499245147,910,405,0,0,0,3,2,1,5,0002-00-0001-32.png,0003-00-0001-04.png
00000009,944,0,1446499246033,1446499246069,873,410,0,0,0,0,1,1,1,0001-00-0001-99.png,0005-00-0000-47.png
00000009,945,1,1446499249129,1446499249642,481,255,0,0,0,1,2,1,3,0005-00-0000-01.png,0003-00-0000-77.png
00000009,946,0,1446499250953,1446499251717,500,236,0,0,0,3,2,1,5,0002-00-0000-01.png,0003-00-0001-00.png
00000009,947,1,1446499254633,1446499255183,925,300,0,0,0,1,0,1,1,0005-00-0000-01.png,0001-00-0001-18.png
00000009,948,1,1446499256064,1446499256881,488,228,0,0,0,3,4,1,7,0002-00-0000-27.png,0004-00-0001-52.png
00000009,949,0,1446499257814,1446499257852,899,410,0,0,0,0,1,1,1,0001-00-0000-27.png,0005-00-0001-89.png
00000009,950,0,1446499260773,1446499261275,933,350,0,0,0,2,3,1,5,0003-00-0000-33.png,0002-00-0001-24.png
