subject_id,trial,correct_response,stim_time,response_time,x_coord,y_coord,trial_timeout,timeout_time,interTrial_timeout,left_rank,right_rank,distance,joint_rank,left_image,right_image
00000014,1,1,1446744609698,1446744610530,407,388,0,0,0,2,3,1,5,0003-00-0000-18.png,0002-00-0000-21.png
00000014,2,0,1446744736368,1446744737609,197,462,0,0,0,4,3,1,7,0004-00-0000-25.png,0002-00-0001-73.png
00000014,3,1,1446744740734,1446744741205,912,488,0,0,0,1,0,1,1,0005-00-0001-65.png,0001-00-0001-71.png
00000014,4,0,1446744742048,1446744742542,370,421,0,0,0,3,2,1,5,0002-00-0001-84.png,0003-00-0000-16.png
00000014,5,1,1446744745848,1446744746363,396,453,0,0,0,1,2,1,3,0005-00-0000-48.png,0003-00-0000-41.png
00000014,6,1,1446744747333,1446744747850,388,406,0,0,0,3,4,1,7,0002-00-0000-40.png,0004-00-0001-59.png
00000014,7,0,1446744748768,1446744749221,359,392,0,0,0,2,1,1,3,0003-00-0001-87.png,0005-00-0001-43.png
00000014,8,1,1446744752694,1446744753172,354,425,0,0,0,0,1,1,1,0001-00-0001-43.png,0005-00-0001-25.png
00000014,9,0,1446744754376,1446744754899,902,519,0,0,0,2,3,1,5,0003-00-0001-55.png,0002-00-0000-12.png
00000014,10,0,1446744758962,1446744759411,395,434,0,0,0,3,2,1,5,0002-00-0000-78.png,0003-00-0001-25.png
00000014,11,0,1446744762714,1446744763231,898,412,0,0,0,3,4,1,7,0002-00-0001-53.png,0004-00-0000-36.png
00000014,12,1,1446744766339,1446744766752,401,384,0,0,0,1,2,1,3,0005-00-0000-43.png,0003-00-0001-97.png
00000014,13,0,1446744767679,1446744768314,401,423,0,0,0,1,0,1,1,0005-00-0000-11.png,0001-00-0000-11.png
00000014,14,0,1446744771391,1446744771833,376,410,0,0,0,4,3,1,7,0004-00-0000-84.png,0002-00-0001-30.png
00000014,15,1,1446744774811,1446744775344,393,398,0,0,0,0,1,1,1,0001-00-0000-84.png,0005-00-0001-34.png
00000014,16,1,1446744776321,1446744776848,898,510,0,0,0,2,1,1,3,0003-00-0000-19.png,0005-00-0000-76.png
00000014,17,0,1446744777732,1446744779079,440,390,0,0,0,3,2,1,5,0002-00-0001-97.png,0003-00-0000-90.png
00000014,18,1,1446744781967,1446744782430,414,476,0,0,0,3,4,1,7,0002-00-0000-07.png,0004-00-0000-43.png
00000014,19,1,1446744783318,1446744784192,862,320,0,0,0,1,0,1,1,0005-00-0001-51.png,0001-00-0001-93.png
00000014,20,1,1446744785035,1446744785586,413,462,0,0,0,1,2,1,3,0005-00-0000-75.png,0003-00-0000-63.png
00000014,21,1,1446744786478,1446744787055,877,495,0,0,0,4,3,1,7,0004-00-0000-21.png,0002-00-0000-33.png
00000014,22,0,1446744787919,1446744788498,930,418,0,0,0,2,3,1,5,0003-00-0001-63.png,0002-00-0001-13.png
00000014,23,1,1446744791665,1446744792169,368,424,0,0,0,0,1,1,1,0001-00-0000-99.png,0005-00-0000-96.png
00000014,24,1,1446744793087,1446744793671,926,410,0,0,0,2,1,1,3,0003-00-0001-19.png,0005-00-0001-62.png
00000014,25,0,1446744794577,1446744795134,876,521,0,0,0,3,4,1,7,0002-00-0001-84.png,0004-00-0000-20.png
00000014,26,1,1446744798265,1446744798815,926,397,0,0,0,2,1,1,3,0003-00-0001-03.png,0005-00-0001-14.png
00000014,27,1,1446744799727,1446744800246,332,401,0,0,0,0,1,1,1,0001-00-0001-49.png,0005-00-0000-48.png
00000014,28,1,1446744801137,1446744801991,873,503,0,0,0,4,3,1,7,0004-00-0000-40.png,0002-00-0000-96.png
00000014,29,0,1446744802948,1446744803582,895,394,0,0,0,1,2,1,3,0005-00-0000-59.png,0003-00-0000-66.png
00000014,30,1,1446744809448,1446744809833,927,382,0,0,0,1,0,1,1,0005-00-0001-14.png,0001-00-0000-30.png
00000014,31,0,1446744810732,1446744811341,931,375,0,0,0,2,3,1,5,0003-00-0000-94.png,0002-00-0000-22.png
00000014,32,0,1446744814321,1446744814786,353,383,0,0,0,3,2,1,5,0002-00-0000-88.png,0003-00-0001-12.png
00000014,33,0,1446744817959,1446744818665,921,496,0,0,0,3,4,1,7,0002-00-0000-89.png,0004-00-0001-70.png
00000014,34,1,1446744821831,1446744822317,879,348,0,0,0,2,1,1,3,0003-00-0000-29.png,0005-00-0000-64.png
00000014,35,0,1446744823195,1446744824057,857,330,0,0,0,1,2,1,3,0005-00-0000-71.png,0003-00-0001-00.png
00000014,36,1,1446744827071,1446744827804,899,437,0,0,0,1,0,1,1,0005-00-0001-80.png,0001-00-0001-83.png
00000014,37,1,1446744828710,1446744829204,434,395,0,0,0,0,1,1,1,0001-00-0000-48.png,0005-00-0000-64.png
00000014,38,1,1446744830163,1446744830793,925,385,0,0,0,4,3,1,7,0004-00-0000-01.png,0002-00-0000-19.png
00000014,39,1,1446744831744,1446744832346,903,392,0,0,0,3,2,1,5,0002-00-0000-50.png,0003-00-0001-18.png
00000014,40,0,1446744833253,1446744833888,927,408,0,0,0,2,3,1,5,0003-00-0001-84.png,0002-00-0001-46.png
00000014,41,1,1446744836892,1446744837398,379,371,0,0,0,0,1,1,1,0001-00-0001-26.png,0005-00-0001-37.png
00000014,42,1,1446744838313,1446744838850,878,489,0,0,0,2,1,1,3,0003-00-0000-83.png,0005-00-0000-99.png
00000014,43,0,1446744839812,1446744840464,877,491,0,0,0,2,3,1,5,0003-00-0000-25.png,0002-00-0001-08.png
00000014,44,1,1446744843511,1446744844085,925,449,0,0,0,1,0,1,1,0005-00-0001-86.png,0001-00-0001-20.png
00000014,45,1,1446744844979,1446744845560,901,435,0,0,0,4,3,1,7,0004-00-0001-34.png,0002-00-0001-07.png
00000014,46,1,1446744846563,1446744847321,371,398,0,0,0,3,4,1,7,0002-00-0000-51.png,0004-00-0001-26.png
00000014,47,0,1446744848261,1446744849012,383,400,0,0,0,3,2,1,5,0002-00-0001-69.png,0003-00-0001-95.png
00000014,48,1,1446744851851,1446744852442,381,370,0,0,0,1,2,1,3,0005-00-0000-53.png,0003-00-0001-34.png
00000014,49,1,1446744853430,1446744854002,369,412,0,0,0,0,1,1,1,0001-00-0000-22.png,0005-00-0000-27.png
00000014,50,0,1446744854991,1446744855710,390,382,0,0,0,3,2,1,5,0002-00-0000-12.png,0003-00-0000-22.png
00000014,51,1,1446744858687,1446744859242,929,390,0,0,0,4,3,1,7,0004-00-0000-11.png,0002-00-0001-26.png
00000014,52,1,1446744860094,1446744860762,378,398,0,0,0,1,2,1,3,0005-00-0001-80.png,0003-00-0001-51.png
00000014,53,1,1446744861758,1446744862313,900,384,0,0,0,2,1,1,3,0003-00-0000-50.png,0005-00-0001-57.png
00000014,54,1,1446744863268,1446744863934,393,417,0,0,0,3,4,1,7,0002-00-0000-90.png,0004-00-0000-51.png
00000014,55,1,1446744864894,1446744865424,871,485,0,0,0,1,0,1,1,0005-00-0000-94.png,0001-00-0001-13.png
00000014,56,0,1446744866379,1446744866909,874,501,0,0,0,2,3,1,5,0003-00-0001-00.png,0002-00-0000-45.png
00000014,57,0,1446744869836,1446744870318,376,423,0,0,0,4,3,1,7,0004-00-0001-59.png,0002-00-0001-84.png
00000014,58,0,1446744876698,1446744877100,954,415,0,0,0,2,3,1,5,0003-00-0001-15.png,0002-00-0000-37.png
00000014,59,1,1446744880467,1446744880991,401,488,0,0,0,1,2,1,3,0005-00-0001-18.png,0003-00-0001-50.png
00000014,60,1,1446744881821,1446744882596,894,419,0,0,0,2,1,1,3,0003-00-0001-67.png,0005-00-0000-48.png
00000014,61,0,1446744883519,1446744884118,911,482,0,0,0,3,4,1,7,0002-00-0001-70.png,0004-00-0001-47.png
00000014,62,0,1446744894963,1446744895380,307,392,0,0,0,3,2,1,5,0002-00-0001-15.png,0003-00-0000-38.png
00000014,63,1,1446744898295,1446744898785,354,369,0,0,0,0,1,1,1,0001-00-0000-95.png,0005-00-0000-75.png
00000014,64,0,1446744899705,1446744900295,357,401,0,0,0,1,0,1,1,0005-00-0001-28.png,0001-00-0001-08.png
00000014,65,0,1446744903384,1446744903896,924,412,0,0,0,3,4,1,7,0002-00-0000-75.png,0004-00-0000-89.png
00000014,66,1,1446744906756,1446744907249,362,366,0,0,0,0,1,1,1,0001-00-0000-38.png,0005-00-0000-46.png
00000014,67,1,1446744908550,1446744909073,882,489,0,0,0,4,3,1,7,0004-00-0000-94.png,0002-00-0000-35.png
00000014,68,1,1446744909982,1446744910769,883,290,0,0,0,1,0,1,1,0005-00-0001-44.png,0001-00-0001-34.png
00000014,69,1,1446744911599,1446744912148,423,494,0,0,0,1,2,1,3,0005-00-0000-35.png,0003-00-0000-59.png
00000014,70,0,1446744913090,1446744913614,423,513,0,0,0,3,2,1,5,0002-00-0000-49.png,0003-00-0000-29.png
00000014,71,1,1446744916621,1446744917511,921,342,0,0,0,2,1,1,3,0003-00-0001-04.png,0005-00-0001-27.png
00000014,72,0,1446744918419,1446744918975,918,408,0,0,0,2,3,1,5,0003-00-0001-10.png,0002-00-0001-17.png
00000014,73,1,1446744922743,1446744923376,930,362,0,0,0,2,1,1,3,0003-00-0000-96.png,0005-00-0001-64.png
00000014,74,0,1446744924381,1446744925109,360,396,0,0,0,3,2,1,5,0002-00-0001-77.png,0003-00-0000-18.png
00000014,75,0,1446744928149,1446744928951,353,369,0,0,0,4,3,1,7,0004-00-0000-35.png,0002-00-0001-76.png
00000014,76,1,1446744934296,1446744934936,926,345,0,0,0,1,0,1,1,0005-00-0000-06.png,0001-00-0001-08.png
00000014,77,0,1446744935941,1446744936509,875,409,0,0,0,1,2,1,3,0005-00-0000-73.png,0003-00-0001-41.png
00000014,78,1,1446744940704,1446744941295,407,405,0,0,0,0,1,1,1,0001-00-0001-69.png,0005-00-0000-59.png
00000014,79,0,1446744942184,1446744942766,905,401,0,0,0,3,4,1,7,0002-00-0001-51.png,0004-00-0001-64.png
00000014,80,0,1446744945931,1446744946441,922,393,0,0,0,2,3,1,5,0003-00-0001-71.png,0002-00-0001-86.png
00000014,81,0,1446744949326,1446744949859,423,519,0,0,0,1,0,1,1,0005-00-0000-63.png,0001-00-0000-25.png
00000014,82,1,1446744952707,1446744953403,338,358,0,0,0,1,2,1,3,0005-00-0001-14.png,0003-00-0001-53.png
00000014,83,1,1446744954316,1446744955091,872,352,0,0,0,2,1,1,3,0003-00-0001-01.png,0005-00-0000-09.png
00000014,84,0,1446744956027,1446744956710,924,360,0,0,0,2,3,1,5,0003-00-0000-90.png,0002-00-0001-14.png
00000014,85,1,1446744959743,1446744960447,932,348,0,0,0,4,3,1,7,0004-00-0000-19.png,0002-00-0000-39.png
00000014,86,1,1446744961434,1446744961911,367,409,0,0,0,0,1,1,1,0001-00-0001-79.png,0005-00-0000-46.png
00000014,87,0,1446744962814,1446744963363,478,423,0,0,0,3,2,1,5,0002-00-0000-63.png,0003-00-0001-04.png
00000014,88,1,1446744972064,1446744972477,325,360,0,0,0,3,4,1,7,0002-00-0000-29.png,0004-00-0000-30.png
00000014,89,1,1446744973857,1446744974302,926,436,0,0,0,1,0,1,1,0005-00-0000-04.png,0001-00-0000-70.png
00000014,90,0,1446744975247,1446744975902,453,436,0,0,0,3,2,1,5,0002-00-0001-69.png,0003-00-0000-86.png
00000014,91,0,1446744980058,1446744980508,914,421,0,0,0,2,3,1,5,0003-00-0001-20.png,0002-00-0000-43.png
00000014,92,0,1446744985136,1446744985748,881,436,0,0,0,0,1,1,1,0001-00-0001-01.png,0005-00-0000-18.png
00000014,93,1,1446744988864,1446744989523,427,384,0,0,0,1,2,1,3,0005-00-0001-89.png,0003-00-0000-00.png
00000014,94,1,1446744990431,1446744991029,427,436,0,0,0,3,4,1,7,0002-00-0000-73.png,0004-00-0001-31.png
00000014,95,0,1446744991953,1446744992453,376,411,0,0,0,2,1,1,3,0003-00-0001-94.png,0005-00-0000-93.png
00000014,96,1,1446744995669,1446744996216,929,387,0,0,0,4,3,1,7,0004-00-0001-87.png,0002-00-0000-25.png
00000014,97,1,1446744997129,1446744997843,904,420,0,0,0,2,1,1,3,0003-00-0000-90.png,0005-00-0001-25.png
00000014,98,0,1446744998686,1446744999326,384,383,0,0,0,3,2,1,5,0002-00-0000-65.png,0003-00-0000-39.png
00000014,99,1,1446745002398,1446745003066,957,375,0,0,0,1,0,1,1,0005-00-0001-91.png,0001-00-0000-11.png
00000014,100,0,1446745003975,1446745004538,905,428,0,0,0,2,3,1,5,0003-00-0000-39.png,0002-00-0001-10.png
00000014,101,1,1446745007438,1446745007975,877,467,0,0,0,4,3,1,7,0004-00-0001-89.png,0002-00-0000-59.png
00000014,102,1,1446745008825,1446745009886,444,375,0,0,0,1,2,1,3,0005-00-0000-25.png,0003-00-0000-48.png
00000014,103,1,1446745010796,1446745011295,401,423,0,0,0,0,1,1,1,0001-00-0001-55.png,0005-00-0000-15.png
00000014,104,1,1446745012216,1446745012919,401,410,0,0,0,3,4,1,7,0002-00-0000-12.png,0004-00-0000-31.png
00000014,105,0,1446745013834,1446745014370,874,514,0,0,0,2,3,1,5,0003-00-0000-27.png,0002-00-0001-28.png
00000014,106,1,1446745017514,1446745018243,957,375,0,0,0,2,1,1,3,0003-00-0000-91.png,0005-00-0001-29.png
00000014,107,0,1446745019142,1446745019744,401,436,0,0,0,3,2,1,5,0002-00-0001-97.png,0003-00-0000-64.png
00000014,108,1,1446745023367,1446745023812,356,416,0,0,0,1,2,1,3,0005-00-0000-85.png,0003-00-0001-12.png
00000014,109,1,1446745024758,1446745025304,427,436,0,0,0,3,4,1,7,0002-00-0000-62.png,0004-00-0000-39.png
00000014,110,1,1446745026259,1446745026784,342,425,0,0,0,0,1,1,1,0001-00-0001-61.png,0005-00-0001-21.png
00000014,111,1,1446745027742,1446745028440,878,373,0,0,0,1,0,1,1,0005-00-0000-56.png,0001-00-0000-36.png
00000014,112,0,1446745029361,1446745030434,443,339,0,0,0,4,3,1,7,0004-00-0001-57.png,0002-00-0001-56.png
00000014,113,1,1446745033473,1446745033977,401,384,0,0,0,1,2,1,3,0005-00-0001-57.png,0003-00-0001-78.png
00000014,114,1,1446745034884,1446745035398,376,502,0,0,0,0,1,1,1,0001-00-0001-45.png,0005-00-0000-88.png
00000014,115,1,1446745036391,1446745036965,905,401,0,0,0,1,0,1,1,0005-00-0000-10.png,0001-00-0001-33.png
00000014,116,0,1446745037883,1446745038630,865,483,0,0,0,3,4,1,7,0002-00-0000-37.png,0004-00-0000-70.png
00000014,117,0,1446745041511,1446745042133,880,453,0,0,0,2,3,1,5,0003-00-0001-36.png,0002-00-0001-53.png
00000014,118,0,1446745046591,1446745047075,427,436,0,0,0,4,3,1,7,0004-00-0001-93.png,0002-00-0001-82.png
00000014,119,1,1446745049978,1446745050582,951,359,0,0,0,2,1,1,3,0003-00-0000-74.png,0005-00-0001-49.png
00000014,120,0,1446745051473,1446745052098,417,535,0,0,0,3,2,1,5,0002-00-0000-06.png,0003-00-0000-46.png
00000014,121,1,1446745057035,1446745057688,873,506,0,0,0,4,3,1,7,0004-00-0001-62.png,0002-00-0001-46.png
00000014,122,1,1446745058540,1446745059099,427,528,0,0,0,0,1,1,1,0001-00-0001-90.png,0005-00-0000-85.png
00000014,123,0,1446745060043,1446745060579,911,418,0,0,0,2,3,1,5,0003-00-0001-85.png,0002-00-0001-19.png
00000014,124,1,1446745063614,1446745064177,875,350,0,0,0,1,0,1,1,0005-00-0000-61.png,0001-00-0001-59.png
00000014,125,0,1446745065095,1446745065611,876,502,0,0,0,1,2,1,3,0005-00-0001-00.png,0003-00-0000-12.png
00000014,126,0,1446745070677,1446745071606,398,340,0,0,0,3,2,1,5,0002-00-0000-06.png,0003-00-0001-18.png
00000014,127,1,1446745074674,1446745075170,374,358,0,0,0,3,4,1,7,0002-00-0000-17.png,0004-00-0001-72.png
00000014,128,1,1446745076000,1446745076756,878,362,0,0,0,2,1,1,3,0003-00-0001-47.png,0005-00-0000-44.png
00000014,129,0,1446745077655,1446745078228,364,420,0,0,0,1,0,1,1,0005-00-0000-44.png,0001-00-0001-32.png
00000014,130,1,1446745081094,1446745081555,395,498,0,0,0,0,1,1,1,0001-00-0001-64.png,0005-00-0001-83.png
00000014,131,0,1446745082385,1446745082944,926,411,0,0,0,3,4,1,7,0002-00-0000-26.png,0004-00-0000-81.png
00000014,132,0,1446745086094,1446745086742,401,475,0,0,0,3,2,1,5,0002-00-0001-43.png,0003-00-0001-45.png
00000014,133,0,1446745089920,1446745090413,877,517,0,0,0,2,3,1,5,0003-00-0001-57.png,0002-00-0001-52.png
00000014,134,1,1446745094144,1446745094670,361,397,0,0,0,1,2,1,3,0005-00-0001-79.png,0003-00-0000-75.png
00000014,135,1,1446745095591,1446745096179,891,430,0,0,0,4,3,1,7,0004-00-0000-22.png,0002-00-0000-56.png
00000014,136,1,1446745097057,1446745097881,901,445,0,0,0,2,1,1,3,0003-00-0001-31.png,0005-00-0000-41.png
00000014,137,1,1446745098822,1446745099310,401,410,0,0,0,3,4,1,7,0002-00-0000-22.png,0004-00-0000-05.png
00000014,138,0,1446745100255,1446745100777,922,402,0,0,0,2,3,1,5,0003-00-0001-91.png,0002-00-0000-14.png
00000014,139,1,1446745103733,1446745104343,920,394,0,0,0,2,1,1,3,0003-00-0001-99.png,0005-00-0000-23.png
00000014,140,1,1446745105224,1446745105747,398,422,0,0,0,0,1,1,1,0001-00-0001-22.png,0005-00-0000-64.png
00000014,141,1,1446745106715,1446745107243,905,401,0,0,0,1,0,1,1,0005-00-0001-76.png,0001-00-0000-91.png
00000014,142,0,1446745108175,1446745109254,393,338,0,0,0,3,2,1,5,0002-00-0001-55.png,0003-00-0001-80.png
00000014,143,0,1446745112220,1446745112670,384,476,0,0,0,4,3,1,7,0004-00-0001-61.png,0002-00-0001-87.png
00000014,144,0,1446745115898,1446745116674,908,369,0,0,0,1,2,1,3,0005-00-0000-13.png,0003-00-0001-10.png
00000014,145,0,1446745119794,1446745120346,366,383,0,0,0,3,2,1,5,0002-00-0000-17.png,0003-00-0001-23.png
00000014,146,1,1446745123627,1446745124072,976,412,0,0,0,1,0,1,1,0005-00-0001-70.png,0001-00-0000-70.png
00000014,147,1,1446745125007,1446745125711,913,371,0,0,0,2,1,1,3,0003-00-0001-17.png,0005-00-0001-85.png
00000014,148,1,1446745126673,1446745127246,877,493,0,0,0,4,3,1,7,0004-00-0000-28.png,0002-00-0001-45.png
00000014,149,1,1446745128142,1446745128716,373,446,0,0,0,1,2,1,3,0005-00-0001-68.png,0003-00-0000-83.png
00000014,150,1,1446745129774,1446745131039,362,359,0,0,0,3,4,1,7,0002-00-0001-89.png,0004-00-0001-26.png
00000014,151,0,1446745131957,1446745132504,928,415,0,0,0,2,3,1,5,0003-00-0001-37.png,0002-00-0001-26.png
00000014,152,1,1446745135507,1446745136127,401,507,0,0,0,0,1,1,1,0001-00-0001-87.png,0005-00-0001-41.png
00000014,153,0,1446745137107,1446745137702,401,527,0,0,0,4,3,1,7,0004-00-0000-32.png,0002-00-0001-88.png
00000014,154,0,1446745141163,1446745141808,925,387,0,0,0,3,4,1,7,0002-00-0000-08.png,0004-00-0001-80.png
00000014,155,1,1446745144987,1446745145619,876,331,0,0,0,2,1,1,3,0003-00-0001-84.png,0005-00-0001-09.png
00000014,156,0,1446745146587,1446745147149,880,401,0,0,0,0,1,1,1,0001-00-0001-01.png,0005-00-0001-32.png
00000014,157,1,1446745151318,1446745151926,906,391,0,0,0,1,0,1,1,0005-00-0000-20.png,0001-00-0001-76.png
00000014,158,0,1446745153225,1446745153782,413,517,0,0,0,3,2,1,5,0002-00-0001-49.png,0003-00-0000-40.png
00000014,159,1,1446745157143,1446745157917,360,352,0,0,0,1,2,1,3,0005-00-0001-88.png,0003-00-0001-11.png
00000014,160,0,1446745158841,1446745159396,870,498,0,0,0,2,3,1,5,0003-00-0000-20.png,0002-00-0001-06.png
00000014,161,1,1446745162450,1446745163054,418,518,0,0,0,1,2,1,3,0005-00-0001-22.png,0003-00-0000-30.png
00000014,162,0,1446745164430,1446745165290,427,502,0,0,0,4,3,1,7,0004-00-0000-57.png,0002-00-0001-09.png
00000014,163,1,1446745168363,1446745168886,401,410,0,0,0,0,1,1,1,0001-00-0000-75.png,0005-00-0000-20.png
00000014,164,0,1446745169892,1446745170583,324,420,0,0,0,3,2,1,5,0002-00-0000-22.png,0003-00-0000-50.png
00000014,165,0,1446745173589,1446745174323,903,438,0,0,0,3,4,1,7,0002-00-0000-31.png,0004-00-0000-44.png
00000014,166,0,1446745177408,1446745177976,945,355,0,0,0,2,3,1,5,0003-00-0001-45.png,0002-00-0001-17.png
00000014,167,0,1446745181206,1446745181810,335,355,0,0,0,1,0,1,1,0005-00-0000-84.png,0001-00-0001-61.png
00000014,168,1,1446745185007,1446745185741,914,449,0,0,0,2,1,1,3,0003-00-0001-91.png,0005-00-0001-50.png
00000014,169,0,1446745186694,1446745187451,887,438,0,0,0,1,2,1,3,0005-00-0001-25.png,0003-00-0001-86.png
00000014,170,0,1446745190647,1446745191293,934,397,0,0,0,0,1,1,1,0001-00-0000-17.png,0005-00-0001-57.png
00000014,171,1,1446745194220,1446745194856,914,419,0,0,0,4,3,1,7,0004-00-0001-16.png,0002-00-0001-89.png
00000014,172,1,1446745195757,1446745196278,906,417,0,0,0,1,0,1,1,0005-00-0001-50.png,0001-00-0000-60.png
00000014,173,0,1446745197185,1446745197703,350,398,0,0,0,3,2,1,5,0002-00-0001-24.png,0003-00-0001-15.png
00000014,174,0,1446745200835,1446745201426,927,388,0,0,0,2,3,1,5,0003-00-0000-55.png,0002-00-0000-88.png
00000014,175,1,1446745204552,1446745205244,874,437,0,0,0,2,1,1,3,0003-00-0001-36.png,0005-00-0001-73.png
00000014,176,0,1446745206161,1446745206793,916,423,0,0,0,3,4,1,7,0002-00-0001-29.png,0004-00-0001-56.png
00000014,177,1,1446745209897,1446745210488,926,422,0,0,0,3,2,1,5,0002-00-0001-69.png,0003-00-0000-17.png
00000014,178,0,1446745211315,1446745212054,924,386,0,0,0,1,2,1,3,0005-00-0001-30.png,0003-00-0001-43.png
00000014,179,1,1446745214936,1446745215521,904,396,0,0,0,1,0,1,1,0005-00-0000-67.png,0001-00-0000-04.png
00000014,180,1,1446745216396,1446745217477,361,396,0,0,0,3,4,1,7,0002-00-0000-37.png,0004-00-0001-71.png
00000014,181,1,1446745218366,1446745218923,423,556,0,0,0,0,1,1,1,0001-00-0001-12.png,0005-00-0000-31.png
00000014,182,0,1446745219903,1446745220566,882,379,0,0,0,2,3,1,5,0003-00-0000-52.png,0002-00-0001-31.png
00000014,183,1,1446745223629,1446745224267,950,360,0,0,0,4,3,1,7,0004-00-0001-49.png,0002-00-0001-08.png
00000014,184,1,1446745225231,1446745225778,876,398,0,0,0,2,1,1,3,0003-00-0001-80.png,0005-00-0001-87.png
00000014,185,1,1446745226682,1446745227323,405,419,0,0,0,0,1,1,1,0001-00-0000-73.png,0005-00-0000-67.png
00000014,186,0,1446745228319,1446745229127,906,399,0,0,0,3,4,1,7,0002-00-0001-05.png,0004-00-0000-44.png
00000014,187,1,1446745232178,1446745232812,948,406,0,0,0,4,3,1,7,0004-00-0000-15.png,0002-00-0001-55.png
00000014,188,0,1446745233797,1446745234615,902,387,0,0,0,2,3,1,5,0003-00-0000-97.png,0002-00-0001-96.png
00000014,189,1,1446745237544,1446745238072,372,396,0,0,0,1,2,1,3,0005-00-0001-82.png,0003-00-0001-51.png
00000014,190,1,1446745239016,1446745239587,927,414,0,0,0,1,0,1,1,0005-00-0000-80.png,0001-00-0001-57.png
00000014,191,0,1446745240485,1446745241885,345,383,0,0,0,2,1,1,3,0003-00-0000-62.png,0005-00-0000-39.png
00000014,192,0,1446745245030,1446745245553,396,490,0,0,0,3,2,1,5,0002-00-0000-93.png,0003-00-0001-12.png
00000014,193,1,1446745248823,1446745249458,874,450,0,0,0,2,1,1,3,0003-00-0000-86.png,0005-00-0001-17.png
00000014,194,1,1446745250392,1446745251144,407,391,0,0,0,1,2,1,3,0005-00-0000-95.png,0003-00-0001-25.png
00000014,195,1,1446745252053,1446745252616,889,397,0,0,0,4,3,1,7,0004-00-0001-32.png,0002-00-0000-06.png
00000014,196,0,1446745253575,1446745254180,900,411,0,0,0,2,3,1,5,0003-00-0001-54.png,0002-00-0001-69.png
00000014,197,1,1446745257219,1446745257734,941,413,0,0,0,1,0,1,1,0005-00-0000-89.png,0001-00-0000-78.png
00000014,198,0,1446745258742,1446745259406,372,433,0,0,0,3,2,1,5,0002-00-0000-36.png,0003-00-0001-12.png
00000014,199,1,1446745262550,1446745263061,427,384,0,0,0,3,4,1,7,0002-00-0001-46.png,0004-00-0000-71.png
00000014,200,1,1446745264009,1446745264568,370,425,0,0,0,0,1,1,1,0001-00-0001-97.png,0005-00-0000-04.png
00000014,201,1,1446745265592,1446745266064,337,410,0,0,0,0,1,1,1,0001-00-0001-39.png,0005-00-0000-41.png
00000014,202,1,1446745267080,1446745267648,900,423,0,0,0,3,2,1,5,0002-00-0000-37.png,0003-00-0001-32.png
00000014,203,1,1446745268612,1446745269100,362,418,0,0,0,1,2,1,3,0005-00-0000-84.png,0003-00-0000-96.png
00000014,204,1,1446745270092,1446745270883,875,488,0,0,0,4,3,1,7,0004-00-0000-83.png,0002-00-0001-16.png
00000014,205,1,1446745271801,1446745272295,393,435,0,0,0,3,4,1,7,0002-00-0000-89.png,0004-00-0000-09.png
00000014,206,1,1446745273303,1446745273877,900,412,0,0,0,1,0,1,1,0005-00-0001-43.png,0001-00-0000-50.png
00000014,207,0,1446745274741,1446745275355,461,536,0,0,0,2,1,1,3,0003-00-0000-50.png,0005-00-0000-25.png
00000014,208,0,1446745278311,1446745278833,862,528,0,0,0,2,3,1,5,0003-00-0001-96.png,0002-00-0000-20.png
00000014,209,0,1446745283945,1446745284398,384,445,0,0,0,3,2,1,5,0002-00-0000-49.png,0003-00-0000-11.png
00000014,210,1,1446745287621,1446745288088,395,512,0,0,0,0,1,1,1,0001-00-0001-92.png,0005-00-0001-14.png
00000014,211,0,1446745289032,1446745289514,926,423,0,0,0,2,3,1,5,0003-00-0000-46.png,0002-00-0000-81.png
00000014,212,0,1446745292531,1446745293057,374,389,0,0,0,4,3,1,7,0004-00-0000-64.png,0002-00-0001-99.png
00000014,213,1,1446745299428,1446745299909,417,402,0,0,0,1,2,1,3,0005-00-0001-23.png,0003-00-0000-82.png
00000014,214,1,1446745300820,1446745301440,918,407,0,0,0,2,1,1,3,0003-00-0000-56.png,0005-00-0000-26.png
00000014,215,0,1446745302455,1446745303396,897,410,0,0,0,3,4,1,7,0002-00-0001-22.png,0004-00-0001-93.png
00000014,216,0,1446745306793,1446745307375,364,426,0,0,0,1,0,1,1,0005-00-0000-00.png,0001-00-0000-30.png
00000014,217,0,1446745310359,1446745311233,900,475,0,0,0,1,2,1,3,0005-00-0000-09.png,0003-00-0000-15.png
00000014,218,0,1446745314863,1446745315595,431,361,0,0,0,4,3,1,7,0004-00-0000-18.png,0002-00-0000-90.png
00000014,219,1,1446745319444,1446745319931,896,471,0,0,0,1,0,1,1,0005-00-0000-48.png,0001-00-0000-69.png
00000014,220,0,1446745320795,1446745321356,926,410,0,0,0,2,3,1,5,0003-00-0001-41.png,0002-00-0000-59.png
00000014,221,1,1446745324533,1446745325209,380,366,0,0,0,0,1,1,1,0001-00-0000-03.png,0005-00-0000-43.png
00000014,222,0,1446745326130,1446745326947,364,403,0,0,0,3,2,1,5,0002-00-0000-37.png,0003-00-0000-09.png
00000014,223,1,1446745330407,1446745331164,422,463,0,0,0,3,4,1,7,0002-00-0000-83.png,0004-00-0001-67.png
00000014,224,1,1446745332106,1446745332683,903,414,0,0,0,2,1,1,3,0003-00-0000-32.png,0005-00-0001-99.png
00000014,225,1,1446745333675,1446745334271,375,429,0,0,0,0,1,1,1,0001-00-0000-06.png,0005-00-0000-51.png
00000014,226,0,1446745335236,1446745335784,896,394,0,0,0,3,4,1,7,0002-00-0001-54.png,0004-00-0001-81.png
00000014,227,0,1446745338902,1446745339367,877,350,0,0,0,2,3,1,5,0003-00-0001-64.png,0002-00-0000-06.png
00000014,228,1,1446745342795,1446745343561,899,423,0,0,0,4,3,1,7,0004-00-0001-27.png,0002-00-0000-29.png
00000014,229,1,1446745344519,1446745345271,874,462,0,0,0,2,1,1,3,0003-00-0001-11.png,0005-00-0001-72.png
00000014,230,0,1446745346157,1446745346789,446,462,0,0,0,1,0,1,1,0005-00-0001-90.png,0001-00-0001-54.png
00000014,231,1,1446745349777,1446745350855,361,395,0,0,0,1,2,1,3,0005-00-0000-77.png,0003-00-0000-93.png
00000014,232,0,1446745351814,1446745352356,387,438,0,0,0,3,2,1,5,0002-00-0001-61.png,0003-00-0000-22.png
00000014,233,1,1446745355522,1446745356044,898,457,0,0,0,2,1,1,3,0003-00-0000-33.png,0005-00-0001-57.png
00000014,234,0,1446745357010,1446745357753,877,403,0,0,0,1,2,1,3,0005-00-0001-39.png,0003-00-0001-06.png
00000014,235,0,1446745360758,1446745361483,442,496,0,0,0,1,0,1,1,0005-00-0001-65.png,0001-00-0000-53.png
00000014,236,1,1446745364646,1446745365246,365,391,0,0,0,0,1,1,1,0001-00-0001-33.png,0005-00-0000-37.png
00000014,237,0,1446745366215,1446745366799,450,418,0,0,0,3,2,1,5,0002-00-0001-93.png,0003-00-0000-84.png
00000014,238,1,1446745370133,1446745370825,351,366,0,0,0,3,4,1,7,0002-00-0001-55.png,0004-00-0000-44.png
00000014,239,1,1446745371811,1446745372441,880,446,0,0,0,4,3,1,7,0004-00-0000-47.png,0002-00-0001-03.png
00000014,240,0,1446745373466,1446745374004,886,424,0,0,0,2,3,1,5,0003-00-0001-38.png,0002-00-0001-22.png
00000014,241,0,1446745377568,1446745378246,923,353,0,0,0,3,4,1,7,0002-00-0001-91.png,0004-00-0001-40.png
00000014,242,0,1446745381270,1446745381785,926,377,0,0,0,1,2,1,3,0005-00-0000-47.png,0003-00-0000-30.png
00000014,243,0,1446745384701,1446745385126,342,349,0,0,0,2,1,1,3,0003-00-0001-44.png,0005-00-0000-11.png
00000014,244,1,1446745388768,1446745389310,927,382,0,0,0,4,3,1,7,0004-00-0001-68.png,0002-00-0000-78.png
00000014,245,0,1446745390268,1446745390994,926,384,0,0,0,0,1,1,1,0001-00-0001-08.png,0005-00-0000-28.png
00000014,246,1,1446745394045,1446745394798,928,346,0,0,0,3,2,1,5,0002-00-0001-17.png,0003-00-0001-19.png
00000014,247,1,1446745395804,1446745396451,887,398,0,0,0,1,0,1,1,0005-00-0001-39.png,0001-00-0000-92.png
00000014,248,0,1446745397585,1446745398131,907,419,0,0,0,2,3,1,5,0003-00-0001-38.png,0002-00-0001-21.png
00000014,249,0,1446745401413,1446745402050,912,371,0,0,0,1,2,1,3,0005-00-0000-87.png,0003-00-0001-07.png
00000014,250,1,1446745405028,1446745405598,928,364,0,0,0,2,1,1,3,0003-00-0000-10.png,0005-00-0001-13.png
00000014,251,1,1446745406571,1446745407399,902,319,0,0,0,3,2,1,5,0002-00-0000-28.png,0003-00-0001-32.png
00000014,252,0,1446745408447,1446745409069,900,397,0,0,0,0,1,1,1,0001-00-0001-07.png,0005-00-0000-51.png
00000014,253,0,1446745411976,1446745412527,375,384,0,0,0,4,3,1,7,0004-00-0001-52.png,0002-00-0000-01.png
00000014,254,1,1446745416995,1446745417690,902,477,0,0,0,1,0,1,1,0005-00-0001-12.png,0001-00-0000-77.png
00000014,255,0,1446745418723,1446745419326,888,476,0,0,0,3,4,1,7,0002-00-0001-20.png,0004-00-0001-83.png
00000014,256,0,1446745422382,1446745422954,941,397,0,0,0,2,3,1,5,0003-00-0001-17.png,0002-00-0000-31.png
00000014,257,0,1446745426101,1446745426725,350,387,0,0,0,3,2,1,5,0002-00-0000-54.png,0003-00-0001-58.png
00000014,258,1,1446745429936,1446745430417,331,397,0,0,0,0,1,1,1,0001-00-0000-70.png,0005-00-0001-70.png
00000014,259,1,1446745431299,1446745431920,875,371,0,0,0,2,1,1,3,0003-00-0000-58.png,0005-00-0000-53.png
00000014,260,1,1446745432917,1446745433659,386,384,0,0,0,1,2,1,3,0005-00-0000-03.png,0003-00-0000-25.png
00000014,261,0,1446745434687,1446745435393,401,410,0,0,0,4,3,1,7,0004-00-0001-44.png,0002-00-0000-04.png
00000014,262,1,1446745438363,1446745438840,378,390,0,0,0,3,4,1,7,0002-00-0000-28.png,0004-00-0001-58.png
00000014,263,0,1446745439854,1446745440391,871,507,0,0,0,2,3,1,5,0003-00-0000-09.png,0002-00-0000-99.png
00000014,264,1,1446745445237,1446745445955,894,378,0,0,0,1,0,1,1,0005-00-0001-78.png,0001-00-0001-31.png
00000014,265,1,1446745446967,1446745447677,916,392,0,0,0,4,3,1,7,0004-00-0000-21.png,0002-00-0001-10.png
00000014,266,1,1446745448662,1446745449512,421,390,0,0,0,0,1,1,1,0001-00-0000-79.png,0005-00-0000-24.png
00000014,267,1,1446745450488,1446745451082,393,423,0,0,0,1,2,1,3,0005-00-0000-25.png,0003-00-0001-73.png
00000014,268,0,1446745452080,1446745452802,899,387,0,0,0,3,4,1,7,0002-00-0000-08.png,0004-00-0001-56.png
00000014,269,1,1446745455903,1446745456612,875,527,0,0,0,2,1,1,3,0003-00-0001-28.png,0005-00-0000-98.png
00000014,270,1,1446745457647,1446745458198,905,436,0,0,0,1,0,1,1,0005-00-0000-52.png,0001-00-0000-39.png
00000014,271,0,1446745459143,1446745459777,410,408,0,0,0,3,2,1,5,0002-00-0000-55.png,0003-00-0000-16.png
00000014,272,0,1446745463073,1446745463774,903,362,0,0,0,2,3,1,5,0003-00-0001-82.png,0002-00-0001-94.png
00000014,273,1,1446745466798,1446745467439,939,397,0,0,0,4,3,1,7,0004-00-0000-92.png,0002-00-0000-69.png
00000014,274,0,1446745468420,1446745469202,862,476,0,0,0,1,2,1,3,0005-00-0000-94.png,0003-00-0001-34.png
00000014,275,0,1446745472064,1446745472662,385,509,0,0,0,3,2,1,5,0002-00-0001-42.png,0003-00-0001-41.png
00000014,276,1,1446745476011,1446745476038,503,448,0,0,0,0,1,1,1,0001-00-0000-42.png,0005-00-0000-42.png
00000014,277,1,1446745477285,1446745478091,870,323,0,0,0,1,0,1,1,0005-00-0000-01.png,0001-00-0000-07.png
00000014,278,1,1446745479163,1446745479689,401,436,0,0,0,3,4,1,7,0002-00-0001-81.png,0004-00-0001-23.png
00000014,279,1,1446745480773,1446745481607,902,364,0,0,0,2,1,1,3,0003-00-0001-46.png,0005-00-0000-95.png
00000014,280,1,1446745482673,1446745483822,439,385,0,0,0,2,3,1,5,0003-00-0000-11.png,0002-00-0001-01.png
00000014,281,1,1446745484857,1446745485375,452,419,0,0,0,2,3,1,5,0003-00-0001-07.png,0002-00-0000-86.png
00000014,282,0,1446745486440,1446745486982,402,405,0,0,0,4,3,1,7,0004-00-0001-25.png,0002-00-0000-02.png
00000014,283,1,1446745489879,1446745490359,387,410,0,0,0,0,1,1,1,0001-00-0000-78.png,0005-00-0000-54.png
00000014,284,1,1446745491359,1446745492027,898,403,0,0,0,2,1,1,3,0003-00-0001-28.png,0005-00-0000-60.png
00000014,285,1,1446745492979,1446745493878,390,364,0,0,0,1,2,1,3,0005-00-0001-32.png,0003-00-0000-19.png
00000014,286,0,1446745495064,1446745495581,413,436,0,0,0,3,2,1,5,0002-00-0001-02.png,0003-00-0000-41.png
00000014,287,1,1446745498524,1446745499128,873,456,0,0,0,1,0,1,1,0005-00-0000-36.png,0001-00-0000-50.png
00000014,288,1,1446745500143,1446745500982,395,523,0,0,0,3,4,1,7,0002-00-0001-81.png,0004-00-0001-89.png
00000014,289,0,1446745502067,1446745502928,875,383,0,0,0,0,1,1,1,0001-00-0001-75.png,0005-00-0000-04.png
00000014,290,0,1446745505978,1446745506555,877,493,0,0,0,2,3,1,5,0003-00-0000-01.png,0002-00-0000-98.png
00000014,291,1,1446745509507,1446745510179,873,358,0,0,0,4,3,1,7,0004-00-0001-28.png,0002-00-0001-63.png
00000014,292,1,1446745511304,1446745512484,350,370,0,0,0,3,4,1,7,0002-00-0001-73.png,0004-00-0000-45.png
00000014,293,1,1446745513512,1446745514104,882,443,0,0,0,2,1,1,3,0003-00-0001-21.png,0005-00-0000-21.png
00000014,294,1,1446745515094,1446745515804,376,449,0,0,0,1,2,1,3,0005-00-0001-92.png,0003-00-0001-03.png
00000014,295,0,1446745516863,1446745517828,360,343,0,0,0,1,0,1,1,0005-00-0001-69.png,0001-00-0001-08.png
00000014,296,0,1446745520924,1446745521381,414,411,0,0,0,3,2,1,5,0002-00-0000-40.png,0003-00-0001-65.png
00000014,297,1,1446745524545,1446745525072,926,410,0,0,0,1,0,1,1,0005-00-0000-41.png,0001-00-0001-43.png
00000014,298,0,1446745526046,1446745526742,899,404,0,0,0,1,2,1,3,0005-00-0000-75.png,0003-00-0001-60.png
00000014,299,0,1446745529577,1446745530617,372,400,0,0,0,4,3,1,7,0004-00-0000-64.png,0002-00-0001-57.png
00000014,300,1,1446745533879,1446745534639,896,445,0,0,0,2,1,1,3,0003-00-0001-73.png,0005-00-0000-55.png
00000014,301,1,1446745535657,1446745536141,416,417,0,0,0,0,1,1,1,0001-00-0000-87.png,0005-00-0001-51.png
00000014,302,0,1446745537209,1446745538208,901,409,0,0,0,2,3,1,5,0003-00-0000-29.png,0002-00-0001-14.png
00000014,303,1,1446745541306,1446745541969,414,410,0,0,0,3,4,1,7,0002-00-0000-62.png,0004-00-0001-13.png
00000014,304,0,1446745542958,1446745543681,401,503,0,0,0,3,2,1,5,0002-00-0001-17.png,0003-00-0000-99.png
00000014,305,0,1446745547148,1446745547637,363,462,0,0,0,4,3,1,7,0004-00-0001-03.png,0002-00-0000-62.png
00000014,306,0,1446745550725,1446745551222,910,418,0,0,0,1,2,1,3,0005-00-0001-97.png,0003-00-0000-12.png
00000014,307,0,1446745554362,1446745555083,874,449,0,0,0,3,4,1,7,0002-00-0000-27.png,0004-00-0000-86.png
00000014,308,0,1446745557956,1446745558461,339,402,0,0,0,2,1,1,3,0003-00-0000-12.png,0005-00-0001-82.png
00000014,309,1,1446745561358,1446745561812,393,375,0,0,0,0,1,1,1,0001-00-0000-78.png,0005-00-0001-34.png
00000014,310,1,1446745562771,1446745563574,931,401,0,0,0,1,0,1,1,0005-00-0000-10.png,0001-00-0001-71.png
00000014,311,0,1446745564639,1446745565207,896,418,0,0,0,2,3,1,5,0003-00-0000-74.png,0002-00-0001-61.png
00000014,312,0,1446745568322,1446745568884,364,359,0,0,0,3,2,1,5,0002-00-0000-12.png,0003-00-0001-62.png
00000014,313,1,1446745571887,1446745571938,504,488,0,0,0,2,3,1,5,0003-00-0000-91.png,0002-00-0001-78.png
00000014,314,0,1446745572957,1446745573724,378,350,0,0,0,2,1,1,3,0003-00-0001-44.png,0005-00-0001-43.png
00000014,315,1,1446745576703,1446745577232,378,381,0,0,0,0,1,1,1,0001-00-0001-51.png,0005-00-0000-62.png
00000014,316,0,1446745578335,1446745579137,931,374,0,0,0,3,4,1,7,0002-00-0000-55.png,0004-00-0001-65.png
00000014,317,1,1446745582051,1446745582478,900,358,0,0,0,3,2,1,5,0002-00-0001-78.png,0003-00-0001-59.png
00000014,318,1,1446745583432,1446745583926,896,420,0,0,0,1,0,1,1,0005-00-0000-55.png,0001-00-0000-74.png
00000014,319,1,1446745584964,1446745585511,414,437,0,0,0,1,2,1,3,0005-00-0001-13.png,0003-00-0000-12.png
00000014,320,1,1446745586484,1446745587203,887,371,0,0,0,4,3,1,7,0004-00-0000-57.png,0002-00-0000-94.png
00000014,321,0,1446745588184,1446745588727,427,410,0,0,0,4,3,1,7,0004-00-0001-75.png,0002-00-0001-34.png
00000014,322,0,1446745591771,1446745592328,913,397,0,0,0,2,3,1,5,0003-00-0001-98.png,0002-00-0000-38.png
00000014,323,0,1446745595219,1446745595797,324,397,0,0,0,3,2,1,5,0002-00-0001-15.png,0003-00-0000-94.png
00000014,324,1,1446745598795,1446745599377,344,378,0,0,0,1,2,1,3,0005-00-0000-30.png,0003-00-0000-68.png
00000014,325,0,1446745600338,1446745601087,862,306,0,0,0,0,1,1,1,0001-00-0001-83.png,0005-00-0001-92.png
00000014,326,1,1446745604124,1446745604665,925,386,0,0,0,2,1,1,3,0003-00-0001-02.png,0005-00-0001-47.png
00000014,327,0,1446745605617,1446745606157,900,437,0,0,0,3,4,1,7,0002-00-0001-44.png,0004-00-0000-19.png
00000014,328,1,1446745609244,1446745609810,939,351,0,0,0,1,0,1,1,0005-00-0001-73.png,0001-00-0001-55.png
00000014,329,1,1446745610703,1446745611265,401,461,0,0,0,3,4,1,7,0002-00-0000-84.png,0004-00-0001-60.png
00000014,330,1,1446745612292,1446745612811,325,410,0,0,0,0,1,1,1,0001-00-0000-09.png,0005-00-0001-12.png
00000014,331,0,1446745613818,1446745614477,387,410,0,0,0,1,0,1,1,0005-00-0000-28.png,0001-00-0001-24.png
00000014,332,0,1446745617541,1446745618193,862,455,0,0,0,1,2,1,3,0005-00-0000-15.png,0003-00-0001-68.png
00000014,333,1,1446745621321,1446745621967,901,357,0,0,0,2,1,1,3,0003-00-0001-10.png,0005-00-0000-01.png
00000014,334,0,1446745622965,1446745623800,412,470,0,0,0,3,2,1,5,0002-00-0000-67.png,0003-00-0001-92.png
00000014,335,1,1446745626660,1446745627259,925,352,0,0,0,4,3,1,7,0004-00-0001-02.png,0002-00-0000-50.png
00000014,336,0,1446745628151,1446745628854,912,398,0,0,0,2,3,1,5,0003-00-0000-93.png,0002-00-0001-32.png
00000014,337,1,1446745631719,1446745632509,929,364,0,0,0,3,2,1,5,0002-00-0000-88.png,0003-00-0001-35.png
00000014,338,1,1446745633430,1446745634124,928,388,0,0,0,4,3,1,7,0004-00-0000-31.png,0002-00-0001-12.png
00000014,339,1,1446745635098,1446745635855,902,388,0,0,0,1,0,1,1,0005-00-0001-74.png,0001-00-0001-21.png
00000014,340,1,1446745636791,1446745637326,398,424,0,0,0,0,1,1,1,0001-00-0000-54.png,0005-00-0000-83.png
00000014,341,1,1446745638371,1446745639739,916,356,0,0,0,2,1,1,3,0003-00-0001-15.png,0005-00-0001-75.png
00000014,342,0,1446745640631,1446745641501,880,375,0,0,0,3,4,1,7,0002-00-0001-09.png,0004-00-0000-42.png
00000014,343,1,1446745644349,1446745644816,350,397,0,0,0,1,2,1,3,0005-00-0000-78.png,0003-00-0001-48.png
00000014,344,0,1446745645782,1446745646448,898,484,0,0,0,2,3,1,5,0003-00-0000-85.png,0002-00-0001-58.png
00000014,345,0,1446745650012,1446745650818,898,410,0,0,0,1,2,1,3,0005-00-0000-45.png,0003-00-0001-98.png
00000014,346,1,1446745654013,1446745654666,875,476,0,0,0,1,0,1,1,0005-00-0001-24.png,0001-00-0000-01.png
00000014,347,1,1446745655653,1446745656292,913,437,0,0,0,2,1,1,3,0003-00-0000-95.png,0005-00-0001-22.png
00000014,348,1,1446745657244,1446745657933,929,388,0,0,0,4,3,1,7,0004-00-0001-59.png,0002-00-0001-53.png
00000014,349,0,1446745658903,1446745659457,905,401,0,0,0,3,4,1,7,0002-00-0001-87.png,0004-00-0001-07.png
00000014,350,0,1446745662576,1446745663167,330,393,0,0,0,3,2,1,5,0002-00-0001-98.png,0003-00-0000-39.png
00000014,351,1,1446745666188,1446745666932,353,379,0,0,0,0,1,1,1,0001-00-0000-93.png,0005-00-0001-29.png
00000014,352,0,1446745667966,1446745668539,926,377,0,0,0,2,3,1,5,0003-00-0000-74.png,0002-00-0001-26.png
00000014,353,1,1446745671455,1446745672426,937,346,0,0,0,3,2,1,5,0002-00-0000-41.png,0003-00-0001-55.png
00000014,354,1,1446745673386,1446745674066,872,480,0,0,0,4,3,1,7,0004-00-0001-82.png,0002-00-0001-10.png
00000014,355,0,1446745675055,1446745675805,857,357,0,0,0,2,3,1,5,0003-00-0000-81.png,0002-00-0000-22.png
00000014,356,1,1446745679359,1446745679912,878,481,0,0,0,1,0,1,1,0005-00-0000-16.png,0001-00-0001-30.png
00000014,357,1,1446745681367,1446745681938,904,402,0,0,0,2,1,1,3,0003-00-0001-43.png,0005-00-0000-90.png
00000014,358,0,1446745682996,1446745683775,902,382,0,0,0,3,4,1,7,0002-00-0001-05.png,0004-00-0000-20.png
00000014,359,1,1446745686672,1446745687092,367,388,0,0,0,0,1,1,1,0001-00-0001-51.png,0005-00-0000-40.png
00000014,360,0,1446745688006,1446745688833,862,371,0,0,0,1,2,1,3,0005-00-0001-65.png,0003-00-0001-30.png
00000014,361,0,1446745691959,1446745692792,324,332,0,0,0,3,2,1,5,0002-00-0000-52.png,0003-00-0001-94.png
00000014,362,1,1446745695717,1446745696174,894,456,0,0,0,2,1,1,3,0003-00-0000-22.png,0005-00-0001-47.png
00000014,363,1,1446745697158,1446745698072,397,347,0,0,0,0,1,1,1,0001-00-0000-44.png,0005-00-0001-30.png
00000014,364,1,1446745699157,1446745700122,408,384,0,0,0,1,2,1,3,0005-00-0001-95.png,0003-00-0000-05.png
00000014,365,0,1446745701205,1446745701825,903,391,0,0,0,3,4,1,7,0002-00-0000-60.png,0004-00-0001-80.png
00000014,366,0,1446745704781,1446745704797,522,480,0,0,0,4,3,1,7,0004-00-0001-31.png,0002-00-0001-61.png
00000014,367,0,1446745707633,1446745708713,350,384,0,0,0,1,0,1,1,0005-00-0001-75.png,0001-00-0001-45.png
00000014,368,0,1446745711641,1446745712265,947,367,0,0,0,2,3,1,5,0003-00-0000-29.png,0002-00-0001-42.png
00000014,369,1,1446745715218,1446745715734,922,367,0,0,0,1,0,1,1,0005-00-0000-86.png,0001-00-0000-49.png
00000014,370,1,1446745716738,1446745717443,876,371,0,0,0,2,1,1,3,0003-00-0000-39.png,0005-00-0000-71.png
00000014,371,0,1446745718389,1446745719096,899,352,0,0,0,2,3,1,5,0003-00-0001-89.png,0002-00-0001-15.png
00000014,372,0,1446745722134,1446745722757,387,501,0,0,0,3,2,1,5,0002-00-0001-09.png,0003-00-0000-65.png
00000014,373,1,1446745725662,1446745726134,391,470,0,0,0,0,1,1,1,0001-00-0001-05.png,0005-00-0000-88.png
00000014,374,0,1446745727125,1446745727911,887,345,0,0,0,1,2,1,3,0005-00-0000-37.png,0003-00-0000-93.png
00000014,375,1,1446745730931,1446745731657,927,357,0,0,0,4,3,1,7,0004-00-0000-55.png,0002-00-0000-37.png
00000014,376,0,1446745732570,1446745733370,898,350,0,0,0,3,4,1,7,0002-00-0001-07.png,0004-00-0001-49.png
00000014,377,0,1446745736337,1446745736800,901,409,0,0,0,2,3,1,5,0003-00-0000-52.png,0002-00-0001-19.png
00000014,378,0,1446745739783,1446745740532,862,405,0,0,0,1,2,1,3,0005-00-0000-66.png,0003-00-0000-70.png
00000014,379,0,1446745747957,1446745748439,325,384,0,0,0,3,2,1,5,0002-00-0000-03.png,0003-00-0001-81.png
00000014,380,1,1446745751507,1446745752005,919,398,0,0,0,1,0,1,1,0005-00-0001-78.png,0001-00-0000-76.png
00000014,381,1,1446745752928,1446745753586,342,427,0,0,0,0,1,1,1,0001-00-0001-83.png,0005-00-0001-88.png
00000014,382,1,1446745754660,1446745755256,927,408,0,0,0,4,3,1,7,0004-00-0000-03.png,0002-00-0001-29.png
00000014,383,1,1446745756286,1446745757189,873,326,0,0,0,2,1,1,3,0003-00-0001-37.png,0005-00-0001-00.png
00000014,384,1,1446745758150,1446745758852,442,522,0,0,0,3,4,1,7,0002-00-0001-74.png,0004-00-0001-04.png
00000014,385,0,1446745759986,1446745760486,901,409,0,0,0,2,3,1,5,0003-00-0001-91.png,0002-00-0001-53.png
00000014,386,0,1446745763561,1446745764117,906,376,0,0,0,3,4,1,7,0002-00-0001-03.png,0004-00-0001-56.png
00000014,387,1,1446745766984,1446745767598,904,349,0,0,0,1,0,1,1,0005-00-0001-74.png,0001-00-0001-41.png
00000014,388,1,1446745768563,1446745769210,903,415,0,0,0,4,3,1,7,0004-00-0001-85.png,0002-00-0000-74.png
00000014,389,0,1446745770233,1446745770819,862,398,0,0,0,1,2,1,3,0005-00-0001-38.png,0003-00-0000-87.png
00000014,390,1,1446745773666,1446745774493,904,363,0,0,0,2,1,1,3,0003-00-0001-77.png,0005-00-0000-56.png
00000014,391,1,1446745775530,1446745776014,359,414,0,0,0,0,1,1,1,0001-00-0001-12.png,0005-00-0000-40.png
00000014,392,0,1446745777113,1446745777927,418,502,0,0,0,3,2,1,5,0002-00-0001-94.png,0003-00-0001-84.png
00000014,393,0,1446745781107,1446745781995,365,384,0,0,0,1,0,1,1,0005-00-0000-44.png,0001-00-0000-63.png
00000014,394,0,1446745785162,1446745785745,401,532,0,0,0,3,2,1,5,0002-00-0001-01.png,0003-00-0001-70.png
00000014,395,1,1446745788987,1446745789509,396,396,0,0,0,0,1,1,1,0001-00-0001-54.png,0005-00-0001-39.png
00000014,396,1,1446745790590,1446745791320,880,401,0,0,0,2,1,1,3,0003-00-0001-22.png,0005-00-0000-48.png
00000014,397,1,1446745792298,1446745793069,377,366,0,0,0,1,2,1,3,0005-00-0001-89.png,0003-00-0000-74.png
00000014,398,0,1446745794183,1446745794793,897,483,0,0,0,2,3,1,5,0003-00-0000-45.png,0002-00-0000-63.png
00000014,399,1,1446745797625,1446745798460,929,363,0,0,0,4,3,1,7,0004-00-0000-42.png,0002-00-0000-68.png
00000014,400,1,1446745799515,1446745800188,370,373,0,0,0,3,4,1,7,0002-00-0000-65.png,0004-00-0000-30.png
00000014,401,1,1446745801173,1446745801943,882,391,0,0,0,2,1,1,3,0003-00-0001-54.png,0005-00-0000-21.png
00000014,402,0,1446745802893,1446745803615,897,380,0,0,0,2,3,1,5,0003-00-0000-64.png,0002-00-0001-55.png
00000014,403,0,1446745806630,1446745807399,902,382,0,0,0,1,2,1,3,0005-00-0001-04.png,0003-00-0000-02.png
00000014,404,0,1446745810243,1446745810793,912,398,0,0,0,0,1,1,1,0001-00-0000-01.png,0005-00-0001-16.png
00000014,405,1,1446745813765,1446745814393,903,466,0,0,0,4,3,1,7,0004-00-0000-07.png,0002-00-0001-65.png
00000014,406,0,1446745815457,1446745815912,396,435,0,0,0,1,0,1,1,0005-00-0001-37.png,0001-00-0001-31.png
00000014,407,0,1446745818993,1446745819647,901,397,0,0,0,3,4,1,7,0002-00-0001-85.png,0004-00-0000-59.png
00000014,408,1,1446745822734,1446745823431,881,365,0,0,0,3,2,1,5,0002-00-0000-22.png,0003-00-0001-68.png
00000014,409,0,1446745824411,1446745824935,431,516,0,0,0,3,2,1,5,0002-00-0000-66.png,0003-00-0000-38.png
00000014,410,0,1446745828129,1446745828681,901,398,0,0,0,2,3,1,5,0003-00-0000-94.png,0002-00-0001-47.png
00000014,411,1,1446745832313,1446745832859,921,394,0,0,0,1,0,1,1,0005-00-0000-66.png,0001-00-0000-08.png
00000014,412,1,1446745833862,1446745834420,374,436,0,0,0,0,1,1,1,0001-00-0000-34.png,0005-00-0000-87.png
00000014,413,0,1446745835464,1446745835988,874,501,0,0,0,1,2,1,3,0005-00-0000-25.png,0003-00-0000-37.png
00000014,414,0,1446745839470,1446745840131,941,373,0,0,0,3,4,1,7,0002-00-0001-74.png,0004-00-0000-22.png
00000014,415,1,1446745843375,1446745844086,940,370,0,0,0,2,1,1,3,0003-00-0001-97.png,0005-00-0000-21.png
00000014,416,0,1446745845195,1446745845828,452,411,0,0,0,4,3,1,7,0004-00-0000-49.png,0002-00-0000-57.png
00000014,417,1,1446745848711,1446745849482,350,345,0,0,0,1,2,1,3,0005-00-0001-44.png,0003-00-0000-30.png
00000014,418,1,1446745850441,1446745851074,893,412,0,0,0,1,0,1,1,0005-00-0001-67.png,0001-00-0000-86.png
00000014,419,1,1446745852151,1446745852888,903,364,0,0,0,2,1,1,3,0003-00-0000-72.png,0005-00-0000-00.png
00000014,420,1,1446745853868,1446745855127,442,363,0,0,0,2,3,1,5,0003-00-0000-42.png,0002-00-0000-88.png
00000014,421,0,1446745856168,1446745857452,424,488,0,0,0,3,2,1,5,0002-00-0001-00.png,0003-00-0000-93.png
00000014,422,1,1446745860341,1446745860843,340,403,0,0,0,3,4,1,7,0002-00-0001-05.png,0004-00-0000-53.png
00000014,423,1,1446745861841,1446745862530,880,375,0,0,0,4,3,1,7,0004-00-0000-96.png,0002-00-0000-38.png
00000014,424,1,1446745863427,1446745863954,413,462,0,0,0,0,1,1,1,0001-00-0000-81.png,0005-00-0000-61.png
00000014,425,1,1446745865010,1446745865739,355,396,0,0,0,2,3,1,5,0003-00-0000-79.png,0002-00-0001-46.png
00000014,426,1,1446745866886,1446745867410,875,436,0,0,0,1,0,1,1,0005-00-0000-02.png,0001-00-0000-45.png
00000014,427,0,1446745868469,1446745869161,439,544,0,0,0,2,1,1,3,0003-00-0000-20.png,0005-00-0000-79.png
00000014,428,1,1446745872315,1446745873114,871,341,0,0,0,4,3,1,7,0004-00-0001-70.png,0002-00-0001-58.png
00000014,429,1,1446745874166,1446745874959,402,384,0,0,0,3,4,1,7,0002-00-0000-86.png,0004-00-0000-06.png
00000014,430,0,1446745875972,1446745876742,877,389,0,0,0,1,2,1,3,0005-00-0001-72.png,0003-00-0000-09.png
00000014,431,0,1446745882619,1446745883115,371,396,0,0,0,3,2,1,5,0002-00-0001-51.png,0003-00-0000-65.png
00000014,432,1,1446745886068,1446745886569,299,385,0,0,0,0,1,1,1,0001-00-0001-30.png,0005-00-0001-85.png
00000014,433,1,1446745887460,1446745888098,888,398,0,0,0,2,1,1,3,0003-00-0001-45.png,0005-00-0001-60.png
00000014,434,0,1446745889049,1446745889979,880,426,0,0,0,3,4,1,7,0002-00-0001-09.png,0004-00-0001-62.png
00000014,435,0,1446745893064,1446745893760,381,345,0,0,0,3,2,1,5,0002-00-0000-24.png,0003-00-0000-83.png
00000014,436,1,1446745897120,1446745897886,363,371,0,0,0,0,1,1,1,0001-00-0001-90.png,0005-00-0001-18.png
00000014,437,0,1446745898987,1446745899679,886,407,0,0,0,2,3,1,5,0003-00-0000-60.png,0002-00-0000-46.png
00000014,438,0,1446745902731,1446745903436,913,371,0,0,0,1,2,1,3,0005-00-0001-56.png,0003-00-0000-46.png
00000014,439,1,1446745906750,1446745907324,902,390,0,0,0,1,0,1,1,0005-00-0001-67.png,0001-00-0001-02.png
00000014,440,1,1446745908257,1446745908955,860,482,0,0,0,4,3,1,7,0004-00-0001-66.png,0002-00-0001-16.png
00000014,441,0,1446745909930,1446745910674,862,515,0,0,0,3,4,1,7,0002-00-0000-87.png,0004-00-0001-90.png
00000014,442,1,1446745913907,1446745914422,920,392,0,0,0,2,1,1,3,0003-00-0001-66.png,0005-00-0001-18.png
00000014,443,1,1446745915387,1446745915842,401,412,0,0,0,1,2,1,3,0005-00-0001-16.png,0003-00-0001-42.png
00000014,444,1,1446745916897,1446745917424,427,423,0,0,0,0,1,1,1,0001-00-0000-80.png,0005-00-0000-24.png
00000014,445,0,1446745918429,1446745918985,453,410,0,0,0,3,2,1,5,0002-00-0001-29.png,0003-00-0001-95.png
00000014,446,1,1446745921847,1446745922404,912,398,0,0,0,1,0,1,1,0005-00-0001-19.png,0001-00-0000-24.png
00000014,447,1,1446745923359,1446745923976,880,401,0,0,0,4,3,1,7,0004-00-0000-35.png,0002-00-0000-61.png
00000014,448,0,1446745924938,1446745925567,878,391,0,0,0,2,3,1,5,0003-00-0001-14.png,0002-00-0000-04.png
00000014,449,1,1446745929640,1446745930262,360,394,0,0,0,0,1,1,1,0001-00-0000-39.png,0005-00-0000-87.png
00000014,450,0,1446745931259,1446745931824,878,415,0,0,0,3,4,1,7,0002-00-0001-25.png,0004-00-0000-63.png
00000014,451,1,1446745935646,1446745936276,865,483,0,0,0,4,3,1,7,0004-00-0000-05.png,0002-00-0000-47.png
00000014,452,0,1446745937250,1446745937949,399,448,0,0,0,3,2,1,5,0002-00-0000-86.png,0003-00-0001-34.png
00000014,453,1,1446745940979,1446745941602,933,363,0,0,0,2,1,1,3,0003-00-0000-81.png,0005-00-0000-13.png
00000014,454,0,1446745942539,1446745943094,905,401,0,0,0,2,3,1,5,0003-00-0001-51.png,0002-00-0000-01.png
00000014,455,1,1446745947298,1446745948187,366,357,0,0,0,1,2,1,3,0005-00-0001-92.png,0003-00-0001-06.png
00000014,456,1,1446745949166,1446745949789,875,416,0,0,0,1,0,1,1,0005-00-0000-66.png,0001-00-0000-19.png
00000014,457,1,1446745950718,1446745951352,877,415,0,0,0,4,3,1,7,0004-00-0000-41.png,0002-00-0001-91.png
00000014,458,1,1446745952381,1446745952971,876,434,0,0,0,1,0,1,1,0005-00-0000-05.png,0001-00-0001-76.png
00000014,459,1,1446745953980,1446745954579,880,401,0,0,0,2,1,1,3,0003-00-0001-00.png,0005-00-0001-57.png
00000014,460,0,1446745955701,1446745956323,900,436,0,0,0,2,3,1,5,0003-00-0001-91.png,0002-00-0001-04.png
00000014,461,1,1446745959447,1446745959980,350,396,0,0,0,0,1,1,1,0001-00-0000-31.png,0005-00-0001-99.png
00000014,462,1,1446745961009,1446745962142,396,385,0,0,0,1,2,1,3,0005-00-0001-84.png,0003-00-0001-29.png
00000014,463,0,1446745963131,1446745963620,418,428,0,0,0,3,2,1,5,0002-00-0001-04.png,0003-00-0000-40.png
00000014,464,1,1446745966525,1446745967286,413,472,0,0,0,3,4,1,7,0002-00-0000-55.png,0004-00-0001-76.png
00000014,465,1,1446745968242,1446745968775,419,428,0,0,0,0,1,1,1,0001-00-0001-77.png,0005-00-0001-90.png
00000014,466,0,1446745969804,1446745970357,886,424,0,0,0,3,4,1,7,0002-00-0001-69.png,0004-00-0000-52.png
00000014,467,0,1446745975260,1446745975750,931,402,0,0,0,2,3,1,5,0003-00-0000-60.png,0002-00-0000-86.png
00000014,468,1,1446745978926,1446745979390,886,528,0,0,0,1,0,1,1,0005-00-0001-47.png,0001-00-0001-58.png
00000014,469,1,1446745980260,1446745981078,905,375,0,0,0,2,1,1,3,0003-00-0000-48.png,0005-00-0001-03.png
00000014,470,0,1446745982017,1446745982531,361,405,0,0,0,3,2,1,5,0002-00-0000-19.png,0003-00-0000-19.png
00000014,471,0,1446745985767,1446745986608,874,413,0,0,0,1,2,1,3,0005-00-0001-56.png,0003-00-0001-85.png
00000014,472,1,1446745989660,1446745990185,903,417,0,0,0,4,3,1,7,0004-00-0000-09.png,0002-00-0001-03.png
00000014,473,1,1446745991139,1446745991633,347,413,0,0,0,1,2,1,3,0005-00-0000-84.png,0003-00-0000-02.png
00000014,474,1,1446745992811,1446745993403,889,411,0,0,0,1,0,1,1,0005-00-0000-40.png,0001-00-0001-82.png
00000014,475,1,1446745994398,1446745994852,374,427,0,0,0,0,1,1,1,0001-00-0000-74.png,0005-00-0000-33.png
00000014,476,1,1446745995953,1446745996674,880,420,0,0,0,4,3,1,7,0004-00-0000-16.png,0002-00-0001-53.png
00000014,477,0,1446745997770,1446745998291,374,443,0,0,0,3,2,1,5,0002-00-0000-26.png,0003-00-0001-78.png
00000014,478,1,1446746001694,1446746002191,331,400,0,0,0,3,4,1,7,0002-00-0000-95.png,0004-00-0000-17.png
00000014,479,1,1446746003169,1446746003976,878,362,0,0,0,2,1,1,3,0003-00-0001-05.png,0005-00-0001-36.png
00000014,480,0,1446746004938,1446746005932,931,427,0,0,0,2,3,1,5,0003-00-0001-15.png,0002-00-0000-43.png
00000014,481,0,1446746008794,1446746009520,360,362,0,0,0,3,2,1,5,0002-00-0000-90.png,0003-00-0001-70.png
00000014,482,0,1446746012522,1446746013195,389,398,0,0,0,1,0,1,1,0005-00-0000-96.png,0001-00-0001-37.png
00000014,483,1,1446746016034,1446746016652,903,362,0,0,0,2,1,1,3,0003-00-0000-82.png,0005-00-0000-31.png
00000014,484,0,1446746017648,1446746018478,898,355,0,0,0,0,1,1,1,0001-00-0001-22.png,0005-00-0001-06.png
00000014,485,0,1446746021555,1446746022178,862,476,0,0,0,3,4,1,7,0002-00-0001-93.png,0004-00-0001-36.png
00000014,486,0,1446746025380,1446746025952,913,372,0,0,0,2,3,1,5,0003-00-0000-71.png,0002-00-0001-36.png
00000014,487,1,1446746028816,1446746029323,871,457,0,0,0,4,3,1,7,0004-00-0000-99.png,0002-00-0000-48.png
00000014,488,1,1446746030227,1446746030824,427,384,0,0,0,1,2,1,3,0005-00-0001-55.png,0003-00-0001-88.png
00000014,489,0,1446746031930,1446746032695,381,383,0,0,0,3,2,1,5,0002-00-0001-44.png,0003-00-0000-82.png
00000014,490,1,1446746035716,1446746036198,325,370,0,0,0,1,2,1,3,0005-00-0000-99.png,0003-00-0000-10.png
00000014,491,1,1446746037308,1446746037929,900,385,0,0,0,4,3,1,7,0004-00-0001-47.png,0002-00-0000-73.png
00000014,492,1,1446746039026,1446746039834,878,391,0,0,0,2,1,1,3,0003-00-0001-76.png,0005-00-0001-32.png
00000014,493,1,1446746040894,1446746041469,893,408,0,0,0,1,0,1,1,0005-00-0000-75.png,0001-00-0000-66.png
00000014,494,1,1446746042485,1446746043785,339,363,0,0,0,3,4,1,7,0002-00-0001-65.png,0004-00-0001-55.png
00000014,495,0,1446746045129,1446746045806,889,397,0,0,0,2,3,1,5,0003-00-0001-25.png,0002-00-0001-63.png
00000014,496,1,1446746048856,1446746049403,401,436,0,0,0,0,1,1,1,0001-00-0000-35.png,0005-00-0000-22.png
00000014,497,0,1446746050416,1446746051108,356,362,0,0,0,3,2,1,5,0002-00-0000-14.png,0003-00-0001-79.png
00000014,498,1,1446746054129,1446746054989,394,363,0,0,0,1,2,1,3,0005-00-0000-20.png,0003-00-0001-97.png
00000014,499,1,1446746056011,1446746056534,896,394,0,0,0,2,1,1,3,0003-00-0001-88.png,0005-00-0000-29.png
00000014,500,0,1446746057565,1446746058130,890,432,0,0,0,2,3,1,5,0003-00-0000-42.png,0002-00-0001-48.png
00000014,501,1,1446746061109,1446746061743,875,476,0,0,0,4,3,1,7,0004-00-0001-05.png,0002-00-0001-87.png
00000014,502,1,1446746062700,1446746063210,407,436,0,0,0,3,4,1,7,0002-00-0000-27.png,0004-00-0000-70.png
00000014,503,1,1446746064272,1446746064855,345,425,0,0,0,0,1,1,1,0001-00-0000-72.png,0005-00-0000-51.png
00000014,504,0,1446746066019,1446746066523,401,553,0,0,0,1,0,1,1,0005-00-0000-99.png,0001-00-0000-44.png
00000014,505,1,1446746069396,1446746069945,325,389,0,0,0,1,2,1,3,0005-00-0001-07.png,0003-00-0001-24.png
00000014,506,1,1446746070870,1446746071337,427,450,0,0,0,0,1,1,1,0001-00-0000-29.png,0005-00-0000-85.png
00000014,507,0,1446746072738,1446746073725,877,414,0,0,0,2,3,1,5,0003-00-0000-49.png,0002-00-0001-64.png
00000014,508,1,1446746076814,1446746077311,904,415,0,0,0,1,0,1,1,0005-00-0000-33.png,0001-00-0001-39.png
00000014,509,1,1446746078255,1446746078915,894,404,0,0,0,4,3,1,7,0004-00-0001-79.png,0002-00-0001-14.png
00000014,510,1,1446746079915,1446746080468,414,436,0,0,0,3,4,1,7,0002-00-0001-37.png,0004-00-0000-95.png
00000014,511,1,1446746081546,1446746082330,871,375,0,0,0,2,1,1,3,0003-00-0000-54.png,0005-00-0001-01.png
00000014,512,0,1446746083433,1446746083920,376,423,0,0,0,3,2,1,5,0002-00-0001-38.png,0003-00-0000-90.png
00000014,513,0,1446746086778,1446746087297,345,393,0,0,0,3,2,1,5,0002-00-0001-45.png,0003-00-0000-32.png
00000014,514,1,1446746090458,1446746091017,376,384,0,0,0,1,2,1,3,0005-00-0001-06.png,0003-00-0000-80.png
00000014,515,1,1446746092110,1446746092650,876,383,0,0,0,2,1,1,3,0003-00-0000-94.png,0005-00-0001-59.png
00000014,516,0,1446746093661,1446746094234,876,408,0,0,0,3,4,1,7,0002-00-0001-17.png,0004-00-0001-47.png
00000014,517,1,1446746097150,1446746097674,389,436,0,0,0,0,1,1,1,0001-00-0001-94.png,0005-00-0000-43.png
00000014,518,0,1446746098670,1446746099243,873,507,0,0,0,2,3,1,5,0003-00-0000-43.png,0002-00-0001-48.png
00000014,519,1,1446746102786,1446746103279,902,442,0,0,0,1,0,1,1,0005-00-0001-15.png,0001-00-0000-39.png
00000014,520,1,1446746104255,1446746104945,874,384,0,0,0,4,3,1,7,0004-00-0000-42.png,0002-00-0001-70.png
00000014,521,1,1446746105924,1446746106438,406,436,0,0,0,1,2,1,3,0005-00-0000-70.png,0003-00-0000-78.png
00000014,522,0,1446746107557,1446746108848,385,457,0,0,0,4,3,1,7,0004-00-0001-26.png,0002-00-0000-42.png
00000014,523,0,1446746112495,1446746113251,974,379,0,0,0,3,4,1,7,0002-00-0001-28.png,0004-00-0000-30.png
00000014,524,0,1446746116154,1446746116605,384,428,0,0,0,3,2,1,5,0002-00-0000-58.png,0003-00-0000-41.png
00000014,525,1,1446746119501,1446746120115,388,421,0,0,0,0,1,1,1,0001-00-0001-69.png,0005-00-0001-82.png
00000014,526,0,1446746121093,1446746121784,902,387,0,0,0,2,3,1,5,0003-00-0000-39.png,0002-00-0001-55.png
00000014,527,1,1446746125584,1446746126160,924,397,0,0,0,2,1,1,3,0003-00-0001-78.png,0005-00-0001-22.png
00000014,528,1,1446746127152,1446746127689,896,420,0,0,0,1,0,1,1,0005-00-0000-73.png,0001-00-0000-42.png
00000014,529,0,1446746128646,1446746129268,900,370,0,0,0,2,3,1,5,0003-00-0001-13.png,0002-00-0001-38.png
00000014,530,1,1446746132526,1446746133239,379,396,0,0,0,0,1,1,1,0001-00-0001-56.png,0005-00-0001-92.png
00000014,531,1,1446746134362,1446746135222,400,361,0,0,0,3,4,1,7,0002-00-0001-08.png,0004-00-0000-09.png
00000014,532,1,1446746136219,1446746136764,880,428,0,0,0,4,3,1,7,0004-00-0001-18.png,0002-00-0001-07.png
00000014,533,1,1446746137840,1446746138391,451,552,0,0,0,1,2,1,3,0005-00-0001-18.png,0003-00-0001-09.png
00000014,534,0,1446746139491,1446746140250,385,381,0,0,0,2,1,1,3,0003-00-0000-58.png,0005-00-0000-43.png
00000014,535,1,1446746144123,1446746144714,862,410,0,0,0,1,0,1,1,0005-00-0001-31.png,0001-00-0001-78.png
00000014,536,0,1446746145674,1446746146225,403,448,0,0,0,3,2,1,5,0002-00-0000-07.png,0003-00-0000-93.png
00000014,537,0,1446746149261,1446746149811,875,514,0,0,0,2,3,1,5,0003-00-0001-52.png,0002-00-0000-14.png
00000014,538,1,1446746152788,1446746153740,410,365,0,0,0,0,1,1,1,0001-00-0000-32.png,0005-00-0001-17.png
00000014,539,1,1446746154758,1446746155492,894,402,0,0,0,4,3,1,7,0004-00-0000-41.png,0002-00-0001-13.png
00000014,540,1,1446746156457,1446746157243,862,476,0,0,0,2,1,1,3,0003-00-0001-13.png,0005-00-0001-67.png
00000014,541,1,1446746158266,1446746159322,427,384,0,0,0,1,2,1,3,0005-00-0000-21.png,0003-00-0000-10.png
00000014,542,0,1446746160401,1446746161112,880,427,0,0,0,3,4,1,7,0002-00-0001-14.png,0004-00-0001-29.png
00000014,543,0,1446746164319,1446746164828,380,415,0,0,0,3,2,1,5,0002-00-0001-87.png,0003-00-0001-95.png
00000014,544,1,1446746168235,1446746168797,930,428,0,0,0,1,0,1,1,0005-00-0000-87.png,0001-00-0001-59.png
00000014,545,0,1446746169726,1446746170569,913,358,0,0,0,1,2,1,3,0005-00-0001-97.png,0003-00-0000-64.png
00000014,546,1,1446746173503,1446746174128,896,340,0,0,0,1,0,1,1,0005-00-0000-75.png,0001-00-0001-85.png
00000014,547,1,1446746175113,1446746175594,393,428,0,0,0,3,4,1,7,0002-00-0000-84.png,0004-00-0000-07.png
00000014,548,0,1446746176641,1446746177195,893,404,0,0,0,2,3,1,5,0003-00-0000-63.png,0002-00-0000-71.png
00000014,549,0,1446746180353,1446746180922,879,427,0,0,0,0,1,1,1,0001-00-0000-47.png,0005-00-0000-44.png
00000014,550,1,1446746184287,1446746184925,871,379,0,0,0,2,1,1,3,0003-00-0000-94.png,0005-00-0001-19.png
00000014,551,1,1446746185973,1446746186699,880,401,0,0,0,4,3,1,7,0004-00-0001-90.png,0002-00-0001-17.png
00000014,552,0,1446746187640,1446746188112,380,404,0,0,0,3,2,1,5,0002-00-0001-81.png,0003-00-0000-69.png
00000014,553,0,1446746192436,1446746192971,882,410,0,0,0,2,3,1,5,0003-00-0000-67.png,0002-00-0000-36.png
00000014,554,1,1446746196303,1446746196981,882,356,0,0,0,4,3,1,7,0004-00-0001-94.png,0002-00-0001-29.png
00000014,555,1,1446746198122,1446746198662,877,389,0,0,0,2,1,1,3,0003-00-0001-24.png,0005-00-0000-44.png
00000014,556,1,1446746199677,1446746200772,435,394,0,0,0,3,4,1,7,0002-00-0000-93.png,0004-00-0000-89.png
00000014,557,1,1446746201787,1446746202404,874,412,0,0,0,3,2,1,5,0002-00-0000-92.png,0003-00-0000-79.png
00000014,558,1,1446746203489,1446746204017,366,403,0,0,0,1,2,1,3,0005-00-0001-68.png,0003-00-0000-22.png
00000014,559,1,1446746205226,1446746205728,401,449,0,0,0,0,1,1,1,0001-00-0000-68.png,0005-00-0001-24.png
00000014,560,1,1446746206799,1446746208021,862,449,0,0,0,1,0,1,1,0005-00-0000-52.png,0001-00-0001-78.png
00000014,561,1,1446746209072,1446746209819,878,390,0,0,0,2,1,1,3,0003-00-0001-32.png,0005-00-0000-83.png
00000014,562,1,1446746210742,1446746211238,383,427,0,0,0,0,1,1,1,0001-00-0000-56.png,0005-00-0000-06.png
00000014,563,1,1446746212332,1446746213320,471,374,0,0,0,2,3,1,5,0003-00-0001-88.png,0002-00-0001-65.png
00000014,564,1,1446746214370,1446746214911,876,410,0,0,0,1,0,1,1,0005-00-0000-90.png,0001-00-0001-63.png
00000014,565,0,1446746215959,1446746216477,405,539,0,0,0,3,2,1,5,0002-00-0000-89.png,0003-00-0000-81.png
00000014,566,1,1446746220213,1446746220891,879,402,0,0,0,4,3,1,7,0004-00-0000-19.png,0002-00-0000-46.png
00000014,567,1,1446746222011,1446746223190,409,368,0,0,0,3,4,1,7,0002-00-0001-18.png,0004-00-0000-82.png
00000014,568,0,1446746224229,1446746224759,877,440,0,0,0,1,2,1,3,0005-00-0000-25.png,0003-00-0000-31.png
00000014,569,1,1446746228285,1446746229429,901,410,0,0,0,1,0,1,1,0005-00-0001-99.png,0001-00-0000-72.png
00000014,570,0,1446746230417,1446746231202,901,410,0,0,0,3,4,1,7,0002-00-0001-60.png,0004-00-0000-65.png
00000014,571,0,1446746234862,1446746235353,900,414,0,0,0,2,3,1,5,0003-00-0001-62.png,0002-00-0000-95.png
00000014,572,1,1446746238597,1446746239227,862,358,0,0,0,2,1,1,3,0003-00-0000-81.png,0005-00-0000-22.png
00000014,573,0,1446746240197,1446746240710,325,423,0,0,0,3,2,1,5,0002-00-0001-19.png,0003-00-0001-48.png
00000014,574,0,1446746244113,1446746244870,925,376,0,0,0,1,2,1,3,0005-00-0001-79.png,0003-00-0000-80.png
00000014,575,1,1446746248105,1446746248760,318,377,0,0,0,0,1,1,1,0001-00-0000-96.png,0005-00-0001-38.png
00000014,576,1,1446746249787,1446746250558,880,349,0,0,0,4,3,1,7,0004-00-0000-32.png,0002-00-0000-53.png
00000014,577,0,1446746251556,1446746252093,388,415,0,0,0,3,2,1,5,0002-00-0000-96.png,0003-00-0001-33.png
00000014,578,0,1446746256445,1446746257082,903,415,0,0,0,2,3,1,5,0003-00-0000-70.png,0002-00-0000-06.png
00000014,579,1,1446746260103,1446746260730,898,418,0,0,0,2,1,1,3,0003-00-0000-17.png,0005-00-0001-87.png
00000014,580,1,1446746261633,1446746262158,902,390,0,0,0,1,0,1,1,0005-00-0000-75.png,0001-00-0000-29.png
00000014,581,0,1446746263255,1446746263841,878,441,0,0,0,3,4,1,7,0002-00-0000-76.png,0004-00-0000-49.png
00000014,582,1,1446746267616,1446746268321,356,404,0,0,0,1,2,1,3,0005-00-0000-38.png,0003-00-0001-30.png
00000014,583,1,1446746269278,1446746269744,401,425,0,0,0,0,1,1,1,0001-00-0000-39.png,0005-00-0000-62.png
00000014,584,1,1446746270840,1446746271463,869,395,0,0,0,4,3,1,7,0004-00-0000-31.png,0002-00-0001-73.png
00000014,585,1,1446746272466,1446746273032,880,402,0,0,0,3,2,1,5,0002-00-0000-50.png,0003-00-0001-36.png
00000014,586,1,1446746274077,1446746274787,892,392,0,0,0,1,0,1,1,0005-00-0000-17.png,0001-00-0000-24.png
00000014,587,1,1446746275876,1446746276469,401,450,0,0,0,3,4,1,7,0002-00-0001-50.png,0004-00-0000-40.png
00000014,588,0,1446746277506,1446746278094,875,411,0,0,0,2,3,1,5,0003-00-0001-46.png,0002-00-0001-79.png
00000014,589,1,1446746280939,1446746281408,901,362,0,0,0,4,3,1,7,0004-00-0000-47.png,0002-00-0001-75.png
00000014,590,1,1446746282446,1446746283013,887,424,0,0,0,2,1,1,3,0003-00-0000-19.png,0005-00-0000-78.png
00000014,591,1,1446746283978,1446746284612,385,436,0,0,0,1,2,1,3,0005-00-0000-86.png,0003-00-0001-12.png
00000014,592,1,1446746285737,1446746286227,340,410,0,0,0,0,1,1,1,0001-00-0001-53.png,0005-00-0001-32.png
00000014,593,0,1446746287306,1446746287996,874,411,0,0,0,2,3,1,5,0003-00-0001-93.png,0002-00-0000-59.png
00000014,594,0,1446746290855,1446746291627,898,354,0,0,0,3,4,1,7,0002-00-0001-77.png,0004-00-0001-54.png
00000014,595,1,1446746294800,1446746295628,924,386,0,0,0,2,1,1,3,0003-00-0000-48.png,0005-00-0000-24.png
00000014,596,0,1446746296619,1446746297302,407,409,0,0,0,3,2,1,5,0002-00-0000-86.png,0003-00-0000-03.png
00000014,597,1,1446746300389,1446746301178,874,450,0,0,0,4,3,1,7,0004-00-0000-41.png,0002-00-0001-67.png
00000014,598,0,1446746302146,1446746302900,881,366,0,0,0,1,2,1,3,0005-00-0000-07.png,0003-00-0000-87.png
00000014,599,1,1446746305954,1446746306473,904,415,0,0,0,1,0,1,1,0005-00-0000-64.png,0001-00-0000-74.png
00000014,600,1,1446746307503,1446746308079,392,432,0,0,0,0,1,1,1,0001-00-0000-27.png,0005-00-0000-41.png
00000014,601,0,1446746309095,1446746309735,876,410,0,0,0,2,3,1,5,0003-00-0000-45.png,0002-00-0000-87.png
00000014,602,1,1446746313564,1446746314260,883,394,0,0,0,2,1,1,3,0003-00-0001-45.png,0005-00-0001-70.png
00000014,603,0,1446746315235,1446746315957,371,395,0,0,0,1,0,1,1,0005-00-0001-16.png,0001-00-0001-40.png
00000014,604,0,1446746319169,1446746319668,376,428,0,0,0,4,3,1,7,0004-00-0000-52.png,0002-00-0000-87.png
00000014,605,0,1446746323199,1446746323897,376,384,0,0,0,3,2,1,5,0002-00-0001-10.png,0003-00-0000-99.png
00000014,606,0,1446746326952,1446746327517,912,398,0,0,0,3,4,1,7,0002-00-0000-58.png,0004-00-0001-43.png
00000014,607,1,1446746330531,1446746331047,344,446,0,0,0,0,1,1,1,0001-00-0000-38.png,0005-00-0001-58.png
00000014,608,0,1446746332001,1446746332893,881,339,0,0,0,1,2,1,3,0005-00-0000-08.png,0003-00-0001-46.png
00000014,609,0,1446746336138,1446746336728,913,396,0,0,0,1,2,1,3,0005-00-0000-01.png,0003-00-0000-08.png
00000014,610,1,1446746339692,1446746340401,899,455,0,0,0,1,0,1,1,0005-00-0001-70.png,0001-00-0001-79.png
00000014,611,0,1446746341340,1446746341971,355,402,0,0,0,3,2,1,5,0002-00-0001-73.png,0003-00-0001-24.png
00000014,612,1,1446746344970,1446746345525,364,360,0,0,0,0,1,1,1,0001-00-0001-93.png,0005-00-0000-37.png
00000014,613,0,1446746346522,1446746347205,898,379,0,0,0,3,4,1,7,0002-00-0001-07.png,0004-00-0001-30.png
00000014,614,1,1446746350300,1446746350781,903,388,0,0,0,4,3,1,7,0004-00-0000-26.png,0002-00-0000-22.png
00000014,615,0,1446746351759,1446746352424,903,415,0,0,0,2,3,1,5,0003-00-0000-42.png,0002-00-0000-45.png
00000014,616,1,1446746356791,1446746357278,919,405,0,0,0,2,1,1,3,0003-00-0000-81.png,0005-00-0001-06.png
00000014,617,1,1446746358250,1446746358805,422,530,0,0,0,1,2,1,3,0005-00-0001-27.png,0003-00-0001-78.png
00000014,618,0,1446746359908,1446746360611,912,398,0,0,0,2,3,1,5,0003-00-0000-51.png,0002-00-0000-36.png
00000014,619,1,1446746364053,1446746364697,873,508,0,0,0,2,1,1,3,0003-00-0000-73.png,0005-00-0001-81.png
00000014,620,1,1446746365650,1446746366226,898,379,0,0,0,4,3,1,7,0004-00-0000-36.png,0002-00-0001-35.png
00000014,621,1,1446746367314,1446746368015,343,419,0,0,0,0,1,1,1,0001-00-0001-76.png,0005-00-0001-96.png
00000014,622,0,1446746369212,1446746370541,421,390,0,0,0,3,2,1,5,0002-00-0001-65.png,0003-00-0000-93.png
00000014,623,0,1446746374309,1446746374775,368,420,0,0,0,1,0,1,1,0005-00-0001-15.png,0001-00-0001-96.png
00000014,624,1,1446746377857,1446746378622,353,365,0,0,0,3,4,1,7,0002-00-0001-59.png,0004-00-0001-62.png
00000014,625,1,1446746379577,1446746380099,876,409,0,0,0,1,0,1,1,0005-00-0000-66.png,0001-00-0000-61.png
00000014,626,0,1446746381097,1446746381723,887,424,0,0,0,2,3,1,5,0003-00-0001-34.png,0002-00-0001-17.png
00000014,627,1,1446746384879,1446746385559,903,363,0,0,0,3,2,1,5,0002-00-0001-77.png,0003-00-0000-75.png
00000014,628,0,1446746386565,1446746387601,926,370,0,0,0,0,1,1,1,0001-00-0001-02.png,0005-00-0000-69.png
00000014,629,1,1446746391098,1446746391969,926,390,0,0,0,4,3,1,7,0004-00-0000-76.png,0002-00-0001-58.png
00000014,630,0,1446746392947,1446746393579,905,427,0,0,0,3,4,1,7,0002-00-0001-68.png,0004-00-0000-36.png
00000014,631,1,1446746399309,1446746399873,376,358,0,0,0,1,2,1,3,0005-00-0000-32.png,0003-00-0001-64.png
00000014,632,1,1446746400810,1446746401357,905,427,0,0,0,2,1,1,3,0003-00-0000-83.png,0005-00-0000-91.png
00000014,633,0,1446746402420,1446746402934,896,420,0,0,0,2,3,1,5,0003-00-0001-69.png,0002-00-0001-19.png
00000014,634,1,1446746406268,1446746406873,914,397,0,0,0,2,1,1,3,0003-00-0000-72.png,0005-00-0001-32.png
00000014,635,1,1446746407918,1446746408441,888,398,0,0,0,4,3,1,7,0004-00-0001-51.png,0002-00-0000-49.png
00000014,636,1,1446746409414,1446746410083,875,384,0,0,0,3,2,1,5,0002-00-0000-46.png,0003-00-0001-77.png
00000014,637,1,1446746411189,1446746411821,874,489,0,0,0,1,0,1,1,0005-00-0000-96.png,0001-00-0000-40.png
00000014,638,1,1446746412828,1446746413392,419,454,0,0,0,1,2,1,3,0005-00-0001-68.png,0003-00-0001-71.png
00000014,639,0,1446746414525,1446746415255,874,384,0,0,0,3,4,1,7,0002-00-0000-65.png,0004-00-0001-95.png
00000014,640,1,1446746418447,1446746418978,344,450,0,0,0,0,1,1,1,0001-00-0001-14.png,0005-00-0000-93.png
00000014,641,0,1446746419977,1446746420503,405,435,0,0,0,1,0,1,1,0005-00-0001-55.png,0001-00-0000-43.png
00000014,642,1,1446746423563,1446746424267,906,375,0,0,0,2,1,1,3,0003-00-0001-11.png,0005-00-0000-20.png
00000014,643,0,1446746425291,1446746426019,878,364,0,0,0,1,2,1,3,0005-00-0001-43.png,0003-00-0001-70.png
00000014,644,0,1446746432781,1446746433233,940,371,0,0,0,2,3,1,5,0003-00-0001-58.png,0002-00-0000-64.png
00000014,645,0,1446746436338,1446746437084,870,407,0,0,0,0,1,1,1,0001-00-0001-41.png,0005-00-0001-95.png
00000014,646,0,1446746440663,1446746441334,927,372,0,0,0,3,4,1,7,0002-00-0000-82.png,0004-00-0001-61.png
00000014,647,0,1446746444252,1446746444920,343,379,0,0,0,3,2,1,5,0002-00-0000-02.png,0003-00-0000-06.png
00000014,648,0,1446746448296,1446746449461,338,425,0,0,0,4,3,1,7,0004-00-0000-59.png,0002-00-0000-30.png
00000014,649,1,1446746452480,1446746453141,907,343,0,0,0,4,3,1,7,0004-00-0000-45.png,0002-00-0000-56.png
00000014,650,1,1446746454087,1446746454889,895,368,0,0,0,1,0,1,1,0005-00-0000-77.png,0001-00-0001-87.png
00000014,651,0,1446746455942,1446746456530,892,398,0,0,0,3,4,1,7,0002-00-0000-61.png,0004-00-0001-08.png
00000014,652,0,1446746459667,1446746460355,427,384,0,0,0,3,2,1,5,0002-00-0000-22.png,0003-00-0000-42.png
00000014,653,1,1446746463232,1446746463664,389,397,0,0,0,0,1,1,1,0001-00-0000-78.png,0005-00-0000-92.png
00000014,654,0,1446746464645,1446746465204,858,496,0,0,0,2,3,1,5,0003-00-0001-21.png,0002-00-0001-63.png
00000014,655,0,1446746468140,1446746468915,899,344,0,0,0,1,2,1,3,0005-00-0000-66.png,0003-00-0001-25.png
00000014,656,1,1446746477109,1446746477759,861,450,0,0,0,2,1,1,3,0003-00-0000-71.png,0005-00-0000-12.png
00000014,657,1,1446746478740,1446746479308,877,415,0,0,0,2,1,1,3,0003-00-0000-11.png,0005-00-0000-77.png
00000014,658,1,1446746480260,1446746481271,376,476,0,0,0,0,1,1,1,0001-00-0001-82.png,0005-00-0000-35.png
00000014,659,0,1446746482248,1446746482823,878,416,0,0,0,3,4,1,7,0002-00-0000-60.png,0004-00-0000-86.png
00000014,660,1,1446746485966,1446746486426,401,436,0,0,0,1,2,1,3,0005-00-0001-70.png,0003-00-0000-15.png
00000014,661,1,1446746487474,1446746488031,893,404,0,0,0,1,0,1,1,0005-00-0001-59.png,0001-00-0000-41.png
00000014,662,1,1446746489019,1446746489629,874,412,0,0,0,4,3,1,7,0004-00-0000-10.png,0002-00-0000-82.png
00000014,663,1,1446746490645,1446746491739,451,364,0,0,0,2,3,1,5,0003-00-0000-69.png,0002-00-0001-16.png
00000014,664,0,1446746492803,1446746493583,376,371,0,0,0,3,2,1,5,0002-00-0001-02.png,0003-00-0001-79.png
00000014,665,0,1446746498221,1446746498777,897,430,0,0,0,3,4,1,7,0002-00-0000-66.png,0004-00-0000-62.png
00000014,666,0,1446746501626,1446746501650,511,495,0,0,0,2,1,1,3,0003-00-0001-56.png,0005-00-0000-21.png
00000014,667,1,1446746504698,1446746505165,903,415,0,0,0,1,0,1,1,0005-00-0001-66.png,0001-00-0000-70.png
00000014,668,1,1446746506101,1446746506803,903,390,0,0,0,4,3,1,7,0004-00-0000-25.png,0002-00-0001-90.png
00000014,669,0,1446746507910,1446746508451,882,405,0,0,0,2,3,1,5,0003-00-0001-23.png,0002-00-0000-98.png
00000014,670,0,1446746511636,1446746512702,861,431,0,0,0,1,2,1,3,0005-00-0001-76.png,0003-00-0000-48.png
00000014,671,0,1446746515792,1446746516406,925,385,0,0,0,0,1,1,1,0001-00-0001-15.png,0005-00-0000-11.png
00000014,672,1,1446746519369,1446746520142,900,410,0,0,0,3,2,1,5,0002-00-0001-05.png,0003-00-0000-77.png
00000014,673,1,1446746521121,1446746521615,418,429,0,0,0,0,1,1,1,0001-00-0000-98.png,0005-00-0000-14.png
00000014,674,1,1446746522652,1446746523460,877,388,0,0,0,3,2,1,5,0002-00-0001-09.png,0003-00-0000-66.png
00000014,675,0,1446746524485,1446746525173,901,389,0,0,0,2,3,1,5,0003-00-0001-91.png,0002-00-0001-30.png
00000014,676,0,1446746528252,1446746528299,515,464,0,0,0,1,0,1,1,0005-00-0000-66.png,0001-00-0000-76.png
00000014,677,1,1446746531173,1446746531875,929,392,0,0,0,2,1,1,3,0003-00-0001-70.png,0005-00-0001-20.png
00000014,678,1,1446746532835,1446746533619,332,351,0,0,0,3,4,1,7,0002-00-0000-99.png,0004-00-0000-97.png
00000014,679,1,1446746534568,1446746535287,900,412,0,0,0,4,3,1,7,0004-00-0001-88.png,0002-00-0001-88.png
00000014,680,1,1446746536227,1446746536857,417,435,0,0,0,1,2,1,3,0005-00-0000-65.png,0003-00-0000-61.png
00000014,681,0,1446746537946,1446746538432,875,410,0,0,0,2,3,1,5,0003-00-0001-56.png,0002-00-0000-09.png
00000014,682,0,1446746541623,1446746542270,905,401,0,0,0,3,4,1,7,0002-00-0000-80.png,0004-00-0000-11.png
00000014,683,1,1446746545391,1446746546019,886,372,0,0,0,2,1,1,3,0003-00-0000-70.png,0005-00-0001-90.png
00000014,684,0,1446746546941,1446746547735,358,378,0,0,0,3,2,1,5,0002-00-0001-03.png,0003-00-0000-57.png
00000014,685,0,1446746551034,1446746551810,354,398,0,0,0,4,3,1,7,0004-00-0001-82.png,0002-00-0000-36.png
00000014,686,1,1446746554911,1446746555391,318,384,0,0,0,1,2,1,3,0005-00-0001-37.png,0003-00-0001-60.png
00000014,687,1,1446746556292,1446746557165,896,354,0,0,0,1,0,1,1,0005-00-0001-89.png,0001-00-0000-22.png
00000014,688,1,1446746558161,1446746559221,436,479,0,0,0,0,1,1,1,0001-00-0000-47.png,0005-00-0000-48.png
00000014,689,1,1446746560170,1446746560727,906,417,0,0,0,1,0,1,1,0005-00-0001-48.png,0001-00-0000-20.png
00000014,690,0,1446746561809,1446746562850,427,358,0,0,0,4,3,1,7,0004-00-0000-98.png,0002-00-0001-85.png
00000014,691,0,1446746565983,1446746566488,387,543,0,0,0,3,2,1,5,0002-00-0000-56.png,0003-00-0000-58.png
00000014,692,1,1446746569489,1446746570256,902,363,0,0,0,2,1,1,3,0003-00-0001-32.png,0005-00-0000-32.png
00000014,693,1,1446746571200,1446746572271,453,398,0,0,0,1,2,1,3,0005-00-0000-76.png,0003-00-0000-40.png
00000014,694,0,1446746573944,1446746574458,905,401,0,0,0,2,3,1,5,0003-00-0000-10.png,0002-00-0000-10.png
00000014,695,0,1446746578696,1446746579368,920,368,0,0,0,3,4,1,7,0002-00-0000-98.png,0004-00-0000-12.png
00000014,696,1,1446746582260,1446746582815,334,380,0,0,0,0,1,1,1,0001-00-0001-41.png,0005-00-0000-04.png
00000014,697,0,1446746583819,1446746584577,876,358,0,0,0,0,1,1,1,0001-00-0001-89.png,0005-00-0000-65.png
00000014,698,1,1446746587468,1446746588083,870,471,0,0,0,2,1,1,3,0003-00-0001-23.png,0005-00-0001-03.png
00000014,699,1,1446746589049,1446746589536,410,441,0,0,0,1,2,1,3,0005-00-0001-02.png,0003-00-0001-81.png
00000014,700,1,1446746590570,1446746591096,875,435,0,0,0,1,0,1,1,0005-00-0001-80.png,0001-00-0001-91.png
00000014,701,1,1446746592070,1446746592864,879,375,0,0,0,4,3,1,7,0004-00-0000-67.png,0002-00-0001-81.png
00000014,702,1,1446746593891,1446746594483,394,434,0,0,0,3,4,1,7,0002-00-0000-58.png,0004-00-0000-13.png
00000014,703,0,1446746595577,1446746596318,872,377,0,0,0,2,3,1,5,0003-00-0000-01.png,0002-00-0000-41.png
00000014,704,0,1446746599436,1446746599908,413,503,0,0,0,3,2,1,5,0002-00-0001-89.png,0003-00-0001-83.png
00000014,705,0,1446746603840,1446746604479,898,380,0,0,0,0,1,1,1,0001-00-0001-38.png,0005-00-0000-07.png
00000014,706,1,1446746607591,1446746608271,964,398,0,0,0,1,0,1,1,0005-00-0001-97.png,0001-00-0000-73.png
00000014,707,1,1446746609268,1446746609753,331,411,0,0,0,3,4,1,7,0002-00-0000-56.png,0004-00-0001-72.png
00000014,708,1,1446746610846,1446746611453,881,366,0,0,0,4,3,1,7,0004-00-0001-49.png,0002-00-0000-52.png
00000014,709,0,1446746612521,1446746613379,388,436,0,0,0,3,2,1,5,0002-00-0001-17.png,0003-00-0000-99.png
00000014,710,1,1446746616479,1446746617098,872,483,0,0,0,2,1,1,3,0003-00-0000-91.png,0005-00-0001-60.png
00000014,711,0,1446746618115,1446746618630,894,431,0,0,0,2,3,1,5,0003-00-0000-44.png,0002-00-0001-04.png
00000014,712,1,1446746621846,1446746622341,389,528,0,0,0,1,2,1,3,0005-00-0001-05.png,0003-00-0001-33.png
00000014,713,1,1446746623359,1446746624124,903,387,0,0,0,2,1,1,3,0003-00-0001-38.png,0005-00-0001-72.png
00000014,714,1,1446746625092,1446746625606,354,434,0,0,0,1,2,1,3,0005-00-0001-20.png,0003-00-0001-70.png
00000014,715,1,1446746626659,1446746627218,872,432,0,0,0,4,3,1,7,0004-00-0001-02.png,0002-00-0000-95.png
00000014,716,0,1446746628248,1446746628923,915,403,0,0,0,2,3,1,5,0003-00-0000-72.png,0002-00-0000-62.png
00000014,717,1,1446746632137,1446746632588,921,446,0,0,0,1,0,1,1,0005-00-0000-48.png,0001-00-0001-42.png
00000014,718,1,1446746633524,1446746634018,401,462,0,0,0,3,4,1,7,0002-00-0000-29.png,0004-00-0000-03.png
00000014,719,0,1446746635158,1446746635627,362,448,0,0,0,3,2,1,5,0002-00-0001-66.png,0003-00-0000-75.png
00000014,720,1,1446746638526,1446746638598,523,556,0,0,0,0,1,1,1,0001-00-0001-66.png,0005-00-0001-68.png
00000014,721,0,1446746639607,1446746640084,376,410,0,0,0,3,2,1,5,0002-00-0001-40.png,0003-00-0000-72.png
00000014,722,1,1446746643000,1446746643852,925,379,0,0,0,2,1,1,3,0003-00-0000-08.png,0005-00-0001-88.png
00000014,723,1,1446746644974,1446746645473,862,517,0,0,0,1,0,1,1,0005-00-0000-91.png,0001-00-0000-14.png
00000014,724,0,1446746646430,1446746647218,881,393,0,0,0,1,2,1,3,0005-00-0001-32.png,0003-00-0000-13.png
00000014,725,0,1446746650143,1446746650644,906,367,0,0,0,2,3,1,5,0003-00-0001-32.png,0002-00-0000-46.png
00000014,726,1,1446746653611,1446746654074,389,462,0,0,0,0,1,1,1,0001-00-0001-73.png,0005-00-0001-14.png
00000014,727,0,1446746655063,1446746655863,896,367,0,0,0,3,4,1,7,0002-00-0001-26.png,0004-00-0001-72.png
00000014,728,1,1446746658910,1446746659467,900,411,0,0,0,4,3,1,7,0004-00-0000-07.png,0002-00-0000-34.png
00000014,729,1,1446746660538,1446746660991,395,439,0,0,0,0,1,1,1,0001-00-0001-58.png,0005-00-0001-88.png
00000014,730,1,1446746661940,1446746662623,350,422,0,0,0,1,2,1,3,0005-00-0001-14.png,0003-00-0001-89.png
00000014,731,0,1446746663686,1446746664229,391,440,0,0,0,3,2,1,5,0002-00-0000-98.png,0003-00-0000-00.png
00000014,732,0,1446746667221,1446746667836,863,484,0,0,0,2,3,1,5,0003-00-0000-57.png,0002-00-0001-97.png
00000014,733,0,1446746671147,1446746671638,898,429,0,0,0,3,4,1,7,0002-00-0001-15.png,0004-00-0000-63.png
00000014,734,1,1446746674835,1446746675457,868,362,0,0,0,1,0,1,1,0005-00-0001-81.png,0001-00-0001-07.png
00000014,735,1,1446746676573,1446746677305,878,392,0,0,0,4,3,1,7,0004-00-0001-65.png,0002-00-0000-33.png
00000014,736,1,1446746678378,1446746678994,880,401,0,0,0,2,1,1,3,0003-00-0000-10.png,0005-00-0000-37.png
00000014,737,1,1446746679993,1446746680956,386,502,0,0,0,1,2,1,3,0005-00-0001-77.png,0003-00-0000-70.png
00000014,738,0,1446746682018,1446746683128,418,362,0,0,0,4,3,1,7,0004-00-0000-62.png,0002-00-0000-92.png
00000014,739,0,1446746686004,1446746686519,348,410,0,0,0,1,0,1,1,0005-00-0001-08.png,0001-00-0000-43.png
00000014,740,1,1446746689682,1446746690306,903,388,0,0,0,3,2,1,5,0002-00-0000-57.png,0003-00-0001-66.png
00000014,741,0,1446746691360,1446746691931,875,410,0,0,0,2,3,1,5,0003-00-0001-25.png,0002-00-0000-04.png
00000014,742,1,1446746695378,1446746696217,392,488,0,0,0,3,4,1,7,0002-00-0000-95.png,0004-00-0001-18.png
00000014,743,0,1446746697157,1446746697910,869,404,0,0,0,0,1,1,1,0001-00-0000-36.png,0005-00-0001-69.png
00000014,744,1,1446746700912,1446746701662,875,501,0,0,0,2,1,1,3,0003-00-0001-82.png,0005-00-0000-36.png
00000014,745,1,1446746702629,1446746703130,344,426,0,0,0,1,2,1,3,0005-00-0000-83.png,0003-00-0001-19.png
00000014,746,0,1446746704194,1446746704727,900,436,0,0,0,2,3,1,5,0003-00-0000-43.png,0002-00-0001-45.png
00000014,747,1,1446746708070,1446746708517,358,445,0,0,0,0,1,1,1,0001-00-0001-63.png,0005-00-0000-94.png
00000014,748,0,1446746709577,1446746710375,378,386,0,0,0,4,3,1,7,0004-00-0001-47.png,0002-00-0001-31.png
00000014,749,1,1446746713476,1446746714049,900,385,0,0,0,1,0,1,1,0005-00-0000-82.png,0001-00-0000-10.png
00000014,750,0,1446746714885,1446746715434,410,521,0,0,0,3,2,1,5,0002-00-0001-33.png,0003-00-0000-41.png
00000014,751,1,1446746718635,1446746719673,893,405,0,0,0,2,1,1,3,0003-00-0001-26.png,0005-00-0000-40.png
00000014,752,0,1446746720611,1446746721344,901,398,0,0,0,3,4,1,7,0002-00-0001-18.png,0004-00-0000-32.png
00000014,753,0,1446746724608,1446746725349,332,354,0,0,0,1,0,1,1,0005-00-0000-61.png,0001-00-0000-52.png
00000014,754,1,1446746728798,1446746729691,926,357,0,0,0,2,1,1,3,0003-00-0001-41.png,0005-00-0001-48.png
00000014,755,1,1446746730599,1446746731393,369,359,0,0,0,0,1,1,1,0001-00-0001-30.png,0005-00-0000-29.png
00000014,756,0,1446746732388,1446746732921,407,436,0,0,0,4,3,1,7,0004-00-0001-20.png,0002-00-0001-95.png
00000014,757,0,1446746735875,1446746736571,390,385,0,0,0,3,2,1,5,0002-00-0001-67.png,0003-00-0000-12.png
00000014,758,1,1446746740150,1446746740619,325,410,0,0,0,1,2,1,3,0005-00-0001-96.png,0003-00-0000-83.png
00000014,759,0,1446746741826,1446746742330,899,411,0,0,0,2,3,1,5,0003-00-0000-32.png,0002-00-0001-84.png
00000014,760,1,1446746745278,1446746745921,368,381,0,0,0,3,4,1,7,0002-00-0000-32.png,0004-00-0001-65.png
00000014,761,1,1446746747007,1446746748208,438,413,0,0,0,3,4,1,7,0002-00-0000-93.png,0004-00-0000-64.png
00000014,762,0,1446746749202,1446746749696,368,450,0,0,0,4,3,1,7,0004-00-0001-85.png,0002-00-0000-00.png
00000014,763,1,1446746752730,1446746753482,875,488,0,0,0,2,1,1,3,0003-00-0001-78.png,0005-00-0001-12.png
00000014,764,1,1446746754572,1446746755147,425,441,0,0,0,1,2,1,3,0005-00-0000-15.png,0003-00-0000-36.png
00000014,765,1,1446746756240,1446746756789,350,450,0,0,0,0,1,1,1,0001-00-0001-36.png,0005-00-0001-45.png
00000014,766,0,1446746757922,1446746758648,325,423,0,0,0,3,2,1,5,0002-00-0001-42.png,0003-00-0000-94.png
00000014,767,0,1446746761877,1446746762398,899,438,0,0,0,2,3,1,5,0003-00-0001-37.png,0002-00-0001-61.png
00000014,768,1,1446746765583,1446746766239,872,455,0,0,0,1,0,1,1,0005-00-0000-72.png,0001-00-0000-26.png
00000014,769,1,1446746767262,1446746767962,880,349,0,0,0,2,1,1,3,0003-00-0000-27.png,0005-00-0000-80.png
00000014,770,0,1446746768924,1446746769448,423,444,0,0,0,1,0,1,1,0005-00-0000-44.png,0001-00-0000-16.png
00000014,771,1,1446746772374,1446746772894,382,437,0,0,0,0,1,1,1,0001-00-0001-06.png,0005-00-0000-42.png
00000014,772,1,1446746774034,1446746774523,407,456,0,0,0,1,2,1,3,0005-00-0000-21.png,0003-00-0000-90.png
00000014,773,0,1446746776012,1446746776460,875,424,0,0,0,2,3,1,5,0003-00-0000-75.png,0002-00-0000-43.png
00000014,774,1,1446746779442,1446746780222,929,365,0,0,0,4,3,1,7,0004-00-0001-79.png,0002-00-0001-58.png
00000014,775,0,1446746781339,1446746781802,427,527,0,0,0,3,2,1,5,0002-00-0001-23.png,0003-00-0001-23.png
00000014,776,1,1446746784867,1446746785395,358,453,0,0,0,3,4,1,7,0002-00-0001-14.png,0004-00-0000-72.png
00000014,777,0,1446746786399,1446746787120,877,495,0,0,0,1,2,1,3,0005-00-0000-39.png,0003-00-0001-43.png
00000014,778,1,1446746790527,1446746791455,906,401,0,0,0,1,0,1,1,0005-00-0001-51.png,0001-00-0000-37.png
00000014,779,1,1446746792520,1446746793003,361,423,0,0,0,0,1,1,1,0001-00-0000-51.png,0005-00-0001-44.png
00000014,780,0,1446746794080,1446746794673,878,415,0,0,0,2,3,1,5,0003-00-0001-18.png,0002-00-0000-02.png
00000014,781,0,1446746797748,1446746798691,440,384,0,0,0,2,1,1,3,0003-00-0000-65.png,0005-00-0000-76.png
00000014,782,1,1446746803512,1446746804028,898,432,0,0,0,4,3,1,7,0004-00-0000-48.png,0002-00-0001-59.png
00000014,783,0,1446746805064,1446746805549,862,397,0,0,0,3,4,1,7,0002-00-0000-67.png,0004-00-0000-97.png
00000014,784,0,1446746808571,1446746809334,413,501,0,0,0,3,2,1,5,0002-00-0000-03.png,0003-00-0000-37.png
00000014,785,0,1446746812406,1446746812907,376,424,0,0,0,3,2,1,5,0002-00-0001-50.png,0003-00-0001-82.png
00000014,786,1,1446746816104,1446746816601,340,424,0,0,0,0,1,1,1,0001-00-0000-21.png,0005-00-0000-58.png
00000014,787,0,1446746817555,1446746818109,899,423,0,0,0,2,3,1,5,0003-00-0000-32.png,0002-00-0000-19.png
00000014,788,0,1446746821475,1446746822244,359,375,0,0,0,2,1,1,3,0003-00-0001-07.png,0005-00-0000-85.png
00000014,789,0,1446746825227,1446746825243,513,462,0,0,0,1,0,1,1,0005-00-0001-89.png,0001-00-0001-83.png
00000014,790,0,1446746828158,1446746828898,921,342,0,0,0,1,2,1,3,0005-00-0000-71.png,0003-00-0000-92.png
00000014,791,1,1446746832849,1446746833373,927,387,0,0,0,4,3,1,7,0004-00-0000-03.png,0002-00-0001-70.png
00000014,792,1,1446746834320,1446746835089,376,358,0,0,0,3,4,1,7,0002-00-0001-90.png,0004-00-0000-31.png
00000014,793,1,1446746836170,1446746836611,365,398,0,0,0,0,1,1,1,0001-00-0001-99.png,0005-00-0001-19.png
00000014,794,0,1446746837682,1446746838450,372,393,0,0,0,2,1,1,3,0003-00-0001-82.png,0005-00-0000-22.png
00000014,795,1,1446746841496,1446746842031,911,425,0,0,0,4,3,1,7,0004-00-0001-38.png,0002-00-0001-03.png
00000014,796,0,1446746843016,1446746843676,879,409,0,0,0,2,3,1,5,0003-00-0001-97.png,0002-00-0000-91.png
00000014,797,1,1446746846852,1446746847537,877,467,0,0,0,1,0,1,1,0005-00-0001-55.png,0001-00-0001-66.png
00000014,798,1,1446746848622,1446746849139,900,411,0,0,0,3,2,1,5,0002-00-0000-06.png,0003-00-0000-79.png
00000014,799,1,1446746850072,1446746850519,369,408,0,0,0,1,2,1,3,0005-00-0001-77.png,0003-00-0000-63.png
00000014,800,1,1446746851566,1446746852608,427,384,0,0,0,3,4,1,7,0002-00-0000-78.png,0004-00-0000-01.png
00000014,801,1,1446746853662,1446746854329,871,395,0,0,0,1,0,1,1,0005-00-0000-91.png,0001-00-0000-79.png
00000014,802,1,1446746855291,1446746856511,414,425,0,0,0,1,2,1,3,0005-00-0000-57.png,0003-00-0000-08.png
00000014,803,1,1446746857528,1446746858022,421,443,0,0,0,3,4,1,7,0002-00-0001-77.png,0004-00-0001-00.png
00000014,804,0,1446746859139,1446746859770,372,425,0,0,0,3,2,1,5,0002-00-0000-05.png,0003-00-0000-08.png
00000014,805,1,1446746862656,1446746863103,315,381,0,0,0,0,1,1,1,0001-00-0001-61.png,0005-00-0000-44.png
00000014,806,1,1446746864128,1446746864880,882,385,0,0,0,2,1,1,3,0003-00-0000-00.png,0005-00-0000-38.png
00000014,807,0,1446746865866,1446746866402,406,468,0,0,0,4,3,1,7,0004-00-0000-32.png,0002-00-0000-39.png
00000014,808,0,1446746869977,1446746870471,897,443,0,0,0,2,3,1,5,0003-00-0001-92.png,0002-00-0001-39.png
00000014,809,0,1446746873559,1446746874191,374,393,0,0,0,3,2,1,5,0002-00-0000-61.png,0003-00-0001-40.png
00000014,810,1,1446746877367,1446746877851,378,422,0,0,0,0,1,1,1,0001-00-0001-79.png,0005-00-0000-27.png
00000014,811,1,1446746878860,1446746879629,325,397,0,0,0,1,2,1,3,0005-00-0001-55.png,0003-00-0000-46.png
00000014,812,0,1446746880906,1446746881832,419,402,0,0,0,1,0,1,1,0005-00-0001-71.png,0001-00-0000-52.png
00000014,813,0,1446746885109,1446746885555,864,485,0,0,0,2,3,1,5,0003-00-0001-04.png,0002-00-0000-69.png
00000014,814,0,1446746888764,1446746889239,440,528,0,0,0,4,3,1,7,0004-00-0000-40.png,0002-00-0001-11.png
00000014,815,1,1446746892179,1446746892806,901,359,0,0,0,2,1,1,3,0003-00-0000-43.png,0005-00-0001-70.png
00000014,816,0,1446746893793,1446746894526,902,337,0,0,0,3,4,1,7,0002-00-0000-69.png,0004-00-0001-33.png
00000014,817,0,1446746897529,1446746898332,862,332,0,0,0,1,2,1,3,0005-00-0000-97.png,0003-00-0000-48.png
00000014,818,1,1446746901506,1446746902362,410,370,0,0,0,0,1,1,1,0001-00-0001-56.png,0005-00-0000-98.png
00000014,819,1,1446746903405,1446746903903,875,411,0,0,0,2,1,1,3,0003-00-0001-75.png,0005-00-0001-06.png
00000014,820,1,1446746904945,1446746905485,889,423,0,0,0,1,0,1,1,0005-00-0000-24.png,0001-00-0000-66.png
00000014,821,0,1446746906536,1446746907593,435,384,0,0,0,4,3,1,7,0004-00-0001-75.png,0002-00-0000-93.png
00000014,822,0,1446746910500,1446746911189,903,338,0,0,0,2,3,1,5,0003-00-0000-58.png,0002-00-0001-39.png
00000014,823,1,1446746914199,1446746914913,376,396,0,0,0,3,4,1,7,0002-00-0001-53.png,0004-00-0001-22.png
00000014,824,0,1446746915967,1446746916416,347,419,0,0,0,3,2,1,5,0002-00-0001-37.png,0003-00-0001-51.png
00000014,825,0,1446746919576,1446746920325,395,408,0,0,0,4,3,1,7,0004-00-0000-14.png,0002-00-0000-03.png
00000014,826,0,1446746923312,1446746923890,346,367,0,0,0,3,2,1,5,0002-00-0001-61.png,0003-00-0000-57.png
00000014,827,1,1446746926949,1446746927450,364,433,0,0,0,0,1,1,1,0001-00-0000-31.png,0005-00-0001-83.png
00000014,828,0,1446746928571,1446746929164,926,359,0,0,0,2,3,1,5,0003-00-0001-13.png,0002-00-0000-61.png
00000014,829,0,1446746932485,1446746932991,899,385,0,0,0,3,4,1,7,0002-00-0001-16.png,0004-00-0000-63.png
00000014,830,1,1446746936610,1446746937654,954,415,0,0,0,2,1,1,3,0003-00-0000-40.png,0005-00-0001-65.png
00000014,831,1,1446746938727,1446746939231,903,391,0,0,0,1,0,1,1,0005-00-0000-95.png,0001-00-0001-86.png
00000014,832,1,1446746940377,1446746940892,342,445,0,0,0,1,2,1,3,0005-00-0001-11.png,0003-00-0000-46.png
00000014,833,0,1446746941925,1446746942680,350,390,0,0,0,4,3,1,7,0004-00-0000-89.png,0002-00-0000-00.png
00000014,834,1,1446746945823,1446746946492,874,449,0,0,0,3,2,1,5,0002-00-0000-53.png,0003-00-0000-73.png
00000014,835,1,1446746947483,1446746948264,881,393,0,0,0,2,1,1,3,0003-00-0001-21.png,0005-00-0000-82.png
00000014,836,1,1446746949213,1446746949694,345,423,0,0,0,3,4,1,7,0002-00-0000-46.png,0004-00-0000-18.png
00000014,837,1,1446746950711,1446746951194,444,469,0,0,0,0,1,1,1,0001-00-0000-84.png,0005-00-0000-73.png
00000014,838,1,1446746952265,1446746952859,886,398,0,0,0,1,0,1,1,0005-00-0001-86.png,0001-00-0000-56.png
00000014,839,0,1446746953972,1446746954500,875,434,0,0,0,2,3,1,5,0003-00-0000-00.png,0002-00-0000-57.png
00000014,840,0,1446746957452,1446746957926,897,405,0,0,0,1,2,1,3,0005-00-0001-27.png,0003-00-0001-44.png
00000014,841,1,1446746961149,1446746961664,884,449,0,0,0,2,1,1,3,0003-00-0001-18.png,0005-00-0001-07.png
00000014,842,0,1446746962670,1446746963185,896,420,0,0,0,2,3,1,5,0003-00-0000-40.png,0002-00-0001-27.png
00000014,843,0,1446746966288,1446746967073,898,385,0,0,0,1,2,1,3,0005-00-0000-04.png,0003-00-0000-19.png
00000014,844,1,1446746970103,1446746970867,913,370,0,0,0,3,2,1,5,0002-00-0001-44.png,0003-00-0001-32.png
00000014,845,0,1446746971850,1446746972435,887,398,0,0,0,3,4,1,7,0002-00-0000-79.png,0004-00-0001-42.png
00000014,846,1,1446746975482,1446746976178,926,357,0,0,0,1,0,1,1,0005-00-0000-42.png,0001-00-0001-51.png
00000014,847,0,1446746977150,1446746977989,388,371,0,0,0,4,3,1,7,0004-00-0000-32.png,0002-00-0000-29.png
00000014,848,1,1446746981284,1446746981733,401,410,0,0,0,0,1,1,1,0001-00-0000-72.png,0005-00-0001-33.png
00000014,849,1,1446746982734,1446746983306,903,391,0,0,0,4,3,1,7,0004-00-0001-91.png,0002-00-0001-59.png
00000014,850,1,1446746984265,1446746984856,374,442,0,0,0,3,4,1,7,0002-00-0000-89.png,0004-00-0001-71.png
00000014,851,0,1446746985923,1446746986596,874,360,0,0,0,1,2,1,3,0005-00-0001-27.png,0003-00-0000-16.png
00000014,852,0,1446746990047,1446746991225,900,443,0,0,0,2,3,1,5,0003-00-0000-14.png,0002-00-0001-06.png
00000014,853,0,1446746994253,1446746995254,369,368,0,0,0,1,0,1,1,0005-00-0000-77.png,0001-00-0000-85.png
00000014,854,1,1446746998085,1446746998584,401,439,0,0,0,0,1,1,1,0001-00-0000-62.png,0005-00-0000-68.png
00000014,855,0,1446746999531,1446747000643,394,366,0,0,0,3,2,1,5,0002-00-0001-15.png,0003-00-0000-56.png
00000014,856,1,1446747004125,1446747004851,866,430,0,0,0,2,1,1,3,0003-00-0000-01.png,0005-00-0001-31.png
00000014,857,0,1446747005913,1446747006613,907,366,0,0,0,3,4,1,7,0002-00-0000-80.png,0004-00-0000-43.png
00000014,858,0,1446747009589,1446747010129,358,427,0,0,0,3,2,1,5,0002-00-0000-72.png,0003-00-0001-25.png
00000014,859,1,1446747013238,1446747013743,895,390,0,0,0,1,0,1,1,0005-00-0001-20.png,0001-00-0001-59.png
00000014,860,1,1446747014627,1446747015180,400,409,0,0,0,0,1,1,1,0001-00-0001-70.png,0005-00-0000-91.png
00000014,861,1,1446747016724,1446747017217,894,437,0,0,0,4,3,1,7,0004-00-0001-28.png,0002-00-0000-91.png
00000014,862,0,1446747018086,1446747018662,900,410,0,0,0,2,3,1,5,0003-00-0001-06.png,0002-00-0001-24.png
00000014,863,1,1446747021962,1446747022786,374,352,0,0,0,1,2,1,3,0005-00-0001-03.png,0003-00-0000-79.png
00000014,864,1,1446747023785,1446747024371,876,414,0,0,0,2,1,1,3,0003-00-0000-95.png,0005-00-0000-40.png
00000014,865,1,1446747025332,1446747025872,391,456,0,0,0,1,2,1,3,0005-00-0001-42.png,0003-00-0000-20.png
00000014,866,0,1446747026848,1446747027591,882,391,0,0,0,0,1,1,1,0001-00-0001-10.png,0005-00-0000-90.png
00000014,867,1,1446747030683,1446747031394,901,357,0,0,0,3,2,1,5,0002-00-0000-67.png,0003-00-0000-59.png
00000014,868,1,1446747032336,1446747033002,873,475,0,0,0,2,1,1,3,0003-00-0001-60.png,0005-00-0001-66.png
00000014,869,1,1446747033961,1446747035143,427,360,0,0,0,2,3,1,5,0003-00-0001-76.png,0002-00-0000-39.png
00000014,870,0,1446747036197,1446747036758,401,410,0,0,0,4,3,1,7,0004-00-0001-44.png,0002-00-0001-41.png
00000014,871,1,1446747039941,1446747040503,330,393,0,0,0,3,4,1,7,0002-00-0000-38.png,0004-00-0000-89.png
00000014,872,1,1446747041749,1446747042522,876,365,0,0,0,1,0,1,1,0005-00-0000-78.png,0001-00-0000-91.png
00000014,873,1,1446747043479,1446747044261,869,368,0,0,0,4,3,1,7,0004-00-0001-34.png,0002-00-0000-10.png
00000014,874,0,1446747045320,1446747045865,874,456,0,0,0,2,3,1,5,0003-00-0001-42.png,0002-00-0001-36.png
00000014,875,1,1446747049207,1446747049681,387,538,0,0,0,3,4,1,7,0002-00-0001-24.png,0004-00-0000-04.png
00000014,876,1,1446747050761,1446747051258,379,469,0,0,0,0,1,1,1,0001-00-0001-94.png,0005-00-0001-95.png
00000014,877,0,1446747052338,1446747052818,451,504,0,0,0,3,2,1,5,0002-00-0000-09.png,0003-00-0001-41.png
00000014,878,1,1446747056083,1446747056865,928,389,0,0,0,1,0,1,1,0005-00-0001-61.png,0001-00-0000-06.png
00000014,879,0,1446747057863,1446747058644,876,356,0,0,0,1,2,1,3,0005-00-0000-46.png,0003-00-0000-74.png
00000014,880,1,1446747061508,1446747062073,926,377,0,0,0,2,1,1,3,0003-00-0001-36.png,0005-00-0000-84.png
00000014,881,1,1446747063062,1446747063617,896,420,0,0,0,2,1,1,3,0003-00-0001-62.png,0005-00-0000-54.png
00000014,882,0,1446747064590,1446747065283,880,427,0,0,0,3,4,1,7,0002-00-0000-33.png,0004-00-0000-36.png
00000014,883,1,1446747068358,1446747068824,882,410,0,0,0,4,3,1,7,0004-00-0000-31.png,0002-00-0001-44.png
00000014,884,1,1446747069791,1446747070273,403,445,0,0,0,0,1,1,1,0001-00-0001-29.png,0005-00-0000-88.png
00000014,885,0,1446747071347,1446747071872,900,437,0,0,0,2,3,1,5,0003-00-0000-89.png,0002-00-0000-05.png
00000014,886,1,1446747075137,1446747075719,900,385,0,0,0,1,0,1,1,0005-00-0001-25.png,0001-00-0000-32.png
00000014,887,0,1446747076727,1446747077227,427,412,0,0,0,3,2,1,5,0002-00-0001-29.png,0003-00-0000-49.png
00000014,888,1,1446747080712,1446747081851,432,380,0,0,0,1,2,1,3,0005-00-0000-02.png,0003-00-0001-99.png
00000014,889,0,1446747082949,1446747083990,331,341,0,0,0,4,3,1,7,0004-00-0001-24.png,0002-00-0000-29.png
00000014,890,1,1446747087169,1446747087688,349,445,0,0,0,0,1,1,1,0001-00-0001-33.png,0005-00-0001-85.png
00000014,891,0,1446747088694,1446747089290,873,475,0,0,0,3,4,1,7,0002-00-0000-05.png,0004-00-0000-37.png
00000014,892,1,1446747092366,1446747093031,895,367,0,0,0,2,1,1,3,0003-00-0001-62.png,0005-00-0000-19.png
00000014,893,0,1446747094004,1446747094679,881,349,0,0,0,2,3,1,5,0003-00-0001-53.png,0002-00-0000-52.png
00000014,894,0,1446747098649,1446747099195,371,464,0,0,0,3,2,1,5,0002-00-0001-73.png,0003-00-0001-12.png
00000014,895,1,1446747102412,1446747103034,903,390,0,0,0,1,0,1,1,0005-00-0000-62.png,0001-00-0001-77.png
00000014,896,1,1446747104090,1446747104594,397,390,0,0,0,1,2,1,3,0005-00-0001-37.png,0003-00-0001-67.png
00000014,897,0,1446747105567,1446747106339,886,398,0,0,0,3,4,1,7,0002-00-0001-10.png,0004-00-0000-51.png
00000014,898,0,1446747109657,1446747110324,888,397,0,0,0,1,2,1,3,0005-00-0001-30.png,0003-00-0000-68.png
00000014,899,1,1446747113704,1446747114188,861,483,0,0,0,1,0,1,1,0005-00-0000-93.png,0001-00-0001-25.png
00000014,900,0,1446747115201,1446747115869,875,384,0,0,0,2,3,1,5,0003-00-0001-71.png,0002-00-0001-42.png
00000014,901,1,1446747119341,1446747119850,905,402,0,0,0,4,3,1,7,0004-00-0000-30.png,0002-00-0000-19.png
00000014,902,1,1446747121027,1446747121487,402,470,0,0,0,0,1,1,1,0001-00-0001-46.png,0005-00-0000-30.png
00000014,903,1,1446747122743,1446747123511,893,351,0,0,0,2,1,1,3,0003-00-0000-34.png,0005-00-0000-67.png
00000014,904,0,1446747124526,1446747124997,374,406,0,0,0,3,2,1,5,0002-00-0001-91.png,0003-00-0000-53.png
00000014,905,0,1446747128065,1446747128820,886,450,0,0,0,3,4,1,7,0002-00-0001-55.png,0004-00-0001-30.png
00000014,906,0,1446747131695,1446747132222,378,510,0,0,0,3,2,1,5,0002-00-0000-60.png,0003-00-0000-90.png
00000014,907,1,1446747135261,1446747135925,439,517,0,0,0,1,2,1,3,0005-00-0001-14.png,0003-00-0000-82.png
00000014,908,1,1446747136924,1446747137614,862,423,0,0,0,4,3,1,7,0004-00-0000-46.png,0002-00-0001-85.png
00000014,909,1,1446747138569,1446747139035,376,423,0,0,0,0,1,1,1,0001-00-0001-67.png,0005-00-0001-93.png
00000014,910,0,1446747140235,1446747141465,359,392,0,0,0,2,1,1,3,0003-00-0000-02.png,0005-00-0001-65.png
00000014,911,0,1446747144761,1446747145801,369,403,0,0,0,1,0,1,1,0005-00-0001-23.png,0001-00-0000-73.png
00000014,912,0,1446747149053,1446747149539,897,407,0,0,0,2,3,1,5,0003-00-0001-61.png,0002-00-0000-46.png
00000014,913,0,1446747154412,1446747154881,888,396,0,0,0,0,1,1,1,0001-00-0001-10.png,0005-00-0000-41.png
00000014,914,1,1446747157838,1446747157874,504,501,0,0,0,1,2,1,3,0005-00-0000-24.png,0003-00-0000-18.png
00000014,915,0,1446747158873,1446747159315,376,436,0,0,0,1,0,1,1,0005-00-0001-62.png,0001-00-0000-64.png
00000014,916,0,1446747162817,1446747163263,919,400,0,0,0,2,3,1,5,0003-00-0000-63.png,0002-00-0001-43.png
00000014,917,1,1446747166166,1446747166558,389,436,0,0,0,3,4,1,7,0002-00-0001-57.png,0004-00-0001-26.png
00000014,918,1,1446747167580,1446747168152,917,403,0,0,0,4,3,1,7,0004-00-0001-78.png,0002-00-0000-61.png
00000014,919,0,1446747169193,1446747169650,409,453,0,0,0,3,2,1,5,0002-00-0000-16.png,0003-00-0000-49.png
00000014,920,1,1446747172906,1446747173375,931,411,0,0,0,2,1,1,3,0003-00-0000-78.png,0005-00-0000-75.png
00000014,921,0,1446747174315,1446747175072,346,448,0,0,0,1,0,1,1,0005-00-0001-63.png,0001-00-0000-46.png
00000014,922,1,1446747178063,1446747178557,890,405,0,0,0,2,1,1,3,0003-00-0000-94.png,0005-00-0001-26.png
00000014,923,1,1446747179455,1446747180280,877,390,0,0,0,4,3,1,7,0004-00-0001-76.png,0002-00-0001-92.png
00000014,924,0,1446747181239,1446747181868,860,372,0,0,0,0,1,1,1,0001-00-0000-01.png,0005-00-0000-82.png
00000014,925,0,1446747185130,1446747185590,899,430,0,0,0,2,3,1,5,0003-00-0001-83.png,0002-00-0000-63.png
00000014,926,1,1446747189117,1446747189600,351,444,0,0,0,1,2,1,3,0005-00-0000-82.png,0003-00-0000-55.png
00000014,927,0,1446747190762,1446747191495,363,387,0,0,0,3,2,1,5,0002-00-0000-67.png,0003-00-0001-47.png
00000014,928,0,1446747202152,1446747202742,931,349,0,0,0,3,4,1,7,0002-00-0001-94.png,0004-00-0000-69.png
00000014,929,1,1446747205923,1446747206408,897,377,0,0,0,4,3,1,7,0004-00-0000-20.png,0002-00-0001-71.png
00000014,930,1,1446747207552,1446747208178,882,374,0,0,0,2,1,1,3,0003-00-0000-59.png,0005-00-0001-72.png
00000014,931,1,1446747209194,1446747209767,383,445,0,0,0,3,4,1,7,0002-00-0001-22.png,0004-00-0001-71.png
00000014,932,0,1446747210782,1446747211299,880,375,0,0,0,2,3,1,5,0003-00-0000-93.png,0002-00-0001-04.png
00000014,933,1,1446747214891,1446747215377,347,451,0,0,0,0,1,1,1,0001-00-0000-61.png,0005-00-0001-10.png
00000014,934,1,1446747216747,1446747217477,888,358,0,0,0,3,2,1,5,0002-00-0001-72.png,0003-00-0001-55.png
00000014,935,1,1446747218467,1446747219171,424,536,0,0,0,1,2,1,3,0005-00-0000-27.png,0003-00-0000-50.png
00000014,936,1,1446747220161,1446747220658,876,435,0,0,0,1,0,1,1,0005-00-0000-44.png,0001-00-0001-27.png
00000014,937,0,1446747221747,1446747222350,376,423,0,0,0,2,1,1,3,0003-00-0001-68.png,0005-00-0000-28.png
00000014,938,0,1446747225364,1446747225830,879,402,0,0,0,3,4,1,7,0002-00-0001-87.png,0004-00-0001-14.png
00000014,939,1,1446747228962,1446747229433,413,436,0,0,0,0,1,1,1,0001-00-0000-74.png,0005-00-0000-96.png
00000014,940,1,1446747230452,1446747230954,913,410,0,0,0,1,0,1,1,0005-00-0001-21.png,0001-00-0000-58.png
00000014,941,1,1446747232042,1446747232515,376,456,0,0,0,1,2,1,3,0005-00-0000-27.png,0003-00-0001-69.png
00000014,942,0,1446747233555,1446747234538,376,371,0,0,0,3,2,1,5,0002-00-0000-63.png,0003-00-0001-46.png
00000014,943,1,1446747237448,1446747238146,904,401,0,0,0,4,3,1,7,0004-00-0000-41.png,0002-00-0000-45.png
00000014,944,0,1446747239235,1446747239803,876,496,0,0,0,2,3,1,5,0003-00-0001-86.png,0002-00-0000-65.png
00000014,945,1,1446747243652,1446747244430,404,397,0,0,0,1,2,1,3,0005-00-0000-65.png,0003-00-0000-65.png
00000014,946,1,1446747245499,1446747246143,862,501,0,0,0,4,3,1,7,0004-00-0001-97.png,0002-00-0001-29.png
00000014,947,0,1446747247269,1446747247972,894,399,0,0,0,2,3,1,5,0003-00-0001-23.png,0002-00-0001-01.png
00000014,948,1,1446747250812,1446747251266,871,353,0,0,0,2,1,1,3,0003-00-0001-71.png,0005-00-0000-78.png
00000014,949,1,1446747252236,1446747252856,874,411,0,0,0,1,0,1,1,0005-00-0001-92.png,0001-00-0001-23.png
00000014,950,1,1446747253829,1446747254367,876,398,0,0,0,3,2,1,5,0002-00-0000-78.png,0003-00-0000-61.png
00000014,951,0,1446747255359,1446747256028,862,399,0,0,0,3,4,1,7,0002-00-0000-08.png,0004-00-0001-03.png
