subject_id,trial,correct_response,stim_time,response_time,x_coord,y_coord,trial_timeout,timeout_time,interTrial_timeout,left_rank,right_rank,distance,joint_rank,left_image,right_image
00000014,1,1,1446828676293,1446828676704,368,358,0,0,0,0,1,1,1,0001-00-0001-63.png,0005-00-0001-45.png
00000014,2,1,1446828677967,1446828678993,906,427,0,0,0,1,0,1,1,0005-00-0000-52.png,0001-00-0001-29.png
00000014,3,1,1446828679820,1446828680775,938,452,0,0,0,2,1,1,3,0003-00-0001-17.png,0005-00-0001-47.png
00000014,4,0,1446828681644,1446828682159,949,459,0,0,0,2,3,1,5,0003-00-0001-25.png,0002-00-0000-38.png
00000014,5,0,1446828685460,1446828685852,350,358,0,0,0,4,3,1,7,0004-00-0001-29.png,0002-00-0000-25.png
00000014,6,1,1446828689227,1446828689628,376,410,0,0,0,1,2,1,3,0005-00-0001-65.png,0003-00-0001-84.png
00000014,7,1,1446828690797,1446828691258,875,489,0,0,0,3,2,1,5,0002-00-0001-28.png,0003-00-0001-73.png
00000014,8,0,1446828692446,1446828692980,904,453,0,0,0,3,4,1,7,0002-00-0001-65.png,0004-00-0000-27.png
00000014,9,1,1446828695830,1446828696242,879,467,0,0,0,1,0,1,1,0005-00-0001-78.png,0001-00-0000-01.png
00000014,10,0,1446828697435,1446828697911,350,436,0,0,0,3,2,1,5,0002-00-0001-50.png,0003-00-0000-87.png
00000014,11,0,1446828701088,1446828701499,885,488,0,0,0,1,2,1,3,0005-00-0001-68.png,0003-00-0001-12.png
00000014,12,0,1446828704909,1446828705288,372,368,0,0,0,4,3,1,7,0004-00-0000-34.png,0002-00-0001-06.png
00000014,13,0,1446828709178,1446828709641,926,437,0,0,0,3,4,1,7,0002-00-0001-23.png,0004-00-0000-87.png
00000014,14,0,1446828712597,1446828713077,874,440,0,0,0,2,3,1,5,0003-00-0000-21.png,0002-00-0001-95.png
00000014,15,0,1446828716040,1446828716084,486,488,0,0,0,2,1,1,3,0003-00-0000-68.png,0005-00-0000-17.png
00000014,16,1,1446828719120,1446828719563,436,432,0,0,0,0,1,1,1,0001-00-0000-02.png,0005-00-0001-16.png
00000014,17,1,1446828720398,1446828720903,350,423,0,0,0,0,1,1,1,0001-00-0000-74.png,0005-00-0001-26.png
00000014,18,0,1446828721751,1446828722259,907,392,0,0,0,2,3,1,5,0003-00-0000-10.png,0002-00-0000-96.png
00000014,19,1,1446828725740,1446828726656,473,436,0,0,0,1,2,1,3,0005-00-0001-49.png,0003-00-0001-59.png
00000014,20,1,1446828727845,1446828728290,938,449,0,0,0,1,0,1,1,0005-00-0001-49.png,0001-00-0000-49.png
00000014,21,1,1446828729115,1446828729581,913,502,0,0,0,2,1,1,3,0003-00-0001-17.png,0005-00-0000-62.png
00000014,22,1,1446828730447,1446828730951,350,371,0,0,0,3,4,1,7,0002-00-0001-12.png,0004-00-0000-09.png
00000014,23,1,1446828732088,1446828732749,861,468,0,0,0,3,2,1,5,0002-00-0001-72.png,0003-00-0000-20.png
00000014,24,1,1446828733708,1446828734396,903,391,0,0,0,4,3,1,7,0004-00-0001-94.png,0002-00-0000-89.png
00000014,25,0,1446828735278,1446828735771,383,394,0,0,0,3,2,1,5,0002-00-0000-46.png,0003-00-0000-11.png
00000014,26,1,1446828746170,1446828746546,353,326,0,0,0,1,2,1,3,0005-00-0001-82.png,0003-00-0001-89.png
00000014,27,0,1446828747382,1446828747898,352,388,0,0,0,1,0,1,1,0005-00-0001-96.png,0001-00-0001-66.png
00000014,28,1,1446828752184,1446828752703,900,462,0,0,0,4,3,1,7,0004-00-0000-10.png,0002-00-0000-16.png
00000014,29,0,1446828753862,1446828754354,900,427,0,0,0,2,3,1,5,0003-00-0000-77.png,0002-00-0000-29.png
00000014,30,0,1446828757460,1446828757915,401,358,0,0,0,2,1,1,3,0003-00-0000-42.png,0005-00-0000-42.png
00000014,31,0,1446828761078,1446828761456,956,348,0,0,0,3,4,1,7,0002-00-0001-65.png,0004-00-0000-25.png
00000014,32,1,1446828765740,1446828766129,371,361,0,0,0,0,1,1,1,0001-00-0000-24.png,0005-00-0000-09.png
00000014,33,1,1446828767311,1446828767773,944,390,0,0,0,2,1,1,3,0003-00-0001-96.png,0005-00-0001-73.png
00000014,34,1,1446828768670,1446828769113,350,384,0,0,0,1,2,1,3,0005-00-0001-64.png,0003-00-0000-84.png
00000014,35,1,1446828769939,1446828770425,900,488,0,0,0,1,0,1,1,0005-00-0001-67.png,0001-00-0001-45.png
00000014,36,1,1446828771251,1446828771789,927,358,0,0,0,4,3,1,7,0004-00-0001-71.png,0002-00-0000-51.png
00000014,37,0,1446828772623,1446828773143,868,482,0,0,0,2,3,1,5,0003-00-0000-85.png,0002-00-0000-87.png
00000014,38,0,1446828776008,1446828776498,299,410,0,0,0,3,2,1,5,0002-00-0000-02.png,0003-00-0001-51.png
00000014,39,0,1446828779425,1446828779871,901,384,0,0,0,0,1,1,1,0001-00-0000-79.png,0005-00-0000-61.png
00000014,40,1,1446828782853,1446828783227,394,376,0,0,0,3,4,1,7,0002-00-0000-99.png,0004-00-0001-45.png
00000014,41,0,1446828784105,1446828784628,869,289,0,0,0,1,2,1,3,0005-00-0000-79.png,0003-00-0000-59.png
00000014,42,1,1446828787693,1446828788268,886,443,0,0,0,2,1,1,3,0003-00-0000-03.png,0005-00-0000-71.png
00000014,43,1,1446828789175,1446828789673,350,384,0,0,0,0,1,1,1,0001-00-0001-47.png,0005-00-0000-13.png
00000014,44,1,1446828790611,1446828791125,901,382,0,0,0,3,2,1,5,0002-00-0000-65.png,0003-00-0001-44.png
00000014,45,0,1446828792086,1446828792685,902,388,0,0,0,2,3,1,5,0003-00-0001-90.png,0002-00-0001-51.png
00000014,46,1,1446828795575,1446828796017,929,390,0,0,0,4,3,1,7,0004-00-0001-16.png,0002-00-0001-19.png
00000014,47,1,1446828797024,1446828797517,427,501,0,0,0,3,4,1,7,0002-00-0001-30.png,0004-00-0000-05.png
00000014,48,1,1446828798428,1446828798923,925,385,0,0,0,1,0,1,1,0005-00-0001-31.png,0001-00-0001-12.png
00000014,49,0,1446828799848,1446828800465,859,389,0,0,0,1,2,1,3,0005-00-0000-07.png,0003-00-0000-23.png
00000014,50,1,1446828803324,1446828803400,520,456,0,0,0,3,4,1,7,0002-00-0001-91.png,0004-00-0001-39.png
00000014,51,1,1446828804308,1446828805355,930,429,0,0,0,1,0,1,1,0005-00-0000-30.png,0001-00-0001-74.png
00000014,52,0,1446828806270,1446828806738,927,384,0,0,0,2,3,1,5,0003-00-0001-81.png,0002-00-0001-59.png
00000014,53,1,1446828809620,1446828810064,323,396,0,0,0,0,1,1,1,0001-00-0001-55.png,0005-00-0000-38.png
00000014,54,1,1446828810957,1446828811853,895,340,0,0,0,4,3,1,7,0004-00-0001-05.png,0002-00-0000-37.png
00000014,55,1,1446828812827,1446828813449,878,363,0,0,0,2,1,1,3,0003-00-0001-45.png,0005-00-0001-34.png
00000014,56,1,1446828814418,1446828814891,903,362,0,0,0,3,2,1,5,0002-00-0001-15.png,0003-00-0001-43.png
00000014,57,0,1446828815859,1446828816438,388,488,0,0,0,3,2,1,5,0002-00-0000-33.png,0003-00-0001-18.png
00000014,58,0,1446828819533,1446828819917,376,436,0,0,0,4,3,1,7,0004-00-0000-25.png,0002-00-0000-30.png
00000014,59,0,1446828822912,1446828823371,877,468,0,0,0,2,3,1,5,0003-00-0000-92.png,0002-00-0000-50.png
00000014,60,1,1446828826232,1446828826761,905,442,0,0,0,1,0,1,1,0005-00-0000-80.png,0001-00-0001-36.png
00000014,61,1,1446828827604,1446828828169,365,404,0,0,0,0,1,1,1,0001-00-0000-33.png,0005-00-0000-68.png
00000014,62,0,1446828829237,1446828829906,906,317,0,0,0,3,4,1,7,0002-00-0000-54.png,0004-00-0000-09.png
00000014,63,1,1446828833231,1446828833676,865,484,0,0,0,2,1,1,3,0003-00-0001-98.png,0005-00-0001-81.png
00000014,64,0,1446828834623,1446828835365,880,420,0,0,0,1,2,1,3,0005-00-0001-43.png,0003-00-0000-54.png
00000014,65,1,1446828838311,1446828838710,904,453,0,0,0,1,0,1,1,0005-00-0001-34.png,0001-00-0001-58.png
00000014,66,1,1446828839602,1446828840142,930,400,0,0,0,4,3,1,7,0004-00-0000-03.png,0002-00-0001-44.png
00000014,67,0,1446828841104,1446828841568,389,514,0,0,0,3,2,1,5,0002-00-0001-83.png,0003-00-0000-63.png
00000014,68,1,1446828844640,1446828845096,319,357,0,0,0,0,1,1,1,0001-00-0001-06.png,0005-00-0000-61.png
00000014,69,1,1446828846003,1446828846497,926,397,0,0,0,2,1,1,3,0003-00-0001-61.png,0005-00-0000-99.png
00000014,70,0,1446828847445,1446828847960,923,380,0,0,0,2,3,1,5,0003-00-0000-87.png,0002-00-0001-99.png
00000014,71,0,1446828850823,1446828851306,904,311,0,0,0,1,2,1,3,0005-00-0001-77.png,0003-00-0000-61.png
00000014,72,0,1446828854151,1446828854885,927,356,0,0,0,3,4,1,7,0002-00-0001-93.png,0004-00-0000-53.png
00000014,73,1,1446828857871,1446828858368,914,407,0,0,0,4,3,1,7,0004-00-0001-50.png,0002-00-0000-28.png
00000014,74,1,1446828859353,1446828859790,307,367,0,0,0,0,1,1,1,0001-00-0000-82.png,0005-00-0001-00.png
00000014,75,0,1446828860725,1446828861265,906,393,0,0,0,3,4,1,7,0002-00-0000-02.png,0004-00-0001-49.png
00000014,76,1,1446828864629,1446828865081,350,370,0,0,0,1,2,1,3,0005-00-0001-01.png,0003-00-0000-66.png
00000014,77,0,1446828866022,1446828866497,414,398,0,0,0,3,2,1,5,0002-00-0000-12.png,0003-00-0000-94.png
00000014,78,1,1446828869878,1446828870431,881,477,0,0,0,2,1,1,3,0003-00-0000-53.png,0005-00-0001-34.png
00000014,79,1,1446828871419,1446828871872,899,464,0,0,0,1,0,1,1,0005-00-0001-82.png,0001-00-0000-75.png
00000014,80,1,1446828872869,1446828873439,376,410,0,0,0,2,3,1,5,0003-00-0000-60.png,0002-00-0000-31.png
00000014,81,1,1446828874389,1446828874862,401,384,0,0,0,3,4,1,7,0002-00-0001-26.png,0004-00-0001-53.png
00000014,82,0,1446828875870,1446828876627,353,403,0,0,0,1,0,1,1,0005-00-0001-92.png,0001-00-0001-93.png
00000014,83,1,1446828879495,1446828879954,868,440,0,0,0,2,1,1,3,0003-00-0001-92.png,0005-00-0001-02.png
00000014,84,0,1446828880871,1446828881906,897,352,0,0,0,2,3,1,5,0003-00-0001-12.png,0002-00-0000-61.png
00000014,85,0,1446828885055,1446828885500,938,372,0,0,0,1,2,1,3,0005-00-0000-09.png,0003-00-0001-28.png
00000014,86,1,1446828888472,1446828888935,325,335,0,0,0,0,1,1,1,0001-00-0001-34.png,0005-00-0000-53.png
00000014,87,0,1446828889763,1446828890310,312,396,0,0,0,3,2,1,5,0002-00-0000-13.png,0003-00-0001-93.png
00000014,88,1,1446828893313,1446828893925,927,305,0,0,0,4,3,1,7,0004-00-0000-25.png,0002-00-0000-06.png
00000014,89,1,1446828894843,1446828895528,918,369,0,0,0,1,0,1,1,0005-00-0001-72.png,0001-00-0000-84.png
00000014,90,1,1446828896475,1446828896963,397,497,0,0,0,1,2,1,3,0005-00-0001-27.png,0003-00-0001-29.png
00000014,91,0,1446828897986,1446828898518,912,372,0,0,0,2,3,1,5,0003-00-0000-69.png,0002-00-0001-74.png
00000014,92,1,1446828901920,1446828902504,329,361,0,0,0,3,4,1,7,0002-00-0000-54.png,0004-00-0000-68.png
00000014,93,0,1446828903370,1446828903855,329,382,0,0,0,3,2,1,5,0002-00-0000-33.png,0003-00-0000-88.png
00000014,94,0,1446828907067,1446828907483,350,436,0,0,0,4,3,1,7,0004-00-0001-03.png,0002-00-0000-80.png
00000014,95,0,1446828910561,1446828911091,927,357,0,0,0,0,1,1,1,0001-00-0001-07.png,0005-00-0000-64.png
00000014,96,1,1446828914163,1446828914645,877,466,0,0,0,2,1,1,3,0003-00-0001-74.png,0005-00-0000-89.png
00000014,97,0,1446828915532,1446828916059,414,501,0,0,0,4,3,1,7,0004-00-0001-15.png,0002-00-0000-29.png
00000014,98,0,1446828920366,1446828920807,352,418,0,0,0,1,0,1,1,0005-00-0001-13.png,0001-00-0000-47.png
00000014,99,0,1446828923713,1446828924179,876,476,0,0,0,2,3,1,5,0003-00-0001-34.png,0002-00-0001-39.png
00000014,100,1,1446828927262,1446828927708,924,352,0,0,0,2,1,1,3,0003-00-0000-61.png,0005-00-0001-87.png
00000014,101,0,1446828928645,1446828929207,912,372,0,0,0,0,1,1,1,0001-00-0000-43.png,0005-00-0000-97.png
00000014,102,1,1446828932320,1446828932817,420,385,0,0,0,1,2,1,3,0005-00-0001-20.png,0003-00-0000-46.png
00000014,103,0,1446828933782,1446828934347,914,449,0,0,0,3,4,1,7,0002-00-0001-54.png,0004-00-0000-91.png
00000014,104,0,1446828937664,1446828938304,391,356,0,0,0,3,2,1,5,0002-00-0000-26.png,0003-00-0001-99.png
00000014,105,0,1446828941153,1446828941613,912,450,0,0,0,2,3,1,5,0003-00-0001-64.png,0002-00-0001-33.png
00000014,106,1,1446828945293,1446828945738,880,444,0,0,0,1,0,1,1,0005-00-0000-04.png,0001-00-0000-79.png
00000014,107,1,1446828946722,1446828947245,427,386,0,0,0,0,1,1,1,0001-00-0000-37.png,0005-00-0001-15.png
00000014,108,0,1446828948215,1446828948661,383,436,0,0,0,3,2,1,5,0002-00-0000-71.png,0003-00-0000-37.png
00000014,109,1,1446828951682,1446828952204,945,325,0,0,0,4,3,1,7,0004-00-0001-10.png,0002-00-0001-12.png
00000014,110,1,1446828953164,1446828953630,415,539,0,0,0,1,2,1,3,0005-00-0001-75.png,0003-00-0000-96.png
00000014,111,1,1446828954613,1446828955089,401,436,0,0,0,3,4,1,7,0002-00-0001-86.png,0004-00-0001-98.png
00000014,112,1,1446828956076,1446828956632,880,392,0,0,0,2,1,1,3,0003-00-0001-70.png,0005-00-0001-79.png
00000014,113,1,1446828957627,1446828958119,904,401,0,0,0,4,3,1,7,0004-00-0000-13.png,0002-00-0000-24.png
00000014,114,1,1446828959105,1446828959529,317,399,0,0,0,0,1,1,1,0001-00-0001-09.png,0005-00-0001-00.png
00000014,115,0,1446828960566,1446828961109,902,408,0,0,0,2,3,1,5,0003-00-0000-47.png,0002-00-0000-46.png
00000014,116,1,1446828964026,1446828964514,401,397,0,0,0,3,4,1,7,0002-00-0000-30.png,0004-00-0001-59.png
00000014,117,0,1446828965520,1446828965994,427,436,0,0,0,3,2,1,5,0002-00-0001-87.png,0003-00-0000-92.png
00000014,118,1,1446828969145,1446828969628,878,494,0,0,0,2,1,1,3,0003-00-0001-30.png,0005-00-0001-83.png
00000014,119,1,1446828970607,1446828971105,876,500,0,0,0,1,0,1,1,0005-00-0001-00.png,0001-00-0000-39.png
00000014,120,1,1446828972087,1446828972582,337,422,0,0,0,1,2,1,3,0005-00-0001-88.png,0003-00-0001-69.png
00000014,121,1,1446828973629,1446828974138,874,476,0,0,0,4,3,1,7,0004-00-0001-20.png,0002-00-0000-10.png
00000014,122,1,1446828975189,1446828975711,902,390,0,0,0,1,0,1,1,0005-00-0001-14.png,0001-00-0001-66.png
00000014,123,0,1446828976699,1446828977216,400,463,0,0,0,2,1,1,3,0003-00-0000-20.png,0005-00-0000-64.png
00000014,124,0,1446828980147,1446828980580,902,397,0,0,0,1,2,1,3,0005-00-0001-19.png,0003-00-0001-01.png
00000014,125,1,1446828983587,1446828984046,345,384,0,0,0,0,1,1,1,0001-00-0000-02.png,0005-00-0000-52.png
00000014,126,0,1446828984959,1446828985592,904,402,0,0,0,2,3,1,5,0003-00-0000-27.png,0002-00-0000-42.png
00000014,127,1,1446828988695,1446828989190,413,384,0,0,0,3,4,1,7,0002-00-0001-94.png,0004-00-0000-41.png
00000014,128,1,1446828990147,1446828990661,863,501,0,0,0,3,2,1,5,0002-00-0001-88.png,0003-00-0001-07.png
00000014,129,1,1446828991667,1446828992183,906,392,0,0,0,1,0,1,1,0005-00-0001-53.png,0001-00-0001-21.png
00000014,130,1,1446828993139,1446828993573,376,384,0,0,0,0,1,1,1,0001-00-0001-63.png,0005-00-0000-62.png
00000014,131,0,1446828994641,1446828995165,385,521,0,0,0,3,2,1,5,0002-00-0001-16.png,0003-00-0001-25.png
00000014,132,1,1446828998628,1446828999143,904,384,0,0,0,2,1,1,3,0003-00-0001-27.png,0005-00-0000-32.png
00000014,133,1,1446829000136,1446829000549,339,416,0,0,0,3,4,1,7,0002-00-0000-16.png,0004-00-0000-92.png
00000014,134,1,1446829001497,1446829001978,334,429,0,0,0,1,2,1,3,0005-00-0001-83.png,0003-00-0001-78.png
00000014,135,1,1446829002920,1446829003454,894,405,0,0,0,4,3,1,7,0004-00-0000-76.png,0002-00-0000-58.png
00000014,136,0,1446829004409,1446829004894,878,495,0,0,0,2,3,1,5,0003-00-0001-12.png,0002-00-0000-99.png
00000014,137,1,1446829007938,1446829008539,417,403,0,0,0,1,2,1,3,0005-00-0000-61.png,0003-00-0001-46.png
00000014,138,0,1446829009438,1446829009865,422,511,0,0,0,3,2,1,5,0002-00-0001-61.png,0003-00-0000-23.png
00000014,139,0,1446829018136,1446829018661,873,516,0,0,0,2,3,1,5,0003-00-0001-67.png,0002-00-0001-96.png
00000014,140,1,1446829023367,1446829023822,926,390,0,0,0,4,3,1,7,0004-00-0000-13.png,0002-00-0001-01.png
00000014,141,0,1446829024705,1446829025324,875,488,0,0,0,3,4,1,7,0002-00-0000-05.png,0004-00-0001-72.png
00000014,142,1,1446829030393,1446829030807,368,505,0,0,0,0,1,1,1,0001-00-0001-96.png,0005-00-0001-97.png
00000014,143,1,1446829031629,1446829032260,900,385,0,0,0,1,0,1,1,0005-00-0000-93.png,0001-00-0000-33.png
00000014,144,1,1446829033163,1446829033679,875,408,0,0,0,2,1,1,3,0003-00-0000-54.png,0005-00-0000-95.png
00000014,145,1,1446829034572,1446829035091,363,418,0,0,0,1,2,1,3,0005-00-0000-49.png,0003-00-0001-03.png
00000014,146,1,1446829036096,1446829036504,401,436,0,0,0,0,1,1,1,0001-00-0000-39.png,0005-00-0001-21.png
00000014,147,0,1446829037418,1446829037932,873,483,0,0,0,2,3,1,5,0003-00-0000-46.png,0002-00-0000-68.png
00000014,148,0,1446829044858,1446829045362,397,393,0,0,0,3,2,1,5,0002-00-0000-86.png,0003-00-0000-69.png
00000014,149,1,1446829048301,1446829048743,868,483,0,0,0,1,0,1,1,0005-00-0001-70.png,0001-00-0001-52.png
00000014,150,1,1446829049723,1446829050237,914,398,0,0,0,2,1,1,3,0003-00-0000-75.png,0005-00-0001-14.png
00000014,151,0,1446829051125,1446829051687,873,490,0,0,0,3,4,1,7,0002-00-0001-06.png,0004-00-0000-75.png
00000014,152,1,1446829055904,1446829056398,926,384,0,0,0,4,3,1,7,0004-00-0000-43.png,0002-00-0001-23.png
00000014,153,0,1446829057338,1446829057769,435,408,0,0,0,3,2,1,5,0002-00-0001-23.png,0003-00-0001-11.png
00000014,154,1,1446829062059,1446829062543,354,401,0,0,0,1,2,1,3,0005-00-0000-10.png,0003-00-0001-04.png
00000014,155,0,1446829063576,1446829064125,875,397,0,0,0,2,3,1,5,0003-00-0001-10.png,0002-00-0000-31.png
00000014,156,0,1446829067025,1446829067483,882,471,0,0,0,3,4,1,7,0002-00-0000-31.png,0004-00-0001-41.png
00000014,157,1,1446829071220,1446829071689,896,497,0,0,0,2,1,1,3,0003-00-0000-47.png,0005-00-0000-15.png
00000014,158,0,1446829072652,1446829073075,376,462,0,0,0,4,3,1,7,0004-00-0000-75.png,0002-00-0001-54.png
00000014,159,0,1446829076346,1446829076990,876,450,0,0,0,0,1,1,1,0001-00-0000-83.png,0005-00-0001-52.png
00000014,160,1,1446829080115,1446829080580,919,402,0,0,0,1,0,1,1,0005-00-0000-57.png,0001-00-0001-43.png
00000014,161,1,1446829081466,1446829081986,902,518,0,0,0,4,3,1,7,0004-00-0001-98.png,0002-00-0000-28.png
00000014,162,1,1446829082958,1446829083508,440,528,0,0,0,1,2,1,3,0005-00-0000-46.png,0003-00-0000-52.png
00000014,163,0,1446829084475,1446829084946,900,417,0,0,0,3,4,1,7,0002-00-0000-26.png,0004-00-0000-62.png
00000014,164,0,1446829088579,1446829089015,929,415,0,0,0,2,3,1,5,0003-00-0001-11.png,0002-00-0001-62.png
00000014,165,1,1446829094095,1446829094711,891,431,0,0,0,3,2,1,5,0002-00-0001-58.png,0003-00-0001-47.png
00000014,166,1,1446829095879,1446829096387,323,388,0,0,0,0,1,1,1,0001-00-0001-90.png,0005-00-0000-77.png
00000014,167,1,1446829097329,1446829097846,910,393,0,0,0,1,0,1,1,0005-00-0000-34.png,0001-00-0001-58.png
00000014,168,1,1446829098832,1446829099315,873,490,0,0,0,2,1,1,3,0003-00-0000-40.png,0005-00-0001-15.png
00000014,169,0,1446829100343,1446829101341,368,349,0,0,0,4,3,1,7,0004-00-0001-10.png,0002-00-0001-80.png
00000014,170,1,1446829117434,1446829123339,338,526,0,0,0,2,3,1,5,0003-00-0001-34.png,0002-00-0001-59.png
00000014,171,1,1446829124478,1446829125041,369,493,0,0,0,0,1,1,1,0001-00-0000-61.png,0005-00-0001-65.png
00000014,172,0,1446829126058,1446829126486,888,332,0,0,0,1,2,1,3,0005-00-0001-84.png,0003-00-0001-07.png
00000014,173,0,1446829130141,1446829130981,348,353,0,0,0,2,1,1,3,0003-00-0000-97.png,0005-00-0000-03.png
00000014,174,0,1446829164969,1446829165387,391,438,0,0,0,1,0,1,1,0005-00-0001-18.png,0001-00-0000-53.png
00000014,175,1,1446829171188,1446829171569,233,376,0,0,0,3,4,1,7,0002-00-0000-87.png,0004-00-0001-86.png
00000014,176,0,1446829172971,1446829173434,387,351,0,0,0,3,2,1,5,0002-00-0001-74.png,0003-00-0001-31.png
00000014,177,1,1446829241012,1446829241323,326,394,0,0,0,1,2,1,3,0005-00-0001-54.png,0003-00-0000-72.png
00000014,178,0,1446829242694,1446829243906,423,458,0,0,0,1,0,1,1,0005-00-0001-53.png,0001-00-0001-65.png
00000014,179,1,1446829248368,1446829248706,333,288,0,0,0,3,4,1,7,0002-00-0000-04.png,0004-00-0001-10.png
00000014,180,0,1446829249900,1446829250304,905,393,0,0,0,2,3,1,5,0003-00-0000-66.png,0002-00-0001-01.png
00000014,181,1,1446829270295,1446829270645,412,442,0,0,0,0,1,1,1,0001-00-0000-79.png,0005-00-0000-68.png
00000014,182,0,1446829271622,1446829272095,386,377,0,0,0,4,3,1,7,0004-00-0000-48.png,0002-00-0001-30.png
00000014,183,1,1446829293770,1446829294209,956,401,0,0,0,2,1,1,3,0003-00-0001-11.png,0005-00-0001-44.png
00000014,184,1,1446829295084,1446829295607,876,513,0,0,0,3,2,1,5,0002-00-0001-68.png,0003-00-0000-36.png
00000014,185,0,1446829296537,1446829297023,952,423,0,0,0,2,3,1,5,0003-00-0001-64.png,0002-00-0001-53.png
00000014,186,0,1446829300223,1446829300564,364,344,0,0,0,2,1,1,3,0003-00-0000-19.png,0005-00-0000-46.png
00000014,187,1,1446829303594,1446829304079,377,350,0,0,0,3,4,1,7,0002-00-0001-83.png,0004-00-0001-10.png
00000014,188,0,1446829305035,1446829305451,444,454,0,0,0,1,0,1,1,0005-00-0000-78.png,0001-00-0001-32.png
00000014,189,0,1446829308523,1446829308947,401,358,0,0,0,3,2,1,5,0002-00-0001-39.png,0003-00-0001-85.png
00000014,190,1,1446829311970,1446829312385,401,332,0,0,0,0,1,1,1,0001-00-0000-00.png,0005-00-0001-67.png
00000014,191,0,1446829313227,1446829313798,918,391,0,0,0,1,2,1,3,0005-00-0000-14.png,0003-00-0000-99.png
00000014,192,1,1446829317041,1446829317496,888,372,0,0,0,4,3,1,7,0004-00-0001-71.png,0002-00-0001-56.png
00000014,193,0,1446829318412,1446829318856,427,528,0,0,0,3,2,1,5,0002-00-0001-72.png,0003-00-0001-11.png
00000014,194,1,1446829321959,1446829322553,926,358,0,0,0,1,0,1,1,0005-00-0000-31.png,0001-00-0000-69.png
00000014,195,1,1446829323418,1446829323856,412,508,0,0,0,2,3,1,5,0003-00-0001-36.png,0002-00-0001-42.png
00000014,196,1,1446829324774,1446829325198,401,496,0,0,0,0,1,1,1,0001-00-0001-92.png,0005-00-0001-16.png
00000014,197,1,1446829326135,1446829326622,881,393,0,0,0,2,1,1,3,0003-00-0001-83.png,0005-00-0001-67.png
00000014,198,1,1446829327595,1446829328099,410,436,0,0,0,1,2,1,3,0005-00-0000-38.png,0003-00-0001-93.png
00000014,199,1,1446829329016,1446829329501,900,383,0,0,0,4,3,1,7,0004-00-0000-11.png,0002-00-0001-20.png
00000014,200,0,1446829330414,1446829330941,873,379,0,0,0,3,4,1,7,0002-00-0000-31.png,0004-00-0001-83.png
00000014,201,1,1446829334337,1446829334863,880,378,0,0,0,2,1,1,3,0003-00-0000-14.png,0005-00-0001-43.png
00000014,202,0,1446829335894,1446829336902,421,467,0,0,0,3,2,1,5,0002-00-0000-77.png,0003-00-0000-51.png
00000014,203,1,1446829340177,1446829340533,350,398,0,0,0,1,2,1,3,0005-00-0000-63.png,0003-00-0000-10.png
00000014,204,0,1446829341489,1446829342209,364,388,0,0,0,1,0,1,1,0005-00-0000-61.png,0001-00-0000-57.png
00000014,205,1,1446829345142,1446829345639,903,362,0,0,0,4,3,1,7,0004-00-0000-61.png,0002-00-0001-03.png
00000014,206,1,1446829346618,1446829347113,428,409,0,0,0,3,4,1,7,0002-00-0001-40.png,0004-00-0000-26.png
00000014,207,0,1446829348109,1446829348630,880,375,0,0,0,2,3,1,5,0003-00-0000-14.png,0002-00-0001-85.png
00000014,208,1,1446829351696,1446829352125,318,346,0,0,0,0,1,1,1,0001-00-0001-59.png,0005-00-0001-56.png
00000014,209,0,1446829352963,1446829353508,381,465,0,0,0,4,3,1,7,0004-00-0001-86.png,0002-00-0001-41.png
00000014,210,1,1446829356905,1446829357370,463,507,0,0,0,1,2,1,3,0005-00-0000-53.png,0003-00-0001-06.png
00000014,211,1,1446829358267,1446829358777,908,371,0,0,0,3,2,1,5,0002-00-0000-59.png,0003-00-0001-13.png
00000014,212,1,1446829359678,1446829360257,891,363,0,0,0,2,1,1,3,0003-00-0000-82.png,0005-00-0000-08.png
00000014,213,0,1446829361197,1446829361769,867,459,0,0,0,0,1,1,1,0001-00-0001-15.png,0005-00-0000-96.png
00000014,214,0,1446829364895,1446829365319,887,423,0,0,0,2,3,1,5,0003-00-0001-47.png,0002-00-0001-12.png
00000014,215,0,1446829368483,1446829368913,876,434,0,0,0,3,4,1,7,0002-00-0000-30.png,0004-00-0000-72.png
00000014,216,1,1446829372047,1446829372449,902,405,0,0,0,1,0,1,1,0005-00-0000-19.png,0001-00-0001-43.png
00000014,217,1,1446829373408,1446829373916,914,369,0,0,0,1,0,1,1,0005-00-0000-41.png,0001-00-0001-64.png
00000014,218,1,1446829374811,1446829375252,355,406,0,0,0,0,1,1,1,0001-00-0000-86.png,0005-00-0000-98.png
00000014,219,0,1446829376315,1446829376814,894,483,0,0,0,3,4,1,7,0002-00-0001-63.png,0004-00-0001-74.png
00000014,220,0,1446829380141,1446829380595,350,426,0,0,0,3,2,1,5,0002-00-0000-37.png,0003-00-0000-41.png
00000014,221,1,1446829384604,1446829385140,370,384,0,0,0,1,2,1,3,0005-00-0000-33.png,0003-00-0001-31.png
00000014,222,1,1446829386194,1446829386779,900,359,0,0,0,4,3,1,7,0004-00-0001-44.png,0002-00-0001-15.png
00000014,223,1,1446829387695,1446829388247,917,362,0,0,0,2,1,1,3,0003-00-0000-19.png,0005-00-0001-79.png
00000014,224,1,1446829389183,1446829389639,344,435,0,0,0,2,3,1,5,0003-00-0001-55.png,0002-00-0000-84.png
00000014,225,1,1446829390646,1446829391106,427,396,0,0,0,0,1,1,1,0001-00-0000-72.png,0005-00-0001-59.png
00000014,226,1,1446829392048,1446829392645,870,472,0,0,0,3,2,1,5,0002-00-0001-12.png,0003-00-0001-61.png
00000014,227,1,1446829393569,1446829394035,901,384,0,0,0,4,3,1,7,0004-00-0000-48.png,0002-00-0001-74.png
00000014,228,0,1446829394970,1446829395540,900,436,0,0,0,3,4,1,7,0002-00-0000-71.png,0004-00-0001-07.png
00000014,229,0,1446829398395,1446829398852,439,515,0,0,0,2,1,1,3,0003-00-0000-99.png,0005-00-0001-14.png
00000014,230,0,1446829401696,1446829402263,899,411,0,0,0,2,3,1,5,0003-00-0001-20.png,0002-00-0001-35.png
00000014,231,1,1446829405166,1446829405691,413,384,0,0,0,1,2,1,3,0005-00-0000-31.png,0003-00-0000-39.png
00000014,232,1,1446829406693,1446829407192,900,462,0,0,0,1,0,1,1,0005-00-0000-33.png,0001-00-0001-43.png
00000014,233,0,1446829408044,1446829408570,373,407,0,0,0,1,0,1,1,0005-00-0001-33.png,0001-00-0001-91.png
00000014,234,0,1446829411686,1446829412126,900,390,0,0,0,1,2,1,3,0005-00-0001-56.png,0003-00-0001-87.png
00000014,235,0,1446829415116,1446829415515,427,384,0,0,0,3,2,1,5,0002-00-0001-35.png,0003-00-0001-22.png
00000014,236,1,1446829418502,1446829418996,389,450,0,0,0,3,4,1,7,0002-00-0001-59.png,0004-00-0000-95.png
00000014,237,0,1446829419926,1446829420415,331,409,0,0,0,4,3,1,7,0004-00-0000-75.png,0002-00-0001-56.png
00000014,238,1,1446829423415,1446829423914,925,334,0,0,0,2,1,1,3,0003-00-0001-40.png,0005-00-0000-62.png
00000014,239,0,1446829424867,1446829425290,901,371,0,0,0,2,3,1,5,0003-00-0000-69.png,0002-00-0001-54.png
00000014,240,1,1446829428245,1446829428675,357,353,0,0,0,0,1,1,1,0001-00-0000-85.png,0005-00-0000-75.png
00000014,241,0,1446829429626,1446829430152,942,361,0,0,0,3,4,1,7,0002-00-0000-34.png,0004-00-0001-46.png
00000014,242,0,1446829434676,1446829435060,396,470,0,0,0,3,2,1,5,0002-00-0000-24.png,0003-00-0001-03.png
00000014,243,1,1446829438104,1446829438468,907,340,0,0,0,2,1,1,3,0003-00-0001-29.png,0005-00-0000-65.png
00000014,244,0,1446829439397,1446829439862,929,364,0,0,0,1,2,1,3,0005-00-0000-80.png,0003-00-0001-44.png
00000014,245,0,1446829442711,1446829443337,888,395,0,0,0,2,3,1,5,0003-00-0000-65.png,0002-00-0001-31.png
00000014,246,1,1446829446263,1446829446780,936,394,0,0,0,4,3,1,7,0004-00-0000-40.png,0002-00-0001-83.png
00000014,247,1,1446829447621,1446829448022,340,390,0,0,0,0,1,1,1,0001-00-0001-00.png,0005-00-0001-21.png
00000014,248,1,1446829449026,1446829449618,908,421,0,0,0,1,0,1,1,0005-00-0000-47.png,0001-00-0001-75.png
00000014,249,0,1446829450566,1446829451058,355,393,0,0,0,4,3,1,7,0004-00-0001-46.png,0002-00-0000-16.png
00000014,250,0,1446829454166,1446829454658,927,330,0,0,0,2,3,1,5,0003-00-0001-02.png,0002-00-0001-61.png
00000014,251,0,1446829457958,1446829458383,953,371,0,0,0,0,1,1,1,0001-00-0001-31.png,0005-00-0001-16.png
00000014,252,1,1446829461926,1446829462370,925,366,0,0,0,2,1,1,3,0003-00-0001-65.png,0005-00-0001-87.png
00000014,253,1,1446829463247,1446829463755,902,467,0,0,0,1,0,1,1,0005-00-0000-70.png,0001-00-0000-13.png
00000014,254,0,1446829464730,1446829465173,414,417,0,0,0,3,2,1,5,0002-00-0000-73.png,0003-00-0000-56.png
00000014,255,1,1446829468248,1446829468614,401,384,0,0,0,3,4,1,7,0002-00-0001-94.png,0004-00-0001-86.png
00000014,256,1,1446829469519,1446829470025,426,399,0,0,0,1,2,1,3,0005-00-0001-90.png,0003-00-0000-44.png
00000014,257,1,1446829471011,1446829471507,928,391,0,0,0,2,1,1,3,0003-00-0001-23.png,0005-00-0000-57.png
00000014,258,0,1446829472492,1446829472935,369,408,0,0,0,3,2,1,5,0002-00-0000-60.png,0003-00-0000-32.png
00000014,259,0,1446829478879,1446829479265,398,481,0,0,0,1,0,1,1,0005-00-0001-03.png,0001-00-0000-98.png
00000014,260,1,1446829482360,1446829482819,466,410,0,0,0,1,2,1,3,0005-00-0000-60.png,0003-00-0001-79.png
00000014,261,0,1446829483803,1446829484386,877,363,0,0,0,3,4,1,7,0002-00-0000-07.png,0004-00-0001-54.png
00000014,262,1,1446829487237,1446829487596,343,366,0,0,0,0,1,1,1,0001-00-0001-22.png,0005-00-0000-63.png
00000014,263,1,1446829488490,1446829489028,900,384,0,0,0,4,3,1,7,0004-00-0001-89.png,0002-00-0001-03.png
00000014,264,0,1446829489931,1446829490457,867,458,0,0,0,2,3,1,5,0003-00-0000-02.png,0002-00-0000-62.png
00000014,265,0,1446829493408,1446829493809,294,348,0,0,0,4,3,1,7,0004-00-0000-37.png,0002-00-0000-79.png
00000014,266,1,1446829497138,1446829497611,386,357,0,0,0,3,4,1,7,0002-00-0000-49.png,0004-00-0000-38.png
00000014,267,1,1446829498558,1446829499103,926,371,0,0,0,2,1,1,3,0003-00-0001-47.png,0005-00-0001-09.png
00000014,268,0,1446829500051,1446829500525,359,405,0,0,0,3,2,1,5,0002-00-0000-25.png,0003-00-0000-45.png
00000014,269,0,1446829503678,1446829504048,926,324,0,0,0,0,1,1,1,0001-00-0000-47.png,0005-00-0001-81.png
00000014,270,1,1446829507017,1446829507476,914,369,0,0,0,1,0,1,1,0005-00-0000-25.png,0001-00-0000-51.png
00000014,271,1,1446829508356,1446829508939,368,428,0,0,0,1,2,1,3,0005-00-0001-17.png,0003-00-0000-57.png
00000014,272,0,1446829509838,1446829510427,893,336,0,0,0,2,3,1,5,0003-00-0000-03.png,0002-00-0000-82.png
00000014,273,1,1446829513365,1446829513784,902,440,0,0,0,2,1,1,3,0003-00-0001-49.png,0005-00-0001-47.png
00000014,274,1,1446829514687,1446829515216,937,366,0,0,0,4,3,1,7,0004-00-0000-61.png,0002-00-0001-99.png
00000014,275,0,1446829516159,1446829516683,912,481,0,0,0,0,1,1,1,0001-00-0000-67.png,0005-00-0000-84.png
00000014,276,0,1446829519812,1446829520739,926,358,0,0,0,2,3,1,5,0003-00-0001-67.png,0002-00-0000-98.png
00000014,277,1,1446829523901,1446829524301,900,397,0,0,0,1,0,1,1,0005-00-0001-78.png,0001-00-0001-63.png
00000014,278,1,1446829525282,1446829525828,401,436,0,0,0,3,4,1,7,0002-00-0001-41.png,0004-00-0000-64.png
00000014,279,1,1446829526803,1446829527235,344,401,0,0,0,1,2,1,3,0005-00-0000-70.png,0003-00-0001-37.png
00000014,280,0,1446829528315,1446829528766,350,397,0,0,0,3,2,1,5,0002-00-0000-70.png,0003-00-0001-11.png
00000014,281,0,1446829531764,1446829532458,861,398,0,0,0,0,1,1,1,0001-00-0000-84.png,0005-00-0000-62.png
00000014,282,1,1446829535608,1446829536090,862,423,0,0,0,2,1,1,3,0003-00-0000-73.png,0005-00-0000-39.png
00000014,283,0,1446829537036,1446829537586,894,364,0,0,0,3,4,1,7,0002-00-0001-35.png,0004-00-0001-66.png
00000014,284,1,1446829540886,1446829541351,906,374,0,0,0,3,2,1,5,0002-00-0000-51.png,0003-00-0001-84.png
00000014,285,0,1446829542307,1446829542709,388,419,0,0,0,1,0,1,1,0005-00-0000-79.png,0001-00-0000-43.png
00000014,286,0,1446829545786,1446829546262,350,370,0,0,0,4,3,1,7,0004-00-0000-75.png,0002-00-0001-87.png
00000014,287,1,1446829549373,1446829549989,410,393,0,0,0,1,2,1,3,0005-00-0001-81.png,0003-00-0000-00.png
00000014,288,0,1446829551093,1446829551576,876,449,0,0,0,2,3,1,5,0003-00-0000-06.png,0002-00-0000-07.png
00000014,289,1,1446829554563,1446829555145,945,351,0,0,0,4,3,1,7,0004-00-0001-87.png,0002-00-0000-66.png
00000014,290,0,1446829556074,1446829556537,932,418,0,0,0,2,3,1,5,0003-00-0001-05.png,0002-00-0000-24.png
00000014,291,1,1446829617616,1446829618090,878,453,0,0,0,1,0,1,1,0005-00-0001-41.png,0001-00-0000-55.png
00000014,292,0,1446829619218,1446829619645,350,436,0,0,0,3,2,1,5,0002-00-0001-72.png,0003-00-0000-18.png
00000014,293,1,1446829622607,1446829623094,936,357,0,0,0,2,1,1,3,0003-00-0000-67.png,0005-00-0000-12.png
00000014,294,1,1446829624039,1446829624439,389,412,0,0,0,0,1,1,1,0001-00-0001-40.png,0005-00-0001-82.png
00000014,295,0,1446829625296,1446829625943,927,357,0,0,0,1,2,1,3,0005-00-0000-92.png,0003-00-0001-20.png
00000014,296,1,1446829629195,1446829629642,350,370,0,0,0,3,4,1,7,0002-00-0001-26.png,0004-00-0001-57.png
00000014,297,1,1446829630588,1446829631041,435,419,0,0,0,1,2,1,3,0005-00-0001-50.png,0003-00-0000-83.png
00000014,298,1,1446829632019,1446829632409,421,416,0,0,0,0,1,1,1,0001-00-0001-02.png,0005-00-0001-03.png
00000014,299,0,1446829633330,1446829633796,344,410,0,0,0,3,2,1,5,0002-00-0000-64.png,0003-00-0001-21.png
00000014,300,0,1446829636635,1446829637050,926,345,0,0,0,3,4,1,7,0002-00-0001-08.png,0004-00-0001-13.png
00000014,301,0,1446829642226,1446829642769,928,362,0,0,0,2,3,1,5,0003-00-0001-15.png,0002-00-0001-43.png
00000014,302,1,1446829648037,1446829648451,905,402,0,0,0,1,0,1,1,0005-00-0001-23.png,0001-00-0001-65.png
00000014,303,1,1446829649317,1446829649956,904,322,0,0,0,4,3,1,7,0004-00-0000-68.png,0002-00-0000-04.png
00000014,304,1,1446829650807,1446829651312,921,367,0,0,0,2,1,1,3,0003-00-0001-84.png,0005-00-0000-33.png
00000014,305,0,1446829652342,1446829652832,453,410,0,0,0,2,1,1,3,0003-00-0001-82.png,0005-00-0001-26.png
00000014,306,0,1446829656383,1446829656804,353,402,0,0,0,4,3,1,7,0004-00-0000-33.png,0002-00-0000-79.png
00000014,307,0,1446829659683,1446829660112,937,348,0,0,0,3,4,1,7,0002-00-0000-79.png,0004-00-0001-37.png
00000014,308,1,1446829663959,1446829664354,413,528,0,0,0,1,2,1,3,0005-00-0000-65.png,0003-00-0000-60.png
00000014,309,1,1446829665342,1446829665838,427,384,0,0,0,0,1,1,1,0001-00-0001-70.png,0005-00-0001-93.png
00000014,310,1,1446829667102,1446829667641,899,431,0,0,0,1,0,1,1,0005-00-0001-41.png,0001-00-0001-48.png
00000014,311,0,1446829668520,1446829669037,876,476,0,0,0,2,3,1,5,0003-00-0000-65.png,0002-00-0001-44.png
00000014,312,0,1446829672129,1446829672650,390,354,0,0,0,3,2,1,5,0002-00-0000-35.png,0003-00-0001-00.png
00000014,313,0,1446829676134,1446829676609,887,398,0,0,0,0,1,1,1,0001-00-0000-95.png,0005-00-0000-96.png
00000014,314,1,1446829679633,1446829680138,364,327,0,0,0,3,4,1,7,0002-00-0000-37.png,0004-00-0000-30.png
00000014,315,1,1446829681112,1446829681625,928,390,0,0,0,4,3,1,7,0004-00-0000-59.png,0002-00-0000-14.png
00000014,316,0,1446829682525,1446829683008,924,353,0,0,0,2,3,1,5,0003-00-0000-76.png,0002-00-0000-43.png
00000014,317,0,1446829686213,1446829686734,387,346,0,0,0,3,2,1,5,0002-00-0000-96.png,0003-00-0000-93.png
00000014,318,0,1446829689901,1446829690384,356,387,0,0,0,1,0,1,1,0005-00-0001-51.png,0001-00-0000-34.png
00000014,319,0,1446829693330,1446829693742,862,450,0,0,0,1,2,1,3,0005-00-0001-02.png,0003-00-0001-66.png
00000014,320,0,1446829696575,1446829697044,439,450,0,0,0,2,1,1,3,0003-00-0001-66.png,0005-00-0001-97.png
00000014,321,1,1446829700194,1446829700656,950,360,0,0,0,1,0,1,1,0005-00-0001-93.png,0001-00-0000-92.png
00000014,322,1,1446829701605,1446829702004,401,387,0,0,0,1,2,1,3,0005-00-0001-09.png,0003-00-0000-41.png
00000014,323,1,1446829702958,1446829703430,418,366,0,0,0,0,1,1,1,0001-00-0001-14.png,0005-00-0000-58.png
00000014,324,1,1446829704380,1446829704972,876,357,0,0,0,2,1,1,3,0003-00-0000-45.png,0005-00-0001-45.png
00000014,325,0,1446829705911,1446829706374,353,401,0,0,0,4,3,1,7,0004-00-0001-63.png,0002-00-0001-32.png
00000014,326,0,1446829709538,1446829709963,926,365,0,0,0,2,3,1,5,0003-00-0001-06.png,0002-00-0001-07.png
00000014,327,0,1446829712845,1446829713305,337,345,0,0,0,3,2,1,5,0002-00-0001-28.png,0003-00-0000-93.png
00000014,328,0,1446829716585,1446829717108,954,310,0,0,0,3,4,1,7,0002-00-0001-77.png,0004-00-0001-76.png
00000014,329,1,1446829720232,1446829720877,940,315,0,0,0,3,2,1,5,0002-00-0000-49.png,0003-00-0001-24.png
00000014,330,1,1446829721841,1446829722384,921,472,0,0,0,1,0,1,1,0005-00-0000-98.png,0001-00-0001-12.png
00000014,331,0,1446829723240,1446829724076,877,309,0,0,0,3,4,1,7,0002-00-0000-39.png,0004-00-0001-83.png
00000014,332,1,1446829727726,1446829728171,325,346,0,0,0,1,2,1,3,0005-00-0001-96.png,0003-00-0001-54.png
00000014,333,1,1446829729104,1446829729714,875,423,0,0,0,2,1,1,3,0003-00-0001-83.png,0005-00-0001-09.png
00000014,334,0,1446829730542,1446829731009,334,408,0,0,0,4,3,1,7,0004-00-0000-79.png,0002-00-0000-76.png
00000014,335,1,1446829734533,1446829734979,393,480,0,0,0,0,1,1,1,0001-00-0001-64.png,0005-00-0000-02.png
00000014,336,0,1446829735886,1446829736374,896,446,0,0,0,2,3,1,5,0003-00-0001-08.png,0002-00-0001-90.png
00000014,337,1,1446829739384,1446829739846,886,436,0,0,0,1,0,1,1,0005-00-0000-54.png,0001-00-0000-82.png
00000014,338,1,1446829740713,1446829741784,383,340,0,0,0,3,4,1,7,0002-00-0000-60.png,0004-00-0001-30.png
00000014,339,1,1446829742712,1446829743105,453,410,0,0,0,1,2,1,3,0005-00-0000-06.png,0003-00-0000-96.png
00000014,340,1,1446829744054,1446829744493,932,391,0,0,0,4,3,1,7,0004-00-0001-19.png,0002-00-0000-98.png
00000014,341,0,1446829745425,1446829745961,887,371,0,0,0,2,3,1,5,0003-00-0000-83.png,0002-00-0001-34.png
00000014,342,0,1446829749034,1446829749667,873,281,0,0,0,0,1,1,1,0001-00-0000-64.png,0005-00-0000-60.png
00000014,343,0,1446829754897,1446829755321,385,455,0,0,0,3,2,1,5,0002-00-0001-64.png,0003-00-0001-56.png
00000014,344,1,1446829759070,1446829759545,875,438,0,0,0,2,1,1,3,0003-00-0001-01.png,0005-00-0000-23.png
00000014,345,1,1446829760520,1446829760955,391,416,0,0,0,1,2,1,3,0005-00-0000-95.png,0003-00-0001-72.png
00000014,346,0,1446829761913,1446829762471,893,333,0,0,0,3,4,1,7,0002-00-0000-59.png,0004-00-0000-94.png
00000014,347,0,1446829765498,1446829765953,426,400,0,0,0,3,2,1,5,0002-00-0001-63.png,0003-00-0001-75.png
00000014,348,1,1446829768850,1446829769372,929,314,0,0,0,2,1,1,3,0003-00-0001-17.png,0005-00-0000-42.png
00000014,349,1,1446829770260,1446829770702,349,401,0,0,0,0,1,1,1,0001-00-0001-21.png,0005-00-0000-14.png
00000014,350,0,1446829771571,1446829772036,376,384,0,0,0,1,0,1,1,0005-00-0001-07.png,0001-00-0000-82.png
00000014,351,0,1446829775140,1446829775569,248,448,0,0,0,4,3,1,7,0004-00-0001-07.png,0002-00-0000-15.png
00000014,352,0,1446829778508,1446829779100,918,296,0,0,0,2,3,1,5,0003-00-0000-14.png,0002-00-0000-41.png
00000014,353,0,1446829782074,1446829782560,909,389,0,0,0,2,3,1,5,0003-00-0000-50.png,0002-00-0000-56.png
00000014,354,1,1446829785396,1446829785944,335,382,0,0,0,0,1,1,1,0001-00-0000-65.png,0005-00-0001-50.png
00000014,355,1,1446829786803,1446829787315,414,475,0,0,0,1,2,1,3,0005-00-0001-36.png,0003-00-0001-76.png
00000014,356,0,1446829788248,1446829788703,364,437,0,0,0,2,1,1,3,0003-00-0001-61.png,0005-00-0000-47.png
00000014,357,1,1446829791665,1446829792264,912,320,0,0,0,3,2,1,5,0002-00-0000-50.png,0003-00-0001-38.png
00000014,358,1,1446829793278,1446829793702,339,417,0,0,0,3,4,1,7,0002-00-0001-50.png,0004-00-0000-65.png
00000014,359,0,1446829794659,1446829795247,355,400,0,0,0,4,3,1,7,0004-00-0000-95.png,0002-00-0001-25.png
00000014,360,1,1446829798763,1446829799222,877,415,0,0,0,1,0,1,1,0005-00-0001-95.png,0001-00-0000-48.png
00000014,361,1,1446829800166,1446829800621,359,409,0,0,0,0,1,1,1,0001-00-0001-76.png,0005-00-0000-47.png
00000014,362,1,1446829801536,1446829802056,903,391,0,0,0,1,0,1,1,0005-00-0001-94.png,0001-00-0000-65.png
00000014,363,0,1446829802915,1446829803424,900,384,0,0,0,2,3,1,5,0003-00-0001-71.png,0002-00-0000-96.png
00000014,364,1,1446829806338,1446829806741,359,384,0,0,0,3,4,1,7,0002-00-0001-26.png,0004-00-0001-05.png
00000014,365,0,1446829807629,1446829808034,427,437,0,0,0,3,2,1,5,0002-00-0000-45.png,0003-00-0000-51.png
00000014,366,1,1446829811534,1446829811964,931,350,0,0,0,2,1,1,3,0003-00-0001-80.png,0005-00-0000-10.png
00000014,367,1,1446829812886,1446829813506,925,370,0,0,0,4,3,1,7,0004-00-0000-90.png,0002-00-0001-95.png
00000014,368,0,1446829814376,1446829815018,907,368,0,0,0,1,2,1,3,0005-00-0001-25.png,0003-00-0000-99.png
00000014,369,0,1446829817941,1446829818384,901,437,0,0,0,3,4,1,7,0002-00-0000-60.png,0004-00-0000-24.png
00000014,370,1,1446829821611,1446829821999,385,483,0,0,0,1,2,1,3,0005-00-0001-86.png,0003-00-0000-32.png
00000014,371,0,1446829822943,1446829823375,440,436,0,0,0,3,2,1,5,0002-00-0000-69.png,0003-00-0001-34.png
00000014,372,0,1446829826414,1446829827006,427,358,0,0,0,2,1,1,3,0003-00-0000-76.png,0005-00-0000-48.png
00000014,373,1,1446829829854,1446829830319,444,441,0,0,0,0,1,1,1,0001-00-0000-00.png,0005-00-0000-40.png
00000014,374,1,1446829831223,1446829832434,877,345,0,0,0,1,0,1,1,0005-00-0001-83.png,0001-00-0000-30.png
00000014,375,0,1446829833312,1446829833698,427,425,0,0,0,4,3,1,7,0004-00-0001-60.png,0002-00-0001-34.png
00000014,376,0,1446829836768,1446829837187,929,338,0,0,0,2,3,1,5,0003-00-0000-67.png,0002-00-0001-24.png
00000014,377,1,1446829840206,1446829840732,900,409,0,0,0,4,3,1,7,0004-00-0001-24.png,0002-00-0001-91.png
00000014,378,0,1446829841779,1446829842296,918,390,0,0,0,2,3,1,5,0003-00-0000-27.png,0002-00-0001-57.png
00000014,379,1,1446829845546,1446829846152,919,400,0,0,0,1,0,1,1,0005-00-0001-50.png,0001-00-0000-36.png
00000014,380,0,1446829847087,1446829847652,895,368,0,0,0,3,4,1,7,0002-00-0000-68.png,0004-00-0000-02.png
00000014,381,1,1446829850532,1446829850966,932,314,0,0,0,2,1,1,3,0003-00-0000-77.png,0005-00-0000-54.png
00000014,382,0,1446829851916,1446829852597,881,348,0,0,0,1,2,1,3,0005-00-0000-48.png,0003-00-0001-89.png
00000014,383,0,1446829855499,1446829855949,877,413,0,0,0,0,1,1,1,0001-00-0000-43.png,0005-00-0000-83.png
00000014,384,0,1446829859711,1446829860219,347,412,0,0,0,3,2,1,5,0002-00-0000-89.png,0003-00-0001-10.png
00000014,385,1,1446829863394,1446829863942,900,359,0,0,0,4,3,1,7,0004-00-0000-82.png,0002-00-0000-78.png
00000014,386,0,1446829864861,1446829865639,876,416,0,0,0,0,1,1,1,0001-00-0000-88.png,0005-00-0000-16.png
00000014,387,0,1446829875682,1446829876058,979,345,0,0,0,2,3,1,5,0003-00-0000-45.png,0002-00-0000-46.png
00000014,388,1,1446829879024,1446829879448,331,358,0,0,0,1,2,1,3,0005-00-0001-62.png,0003-00-0000-03.png
00000014,389,1,1446829880343,1446829880855,899,475,0,0,0,1,0,1,1,0005-00-0000-55.png,0001-00-0001-17.png
00000014,390,1,1446829881736,1446829882386,859,430,0,0,0,2,1,1,3,0003-00-0001-34.png,0005-00-0000-04.png
00000014,391,1,1446829883417,1446829883820,421,463,0,0,0,3,4,1,7,0002-00-0000-48.png,0004-00-0000-26.png
00000014,392,0,1446829884847,1446829885278,363,423,0,0,0,3,2,1,5,0002-00-0000-95.png,0003-00-0001-22.png
00000014,393,1,1446829888497,1446829888930,926,383,0,0,0,1,0,1,1,0005-00-0000-61.png,0001-00-0000-20.png
00000014,394,1,1446829889967,1446829890711,903,335,0,0,0,3,2,1,5,0002-00-0000-48.png,0003-00-0001-94.png
00000014,395,0,1446829891726,1446829892385,906,367,0,0,0,3,4,1,7,0002-00-0001-40.png,0004-00-0001-89.png
00000014,396,1,1446829900452,1446829900848,924,429,0,0,0,2,1,1,3,0003-00-0001-47.png,0005-00-0001-08.png
00000014,397,0,1446829901834,1446829902296,427,412,0,0,0,4,3,1,7,0004-00-0001-03.png,0002-00-0000-37.png
00000014,398,0,1446829905393,1446829905925,900,449,0,0,0,2,3,1,5,0003-00-0000-68.png,0002-00-0000-30.png
00000014,399,1,1446829908830,1446829909464,341,363,0,0,0,1,2,1,3,0005-00-0001-82.png,0003-00-0000-73.png
00000014,400,1,1446829910500,1446829910916,401,384,0,0,0,0,1,1,1,0001-00-0001-70.png,0005-00-0000-03.png
00000014,401,0,1446829911767,1446829912375,870,441,0,0,0,3,4,1,7,0002-00-0001-60.png,0004-00-0001-21.png
00000014,402,0,1446829915298,1446829915687,926,331,0,0,0,1,2,1,3,0005-00-0001-94.png,0003-00-0001-57.png
00000014,403,0,1446829919075,1446829919649,917,393,0,0,0,2,3,1,5,0003-00-0000-05.png,0002-00-0001-06.png
00000014,404,0,1446829922700,1446829923140,903,364,0,0,0,0,1,1,1,0001-00-0000-88.png,0005-00-0000-69.png
00000014,405,1,1446829926028,1446829926601,920,407,0,0,0,4,3,1,7,0004-00-0001-91.png,0002-00-0000-66.png
00000014,406,0,1446829927463,1446829927875,361,434,0,0,0,3,2,1,5,0002-00-0000-13.png,0003-00-0001-15.png
00000014,407,1,1446829931014,1446829931554,900,253,0,0,0,1,0,1,1,0005-00-0000-53.png,0001-00-0000-33.png
00000014,408,1,1446829932680,1446829933252,877,467,0,0,0,2,1,1,3,0003-00-0000-80.png,0005-00-0001-65.png
00000014,409,1,1446829934203,1446829934734,898,490,0,0,0,2,1,1,3,0003-00-0000-26.png,0005-00-0001-27.png
00000014,410,1,1446829935704,1446829936213,899,385,0,0,0,3,2,1,5,0002-00-0001-32.png,0003-00-0000-27.png
00000014,411,1,1446829937113,1446829938276,326,350,0,0,0,1,2,1,3,0005-00-0001-69.png,0003-00-0000-17.png
00000014,412,1,1446829939301,1446829939825,873,464,0,0,0,1,0,1,1,0005-00-0000-01.png,0001-00-0001-05.png
00000014,413,0,1446829940772,1446829941214,367,401,0,0,0,4,3,1,7,0004-00-0000-00.png,0002-00-0001-68.png
00000014,414,1,1446829944220,1446829944843,350,398,0,0,0,3,4,1,7,0002-00-0000-86.png,0004-00-0000-35.png
00000014,415,0,1446829945762,1446829946246,882,475,0,0,0,2,3,1,5,0003-00-0000-66.png,0002-00-0000-98.png
00000014,416,1,1446829949152,1446829949587,360,366,0,0,0,0,1,1,1,0001-00-0000-81.png,0005-00-0000-16.png
00000014,417,0,1446829950445,1446829950925,390,442,0,0,0,2,1,1,3,0003-00-0001-90.png,0005-00-0000-07.png
00000014,418,0,1446829955019,1446829955509,873,333,0,0,0,3,4,1,7,0002-00-0001-46.png,0004-00-0001-80.png
00000014,419,1,1446829958669,1446829959255,895,420,0,0,0,1,0,1,1,0005-00-0000-72.png,0001-00-0001-08.png
00000014,420,0,1446829960202,1446829960638,438,431,0,0,0,3,2,1,5,0002-00-0000-94.png,0003-00-0000-01.png
00000014,421,1,1446829963528,1446829963998,373,365,0,0,0,0,1,1,1,0001-00-0000-11.png,0005-00-0001-46.png
00000014,422,1,1446829964940,1446829965548,894,377,0,0,0,4,3,1,7,0004-00-0000-81.png,0002-00-0000-31.png
00000014,423,1,1446829966397,1446829967310,401,332,0,0,0,2,3,1,5,0003-00-0000-21.png,0002-00-0001-96.png
00000014,424,1,1446829968200,1446829968697,453,422,0,0,0,1,2,1,3,0005-00-0001-82.png,0003-00-0000-39.png
00000014,425,1,1446829969656,1446829970051,337,413,0,0,0,0,1,1,1,0001-00-0001-52.png,0005-00-0000-53.png
00000014,426,0,1446829971104,1446829971551,921,394,0,0,0,2,3,1,5,0003-00-0000-26.png,0002-00-0000-56.png
00000014,427,0,1446829974635,1446829975139,874,410,0,0,0,1,2,1,3,0005-00-0000-20.png,0003-00-0000-85.png
00000014,428,0,1446829978874,1446829979287,355,337,0,0,0,3,2,1,5,0002-00-0000-01.png,0003-00-0000-45.png
00000014,429,0,1446829982404,1446829982971,354,375,0,0,0,1,0,1,1,0005-00-0001-09.png,0001-00-0000-53.png
00000014,430,0,1446829985935,1446829986517,914,407,0,0,0,3,4,1,7,0002-00-0000-17.png,0004-00-0001-86.png
00000014,431,1,1446829989451,1446829989968,889,440,0,0,0,4,3,1,7,0004-00-0001-96.png,0002-00-0000-72.png
00000014,432,1,1446829990921,1446829991392,925,361,0,0,0,2,1,1,3,0003-00-0001-04.png,0005-00-0001-11.png
00000014,433,0,1446829992308,1446829992849,906,391,0,0,0,3,4,1,7,0002-00-0001-55.png,0004-00-0000-91.png
00000014,434,1,1446829995920,1446829996418,927,332,0,0,0,2,1,1,3,0003-00-0000-93.png,0005-00-0001-91.png
00000014,435,0,1446829997305,1446829997831,888,501,0,0,0,0,1,1,1,0001-00-0000-36.png,0005-00-0001-98.png
00000014,436,1,1446830000781,1446830001239,875,305,0,0,0,4,3,1,7,0004-00-0000-89.png,0002-00-0000-99.png
00000014,437,0,1446830002098,1446830002615,918,391,0,0,0,2,3,1,5,0003-00-0000-33.png,0002-00-0000-50.png
00000014,438,1,1446830005497,1446830006070,914,397,0,0,0,1,0,1,1,0005-00-0001-07.png,0001-00-0001-28.png
00000014,439,1,1446830007034,1446830007453,315,415,0,0,0,1,2,1,3,0005-00-0001-55.png,0003-00-0001-27.png
00000014,440,0,1446830008334,1446830008768,361,412,0,0,0,3,2,1,5,0002-00-0000-57.png,0003-00-0001-70.png
00000014,441,1,1446830011686,1446830012261,926,344,0,0,0,3,2,1,5,0002-00-0001-42.png,0003-00-0000-85.png
00000014,442,0,1446830013134,1446830013636,918,387,0,0,0,2,3,1,5,0003-00-0000-78.png,0002-00-0001-77.png
00000014,443,0,1446830016966,1446830017554,913,423,0,0,0,3,4,1,7,0002-00-0000-02.png,0004-00-0001-35.png
00000014,444,1,1446830021166,1446830021736,865,389,0,0,0,4,3,1,7,0004-00-0001-97.png,0002-00-0001-06.png
00000014,445,1,1446830022716,1446830023252,875,476,0,0,0,1,0,1,1,0005-00-0000-86.png,0001-00-0001-32.png
00000014,446,1,1446830024149,1446830024606,919,390,0,0,0,2,1,1,3,0003-00-0000-82.png,0005-00-0001-13.png
00000014,447,1,1446830025519,1446830025972,341,414,0,0,0,1,2,1,3,0005-00-0000-44.png,0003-00-0000-86.png
00000014,448,0,1446830026949,1446830027443,863,345,0,0,0,0,1,1,1,0001-00-0001-15.png,0005-00-0000-11.png
00000014,449,1,1446830030305,1446830030756,376,384,0,0,0,0,1,1,1,0001-00-0001-90.png,0005-00-0000-08.png
00000014,450,1,1446830031656,1446830032166,880,375,0,0,0,4,3,1,7,0004-00-0001-79.png,0002-00-0001-19.png
00000014,451,1,1446830033240,1446830033718,350,434,0,0,0,1,2,1,3,0005-00-0001-88.png,0003-00-0001-03.png
00000014,452,1,1446830034619,1446830035146,878,362,0,0,0,1,0,1,1,0005-00-0000-46.png,0001-00-0001-31.png
00000014,453,0,1446830036163,1446830036699,880,348,0,0,0,2,3,1,5,0003-00-0001-68.png,0002-00-0000-02.png
00000014,454,0,1446830039561,1446830040074,901,345,0,0,0,3,4,1,7,0002-00-0000-75.png,0004-00-0001-52.png
00000014,455,0,1446830044203,1446830044637,354,409,0,0,0,3,2,1,5,0002-00-0001-44.png,0003-00-0001-93.png
00000014,456,0,1446830047641,1446830048198,324,353,0,0,0,2,1,1,3,0003-00-0000-59.png,0005-00-0000-73.png
00000014,457,1,1446830051210,1446830051226,523,374,0,0,0,2,3,1,5,0003-00-0000-97.png,0002-00-0001-06.png
00000014,458,1,1446830052174,1446830052679,898,457,0,0,0,4,3,1,7,0004-00-0001-69.png,0002-00-0001-76.png
00000014,459,1,1446830053615,1446830054038,385,431,0,0,0,1,2,1,3,0005-00-0000-50.png,0003-00-0001-37.png
00000014,460,1,1446830054967,1446830055424,359,429,0,0,0,3,4,1,7,0002-00-0000-08.png,0004-00-0001-72.png
00000014,461,1,1446830056427,1446830056920,896,368,0,0,0,2,1,1,3,0003-00-0001-45.png,0005-00-0001-34.png
00000014,462,0,1446830057795,1446830058311,367,419,0,0,0,3,2,1,5,0002-00-0000-70.png,0003-00-0000-98.png
00000014,463,0,1446830061257,1446830061724,949,377,0,0,0,0,1,1,1,0001-00-0001-10.png,0005-00-0001-87.png
00000014,464,1,1446830064573,1446830064986,861,301,0,0,0,1,0,1,1,0005-00-0001-79.png,0001-00-0001-40.png
00000014,465,1,1446830065860,1446830066279,401,397,0,0,0,0,1,1,1,0001-00-0001-27.png,0005-00-0001-21.png
00000014,466,0,1446830067295,1446830067825,899,404,0,0,0,3,4,1,7,0002-00-0001-43.png,0004-00-0001-59.png
00000014,467,1,1446830070846,1446830071272,924,335,0,0,0,1,0,1,1,0005-00-0001-65.png,0001-00-0001-28.png
00000014,468,0,1446830072209,1446830072682,360,431,0,0,0,3,2,1,5,0002-00-0001-88.png,0003-00-0001-71.png
00000014,469,0,1446830075707,1446830076144,915,337,0,0,0,2,3,1,5,0003-00-0000-16.png,0002-00-0001-28.png
00000014,470,1,1446830079061,1446830079560,950,360,0,0,0,2,1,1,3,0003-00-0001-91.png,0005-00-0001-61.png
00000014,471,1,1446830080476,1446830080990,862,367,0,0,0,4,3,1,7,0004-00-0001-72.png,0002-00-0000-27.png
00000014,472,1,1446830081821,1446830082252,316,401,0,0,0,1,2,1,3,0005-00-0001-68.png,0003-00-0001-64.png
00000014,473,1,1446830083227,1446830083670,900,384,0,0,0,1,0,1,1,0005-00-0000-38.png,0001-00-0000-24.png
00000014,474,1,1446830084617,1446830085117,873,485,0,0,0,4,3,1,7,0004-00-0000-99.png,0002-00-0000-97.png
00000014,475,0,1446830086012,1446830086662,900,325,0,0,0,3,4,1,7,0002-00-0000-59.png,0004-00-0001-27.png
00000014,476,0,1446830089749,1446830090152,874,449,0,0,0,2,3,1,5,0003-00-0000-53.png,0002-00-0000-12.png
00000014,477,0,1446830093009,1446830093601,358,348,0,0,0,3,2,1,5,0002-00-0001-97.png,0003-00-0000-88.png
00000014,478,1,1446830096496,1446830096567,519,456,0,0,0,0,1,1,1,0001-00-0001-58.png,0005-00-0001-17.png
00000014,479,1,1446830097539,1446830098050,922,391,0,0,0,2,1,1,3,0003-00-0001-19.png,0005-00-0001-88.png
00000014,480,1,1446830098959,1446830099405,445,479,0,0,0,1,2,1,3,0005-00-0000-70.png,0003-00-0000-87.png
00000014,481,1,1446830100413,1446830101341,439,449,0,0,0,1,2,1,3,0005-00-0000-11.png,0003-00-0001-61.png
00000014,482,1,1446830102241,1446830102651,363,423,0,0,0,2,3,1,5,0003-00-0000-58.png,0002-00-0000-87.png
00000014,483,1,1446830103902,1446830104367,891,368,0,0,0,2,1,1,3,0003-00-0000-17.png,0005-00-0000-46.png
00000014,484,1,1446830105292,1446830105747,906,402,0,0,0,3,2,1,5,0002-00-0001-04.png,0003-00-0000-37.png
00000014,485,0,1446830106771,1446830107413,875,477,0,0,0,0,1,1,1,0001-00-0001-24.png,0005-00-0001-87.png
00000014,486,0,1446830110341,1446830110805,356,390,0,0,0,4,3,1,7,0004-00-0000-67.png,0002-00-0001-14.png
00000014,487,1,1446830114013,1446830114510,857,378,0,0,0,1,0,1,1,0005-00-0001-10.png,0001-00-0001-37.png
00000014,488,0,1446830115490,1446830116018,900,476,0,0,0,3,4,1,7,0002-00-0001-09.png,0004-00-0000-93.png
00000014,489,0,1446830119097,1446830119621,327,365,0,0,0,3,2,1,5,0002-00-0001-60.png,0003-00-0000-90.png
00000014,490,1,1446830122878,1446830123368,874,423,0,0,0,4,3,1,7,0004-00-0000-15.png,0002-00-0000-33.png
00000014,491,1,1446830124335,1446830124848,345,404,0,0,0,3,4,1,7,0002-00-0001-67.png,0004-00-0001-86.png
00000014,492,1,1446830125838,1446830126392,902,388,0,0,0,1,0,1,1,0005-00-0001-49.png,0001-00-0000-23.png
00000014,493,1,1446830127295,1446830127688,414,398,0,0,0,0,1,1,1,0001-00-0000-70.png,0005-00-0001-67.png
00000014,494,1,1446830128687,1446830129184,875,384,0,0,0,2,1,1,3,0003-00-0001-37.png,0005-00-0000-04.png
00000014,495,1,1446830130101,1446830130524,365,429,0,0,0,1,2,1,3,0005-00-0001-55.png,0003-00-0000-00.png
00000014,496,0,1446830131523,1446830131989,906,392,0,0,0,2,3,1,5,0003-00-0000-78.png,0002-00-0001-94.png
00000014,497,1,1446830135019,1446830135622,932,431,0,0,0,2,1,1,3,0003-00-0000-48.png,0005-00-0001-48.png
00000014,498,1,1446830136610,1446830137213,392,520,0,0,0,2,3,1,5,0003-00-0000-79.png,0002-00-0001-36.png
00000014,499,0,1446830138088,1446830138648,879,480,0,0,0,3,4,1,7,0002-00-0000-12.png,0004-00-0001-63.png
00000014,500,0,1446830141608,1446830142063,401,410,0,0,0,3,2,1,5,0002-00-0000-18.png,0003-00-0001-63.png
00000014,501,1,1446830145157,1446830145609,934,374,0,0,0,1,0,1,1,0005-00-0001-10.png,0001-00-0001-82.png
00000014,502,1,1446830146557,1446830147069,879,454,0,0,0,4,3,1,7,0004-00-0000-87.png,0002-00-0000-12.png
00000014,503,0,1446830147961,1446830148534,882,373,0,0,0,1,2,1,3,0005-00-0000-62.png,0003-00-0000-88.png
00000014,504,1,1446830151568,1446830152022,376,399,0,0,0,0,1,1,1,0001-00-0001-27.png,0005-00-0000-89.png
00000014,505,0,1446830152925,1446830153359,407,436,0,0,0,3,2,1,5,0002-00-0001-51.png,0003-00-0000-54.png
00000014,506,0,1446830156216,1446830156954,887,403,0,0,0,3,4,1,7,0002-00-0001-82.png,0004-00-0001-30.png
00000014,507,0,1446830159904,1446830160398,885,393,0,0,0,2,3,1,5,0003-00-0000-23.png,0002-00-0001-49.png
00000014,508,0,1446830163374,1446830163866,902,358,0,0,0,1,2,1,3,0005-00-0000-72.png,0003-00-0001-13.png
00000014,509,1,1446830166881,1446830167447,918,339,0,0,0,2,1,1,3,0003-00-0001-26.png,0005-00-0000-74.png
00000014,510,1,1446830168502,1446830168950,356,467,0,0,0,0,1,1,1,0001-00-0001-32.png,0005-00-0001-19.png
00000014,511,1,1446830169833,1446830170340,872,484,0,0,0,1,0,1,1,0005-00-0001-46.png,0001-00-0001-37.png
00000014,512,1,1446830171275,1446830171777,880,376,0,0,0,4,3,1,7,0004-00-0000-91.png,0002-00-0001-31.png
00000014,513,1,1446830172662,1446830173148,903,390,0,0,0,4,3,1,7,0004-00-0001-65.png,0002-00-0000-34.png
00000014,514,0,1446830174148,1446830174619,375,432,0,0,0,3,2,1,5,0002-00-0000-36.png,0003-00-0001-40.png
00000014,515,0,1446830178351,1446830178817,895,472,0,0,0,3,4,1,7,0002-00-0000-65.png,0004-00-0001-17.png
00000014,516,1,1446830181936,1446830182586,391,286,0,0,0,1,2,1,3,0005-00-0001-45.png,0003-00-0001-40.png
00000014,517,1,1446830183579,1446830183990,342,429,0,0,0,0,1,1,1,0001-00-0001-65.png,0005-00-0001-53.png
00000014,518,1,1446830184898,1446830185580,878,363,0,0,0,2,1,1,3,0003-00-0001-68.png,0005-00-0001-85.png
00000014,519,0,1446830186532,1446830187026,926,371,0,0,0,2,3,1,5,0003-00-0000-05.png,0002-00-0001-38.png
00000014,520,1,1446830191885,1446830192323,898,457,0,0,0,1,0,1,1,0005-00-0000-09.png,0001-00-0001-26.png
00000014,521,1,1446830193247,1446830193860,901,412,0,0,0,1,0,1,1,0005-00-0000-28.png,0001-00-0000-18.png
00000014,522,0,1446830194728,1446830195227,424,444,0,0,0,3,2,1,5,0002-00-0000-69.png,0003-00-0001-14.png
00000014,523,1,1446830198202,1446830198746,872,432,0,0,0,4,3,1,7,0004-00-0000-62.png,0002-00-0001-22.png
00000014,524,0,1446830199719,1446830200230,902,390,0,0,0,1,2,1,3,0005-00-0001-58.png,0003-00-0001-12.png
00000014,525,1,1446830203266,1446830203829,386,404,0,0,0,3,4,1,7,0002-00-0001-21.png,0004-00-0000-15.png
00000014,526,0,1446830204774,1446830205262,886,502,0,0,0,2,3,1,5,0003-00-0001-48.png,0002-00-0000-76.png
00000014,527,1,1446830208153,1446830208658,900,398,0,0,0,2,1,1,3,0003-00-0001-98.png,0005-00-0000-22.png
00000014,528,1,1446830209565,1446830210009,449,443,0,0,0,0,1,1,1,0001-00-0000-17.png,0005-00-0001-48.png
00000014,529,1,1446830210929,1446830211423,356,438,0,0,0,0,1,1,1,0001-00-0001-54.png,0005-00-0001-23.png
00000014,530,1,1446830212330,1446830212907,908,393,0,0,0,4,3,1,7,0004-00-0001-13.png,0002-00-0000-67.png
00000014,531,1,1446830213790,1446830214184,419,427,0,0,0,1,2,1,3,0005-00-0000-58.png,0003-00-0000-10.png
00000014,532,0,1446830215132,1446830215897,888,371,0,0,0,3,4,1,7,0002-00-0000-14.png,0004-00-0000-57.png
00000014,533,1,1446830218819,1446830219267,918,360,0,0,0,1,0,1,1,0005-00-0000-26.png,0001-00-0001-70.png
00000014,534,0,1446830220251,1446830220710,381,460,0,0,0,3,2,1,5,0002-00-0001-13.png,0003-00-0001-17.png
00000014,535,0,1446830223830,1446830224315,882,441,0,0,0,2,3,1,5,0003-00-0000-65.png,0002-00-0000-77.png
00000014,536,1,1446830227379,1446830227930,899,301,0,0,0,2,1,1,3,0003-00-0001-07.png,0005-00-0001-35.png
00000014,537,1,1446830228918,1446830229421,885,394,0,0,0,2,1,1,3,0003-00-0000-96.png,0005-00-0000-08.png
00000014,538,1,1446830230315,1446830230735,314,410,0,0,0,0,1,1,1,0001-00-0000-49.png,0005-00-0001-41.png
00000014,539,0,1446830231681,1446830232321,888,344,0,0,0,1,2,1,3,0005-00-0000-97.png,0003-00-0000-60.png
00000014,540,1,1446830235306,1446830236037,883,341,0,0,0,4,3,1,7,0004-00-0000-57.png,0002-00-0001-04.png
00000014,541,0,1446830237017,1446830237633,876,356,0,0,0,2,3,1,5,0003-00-0000-38.png,0002-00-0001-60.png
00000014,542,1,1446830240462,1446830241019,886,424,0,0,0,1,0,1,1,0005-00-0001-10.png,0001-00-0001-38.png
00000014,543,1,1446830241938,1446830242334,401,423,0,0,0,3,4,1,7,0002-00-0000-16.png,0004-00-0001-00.png
00000014,544,0,1446830243319,1446830243843,337,448,0,0,0,3,2,1,5,0002-00-0001-37.png,0003-00-0001-52.png
00000014,545,1,1446830246794,1446830247302,939,371,0,0,0,2,1,1,3,0003-00-0001-95.png,0005-00-0000-26.png
00000014,546,1,1446830248310,1446830248760,427,462,0,0,0,1,2,1,3,0005-00-0000-29.png,0003-00-0001-49.png
00000014,547,0,1446830249780,1446830250266,392,441,0,0,0,3,2,1,5,0002-00-0000-22.png,0003-00-0001-29.png
00000014,548,1,1446830253744,1446830254249,376,410,0,0,0,3,4,1,7,0002-00-0001-50.png,0004-00-0001-59.png
00000014,549,1,1446830255247,1446830255656,372,518,0,0,0,0,1,1,1,0001-00-0001-70.png,0005-00-0001-49.png
00000014,550,1,1446830256687,1446830257251,887,398,0,0,0,4,3,1,7,0004-00-0001-08.png,0002-00-0001-64.png
00000014,551,0,1446830258158,1446830258687,876,409,0,0,0,2,3,1,5,0003-00-0000-66.png,0002-00-0000-91.png
00000014,552,1,1446830261545,1446830261983,905,349,0,0,0,1,0,1,1,0005-00-0001-38.png,0001-00-0001-93.png
00000014,553,1,1446830262909,1446830263363,901,409,0,0,0,2,1,1,3,0003-00-0001-27.png,0005-00-0000-84.png
00000014,554,1,1446830264290,1446830264764,368,453,0,0,0,3,4,1,7,0002-00-0001-70.png,0004-00-0000-95.png
00000014,555,0,1446830265732,1446830266218,903,417,0,0,0,2,3,1,5,0003-00-0001-92.png,0002-00-0000-88.png
00000014,556,0,1446830269288,1446830269973,417,496,0,0,0,4,3,1,7,0004-00-0001-71.png,0002-00-0000-53.png
00000014,557,0,1446830272905,1446830273403,928,364,0,0,0,0,1,1,1,0001-00-0000-52.png,0005-00-0001-38.png
00000014,558,1,1446830276750,1446830277203,922,339,0,0,0,1,0,1,1,0005-00-0000-76.png,0001-00-0000-12.png
00000014,559,1,1446830278202,1446830278684,393,522,0,0,0,1,2,1,3,0005-00-0000-03.png,0003-00-0000-69.png
00000014,560,1,1446830279571,1446830280273,892,339,0,0,0,3,2,1,5,0002-00-0001-01.png,0003-00-0000-85.png
00000014,561,1,1446830281122,1446830282194,370,348,0,0,0,1,2,1,3,0005-00-0001-01.png,0003-00-0000-84.png
00000014,562,1,1446830283131,1446830283774,872,329,0,0,0,1,0,1,1,0005-00-0001-69.png,0001-00-0000-37.png
00000014,563,0,1446830284691,1446830285218,889,397,0,0,0,2,3,1,5,0003-00-0001-24.png,0002-00-0001-66.png
00000014,564,0,1446830288065,1446830288749,318,369,0,0,0,3,2,1,5,0002-00-0000-42.png,0003-00-0001-61.png
00000014,565,1,1446830291754,1446830292223,373,391,0,0,0,0,1,1,1,0001-00-0001-08.png,0005-00-0001-10.png
00000014,566,1,1446830293228,1446830293810,903,362,0,0,0,4,3,1,7,0004-00-0000-42.png,0002-00-0000-79.png
00000014,567,1,1446830294747,1446830295311,888,395,0,0,0,2,1,1,3,0003-00-0001-53.png,0005-00-0000-18.png
00000014,568,1,1446830296230,1446830296711,366,441,0,0,0,3,4,1,7,0002-00-0000-98.png,0004-00-0000-65.png
00000014,569,0,1446830297677,1446830298101,414,424,0,0,0,3,2,1,5,0002-00-0000-95.png,0003-00-0000-90.png
00000014,570,1,1446830301296,1446830301720,413,358,0,0,0,0,1,1,1,0001-00-0001-55.png,0005-00-0000-35.png
00000014,571,0,1446830302608,1446830303071,877,521,0,0,0,2,3,1,5,0003-00-0001-23.png,0002-00-0000-98.png
00000014,572,1,1446830305937,1446830306543,329,364,0,0,0,3,4,1,7,0002-00-0000-94.png,0004-00-0000-81.png
00000014,573,1,1446830307470,1446830308086,888,383,0,0,0,2,1,1,3,0003-00-0000-12.png,0005-00-0000-87.png
00000014,574,0,1446830309021,1446830309470,411,439,0,0,0,4,3,1,7,0004-00-0001-67.png,0002-00-0001-10.png
00000014,575,1,1446830313173,1446830313602,363,405,0,0,0,1,2,1,3,0005-00-0000-64.png,0003-00-0000-63.png
00000014,576,1,1446830314566,1446830315057,877,469,0,0,0,1,0,1,1,0005-00-0001-31.png,0001-00-0001-35.png
00000014,577,1,1446830315938,1446830316379,464,438,0,0,0,1,2,1,3,0005-00-0000-10.png,0003-00-0000-38.png
00000014,578,0,1446830317349,1446830317861,900,391,0,0,0,2,3,1,5,0003-00-0000-17.png,0002-00-0000-10.png
00000014,579,1,1446830321116,1446830321746,437,481,0,0,0,3,4,1,7,0002-00-0001-71.png,0004-00-0000-80.png
00000014,580,0,1446830322755,1446830323575,401,384,0,0,0,3,2,1,5,0002-00-0000-51.png,0003-00-0000-77.png
00000014,581,1,1446830326609,1446830327102,401,386,0,0,0,0,1,1,1,0001-00-0000-39.png,0005-00-0001-92.png
00000014,582,1,1446830328099,1446830328581,901,410,0,0,0,2,1,1,3,0003-00-0001-69.png,0005-00-0000-29.png
00000014,583,1,1446830329451,1446830330161,901,371,0,0,0,4,3,1,7,0004-00-0000-12.png,0002-00-0001-44.png
00000014,584,1,1446830331080,1446830331651,903,389,0,0,0,1,0,1,1,0005-00-0001-97.png,0001-00-0001-68.png
00000014,585,0,1446830332613,1446830333599,360,378,0,0,0,2,1,1,3,0003-00-0001-62.png,0005-00-0000-59.png
00000014,586,1,1446830336527,1446830336941,343,374,0,0,0,0,1,1,1,0001-00-0001-52.png,0005-00-0001-64.png
00000014,587,1,1446830337800,1446830338292,350,423,0,0,0,1,2,1,3,0005-00-0000-43.png,0003-00-0001-18.png
00000014,588,1,1446830339284,1446830339827,903,417,0,0,0,1,0,1,1,0005-00-0001-04.png,0001-00-0000-62.png
00000014,589,1,1446830340733,1446830341291,890,387,0,0,0,3,2,1,5,0002-00-0000-31.png,0003-00-0000-27.png
00000014,590,0,1446830342285,1446830342776,888,398,0,0,0,3,4,1,7,0002-00-0001-15.png,0004-00-0001-70.png
00000014,591,1,1446830345729,1446830346267,927,362,0,0,0,4,3,1,7,0004-00-0001-58.png,0002-00-0001-41.png
00000014,592,0,1446830347244,1446830347745,899,381,0,0,0,2,3,1,5,0003-00-0000-08.png,0002-00-0001-53.png
00000014,593,0,1446830351311,1446830351771,913,371,0,0,0,3,4,1,7,0002-00-0000-08.png,0004-00-0001-30.png
00000014,594,0,1446830354747,1446830355177,913,345,0,0,0,2,3,1,5,0003-00-0001-17.png,0002-00-0000-50.png
00000014,595,1,1446830358224,1446830358747,920,325,0,0,0,2,1,1,3,0003-00-0001-50.png,0005-00-0001-31.png
00000014,596,1,1446830359624,1446830360142,905,376,0,0,0,4,3,1,7,0004-00-0001-11.png,0002-00-0001-88.png
00000014,597,1,1446830360990,1446830361444,333,405,0,0,0,0,1,1,1,0001-00-0001-94.png,0005-00-0000-15.png
00000014,598,1,1446830362319,1446830362844,345,425,0,0,0,1,2,1,3,0005-00-0000-59.png,0003-00-0001-12.png
00000014,599,0,1446830363790,1446830364230,376,435,0,0,0,3,2,1,5,0002-00-0000-80.png,0003-00-0001-66.png
00000014,600,1,1446830367329,1446830367737,922,367,0,0,0,1,0,1,1,0005-00-0001-84.png,0001-00-0001-14.png
00000014,601,1,1446830368643,1446830369058,441,460,0,0,0,2,3,1,5,0003-00-0000-81.png,0002-00-0001-51.png
00000014,602,1,1446830369952,1446830370425,960,390,0,0,0,4,3,1,7,0004-00-0000-12.png,0002-00-0001-26.png
00000014,603,1,1446830371722,1446830372157,892,391,0,0,0,2,1,1,3,0003-00-0001-16.png,0005-00-0000-49.png
00000014,604,0,1446830372992,1446830373548,876,382,0,0,0,1,2,1,3,0005-00-0000-01.png,0003-00-0001-24.png
00000014,605,0,1446830376388,1446830376849,888,332,0,0,0,0,1,1,1,0001-00-0001-22.png,0005-00-0000-78.png
00000014,606,1,1446830379699,1446830380196,896,329,0,0,0,1,0,1,1,0005-00-0001-81.png,0001-00-0000-03.png
00000014,607,0,1446830381081,1446830381505,440,443,0,0,0,3,2,1,5,0002-00-0000-66.png,0003-00-0001-93.png
00000014,608,0,1446830384550,1446830384976,874,449,0,0,0,3,4,1,7,0002-00-0001-18.png,0004-00-0001-03.png
00000014,609,0,1446830388246,1446830388704,930,364,0,0,0,2,3,1,5,0003-00-0000-12.png,0002-00-0000-08.png
00000014,610,1,1446830391797,1446830392206,318,356,0,0,0,0,1,1,1,0001-00-0001-73.png,0005-00-0000-34.png
00000014,611,0,1446830393066,1446830393509,424,415,0,0,0,4,3,1,7,0004-00-0001-70.png,0002-00-0001-09.png
00000014,612,1,1446830396674,1446830397203,918,335,0,0,0,2,1,1,3,0003-00-0000-53.png,0005-00-0000-73.png
00000014,613,1,1446830398076,1446830398491,393,511,0,0,0,3,4,1,7,0002-00-0001-57.png,0004-00-0000-34.png
00000014,614,1,1446830399428,1446830399925,907,393,0,0,0,3,2,1,5,0002-00-0001-65.png,0003-00-0001-15.png
00000014,615,1,1446830400869,1446830401332,366,439,0,0,0,1,2,1,3,0005-00-0000-07.png,0003-00-0001-42.png
00000014,616,1,1446830402340,1446830402812,865,479,0,0,0,1,0,1,1,0005-00-0000-92.png,0001-00-0000-52.png
00000014,617,0,1446830403734,1446830404195,445,426,0,0,0,3,2,1,5,0002-00-0001-81.png,0003-00-0001-02.png
00000014,618,0,1446830407089,1446830407498,905,375,0,0,0,1,2,1,3,0005-00-0000-83.png,0003-00-0000-85.png
00000014,619,1,1446830410649,1446830411107,881,398,0,0,0,1,0,1,1,0005-00-0001-19.png,0001-00-0001-65.png
00000014,620,0,1446830411979,1446830412455,881,489,0,0,0,3,4,1,7,0002-00-0000-37.png,0004-00-0000-37.png
00000014,621,1,1446830422331,1446830422720,900,410,0,0,0,2,1,1,3,0003-00-0001-27.png,0005-00-0000-52.png
00000014,622,0,1446830423649,1446830424182,926,385,0,0,0,0,1,1,1,0001-00-0000-23.png,0005-00-0001-96.png
00000014,623,1,1446830427146,1446830427628,926,331,0,0,0,4,3,1,7,0004-00-0000-28.png,0002-00-0001-41.png
00000014,624,0,1446830428535,1446830429021,917,392,0,0,0,2,3,1,5,0003-00-0001-34.png,0002-00-0001-25.png
00000014,625,1,1446830432236,1446830432686,904,361,0,0,0,1,0,1,1,0005-00-0001-98.png,0001-00-0001-02.png
00000014,626,0,1446830433608,1446830434098,874,410,0,0,0,3,4,1,7,0002-00-0000-53.png,0004-00-0001-61.png
00000014,627,0,1446830438339,1446830438741,877,423,0,0,0,2,3,1,5,0003-00-0001-08.png,0002-00-0001-96.png
00000014,628,1,1446830442402,1446830442830,946,377,0,0,0,4,3,1,7,0004-00-0001-93.png,0002-00-0001-88.png
00000014,629,1,1446830443764,1446830444161,344,436,0,0,0,1,2,1,3,0005-00-0001-87.png,0003-00-0000-52.png
00000014,630,0,1446830445185,1446830445808,887,346,0,0,0,0,1,1,1,0001-00-0000-24.png,0005-00-0001-99.png
00000014,631,1,1446830449240,1446830449769,888,437,0,0,0,3,2,1,5,0002-00-0000-27.png,0003-00-0000-16.png
00000014,632,1,1446830450712,1446830451164,864,485,0,0,0,2,1,1,3,0003-00-0001-81.png,0005-00-0001-95.png
00000014,633,1,1446830452074,1446830452540,413,424,0,0,0,0,1,1,1,0001-00-0001-17.png,0005-00-0000-31.png
00000014,634,1,1446830453472,1446830454005,900,384,0,0,0,4,3,1,7,0004-00-0001-74.png,0002-00-0000-29.png
00000014,635,0,1446830454916,1446830455405,365,442,0,0,0,3,2,1,5,0002-00-0000-54.png,0003-00-0000-16.png
00000014,636,1,1446830458682,1446830459116,902,415,0,0,0,1,0,1,1,0005-00-0001-58.png,0001-00-0001-92.png
00000014,637,0,1446830460064,1446830460457,427,437,0,0,0,2,1,1,3,0003-00-0000-12.png,0005-00-0000-61.png
00000014,638,0,1446830463410,1446830463838,926,358,0,0,0,2,3,1,5,0003-00-0001-15.png,0002-00-0001-42.png
00000014,639,0,1446830466893,1446830467366,869,446,0,0,0,3,4,1,7,0002-00-0000-13.png,0004-00-0001-64.png
00000014,640,1,1446830470510,1446830471084,365,442,0,0,0,1,2,1,3,0005-00-0001-29.png,0003-00-0001-31.png
00000014,641,1,1446830472051,1446830472586,875,345,0,0,0,2,1,1,3,0003-00-0001-86.png,0005-00-0001-53.png
00000014,642,1,1446830473631,1446830474244,376,397,0,0,0,1,2,1,3,0005-00-0000-80.png,0003-00-0000-60.png
00000014,643,1,1446830475243,1446830475681,427,450,0,0,0,0,1,1,1,0001-00-0001-44.png,0005-00-0001-32.png
00000014,644,0,1446830476634,1446830477135,867,457,0,0,0,2,3,1,5,0003-00-0000-73.png,0002-00-0000-73.png
00000014,645,1,1446830480341,1446830480819,899,475,0,0,0,1,0,1,1,0005-00-0001-69.png,0001-00-0001-17.png
00000014,646,1,1446830481840,1446830482483,884,350,0,0,0,3,2,1,5,0002-00-0000-12.png,0003-00-0000-68.png
00000014,647,0,1446830483481,1446830484225,902,356,0,0,0,3,4,1,7,0002-00-0000-93.png,0004-00-0000-85.png
00000014,648,1,1446830487337,1446830487921,888,438,0,0,0,4,3,1,7,0004-00-0001-81.png,0002-00-0000-91.png
00000014,649,1,1446830488967,1446830489483,872,459,0,0,0,2,1,1,3,0003-00-0000-13.png,0005-00-0000-36.png
00000014,650,0,1446830490374,1446830490856,410,414,0,0,0,3,2,1,5,0002-00-0000-56.png,0003-00-0000-34.png
00000014,651,0,1446830493935,1446830494443,928,336,0,0,0,3,4,1,7,0002-00-0001-56.png,0004-00-0000-15.png
00000014,652,1,1446830497345,1446830497886,353,349,0,0,0,0,1,1,1,0001-00-0001-06.png,0005-00-0001-38.png
00000014,653,1,1446830498902,1446830499441,876,383,0,0,0,4,3,1,7,0004-00-0000-34.png,0002-00-0001-11.png
00000014,654,0,1446830500334,1446830500841,901,409,0,0,0,2,3,1,5,0003-00-0001-17.png,0002-00-0001-71.png
00000014,655,1,1446830504003,1446830504554,380,533,0,0,0,1,2,1,3,0005-00-0001-00.png,0003-00-0001-16.png
00000014,656,1,1446830505505,1446830505991,926,423,0,0,0,1,0,1,1,0005-00-0001-85.png,0001-00-0000-28.png
00000014,657,1,1446830507015,1446830507569,375,451,0,0,0,0,1,1,1,0001-00-0000-22.png,0005-00-0000-69.png
00000014,658,1,1446830508517,1446830509178,863,362,0,0,0,2,1,1,3,0003-00-0001-59.png,0005-00-0001-51.png
00000014,659,1,1446830510116,1446830510760,875,359,0,0,0,4,3,1,7,0004-00-0001-40.png,0002-00-0001-87.png
00000014,660,0,1446830511656,1446830512169,897,405,0,0,0,2,3,1,5,0003-00-0001-58.png,0002-00-0000-73.png
00000014,661,0,1446830515153,1446830515578,868,438,0,0,0,3,4,1,7,0002-00-0000-39.png,0004-00-0000-67.png
00000014,662,0,1446830518941,1446830519427,373,433,0,0,0,3,2,1,5,0002-00-0000-05.png,0003-00-0001-85.png
00000014,663,1,1446830522277,1446830522692,900,424,0,0,0,1,0,1,1,0005-00-0000-61.png,0001-00-0000-11.png
00000014,664,1,1446830523632,1446830524099,360,457,0,0,0,1,2,1,3,0005-00-0000-65.png,0003-00-0001-30.png
00000014,665,1,1446830525003,1446830525454,431,436,0,0,0,3,4,1,7,0002-00-0001-61.png,0004-00-0001-00.png
00000014,666,1,1446830526420,1446830526911,903,415,0,0,0,4,3,1,7,0004-00-0001-38.png,0002-00-0000-15.png
00000014,667,1,1446830527815,1446830528391,872,481,0,0,0,2,1,1,3,0003-00-0001-30.png,0005-00-0001-52.png
00000014,668,1,1446830529406,1446830529921,875,409,0,0,0,1,0,1,1,0005-00-0000-15.png,0001-00-0000-01.png
00000014,669,1,1446830530907,1446830531384,350,449,0,0,0,0,1,1,1,0001-00-0001-77.png,0005-00-0001-16.png
00000014,670,1,1446830532338,1446830532828,427,436,0,0,0,1,2,1,3,0005-00-0001-32.png,0003-00-0001-17.png
00000014,671,0,1446830533888,1446830534370,438,528,0,0,0,3,2,1,5,0002-00-0001-45.png,0003-00-0000-14.png
00000014,672,0,1446830537419,1446830537883,890,495,0,0,0,2,3,1,5,0003-00-0001-39.png,0002-00-0001-37.png
00000014,673,1,1446830540805,1446830541259,919,351,0,0,0,1,0,1,1,0005-00-0000-35.png,0001-00-0001-20.png
00000014,674,0,1446830542206,1446830542633,427,437,0,0,0,3,2,1,5,0002-00-0001-18.png,0003-00-0001-21.png
00000014,675,1,1446830545493,1446830545838,905,348,0,0,0,2,1,1,3,0003-00-0000-07.png,0005-00-0000-35.png
00000014,676,0,1446830546749,1446830547294,887,398,0,0,0,2,3,1,5,0003-00-0001-60.png,0002-00-0000-31.png
00000014,677,0,1446830550424,1446830550900,898,439,0,0,0,3,4,1,7,0002-00-0000-69.png,0004-00-0001-97.png
00000014,678,0,1446830554033,1446830554542,868,340,0,0,0,0,1,1,1,0001-00-0001-88.png,0005-00-0001-40.png
00000014,679,1,1446830557531,1446830558011,432,498,0,0,0,1,2,1,3,0005-00-0000-07.png,0003-00-0000-96.png
00000014,680,0,1446830558963,1446830559902,371,362,0,0,0,4,3,1,7,0004-00-0000-31.png,0002-00-0001-86.png
00000014,681,0,1446830562968,1446830563750,438,429,0,0,0,4,3,1,7,0004-00-0000-16.png,0002-00-0000-52.png
00000014,682,1,1446830568238,1446830568668,916,364,0,0,0,2,1,1,3,0003-00-0000-20.png,0005-00-0001-51.png
00000014,683,0,1446830569687,1446830570169,887,476,0,0,0,3,4,1,7,0002-00-0001-55.png,0004-00-0001-76.png
00000014,684,1,1446830573087,1446830573577,906,423,0,0,0,1,0,1,1,0005-00-0000-36.png,0001-00-0001-34.png
00000014,685,0,1446830574474,1446830574912,376,461,0,0,0,3,2,1,5,0002-00-0001-51.png,0003-00-0001-83.png
00000014,686,0,1446830578295,1446830578702,877,441,0,0,0,2,3,1,5,0003-00-0000-63.png,0002-00-0000-43.png
00000014,687,1,1446830581592,1446830582117,349,384,0,0,0,0,1,1,1,0001-00-0000-27.png,0005-00-0000-31.png
00000014,688,1,1446830583066,1446830583459,357,428,0,0,0,1,2,1,3,0005-00-0000-54.png,0003-00-0001-40.png
00000014,689,1,1446830584403,1446830584891,893,379,0,0,0,1,0,1,1,0005-00-0000-47.png,0001-00-0001-85.png
00000014,690,1,1446830585828,1446830586517,862,306,0,0,0,3,2,1,5,0002-00-0001-91.png,0003-00-0000-47.png
00000014,691,1,1446830587498,1446830587898,337,410,0,0,0,0,1,1,1,0001-00-0000-50.png,0005-00-0001-49.png
00000014,692,1,1446830588808,1446830589232,401,436,0,0,0,1,2,1,3,0005-00-0000-56.png,0003-00-0001-27.png
00000014,693,0,1446830590146,1446830591210,418,410,0,0,0,2,1,1,3,0003-00-0000-60.png,0005-00-0000-01.png
00000014,694,1,1446830594573,1446830595059,888,346,0,0,0,4,3,1,7,0004-00-0001-30.png,0002-00-0001-08.png
00000014,695,0,1446830596105,1446830596680,865,389,0,0,0,2,3,1,5,0003-00-0001-50.png,0002-00-0001-11.png
00000014,696,1,1446830599753,1446830600551,305,360,0,0,0,3,4,1,7,0002-00-0001-55.png,0004-00-0001-68.png
00000014,697,1,1446830601481,1446830601878,339,442,0,0,0,0,1,1,1,0001-00-0001-64.png,0005-00-0000-83.png
00000014,698,0,1446830602958,1446830603475,338,466,0,0,0,1,0,1,1,0005-00-0000-64.png,0001-00-0000-88.png
00000014,699,0,1446830606667,1446830607093,878,453,0,0,0,2,3,1,5,0003-00-0000-45.png,0002-00-0000-05.png
00000014,700,1,1446830610216,1446830610719,891,365,0,0,0,2,1,1,3,0003-00-0001-21.png,0005-00-0000-39.png
00000014,701,1,1446830612093,1446830612526,898,355,0,0,0,4,3,1,7,0004-00-0001-40.png,0002-00-0000-23.png
00000014,702,1,1446830613436,1446830613858,361,429,0,0,0,1,2,1,3,0005-00-0000-19.png,0003-00-0000-80.png
00000014,703,0,1446830614778,1446830615199,362,437,0,0,0,3,2,1,5,0002-00-0001-02.png,0003-00-0001-83.png
00000014,704,1,1446830618336,1446830618780,376,397,0,0,0,3,4,1,7,0002-00-0001-35.png,0004-00-0000-09.png
00000014,705,0,1446830619787,1446830620407,875,461,0,0,0,3,4,1,7,0002-00-0000-27.png,0004-00-0000-39.png
00000014,706,0,1446830623313,1446830624040,382,337,0,0,0,4,3,1,7,0004-00-0000-17.png,0002-00-0001-84.png
00000014,707,1,1446830626920,1446830627420,376,384,0,0,0,0,1,1,1,0001-00-0001-71.png,0005-00-0000-57.png
00000014,708,0,1446830628304,1446830628873,901,383,0,0,0,2,3,1,5,0003-00-0001-03.png,0002-00-0001-70.png
00000014,709,1,1446830631913,1446830632396,888,449,0,0,0,2,1,1,3,0003-00-0000-25.png,0005-00-0000-91.png
00000014,710,0,1446830633314,1446830633734,414,449,0,0,0,3,2,1,5,0002-00-0001-29.png,0003-00-0000-21.png
00000014,711,0,1446830637020,1446830637654,876,401,0,0,0,1,2,1,3,0005-00-0000-01.png,0003-00-0000-82.png
00000014,712,1,1446830641146,1446830641608,907,416,0,0,0,1,0,1,1,0005-00-0001-02.png,0001-00-0001-50.png
00000014,713,0,1446830642701,1446830643189,869,472,0,0,0,2,3,1,5,0003-00-0001-10.png,0002-00-0001-13.png
00000014,714,1,1446830646141,1446830646778,964,294,0,0,0,3,2,1,5,0002-00-0001-00.png,0003-00-0000-47.png
00000014,715,1,1446830647754,1446830648200,427,397,0,0,0,1,2,1,3,0005-00-0001-91.png,0003-00-0000-94.png
00000014,716,0,1446830649125,1446830649568,401,438,0,0,0,4,3,1,7,0004-00-0000-79.png,0002-00-0000-44.png
00000014,717,1,1446830653813,1446830654220,954,364,0,0,0,2,1,1,3,0003-00-0001-89.png,0005-00-0001-79.png
00000014,718,1,1446830655139,1446830655637,907,371,0,0,0,1,0,1,1,0005-00-0000-52.png,0001-00-0001-45.png
00000014,719,0,1446830656622,1446830657167,926,384,0,0,0,3,4,1,7,0002-00-0001-56.png,0004-00-0001-45.png
00000014,720,0,1446830661270,1446830661752,926,358,0,0,0,0,1,1,1,0001-00-0000-47.png,0005-00-0000-38.png
00000014,721,0,1446830664629,1446830665012,393,349,0,0,0,3,2,1,5,0002-00-0001-04.png,0003-00-0001-78.png
00000014,722,0,1446830668295,1446830668736,369,340,0,0,0,4,3,1,7,0004-00-0000-50.png,0002-00-0001-60.png
00000014,723,1,1446830671592,1446830672079,389,488,0,0,0,1,2,1,3,0005-00-0000-45.png,0003-00-0001-92.png
00000014,724,1,1446830673025,1446830673500,312,431,0,0,0,0,1,1,1,0001-00-0001-92.png,0005-00-0001-30.png
00000014,725,1,1446830674378,1446830674985,905,374,0,0,0,2,1,1,3,0003-00-0001-50.png,0005-00-0000-03.png
00000014,726,1,1446830675848,1446830676316,904,392,0,0,0,1,0,1,1,0005-00-0000-92.png,0001-00-0001-16.png
00000014,727,0,1446830677282,1446830677835,888,384,0,0,0,2,3,1,5,0003-00-0001-44.png,0002-00-0001-91.png
00000014,728,0,1446830680998,1446830681650,870,288,0,0,0,3,4,1,7,0002-00-0001-23.png,0004-00-0000-18.png
00000014,729,1,1446830684671,1446830685283,867,433,0,0,0,2,1,1,3,0003-00-0000-61.png,0005-00-0001-34.png
00000014,730,1,1446830686341,1446830686828,883,396,0,0,0,1,0,1,1,0005-00-0001-89.png,0001-00-0001-04.png
00000014,731,1,1446830687773,1446830688310,880,401,0,0,0,4,3,1,7,0004-00-0000-72.png,0002-00-0000-86.png
00000014,732,1,1446830689243,1446830689733,422,469,0,0,0,3,4,1,7,0002-00-0000-41.png,0004-00-0000-83.png
00000014,733,1,1446830690695,1446830691168,879,375,0,0,0,3,2,1,5,0002-00-0000-44.png,0003-00-0000-25.png
00000014,734,1,1446830692094,1446830692521,453,462,0,0,0,1,2,1,3,0005-00-0001-54.png,0003-00-0001-96.png
00000014,735,1,1446830693549,1446830693941,392,443,0,0,0,2,3,1,5,0003-00-0001-36.png,0002-00-0001-70.png
00000014,736,1,1446830695126,1446830695517,344,425,0,0,0,0,1,1,1,0001-00-0000-55.png,0005-00-0000-74.png
00000014,737,0,1446830696428,1446830697451,365,381,0,0,0,4,3,1,7,0004-00-0001-94.png,0002-00-0000-41.png
00000014,738,1,1446830700354,1446830701005,876,322,0,0,0,3,2,1,5,0002-00-0001-39.png,0003-00-0000-76.png
00000014,739,1,1446830702092,1446830703112,901,357,0,0,0,2,1,1,3,0003-00-0000-64.png,0005-00-0001-52.png
00000014,740,0,1446830704001,1446830704522,877,416,0,0,0,3,4,1,7,0002-00-0001-42.png,0004-00-0000-81.png
00000014,741,1,1446830707463,1446830707507,510,418,0,0,0,2,3,1,5,0003-00-0000-34.png,0002-00-0001-13.png
00000014,742,1,1446830708439,1446830708983,868,494,0,0,0,1,0,1,1,0005-00-0001-91.png,0001-00-0001-50.png
00000014,743,1,1446830709846,1446830710313,418,436,0,0,0,0,1,1,1,0001-00-0000-16.png,0005-00-0000-37.png
00000014,744,1,1446830711180,1446830711613,401,410,0,0,0,1,2,1,3,0005-00-0001-50.png,0003-00-0001-37.png
00000014,745,1,1446830712530,1446830712942,414,423,0,0,0,1,2,1,3,0005-00-0000-14.png,0003-00-0001-05.png
00000014,746,1,1446830713870,1446830714360,383,468,0,0,0,3,4,1,7,0002-00-0000-21.png,0004-00-0000-00.png
00000014,747,1,1446830715286,1446830715777,905,401,0,0,0,1,0,1,1,0005-00-0000-02.png,0001-00-0000-89.png
00000014,748,1,1446830716622,1446830717146,878,416,0,0,0,4,3,1,7,0004-00-0001-23.png,0002-00-0000-19.png
00000014,749,0,1446830718027,1446830718469,414,528,0,0,0,3,2,1,5,0002-00-0001-01.png,0003-00-0000-75.png
00000014,750,1,1446830723733,1446830724189,913,397,0,0,0,2,1,1,3,0003-00-0000-87.png,0005-00-0000-61.png
00000014,751,0,1446830725060,1446830725537,877,416,0,0,0,2,3,1,5,0003-00-0001-06.png,0002-00-0001-63.png
00000014,752,1,1446830729138,1446830729548,363,421,0,0,0,0,1,1,1,0001-00-0000-19.png,0005-00-0000-43.png
00000014,753,1,1446830730395,1446830730994,891,361,0,0,0,2,1,1,3,0003-00-0000-01.png,0005-00-0001-10.png
00000014,754,0,1446830731900,1446830732404,880,502,0,0,0,2,3,1,5,0003-00-0000-40.png,0002-00-0000-23.png
00000014,755,0,1446830737238,1446830738097,362,370,0,0,0,3,2,1,5,0002-00-0001-09.png,0003-00-0001-34.png
00000014,756,1,1446830740991,1446830741466,413,474,0,0,0,0,1,1,1,0001-00-0001-72.png,0005-00-0001-10.png
00000014,757,1,1446830742328,1446830742767,348,397,0,0,0,1,2,1,3,0005-00-0000-90.png,0003-00-0001-45.png
00000014,758,1,1446830743624,1446830744582,417,362,0,0,0,3,4,1,7,0002-00-0001-77.png,0004-00-0000-82.png
00000014,759,0,1446830745537,1446830746160,337,319,0,0,0,1,0,1,1,0005-00-0000-85.png,0001-00-0000-73.png
00000014,760,1,1446830749082,1446830749574,913,370,0,0,0,4,3,1,7,0004-00-0001-45.png,0002-00-0001-42.png
00000014,761,0,1446830750464,1446830750987,884,426,0,0,0,2,3,1,5,0003-00-0001-04.png,0002-00-0000-61.png
00000014,762,0,1446830754142,1446830754703,368,347,0,0,0,4,3,1,7,0004-00-0001-16.png,0002-00-0001-00.png
00000014,763,0,1446830758773,1446830759345,886,438,0,0,0,1,2,1,3,0005-00-0000-38.png,0003-00-0001-61.png
00000014,764,0,1446830762400,1446830762849,873,430,0,0,0,3,4,1,7,0002-00-0001-92.png,0004-00-0000-82.png
00000014,765,1,1446830765887,1446830766328,863,403,0,0,0,3,2,1,5,0002-00-0001-11.png,0003-00-0000-62.png
00000014,766,1,1446830767371,1446830767815,389,512,0,0,0,0,1,1,1,0001-00-0000-91.png,0005-00-0001-76.png
00000014,767,1,1446830768739,1446830769266,885,420,0,0,0,2,1,1,3,0003-00-0001-60.png,0005-00-0001-05.png
00000014,768,1,1446830770119,1446830771084,902,440,0,0,0,1,0,1,1,0005-00-0001-81.png,0001-00-0001-86.png
00000014,769,0,1446830771966,1446830772441,876,410,0,0,0,3,4,1,7,0002-00-0001-01.png,0004-00-0001-43.png
00000014,770,0,1446830775355,1446830775756,413,475,0,0,0,3,2,1,5,0002-00-0001-04.png,0003-00-0001-99.png
00000014,771,1,1446830778623,1446830779303,387,474,0,0,0,0,1,1,1,0001-00-0000-27.png,0005-00-0001-02.png
00000014,772,1,1446830780269,1446830780776,873,490,0,0,0,2,1,1,3,0003-00-0001-69.png,0005-00-0000-28.png
00000014,773,1,1446830781671,1446830782423,887,346,0,0,0,1,0,1,1,0005-00-0000-97.png,0001-00-0001-36.png
00000014,774,1,1446830783380,1446830783791,337,410,0,0,0,1,2,1,3,0005-00-0001-71.png,0003-00-0001-51.png
00000014,775,0,1446830784777,1446830785291,364,536,0,0,0,4,3,1,7,0004-00-0000-97.png,0002-00-0001-48.png
00000014,776,0,1446830788547,1446830789002,895,472,0,0,0,2,3,1,5,0003-00-0000-45.png,0002-00-0001-90.png
00000014,777,1,1446830792035,1446830792541,383,401,0,0,0,1,2,1,3,0005-00-0001-00.png,0003-00-0001-30.png
00000014,778,1,1446830793484,1446830794098,912,395,0,0,0,2,1,1,3,0003-00-0001-10.png,0005-00-0000-94.png
00000014,779,0,1446830794942,1446830795908,359,379,0,0,0,4,3,1,7,0004-00-0001-13.png,0002-00-0001-28.png
00000014,780,1,1446830798883,1446830799286,401,384,0,0,0,3,4,1,7,0002-00-0000-00.png,0004-00-0001-27.png
00000014,781,1,1446830800234,1446830800732,898,405,0,0,0,1,0,1,1,0005-00-0000-76.png,0001-00-0001-60.png
00000014,782,0,1446830801622,1446830802120,365,435,0,0,0,3,2,1,5,0002-00-0001-42.png,0003-00-0000-28.png
00000014,783,1,1446830805592,1446830806013,362,475,0,0,0,0,1,1,1,0001-00-0000-76.png,0005-00-0000-13.png
00000014,784,0,1446830806859,1446830807376,899,430,0,0,0,2,3,1,5,0003-00-0000-60.png,0002-00-0000-24.png
00000014,785,1,1446830810688,1446830811306,314,382,0,0,0,0,1,1,1,0001-00-0001-77.png,0005-00-0001-73.png
00000014,786,1,1446830812281,1446830813410,403,483,0,0,0,1,2,1,3,0005-00-0000-98.png,0003-00-0000-30.png
00000014,787,0,1446830814319,1446830814749,411,460,0,0,0,3,2,1,5,0002-00-0000-72.png,0003-00-0000-22.png
00000014,788,0,1446830818109,1446830818526,913,371,0,0,0,2,3,1,5,0003-00-0000-06.png,0002-00-0000-69.png
00000014,789,0,1446830821412,1446830821885,395,474,0,0,0,4,3,1,7,0004-00-0001-71.png,0002-00-0001-82.png
00000014,790,1,1446830825099,1446830826180,351,306,0,0,0,3,4,1,7,0002-00-0001-32.png,0004-00-0001-97.png
00000014,791,1,1446830827137,1446830827625,900,397,0,0,0,1,0,1,1,0005-00-0001-72.png,0001-00-0000-20.png
00000014,792,1,1446830828548,1446830829088,881,397,0,0,0,2,1,1,3,0003-00-0000-45.png,0005-00-0000-99.png
00000014,793,0,1446830830159,1446830830580,447,414,0,0,0,1,0,1,1,0005-00-0001-55.png,0001-00-0001-75.png
00000014,794,1,1446830833790,1446830834281,424,369,0,0,0,1,2,1,3,0005-00-0000-74.png,0003-00-0001-20.png
00000014,795,0,1446830835218,1446830835676,373,431,0,0,0,3,2,1,5,0002-00-0000-08.png,0003-00-0001-73.png
00000014,796,0,1446830838885,1446830839332,948,354,0,0,0,2,3,1,5,0003-00-0001-70.png,0002-00-0001-60.png
00000014,797,1,1446830842215,1446830842645,905,349,0,0,0,4,3,1,7,0004-00-0000-13.png,0002-00-0001-67.png
00000014,798,1,1446830843597,1446830844037,320,463,0,0,0,0,1,1,1,0001-00-0000-17.png,0005-00-0001-92.png
00000014,799,1,1446830845039,1446830845522,879,401,0,0,0,2,1,1,3,0003-00-0000-41.png,0005-00-0001-66.png
00000014,800,0,1446830846426,1446830847562,970,417,0,0,0,3,4,1,7,0002-00-0000-38.png,0004-00-0000-32.png
00000014,801,1,1446830850698,1446830851125,389,512,0,0,0,1,2,1,3,0005-00-0000-33.png,0003-00-0000-71.png
00000014,802,1,1446830852083,1446830852534,321,440,0,0,0,0,1,1,1,0001-00-0001-97.png,0005-00-0000-37.png
00000014,803,1,1446830853506,1446830853956,384,444,0,0,0,3,4,1,7,0002-00-0000-73.png,0004-00-0001-59.png
00000014,804,0,1446830854983,1446830855472,904,416,0,0,0,2,3,1,5,0003-00-0001-52.png,0002-00-0001-17.png
00000014,805,1,1446830858533,1446830859167,883,408,0,0,0,4,3,1,7,0004-00-0000-21.png,0002-00-0000-85.png
00000014,806,1,1446830860114,1446830860536,902,415,0,0,0,2,1,1,3,0003-00-0000-87.png,0005-00-0000-28.png
00000014,807,1,1446830861495,1446830861970,875,489,0,0,0,3,2,1,5,0002-00-0001-22.png,0003-00-0001-36.png
00000014,808,1,1446830863066,1446830863596,870,472,0,0,0,1,0,1,1,0005-00-0000-64.png,0001-00-0000-25.png
00000014,809,0,1446830864567,1446830865068,894,385,0,0,0,3,4,1,7,0002-00-0001-54.png,0004-00-0001-42.png
00000014,810,1,1446830868265,1446830868669,414,417,0,0,0,0,1,1,1,0001-00-0000-87.png,0005-00-0001-03.png
00000014,811,0,1446830869676,1446830870134,419,456,0,0,0,3,2,1,5,0002-00-0001-72.png,0003-00-0001-75.png
00000014,812,1,1446830873380,1446830873832,905,374,0,0,0,1,0,1,1,0005-00-0000-48.png,0001-00-0000-80.png
00000014,813,0,1446830874762,1446830875212,907,411,0,0,0,1,2,1,3,0005-00-0001-76.png,0003-00-0000-31.png
00000014,814,1,1446830878412,1446830878877,875,292,0,0,0,4,3,1,7,0004-00-0000-20.png,0002-00-0000-27.png
00000014,815,0,1446830879873,1446830880369,926,403,0,0,0,2,3,1,5,0003-00-0001-73.png,0002-00-0000-77.png
00000014,816,1,1446830884164,1446830884624,869,315,0,0,0,2,1,1,3,0003-00-0000-47.png,0005-00-0001-61.png
00000014,817,0,1446830885588,1446830886023,339,442,0,0,0,4,3,1,7,0004-00-0001-46.png,0002-00-0001-80.png
00000014,818,0,1446830889584,1446830890025,896,428,0,0,0,3,4,1,7,0002-00-0001-60.png,0004-00-0000-34.png
00000014,819,1,1446830893049,1446830893487,915,397,0,0,0,2,1,1,3,0003-00-0000-53.png,0005-00-0001-96.png
00000014,820,0,1446830894374,1446830894825,376,423,0,0,0,1,0,1,1,0005-00-0001-27.png,0001-00-0000-09.png
00000014,821,0,1446830903027,1446830903536,876,464,0,0,0,1,2,1,3,0005-00-0001-84.png,0003-00-0001-00.png
00000014,822,0,1446830906566,1446830906984,929,338,0,0,0,2,3,1,5,0003-00-0000-47.png,0002-00-0000-04.png
00000014,823,1,1446830909811,1446830910305,925,333,0,0,0,3,2,1,5,0002-00-0000-44.png,0003-00-0001-94.png
00000014,824,1,1446830911276,1446830911699,331,436,0,0,0,0,1,1,1,0001-00-0001-58.png,0005-00-0001-27.png
00000014,825,1,1446830912658,1446830913131,901,411,0,0,0,2,1,1,3,0003-00-0001-04.png,0005-00-0001-77.png
00000014,826,1,1446830914040,1446830914472,401,537,0,0,0,0,1,1,1,0001-00-0000-74.png,0005-00-0001-51.png
00000014,827,0,1446830915469,1446830916181,880,355,0,0,0,3,4,1,7,0002-00-0000-00.png,0004-00-0001-17.png
00000014,828,1,1446830919026,1446830919415,913,371,0,0,0,1,0,1,1,0005-00-0000-86.png,0001-00-0001-75.png
00000014,829,0,1446830920331,1446830921342,386,378,0,0,0,4,3,1,7,0004-00-0000-23.png,0002-00-0001-45.png
00000014,830,0,1446830924390,1446830924818,900,411,0,0,0,2,3,1,5,0003-00-0000-56.png,0002-00-0000-62.png
00000014,831,1,1446830928133,1446830928623,351,381,0,0,0,1,2,1,3,0005-00-0000-21.png,0003-00-0001-75.png
00000014,832,1,1446830929651,1446830930213,859,367,0,0,0,3,2,1,5,0002-00-0000-21.png,0003-00-0000-29.png
00000014,833,1,1446830931145,1446830932180,907,366,0,0,0,2,1,1,3,0003-00-0001-41.png,0005-00-0000-98.png
00000014,834,1,1446830933082,1446830933533,421,442,0,0,0,1,2,1,3,0005-00-0000-20.png,0003-00-0000-14.png
00000014,835,1,1446830934492,1446830935614,385,368,0,0,0,3,4,1,7,0002-00-0000-24.png,0004-00-0000-42.png
00000014,836,1,1446830936466,1446830936985,352,429,0,0,0,0,1,1,1,0001-00-0001-53.png,0005-00-0000-70.png
00000014,837,1,1446830937935,1446830938873,392,495,0,0,0,2,3,1,5,0003-00-0001-48.png,0002-00-0001-67.png
00000014,838,0,1446830939834,1446830940259,411,440,0,0,0,3,2,1,5,0002-00-0000-89.png,0003-00-0000-86.png
00000014,839,0,1446830943731,1446830944126,358,393,0,0,0,4,3,1,7,0004-00-0001-08.png,0002-00-0000-57.png
00000014,840,1,1446830947181,1446830947577,905,349,0,0,0,1,0,1,1,0005-00-0000-55.png,0001-00-0001-97.png
00000014,841,1,1446830948475,1446830949050,888,488,0,0,0,3,2,1,5,0002-00-0000-64.png,0003-00-0000-07.png
00000014,842,1,1446830949994,1446830950519,857,463,0,0,0,4,3,1,7,0004-00-0001-53.png,0002-00-0000-22.png
00000014,843,0,1446830951455,1446830952062,861,372,0,0,0,1,2,1,3,0005-00-0000-48.png,0003-00-0000-67.png
00000014,844,1,1446830955114,1446830955585,860,499,0,0,0,1,0,1,1,0005-00-0000-49.png,0001-00-0001-63.png
00000014,845,1,1446830956451,1446830956878,427,449,0,0,0,0,1,1,1,0001-00-0000-58.png,0005-00-0001-69.png
00000014,846,0,1446830957834,1446830958376,902,389,0,0,0,2,3,1,5,0003-00-0000-97.png,0002-00-0001-32.png
00000014,847,1,1446830961463,1446830961929,922,367,0,0,0,2,1,1,3,0003-00-0001-08.png,0005-00-0001-89.png
00000014,848,0,1446830962884,1446830963378,900,411,0,0,0,3,4,1,7,0002-00-0001-21.png,0004-00-0000-44.png
00000014,849,0,1446830972952,1446830973413,376,384,0,0,0,3,2,1,5,0002-00-0001-24.png,0003-00-0001-10.png
00000014,850,0,1446830977332,1446830977833,371,402,0,0,0,1,0,1,1,0005-00-0000-70.png,0001-00-0000-59.png
00000014,851,0,1446830983787,1446830984308,900,365,0,0,0,2,3,1,5,0003-00-0000-12.png,0002-00-0000-66.png
00000014,852,1,1446830987507,1446830988070,406,508,0,0,0,3,4,1,7,0002-00-0001-15.png,0004-00-0000-38.png
00000014,853,1,1446830988976,1446830989473,907,418,0,0,0,2,1,1,3,0003-00-0001-47.png,0005-00-0001-04.png
00000014,854,1,1446830990480,1446830990985,866,482,0,0,0,4,3,1,7,0004-00-0000-23.png,0002-00-0001-31.png
00000014,855,1,1446830991880,1446830992314,365,441,0,0,0,1,2,1,3,0005-00-0000-06.png,0003-00-0001-86.png
00000014,856,1,1446830993252,1446830994058,357,358,0,0,0,0,1,1,1,0001-00-0001-14.png,0005-00-0000-77.png
00000014,857,0,1446830994981,1446830995564,903,389,0,0,0,2,3,1,5,0003-00-0000-28.png,0002-00-0000-33.png
00000014,858,0,1446830998699,1446830999419,878,454,0,0,0,0,1,1,1,0001-00-0001-69.png,0005-00-0001-41.png
00000014,859,1,1446831002525,1446831002940,887,450,0,0,0,4,3,1,7,0004-00-0001-53.png,0002-00-0001-92.png
00000014,860,0,1446831003967,1446831004445,365,470,0,0,0,3,2,1,5,0002-00-0000-78.png,0003-00-0001-16.png
00000014,861,1,1446831008122,1446831008633,907,340,0,0,0,1,0,1,1,0005-00-0000-07.png,0001-00-0000-68.png
00000014,862,0,1446831009623,1446831010194,909,400,0,0,0,3,4,1,7,0002-00-0000-97.png,0004-00-0001-59.png
00000014,863,1,1446831013258,1446831013692,901,383,0,0,0,2,1,1,3,0003-00-0001-51.png,0005-00-0001-10.png
00000014,864,1,1446831014620,1446831015023,421,442,0,0,0,1,2,1,3,0005-00-0001-12.png,0003-00-0000-82.png
00000014,865,0,1446831015962,1446831016383,442,410,0,0,0,4,3,1,7,0004-00-0001-66.png,0002-00-0000-46.png
00000014,866,0,1446831019251,1446831019765,349,423,0,0,0,3,2,1,5,0002-00-0001-51.png,0003-00-0000-76.png
00000014,867,1,1446831023339,1446831023800,319,395,0,0,0,0,1,1,1,0001-00-0000-11.png,0005-00-0001-97.png
00000014,868,0,1446831024808,1446831025318,917,415,0,0,0,2,3,1,5,0003-00-0001-33.png,0002-00-0001-05.png
00000014,869,0,1446831028673,1446831029265,914,345,0,0,0,3,4,1,7,0002-00-0001-75.png,0004-00-0001-99.png
00000014,870,0,1446831033098,1446831033551,900,332,0,0,0,1,2,1,3,0005-00-0001-12.png,0003-00-0000-81.png
00000014,871,1,1446831036495,1446831036962,911,393,0,0,0,2,1,1,3,0003-00-0001-31.png,0005-00-0001-07.png
00000014,872,0,1446831037947,1446831038750,453,358,0,0,0,1,0,1,1,0005-00-0000-30.png,0001-00-0000-79.png
00000014,873,0,1446831041683,1446831042198,370,374,0,0,0,3,2,1,5,0002-00-0001-97.png,0003-00-0000-03.png
00000014,874,1,1446831045061,1446831045534,914,370,0,0,0,1,0,1,1,0005-00-0000-03.png,0001-00-0001-71.png
00000014,875,0,1446831046463,1446831047210,899,352,0,0,0,3,4,1,7,0002-00-0000-36.png,0004-00-0001-23.png
00000014,876,1,1446831050210,1446831050753,358,419,0,0,0,1,2,1,3,0005-00-0001-06.png,0003-00-0001-40.png
00000014,877,1,1446831051740,1446831052448,880,397,0,0,0,2,1,1,3,0003-00-0001-79.png,0005-00-0001-66.png
00000014,878,1,1446831053401,1446831053859,388,554,0,0,0,0,1,1,1,0001-00-0000-19.png,0005-00-0001-12.png
00000014,879,0,1446831055089,1446831055842,344,420,0,0,0,4,3,1,7,0004-00-0001-03.png,0002-00-0001-90.png
00000014,880,0,1446831058806,1446831059409,925,437,0,0,0,2,3,1,5,0003-00-0001-07.png,0002-00-0000-69.png
00000014,881,0,1446831062341,1446831062771,877,416,0,0,0,2,3,1,5,0003-00-0001-23.png,0002-00-0000-18.png
00000014,882,0,1446831065956,1446831066371,874,463,0,0,0,3,4,1,7,0002-00-0001-33.png,0004-00-0001-91.png
00000014,883,0,1446831069441,1446831070142,376,462,0,0,0,3,2,1,5,0002-00-0000-76.png,0003-00-0000-12.png
00000014,884,1,1446831073666,1446831074071,420,364,0,0,0,1,2,1,3,0005-00-0000-54.png,0003-00-0001-23.png
00000014,885,1,1446831075089,1446831075668,911,372,0,0,0,1,0,1,1,0005-00-0000-98.png,0001-00-0000-31.png
00000014,886,0,1446831076578,1446831076993,433,435,0,0,0,2,1,1,3,0003-00-0000-31.png,0005-00-0001-30.png
00000014,887,0,1446831080363,1446831080925,900,319,0,0,0,0,1,1,1,0001-00-0001-89.png,0005-00-0001-75.png
00000014,888,0,1446831083832,1446831083929,522,452,0,0,0,4,3,1,7,0004-00-0000-36.png,0002-00-0001-25.png
00000014,889,1,1446831086980,1446831087581,393,349,0,0,0,3,4,1,7,0002-00-0000-50.png,0004-00-0000-47.png
00000014,890,0,1446831088565,1446831089008,414,543,0,0,0,3,2,1,5,0002-00-0001-73.png,0003-00-0001-89.png
00000014,891,0,1446831092402,1446831093003,900,359,0,0,0,0,1,1,1,0001-00-0001-62.png,0005-00-0001-76.png
00000014,892,1,1446831096264,1446831096938,344,347,0,0,0,1,2,1,3,0005-00-0000-57.png,0003-00-0001-93.png
00000014,893,1,1446831097907,1446831098420,906,419,0,0,0,1,0,1,1,0005-00-0001-87.png,0001-00-0001-92.png
00000014,894,0,1446831099305,1446831099799,900,423,0,0,0,2,3,1,5,0003-00-0000-01.png,0002-00-0000-28.png
00000014,895,1,1446831102752,1446831103273,929,363,0,0,0,2,1,1,3,0003-00-0001-14.png,0005-00-0001-39.png
00000014,896,1,1446831104267,1446831104729,904,403,0,0,0,4,3,1,7,0004-00-0000-99.png,0002-00-0000-19.png
00000014,897,0,1446831105690,1446831106374,899,344,0,0,0,0,1,1,1,0001-00-0001-95.png,0005-00-0001-71.png
00000014,898,0,1446831109718,1446831110188,979,340,0,0,0,3,4,1,7,0002-00-0001-56.png,0004-00-0001-75.png
00000014,899,0,1446831113102,1446831113163,498,480,0,0,0,2,1,1,3,0003-00-0000-68.png,0005-00-0000-49.png
00000014,900,0,1446831116721,1446831117173,897,386,0,0,0,2,3,1,5,0003-00-0001-48.png,0002-00-0001-64.png
00000014,901,1,1446831121352,1446831121767,896,445,0,0,0,1,0,1,1,0005-00-0000-50.png,0001-00-0001-64.png
00000014,902,1,1446831122793,1446831123247,384,429,0,0,0,1,2,1,3,0005-00-0001-89.png,0003-00-0000-47.png
00000014,903,1,1446831124124,1446831124608,888,372,0,0,0,4,3,1,7,0004-00-0001-12.png,0002-00-0000-18.png
00000014,904,0,1446831125554,1446831125946,333,445,0,0,0,3,2,1,5,0002-00-0000-93.png,0003-00-0001-64.png
00000014,905,1,1446831129380,1446831129849,401,436,0,0,0,3,4,1,7,0002-00-0000-28.png,0004-00-0000-05.png
00000014,906,1,1446831130794,1446831131447,880,442,0,0,0,4,3,1,7,0004-00-0000-44.png,0002-00-0000-44.png
00000014,907,1,1446831132384,1446831132940,873,490,0,0,0,1,0,1,1,0005-00-0000-89.png,0001-00-0001-79.png
00000014,908,0,1446831133791,1446831134559,903,362,0,0,0,0,1,1,1,0001-00-0000-79.png,0005-00-0000-06.png
00000014,909,0,1446831137573,1446831138022,437,522,0,0,0,2,1,1,3,0003-00-0001-55.png,0005-00-0000-80.png
00000014,910,0,1446831140919,1446831141431,398,420,0,0,0,3,2,1,5,0002-00-0001-91.png,0003-00-0000-97.png
00000014,911,1,1446831144307,1446831144327,516,426,0,0,0,2,3,1,5,0003-00-0001-02.png,0002-00-0001-73.png
00000014,912,0,1446831145363,1446831145920,888,398,0,0,0,1,2,1,3,0005-00-0000-20.png,0003-00-0000-76.png
00000014,913,1,1446831149080,1446831149583,939,345,0,0,0,1,0,1,1,0005-00-0001-48.png,0001-00-0001-84.png
00000014,914,1,1446831150507,1446831150973,453,422,0,0,0,0,1,1,1,0001-00-0001-32.png,0005-00-0001-19.png
00000014,915,1,1446831151932,1446831152441,879,402,0,0,0,2,1,1,3,0003-00-0000-25.png,0005-00-0000-27.png
00000014,916,0,1446831153381,1446831153875,907,393,0,0,0,2,3,1,5,0003-00-0001-92.png,0002-00-0000-61.png
00000014,917,0,1446831156945,1446831156985,520,488,0,0,0,4,3,1,7,0004-00-0000-37.png,0002-00-0001-78.png
00000014,918,1,1446831160001,1446831160774,325,385,0,0,0,1,2,1,3,0005-00-0000-52.png,0003-00-0001-19.png
00000014,919,0,1446831161681,1446831162447,376,384,0,0,0,3,2,1,5,0002-00-0000-97.png,0003-00-0001-79.png
00000014,920,1,1446831165616,1446831166248,401,462,0,0,0,3,4,1,7,0002-00-0000-66.png,0004-00-0001-29.png
00000014,921,1,1446831167387,1446831167909,888,423,0,0,0,4,3,1,7,0004-00-0000-22.png,0002-00-0000-08.png
00000014,922,0,1446831169074,1446831169498,394,454,0,0,0,3,2,1,5,0002-00-0000-83.png,0003-00-0000-16.png
00000014,923,0,1446831173358,1446831174077,926,387,0,0,0,2,3,1,5,0003-00-0000-26.png,0002-00-0001-43.png
00000014,924,1,1446831176926,1446831177351,376,384,0,0,0,0,1,1,1,0001-00-0000-66.png,0005-00-0000-76.png
00000014,925,1,1446831178257,1446831178723,897,421,0,0,0,2,1,1,3,0003-00-0000-93.png,0005-00-0001-07.png
00000014,926,1,1446831179660,1446831180088,365,443,0,0,0,1,2,1,3,0005-00-0000-81.png,0003-00-0000-67.png
00000014,927,1,1446831181065,1446831181843,350,344,0,0,0,3,4,1,7,0002-00-0001-31.png,0004-00-0000-03.png
00000014,928,1,1446831182831,1446831183399,880,402,0,0,0,1,0,1,1,0005-00-0001-39.png,0001-00-0000-27.png
00000014,929,0,1446831184290,1446831184920,886,366,0,0,0,3,4,1,7,0002-00-0000-54.png,0004-00-0001-69.png
00000014,930,1,1446831188014,1446831188499,886,424,0,0,0,2,1,1,3,0003-00-0001-01.png,0005-00-0000-00.png
00000014,931,1,1446831189756,1446831190218,336,430,0,0,0,1,2,1,3,0005-00-0000-13.png,0003-00-0001-62.png
00000014,932,1,1446831191131,1446831191698,881,406,0,0,0,4,3,1,7,0004-00-0001-26.png,0002-00-0000-03.png
00000014,933,1,1446831192690,1446831193091,339,443,0,0,0,0,1,1,1,0001-00-0001-12.png,0005-00-0001-17.png
00000014,934,1,1446831194132,1446831195022,359,363,0,0,0,2,3,1,5,0003-00-0000-85.png,0002-00-0001-85.png
00000014,935,0,1446831195997,1446831196524,442,436,0,0,0,3,2,1,5,0002-00-0001-98.png,0003-00-0001-45.png
00000014,936,1,1446831199594,1446831200399,924,360,0,0,0,1,0,1,1,0005-00-0000-52.png,0001-00-0001-30.png
00000014,937,1,1446831201596,1446831202263,881,400,0,0,0,4,3,1,7,0004-00-0000-77.png,0002-00-0001-70.png
00000014,938,0,1446831203208,1446831203621,410,445,0,0,0,3,2,1,5,0002-00-0001-33.png,0003-00-0001-08.png
00000014,939,1,1446831206841,1446831207327,867,492,0,0,0,2,1,1,3,0003-00-0000-29.png,0005-00-0001-16.png
00000014,940,0,1446831208246,1446831208747,900,410,0,0,0,3,4,1,7,0002-00-0001-45.png,0004-00-0000-49.png
00000014,941,1,1446831212744,1446831213188,378,398,0,0,0,1,2,1,3,0005-00-0001-97.png,0003-00-0000-20.png
00000014,942,1,1446831214117,1446831214620,870,524,0,0,0,1,0,1,1,0005-00-0001-29.png,0001-00-0001-44.png
00000014,943,1,1446831215600,1446831216009,350,436,0,0,0,0,1,1,1,0001-00-0000-80.png,0005-00-0001-82.png
00000014,944,0,1446831217088,1446831217801,871,341,0,0,0,2,3,1,5,0003-00-0001-13.png,0002-00-0001-04.png
00000014,945,1,1446831220855,1446831221491,907,365,0,0,0,2,1,1,3,0003-00-0001-18.png,0005-00-0000-23.png
00000014,946,0,1446831222497,1446831223108,877,390,0,0,0,2,3,1,5,0003-00-0000-27.png,0002-00-0000-26.png
00000014,947,1,1446831226454,1446831226866,348,339,0,0,0,0,1,1,1,0001-00-0001-09.png,0005-00-0000-17.png
00000014,948,1,1446831227814,1446831228327,883,493,0,0,0,4,3,1,7,0004-00-0000-12.png,0002-00-0000-32.png
00000014,949,1,1446831229231,1446831229666,427,463,0,0,0,1,2,1,3,0005-00-0000-50.png,0003-00-0001-86.png
00000014,950,1,1446831230666,1446831231247,881,366,0,0,0,3,2,1,5,0002-00-0000-47.png,0003-00-0001-54.png
00000014,951,0,1446831232236,1446831232741,880,402,0,0,0,3,4,1,7,0002-00-0001-41.png,0004-00-0000-62.png
