subject_id,trial,correct_response,stim_time,response_time,x_coord,y_coord,trial_timeout,timeout_time,interTrial_timeout,left_rank,right_rank,distance,joint_rank,left_image,right_image
00000014,1,0,1446562141349,1446562142185,397,432,0,0,0,4,3,1,7,0004-00-0001-85.png,0002-00-0001-53.png
00000014,2,0,1446562145326,1446562145754,394,405,0,0,0,2,1,1,3,0003-00-0000-60.png,0005-00-0001-77.png
00000014,3,1,1446562148941,1446562149366,362,408,0,0,0,3,4,1,7,0002-00-0000-83.png,0004-00-0000-42.png
00000014,4,0,1446562150434,1446562150987,948,393,0,0,0,2,3,1,5,0003-00-0000-96.png,0002-00-0001-86.png
00000014,5,1,1446562153992,1446562154488,357,412,0,0,0,1,2,1,3,0005-00-0001-62.png,0003-00-0001-07.png
00000014,6,0,1446562155518,1446562156320,358,418,0,0,0,3,2,1,5,0002-00-0001-33.png,0003-00-0001-10.png
00000014,7,0,1446562159368,1446562159974,394,399,0,0,0,1,0,1,1,0005-00-0000-87.png,0001-00-0000-59.png
00000014,8,1,1446562163474,1446562164153,384,415,0,0,0,0,1,1,1,0001-00-0000-23.png,0005-00-0000-80.png
00000014,9,1,1446562165222,1446562166001,378,402,0,0,0,1,2,1,3,0005-00-0001-92.png,0003-00-0000-49.png
00000014,10,0,1446562167051,1446562167710,367,401,0,0,0,4,3,1,7,0004-00-0001-32.png,0002-00-0000-08.png
00000014,11,1,1446562171343,1446562171944,364,412,0,0,0,2,3,1,5,0003-00-0000-42.png,0002-00-0001-12.png
00000014,12,1,1446562173054,1446562173668,358,418,0,0,0,0,1,1,1,0001-00-0000-85.png,0005-00-0001-48.png
00000014,13,0,1446562174704,1446562175553,377,450,0,0,0,1,0,1,1,0005-00-0000-67.png,0001-00-0001-32.png
00000014,14,1,1446562180851,1446562181567,885,383,0,0,0,2,1,1,3,0003-00-0001-88.png,0005-00-0000-21.png
00000014,15,0,1446562182605,1446562183198,416,525,0,0,0,3,2,1,5,0002-00-0001-82.png,0003-00-0000-65.png
00000014,16,1,1446562186182,1446562186707,374,442,0,0,0,3,4,1,7,0002-00-0001-70.png,0004-00-0001-01.png
00000014,17,0,1446562187683,1446562188356,929,411,0,0,0,2,3,1,5,0003-00-0000-73.png,0002-00-0000-29.png
00000014,18,1,1446562192444,1446562193298,370,409,0,0,0,1,2,1,3,0005-00-0000-38.png,0003-00-0000-33.png
00000014,19,1,1446562194320,1446562194890,347,418,0,0,0,3,4,1,7,0002-00-0001-64.png,0004-00-0001-66.png
00000014,20,1,1446562195964,1446562196569,886,415,0,0,0,1,0,1,1,0005-00-0001-15.png,0001-00-0000-17.png
00000014,21,0,1446562197595,1446562198156,360,413,0,0,0,4,3,1,7,0004-00-0001-56.png,0002-00-0000-46.png
00000014,22,0,1446562201161,1446562201732,392,545,0,0,0,3,2,1,5,0002-00-0000-03.png,0003-00-0000-43.png
00000014,23,0,1446562204760,1446562205789,354,397,0,0,0,2,1,1,3,0003-00-0001-61.png,0005-00-0001-98.png
00000014,24,1,1446562208833,1446562209301,382,505,0,0,0,0,1,1,1,0001-00-0001-33.png,0005-00-0001-98.png
00000014,25,0,1446562210563,1446562211401,299,406,0,0,0,3,2,1,5,0002-00-0001-11.png,0003-00-0001-52.png
00000014,26,1,1446562214738,1446562215715,933,425,0,0,0,2,1,1,3,0003-00-0001-26.png,0005-00-0001-20.png
00000014,27,1,1446562216666,1446562217267,348,420,0,0,0,3,4,1,7,0002-00-0000-01.png,0004-00-0000-10.png
00000014,28,1,1446562218477,1446562219068,921,420,0,0,0,1,0,1,1,0005-00-0000-32.png,0001-00-0000-20.png
00000014,29,1,1446562220137,1446562220857,352,418,0,0,0,0,1,1,1,0001-00-0000-34.png,0005-00-0000-81.png
00000014,30,0,1446562221953,1446562222551,903,426,0,0,0,2,3,1,5,0003-00-0001-49.png,0002-00-0001-79.png
00000014,31,1,1446562225522,1446562226354,883,367,0,0,0,4,3,1,7,0004-00-0000-80.png,0002-00-0001-01.png
00000014,32,1,1446562227890,1446562228554,375,410,0,0,0,1,2,1,3,0005-00-0001-67.png,0003-00-0000-22.png
00000014,33,1,1446562229509,1446562230191,359,462,0,0,0,0,1,1,1,0001-00-0001-40.png,0005-00-0000-81.png
00000014,34,0,1446562231348,1446562232053,335,449,0,0,0,4,3,1,7,0004-00-0001-99.png,0002-00-0001-88.png
00000014,35,1,1446562235071,1446562235699,329,404,0,0,0,2,3,1,5,0003-00-0001-80.png,0002-00-0001-29.png
00000014,36,0,1446562236706,1446562237437,897,420,0,0,0,3,4,1,7,0002-00-0000-91.png,0004-00-0001-42.png
00000014,37,0,1446562241010,1446562241602,349,404,0,0,0,2,1,1,3,0003-00-0001-19.png,0005-00-0000-23.png
00000014,38,1,1446562244685,1446562245246,311,400,0,0,0,1,2,1,3,0005-00-0000-81.png,0003-00-0000-41.png
00000014,39,0,1446562246207,1446562247138,359,430,0,0,0,3,2,1,5,0002-00-0001-25.png,0003-00-0001-82.png
00000014,40,0,1446562250486,1446562251051,309,430,0,0,0,1,0,1,1,0005-00-0001-70.png,0001-00-0000-84.png
00000014,41,1,1446562254260,1446562255198,949,405,0,0,0,4,3,1,7,0004-00-0000-05.png,0002-00-0000-27.png
00000014,42,0,1446562256158,1446562257166,874,554,0,0,0,1,2,1,3,0005-00-0000-94.png,0003-00-0000-85.png
00000014,43,1,1446562260061,1446562260961,957,375,0,0,0,2,1,1,3,0003-00-0000-34.png,0005-00-0000-69.png
00000014,44,1,1446562261940,1446562262835,350,461,0,0,0,0,1,1,1,0001-00-0001-23.png,0005-00-0000-57.png
00000014,45,0,1446562263832,1446562264504,357,424,0,0,0,3,2,1,5,0002-00-0001-56.png,0003-00-0000-30.png
00000014,46,1,1446562267786,1446562268626,886,440,0,0,0,1,0,1,1,0005-00-0001-59.png,0001-00-0001-91.png
00000014,47,1,1446562269606,1446562270398,378,440,0,0,0,3,4,1,7,0002-00-0001-26.png,0004-00-0000-24.png
00000014,48,0,1446562271465,1446562272176,866,416,0,0,0,2,3,1,5,0003-00-0001-89.png,0002-00-0001-34.png
00000014,49,1,1446562275151,1446562276005,890,393,0,0,0,4,3,1,7,0004-00-0001-44.png,0002-00-0001-45.png
00000014,50,1,1446562276961,1446562277573,356,430,0,0,0,3,4,1,7,0002-00-0000-64.png,0004-00-0001-48.png
00000014,51,1,1446562278624,1446562279270,867,499,0,0,0,2,1,1,3,0003-00-0001-05.png,0005-00-0000-77.png
00000014,52,1,1446562280312,1446562281126,888,448,0,0,0,1,0,1,1,0005-00-0000-63.png,0001-00-0001-80.png
00000014,53,0,1446562282221,1446562282784,358,448,0,0,0,3,2,1,5,0002-00-0000-17.png,0003-00-0001-33.png
00000014,54,1,1446562285886,1446562286850,378,408,0,0,0,1,2,1,3,0005-00-0001-27.png,0003-00-0001-10.png
00000014,55,0,1446562287955,1446562288902,897,445,0,0,0,2,3,1,5,0003-00-0000-66.png,0002-00-0001-93.png
00000014,56,1,1446562291960,1446562292601,344,414,0,0,0,0,1,1,1,0001-00-0001-90.png,0005-00-0001-47.png
00000014,57,1,1446562293589,1446562294246,922,434,0,0,0,4,3,1,7,0004-00-0000-47.png,0002-00-0000-45.png
00000014,58,0,1446562295609,1446562296162,875,443,0,0,0,2,3,1,5,0003-00-0001-83.png,0002-00-0001-11.png
00000014,59,0,1446562299346,1446562300127,413,388,0,0,0,1,0,1,1,0005-00-0000-79.png,0001-00-0001-40.png
00000014,60,1,1446562303170,1446562304015,862,358,0,0,0,2,1,1,3,0003-00-0001-85.png,0005-00-0000-07.png
00000014,61,1,1446562305020,1446562305945,377,497,0,0,0,1,2,1,3,0005-00-0000-83.png,0003-00-0000-71.png
00000014,62,0,1446562307684,1446562308306,877,434,0,0,0,0,1,1,1,0001-00-0000-34.png,0005-00-0000-84.png
00000014,63,1,1446562311252,1446562311985,345,394,0,0,0,3,4,1,7,0002-00-0000-49.png,0004-00-0000-90.png
00000014,64,0,1446562312971,1446562313882,325,409,0,0,0,3,2,1,5,0002-00-0001-30.png,0003-00-0001-38.png
00000014,65,0,1446562317808,1446562318438,378,399,0,0,0,1,0,1,1,0005-00-0001-63.png,0001-00-0000-94.png
00000014,66,0,1446562321349,1446562321904,350,528,0,0,0,3,2,1,5,0002-00-0001-19.png,0003-00-0001-93.png
00000014,67,0,1446562325702,1446562326434,379,392,0,0,0,2,1,1,3,0003-00-0000-55.png,0005-00-0001-73.png
00000014,68,1,1446562329371,1446562329914,932,426,0,0,0,4,3,1,7,0004-00-0001-13.png,0002-00-0000-34.png
00000014,69,1,1446562331003,1446562331555,342,421,0,0,0,0,1,1,1,0001-00-0000-67.png,0005-00-0000-12.png
00000014,70,0,1446562332727,1446562333234,927,410,0,0,0,2,3,1,5,0003-00-0000-61.png,0002-00-0000-45.png
00000014,71,1,1446562336390,1446562337319,401,362,0,0,0,1,2,1,3,0005-00-0001-49.png,0003-00-0000-14.png
00000014,72,1,1446562338334,1446562339129,384,548,0,0,0,3,4,1,7,0002-00-0000-53.png,0004-00-0000-45.png
00000014,73,0,1446562340096,1446562340965,373,403,0,0,0,2,1,1,3,0003-00-0000-30.png,0005-00-0001-86.png
00000014,74,1,1446562344819,1446562345552,328,420,0,0,0,0,1,1,1,0001-00-0000-01.png,0005-00-0001-89.png
00000014,75,0,1446562346528,1446562347153,895,499,0,0,0,2,3,1,5,0003-00-0000-88.png,0002-00-0001-52.png
00000014,76,1,1446562350950,1446562351537,380,414,0,0,0,1,2,1,3,0005-00-0000-00.png,0003-00-0000-60.png
00000014,77,0,1446562352600,1446562353561,351,416,0,0,0,1,0,1,1,0005-00-0000-13.png,0001-00-0001-50.png
00000014,78,0,1446562356855,1446562357735,338,369,0,0,0,4,3,1,7,0004-00-0001-57.png,0002-00-0000-99.png
00000014,79,0,1446562360930,1446562361662,338,424,0,0,0,3,2,1,5,0002-00-0000-33.png,0003-00-0001-51.png
00000014,80,1,1446562368336,1446562368897,213,558,0,0,0,3,4,1,7,0002-00-0001-95.png,0004-00-0001-21.png
00000014,81,1,1446562369838,1446562370470,894,471,0,0,0,4,3,1,7,0004-00-0000-47.png,0002-00-0000-10.png
00000014,82,0,1446562371618,1446562372202,363,448,0,0,0,2,1,1,3,0003-00-0000-65.png,0005-00-0001-56.png
00000014,83,1,1446562375503,1446562376023,401,488,0,0,0,2,3,1,5,0003-00-0000-90.png,0002-00-0000-66.png
00000014,84,0,1446562377084,1446562377700,927,529,0,0,0,3,4,1,7,0002-00-0001-67.png,0004-00-0000-87.png
00000014,85,0,1446562380728,1446562381419,358,413,0,0,0,1,0,1,1,0005-00-0000-83.png,0001-00-0000-11.png
00000014,86,1,1446562385255,1446562385933,360,387,0,0,0,0,1,1,1,0001-00-0000-31.png,0005-00-0000-43.png
00000014,87,1,1446562386948,1446562387628,349,430,0,0,0,1,2,1,3,0005-00-0000-55.png,0003-00-0000-78.png
00000014,88,0,1446562388673,1446562389276,375,457,0,0,0,3,2,1,5,0002-00-0001-57.png,0003-00-0001-35.png
00000014,89,1,1446562393876,1446562394494,947,445,0,0,0,2,1,1,3,0003-00-0000-92.png,0005-00-0001-06.png
00000014,90,0,1446562395532,1446562396197,379,447,0,0,0,1,0,1,1,0005-00-0001-47.png,0001-00-0000-81.png
00000014,91,1,1446562399845,1446562400367,341,438,0,0,0,2,3,1,5,0003-00-0000-54.png,0002-00-0000-08.png
00000014,92,1,1446562401485,1446562402273,360,421,0,0,0,3,4,1,7,0002-00-0000-63.png,0004-00-0000-91.png
00000014,93,0,1446562403421,1446562404449,358,390,0,0,0,4,3,1,7,0004-00-0000-97.png,0002-00-0001-74.png
00000014,94,1,1446562407636,1446562408260,313,394,0,0,0,0,1,1,1,0001-00-0000-50.png,0005-00-0001-43.png
00000014,95,0,1446562409315,1446562409888,359,420,0,0,0,3,2,1,5,0002-00-0000-43.png,0003-00-0000-47.png
00000014,96,1,1446562422012,1446562422393,359,378,0,0,0,1,2,1,3,0005-00-0000-83.png,0003-00-0001-76.png
00000014,97,0,1446562423547,1446562424179,334,449,0,0,0,2,1,1,3,0003-00-0000-98.png,0005-00-0001-68.png
00000014,98,0,1446562427021,1446562427541,875,502,0,0,0,2,3,1,5,0003-00-0000-86.png,0002-00-0001-02.png
00000014,99,1,1446562430763,1446562431514,339,397,0,0,0,3,4,1,7,0002-00-0000-64.png,0004-00-0001-10.png
00000014,100,1,1446562432696,1446562433499,380,428,0,0,0,1,2,1,3,0005-00-0001-82.png,0003-00-0001-42.png
00000014,101,0,1446562434626,1446562435357,359,430,0,0,0,3,2,1,5,0002-00-0000-78.png,0003-00-0000-91.png
00000014,102,1,1446562438671,1446562439536,360,373,0,0,0,0,1,1,1,0001-00-0000-54.png,0005-00-0000-30.png
00000014,103,1,1446562440579,1446562441212,875,519,0,0,0,1,0,1,1,0005-00-0001-98.png,0001-00-0000-58.png
00000014,104,0,1446562442371,1446562443236,342,431,0,0,0,4,3,1,7,0004-00-0001-56.png,0002-00-0000-80.png
00000014,105,1,1446562446416,1446562447126,316,412,0,0,0,0,1,1,1,0001-00-0000-19.png,0005-00-0000-00.png
00000014,106,1,1446562448344,1446562449055,313,399,0,0,0,3,4,1,7,0002-00-0001-02.png,0004-00-0001-66.png
00000014,107,0,1446562450290,1446562451181,370,422,0,0,0,3,2,1,5,0002-00-0000-47.png,0003-00-0000-89.png
00000014,108,0,1446562454307,1446562455336,382,398,0,0,0,2,1,1,3,0003-00-0001-38.png,0005-00-0001-87.png
00000014,109,1,1446562458562,1446562459584,418,403,0,0,0,1,2,1,3,0005-00-0001-33.png,0003-00-0001-32.png
00000014,110,0,1446562460674,1446562461323,929,442,0,0,0,2,3,1,5,0003-00-0001-07.png,0002-00-0001-99.png
00000014,111,1,1446562464366,1446562465066,878,546,0,0,0,1,0,1,1,0005-00-0000-25.png,0001-00-0001-49.png
00000014,112,0,1446562466105,1446562466827,338,408,0,0,0,4,3,1,7,0004-00-0000-41.png,0002-00-0001-50.png
00000014,113,1,1446562470000,1446562470884,376,477,0,0,0,3,4,1,7,0002-00-0001-55.png,0004-00-0001-36.png
00000014,114,1,1446562472010,1446562472604,318,401,0,0,0,0,1,1,1,0001-00-0001-27.png,0005-00-0001-07.png
00000014,115,1,1446562473739,1446562474888,935,412,0,0,0,2,1,1,3,0003-00-0000-57.png,0005-00-0000-13.png
00000014,116,1,1446562476045,1446562477267,896,497,0,0,0,4,3,1,7,0004-00-0000-56.png,0002-00-0000-77.png
00000014,117,0,1446562478381,1446562479026,901,424,0,0,0,2,3,1,5,0003-00-0000-26.png,0002-00-0001-64.png
00000014,118,1,1446562482208,1446562483064,906,401,0,0,0,1,0,1,1,0005-00-0000-64.png,0001-00-0000-93.png
00000014,119,0,1446562484076,1446562484762,332,404,0,0,0,3,2,1,5,0002-00-0000-94.png,0003-00-0001-53.png
00000014,120,0,1446562487893,1446562488795,876,556,0,0,0,1,2,1,3,0005-00-0000-88.png,0003-00-0000-07.png
00000014,121,1,1446562491938,1446562492693,892,387,0,0,0,1,0,1,1,0005-00-0000-46.png,0001-00-0001-31.png
00000014,122,0,1446562493777,1446562494471,332,401,0,0,0,3,2,1,5,0002-00-0001-08.png,0003-00-0001-69.png
00000014,123,1,1446562497352,1446562497861,338,401,0,0,0,0,1,1,1,0001-00-0001-85.png,0005-00-0000-61.png
00000014,124,0,1446562498903,1446562499948,877,470,0,0,0,1,2,1,3,0005-00-0001-73.png,0003-00-0001-81.png
00000014,125,1,1446562503000,1446562503616,321,366,0,0,0,3,4,1,7,0002-00-0000-98.png,0004-00-0001-30.png
00000014,126,0,1446562504631,1446562505495,382,376,0,0,0,2,1,1,3,0003-00-0001-85.png,0005-00-0000-40.png
00000014,127,0,1446562508638,1446562509305,894,363,0,0,0,2,3,1,5,0003-00-0000-56.png,0002-00-0000-38.png
00000014,128,0,1446562512632,1446562513201,352,394,0,0,0,4,3,1,7,0004-00-0000-14.png,0002-00-0000-31.png
00000014,129,1,1446562516469,1446562517143,356,404,0,0,0,1,2,1,3,0005-00-0001-92.png,0003-00-0000-40.png
00000014,130,1,1446562518380,1446562518923,898,431,0,0,0,4,3,1,7,0004-00-0000-56.png,0002-00-0000-32.png
00000014,131,1,1446562520615,1446562521242,900,437,0,0,0,1,0,1,1,0005-00-0001-53.png,0001-00-0001-92.png
00000014,132,0,1446562522276,1446562523162,380,403,0,0,0,3,2,1,5,0002-00-0001-98.png,0003-00-0000-16.png
00000014,133,0,1446562526349,1446562527487,364,365,0,0,0,2,1,1,3,0003-00-0000-71.png,0005-00-0001-78.png
00000014,134,1,1446562530704,1446562531717,350,354,0,0,0,3,4,1,7,0002-00-0000-08.png,0004-00-0000-67.png
00000014,135,1,1446562532926,1446562533561,334,439,0,0,0,0,1,1,1,0001-00-0001-39.png,0005-00-0001-64.png
00000014,136,0,1446562534828,1446562535458,898,432,0,0,0,2,3,1,5,0003-00-0000-29.png,0002-00-0000-55.png
00000014,137,0,1446562539247,1446562539882,928,440,0,0,0,2,3,1,5,0003-00-0000-89.png,0002-00-0001-43.png
00000014,138,0,1446562542938,1446562543662,330,392,0,0,0,3,2,1,5,0002-00-0000-79.png,0003-00-0001-04.png
00000014,139,1,1446562547211,1446562548191,399,379,0,0,0,1,2,1,3,0005-00-0001-58.png,0003-00-0001-54.png
00000014,140,0,1446562549409,1446562550369,378,506,0,0,0,4,3,1,7,0004-00-0000-74.png,0002-00-0000-59.png
00000014,141,1,1446562553922,1446562554553,349,394,0,0,0,0,1,1,1,0001-00-0000-20.png,0005-00-0000-29.png
00000014,142,1,1446562555781,1446562556828,931,386,0,0,0,2,1,1,3,0003-00-0001-26.png,0005-00-0000-85.png
00000014,143,1,1446562557946,1446562558661,380,440,0,0,0,3,4,1,7,0002-00-0000-41.png,0004-00-0000-67.png
00000014,144,0,1446562560312,1446562561097,379,406,0,0,0,1,0,1,1,0005-00-0001-16.png,0001-00-0001-45.png
00000014,145,1,1446562564179,1446562565045,925,412,0,0,0,4,3,1,7,0004-00-0000-44.png,0002-00-0001-49.png
00000014,146,0,1446562566307,1446562567410,912,398,0,0,0,1,2,1,3,0005-00-0001-42.png,0003-00-0000-34.png
00000014,147,0,1446562571165,1446562571960,936,419,0,0,0,2,3,1,5,0003-00-0001-08.png,0002-00-0000-19.png
00000014,148,0,1446562574993,1446562575707,918,410,0,0,0,3,4,1,7,0002-00-0001-25.png,0004-00-0000-16.png
00000014,149,1,1446562578637,1446562579691,899,507,0,0,0,1,0,1,1,0005-00-0000-21.png,0001-00-0001-87.png
00000014,150,0,1446562580887,1446562581648,396,410,0,0,0,3,2,1,5,0002-00-0001-13.png,0003-00-0000-19.png
00000014,151,1,1446562584499,1446562585038,355,382,0,0,0,0,1,1,1,0001-00-0001-53.png,0005-00-0000-13.png
00000014,152,1,1446562586155,1446562587133,905,470,0,0,0,2,1,1,3,0003-00-0000-15.png,0005-00-0000-37.png
00000014,153,1,1446562588363,1446562589749,873,391,0,0,0,2,1,1,3,0003-00-0001-02.png,0005-00-0001-21.png
00000014,154,0,1446562590926,1446562591552,337,449,0,0,0,3,2,1,5,0002-00-0001-61.png,0003-00-0000-65.png
00000014,155,0,1446562594940,1446562595770,901,358,0,0,0,2,3,1,5,0003-00-0000-59.png,0002-00-0000-33.png
00000014,156,1,1446562599599,1446562600090,419,453,0,0,0,1,2,1,3,0005-00-0000-91.png,0003-00-0001-05.png
00000014,157,1,1446562601193,1446562601872,865,413,0,0,0,1,0,1,1,0005-00-0001-18.png,0001-00-0000-38.png
00000014,158,0,1446562603062,1446562604026,954,417,0,0,0,3,4,1,7,0002-00-0001-49.png,0004-00-0000-90.png
00000014,159,1,1446562608934,1446562609569,921,466,0,0,0,4,3,1,7,0004-00-0000-71.png,0002-00-0000-35.png
00000014,160,0,1446562610554,1446562611227,879,443,0,0,0,0,1,1,1,0001-00-0000-07.png,0005-00-0001-40.png
00000014,161,1,1446562615505,1446562616209,349,402,0,0,0,1,2,1,3,0005-00-0000-97.png,0003-00-0000-30.png
00000014,162,1,1446562617740,1446562618653,950,442,0,0,0,2,1,1,3,0003-00-0000-37.png,0005-00-0000-09.png
00000014,163,1,1446562620285,1446562621018,337,446,0,0,0,0,1,1,1,0001-00-0000-25.png,0005-00-0001-97.png
00000014,164,0,1446562622234,1446562623301,919,455,0,0,0,2,3,1,5,0003-00-0000-21.png,0002-00-0001-07.png
00000014,165,0,1446562628504,1446562629172,330,389,0,0,0,3,2,1,5,0002-00-0001-72.png,0003-00-0001-07.png
00000014,166,1,1446562633384,1446562634025,913,397,0,0,0,1,0,1,1,0005-00-0001-71.png,0001-00-0001-17.png
00000014,167,0,1446562635679,1446562636421,876,445,0,0,0,3,4,1,7,0002-00-0000-53.png,0004-00-0000-30.png
00000014,168,0,1446562639342,1446562639940,354,381,0,0,0,4,3,1,7,0004-00-0000-76.png,0002-00-0000-82.png
00000014,169,1,1446562643263,1446562644029,329,389,0,0,0,3,4,1,7,0002-00-0001-43.png,0004-00-0000-52.png
00000014,170,1,1446562645089,1446562645803,376,424,0,0,0,0,1,1,1,0001-00-0000-81.png,0005-00-0001-57.png
00000014,171,1,1446562646902,1446562647965,440,423,0,0,0,1,2,1,3,0005-00-0000-09.png,0003-00-0000-60.png
00000014,172,1,1446562649047,1446562649653,875,462,0,0,0,1,0,1,1,0005-00-0001-00.png,0001-00-0000-05.png
00000014,173,0,1446562650647,1446562651211,375,433,0,0,0,3,2,1,5,0002-00-0000-66.png,0003-00-0001-59.png
00000014,174,0,1446562655468,1446562656004,875,528,0,0,0,2,3,1,5,0003-00-0000-15.png,0002-00-0001-44.png
00000014,175,1,1446562660972,1446562661756,920,442,0,0,0,2,1,1,3,0003-00-0000-33.png,0005-00-0001-20.png
00000014,176,0,1446562662829,1446562663536,350,437,0,0,0,4,3,1,7,0004-00-0001-81.png,0002-00-0001-73.png
00000014,177,1,1446562667284,1446562668107,416,467,0,0,0,1,2,1,3,0005-00-0001-85.png,0003-00-0000-96.png
00000014,178,0,1446562669112,1446562669885,881,381,0,0,0,3,4,1,7,0002-00-0001-70.png,0004-00-0001-40.png
00000014,179,0,1446562673309,1446562674082,311,398,0,0,0,1,0,1,1,0005-00-0000-43.png,0001-00-0000-01.png
00000014,180,1,1446562678923,1446562679578,354,393,0,0,0,0,1,1,1,0001-00-0001-34.png,0005-00-0000-64.png
00000014,181,0,1446562680600,1446562681416,349,394,0,0,0,3,2,1,5,0002-00-0001-01.png,0003-00-0001-84.png
00000014,182,0,1446562684975,1446562685680,900,449,0,0,0,2,3,1,5,0003-00-0000-90.png,0002-00-0000-45.png
00000014,183,0,1446562688830,1446562689312,376,388,0,0,0,2,1,1,3,0003-00-0001-45.png,0005-00-0001-79.png
00000014,184,0,1446562692713,1446562693588,392,428,0,0,0,4,3,1,7,0004-00-0000-41.png,0002-00-0000-25.png
00000014,185,0,1446562696442,1446562697206,926,410,0,0,0,2,3,1,5,0003-00-0000-86.png,0002-00-0001-43.png
00000014,186,1,1446562700615,1446562701367,931,454,0,0,0,1,0,1,1,0005-00-0001-75.png,0001-00-0001-49.png
00000014,187,0,1446562702378,1446562703297,889,419,0,0,0,1,2,1,3,0005-00-0001-58.png,0003-00-0001-47.png
00000014,188,0,1446562706742,1446562707628,358,376,0,0,0,3,2,1,5,0002-00-0000-46.png,0003-00-0001-57.png
00000014,189,1,1446562710960,1446562711910,930,402,0,0,0,2,1,1,3,0003-00-0000-18.png,0005-00-0001-51.png
00000014,190,1,1446562712972,1446562713719,297,442,0,0,0,3,4,1,7,0002-00-0001-64.png,0004-00-0000-45.png
00000014,191,1,1446562714856,1446562715485,925,423,0,0,0,4,3,1,7,0004-00-0000-48.png,0002-00-0000-81.png
00000014,192,1,1446562717022,1446562717627,328,379,0,0,0,0,1,1,1,0001-00-0000-62.png,0005-00-0001-65.png
00000014,193,0,1446562718869,1446562719514,912,464,0,0,0,2,3,1,5,0003-00-0000-86.png,0002-00-0001-59.png
00000014,194,1,1446562722537,1446562723259,905,348,0,0,0,2,1,1,3,0003-00-0000-91.png,0005-00-0001-14.png
00000014,195,1,1446562724266,1446562724955,352,442,0,0,0,3,4,1,7,0002-00-0001-06.png,0004-00-0001-17.png
00000014,196,0,1446562726125,1446562726792,309,420,0,0,0,3,2,1,5,0002-00-0001-40.png,0003-00-0001-95.png
00000014,197,1,1446562729982,1446562730694,950,406,0,0,0,1,0,1,1,0005-00-0000-65.png,0001-00-0001-47.png
00000014,198,0,1446562731801,1446562732812,905,375,0,0,0,1,2,1,3,0005-00-0000-94.png,0003-00-0001-62.png
00000014,199,1,1446562737107,1446562737635,895,445,0,0,0,4,3,1,7,0004-00-0000-51.png,0002-00-0001-70.png
00000014,200,0,1446562738678,1446562739670,895,343,0,0,0,0,1,1,1,0001-00-0001-72.png,0005-00-0001-16.png
00000014,201,0,1446562753091,1446562753587,302,381,0,0,0,3,2,1,5,0002-00-0001-24.png,0003-00-0001-41.png
00000014,202,1,1446562758126,1446562758764,314,412,0,0,0,0,1,1,1,0001-00-0000-76.png,0005-00-0000-31.png
00000014,203,0,1446562760358,1446562761294,320,401,0,0,0,4,3,1,7,0004-00-0001-29.png,0002-00-0001-25.png
00000014,204,0,1446562770989,1446562771861,332,381,0,0,0,1,0,1,1,0005-00-0001-62.png,0001-00-0000-22.png
00000014,205,0,1446562776445,1446562777379,950,514,0,0,0,2,3,1,5,0003-00-0000-20.png,0002-00-0000-68.png
00000014,206,1,1446562783848,1446562784519,346,388,0,0,0,3,4,1,7,0002-00-0000-51.png,0004-00-0001-96.png
00000014,207,0,1446562785979,1446562786961,949,410,0,0,0,1,2,1,3,0005-00-0000-70.png,0003-00-0001-55.png
00000014,208,1,1446562798385,1446562799108,933,450,0,0,0,2,1,1,3,0003-00-0001-27.png,0005-00-0000-22.png
00000014,209,0,1446562800830,1446562801530,898,543,0,0,0,2,3,1,5,0003-00-0001-27.png,0002-00-0000-92.png
00000014,210,1,1446562805281,1446562806187,931,496,0,0,0,1,0,1,1,0005-00-0001-03.png,0001-00-0001-94.png
00000014,211,1,1446562807485,1446562808471,376,446,0,0,0,3,4,1,7,0002-00-0001-88.png,0004-00-0000-87.png
00000014,212,0,1446562809555,1446562810334,337,449,0,0,0,3,2,1,5,0002-00-0001-01.png,0003-00-0000-63.png
00000014,213,0,1446562822017,1446562823054,434,453,0,0,0,2,1,1,3,0003-00-0000-18.png,0005-00-0001-90.png
00000014,214,1,1446562828188,1446562829175,440,462,0,0,0,1,2,1,3,0005-00-0001-78.png,0003-00-0001-06.png
00000014,215,1,1446562831172,1446562831905,901,424,0,0,0,4,3,1,7,0004-00-0001-89.png,0002-00-0000-37.png
00000014,216,1,1446562833292,1446562833889,358,433,0,0,0,0,1,1,1,0001-00-0000-28.png,0005-00-0001-89.png
00000014,217,0,1446562835009,1446562835704,867,408,0,0,0,2,3,1,5,0003-00-0001-60.png,0002-00-0000-56.png
00000014,218,1,1446562839243,1446562840153,381,364,0,0,0,1,2,1,3,0005-00-0001-51.png,0003-00-0000-78.png
00000014,219,1,1446562841406,1446562842518,932,389,0,0,0,2,1,1,3,0003-00-0001-96.png,0005-00-0001-76.png
00000014,220,0,1446562843708,1446562844437,378,440,0,0,0,3,2,1,5,0002-00-0001-85.png,0003-00-0001-71.png
00000014,221,1,1446562851565,1446562853534,374,426,0,0,0,3,4,1,7,0002-00-0000-72.png,0004-00-0001-82.png
00000014,222,1,1446562854641,1446562855248,316,431,0,0,0,0,1,1,1,0001-00-0000-78.png,0005-00-0001-66.png
00000014,223,1,1446562856479,1446562857299,930,454,0,0,0,4,3,1,7,0004-00-0000-82.png,0002-00-0000-92.png
00000014,224,1,1446562858485,1446562859179,918,466,0,0,0,1,0,1,1,0005-00-0000-24.png,0001-00-0000-86.png
00000014,225,1,1446562860256,1446562862204,350,397,0,0,0,1,2,1,3,0005-00-0000-12.png,0003-00-0000-13.png
00000014,226,0,1446562863271,1446562863939,902,443,0,0,0,3,4,1,7,0002-00-0001-70.png,0004-00-0001-42.png
00000014,227,1,1446562870979,1446562871765,957,454,0,0,0,1,0,1,1,0005-00-0001-90.png,0001-00-0001-32.png
00000014,228,0,1446562873585,1446562874342,357,412,0,0,0,2,1,1,3,0003-00-0000-62.png,0005-00-0000-86.png
00000014,229,0,1446562877550,1446562878150,376,379,0,0,0,3,2,1,5,0002-00-0000-49.png,0003-00-0000-66.png
00000014,230,1,1446562886682,1446562887290,324,390,0,0,0,0,1,1,1,0001-00-0001-80.png,0005-00-0001-30.png
00000014,231,0,1446562888597,1446562889302,896,535,0,0,0,2,3,1,5,0003-00-0000-66.png,0002-00-0000-39.png
00000014,232,0,1446562893796,1446562894489,362,401,0,0,0,4,3,1,7,0004-00-0001-73.png,0002-00-0001-05.png
00000014,233,0,1446562900874,1446562901531,346,395,0,0,0,3,2,1,5,0002-00-0001-93.png,0003-00-0001-34.png
00000014,234,0,1446562904575,1446562905149,332,419,0,0,0,4,3,1,7,0004-00-0001-07.png,0002-00-0000-73.png
00000014,235,0,1446562908868,1446562909750,356,392,0,0,0,1,0,1,1,0005-00-0000-61.png,0001-00-0000-64.png
00000014,236,1,1446562913979,1446562914532,334,423,0,0,0,0,1,1,1,0001-00-0001-64.png,0005-00-0001-65.png
00000014,237,1,1446562915906,1446562916629,343,413,0,0,0,3,4,1,7,0002-00-0001-41.png,0004-00-0000-53.png
00000014,238,0,1446562917745,1446562919360,903,486,0,0,0,1,2,1,3,0005-00-0000-43.png,0003-00-0000-28.png
00000014,239,0,1446562922974,1446562923528,390,415,0,0,0,2,1,1,3,0003-00-0001-94.png,0005-00-0000-98.png
00000014,240,0,1446562927152,1446562927806,892,374,0,0,0,2,3,1,5,0003-00-0001-93.png,0002-00-0001-27.png
00000014,241,1,1446562940031,1446562940549,350,390,0,0,0,3,4,1,7,0002-00-0000-45.png,0004-00-0001-12.png
00000014,242,0,1446562941789,1446562942423,915,454,0,0,0,2,3,1,5,0003-00-0000-41.png,0002-00-0000-96.png
00000014,243,1,1446562946494,1446562947220,928,449,0,0,0,2,1,1,3,0003-00-0000-30.png,0005-00-0000-35.png
00000014,244,1,1446562948275,1446562948970,353,430,0,0,0,0,1,1,1,0001-00-0001-16.png,0005-00-0000-83.png
00000014,245,1,1446562949966,1446562950753,368,413,0,0,0,1,2,1,3,0005-00-0001-22.png,0003-00-0000-47.png
00000014,246,0,1446562951780,1446562952715,379,390,0,0,0,3,2,1,5,0002-00-0001-70.png,0003-00-0000-69.png
00000014,247,1,1446562956454,1446562957181,937,448,0,0,0,1,0,1,1,0005-00-0001-24.png,0001-00-0000-89.png
00000014,248,1,1446562958368,1446562959220,882,502,0,0,0,4,3,1,7,0004-00-0000-34.png,0002-00-0001-44.png
00000014,249,1,1446562960550,1446562961211,354,442,0,0,0,3,4,1,7,0002-00-0000-72.png,0004-00-0001-68.png
00000014,250,0,1446562962199,1446562963118,890,538,0,0,0,2,3,1,5,0003-00-0000-62.png,0002-00-0000-50.png
00000014,251,1,1446562966533,1446562967255,395,505,0,0,0,1,2,1,3,0005-00-0001-31.png,0003-00-0001-81.png
00000014,252,1,1446562968530,1446562969339,898,517,0,0,0,2,1,1,3,0003-00-0001-33.png,0005-00-0000-07.png
00000014,253,0,1446562970916,1446562971606,332,401,0,0,0,4,3,1,7,0004-00-0001-71.png,0002-00-0001-90.png
00000014,254,0,1446562975623,1446562976259,374,411,0,0,0,3,2,1,5,0002-00-0001-41.png,0003-00-0000-67.png
00000014,255,1,1446562979912,1446562980735,953,398,0,0,0,1,0,1,1,0005-00-0000-32.png,0001-00-0001-28.png
00000014,256,1,1446562981899,1446562982606,359,430,0,0,0,0,1,1,1,0001-00-0000-83.png,0005-00-0000-02.png
00000014,257,0,1446562983737,1446562984452,325,412,0,0,0,3,2,1,5,0002-00-0000-38.png,0003-00-0000-44.png
00000014,258,0,1446562988010,1446562988825,880,400,0,0,0,1,2,1,3,0005-00-0000-31.png,0003-00-0001-56.png
00000014,259,1,1446562992492,1446562993275,920,440,0,0,0,4,3,1,7,0004-00-0000-46.png,0002-00-0000-06.png
00000014,260,1,1446562994411,1446562995245,327,409,0,0,0,0,1,1,1,0001-00-0000-30.png,0005-00-0001-93.png
00000014,261,1,1446562996315,1446562996929,359,430,0,0,0,3,4,1,7,0002-00-0001-75.png,0004-00-0001-27.png
00000014,262,1,1446562997946,1446562998615,886,552,0,0,0,1,0,1,1,0005-00-0001-26.png,0001-00-0000-99.png
00000014,263,1,1446562999599,1446563000571,905,421,0,0,0,2,1,1,3,0003-00-0000-03.png,0005-00-0000-89.png
00000014,264,0,1446563001538,1446563002307,880,428,0,0,0,2,3,1,5,0003-00-0000-26.png,0002-00-0001-99.png
00000014,265,0,1446563007014,1446563007710,358,375,0,0,0,3,2,1,5,0002-00-0000-21.png,0003-00-0001-84.png
00000014,266,1,1446563012161,1446563013049,339,405,0,0,0,3,4,1,7,0002-00-0000-72.png,0004-00-0000-38.png
00000014,267,1,1446563014245,1446563015142,931,449,0,0,0,2,1,1,3,0003-00-0001-51.png,0005-00-0000-86.png
00000014,268,0,1446563016254,1446563017277,876,465,0,0,0,1,2,1,3,0005-00-0001-01.png,0003-00-0000-77.png
00000014,269,1,1446563023503,1446563023976,360,401,0,0,0,0,1,1,1,0001-00-0000-72.png,0005-00-0000-09.png
00000014,270,1,1446563024906,1446563025816,887,502,0,0,0,1,0,1,1,0005-00-0001-73.png,0001-00-0001-66.png
00000014,271,1,1446563026755,1446563027684,956,413,0,0,0,4,3,1,7,0004-00-0001-28.png,0002-00-0001-82.png
00000014,272,0,1446563028683,1446563029531,903,417,0,0,0,2,3,1,5,0003-00-0001-14.png,0002-00-0000-67.png
00000014,273,0,1446563032377,1446563033156,913,346,0,0,0,0,1,1,1,0001-00-0000-47.png,0005-00-0000-24.png
00000014,274,1,1446563036604,1446563037318,898,510,0,0,0,4,3,1,7,0004-00-0000-28.png,0002-00-0000-46.png
00000014,275,0,1446563038308,1446563039406,935,459,0,0,0,3,4,1,7,0002-00-0001-49.png,0004-00-0000-98.png
00000014,276,1,1446563044356,1446563045220,881,401,0,0,0,1,0,1,1,0005-00-0001-25.png,0001-00-0000-72.png
00000014,277,0,1446563046831,1446563047613,330,392,0,0,0,3,2,1,5,0002-00-0000-20.png,0003-00-0001-78.png
00000014,278,0,1446563051318,1446563052108,907,345,0,0,0,1,2,1,3,0005-00-0000-38.png,0003-00-0000-92.png
00000014,279,0,1446563056191,1446563056778,942,407,0,0,0,2,3,1,5,0003-00-0001-95.png,0002-00-0001-04.png
00000014,280,0,1446563063718,1446563064650,400,381,0,0,0,2,1,1,3,0003-00-0001-27.png,0005-00-0000-32.png
00000014,281,1,1446563071296,1446563071764,372,506,0,0,0,0,1,1,1,0001-00-0001-27.png,0005-00-0000-79.png
00000014,282,1,1446563072988,1446563073885,958,435,0,0,0,4,3,1,7,0004-00-0000-25.png,0002-00-0000-93.png
00000014,283,1,1446563075127,1446563076477,977,397,0,0,0,1,0,1,1,0005-00-0001-91.png,0001-00-0001-54.png
00000014,284,0,1446563077483,1446563078205,350,423,0,0,0,3,2,1,5,0002-00-0001-84.png,0003-00-0001-05.png
00000014,285,1,1446563081590,1446563082382,948,387,0,0,0,2,1,1,3,0003-00-0001-28.png,0005-00-0000-91.png
00000014,286,0,1446563083414,1446563084317,892,509,0,0,0,3,4,1,7,0002-00-0001-22.png,0004-00-0001-70.png
00000014,287,0,1446563088925,1446563089617,913,450,0,0,0,2,3,1,5,0003-00-0001-88.png,0002-00-0000-26.png
00000014,288,0,1446563094768,1446563095778,901,513,0,0,0,1,2,1,3,0005-00-0001-38.png,0003-00-0000-94.png
00000014,289,0,1446563102774,1446563103748,913,479,0,0,0,1,2,1,3,0005-00-0001-36.png,0003-00-0000-65.png
00000014,290,0,1446563107717,1446563108508,942,443,0,0,0,2,3,1,5,0003-00-0000-50.png,0002-00-0000-50.png
00000014,291,0,1446563113082,1446563113994,318,446,0,0,0,2,1,1,3,0003-00-0001-96.png,0005-00-0001-54.png
00000014,292,1,1446563119513,1446563120382,355,373,0,0,0,3,4,1,7,0002-00-0000-42.png,0004-00-0001-05.png
00000014,293,1,1446563122366,1446563123345,355,539,0,0,0,0,1,1,1,0001-00-0000-99.png,0005-00-0000-17.png
00000014,294,0,1446563124731,1446563125729,348,376,0,0,0,3,2,1,5,0002-00-0000-57.png,0003-00-0001-52.png
00000014,295,0,1446563129115,1446563129620,372,396,0,0,0,4,3,1,7,0004-00-0001-64.png,0002-00-0001-15.png
00000014,296,1,1446563136284,1446563137014,930,401,0,0,0,1,0,1,1,0005-00-0001-69.png,0001-00-0001-90.png
00000014,297,0,1446563138045,1446563138771,358,439,0,0,0,4,3,1,7,0004-00-0001-08.png,0002-00-0001-78.png
00000014,298,1,1446563143381,1446563144347,358,408,0,0,0,1,2,1,3,0005-00-0001-36.png,0003-00-0001-24.png
00000014,299,0,1446563145559,1446563146959,354,385,0,0,0,3,2,1,5,0002-00-0000-27.png,0003-00-0000-85.png
00000014,300,0,1446563152859,1446563153711,970,414,0,0,0,0,1,1,1,0001-00-0001-22.png,0005-00-0000-78.png
00000014,301,1,1446563159912,1446563160627,968,538,0,0,0,2,1,1,3,0003-00-0000-97.png,0005-00-0001-63.png
00000014,302,0,1446563161872,1446563163686,314,404,0,0,0,1,0,1,1,0005-00-0001-92.png,0001-00-0000-13.png
00000014,303,0,1446563167765,1446563168509,876,436,0,0,0,2,3,1,5,0003-00-0000-69.png,0002-00-0001-50.png
00000014,304,1,1446563171701,1446563172273,335,433,0,0,0,3,4,1,7,0002-00-0000-16.png,0004-00-0001-48.png
00000014,305,0,1446563173451,1446563174532,931,402,0,0,0,0,1,1,1,0001-00-0000-68.png,0005-00-0000-03.png
00000014,306,0,1446563178935,1446563179626,353,404,0,0,0,3,2,1,5,0002-00-0000-39.png,0003-00-0000-36.png
00000014,307,0,1446563189660,1446563190273,913,396,0,0,0,3,4,1,7,0002-00-0001-61.png,0004-00-0000-33.png
00000014,308,0,1446563193488,1446563194270,964,411,0,0,0,2,3,1,5,0003-00-0001-20.png,0002-00-0001-85.png
00000014,309,1,1446563198251,1446563199058,953,435,0,0,0,2,1,1,3,0003-00-0001-24.png,0005-00-0001-09.png
00000014,310,1,1446563200099,1446563200714,902,409,0,0,0,4,3,1,7,0004-00-0000-17.png,0002-00-0001-48.png
00000014,311,0,1446563201798,1446563203042,909,529,0,0,0,1,2,1,3,0005-00-0000-55.png,0003-00-0000-91.png
00000014,312,0,1446563206614,1446563207462,366,366,0,0,0,1,0,1,1,0005-00-0000-52.png,0001-00-0001-08.png
00000014,313,1,1446563212314,1446563212981,361,381,0,0,0,0,1,1,1,0001-00-0001-06.png,0005-00-0000-88.png
00000014,314,0,1446563214223,1446563215565,371,422,0,0,0,2,1,1,3,0003-00-0001-18.png,0005-00-0001-91.png
00000014,315,0,1446563219348,1446563220220,896,418,0,0,0,1,2,1,3,0005-00-0000-04.png,0003-00-0000-88.png
00000014,316,0,1446563223478,1446563224121,975,430,0,0,0,3,4,1,7,0002-00-0001-69.png,0004-00-0001-14.png
00000014,317,0,1446563227433,1446563228095,978,409,0,0,0,2,3,1,5,0003-00-0000-43.png,0002-00-0001-09.png
00000014,318,1,1446563231314,1446563232075,946,419,0,0,0,1,0,1,1,0005-00-0000-59.png,0001-00-0000-38.png
00000014,319,0,1446563233216,1446563233857,348,404,0,0,0,4,3,1,7,0004-00-0000-90.png,0002-00-0000-42.png
00000014,320,0,1446563239898,1446563240485,323,367,0,0,0,3,2,1,5,0002-00-0000-24.png,0003-00-0001-16.png
00000014,321,0,1446563243755,1446563244419,276,367,0,0,0,3,2,1,5,0002-00-0000-83.png,0003-00-0000-70.png
00000014,322,0,1446563248987,1446563249776,942,402,0,0,0,3,4,1,7,0002-00-0001-19.png,0004-00-0001-01.png
00000014,323,0,1446563256389,1446563257095,387,492,0,0,0,4,3,1,7,0004-00-0000-00.png,0002-00-0000-44.png
00000014,324,0,1446563261368,1446563262119,950,377,0,0,0,2,3,1,5,0003-00-0001-85.png,0002-00-0000-02.png
00000014,325,1,1446563265568,1446563266427,902,494,0,0,0,2,1,1,3,0003-00-0001-43.png,0005-00-0001-17.png
00000014,326,1,1446563267763,1446563268666,957,417,0,0,0,1,0,1,1,0005-00-0000-84.png,0001-00-0001-35.png
00000014,327,0,1446563269970,1446563270720,929,442,0,0,0,0,1,1,1,0001-00-0000-27.png,0005-00-0001-40.png
00000014,328,0,1446563274553,1446563275541,905,349,0,0,0,1,2,1,3,0005-00-0001-01.png,0003-00-0001-24.png
00000014,329,0,1446563280844,1446563281683,354,380,0,0,0,1,0,1,1,0005-00-0001-13.png,0001-00-0001-34.png
00000014,330,1,1446563292280,1446563293030,366,345,0,0,0,3,4,1,7,0002-00-0001-16.png,0004-00-0000-45.png
00000014,331,0,1446563294902,1446563295530,334,414,0,0,0,3,2,1,5,0002-00-0000-14.png,0003-00-0000-20.png
00000014,332,1,1446563298599,1446563299436,956,386,0,0,0,4,3,1,7,0004-00-0000-33.png,0002-00-0000-91.png
00000014,333,0,1446563300662,1446563301746,882,443,0,0,0,1,2,1,3,0005-00-0000-72.png,0003-00-0001-74.png
00000014,334,1,1446563304939,1446563305616,331,423,0,0,0,0,1,1,1,0001-00-0001-67.png,0005-00-0001-94.png
00000014,335,0,1446563306629,1446563307554,893,500,0,0,0,2,3,1,5,0003-00-0000-33.png,0002-00-0001-76.png
00000014,336,1,1446563311182,1446563312214,950,424,0,0,0,2,1,1,3,0003-00-0001-32.png,0005-00-0000-26.png
00000014,337,0,1446563313301,1446563314370,877,506,0,0,0,3,4,1,7,0002-00-0001-10.png,0004-00-0000-10.png
00000014,338,0,1446563319258,1446563320276,406,362,0,0,0,4,3,1,7,0004-00-0000-88.png,0002-00-0001-16.png
00000014,339,0,1446563324452,1446563325299,976,449,0,0,0,2,3,1,5,0003-00-0000-22.png,0002-00-0001-03.png
00000014,340,1,1446563328446,1446563329211,939,423,0,0,0,2,1,1,3,0003-00-0000-48.png,0005-00-0000-78.png
00000014,341,1,1446563330364,1446563331264,951,429,0,0,0,3,2,1,5,0002-00-0000-76.png,0003-00-0000-07.png
00000014,342,0,1446563332485,1446563333458,927,397,0,0,0,0,1,1,1,0001-00-0001-89.png,0005-00-0000-99.png
00000014,343,0,1446563337859,1446563338907,379,341,0,0,0,1,0,1,1,0005-00-0000-44.png,0001-00-0001-72.png
00000014,344,1,1446563343037,1446563344010,461,419,0,0,0,1,2,1,3,0005-00-0001-85.png,0003-00-0000-96.png
00000014,345,1,1446563345865,1446563346884,892,405,0,0,0,1,0,1,1,0005-00-0001-00.png,0001-00-0001-15.png
00000014,346,0,1446563348204,1446563348882,905,394,0,0,0,2,3,1,5,0003-00-0000-82.png,0002-00-0000-99.png
00000014,347,1,1446563351734,1446563352252,331,390,0,0,0,0,1,1,1,0001-00-0000-97.png,0005-00-0000-91.png
00000014,348,1,1446563353276,1446563354033,340,420,0,0,0,3,4,1,7,0002-00-0001-75.png,0004-00-0001-96.png
00000014,349,0,1446563355004,1446563355682,358,419,0,0,0,3,2,1,5,0002-00-0000-07.png,0003-00-0001-30.png
00000014,350,0,1446563360180,1446563360851,348,399,0,0,0,4,3,1,7,0004-00-0000-67.png,0002-00-0000-05.png
00000014,351,0,1446563365756,1446563365908,507,545,0,0,0,2,1,1,3,0003-00-0000-48.png,0005-00-0000-57.png
00000014,352,1,1446563369215,1446563369822,347,410,0,0,0,1,2,1,3,0005-00-0001-95.png,0003-00-0001-71.png
00000014,353,1,1446563370964,1446563371866,325,397,0,0,0,0,1,1,1,0001-00-0000-74.png,0005-00-0001-11.png
00000014,354,1,1446563372998,1446563373913,939,403,0,0,0,4,3,1,7,0004-00-0001-26.png,0002-00-0000-26.png
00000014,355,0,1446563375090,1446563376011,350,412,0,0,0,3,2,1,5,0002-00-0000-93.png,0003-00-0000-60.png
00000014,356,0,1446563380638,1446563381181,323,411,0,0,0,1,0,1,1,0005-00-0001-48.png,0001-00-0001-23.png
00000014,357,0,1446563387010,1446563387687,878,468,0,0,0,2,3,1,5,0003-00-0001-28.png,0002-00-0000-26.png
00000014,358,1,1446563396756,1446563397702,964,469,0,0,0,2,1,1,3,0003-00-0000-10.png,0005-00-0001-44.png
00000014,359,1,1446563401162,1446563401823,330,417,0,0,0,3,4,1,7,0002-00-0001-50.png,0004-00-0000-94.png
00000014,360,0,1446563403080,1446563404132,907,426,0,0,0,1,2,1,3,0005-00-0000-97.png,0003-00-0000-81.png
00000014,361,1,1446563409093,1446563409760,362,380,0,0,0,0,1,1,1,0001-00-0000-02.png,0005-00-0001-38.png
00000014,362,1,1446563411144,1446563412242,950,415,0,0,0,2,1,1,3,0003-00-0000-16.png,0005-00-0000-15.png
00000014,363,0,1446563413421,1446563414073,308,425,0,0,0,3,2,1,5,0002-00-0000-46.png,0003-00-0000-66.png
00000014,364,1,1446563420359,1446563421206,392,409,0,0,0,3,4,1,7,0002-00-0000-09.png,0004-00-0000-67.png
00000014,365,0,1446563422393,1446563423155,921,419,0,0,0,2,3,1,5,0003-00-0001-49.png,0002-00-0000-58.png
00000014,366,1,1446563428343,1446563429249,905,390,0,0,0,1,0,1,1,0005-00-0001-27.png,0001-00-0000-88.png
00000014,367,0,1446563430474,1446563431523,331,393,0,0,0,4,3,1,7,0004-00-0001-14.png,0002-00-0001-34.png
00000014,368,0,1446563437572,1446563438358,939,408,0,0,0,1,2,1,3,0005-00-0000-75.png,0003-00-0001-46.png
00000014,369,0,1446563441836,1446563442518,350,410,0,0,0,3,2,1,5,0002-00-0000-65.png,0003-00-0001-03.png
00000014,370,0,1446563447777,1446563448766,1001,432,0,0,0,3,4,1,7,0002-00-0000-04.png,0004-00-0000-58.png
00000014,371,1,1446563454684,1446563455261,363,398,0,0,0,1,2,1,3,0005-00-0000-22.png,0003-00-0000-14.png
00000014,372,1,1446563456563,1446563457397,901,397,0,0,0,1,0,1,1,0005-00-0001-50.png,0001-00-0001-50.png
00000014,373,1,1446563459125,1446563460026,927,398,0,0,0,2,1,1,3,0003-00-0001-45.png,0005-00-0001-49.png
00000014,374,0,1446563461228,1446563461958,862,387,0,0,0,2,3,1,5,0003-00-0000-84.png,0002-00-0000-97.png
00000014,375,0,1446563468441,1446563469327,984,397,0,0,0,0,1,1,1,0001-00-0000-81.png,0005-00-0001-61.png
00000014,376,0,1446563472261,1446563472872,307,429,0,0,0,4,3,1,7,0004-00-0000-64.png,0002-00-0001-13.png
00000014,377,0,1446563476911,1446563477643,944,347,0,0,0,2,3,1,5,0003-00-0000-40.png,0002-00-0000-67.png
00000014,378,1,1446563481989,1446563482722,370,415,0,0,0,0,1,1,1,0001-00-0001-41.png,0005-00-0000-79.png
00000014,379,1,1446563484086,1446563485197,877,408,0,0,0,2,1,1,3,0003-00-0001-72.png,0005-00-0001-74.png
00000014,380,0,1446563486502,1446563487635,359,397,0,0,0,3,2,1,5,0002-00-0001-30.png,0003-00-0001-21.png
00000014,381,1,1446563498123,1446563498792,954,468,0,0,0,4,3,1,7,0004-00-0001-89.png,0002-00-0000-41.png
00000014,382,1,1446563500191,1446563501169,960,370,0,0,0,1,0,1,1,0005-00-0001-63.png,0001-00-0000-70.png
00000014,383,1,1446563502339,1446563503281,422,419,0,0,0,3,4,1,7,0002-00-0000-21.png,0004-00-0000-61.png
00000014,384,0,1446563504523,1446563505455,931,402,0,0,0,1,2,1,3,0005-00-0001-45.png,0003-00-0001-55.png
00000014,385,0,1446563510359,1446563511154,969,443,0,0,0,2,3,1,5,0003-00-0001-60.png,0002-00-0001-73.png
00000014,386,1,1446563514395,1446563515155,352,392,0,0,0,3,4,1,7,0002-00-0000-97.png,0004-00-0000-85.png
00000014,387,0,1446563516360,1446563517114,356,407,0,0,0,1,0,1,1,0005-00-0001-98.png,0001-00-0000-88.png
00000014,388,0,1446563523011,1446563523944,951,448,0,0,0,0,1,1,1,0001-00-0000-64.png,0005-00-0000-05.png
00000014,389,0,1446563528825,1446563529952,952,436,0,0,0,1,2,1,3,0005-00-0000-45.png,0003-00-0000-35.png
00000014,390,1,1446563533307,1446563534387,927,370,0,0,0,4,3,1,7,0004-00-0000-84.png,0002-00-0000-57.png
00000014,391,1,1446563536042,1446563537010,911,525,0,0,0,2,1,1,3,0003-00-0001-81.png,0005-00-0001-35.png
00000014,392,1,1446563538069,1446563538956,876,500,0,0,0,3,2,1,5,0002-00-0000-82.png,0003-00-0001-57.png
00000014,393,0,1446563539998,1446563540657,302,398,0,0,0,4,3,1,7,0004-00-0000-08.png,0002-00-0000-47.png
00000014,394,1,1446563544418,1446563545217,941,389,0,0,0,1,0,1,1,0005-00-0000-53.png,0001-00-0001-83.png
00000014,395,1,1446563546329,1446563547307,358,376,0,0,0,0,1,1,1,0001-00-0001-87.png,0005-00-0001-29.png
00000014,396,0,1446563548403,1446563549239,901,418,0,0,0,1,2,1,3,0005-00-0000-86.png,0003-00-0001-24.png
00000014,397,0,1446563554190,1446563555150,947,416,0,0,0,3,4,1,7,0002-00-0000-26.png,0004-00-0001-85.png
00000014,398,1,1446563561198,1446563561964,925,446,0,0,0,2,1,1,3,0003-00-0001-74.png,0005-00-0001-64.png
00000014,399,0,1446563563059,1446563563660,923,420,0,0,0,2,3,1,5,0003-00-0000-53.png,0002-00-0000-94.png
00000014,400,0,1446563566971,1446563567704,284,400,0,0,0,3,2,1,5,0002-00-0001-99.png,0003-00-0000-18.png
00000014,401,0,1446563574539,1446563575617,468,522,0,0,0,2,1,1,3,0003-00-0001-65.png,0005-00-0000-08.png
00000014,402,0,1446563580209,1446563580899,356,423,0,0,0,3,2,1,5,0002-00-0000-28.png,0003-00-0000-69.png
00000014,403,1,1446563585631,1446563586321,427,410,0,0,0,0,1,1,1,0001-00-0000-54.png,0005-00-0001-41.png
00000014,404,0,1446563587461,1446563588419,977,423,0,0,0,2,3,1,5,0003-00-0001-85.png,0002-00-0000-70.png
00000014,405,0,1446563593010,1446563593752,331,388,0,0,0,4,3,1,7,0004-00-0000-63.png,0002-00-0001-12.png
00000014,406,1,1446563596647,1446563597168,364,409,0,0,0,3,4,1,7,0002-00-0000-58.png,0004-00-0000-28.png
00000014,407,0,1446563599193,1446563600072,876,422,0,0,0,1,2,1,3,0005-00-0001-42.png,0003-00-0001-65.png
00000014,408,0,1446563608481,1446563609016,346,372,0,0,0,1,0,1,1,0005-00-0001-08.png,0001-00-0000-19.png
00000014,409,0,1446563612849,1446563614021,975,424,0,0,0,3,4,1,7,0002-00-0001-16.png,0004-00-0001-37.png
00000014,410,0,1446563626545,1446563627068,990,470,0,0,0,2,3,1,5,0003-00-0000-80.png,0002-00-0001-70.png
00000014,411,1,1446563633074,1446563633628,375,526,0,0,0,0,1,1,1,0001-00-0000-96.png,0005-00-0000-07.png
00000014,412,0,1446563635078,1446563636622,292,426,0,0,0,2,1,1,3,0003-00-0000-88.png,0005-00-0001-50.png
00000014,413,1,1446563641886,1446563642545,350,452,0,0,0,1,2,1,3,0005-00-0001-59.png,0003-00-0001-08.png
00000014,414,1,1446563644016,1446563645057,926,553,0,0,0,1,0,1,1,0005-00-0000-52.png,0001-00-0001-53.png
00000014,415,1,1446563646363,1446563646939,930,402,0,0,0,4,3,1,7,0004-00-0001-12.png,0002-00-0000-77.png
00000014,416,0,1446563647993,1446563648689,325,440,0,0,0,3,2,1,5,0002-00-0000-09.png,0003-00-0000-52.png
00000014,417,0,1446563654537,1446563655236,888,396,0,0,0,2,3,1,5,0003-00-0000-45.png,0002-00-0001-62.png
00000014,418,1,1446563662785,1446563663918,379,354,0,0,0,0,1,1,1,0001-00-0001-77.png,0005-00-0001-93.png
00000014,419,1,1446563665950,1446563666890,968,399,0,0,0,4,3,1,7,0004-00-0000-24.png,0002-00-0000-37.png
00000014,420,1,1446563668266,1446563669448,953,475,0,0,0,2,1,1,3,0003-00-0001-54.png,0005-00-0000-62.png
00000014,421,1,1446563670640,1446563671509,914,402,0,0,0,1,0,1,1,0005-00-0000-09.png,0001-00-0001-52.png
00000014,422,0,1446563672723,1446563673700,910,392,0,0,0,3,4,1,7,0002-00-0001-13.png,0004-00-0001-46.png
00000014,423,0,1446563690226,1446563691104,302,426,0,0,0,3,2,1,5,0002-00-0000-26.png,0003-00-0000-18.png
00000014,424,1,1446563697958,1446563698780,348,370,0,0,0,1,2,1,3,0005-00-0001-24.png,0003-00-0000-46.png
00000014,425,1,1446563701236,1446563701888,323,385,0,0,0,0,1,1,1,0001-00-0001-21.png,0005-00-0000-74.png
00000014,426,1,1446563703164,1446563704200,298,378,0,0,0,3,4,1,7,0002-00-0000-61.png,0004-00-0001-51.png
00000014,427,0,1446563705439,1446563706502,355,361,0,0,0,2,1,1,3,0003-00-0000-06.png,0005-00-0000-54.png
00000014,428,1,1446563709743,1446563710760,932,423,0,0,0,4,3,1,7,0004-00-0001-74.png,0002-00-0000-35.png
00000014,429,0,1446563711831,1446563712765,363,352,0,0,0,3,2,1,5,0002-00-0001-69.png,0003-00-0000-66.png
00000014,430,1,1446563717298,1446563718359,958,476,0,0,0,1,0,1,1,0005-00-0000-34.png,0001-00-0001-30.png
00000014,431,0,1446563720186,1446563720991,944,424,0,0,0,2,3,1,5,0003-00-0000-80.png,0002-00-0000-68.png
00000014,432,1,1446563727234,1446563728984,308,428,0,0,0,1,2,1,3,0005-00-0001-63.png,0003-00-0001-80.png
00000014,433,1,1446563730528,1446563731517,952,396,0,0,0,2,1,1,3,0003-00-0000-94.png,0005-00-0001-11.png
00000014,434,1,1446563732785,1446563733888,978,410,0,0,0,4,3,1,7,0004-00-0001-09.png,0002-00-0001-00.png
00000014,435,0,1446563737171,1446563738138,888,397,0,0,0,1,2,1,3,0005-00-0000-94.png,0003-00-0001-28.png
00000014,436,1,1446563741929,1446563742721,894,520,0,0,0,1,0,1,1,0005-00-0000-74.png,0001-00-0001-87.png
00000014,437,0,1446563744006,1446563744941,859,539,0,0,0,3,4,1,7,0002-00-0000-15.png,0004-00-0000-23.png
00000014,438,0,1446563749086,1446563750152,379,516,0,0,0,3,2,1,5,0002-00-0001-78.png,0003-00-0000-20.png
00000014,439,1,1446563755256,1446563756093,322,370,0,0,0,0,1,1,1,0001-00-0001-23.png,0005-00-0000-73.png
00000014,440,0,1446563757961,1446563758722,971,446,0,0,0,2,3,1,5,0003-00-0000-69.png,0002-00-0001-96.png
00000014,441,0,1446563763129,1446563764189,976,422,0,0,0,0,1,1,1,0001-00-0001-81.png,0005-00-0000-34.png
00000014,442,0,1446563767949,1446563768998,972,444,0,0,0,1,2,1,3,0005-00-0000-29.png,0003-00-0001-72.png
00000014,443,0,1446563774560,1446563775222,333,378,0,0,0,3,2,1,5,0002-00-0000-20.png,0003-00-0000-27.png
00000014,444,1,1446563780007,1446563780938,348,355,0,0,0,3,4,1,7,0002-00-0001-12.png,0004-00-0001-07.png
00000014,445,1,1446563782204,1446563783369,929,401,0,0,0,2,1,1,3,0003-00-0000-48.png,0005-00-0001-82.png
00000014,446,0,1446563784690,1446563785765,876,494,0,0,0,2,3,1,5,0003-00-0000-53.png,0002-00-0001-42.png
00000014,447,0,1446563790904,1446563791454,350,400,0,0,0,4,3,1,7,0004-00-0000-25.png,0002-00-0000-04.png
00000014,448,1,1446563795909,1446563796861,907,527,0,0,0,1,0,1,1,0005-00-0001-09.png,0001-00-0001-05.png
00000014,449,0,1446563798069,1446563799352,911,497,0,0,0,3,4,1,7,0002-00-0001-29.png,0004-00-0001-72.png
00000014,450,1,1446563804149,1446563805101,392,386,0,0,0,1,2,1,3,0005-00-0001-20.png,0003-00-0000-04.png
00000014,451,0,1446563806436,1446563807128,913,410,0,0,0,2,3,1,5,0003-00-0001-17.png,0002-00-0000-98.png
00000014,452,1,1446563810549,1446563811394,950,397,0,0,0,4,3,1,7,0004-00-0001-76.png,0002-00-0000-91.png
00000014,453,0,1446563812616,1446563813526,350,436,0,0,0,3,2,1,5,0002-00-0000-54.png,0003-00-0000-03.png
00000014,454,0,1446563817695,1446563818613,327,397,0,0,0,1,0,1,1,0005-00-0001-70.png,0001-00-0000-23.png
00000014,455,1,1446563823062,1446563823696,314,402,0,0,0,0,1,1,1,0001-00-0001-53.png,0005-00-0001-00.png
00000014,456,1,1446563824929,1446563825891,908,527,0,0,0,2,1,1,3,0003-00-0000-68.png,0005-00-0000-53.png
00000014,457,1,1446563827106,1446563827740,316,447,0,0,0,0,1,1,1,0001-00-0001-33.png,0005-00-0001-58.png
00000014,458,0,1446563828818,1446563829630,337,410,0,0,0,2,1,1,3,0003-00-0000-89.png,0005-00-0001-82.png
00000014,459,0,1446563833417,1446563834183,897,392,0,0,0,2,3,1,5,0003-00-0000-33.png,0002-00-0000-63.png
00000014,460,1,1446563837384,1446563838188,983,400,0,0,0,1,0,1,1,0005-00-0000-60.png,0001-00-0000-96.png
00000014,461,0,1446563839421,1446563840077,897,412,0,0,0,3,4,1,7,0002-00-0001-42.png,0004-00-0000-81.png
00000014,462,1,1446563843934,1446563844999,375,410,0,0,0,1,2,1,3,0005-00-0000-66.png,0003-00-0000-92.png
00000014,463,1,1446563846270,1446563847160,864,432,0,0,0,4,3,1,7,0004-00-0001-09.png,0002-00-0000-49.png
00000014,464,0,1446563848387,1446563849079,329,409,0,0,0,3,2,1,5,0002-00-0001-79.png,0003-00-0000-07.png
00000014,465,1,1446563853152,1446563853670,325,384,0,0,0,0,1,1,1,0001-00-0000-85.png,0005-00-0000-57.png
00000014,466,0,1446563854669,1446563855368,915,422,0,0,0,2,3,1,5,0003-00-0000-93.png,0002-00-0001-58.png
00000014,467,1,1446563860463,1446563861191,382,385,0,0,0,1,2,1,3,0005-00-0001-17.png,0003-00-0001-04.png
00000014,468,1,1446563862660,1446563863459,915,440,0,0,0,4,3,1,7,0004-00-0000-21.png,0002-00-0001-89.png
00000014,469,1,1446563864627,1446563865571,937,396,0,0,0,1,0,1,1,0005-00-0000-52.png,0001-00-0000-28.png
00000014,470,0,1446563866806,1446563867499,384,425,0,0,0,3,2,1,5,0002-00-0000-54.png,0003-00-0001-51.png
00000014,471,0,1446563872421,1446563873234,952,398,0,0,0,3,4,1,7,0002-00-0000-64.png,0004-00-0000-03.png
00000014,472,1,1446563876108,1446563876937,949,439,0,0,0,2,1,1,3,0003-00-0000-40.png,0005-00-0001-71.png
00000014,473,1,1446563879160,1446563879991,923,430,0,0,0,4,3,1,7,0004-00-0001-00.png,0002-00-0001-67.png
00000014,474,0,1446563881558,1446563882324,904,375,0,0,0,2,3,1,5,0003-00-0000-59.png,0002-00-0000-75.png
00000014,475,1,1446563886603,1446563887348,387,397,0,0,0,3,4,1,7,0002-00-0001-16.png,0004-00-0000-21.png
00000014,476,0,1446563890560,1446563891135,375,365,0,0,0,2,1,1,3,0003-00-0000-96.png,0005-00-0001-79.png
00000014,477,0,1446563895450,1446563896099,340,520,0,0,0,3,2,1,5,0002-00-0000-49.png,0003-00-0001-84.png
00000014,478,1,1446563898948,1446563899441,328,406,0,0,0,1,2,1,3,0005-00-0001-99.png,0003-00-0000-34.png
00000014,479,1,1446563900876,1446563901672,352,465,0,0,0,0,1,1,1,0001-00-0000-77.png,0005-00-0001-89.png
00000014,480,1,1446563902644,1446563903639,893,410,0,0,0,1,0,1,1,0005-00-0001-76.png,0001-00-0000-17.png
00000014,481,1,1446563904713,1446563905637,913,410,0,0,0,2,1,1,3,0003-00-0001-74.png,0005-00-0000-64.png
00000014,482,1,1446563906692,1446563907373,371,548,0,0,0,0,1,1,1,0001-00-0001-41.png,0005-00-0001-31.png
00000014,483,0,1446563908371,1446563909131,418,534,0,0,0,3,2,1,5,0002-00-0001-30.png,0003-00-0001-07.png
00000014,484,1,1446563913937,1446563914850,382,438,0,0,0,2,3,1,5,0003-00-0000-12.png,0002-00-0000-89.png
00000014,485,0,1446563916223,1446563917026,940,384,0,0,0,3,4,1,7,0002-00-0000-54.png,0004-00-0000-24.png
00000014,486,0,1446563922817,1446563923575,360,399,0,0,0,4,3,1,7,0004-00-0001-06.png,0002-00-0001-22.png
00000014,487,1,1446563928452,1446563929111,402,387,0,0,0,1,2,1,3,0005-00-0001-68.png,0003-00-0000-05.png
00000014,488,1,1446563930358,1446563931432,964,449,0,0,0,1,0,1,1,0005-00-0001-85.png,0001-00-0001-59.png
00000014,489,0,1446563932566,1446563933394,337,401,0,0,0,4,3,1,7,0004-00-0001-95.png,0002-00-0000-66.png
00000014,490,1,1446563937047,1446563937788,367,434,0,0,0,1,2,1,3,0005-00-0001-33.png,0003-00-0001-30.png
00000014,491,1,1446563939483,1446563940551,888,512,0,0,0,3,2,1,5,0002-00-0001-10.png,0003-00-0001-75.png
00000014,492,0,1446563941607,1446563942481,913,398,0,0,0,2,3,1,5,0003-00-0001-27.png,0002-00-0001-15.png
00000014,493,0,1446563945674,1446563946757,981,402,0,0,0,3,4,1,7,0002-00-0000-83.png,0004-00-0000-69.png
00000014,494,1,1446563949919,1446563950686,946,381,0,0,0,2,1,1,3,0003-00-0000-36.png,0005-00-0000-21.png
00000014,495,1,1446563951816,1446563952531,291,419,0,0,0,0,1,1,1,0001-00-0000-75.png,0005-00-0000-65.png
00000014,496,1,1446563953589,1446563954342,927,436,0,0,0,1,0,1,1,0005-00-0001-34.png,0001-00-0000-71.png
00000014,497,0,1446563955317,1446563956198,931,427,0,0,0,2,3,1,5,0003-00-0000-87.png,0002-00-0000-07.png
00000014,498,0,1446563959074,1446563959558,888,387,0,0,0,3,4,1,7,0002-00-0000-35.png,0004-00-0001-56.png
00000014,499,0,1446563963009,1446563963893,926,424,0,0,0,1,2,1,3,0005-00-0000-38.png,0003-00-0001-42.png
00000014,500,0,1446563967471,1446563968453,427,424,0,0,0,3,2,1,5,0002-00-0001-85.png,0003-00-0001-11.png
00000014,501,0,1446563971718,1446563972434,954,362,0,0,0,0,1,1,1,0001-00-0001-85.png,0005-00-0001-77.png
00000014,502,0,1446563975432,1446563976312,377,362,0,0,0,2,1,1,3,0003-00-0001-87.png,0005-00-0000-45.png
00000014,503,1,1446563980287,1446563980967,946,393,0,0,0,1,0,1,1,0005-00-0000-27.png,0001-00-0000-99.png
00000014,504,1,1446563982035,1446563983015,894,482,0,0,0,4,3,1,7,0004-00-0001-64.png,0002-00-0000-98.png
00000014,505,1,1446563983952,1446563984918,364,407,0,0,0,2,3,1,5,0003-00-0001-32.png,0002-00-0001-78.png
00000014,506,1,1446563986031,1446563986725,899,438,0,0,0,2,1,1,3,0003-00-0000-53.png,0005-00-0000-40.png
00000014,507,0,1446563987752,1446563988703,920,408,0,0,0,1,2,1,3,0005-00-0000-70.png,0003-00-0001-60.png
00000014,508,1,1446563991578,1446563992378,381,369,0,0,0,3,4,1,7,0002-00-0000-71.png,0004-00-0001-65.png
00000014,509,1,1446563993605,1446563994696,956,402,0,0,0,3,2,1,5,0002-00-0001-74.png,0003-00-0000-61.png
00000014,510,1,1446563995814,1446563996894,875,513,0,0,0,4,3,1,7,0004-00-0000-23.png,0002-00-0001-34.png
00000014,511,1,1446563998009,1446563998722,311,426,0,0,0,0,1,1,1,0001-00-0000-41.png,0005-00-0000-69.png
00000014,512,1,1446563999879,1446564000763,901,409,0,0,0,1,0,1,1,0005-00-0001-24.png,0001-00-0001-83.png
00000014,513,1,1446564001864,1446564002940,931,428,0,0,0,4,3,1,7,0004-00-0000-38.png,0002-00-0001-61.png
00000014,514,0,1446564004095,1446564004697,356,496,0,0,0,3,2,1,5,0002-00-0000-24.png,0003-00-0000-80.png
00000014,515,1,1446564008177,1446564008818,349,382,0,0,0,1,2,1,3,0005-00-0000-70.png,0003-00-0001-48.png
00000014,516,0,1446564009789,1446564010654,932,400,0,0,0,2,3,1,5,0003-00-0000-77.png,0002-00-0001-92.png
00000014,517,0,1446564015785,1446564016806,901,383,0,0,0,0,1,1,1,0001-00-0001-97.png,0005-00-0000-40.png
00000014,518,0,1446564035217,1446564035623,346,359,0,0,0,1,0,1,1,0005-00-0001-51.png,0001-00-0001-26.png
00000014,519,1,1446564040152,1446564040632,342,451,0,0,0,3,4,1,7,0002-00-0000-24.png,0004-00-0001-23.png
00000014,520,0,1446564041851,1446564042859,337,401,0,0,0,2,1,1,3,0003-00-0001-18.png,0005-00-0000-94.png
00000014,521,1,1446564045795,1446564046512,951,398,0,0,0,2,1,1,3,0003-00-0001-58.png,0005-00-0001-63.png
00000014,522,0,1446564047545,1446564048366,380,408,0,0,0,3,2,1,5,0002-00-0000-34.png,0003-00-0000-25.png
00000014,523,0,1446564051769,1446564052589,975,458,0,0,0,2,3,1,5,0003-00-0001-91.png,0002-00-0000-33.png
00000014,524,0,1446564055765,1446564056556,951,423,0,0,0,1,2,1,3,0005-00-0001-14.png,0003-00-0000-72.png
00000014,525,1,1446564060067,1446564060846,366,379,0,0,0,3,4,1,7,0002-00-0001-20.png,0004-00-0000-75.png
00000014,526,1,1446564061917,1446564062809,930,478,0,0,0,4,3,1,7,0004-00-0001-29.png,0002-00-0001-26.png
00000014,527,0,1446564063805,1446564064893,910,455,0,0,0,0,1,1,1,0001-00-0000-22.png,0005-00-0000-88.png
00000014,528,1,1446564069156,1446564069839,904,416,0,0,0,1,0,1,1,0005-00-0001-96.png,0001-00-0001-36.png
00000014,529,0,1446564070825,1446564071752,926,417,0,0,0,2,3,1,5,0003-00-0000-05.png,0002-00-0001-67.png
00000014,530,0,1446564075775,1446564076401,321,392,0,0,0,3,2,1,5,0002-00-0000-11.png,0003-00-0001-06.png
00000014,531,1,1446564079392,1446564079969,897,367,0,0,0,1,0,1,1,0005-00-0000-70.png,0001-00-0001-93.png
00000014,532,1,1446564080970,1446564082052,389,456,0,0,0,1,2,1,3,0005-00-0000-17.png,0003-00-0000-50.png
00000014,533,0,1446564085943,1446564086948,915,358,0,0,0,0,1,1,1,0001-00-0001-69.png,0005-00-0000-35.png
00000014,534,1,1446564090057,1446564090756,923,378,0,0,0,4,3,1,7,0004-00-0001-54.png,0002-00-0000-51.png
00000014,535,1,1446564091775,1446564092625,881,375,0,0,0,2,1,1,3,0003-00-0001-67.png,0005-00-0000-92.png
00000014,536,0,1446564093677,1446564094354,886,535,0,0,0,3,4,1,7,0002-00-0000-33.png,0004-00-0001-15.png
00000014,537,0,1446564097472,1446564098361,873,358,0,0,0,0,1,1,1,0001-00-0000-83.png,0005-00-0000-56.png
00000014,538,0,1446564101815,1446564102628,372,378,0,0,0,4,3,1,7,0004-00-0001-06.png,0002-00-0000-83.png
00000014,539,1,1446564105879,1446564106529,862,410,0,0,0,1,0,1,1,0005-00-0001-71.png,0001-00-0000-51.png
00000014,540,0,1446564107531,1446564108628,877,492,0,0,0,3,4,1,7,0002-00-0000-65.png,0004-00-0001-49.png
00000014,541,0,1446564112717,1446564113591,946,415,0,0,0,2,3,1,5,0003-00-0001-81.png,0002-00-0001-70.png
00000014,542,1,1446564117090,1446564117837,888,340,0,0,0,2,1,1,3,0003-00-0001-21.png,0005-00-0001-06.png
00000014,543,0,1446564118930,1446564119897,916,445,0,0,0,1,2,1,3,0005-00-0001-89.png,0003-00-0000-15.png
00000014,544,1,1446564122966,1446564123808,919,457,0,0,0,3,2,1,5,0002-00-0001-35.png,0003-00-0001-31.png
00000014,545,1,1446564124908,1446564125812,353,377,0,0,0,3,4,1,7,0002-00-0000-55.png,0004-00-0000-12.png
00000014,546,1,1446564126992,1446564128282,417,495,0,0,0,1,2,1,3,0005-00-0001-01.png,0003-00-0001-02.png
00000014,547,0,1446564129329,1446564129957,368,443,0,0,0,3,2,1,5,0002-00-0001-66.png,0003-00-0001-80.png
00000014,548,0,1446564133213,1446564133869,895,523,0,0,0,2,3,1,5,0003-00-0001-89.png,0002-00-0000-55.png
00000014,549,0,1446564137048,1446564137964,349,368,0,0,0,1,0,1,1,0005-00-0001-95.png,0001-00-0000-07.png
00000014,550,0,1446564140896,1446564141668,378,369,0,0,0,4,3,1,7,0004-00-0000-73.png,0002-00-0000-63.png
00000014,551,0,1446564145056,1446564145802,940,396,0,0,0,0,1,1,1,0001-00-0000-34.png,0005-00-0001-68.png
00000014,552,1,1446564149216,1446564150071,913,358,0,0,0,2,1,1,3,0003-00-0000-08.png,0005-00-0000-69.png
00000014,553,1,1446564151084,1446564152019,410,502,0,0,0,0,1,1,1,0001-00-0001-90.png,0005-00-0001-10.png
00000014,554,1,1446564153073,1446564153847,948,406,0,0,0,4,3,1,7,0004-00-0000-29.png,0002-00-0000-61.png
00000014,555,1,1446564155082,1446564155881,382,373,0,0,0,1,2,1,3,0005-00-0000-74.png,0003-00-0001-18.png
00000014,556,0,1446564157028,1446564157595,352,433,0,0,0,3,2,1,5,0002-00-0000-31.png,0003-00-0001-58.png
00000014,557,1,1446564161132,1446564161915,919,389,0,0,0,2,1,1,3,0003-00-0001-02.png,0005-00-0000-91.png
00000014,558,1,1446564163019,1446564163793,905,505,0,0,0,1,0,1,1,0005-00-0001-24.png,0001-00-0000-66.png
00000014,559,0,1446564164771,1446564165775,869,367,0,0,0,3,4,1,7,0002-00-0000-28.png,0004-00-0001-49.png
00000014,560,0,1446564168857,1446564169625,902,358,0,0,0,2,3,1,5,0003-00-0000-51.png,0002-00-0001-77.png
00000014,561,1,1446564173029,1446564173969,915,396,0,0,0,2,1,1,3,0003-00-0000-45.png,0005-00-0000-82.png
00000014,562,0,1446564175066,1446564176133,379,393,0,0,0,3,2,1,5,0002-00-0001-25.png,0003-00-0000-62.png
00000014,563,0,1446564179632,1446564180305,874,541,0,0,0,2,3,1,5,0003-00-0001-12.png,0002-00-0000-81.png
00000014,564,0,1446564183970,1446564184752,355,354,0,0,0,4,3,1,7,0004-00-0000-34.png,0002-00-0001-37.png
00000014,565,1,1446564188279,1446564188899,333,419,0,0,0,0,1,1,1,0001-00-0001-73.png,0005-00-0001-45.png
00000014,566,1,1446564189969,1446564190998,329,380,0,0,0,1,2,1,3,0005-00-0001-35.png,0003-00-0000-95.png
00000014,567,0,1446564192036,1446564192802,898,432,0,0,0,3,4,1,7,0002-00-0000-44.png,0004-00-0001-34.png
00000014,568,1,1446564202286,1446564202743,946,443,0,0,0,1,0,1,1,0005-00-0001-92.png,0001-00-0001-42.png
00000014,569,1,1446564203661,1446564204535,881,417,0,0,0,2,1,1,3,0003-00-0001-98.png,0005-00-0001-67.png
00000014,570,0,1446564205513,1446564206554,433,517,0,0,0,3,2,1,5,0002-00-0000-68.png,0003-00-0001-82.png
00000014,571,1,1446564209963,1446564210721,905,401,0,0,0,1,0,1,1,0005-00-0000-88.png,0001-00-0001-40.png
00000014,572,1,1446564211732,1446564212560,376,367,0,0,0,2,3,1,5,0003-00-0001-56.png,0002-00-0001-67.png
00000014,573,1,1446564213700,1446564214276,323,419,0,0,0,0,1,1,1,0001-00-0001-57.png,0005-00-0001-37.png
00000014,574,1,1446564215289,1446564215953,387,422,0,0,0,3,4,1,7,0002-00-0001-98.png,0004-00-0001-23.png
00000014,575,0,1446564217018,1446564217642,865,395,0,0,0,1,2,1,3,0005-00-0000-26.png,0003-00-0001-44.png
00000014,576,1,1446564220497,1446564221258,876,521,0,0,0,4,3,1,7,0004-00-0001-24.png,0002-00-0001-12.png
00000014,577,1,1446564222200,1446564222843,900,449,0,0,0,1,0,1,1,0005-00-0000-83.png,0001-00-0001-52.png
00000014,578,0,1446564223781,1446564224381,927,450,0,0,0,2,3,1,5,0003-00-0001-94.png,0002-00-0001-36.png
00000014,579,1,1446564227477,1446564228016,330,397,0,0,0,0,1,1,1,0001-00-0001-96.png,0005-00-0001-30.png
00000014,580,1,1446564229036,1446564230004,392,372,0,0,0,1,2,1,3,0005-00-0001-12.png,0003-00-0001-82.png
00000014,581,0,1446564230971,1446564231670,375,433,0,0,0,4,3,1,7,0004-00-0000-78.png,0002-00-0000-77.png
00000014,582,1,1446564239272,1446564239726,926,439,0,0,0,2,1,1,3,0003-00-0001-62.png,0005-00-0000-09.png
00000014,583,0,1446564240641,1446564241449,875,412,0,0,0,3,4,1,7,0002-00-0000-41.png,0004-00-0001-08.png
00000014,584,0,1446564244557,1446564245076,350,436,0,0,0,3,2,1,5,0002-00-0001-72.png,0003-00-0000-24.png
00000014,585,1,1446564248107,1446564248697,928,434,0,0,0,1,0,1,1,0005-00-0000-24.png,0001-00-0000-11.png
00000014,586,0,1446564249618,1446564250263,397,419,0,0,0,2,1,1,3,0003-00-0000-06.png,0005-00-0001-63.png
00000014,587,0,1446564253386,1446564254218,392,394,0,0,0,4,3,1,7,0004-00-0000-96.png,0002-00-0000-33.png
00000014,588,0,1446564257322,1446564258092,928,391,0,0,0,2,3,1,5,0003-00-0001-07.png,0002-00-0000-44.png
00000014,589,1,1446564261819,1446564262517,350,404,0,0,0,0,1,1,1,0001-00-0001-98.png,0005-00-0000-10.png
00000014,590,0,1446564263622,1446564264148,405,548,0,0,0,3,2,1,5,0002-00-0000-80.png,0003-00-0001-57.png
00000014,591,1,1446564267722,1446564268432,375,362,0,0,0,3,4,1,7,0002-00-0001-16.png,0004-00-0000-11.png
00000014,592,0,1446564269496,1446564270349,905,427,0,0,0,1,2,1,3,0005-00-0000-37.png,0003-00-0000-92.png
00000014,593,1,1446564274545,1446564275363,402,382,0,0,0,1,2,1,3,0005-00-0000-43.png,0003-00-0001-48.png
00000014,594,1,1446564276342,1446564277216,346,436,0,0,0,3,4,1,7,0002-00-0001-19.png,0004-00-0001-53.png
00000014,595,0,1446564278252,1446564279115,401,518,0,0,0,3,2,1,5,0002-00-0000-66.png,0003-00-0001-61.png
00000014,596,1,1446564282237,1446564282976,357,398,0,0,0,0,1,1,1,0001-00-0000-46.png,0005-00-0000-71.png
00000014,597,1,1446564283966,1446564284850,901,410,0,0,0,2,1,1,3,0003-00-0000-06.png,0005-00-0001-90.png
00000014,598,0,1446564286381,1446564286894,875,539,0,0,0,2,3,1,5,0003-00-0001-58.png,0002-00-0001-53.png
00000014,599,1,1446564289952,1446564290486,924,413,0,0,0,1,0,1,1,0005-00-0000-98.png,0001-00-0000-00.png
00000014,600,1,1446564291426,1446564292460,903,417,0,0,0,4,3,1,7,0004-00-0001-93.png,0002-00-0001-61.png
00000014,601,0,1446564293479,1446564294086,378,447,0,0,0,3,2,1,5,0002-00-0000-94.png,0003-00-0000-47.png
00000014,602,0,1446564298371,1446564299221,921,393,0,0,0,1,2,1,3,0005-00-0001-41.png,0003-00-0000-74.png
00000014,603,1,1446564304848,1446564305497,898,432,0,0,0,1,0,1,1,0005-00-0000-92.png,0001-00-0001-51.png
00000014,604,1,1446564306564,1446564307222,313,445,0,0,0,3,4,1,7,0002-00-0000-34.png,0004-00-0001-84.png
00000014,605,0,1446564308218,1446564309110,898,432,0,0,0,2,3,1,5,0003-00-0000-45.png,0002-00-0001-10.png
00000014,606,1,1446564312401,1446564312952,367,445,0,0,0,0,1,1,1,0001-00-0001-42.png,0005-00-0000-16.png
00000014,607,0,1446564313852,1446564314560,408,549,0,0,0,2,1,1,3,0003-00-0001-88.png,0005-00-0000-58.png
00000014,608,1,1446564317839,1446564318447,871,393,0,0,0,4,3,1,7,0004-00-0000-60.png,0002-00-0000-06.png
00000014,609,0,1446564319777,1446564320497,413,422,0,0,0,4,3,1,7,0004-00-0000-75.png,0002-00-0000-53.png
00000014,610,1,1446564325383,1446564326028,358,430,0,0,0,0,1,1,1,0001-00-0000-57.png,0005-00-0001-64.png
00000014,611,0,1446564326948,1446564327694,346,439,0,0,0,2,1,1,3,0003-00-0001-25.png,0005-00-0001-78.png
00000014,612,1,1446564333884,1446564334482,912,441,0,0,0,1,0,1,1,0005-00-0001-25.png,0001-00-0000-10.png
00000014,613,1,1446564335413,1446564336147,360,401,0,0,0,1,2,1,3,0005-00-0001-88.png,0003-00-0000-59.png
00000014,614,0,1446564337181,1446564337777,358,451,0,0,0,3,2,1,5,0002-00-0000-71.png,0003-00-0000-90.png
00000014,615,1,1446564343546,1446564344455,397,364,0,0,0,2,3,1,5,0003-00-0000-99.png,0002-00-0001-78.png
00000014,616,1,1446564345430,1446564346039,350,448,0,0,0,3,4,1,7,0002-00-0001-37.png,0004-00-0000-94.png
00000014,617,1,1446564347061,1446564347841,899,428,0,0,0,2,1,1,3,0003-00-0001-42.png,0005-00-0000-31.png
00000014,618,1,1446564348853,1446564349424,359,441,0,0,0,0,1,1,1,0001-00-0000-13.png,0005-00-0001-66.png
00000014,619,0,1446564350573,1446564351361,866,499,0,0,0,3,4,1,7,0002-00-0001-68.png,0004-00-0000-32.png
00000014,620,0,1446564354208,1446564354684,929,415,0,0,0,2,3,1,5,0003-00-0001-64.png,0002-00-0001-64.png
00000014,621,0,1446564359307,1446564359904,369,386,0,0,0,4,3,1,7,0004-00-0001-68.png,0002-00-0000-79.png
00000014,622,1,1446564363350,1446564364095,916,387,0,0,0,1,0,1,1,0005-00-0000-00.png,0001-00-0001-05.png
00000014,623,0,1446564365148,1446564366093,918,399,0,0,0,1,2,1,3,0005-00-0001-06.png,0003-00-0001-17.png
00000014,624,0,1446564369257,1446564369919,377,384,0,0,0,3,2,1,5,0002-00-0001-42.png,0003-00-0001-70.png
00000014,625,0,1446564372981,1446564373987,419,376,0,0,0,2,1,1,3,0003-00-0000-27.png,0005-00-0000-43.png
00000014,626,1,1446564377268,1446564377921,395,403,0,0,0,1,2,1,3,0005-00-0001-40.png,0003-00-0001-67.png
00000014,627,1,1446564378978,1446564379564,325,424,0,0,0,0,1,1,1,0001-00-0001-52.png,0005-00-0000-68.png
00000014,628,0,1446564380628,1446564381312,346,454,0,0,0,3,2,1,5,0002-00-0000-24.png,0003-00-0000-63.png
00000014,629,0,1446564386261,1446564387138,901,488,0,0,0,3,4,1,7,0002-00-0001-27.png,0004-00-0001-64.png
00000014,630,1,1446564390546,1446564391301,907,397,0,0,0,1,0,1,1,0005-00-0001-86.png,0001-00-0001-57.png
00000014,631,0,1446564392870,1446564393909,905,427,0,0,0,2,3,1,5,0003-00-0000-12.png,0002-00-0000-93.png
00000014,632,1,1446564397599,1446564398488,947,506,0,0,0,4,3,1,7,0004-00-0000-59.png,0002-00-0001-57.png
00000014,633,0,1446564399523,1446564400391,350,450,0,0,0,3,2,1,5,0002-00-0001-58.png,0003-00-0000-02.png
00000014,634,0,1446564403398,1446564404551,1003,410,0,0,0,3,4,1,7,0002-00-0000-57.png,0004-00-0001-77.png
00000014,635,0,1446564407866,1446564408966,412,359,0,0,0,4,3,1,7,0004-00-0000-55.png,0002-00-0000-10.png
00000014,636,1,1446564412233,1446564413245,887,516,0,0,0,2,1,1,3,0003-00-0000-71.png,0005-00-0001-59.png
00000014,637,1,1446564414347,1446564415196,389,407,0,0,0,1,2,1,3,0005-00-0000-90.png,0003-00-0000-92.png
00000014,638,1,1446564416211,1446564416825,346,442,0,0,0,0,1,1,1,0001-00-0000-29.png,0005-00-0001-52.png
00000014,639,1,1446564417874,1446564418830,893,362,0,0,0,1,0,1,1,0005-00-0000-90.png,0001-00-0001-36.png
00000014,640,1,1446564419888,1446564421023,369,405,0,0,0,2,3,1,5,0003-00-0001-82.png,0002-00-0001-62.png
00000014,641,0,1446564422094,1446564422817,388,424,0,0,0,4,3,1,7,0004-00-0001-26.png,0002-00-0001-60.png
00000014,642,1,1446564426220,1446564427122,900,411,0,0,0,2,1,1,3,0003-00-0001-28.png,0005-00-0001-25.png
00000014,643,0,1446564428195,1446564428820,385,535,0,0,0,3,2,1,5,0002-00-0001-33.png,0003-00-0001-40.png
00000014,644,1,1446564432421,1446564433075,350,410,0,0,0,3,4,1,7,0002-00-0000-69.png,0004-00-0000-08.png
00000014,645,1,1446564434132,1446564434774,324,413,0,0,0,0,1,1,1,0001-00-0000-00.png,0005-00-0001-60.png
00000014,646,0,1446564435872,1446564436614,877,546,0,0,0,2,3,1,5,0003-00-0000-99.png,0002-00-0000-14.png
00000014,647,0,1446564440045,1446564440912,889,370,0,0,0,1,2,1,3,0005-00-0000-46.png,0003-00-0000-43.png
00000014,648,1,1446564444677,1446564445620,927,410,0,0,0,1,0,1,1,0005-00-0000-89.png,0001-00-0001-22.png
00000014,649,1,1446564446692,1446564447680,903,347,0,0,0,1,0,1,1,0005-00-0000-95.png,0001-00-0000-52.png
00000014,650,0,1446564448764,1446564449821,902,398,0,0,0,0,1,1,1,0001-00-0000-77.png,0005-00-0001-74.png
00000014,651,1,1446564453650,1446564454558,356,408,0,0,0,3,4,1,7,0002-00-0001-83.png,0004-00-0000-58.png
00000014,652,1,1446564455679,1446564456565,919,402,0,0,0,2,1,1,3,0003-00-0000-15.png,0005-00-0001-08.png
00000014,653,1,1446564457643,1446564458476,881,427,0,0,0,4,3,1,7,0004-00-0000-92.png,0002-00-0000-54.png
00000014,654,1,1446564459553,1446564460806,338,361,0,0,0,1,2,1,3,0005-00-0000-56.png,0003-00-0001-61.png
00000014,655,0,1446564461957,1446564462643,402,552,0,0,0,3,2,1,5,0002-00-0001-22.png,0003-00-0000-75.png
00000014,656,0,1446564465884,1446564466639,928,416,0,0,0,2,3,1,5,0003-00-0000-21.png,0002-00-0001-72.png
00000014,657,0,1446564469597,1446564470227,334,378,0,0,0,3,2,1,5,0002-00-0000-02.png,0003-00-0001-57.png
00000014,658,1,1446564473300,1446564474309,376,384,0,0,0,1,2,1,3,0005-00-0001-80.png,0003-00-0000-78.png
00000014,659,1,1446564475355,1446564476173,860,524,0,0,0,4,3,1,7,0004-00-0001-94.png,0002-00-0000-75.png
00000014,660,1,1446564477264,1446564478045,896,394,0,0,0,1,0,1,1,0005-00-0001-68.png,0001-00-0001-28.png
00000014,661,0,1446564479119,1446564480762,944,461,0,0,0,3,4,1,7,0002-00-0001-46.png,0004-00-0001-99.png
00000014,662,1,1446564483832,1446564484480,381,412,0,0,0,0,1,1,1,0001-00-0001-14.png,0005-00-0001-91.png
00000014,663,0,1446564485611,1446564486400,914,433,0,0,0,2,3,1,5,0003-00-0000-11.png,0002-00-0001-47.png
00000014,664,1,1446564489443,1446564490457,914,387,0,0,0,2,1,1,3,0003-00-0000-99.png,0005-00-0001-57.png
00000014,665,0,1446564491526,1446564492396,289,380,0,0,0,4,3,1,7,0004-00-0001-40.png,0002-00-0001-87.png
00000014,666,1,1446564495888,1446564496932,327,331,0,0,0,3,4,1,7,0002-00-0001-22.png,0004-00-0001-39.png
00000014,667,1,1446564498093,1446564498946,360,510,0,0,0,0,1,1,1,0001-00-0001-77.png,0005-00-0001-82.png
00000014,668,1,1446564500000,1446564501273,941,366,0,0,0,3,2,1,5,0002-00-0001-99.png,0003-00-0000-07.png
00000014,669,1,1446564502261,1446564503045,362,390,0,0,0,1,2,1,3,0005-00-0000-78.png,0003-00-0000-60.png
00000014,670,1,1446564504379,1446564505331,870,347,0,0,0,2,1,1,3,0003-00-0001-27.png,0005-00-0001-41.png
00000014,671,0,1446564506436,1446564507247,873,378,0,0,0,2,3,1,5,0003-00-0001-99.png,0002-00-0001-82.png
00000014,672,1,1446564510190,1446564510974,881,401,0,0,0,1,0,1,1,0005-00-0000-38.png,0001-00-0000-65.png
00000014,673,1,1446564511949,1446564512803,949,410,0,0,0,1,0,1,1,0005-00-0000-86.png,0001-00-0000-28.png
00000014,674,0,1446564513875,1446564514928,866,375,0,0,0,0,1,1,1,0001-00-0001-53.png,0005-00-0000-64.png
00000014,675,1,1446564518372,1446564519311,378,363,0,0,0,1,2,1,3,0005-00-0000-77.png,0003-00-0000-13.png
00000014,676,0,1446564520338,1446564521017,903,415,0,0,0,2,3,1,5,0003-00-0000-80.png,0002-00-0001-61.png
00000014,677,0,1446564524146,1446564525037,934,369,0,0,0,3,4,1,7,0002-00-0001-35.png,0004-00-0000-90.png
00000014,678,0,1446564528000,1446564528706,351,393,0,0,0,3,2,1,5,0002-00-0000-33.png,0003-00-0001-42.png
00000014,679,1,1446564531862,1446564532833,952,379,0,0,0,4,3,1,7,0004-00-0000-81.png,0002-00-0000-09.png
00000014,680,1,1446564534225,1446564535230,919,399,0,0,0,2,1,1,3,0003-00-0001-97.png,0005-00-0000-71.png
00000014,681,1,1446564536234,1446564536975,899,429,0,0,0,1,0,1,1,0005-00-0001-35.png,0001-00-0001-86.png
00000014,682,1,1446564538103,1446564538648,340,465,0,0,0,0,1,1,1,0001-00-0001-73.png,0005-00-0000-26.png
00000014,683,1,1446564540301,1446564541029,351,393,0,0,0,1,2,1,3,0005-00-0001-76.png,0003-00-0001-73.png
00000014,684,1,1446564542159,1446564543000,906,427,0,0,0,2,1,1,3,0003-00-0001-60.png,0005-00-0001-99.png
00000014,685,0,1446564544096,1446564544857,888,404,0,0,0,2,3,1,5,0003-00-0000-27.png,0002-00-0001-04.png
00000014,686,1,1446564548300,1446564548866,875,540,0,0,0,4,3,1,7,0004-00-0000-70.png,0002-00-0000-14.png
00000014,687,0,1446564549901,1446564550766,331,400,0,0,0,3,2,1,5,0002-00-0000-39.png,0003-00-0001-68.png
00000014,688,1,1446564553714,1446564554668,369,367,0,0,0,3,4,1,7,0002-00-0001-08.png,0004-00-0000-20.png
00000014,689,1,1446564555674,1446564556308,385,506,0,0,0,0,1,1,1,0001-00-0001-86.png,0005-00-0001-27.png
00000014,690,1,1446564557396,1446564558160,903,415,0,0,0,4,3,1,7,0004-00-0001-96.png,0002-00-0000-05.png
00000014,691,0,1446564559136,1446564560038,862,384,0,0,0,2,3,1,5,0003-00-0001-60.png,0002-00-0001-53.png
00000014,692,0,1446564563180,1446564564201,416,410,0,0,0,2,1,1,3,0003-00-0000-99.png,0005-00-0000-16.png
00000014,693,1,1446564567466,1446564568408,929,443,0,0,0,1,0,1,1,0005-00-0001-47.png,0001-00-0001-58.png
00000014,694,0,1446564569461,1446564570126,298,448,0,0,0,3,2,1,5,0002-00-0000-90.png,0003-00-0000-84.png
00000014,695,1,1446564573060,1446564573834,357,367,0,0,0,3,4,1,7,0002-00-0000-23.png,0004-00-0001-70.png
00000014,696,1,1446564574941,1446564575770,323,412,0,0,0,1,2,1,3,0005-00-0000-53.png,0003-00-0000-06.png
00000014,697,1,1446564577039,1446564577914,340,410,0,0,0,0,1,1,1,0001-00-0001-34.png,0005-00-0000-14.png
00000014,698,1,1446564579025,1446564579711,385,540,0,0,0,1,2,1,3,0005-00-0000-64.png,0003-00-0001-41.png
00000014,699,0,1446564580837,1446564581623,877,415,0,0,0,2,3,1,5,0003-00-0001-52.png,0002-00-0001-54.png
00000014,700,0,1446564584901,1446564585942,362,380,0,0,0,4,3,1,7,0004-00-0001-77.png,0002-00-0000-45.png
00000014,701,1,1446564589125,1446564589915,950,377,0,0,0,1,0,1,1,0005-00-0001-21.png,0001-00-0001-70.png
00000014,702,0,1446564590993,1446564591662,340,409,0,0,0,3,2,1,5,0002-00-0000-57.png,0003-00-0001-68.png
00000014,703,0,1446564594821,1446564595715,364,409,0,0,0,2,1,1,3,0003-00-0000-49.png,0005-00-0001-43.png
00000014,704,1,1446564598706,1446564599458,357,348,0,0,0,3,4,1,7,0002-00-0000-07.png,0004-00-0000-98.png
00000014,705,1,1446564600506,1446564601659,382,352,0,0,0,0,1,1,1,0001-00-0001-77.png,0005-00-0001-99.png
00000014,706,1,1446564602684,1446564603304,324,404,0,0,0,1,2,1,3,0005-00-0001-13.png,0003-00-0001-37.png
00000014,707,0,1446564604532,1446564605417,368,379,0,0,0,3,2,1,5,0002-00-0000-42.png,0003-00-0001-76.png
00000014,708,1,1446564608773,1446564609542,376,384,0,0,0,3,4,1,7,0002-00-0000-04.png,0004-00-0000-61.png
00000014,709,0,1446564610573,1446564611456,924,502,0,0,0,2,3,1,5,0003-00-0000-86.png,0002-00-0001-85.png
00000014,710,0,1446564615066,1446564615816,334,375,0,0,0,1,0,1,1,0005-00-0001-37.png,0001-00-0000-73.png
00000014,711,0,1446564618793,1446564619483,339,395,0,0,0,4,3,1,7,0004-00-0001-37.png,0002-00-0000-08.png
00000014,712,1,1446564622729,1446564623641,869,363,0,0,0,2,1,1,3,0003-00-0000-19.png,0005-00-0000-99.png
00000014,713,0,1446564624746,1446564625480,299,436,0,0,0,1,0,1,1,0005-00-0001-87.png,0001-00-0001-91.png
00000014,714,0,1446564628433,1446564629157,901,372,0,0,0,2,3,1,5,0003-00-0001-27.png,0002-00-0000-09.png
00000014,715,1,1446564632280,1446564633126,944,385,0,0,0,4,3,1,7,0004-00-0000-55.png,0002-00-0001-99.png
00000014,716,1,1446564634271,1446564634889,376,449,0,0,0,3,4,1,7,0002-00-0001-29.png,0004-00-0001-73.png
00000014,717,1,1446564635948,1446564636730,427,501,0,0,0,1,2,1,3,0005-00-0000-49.png,0003-00-0000-80.png
00000014,718,1,1446564637813,1446564638760,899,377,0,0,0,2,1,1,3,0003-00-0000-09.png,0005-00-0001-54.png
00000014,719,1,1446564639890,1446564640508,388,537,0,0,0,0,1,1,1,0001-00-0000-04.png,0005-00-0001-63.png
00000014,720,0,1446564641594,1446564642256,370,434,0,0,0,3,2,1,5,0002-00-0001-76.png,0003-00-0001-93.png
00000014,721,1,1446564645352,1446564646217,320,381,0,0,0,1,2,1,3,0005-00-0000-69.png,0003-00-0001-33.png
00000014,722,0,1446564647814,1446564648572,900,430,0,0,0,2,3,1,5,0003-00-0001-86.png,0002-00-0000-15.png
00000014,723,0,1446564652115,1446564653031,908,527,0,0,0,0,1,1,1,0001-00-0001-89.png,0005-00-0001-47.png
00000014,724,1,1446564656175,1446564656914,927,416,0,0,0,2,1,1,3,0003-00-0001-27.png,0005-00-0001-28.png
00000014,725,0,1446564657935,1446564658599,402,542,0,0,0,3,2,1,5,0002-00-0000-01.png,0003-00-0001-54.png
00000014,726,0,1446564661592,1446564662504,321,371,0,0,0,4,3,1,7,0004-00-0000-06.png,0002-00-0000-45.png
00000014,727,1,1446564666016,1446564666597,376,524,0,0,0,3,4,1,7,0002-00-0000-94.png,0004-00-0001-32.png
00000014,728,1,1446564667706,1446564668492,890,373,0,0,0,1,0,1,1,0005-00-0000-01.png,0001-00-0001-49.png
00000014,729,1,1446564669543,1446564670499,385,442,0,0,0,1,2,1,3,0005-00-0001-55.png,0003-00-0001-20.png
00000014,730,0,1446564671652,1446564672289,393,534,0,0,0,3,2,1,5,0002-00-0001-49.png,0003-00-0001-25.png
00000014,731,0,1446564675499,1446564676378,927,397,0,0,0,2,3,1,5,0003-00-0001-57.png,0002-00-0000-48.png
00000014,732,0,1446564679551,1446564680961,385,499,0,0,0,2,1,1,3,0003-00-0001-51.png,0005-00-0000-67.png
00000014,733,1,1446564683927,1446564684642,914,385,0,0,0,1,0,1,1,0005-00-0000-09.png,0001-00-0001-51.png
00000014,734,0,1446564685714,1446564686528,927,423,0,0,0,0,1,1,1,0001-00-0001-17.png,0005-00-0000-29.png
00000014,735,1,1446564690070,1446564690814,352,377,0,0,0,3,4,1,7,0002-00-0000-73.png,0004-00-0001-41.png
00000014,736,0,1446564691880,1446564692798,335,397,0,0,0,4,3,1,7,0004-00-0001-56.png,0002-00-0001-33.png
00000014,737,1,1446564696669,1446564697789,407,479,0,0,0,3,4,1,7,0002-00-0001-04.png,0004-00-0001-43.png
00000014,738,0,1446564698883,1446564700017,342,407,0,0,0,3,2,1,5,0002-00-0001-98.png,0003-00-0000-73.png
00000014,739,1,1446564703395,1446564704314,401,449,0,0,0,2,3,1,5,0003-00-0001-99.png,0002-00-0000-39.png
00000014,740,0,1446564705428,1446564706474,335,380,0,0,0,2,1,1,3,0003-00-0000-18.png,0005-00-0001-18.png
00000014,741,1,1446564709647,1446564710610,951,411,0,0,0,4,3,1,7,0004-00-0000-39.png,0002-00-0001-74.png
00000014,742,1,1446564711635,1446564712261,329,427,0,0,0,0,1,1,1,0001-00-0001-58.png,0005-00-0000-80.png
00000014,743,0,1446564713347,1446564714233,875,398,0,0,0,1,2,1,3,0005-00-0000-07.png,0003-00-0000-91.png
00000014,744,1,1446564717394,1446564718498,903,493,0,0,0,1,0,1,1,0005-00-0001-02.png,0001-00-0000-40.png
00000014,745,0,1446564719568,1446564720366,401,449,0,0,0,2,1,1,3,0003-00-0000-81.png,0005-00-0001-41.png
00000014,746,0,1446564724183,1446564725034,351,392,0,0,0,4,3,1,7,0004-00-0001-82.png,0002-00-0000-53.png
00000014,747,1,1446564727999,1446564728740,931,380,0,0,0,1,0,1,1,0005-00-0000-92.png,0001-00-0001-47.png
00000014,748,0,1446564729916,1446564730678,901,423,0,0,0,2,3,1,5,0003-00-0000-26.png,0002-00-0000-56.png
00000014,749,0,1446564734151,1446564735069,345,382,0,0,0,3,2,1,5,0002-00-0001-32.png,0003-00-0000-87.png
00000014,750,1,1446564737976,1446564738455,350,436,0,0,0,0,1,1,1,0001-00-0001-10.png,0005-00-0001-00.png
00000014,751,1,1446564739417,1446564740086,314,405,0,0,0,1,2,1,3,0005-00-0001-37.png,0003-00-0001-69.png
00000014,752,0,1446564741238,1446564742304,949,430,0,0,0,3,4,1,7,0002-00-0001-07.png,0004-00-0000-32.png
00000014,753,1,1446564750406,1446564750922,361,387,0,0,0,3,4,1,7,0002-00-0000-45.png,0004-00-0001-34.png
00000014,754,1,1446564751970,1446564752785,890,406,0,0,0,1,0,1,1,0005-00-0000-92.png,0001-00-0001-17.png
00000014,755,1,1446564753770,1446564754703,925,423,0,0,0,3,2,1,5,0002-00-0000-61.png,0003-00-0000-37.png
00000014,756,1,1446564755759,1446564756401,376,488,0,0,0,0,1,1,1,0001-00-0000-63.png,0005-00-0001-85.png
00000014,757,0,1446564757448,1446564758368,862,396,0,0,0,2,3,1,5,0003-00-0000-51.png,0002-00-0000-66.png
00000014,758,0,1446564761983,1446564762770,332,384,0,0,0,4,3,1,7,0004-00-0001-99.png,0002-00-0001-05.png
00000014,759,0,1446564767973,1446564768857,395,397,0,0,0,2,1,1,3,0003-00-0001-52.png,0005-00-0001-55.png
00000014,760,1,1446564780391,1446564780850,379,411,0,0,0,1,2,1,3,0005-00-0000-23.png,0003-00-0001-04.png
00000014,761,1,1446564781795,1446564782401,874,559,0,0,0,4,3,1,7,0004-00-0000-59.png,0002-00-0001-07.png
00000014,762,0,1446564783496,1446564784350,901,523,0,0,0,3,4,1,7,0002-00-0001-06.png,0004-00-0000-81.png
00000014,763,1,1446564787705,1446564788431,925,422,0,0,0,1,0,1,1,0005-00-0001-30.png,0001-00-0000-54.png
00000014,764,1,1446564789358,1446564790024,356,424,0,0,0,2,3,1,5,0003-00-0001-47.png,0002-00-0000-87.png
00000014,765,1,1446564790954,1446564791628,359,444,0,0,0,0,1,1,1,0001-00-0001-04.png,0005-00-0000-50.png
00000014,766,0,1446564792599,1446564793315,373,450,0,0,0,3,2,1,5,0002-00-0001-10.png,0003-00-0001-54.png
00000014,767,1,1446564797476,1446564798526,399,378,0,0,0,1,2,1,3,0005-00-0000-91.png,0003-00-0001-02.png
00000014,768,1,1446564799557,1446564800401,877,494,0,0,0,2,1,1,3,0003-00-0000-82.png,0005-00-0001-26.png
00000014,769,0,1446564801415,1446564802378,437,505,0,0,0,3,2,1,5,0002-00-0000-68.png,0003-00-0001-43.png
00000014,770,1,1446564806266,1446564807308,375,393,0,0,0,0,1,1,1,0001-00-0001-01.png,0005-00-0001-05.png
00000014,771,1,1446564808313,1446564809087,928,416,0,0,0,1,0,1,1,0005-00-0000-02.png,0001-00-0001-59.png
00000014,772,0,1446564810164,1446564810757,356,436,0,0,0,4,3,1,7,0004-00-0001-79.png,0002-00-0001-60.png
00000014,773,1,1446564814297,1446564815183,900,384,0,0,0,2,1,1,3,0003-00-0000-43.png,0005-00-0001-46.png
00000014,774,1,1446564816345,1446564817064,414,543,0,0,0,1,2,1,3,0005-00-0001-80.png,0003-00-0001-16.png
00000014,775,1,1446564818154,1446564818928,408,396,0,0,0,2,3,1,5,0003-00-0000-02.png,0002-00-0001-82.png
00000014,776,0,1446564820043,1446564820888,939,359,0,0,0,3,4,1,7,0002-00-0000-57.png,0004-00-0001-07.png
00000014,777,1,1446564824693,1446564825448,362,347,0,0,0,1,2,1,3,0005-00-0001-84.png,0003-00-0000-09.png
00000014,778,0,1446564826475,1446564827278,927,433,0,0,0,2,3,1,5,0003-00-0001-26.png,0002-00-0000-83.png
00000014,779,0,1446564830759,1446564831459,406,356,0,0,0,2,1,1,3,0003-00-0001-57.png,0005-00-0001-19.png
00000014,780,1,1446564835145,1446564835960,927,424,0,0,0,1,0,1,1,0005-00-0001-28.png,0001-00-0000-62.png
00000014,781,1,1446564836957,1446564837678,367,419,0,0,0,0,1,1,1,0001-00-0001-51.png,0005-00-0000-34.png
00000014,782,1,1446564838787,1446564839830,419,395,0,0,0,3,4,1,7,0002-00-0001-27.png,0004-00-0000-73.png
00000014,783,0,1446564840885,1446564841571,369,434,0,0,0,4,3,1,7,0004-00-0001-52.png,0002-00-0000-28.png
00000014,784,1,1446564845100,1446564845953,892,482,0,0,0,3,2,1,5,0002-00-0001-45.png,0003-00-0000-58.png
00000014,785,0,1446564847023,1446564847845,862,421,0,0,0,2,3,1,5,0003-00-0000-18.png,0002-00-0001-70.png
00000014,786,1,1446564852384,1446564853184,412,418,0,0,0,1,2,1,3,0005-00-0000-13.png,0003-00-0000-79.png
00000014,787,1,1446564854232,1446564854935,904,414,0,0,0,2,1,1,3,0003-00-0001-98.png,0005-00-0001-98.png
00000014,788,0,1446564855963,1446564856546,401,549,0,0,0,4,3,1,7,0004-00-0000-40.png,0002-00-0000-50.png
00000014,789,1,1446564860514,1446564861348,864,388,0,0,0,1,0,1,1,0005-00-0001-81.png,0001-00-0001-03.png
00000014,790,1,1446564862404,1446564863016,358,445,0,0,0,0,1,1,1,0001-00-0001-42.png,0005-00-0000-80.png
00000014,791,0,1446564864020,1446564864695,325,410,0,0,0,3,2,1,5,0002-00-0000-13.png,0003-00-0000-38.png
00000014,792,1,1446564870294,1446564871056,372,442,0,0,0,3,4,1,7,0002-00-0000-71.png,0004-00-0000-55.png
00000014,793,1,1446564872022,1446564872738,899,397,0,0,0,4,3,1,7,0004-00-0001-34.png,0002-00-0001-44.png
00000014,794,1,1446564873713,1446564874574,927,409,0,0,0,1,0,1,1,0005-00-0000-57.png,0001-00-0000-34.png
00000014,795,0,1446564875601,1446564876536,341,373,0,0,0,2,1,1,3,0003-00-0001-71.png,0005-00-0001-53.png
00000014,796,0,1446564880525,1446564881275,927,409,0,0,0,2,3,1,5,0003-00-0000-78.png,0002-00-0001-71.png
00000014,797,1,1446564886118,1446564886833,350,403,0,0,0,1,2,1,3,0005-00-0000-96.png,0003-00-0001-00.png
00000014,798,1,1446564887816,1446564888484,354,431,0,0,0,0,1,1,1,0001-00-0000-52.png,0005-00-0001-88.png
00000014,799,0,1446564889446,1446564890444,413,410,0,0,0,3,2,1,5,0002-00-0001-33.png,0003-00-0000-36.png
00000014,800,0,1446564894854,1446564895568,892,511,0,0,0,3,4,1,7,0002-00-0000-67.png,0004-00-0000-09.png
00000014,801,0,1446564898750,1446564899561,956,412,0,0,0,2,3,1,5,0003-00-0001-32.png,0002-00-0001-99.png
00000014,802,0,1446564902655,1446564903206,333,385,0,0,0,3,2,1,5,0002-00-0000-83.png,0003-00-0000-97.png
00000014,803,1,1446564907476,1446564908608,942,445,0,0,0,1,0,1,1,0005-00-0001-33.png,0001-00-0001-90.png
00000014,804,1,1446564909560,1446564910537,426,412,0,0,0,3,4,1,7,0002-00-0001-04.png,0004-00-0001-76.png
00000014,805,1,1446564911601,1446564912890,356,362,0,0,0,1,2,1,3,0005-00-0001-36.png,0003-00-0001-99.png
00000014,806,1,1446564913972,1446564914598,376,462,0,0,0,0,1,1,1,0001-00-0000-40.png,0005-00-0001-89.png
00000014,807,1,1446564915564,1446564916511,887,496,0,0,0,2,1,1,3,0003-00-0001-27.png,0005-00-0001-18.png
00000014,808,1,1446564917520,1446564918132,904,441,0,0,0,4,3,1,7,0004-00-0000-10.png,0002-00-0001-36.png
00000014,809,1,1446564919174,1446564919706,378,517,0,0,0,0,1,1,1,0001-00-0000-20.png,0005-00-0000-65.png
00000014,810,0,1446564920791,1446564921563,931,402,0,0,0,3,4,1,7,0002-00-0001-05.png,0004-00-0001-93.png
00000014,811,0,1446564924911,1446564925562,338,431,0,0,0,3,2,1,5,0002-00-0000-09.png,0003-00-0000-15.png
00000014,812,1,1446564929332,1446564930218,434,393,0,0,0,1,2,1,3,0005-00-0001-88.png,0003-00-0001-03.png
00000014,813,0,1446564931286,1446564932032,896,419,0,0,0,2,3,1,5,0003-00-0001-89.png,0002-00-0000-49.png
00000014,814,0,1446564935862,1446564936776,389,408,0,0,0,4,3,1,7,0004-00-0001-87.png,0002-00-0001-83.png
00000014,815,1,1446564940168,1446564941052,941,423,0,0,0,1,0,1,1,0005-00-0001-65.png,0001-00-0001-51.png
00000014,816,1,1446564942116,1446564943056,888,371,0,0,0,2,1,1,3,0003-00-0000-55.png,0005-00-0001-91.png
00000014,817,0,1446564944142,1446564944870,355,416,0,0,0,3,2,1,5,0002-00-0000-66.png,0003-00-0001-11.png
00000014,818,1,1446564948856,1446564949526,337,448,0,0,0,0,1,1,1,0001-00-0000-48.png,0005-00-0001-82.png
00000014,819,1,1446564950593,1446564951754,929,392,0,0,0,1,0,1,1,0005-00-0001-49.png,0001-00-0001-77.png
00000014,820,0,1446564952941,1446564953662,868,367,0,0,0,2,3,1,5,0003-00-0001-77.png,0002-00-0000-05.png
00000014,821,0,1446564956737,1446564957502,372,376,0,0,0,4,3,1,7,0004-00-0000-87.png,0002-00-0000-35.png
00000014,822,0,1446564960986,1446564961926,946,392,0,0,0,3,4,1,7,0002-00-0001-03.png,0004-00-0001-54.png
00000014,823,1,1446564965841,1446564966714,942,361,0,0,0,2,1,1,3,0003-00-0000-00.png,0005-00-0001-57.png
00000014,824,1,1446564967809,1446564968503,350,411,0,0,0,1,2,1,3,0005-00-0000-17.png,0003-00-0001-24.png
00000014,825,0,1446564969548,1446564970350,896,392,0,0,0,1,2,1,3,0005-00-0001-27.png,0003-00-0001-45.png
00000014,826,1,1446564973524,1446564974437,903,492,0,0,0,4,3,1,7,0004-00-0001-77.png,0002-00-0000-08.png
00000014,827,0,1446564975462,1446564976049,355,435,0,0,0,3,2,1,5,0002-00-0001-02.png,0003-00-0001-57.png
00000014,828,1,1446564980603,1446564981678,952,410,0,0,0,2,1,1,3,0003-00-0001-09.png,0005-00-0001-29.png
00000014,829,0,1446564982919,1446564983659,874,528,0,0,0,2,3,1,5,0003-00-0001-58.png,0002-00-0000-02.png
00000014,830,1,1446564987520,1446564988283,875,502,0,0,0,1,0,1,1,0005-00-0001-89.png,0001-00-0001-68.png
00000014,831,1,1446564989774,1446564990327,359,508,0,0,0,0,1,1,1,0001-00-0000-75.png,0005-00-0000-62.png
00000014,832,0,1446564991337,1446564992080,901,449,0,0,0,3,4,1,7,0002-00-0000-99.png,0004-00-0001-08.png
00000014,833,1,1446564995154,1446564995835,317,404,0,0,0,0,1,1,1,0001-00-0001-58.png,0005-00-0000-85.png
00000014,834,1,1446564996863,1446564997814,964,423,0,0,0,4,3,1,7,0004-00-0001-69.png,0002-00-0001-98.png
00000014,835,1,1446564998831,1446564999759,875,393,0,0,0,1,0,1,1,0005-00-0000-24.png,0001-00-0000-09.png
00000014,836,0,1446565000909,1446565001484,329,417,0,0,0,3,2,1,5,0002-00-0001-03.png,0003-00-0000-64.png
00000014,837,1,1446565005132,1446565005771,324,393,0,0,0,3,4,1,7,0002-00-0000-83.png,0004-00-0001-73.png
00000014,838,1,1446565006793,1446565007829,334,378,0,0,0,1,2,1,3,0005-00-0000-40.png,0003-00-0000-82.png
00000014,839,1,1446565008918,1446565010003,867,411,0,0,0,2,1,1,3,0003-00-0001-95.png,0005-00-0001-50.png
00000014,840,0,1446565011148,1446565012356,946,419,0,0,0,2,3,1,5,0003-00-0000-45.png,0002-00-0000-30.png
00000014,841,0,1446565015298,1446565015839,332,378,0,0,0,3,2,1,5,0002-00-0000-17.png,0003-00-0000-10.png
00000014,842,1,1446565019971,1446565020763,369,398,0,0,0,3,4,1,7,0002-00-0001-02.png,0004-00-0001-67.png
00000014,843,1,1446565021929,1446565023172,890,407,0,0,0,4,3,1,7,0004-00-0001-44.png,0002-00-0001-65.png
00000014,844,0,1446565024635,1446565025352,906,401,0,0,0,2,3,1,5,0003-00-0000-40.png,0002-00-0001-99.png
00000014,845,1,1446565028208,1446565028758,381,502,0,0,0,0,1,1,1,0001-00-0000-00.png,0005-00-0000-40.png
00000014,846,0,1446565030340,1446565031216,928,415,0,0,0,1,2,1,3,0005-00-0000-49.png,0003-00-0000-87.png
00000014,847,1,1446565034813,1446565035480,897,436,0,0,0,1,0,1,1,0005-00-0000-28.png,0001-00-0000-85.png
00000014,848,1,1446565036570,1446565037543,950,429,0,0,0,2,1,1,3,0003-00-0000-67.png,0005-00-0000-68.png
00000014,849,1,1446565038714,1446565039310,340,410,0,0,0,0,1,1,1,0001-00-0001-64.png,0005-00-0001-67.png
00000014,850,0,1446565040547,1446565041379,398,393,0,0,0,4,3,1,7,0004-00-0001-73.png,0002-00-0000-52.png
00000014,851,1,1446565044653,1446565045288,321,376,0,0,0,3,4,1,7,0002-00-0001-19.png,0004-00-0000-91.png
00000014,852,1,1446565046312,1446565047215,898,528,0,0,0,2,1,1,3,0003-00-0000-05.png,0005-00-0001-70.png
00000014,853,1,1446565048310,1446565049464,432,524,0,0,0,1,2,1,3,0005-00-0001-68.png,0003-00-0001-85.png
00000014,854,0,1446565050603,1446565051507,352,381,0,0,0,3,2,1,5,0002-00-0000-32.png,0003-00-0001-87.png
00000014,855,0,1446565055349,1446565056082,950,410,0,0,0,2,3,1,5,0003-00-0001-05.png,0002-00-0001-99.png
00000014,856,1,1446565059731,1446565060504,920,356,0,0,0,1,0,1,1,0005-00-0001-15.png,0001-00-0001-89.png
00000014,857,0,1446565061546,1446565062485,899,386,0,0,0,1,2,1,3,0005-00-0001-08.png,0003-00-0001-79.png
00000014,858,0,1446565065845,1446565066645,341,397,0,0,0,3,2,1,5,0002-00-0001-81.png,0003-00-0000-87.png
00000014,859,1,1446565069578,1446565070507,897,367,0,0,0,2,1,1,3,0003-00-0001-80.png,0005-00-0000-83.png
00000014,860,1,1446565071525,1446565072507,362,396,0,0,0,0,1,1,1,0001-00-0001-36.png,0005-00-0001-58.png
00000014,861,1,1446565073553,1446565074344,886,541,0,0,0,1,0,1,1,0005-00-0001-72.png,0001-00-0001-16.png
00000014,862,1,1446565075316,1446565076274,874,514,0,0,0,4,3,1,7,0004-00-0000-00.png,0002-00-0001-91.png
00000014,863,0,1446565077349,1446565078357,931,427,0,0,0,3,4,1,7,0002-00-0000-85.png,0004-00-0001-07.png
00000014,864,0,1446565083540,1446565084307,952,424,0,0,0,2,3,1,5,0003-00-0000-00.png,0002-00-0000-37.png
00000014,865,0,1446565088158,1446565088945,350,436,0,0,0,4,3,1,7,0004-00-0001-85.png,0002-00-0000-30.png
00000014,866,0,1446565092401,1446565093108,866,459,0,0,0,2,3,1,5,0003-00-0001-57.png,0002-00-0000-17.png
00000014,867,1,1446565096504,1446565097051,308,427,0,0,0,0,1,1,1,0001-00-0000-78.png,0005-00-0000-73.png
00000014,868,0,1446565098066,1446565099137,339,384,0,0,0,3,2,1,5,0002-00-0001-17.png,0003-00-0001-15.png
00000014,869,1,1446565102540,1446565103413,320,386,0,0,0,3,4,1,7,0002-00-0001-70.png,0004-00-0001-28.png
00000014,870,0,1446565104561,1446565105187,324,423,0,0,0,2,1,1,3,0003-00-0001-34.png,0005-00-0000-98.png
00000014,871,0,1446565109415,1446565110456,376,408,0,0,0,1,0,1,1,0005-00-0001-79.png,0001-00-0001-32.png
00000014,872,1,1446565114029,1446565114946,413,424,0,0,0,1,2,1,3,0005-00-0001-66.png,0003-00-0001-32.png
00000014,873,1,1446565116086,1446565117017,944,424,0,0,0,2,1,1,3,0003-00-0000-32.png,0005-00-0000-05.png
00000014,874,0,1446565118094,1446565118917,921,394,0,0,0,3,4,1,7,0002-00-0001-68.png,0004-00-0001-79.png
00000014,875,0,1446565122586,1446565123179,338,416,0,0,0,3,2,1,5,0002-00-0000-80.png,0003-00-0001-59.png
00000014,876,1,1446565126523,1446565127469,913,423,0,0,0,4,3,1,7,0004-00-0001-53.png,0002-00-0000-03.png
00000014,877,0,1446565128540,1446565129180,342,452,0,0,0,1,0,1,1,0005-00-0000-34.png,0001-00-0001-15.png
00000014,878,1,1446565134684,1446565135542,332,374,0,0,0,1,2,1,3,0005-00-0000-86.png,0003-00-0000-75.png
00000014,879,1,1446565136605,1446565137223,335,400,0,0,0,0,1,1,1,0001-00-0000-82.png,0005-00-0001-92.png
00000014,880,1,1446565138318,1446565139469,356,385,0,0,0,2,3,1,5,0003-00-0000-44.png,0002-00-0001-08.png
00000014,881,0,1446565140707,1446565142341,900,449,0,0,0,1,2,1,3,0005-00-0000-20.png,0003-00-0000-75.png
00000014,882,1,1446565145676,1446565146507,908,382,0,0,0,2,1,1,3,0003-00-0001-76.png,0005-00-0001-57.png
00000014,883,0,1446565147573,1446565148389,387,371,0,0,0,3,2,1,5,0002-00-0000-44.png,0003-00-0001-43.png
00000014,884,1,1446565152244,1446565153070,864,520,0,0,0,1,0,1,1,0005-00-0000-32.png,0001-00-0001-78.png
00000014,885,0,1446565154172,1446565155502,356,381,0,0,0,4,3,1,7,0004-00-0001-68.png,0002-00-0000-41.png
00000014,886,1,1446565158960,1446565159791,401,462,0,0,0,3,4,1,7,0002-00-0001-57.png,0004-00-0001-95.png
00000014,887,1,1446565160878,1446565161577,411,554,0,0,0,0,1,1,1,0001-00-0000-73.png,0005-00-0001-61.png
00000014,888,0,1446565162802,1446565163715,954,415,0,0,0,2,3,1,5,0003-00-0001-02.png,0002-00-0001-75.png
00000014,889,0,1446565168037,1446565168945,906,400,0,0,0,2,3,1,5,0003-00-0001-33.png,0002-00-0000-91.png
00000014,890,1,1446565172247,1446565172809,323,401,0,0,0,0,1,1,1,0001-00-0001-27.png,0005-00-0001-84.png
00000014,891,0,1446565174406,1446565175284,901,346,0,0,0,1,2,1,3,0005-00-0000-52.png,0003-00-0000-39.png
00000014,892,1,1446565178522,1446565179242,948,381,0,0,0,1,0,1,1,0005-00-0001-79.png,0001-00-0000-95.png
00000014,893,1,1446565180368,1446565181450,903,387,0,0,0,4,3,1,7,0004-00-0000-22.png,0002-00-0001-90.png
00000014,894,0,1446565182511,1446565183491,381,337,0,0,0,3,2,1,5,0002-00-0000-70.png,0003-00-0000-62.png
00000014,895,1,1446565186734,1446565187649,888,386,0,0,0,2,1,1,3,0003-00-0001-42.png,0005-00-0001-95.png
00000014,896,1,1446565188724,1446565189541,334,439,0,0,0,3,4,1,7,0002-00-0001-30.png,0004-00-0000-93.png
00000014,897,0,1446565190692,1446565191254,343,453,0,0,0,4,3,1,7,0004-00-0001-99.png,0002-00-0000-42.png
00000014,898,0,1446565194234,1446565194716,931,401,0,0,0,2,3,1,5,0003-00-0001-04.png,0002-00-0000-24.png
00000014,899,1,1446565199566,1446565200268,327,382,0,0,0,1,2,1,3,0005-00-0001-37.png,0003-00-0001-13.png
00000014,900,1,1446565201494,1446565202394,376,436,0,0,0,0,1,1,1,0001-00-0000-91.png,0005-00-0001-42.png
00000014,901,0,1446565203439,1446565204484,311,423,0,0,0,2,1,1,3,0003-00-0000-88.png,0005-00-0000-06.png
00000014,902,1,1446565207986,1446565208838,928,450,0,0,0,1,0,1,1,0005-00-0001-79.png,0001-00-0000-48.png
00000014,903,0,1446565210491,1446565211594,353,359,0,0,0,3,2,1,5,0002-00-0000-04.png,0003-00-0000-58.png
00000014,904,1,1446565215517,1446565216486,335,388,0,0,0,3,4,1,7,0002-00-0000-85.png,0004-00-0000-42.png
00000014,905,1,1446565217601,1446565218465,891,523,0,0,0,1,0,1,1,0005-00-0000-31.png,0001-00-0000-69.png
00000014,906,0,1446565219535,1446565220376,876,383,0,0,0,1,2,1,3,0005-00-0000-79.png,0003-00-0000-06.png
00000014,907,1,1446565223473,1446565224375,875,521,0,0,0,3,2,1,5,0002-00-0001-72.png,0003-00-0000-37.png
00000014,908,0,1446565225413,1446565226380,380,410,0,0,0,4,3,1,7,0004-00-0001-71.png,0002-00-0000-53.png
00000014,909,1,1446565229624,1446565230693,872,508,0,0,0,2,1,1,3,0003-00-0000-92.png,0005-00-0001-59.png
00000014,910,0,1446565231829,1446565232730,902,390,0,0,0,0,1,1,1,0001-00-0001-15.png,0005-00-0001-26.png
00000014,911,0,1446565237749,1446565238621,943,405,0,0,0,3,4,1,7,0002-00-0001-92.png,0004-00-0001-64.png
00000014,912,0,1446565241906,1446565242788,883,369,0,0,0,2,3,1,5,0003-00-0000-33.png,0002-00-0000-76.png
00000014,913,1,1446565247125,1446565248070,871,340,0,0,0,2,1,1,3,0003-00-0001-96.png,0005-00-0001-51.png
00000014,914,1,1446565249113,1446565250023,412,400,0,0,0,1,2,1,3,0005-00-0000-53.png,0003-00-0001-82.png
00000014,915,0,1446565251002,1446565251738,432,551,0,0,0,3,2,1,5,0002-00-0000-37.png,0003-00-0001-00.png
00000014,916,0,1446565254701,1446565255555,375,387,0,0,0,4,3,1,7,0004-00-0001-31.png,0002-00-0000-68.png
00000014,917,0,1446565260473,1446565261336,953,434,0,0,0,2,3,1,5,0003-00-0000-27.png,0002-00-0001-85.png
00000014,918,0,1446565266628,1446565267235,365,411,0,0,0,1,0,1,1,0005-00-0000-40.png,0001-00-0001-31.png
00000014,919,1,1446565270888,1446565271715,401,436,0,0,0,3,4,1,7,0002-00-0000-62.png,0004-00-0001-37.png
00000014,920,1,1446565272957,1446565273641,349,392,0,0,0,0,1,1,1,0001-00-0000-24.png,0005-00-0001-99.png
00000014,921,0,1446565274642,1446565275739,882,500,0,0,0,3,4,1,7,0002-00-0000-19.png,0004-00-0000-86.png
00000014,922,1,1446565279482,1446565280191,357,413,0,0,0,0,1,1,1,0001-00-0000-34.png,0005-00-0000-71.png
00000014,923,0,1446565281268,1446565281799,350,462,0,0,0,3,2,1,5,0002-00-0000-29.png,0003-00-0000-45.png
00000014,924,1,1446565287179,1446565288068,907,409,0,0,0,4,3,1,7,0004-00-0001-18.png,0002-00-0001-57.png
00000014,925,1,1446565289125,1446565290119,330,392,0,0,0,1,2,1,3,0005-00-0001-00.png,0003-00-0001-10.png
00000014,926,1,1446565291285,1446565292239,862,410,0,0,0,2,1,1,3,0003-00-0000-27.png,0005-00-0000-76.png
00000014,927,1,1446565293294,1446565294666,407,397,0,0,0,2,3,1,5,0003-00-0001-19.png,0002-00-0000-15.png
00000014,928,1,1446565295754,1446565296699,886,399,0,0,0,1,0,1,1,0005-00-0001-79.png,0001-00-0001-19.png
00000014,929,0,1446565297716,1446565298645,905,427,0,0,0,1,2,1,3,0005-00-0001-98.png,0003-00-0000-66.png
00000014,930,0,1446565302916,1446565303747,932,402,0,0,0,2,3,1,5,0003-00-0000-34.png,0002-00-0000-88.png
00000014,931,0,1446565309639,1446565310303,926,385,0,0,0,0,1,1,1,0001-00-0001-31.png,0005-00-0001-40.png
00000014,932,1,1446565313506,1446565314282,905,509,0,0,0,4,3,1,7,0004-00-0001-36.png,0002-00-0000-37.png
00000014,933,0,1446565315288,1446565316369,349,417,0,0,0,3,2,1,5,0002-00-0000-19.png,0003-00-0000-49.png
00000014,934,1,1446565320605,1446565321585,877,365,0,0,0,2,1,1,3,0003-00-0000-89.png,0005-00-0000-78.png
00000014,935,1,1446565322744,1446565323746,926,411,0,0,0,1,0,1,1,0005-00-0001-83.png,0001-00-0001-12.png
00000014,936,0,1446565324833,1446565325603,870,394,0,0,0,3,4,1,7,0002-00-0001-15.png,0004-00-0000-67.png
00000014,937,1,1446565328793,1446565329418,351,371,0,0,0,0,1,1,1,0001-00-0000-57.png,0005-00-0001-45.png
00000014,938,1,1446565330367,1446565331325,894,508,0,0,0,4,3,1,7,0004-00-0000-13.png,0002-00-0001-73.png
00000014,939,1,1446565332380,1446565332952,406,523,0,0,0,1,2,1,3,0005-00-0000-11.png,0003-00-0001-73.png
00000014,940,0,1446565333966,1446565334876,886,516,0,0,0,3,4,1,7,0002-00-0001-19.png,0004-00-0001-61.png
00000014,941,0,1446565337871,1446565338542,899,432,0,0,0,2,3,1,5,0003-00-0001-27.png,0002-00-0001-53.png
00000014,942,0,1446565341807,1446565342292,389,462,0,0,0,3,2,1,5,0002-00-0001-90.png,0003-00-0000-36.png
00000014,943,0,1446565345264,1446565345288,478,475,0,0,0,1,0,1,1,0005-00-0000-46.png,0001-00-0001-48.png
00000014,944,1,1446565348348,1446565349010,930,376,0,0,0,2,1,1,3,0003-00-0000-55.png,0005-00-0001-70.png
00000014,945,1,1446565350028,1446565350773,873,508,0,0,0,4,3,1,7,0004-00-0001-30.png,0002-00-0000-49.png
00000014,946,0,1446565351708,1446565352567,902,403,0,0,0,3,4,1,7,0002-00-0000-71.png,0004-00-0001-70.png
00000014,947,1,1446565355662,1446565356523,934,442,0,0,0,1,0,1,1,0005-00-0001-29.png,0001-00-0000-19.png
00000014,948,1,1446565357582,1446565358299,866,510,0,0,0,2,1,1,3,0003-00-0001-22.png,0005-00-0000-96.png
00000014,949,1,1446565359400,1446565359999,401,438,0,0,0,0,1,1,1,0001-00-0001-09.png,0005-00-0001-87.png
00000014,950,1,1446565361218,1446565362073,874,385,0,0,0,3,2,1,5,0002-00-0000-39.png,0003-00-0001-77.png
00000014,951,1,1446565363107,1446565364505,384,387,0,0,0,1,2,1,3,0005-00-0001-38.png,0003-00-0001-62.png
