subject_id,trial,correct_response,stim_time,response_time,x_coord,y_coord,trial_timeout,timeout_time,interTrial_timeout,left_rank,right_rank,distance,joint_rank,left_image,right_image
00000009,1,1,1446647994222,1446647995069,936,466,0,0,0,3,2,1,5,0002-00-0000-31.png,0003-00-0001-29.png
00000009,2,1,1446647996877,1446647996901,895,282,0,0,0,4,3,1,7,0004-00-0000-77.png,0002-00-0001-30.png
00000009,3,0,1446647998091,1446647998912,1036,279,0,0,0,3,4,1,7,0002-00-0001-33.png,0004-00-0001-16.png
00000009,4,1,1446648002118,1446648003209,916,358,0,0,0,1,0,1,1,0005-00-0000-16.png,0001-00-0001-85.png
00000009,5,0,1446648004293,1446648004369,916,393,0,0,0,1,2,1,3,0005-00-0000-39.png,0003-00-0001-30.png
00000009,6,1,1446648007532,1446648007568,912,276,0,0,0,2,1,1,3,0003-00-0001-41.png,0005-00-0001-25.png
00000009,7,0,1446648008615,1446648009427,1042,276,0,0,0,0,1,1,1,0001-00-0001-00.png,0005-00-0001-17.png
00000009,8,0,1446648012560,1446648013223,990,448,0,0,0,2,3,1,5,0003-00-0001-41.png,0002-00-0000-38.png
00000009,9,0,1446648016664,1446648017279,388,372,0,0,0,3,2,1,5,0002-00-0001-94.png,0003-00-0000-26.png
00000009,10,1,1446648020610,1446648021292,397,404,0,0,0,1,2,1,3,0005-00-0000-09.png,0003-00-0000-82.png
00000009,11,0,1446648022412,1446648022495,885,392,0,0,0,0,1,1,1,0001-00-0000-12.png,0005-00-0000-65.png
00000009,12,1,1446648025788,1446648026312,962,349,0,0,0,2,1,1,3,0003-00-0001-70.png,0005-00-0001-08.png
00000009,13,1,1446648027328,1446648027416,862,409,0,0,0,4,3,1,7,0004-00-0000-31.png,0002-00-0001-66.png
00000009,14,0,1446648029337,1446648029915,912,332,0,0,0,2,3,1,5,0003-00-0000-58.png,0002-00-0001-16.png
00000009,15,0,1446648033429,1446648033978,950,404,0,0,0,3,4,1,7,0002-00-0001-01.png,0004-00-0001-24.png
00000009,16,0,1446648037127,1446648037640,388,340,0,0,0,1,0,1,1,0005-00-0000-61.png,0001-00-0000-21.png
00000009,17,0,1446648040682,1446648041270,1133,323,0,0,0,2,3,1,5,0003-00-0001-30.png,0002-00-0001-61.png
00000009,18,1,1446648044422,1446648044454,888,307,0,0,0,3,2,1,5,0002-00-0000-62.png,0003-00-0001-06.png
00000009,19,1,1446648045445,1446648045521,864,435,0,0,0,1,0,1,1,0005-00-0000-93.png,0001-00-0001-61.png
00000009,20,1,1446648047016,1446648047206,882,467,0,0,0,4,3,1,7,0004-00-0000-82.png,0002-00-0001-76.png
00000009,21,0,1446648048476,1446648048768,913,487,0,0,0,3,4,1,7,0002-00-0000-88.png,0004-00-0000-41.png
00000009,22,1,1446648051655,1446648052253,1044,300,0,0,0,2,1,1,3,0003-00-0000-84.png,0005-00-0000-39.png
00000009,23,0,1446648053219,1446648053251,871,472,0,0,0,1,2,1,3,0005-00-0001-79.png,0003-00-0000-24.png
00000009,24,0,1446648056367,1446648057146,924,350,0,0,0,0,1,1,1,0001-00-0001-83.png,0005-00-0001-70.png
00000009,25,1,1446648060263,1446648060967,367,375,0,0,0,1,2,1,3,0005-00-0000-62.png,0003-00-0001-37.png
00000009,26,1,1446648061922,1446648062813,940,345,0,0,0,3,2,1,5,0002-00-0001-18.png,0003-00-0001-01.png
00000009,27,1,1446648063850,1446648063966,906,438,0,0,0,4,3,1,7,0004-00-0000-26.png,0002-00-0001-14.png
00000009,28,0,1446648065162,1446648065246,862,436,0,0,0,0,1,1,1,0001-00-0001-28.png,0005-00-0001-26.png
00000009,29,0,1446648068391,1446648068912,953,336,0,0,0,2,3,1,5,0003-00-0000-90.png,0002-00-0000-37.png
00000009,30,1,1446648071859,1446648072426,478,240,0,0,0,3,4,1,7,0002-00-0000-15.png,0004-00-0000-84.png
00000009,31,1,1446648073341,1446648074298,939,313,0,0,0,2,1,1,3,0003-00-0001-43.png,0005-00-0000-51.png
00000009,32,1,1446648075296,1446648075356,925,420,0,0,0,1,0,1,1,0005-00-0001-42.png,0001-00-0001-79.png
00000009,33,0,1446648076611,1446648076707,884,465,0,0,0,0,1,1,1,0001-00-0000-95.png,0005-00-0000-32.png
00000009,34,0,1446648079622,1446648080397,1020,287,0,0,0,3,4,1,7,0002-00-0000-48.png,0004-00-0000-71.png
00000009,35,0,1446648083504,1446648084073,392,350,0,0,0,4,3,1,7,0004-00-0001-68.png,0002-00-0001-55.png
00000009,36,1,1446648088328,1446648088372,862,288,0,0,0,1,0,1,1,0005-00-0001-41.png,0001-00-0001-13.png
00000009,37,1,1446648089699,1446648090414,1042,281,0,0,0,2,1,1,3,0003-00-0000-03.png,0005-00-0000-29.png
00000009,38,0,1446648091469,1446648091545,862,447,0,0,0,2,3,1,5,0003-00-0001-38.png,0002-00-0000-49.png
00000009,39,0,1446648094650,1446648095301,498,259,0,0,0,3,2,1,5,0002-00-0000-68.png,0003-00-0000-32.png
00000009,40,1,1446648098436,1446648098989,420,313,0,0,0,1,2,1,3,0005-00-0001-98.png,0003-00-0000-86.png
00000009,41,1,1446648099877,1446648101018,388,343,0,0,0,3,4,1,7,0002-00-0001-52.png,0004-00-0000-26.png
00000009,42,1,1446648102003,1446648102940,931,348,0,0,0,2,1,1,3,0003-00-0000-71.png,0005-00-0001-50.png
00000009,43,1,1446648104050,1446648104082,864,411,0,0,0,3,2,1,5,0002-00-0001-56.png,0003-00-0000-26.png
00000009,44,1,1446648105342,1446648106332,387,339,0,0,0,1,2,1,3,0005-00-0000-87.png,0003-00-0001-68.png
00000009,45,1,1446648107359,1446648108207,454,231,0,0,0,0,1,1,1,0001-00-0001-09.png,0005-00-0001-68.png
00000009,46,0,1446648109187,1446648109235,858,453,0,0,0,2,3,1,5,0003-00-0001-36.png,0002-00-0001-36.png
00000009,47,1,1446648112367,1446648112403,918,291,0,0,0,1,0,1,1,0005-00-0000-95.png,0001-00-0001-50.png
00000009,48,0,1446648113352,1446648114389,487,230,0,0,0,4,3,1,7,0004-00-0000-49.png,0002-00-0001-31.png
00000009,49,1,1446648118199,1446648118211,859,258,0,0,0,3,2,1,5,0002-00-0000-52.png,0003-00-0001-97.png
00000009,50,0,1446648119245,1446648120092,393,341,0,0,0,4,3,1,7,0004-00-0001-79.png,0002-00-0001-82.png
00000009,51,1,1446648123236,1446648124219,350,348,0,0,0,1,2,1,3,0005-00-0000-39.png,0003-00-0000-82.png
00000009,52,0,1446648125197,1446648126105,934,358,0,0,0,3,4,1,7,0002-00-0000-86.png,0004-00-0000-59.png
00000009,53,0,1446648128940,1446648129577,1074,329,0,0,0,2,3,1,5,0003-00-0001-15.png,0002-00-0001-14.png
00000009,54,0,1446648132451,1446648132976,460,279,0,0,0,1,0,1,1,0005-00-0001-16.png,0001-00-0001-78.png
00000009,55,1,1446648135841,1446648135877,964,347,0,0,0,2,1,1,3,0003-00-0000-31.png,0005-00-0000-87.png
00000009,56,0,1446648136946,1446648137864,918,357,0,0,0,0,1,1,1,0001-00-0001-54.png,0005-00-0000-79.png
00000009,57,1,1446648141001,1446648141005,862,305,0,0,0,2,1,1,3,0003-00-0000-63.png,0005-00-0000-12.png
00000009,58,0,1446648142034,1446648143227,964,410,0,0,0,2,3,1,5,0003-00-0000-04.png,0002-00-0001-00.png
00000009,59,0,1446648146258,1446648146351,923,291,0,0,0,3,4,1,7,0002-00-0000-39.png,0004-00-0000-79.png
00000009,60,1,1446648149308,1446648149909,921,400,0,0,0,4,3,1,7,0004-00-0000-46.png,0002-00-0000-56.png
00000009,61,1,1446648150825,1446648150905,896,458,0,0,0,3,2,1,5,0002-00-0000-90.png,0003-00-0001-85.png
00000009,62,1,1446648151962,1446648153017,919,333,0,0,0,1,0,1,1,0005-00-0000-95.png,0001-00-0000-71.png
00000009,63,0,1446648153915,1446648153963,912,345,0,0,0,0,1,1,1,0001-00-0000-11.png,0005-00-0000-58.png
00000009,64,1,1446648157278,1446648157892,450,260,0,0,0,1,2,1,3,0005-00-0001-84.png,0003-00-0000-40.png
00000009,65,1,1446648158778,1446648159494,1041,279,0,0,0,3,2,1,5,0002-00-0001-20.png,0003-00-0000-98.png
00000009,66,1,1446648160538,1446648160610,887,441,0,0,0,4,3,1,7,0004-00-0000-32.png,0002-00-0000-62.png
00000009,67,0,1446648162068,1446648162152,862,450,0,0,0,3,4,1,7,0002-00-0001-17.png,0004-00-0000-89.png
00000009,68,0,1446648165120,1446648165144,908,333,0,0,0,1,2,1,3,0005-00-0001-73.png,0003-00-0000-52.png
00000009,69,0,1446648168261,1446648168872,376,382,0,0,0,1,0,1,1,0005-00-0000-06.png,0001-00-0001-00.png
00000009,70,0,1446648172045,1446648172591,1044,276,0,0,0,2,3,1,5,0003-00-0001-18.png,0002-00-0000-12.png
00000009,71,0,1446648175712,1446648176332,936,326,0,0,0,0,1,1,1,0001-00-0000-96.png,0005-00-0001-60.png
00000009,72,1,1446648179479,1446648180062,1041,271,0,0,0,2,1,1,3,0003-00-0001-46.png,0005-00-0001-10.png
00000009,73,1,1446648181070,1446648181094,874,358,0,0,0,1,0,1,1,0005-00-0001-20.png,0001-00-0001-33.png
00000009,74,1,1446648182244,1446648183463,379,335,0,0,0,3,4,1,7,0002-00-0001-94.png,0004-00-0000-38.png
00000009,75,1,1446648184448,1446648185411,1039,283,0,0,0,4,3,1,7,0004-00-0000-28.png,0002-00-0001-55.png
00000009,76,0,1446648186625,1446648187587,379,321,0,0,0,3,2,1,5,0002-00-0001-29.png,0003-00-0000-89.png
00000009,77,0,1446648190689,1446648191189,913,317,0,0,0,2,3,1,5,0003-00-0000-95.png,0002-00-0000-56.png
00000009,78,1,1446648194316,1446648194813,376,395,0,0,0,1,2,1,3,0005-00-0000-18.png,0003-00-0000-63.png
00000009,79,1,1446648195726,1446648196742,939,397,0,0,0,2,1,1,3,0003-00-0000-04.png,0005-00-0000-68.png
00000009,80,0,1446648197723,1446648197771,859,426,0,0,0,0,1,1,1,0001-00-0000-40.png,0005-00-0001-67.png
00000009,81,0,1446648200895,1446648200919,910,343,0,0,0,1,2,1,3,0005-00-0001-17.png,0003-00-0001-89.png
00000009,82,0,1446648204044,1446648204594,918,348,0,0,0,2,3,1,5,0003-00-0001-67.png,0002-00-0001-09.png
00000009,83,1,1446648207544,1446648208127,930,357,0,0,0,2,1,1,3,0003-00-0000-60.png,0005-00-0001-47.png
00000009,84,1,1446648209014,1446648209801,460,246,0,0,0,0,1,1,1,0001-00-0001-73.png,0005-00-0001-82.png
00000009,85,0,1446648210693,1446648210788,873,436,0,0,0,3,4,1,7,0002-00-0001-76.png,0004-00-0000-51.png
00000009,86,1,1446648213824,1446648213842,864,385,0,0,0,3,2,1,5,0002-00-0001-65.png,0003-00-0000-95.png
00000009,87,1,1446648214789,1446648215717,938,354,0,0,0,4,3,1,7,0004-00-0001-67.png,0002-00-0000-64.png
00000009,88,1,1446648216805,1446648217797,939,420,0,0,0,1,0,1,1,0005-00-0001-31.png,0001-00-0000-29.png
00000009,89,0,1446648218821,1446648219637,403,337,0,0,0,1,0,1,1,0005-00-0000-61.png,0001-00-0001-87.png
00000009,90,0,1446648222778,1446648222794,895,298,0,0,0,2,3,1,5,0003-00-0001-40.png,0002-00-0001-90.png
00000009,91,1,1446648225838,1446648226470,370,364,0,0,0,1,2,1,3,0005-00-0001-76.png,0003-00-0000-76.png
00000009,92,0,1446648227329,1446648228326,448,256,0,0,0,3,2,1,5,0002-00-0000-61.png,0003-00-0001-80.png
00000009,93,1,1446648231403,1446648231929,964,332,0,0,0,2,1,1,3,0003-00-0001-32.png,0005-00-0001-26.png
00000009,94,0,1446648232895,1446648234705,372,332,0,0,0,4,3,1,7,0004-00-0000-14.png,0002-00-0000-06.png
00000009,95,1,1446648237963,1446648238485,426,366,0,0,0,0,1,1,1,0001-00-0000-21.png,0005-00-0001-36.png
00000009,96,1,1446648239352,1446648240282,462,243,0,0,0,3,4,1,7,0002-00-0001-30.png,0004-00-0001-88.png
00000009,97,1,1446648241323,1446648242474,389,344,0,0,0,1,2,1,3,0005-00-0000-21.png,0003-00-0001-62.png
00000009,98,1,1446648243516,1446648244236,369,366,0,0,0,0,1,1,1,0001-00-0000-45.png,0005-00-0000-54.png
00000009,99,0,1446648245299,1446648246672,341,350,0,0,0,3,2,1,5,0002-00-0001-11.png,0003-00-0000-60.png
00000009,100,1,1446648249511,1446648250529,376,366,0,0,0,3,4,1,7,0002-00-0001-63.png,0004-00-0000-31.png
00000009,101,1,1446648251449,1446648252253,930,330,0,0,0,4,3,1,7,0004-00-0001-29.png,0002-00-0000-81.png
00000009,102,1,1446648253332,1446648254767,953,328,0,0,0,1,0,1,1,0005-00-0001-05.png,0001-00-0000-77.png
00000009,103,0,1446648255725,1446648255777,889,468,0,0,0,2,3,1,5,0003-00-0000-52.png,0002-00-0001-32.png
00000009,104,1,1446648258903,1446648259492,1068,274,0,0,0,2,1,1,3,0003-00-0001-33.png,0005-00-0000-55.png
00000009,105,1,1446648260381,1446648261148,938,341,0,0,0,4,3,1,7,0004-00-0000-90.png,0002-00-0001-57.png
00000009,106,0,1446648262192,1446648262288,900,509,0,0,0,1,2,1,3,0005-00-0000-43.png,0003-00-0000-89.png
00000009,107,1,1446648265330,1446648265446,933,289,0,0,0,1,0,1,1,0005-00-0001-39.png,0001-00-0001-90.png
00000009,108,1,1446648267081,1446648267766,479,231,0,0,0,0,1,1,1,0001-00-0000-55.png,0005-00-0000-48.png
00000009,109,0,1446648268739,1446648269540,390,362,0,0,0,3,2,1,5,0002-00-0001-03.png,0003-00-0000-86.png
00000009,110,1,1446648272486,1446648272530,888,368,0,0,0,2,1,1,3,0003-00-0001-91.png,0005-00-0000-45.png
00000009,111,1,1446648273965,1446648274679,487,266,0,0,0,3,4,1,7,0002-00-0001-85.png,0004-00-0001-70.png
00000009,112,0,1446648275636,1446648276791,950,338,0,0,0,2,3,1,5,0003-00-0000-30.png,0002-00-0000-32.png
00000009,113,0,1446648280000,1446648280108,912,275,0,0,0,1,2,1,3,0005-00-0000-08.png,0003-00-0000-43.png
00000009,114,1,1446648283557,1446648284028,500,283,0,0,0,0,1,1,1,0001-00-0001-73.png,0005-00-0000-25.png
00000009,115,0,1446648284960,1446648285703,400,363,0,0,0,3,2,1,5,0002-00-0001-45.png,0003-00-0001-54.png
00000009,116,1,1446648288665,1446648289365,935,361,0,0,0,2,1,1,3,0003-00-0001-38.png,0005-00-0001-02.png
00000009,117,0,1446648290313,1446648291235,402,356,0,0,0,1,0,1,1,0005-00-0000-70.png,0001-00-0001-06.png
00000009,118,1,1446648294397,1446648294407,899,354,0,0,0,4,3,1,7,0004-00-0001-27.png,0002-00-0000-43.png
00000009,119,0,1446648295383,1446648296307,920,325,0,0,0,2,3,1,5,0003-00-0000-50.png,0002-00-0001-24.png
00000009,120,0,1446648299248,1446648299272,884,305,0,0,0,3,4,1,7,0002-00-0000-30.png,0004-00-0001-91.png
00000009,121,0,1446648302398,1446648302972,1067,294,0,0,0,2,3,1,5,0003-00-0000-78.png,0002-00-0000-67.png
00000009,122,0,1446648306135,1446648306787,1067,270,0,0,0,0,1,1,1,0001-00-0000-16.png,0005-00-0000-18.png
00000009,123,1,1446648309882,1446648309928,910,302,0,0,0,2,1,1,3,0003-00-0001-91.png,0005-00-0000-85.png
00000009,124,1,1446648310927,1446648311860,481,225,0,0,0,1,2,1,3,0005-00-0000-10.png,0003-00-0001-48.png
00000009,125,0,1446648312852,1446648314200,382,356,0,0,0,4,3,1,7,0004-00-0000-21.png,0002-00-0001-29.png
00000009,126,0,1446648317436,1446648317448,915,261,0,0,0,3,4,1,7,0002-00-0000-07.png,0004-00-0000-11.png
00000009,127,1,1446648320470,1446648320478,913,410,0,0,0,3,2,1,5,0002-00-0001-32.png,0003-00-0000-93.png
00000009,128,1,1446648321480,1446648322444,924,333,0,0,0,1,0,1,1,0005-00-0001-43.png,0001-00-0000-50.png
00000009,129,0,1446648323435,1446648323499,871,457,0,0,0,2,3,1,5,0003-00-0001-95.png,0002-00-0001-53.png
00000009,130,0,1446648326407,1446648326415,865,464,0,0,0,1,2,1,3,0005-00-0001-61.png,0003-00-0001-01.png
00000009,131,0,1446648329608,1446648329644,915,315,0,0,0,0,1,1,1,0001-00-0000-16.png,0005-00-0001-44.png
00000009,132,0,1446648332598,1446648332653,901,358,0,0,0,3,4,1,7,0002-00-0000-42.png,0004-00-0001-34.png
00000009,133,1,1446648335789,1446648336423,968,305,0,0,0,1,0,1,1,0005-00-0000-41.png,0001-00-0000-23.png
00000009,134,1,1446648337318,1446648337374,862,410,0,0,0,2,1,1,3,0003-00-0001-76.png,0005-00-0000-31.png
00000009,135,0,1446648338550,1446648339383,392,296,0,0,0,4,3,1,7,0004-00-0001-36.png,0002-00-0000-61.png
00000009,136,1,1446648342476,1446648342512,931,358,0,0,0,3,2,1,5,0002-00-0001-96.png,0003-00-0001-41.png
00000009,137,1,1446648343499,1446648344506,939,320,0,0,0,2,1,1,3,0003-00-0001-61.png,0005-00-0000-52.png
00000009,138,0,1446648345495,1446648345511,874,389,0,0,0,3,4,1,7,0002-00-0000-82.png,0004-00-0000-57.png
00000009,139,0,1446648348597,1446648348653,936,336,0,0,0,1,2,1,3,0005-00-0000-43.png,0003-00-0001-87.png
00000009,140,1,1446648351628,1446648351696,890,399,0,0,0,1,0,1,1,0005-00-0001-22.png,0001-00-0000-06.png
00000009,141,1,1446648352658,1446648353350,392,346,0,0,0,0,1,1,1,0001-00-0000-29.png,0005-00-0001-68.png
00000009,142,0,1446648354352,1446648354388,878,510,0,0,0,2,3,1,5,0003-00-0000-20.png,0002-00-0000-77.png
00000009,143,1,1446648357439,1446648357487,933,311,0,0,0,4,3,1,7,0004-00-0001-87.png,0002-00-0001-56.png
00000009,144,1,1446648358467,1446648359449,1041,271,0,0,0,3,2,1,5,0002-00-0001-90.png,0003-00-0001-72.png
00000009,145,1,1446648360344,1446648360387,858,397,0,0,0,1,0,1,1,0005-00-0000-16.png,0001-00-0000-63.png
00000009,146,0,1446648361684,1446648361728,858,455,0,0,0,2,3,1,5,0003-00-0000-68.png,0002-00-0000-47.png
00000009,147,1,1446648364965,1446648365516,506,277,0,0,0,0,1,1,1,0001-00-0000-30.png,0005-00-0001-43.png
00000009,148,1,1446648366474,1446648367429,386,352,0,0,0,1,2,1,3,0005-00-0000-24.png,0003-00-0001-73.png
00000009,149,1,1446648368412,1446648369382,928,357,0,0,0,2,1,1,3,0003-00-0000-39.png,0005-00-0001-18.png
00000009,150,1,1446648370399,1446648370423,887,380,0,0,0,3,2,1,5,0002-00-0000-89.png,0003-00-0001-13.png
00000009,151,1,1446648371810,1446648373211,491,226,0,0,0,3,4,1,7,0002-00-0001-46.png,0004-00-0001-19.png
00000009,152,1,1446648374195,1446648375693,1064,284,0,0,0,4,3,1,7,0004-00-0001-12.png,0002-00-0000-30.png
00000009,153,1,1446648376649,1446648377519,467,251,0,0,0,0,1,1,1,0001-00-0001-48.png,0005-00-0000-58.png
00000009,154,1,1446648378596,1446648378668,868,518,0,0,0,2,1,1,3,0003-00-0001-38.png,0005-00-0000-89.png
00000009,155,1,1446648380028,1446648380938,487,244,0,0,0,3,4,1,7,0002-00-0001-09.png,0004-00-0001-26.png
00000009,156,1,1446648381984,1446648382827,509,269,0,0,0,1,2,1,3,0005-00-0001-65.png,0003-00-0001-64.png
00000009,157,0,1446648384003,1446648385241,373,363,0,0,0,1,0,1,1,0005-00-0001-08.png,0001-00-0001-75.png
00000009,158,0,1446648388235,1446648388859,910,337,0,0,0,2,3,1,5,0003-00-0001-45.png,0002-00-0000-87.png
00000009,159,1,1446648393170,1446648393773,1099,265,0,0,0,3,2,1,5,0002-00-0000-47.png,0003-00-0000-02.png
00000009,160,0,1446648395621,1446648396267,464,288,0,0,0,4,3,1,7,0004-00-0001-94.png,0002-00-0000-12.png
00000009,161,1,1446648399312,1446648399870,404,352,0,0,0,3,4,1,7,0002-00-0000-32.png,0004-00-0001-60.png
00000009,162,1,1446648400826,1446648401877,500,271,0,0,0,1,2,1,3,0005-00-0001-74.png,0003-00-0000-47.png
00000009,163,1,1446648402892,1446648403812,1041,283,0,0,0,4,3,1,7,0004-00-0001-92.png,0002-00-0000-73.png
00000009,164,0,1446648404860,1446648406012,930,339,0,0,0,0,1,1,1,0001-00-0001-07.png,0005-00-0000-17.png
00000009,165,1,1446648409132,1446648409188,924,311,0,0,0,2,1,1,3,0003-00-0000-22.png,0005-00-0001-18.png
00000009,166,0,1446648410675,1446648411506,408,351,0,0,0,1,0,1,1,0005-00-0000-92.png,0001-00-0000-37.png
00000009,167,0,1446648414590,1446648415158,958,351,0,0,0,2,3,1,5,0003-00-0001-29.png,0002-00-0001-60.png
00000009,168,0,1446648418314,1446648418914,494,227,0,0,0,3,2,1,5,0002-00-0001-94.png,0003-00-0000-69.png
00000009,169,1,1446648428392,1446648428400,939,311,0,0,0,4,3,1,7,0004-00-0001-37.png,0002-00-0001-44.png
00000009,170,0,1446648429659,1446648430365,467,255,0,0,0,2,1,1,3,0003-00-0000-91.png,0005-00-0000-53.png
00000009,171,1,1446648433502,1446648434103,1066,282,0,0,0,1,0,1,1,0005-00-0001-00.png,0001-00-0000-04.png
00000009,172,0,1446648434971,1446648435890,926,354,0,0,0,3,4,1,7,0002-00-0000-19.png,0004-00-0000-52.png
00000009,173,1,1446648438920,1446648438964,893,316,0,0,0,3,2,1,5,0002-00-0000-54.png,0003-00-0000-22.png
00000009,174,0,1446648439963,1446648441350,1059,297,0,0,0,2,3,1,5,0003-00-0001-66.png,0002-00-0001-72.png
00000009,175,1,1446648444441,1446648445078,502,300,0,0,0,0,1,1,1,0001-00-0001-23.png,0005-00-0001-22.png
00000009,176,1,1446648446036,1446648446920,478,277,0,0,0,1,2,1,3,0005-00-0001-34.png,0003-00-0001-86.png
00000009,177,1,1446648447945,1446648447981,898,445,0,0,0,4,3,1,7,0004-00-0001-80.png,0002-00-0000-35.png
00000009,178,1,1446648449256,1446648450079,366,392,0,0,0,0,1,1,1,0001-00-0000-55.png,0005-00-0001-58.png
00000009,179,1,1446648451125,1446648452064,1075,321,0,0,0,2,1,1,3,0003-00-0000-45.png,0005-00-0001-52.png
00000009,180,0,1446648453311,1446648453343,896,358,0,0,0,1,2,1,3,0005-00-0000-80.png,0003-00-0000-01.png
00000009,181,1,1446648457285,1446648457835,1030,384,0,0,0,1,0,1,1,0005-00-0001-11.png,0001-00-0000-76.png
00000009,182,0,1446648465522,1446648465526,861,334,0,0,0,3,4,1,7,0002-00-0001-89.png,0004-00-0001-13.png
00000009,183,0,1446648469349,1446648469931,1064,269,0,0,0,2,3,1,5,0003-00-0000-65.png,0002-00-0001-59.png
00000009,184,1,1446648472908,1446648472992,870,380,0,0,0,3,2,1,5,0002-00-0001-54.png,0003-00-0001-79.png
00000009,185,1,1446648474639,1446648475298,475,245,0,0,0,0,1,1,1,0001-00-0000-78.png,0005-00-0001-70.png
00000009,186,1,1446648476184,1446648477268,926,357,0,0,0,2,1,1,3,0003-00-0001-84.png,0005-00-0001-60.png
00000009,187,1,1446648478303,1446648479583,434,327,0,0,0,3,4,1,7,0002-00-0001-80.png,0004-00-0000-19.png
00000009,188,1,1446648480539,1446648481869,1065,284,0,0,0,4,3,1,7,0004-00-0001-53.png,0002-00-0000-26.png
00000009,189,1,1446648482845,1446648484074,942,370,0,0,0,1,0,1,1,0005-00-0000-97.png,0001-00-0000-33.png
00000009,190,1,1446648485239,1446648485315,879,462,0,0,0,3,2,1,5,0002-00-0000-24.png,0003-00-0001-81.png
00000009,191,1,1446648486361,1446648486365,512,559,0,0,0,2,3,1,5,0003-00-0001-16.png,0002-00-0000-13.png
00000009,192,1,1446648487792,1446648488495,496,245,0,0,0,1,2,1,3,0005-00-0000-62.png,0003-00-0001-88.png
00000009,193,0,1446648489393,1446648490263,947,377,0,0,0,2,3,1,5,0003-00-0001-51.png,0002-00-0000-23.png
00000009,194,1,1446648493445,1446648493473,883,300,0,0,0,4,3,1,7,0004-00-0001-14.png,0002-00-0001-69.png
00000009,195,1,1446648494450,1446648495533,902,355,0,0,0,2,1,1,3,0003-00-0001-61.png,0005-00-0000-70.png
00000009,196,0,1446648496486,1446648497478,513,265,0,0,0,3,2,1,5,0002-00-0001-21.png,0003-00-0000-14.png
00000009,197,1,1446648500475,1446648501117,498,235,0,0,0,0,1,1,1,0001-00-0001-41.png,0005-00-0001-29.png
00000009,198,1,1446648502045,1446648503002,401,396,0,0,0,1,2,1,3,0005-00-0001-96.png,0003-00-0001-63.png
00000009,199,1,1446648504089,1446648505720,372,342,0,0,0,3,4,1,7,0002-00-0000-46.png,0004-00-0000-40.png
00000009,200,0,1446648506774,1446648507972,506,249,0,0,0,1,0,1,1,0005-00-0001-85.png,0001-00-0001-60.png
00000009,201,0,1446648510828,1446648510884,877,410,0,0,0,0,1,1,1,0001-00-0000-63.png,0005-00-0001-56.png
00000009,202,1,1446648513918,1446648513942,892,347,0,0,0,3,2,1,5,0002-00-0000-85.png,0003-00-0001-58.png
00000009,203,1,1446648514872,1446648515862,918,357,0,0,0,2,1,1,3,0003-00-0001-73.png,0005-00-0000-38.png
00000009,204,1,1446648516910,1446648516926,904,416,0,0,0,1,0,1,1,0005-00-0000-51.png,0001-00-0000-15.png
00000009,205,1,1446648518083,1446648519444,413,348,0,0,0,1,2,1,3,0005-00-0001-28.png,0003-00-0000-64.png
00000009,206,0,1446648520427,1446648520451,878,432,0,0,0,2,3,1,5,0003-00-0001-91.png,0002-00-0000-39.png
00000009,207,1,1446648523488,1446648524547,941,361,0,0,0,4,3,1,7,0004-00-0001-58.png,0002-00-0000-13.png
00000009,208,0,1446648525495,1446648525560,862,358,0,0,0,3,4,1,7,0002-00-0000-12.png,0004-00-0000-86.png
00000009,209,1,1446648528423,1446648529239,1039,301,0,0,0,3,2,1,5,0002-00-0000-75.png,0003-00-0001-98.png
00000009,210,0,1446648530138,1446648531057,501,273,0,0,0,1,0,1,1,0005-00-0000-70.png,0001-00-0001-85.png
00000009,211,1,1446648533937,1446648533977,955,362,0,0,0,4,3,1,7,0004-00-0001-54.png,0002-00-0001-61.png
00000009,212,0,1446648534965,1446648536117,934,348,0,0,0,0,1,1,1,0001-00-0000-97.png,0005-00-0001-39.png
00000009,213,0,1446648539238,1446648539286,934,309,0,0,0,2,3,1,5,0003-00-0001-26.png,0002-00-0000-25.png
00000009,214,1,1446648542228,1446648542818,932,393,0,0,0,2,1,1,3,0003-00-0000-38.png,0005-00-0001-00.png
00000009,215,0,1446648543701,1446648543717,860,363,0,0,0,1,2,1,3,0005-00-0000-46.png,0003-00-0000-03.png
00000009,216,0,1446648546838,1446648546886,938,293,0,0,0,3,4,1,7,0002-00-0001-79.png,0004-00-0000-19.png
00000009,217,0,1446648549805,1446648549849,862,379,0,0,0,3,4,1,7,0002-00-0001-12.png,0004-00-0001-84.png
00000009,218,1,1446648552992,1446648553040,897,320,0,0,0,2,1,1,3,0003-00-0000-37.png,0005-00-0000-08.png
00000009,219,0,1446648554077,1446648555216,956,352,0,0,0,1,2,1,3,0005-00-0001-62.png,0003-00-0000-79.png
00000009,220,0,1446648558349,1446648558441,946,288,0,0,0,2,3,1,5,0003-00-0000-78.png,0002-00-0001-53.png
00000009,221,1,1446648561509,1446648561575,940,336,0,0,0,3,2,1,5,0002-00-0001-54.png,0003-00-0001-62.png
00000009,222,1,1446648562537,1446648563557,943,341,0,0,0,4,3,1,7,0004-00-0000-85.png,0002-00-0001-22.png
00000009,223,1,1446648564541,1446648564577,878,358,0,0,0,1,0,1,1,0005-00-0000-29.png,0001-00-0001-58.png
00000009,224,1,1446648566270,1446648567057,493,227,0,0,0,0,1,1,1,0001-00-0001-59.png,0005-00-0001-14.png
00000009,225,0,1446648567979,1446648568043,886,407,0,0,0,3,4,1,7,0002-00-0000-40.png,0004-00-0001-15.png
00000009,226,0,1446648571157,1446648571165,899,332,0,0,0,2,3,1,5,0003-00-0000-70.png,0002-00-0000-38.png
00000009,227,1,1446648574647,1446648574685,950,311,0,0,0,2,1,1,3,0003-00-0000-31.png,0005-00-0000-46.png
00000009,228,0,1446648575652,1446648576712,482,236,0,0,0,3,2,1,5,0002-00-0001-01.png,0003-00-0000-93.png
00000009,229,0,1446648579555,1446648579655,963,357,0,0,0,0,1,1,1,0001-00-0001-02.png,0005-00-0000-30.png
00000009,230,0,1446648582628,1446648582724,935,364,0,0,0,1,2,1,3,0005-00-0000-83.png,0003-00-0001-30.png
00000009,231,1,1446648585733,1446648585753,908,353,0,0,0,4,3,1,7,0004-00-0000-78.png,0002-00-0001-74.png
00000009,232,1,1446648586803,1446648587734,927,351,0,0,0,1,0,1,1,0005-00-0000-38.png,0001-00-0000-71.png
00000009,233,0,1446648588619,1446648589461,453,352,0,0,0,1,0,1,1,0005-00-0001-34.png,0001-00-0000-73.png
00000009,234,1,1446648592412,1446648592440,991,439,0,0,0,2,1,1,3,0003-00-0001-57.png,0005-00-0000-78.png
00000009,235,1,1446648593411,1446648594536,935,330,0,0,0,4,3,1,7,0004-00-0001-96.png,0002-00-0001-28.png
00000009,236,1,1446648595576,1446648596443,492,241,0,0,0,0,1,1,1,0001-00-0000-97.png,0005-00-0000-51.png
00000009,237,1,1446648597423,1446648598359,472,272,0,0,0,3,4,1,7,0002-00-0001-66.png,0004-00-0000-47.png
00000009,238,0,1446648599357,1446648600470,920,350,0,0,0,2,3,1,5,0003-00-0001-72.png,0002-00-0000-43.png
00000009,239,0,1446648603507,1446648604012,523,273,0,0,0,3,2,1,5,0002-00-0001-30.png,0003-00-0000-73.png
00000009,240,0,1446648607014,1446648607171,1020,355,0,0,0,1,2,1,3,0005-00-0001-47.png,0003-00-0000-02.png
00000009,241,0,1446648610364,1446648610371,891,322,0,0,0,0,1,1,1,0001-00-0001-99.png,0005-00-0001-23.png
00000009,242,1,1446648613396,1446648613432,890,362,0,0,0,4,3,1,7,0004-00-0001-06.png,0002-00-0001-86.png
00000009,243,0,1446648614328,1446648615811,1036,246,0,0,0,2,3,1,5,0003-00-0001-11.png,0002-00-0001-56.png
00000009,244,1,1446648618801,1446648618809,888,404,0,0,0,1,0,1,1,0005-00-0000-20.png,0001-00-0001-78.png
00000009,245,0,1446648619856,1446648620926,1041,263,0,0,0,3,4,1,7,0002-00-0001-79.png,0004-00-0001-35.png
00000009,246,1,1446648623779,1446648624353,487,240,0,0,0,1,2,1,3,0005-00-0001-86.png,0003-00-0000-47.png
00000009,247,0,1446648625210,1446648626113,507,267,0,0,0,3,2,1,5,0002-00-0000-89.png,0003-00-0001-11.png
00000009,248,1,1446648629148,1446648629200,962,350,0,0,0,2,1,1,3,0003-00-0001-43.png,0005-00-0001-94.png
00000009,249,1,1446648630173,1446648631426,1050,301,0,0,0,3,2,1,5,0002-00-0000-17.png,0003-00-0001-05.png
00000009,250,0,1446648632348,1446648632372,858,387,0,0,0,0,1,1,1,0001-00-0000-36.png,0005-00-0001-40.png
00000009,251,1,1446648635375,1446648636185,947,331,0,0,0,1,0,1,1,0005-00-0001-26.png,0001-00-0001-36.png
00000009,252,1,1446648637035,1446648638229,423,345,0,0,0,1,2,1,3,0005-00-0001-46.png,0003-00-0001-10.png
00000009,253,0,1446648639236,1446648640432,362,352,0,0,0,4,3,1,7,0004-00-0000-49.png,0002-00-0000-27.png
00000009,254,0,1446648643542,1446648644172,1040,288,0,0,0,2,3,1,5,0003-00-0001-74.png,0002-00-0000-31.png
00000009,255,0,1446648647274,1446648647298,924,333,0,0,0,3,4,1,7,0002-00-0000-61.png,0004-00-0000-50.png
00000009,256,1,1446648650295,1446648650366,877,377,0,0,0,2,1,1,3,0003-00-0000-02.png,0005-00-0001-60.png
00000009,257,0,1446648651339,1446648652421,929,358,0,0,0,2,3,1,5,0003-00-0000-96.png,0002-00-0001-95.png
00000009,258,0,1446648655473,1446648655497,876,351,0,0,0,1,2,1,3,0005-00-0000-44.png,0003-00-0000-94.png
00000009,259,1,1446648658358,1446648659028,939,372,0,0,0,2,1,1,3,0003-00-0001-06.png,0005-00-0001-53.png
00000009,260,1,1446648659871,1446648660968,943,374,0,0,0,3,2,1,5,0002-00-0001-00.png,0003-00-0001-62.png
00000009,261,1,1446648661914,1446648662833,504,240,0,0,0,3,4,1,7,0002-00-0000-41.png,0004-00-0000-88.png
00000009,262,0,1446648663719,1446648663784,865,424,0,0,0,0,1,1,1,0001-00-0000-64.png,0005-00-0000-93.png
00000009,263,1,1446648666902,1446648667214,1046,422,0,0,0,4,3,1,7,0004-00-0001-78.png,0002-00-0000-71.png
00000009,264,0,1446648669834,1446648670394,483,322,0,0,0,1,0,1,1,0005-00-0001-57.png,0001-00-0001-91.png
00000009,265,0,1446648679438,1446648679446,865,335,0,0,0,3,4,1,7,0002-00-0001-21.png,0004-00-0001-72.png
00000009,266,1,1446648682602,1446648682610,865,302,0,0,0,2,1,1,3,0003-00-0001-52.png,0005-00-0000-49.png
00000009,267,1,1446648683597,1446648684476,941,344,0,0,0,4,3,1,7,0004-00-0000-40.png,0002-00-0001-98.png
00000009,268,0,1446648685506,1446648685578,878,358,0,0,0,1,2,1,3,0005-00-0001-56.png,0003-00-0000-55.png
00000009,269,0,1446648688726,1446648688758,895,312,0,0,0,2,3,1,5,0003-00-0001-97.png,0002-00-0000-01.png
00000009,270,0,1446648691696,1446648692326,421,386,0,0,0,1,0,1,1,0005-00-0000-47.png,0001-00-0001-80.png
00000009,271,0,1446648695159,1446648696093,946,424,0,0,0,0,1,1,1,0001-00-0000-48.png,0005-00-0000-17.png
00000009,272,1,1446648699249,1446648699293,911,333,0,0,0,3,2,1,5,0002-00-0000-10.png,0003-00-0001-76.png
00000009,273,1,1446648700253,1446648701281,1045,296,0,0,0,2,1,1,3,0003-00-0000-19.png,0005-00-0001-24.png
00000009,274,1,1446648702280,1446648703868,410,324,0,0,0,3,4,1,7,0002-00-0001-06.png,0004-00-0001-83.png
00000009,275,1,1446648704871,1446648706135,1041,288,0,0,0,4,3,1,7,0004-00-0000-12.png,0002-00-0001-43.png
00000009,276,1,1446648707105,1446648707153,909,370,0,0,0,1,0,1,1,0005-00-0001-62.png,0001-00-0001-19.png
00000009,277,0,1446648708369,1446648709221,415,326,0,0,0,3,2,1,5,0002-00-0000-74.png,0003-00-0001-26.png
00000009,278,0,1446648712349,1446648712373,935,355,0,0,0,1,2,1,3,0005-00-0001-98.png,0003-00-0000-55.png
00000009,279,0,1446648715215,1446648715798,960,358,0,0,0,2,3,1,5,0003-00-0001-40.png,0002-00-0001-09.png
00000009,280,1,1446648718947,1446648719516,442,361,0,0,0,0,1,1,1,0001-00-0000-24.png,0005-00-0000-19.png
00000009,281,1,1446648720492,1446648721404,1050,279,0,0,0,1,0,1,1,0005-00-0000-14.png,0001-00-0001-61.png
00000009,282,0,1446648722357,1446648722392,869,391,0,0,0,0,1,1,1,0001-00-0001-90.png,0005-00-0000-36.png
00000009,283,1,1446648725495,1446648726026,503,256,0,0,0,1,2,1,3,0005-00-0001-00.png,0003-00-0001-58.png
00000009,284,0,1446648726883,1446648728187,943,359,0,0,0,3,4,1,7,0002-00-0000-49.png,0004-00-0001-38.png
00000009,285,0,1446648731055,1446648731075,941,358,0,0,0,2,3,1,5,0003-00-0001-58.png,0002-00-0000-85.png
00000009,286,1,1446648734219,1446648734243,888,341,0,0,0,4,3,1,7,0004-00-0000-53.png,0002-00-0000-91.png
00000009,287,0,1446648735236,1446648736306,490,227,0,0,0,3,2,1,5,0002-00-0000-86.png,0003-00-0001-02.png
00000009,288,1,1446648739318,1446648739914,1067,270,0,0,0,2,1,1,3,0003-00-0001-50.png,0005-00-0001-03.png
00000009,289,0,1446648740818,1446648741826,1054,270,0,0,0,2,3,1,5,0003-00-0001-61.png,0002-00-0000-33.png
00000009,290,1,1446648744903,1446648744946,922,354,0,0,0,1,0,1,1,0005-00-0001-18.png,0001-00-0001-87.png
00000009,291,0,1446648745918,1446648745998,883,436,0,0,0,0,1,1,1,0001-00-0001-77.png,0005-00-0000-10.png
00000009,292,1,1446648748854,1446648748894,977,387,0,0,0,2,1,1,3,0003-00-0000-07.png,0005-00-0001-20.png
00000009,293,0,1446648749875,1446648750925,964,343,0,0,0,3,4,1,7,0002-00-0001-36.png,0004-00-0001-84.png
00000009,294,0,1446648754047,1446648754885,391,348,0,0,0,4,3,1,7,0004-00-0001-61.png,0002-00-0001-03.png
00000009,295,1,1446648757831,1446648757866,888,410,0,0,0,3,2,1,5,0002-00-0000-61.png,0003-00-0000-40.png
00000009,296,1,1446648758816,1446648760437,434,390,0,0,0,1,2,1,3,0005-00-0001-41.png,0003-00-0000-30.png
00000009,297,1,1446648761391,1446648761427,863,429,0,0,0,1,0,1,1,0005-00-0001-06.png,0001-00-0001-87.png
00000009,298,1,1446648762582,1446648763752,425,340,0,0,0,3,4,1,7,0002-00-0001-91.png,0004-00-0000-11.png
00000009,299,0,1446648764794,1446648764854,862,541,0,0,0,2,3,1,5,0003-00-0000-38.png,0002-00-0001-40.png
00000009,300,0,1446648767979,1446648768005,901,349,0,0,0,1,2,1,3,0005-00-0000-80.png,0003-00-0000-52.png
00000009,301,1,1446648770996,1446648771588,922,362,0,0,0,2,1,1,3,0003-00-0001-06.png,0005-00-0001-76.png
00000009,302,1,1446648772448,1446648773314,510,220,0,0,0,0,1,1,1,0001-00-0000-41.png,0005-00-0000-02.png
00000009,303,0,1446648774320,1446648775397,521,235,0,0,0,4,3,1,7,0004-00-0001-95.png,0002-00-0000-30.png
00000009,304,1,1446648778492,1446648778536,924,331,0,0,0,3,2,1,5,0002-00-0001-85.png,0003-00-0001-56.png
00000009,305,1,1446648779416,1446648780205,442,389,0,0,0,0,1,1,1,0001-00-0001-58.png,0005-00-0000-53.png
00000009,306,0,1446648781314,1446648782412,520,250,0,0,0,2,1,1,3,0003-00-0001-55.png,0005-00-0000-26.png
00000009,307,0,1446648785237,1446648785265,862,384,0,0,0,2,3,1,5,0003-00-0000-31.png,0002-00-0001-55.png
00000009,308,0,1446648788717,1446648789254,962,331,0,0,0,3,4,1,7,0002-00-0000-35.png,0004-00-0000-96.png
00000009,309,1,1446648792165,1446648793188,1046,279,0,0,0,1,0,1,1,0005-00-0001-77.png,0001-00-0001-52.png
00000009,310,0,1446648794053,1446648795362,498,243,0,0,0,3,2,1,5,0002-00-0000-87.png,0003-00-0000-62.png
00000009,311,1,1446648798513,1446648798874,1118,253,0,0,0,4,3,1,7,0004-00-0000-13.png,0002-00-0001-82.png
00000009,312,1,1446648799879,1446648800897,474,261,0,0,0,1,2,1,3,0005-00-0000-64.png,0003-00-0000-77.png
00000009,313,1,1446648801993,1446648803291,930,339,0,0,0,4,3,1,7,0004-00-0001-26.png,0002-00-0001-21.png
00000009,314,0,1446648804231,1446648804239,882,323,0,0,0,0,1,1,1,0001-00-0001-69.png,0005-00-0001-53.png
00000009,315,0,1446648807390,1446648807426,888,348,0,0,0,1,2,1,3,0005-00-0001-30.png,0003-00-0000-13.png
00000009,316,0,1446648810666,1446648810694,861,331,0,0,0,3,4,1,7,0002-00-0001-17.png,0004-00-0001-83.png
00000009,317,0,1446648813930,1446648813966,891,316,0,0,0,2,3,1,5,0003-00-0000-08.png,0002-00-0001-05.png
00000009,318,1,1446648817169,1446648817193,865,341,0,0,0,1,0,1,1,0005-00-0001-82.png,0001-00-0001-52.png
00000009,319,1,1446648818143,1446648819252,1043,302,0,0,0,2,1,1,3,0003-00-0000-13.png,0005-00-0001-08.png
00000009,320,1,1446648820370,1446648821382,948,314,0,0,0,3,2,1,5,0002-00-0001-48.png,0003-00-0000-44.png
00000009,321,0,1446648822328,1446648822392,906,375,0,0,0,0,1,1,1,0001-00-0000-14.png,0005-00-0001-82.png
00000009,322,1,1446648825287,1446648825822,1067,291,0,0,0,3,2,1,5,0002-00-0000-22.png,0003-00-0001-55.png
00000009,323,1,1446648826800,1446648827976,965,332,0,0,0,1,0,1,1,0005-00-0001-45.png,0001-00-0001-47.png
00000009,324,0,1446648828946,1446648828950,901,337,0,0,0,2,3,1,5,0003-00-0000-11.png,0002-00-0001-04.png
00000009,325,1,1446648831952,1446648832780,927,410,0,0,0,2,1,1,3,0003-00-0000-44.png,0005-00-0000-11.png
00000009,326,1,1446648833727,1446648834629,517,231,0,0,0,1,2,1,3,0005-00-0000-46.png,0003-00-0001-96.png
00000009,327,1,1446648835807,1446648836963,516,217,0,0,0,3,4,1,7,0002-00-0000-68.png,0004-00-0000-09.png
00000009,328,1,1446648837967,1446648839103,954,323,0,0,0,4,3,1,7,0004-00-0000-01.png,0002-00-0001-42.png
00000009,329,0,1446648840263,1446648840287,897,384,0,0,0,0,1,1,1,0001-00-0001-35.png,0005-00-0000-56.png
00000009,330,1,1446648843144,1446648843256,927,333,0,0,0,4,3,1,7,0004-00-0000-00.png,0002-00-0001-62.png
00000009,331,0,1446648844262,1446648845339,953,328,0,0,0,3,4,1,7,0002-00-0000-63.png,0004-00-0000-10.png
00000009,332,0,1446648848506,1446648848530,914,309,0,0,0,1,2,1,3,0005-00-0001-87.png,0003-00-0001-92.png
00000009,333,0,1446648851653,1446648851677,862,332,0,0,0,2,3,1,5,0003-00-0001-21.png,0002-00-0000-74.png
00000009,334,1,1446648854812,1446648854946,857,261,0,0,0,3,2,1,5,0002-00-0001-48.png,0003-00-0000-33.png
00000009,335,0,1446648855913,1446648856777,504,237,0,0,0,1,0,1,1,0005-00-0001-20.png,0001-00-0001-37.png
00000009,336,1,1446648859770,1446648859798,863,365,0,0,0,2,1,1,3,0003-00-0000-71.png,0005-00-0001-93.png
00000009,337,0,1446648860816,1446648861922,1046,297,0,0,0,2,3,1,5,0003-00-0001-19.png,0002-00-0000-19.png
00000009,338,1,1446648864970,1446648865214,883,455,0,0,0,4,3,1,7,0004-00-0000-54.png,0002-00-0000-22.png
00000009,339,1,1446648866230,1446648867249,1035,305,0,0,0,2,1,1,3,0003-00-0000-38.png,0005-00-0000-46.png
00000009,340,0,1446648868266,1446648868306,877,313,0,0,0,1,2,1,3,0005-00-0001-97.png,0003-00-0000-67.png
00000009,341,0,1446648871137,1446648871716,519,261,0,0,0,1,0,1,1,0005-00-0001-63.png,0001-00-0001-41.png
00000009,342,1,1446648874662,1446648874684,941,399,0,0,0,3,2,1,5,0002-00-0000-36.png,0003-00-0000-77.png
00000009,343,0,1446648875608,1446648876733,1019,267,0,0,0,0,1,1,1,0001-00-0001-87.png,0005-00-0001-62.png
00000009,344,1,1446648879884,1446648880590,481,234,0,0,0,3,4,1,7,0002-00-0000-65.png,0004-00-0000-30.png
00000009,345,1,1446648881504,1446648882485,490,227,0,0,0,1,2,1,3,0005-00-0000-27.png,0003-00-0000-38.png
00000009,346,1,1446648883543,1446648884811,497,237,0,0,0,0,1,1,1,0001-00-0000-27.png,0005-00-0001-36.png
00000009,347,1,1446648885826,1446648887087,1040,274,0,0,0,3,2,1,5,0002-00-0001-61.png,0003-00-0000-57.png
00000009,348,0,1446648888241,1446648889280,512,227,0,0,0,4,3,1,7,0004-00-0001-62.png,0002-00-0000-69.png
00000009,349,0,1446648892447,1446648893327,1037,307,0,0,0,2,3,1,5,0003-00-0001-71.png,0002-00-0001-18.png
00000009,350,1,1446648896381,1446648896413,872,353,0,0,0,2,1,1,3,0003-00-0001-50.png,0005-00-0000-39.png
00000009,351,0,1446648897485,1446648898557,931,352,0,0,0,3,4,1,7,0002-00-0001-18.png,0004-00-0000-07.png
00000009,352,1,1446648901756,1446648901776,898,308,0,0,0,1,0,1,1,0005-00-0001-92.png,0001-00-0000-99.png
00000009,353,1,1446648902782,1446648903929,938,338,0,0,0,4,3,1,7,0004-00-0000-38.png,0002-00-0000-04.png
00000009,354,1,1446648904976,1446648906041,410,336,0,0,0,2,3,1,5,0003-00-0001-72.png,0002-00-0001-30.png
00000009,355,1,1446648907152,1446648908073,504,238,0,0,0,1,2,1,3,0005-00-0001-84.png,0003-00-0001-26.png
00000009,356,0,1446648909148,1446648909184,886,439,0,0,0,0,1,1,1,0001-00-0001-77.png,0005-00-0000-26.png
00000009,357,1,1446648912082,1446648912996,932,321,0,0,0,3,2,1,5,0002-00-0000-08.png,0003-00-0000-75.png
00000009,358,1,1446648913878,1446648914852,422,328,0,0,0,3,4,1,7,0002-00-0001-16.png,0004-00-0000-84.png
00000009,359,1,1446648915785,1446648916927,952,420,0,0,0,2,1,1,3,0003-00-0001-72.png,0005-00-0000-89.png
00000009,360,1,1446648918022,1446648918038,903,309,0,0,0,1,0,1,1,0005-00-0001-34.png,0001-00-0000-02.png
00000009,361,1,1446648919342,1446648920742,944,305,0,0,0,2,1,1,3,0003-00-0000-19.png,0005-00-0000-73.png
00000009,362,0,1446648921750,1446648922772,517,242,0,0,0,4,3,1,7,0004-00-0001-96.png,0002-00-0001-61.png
00000009,363,1,1446648925676,1446648925712,893,403,0,0,0,3,2,1,5,0002-00-0000-28.png,0003-00-0000-68.png
00000009,364,1,1446648926710,1446648928009,504,258,0,0,0,1,2,1,3,0005-00-0001-86.png,0003-00-0000-33.png
00000009,365,1,1446648928936,1446648929733,410,332,0,0,0,0,1,1,1,0001-00-0000-14.png,0005-00-0001-40.png
00000009,366,1,1446648930920,1446648932011,941,335,0,0,0,1,0,1,1,0005-00-0000-49.png,0001-00-0001-05.png
00000009,367,0,1446648932969,1446648933017,888,398,0,0,0,2,3,1,5,0003-00-0001-01.png,0002-00-0000-45.png
00000009,368,0,1446648935871,1446648935935,907,365,0,0,0,3,4,1,7,0002-00-0001-87.png,0004-00-0001-91.png
00000009,369,0,1446648939062,1446648939630,931,357,0,0,0,2,3,1,5,0003-00-0000-34.png,0002-00-0001-62.png
00000009,370,1,1446648942780,1446648942898,873,279,0,0,0,3,2,1,5,0002-00-0001-92.png,0003-00-0000-30.png
00000009,371,0,1446648943842,1446648945002,936,348,0,0,0,3,4,1,7,0002-00-0000-12.png,0004-00-0001-97.png
00000009,372,0,1446648948155,1446648948877,1049,282,0,0,0,1,2,1,3,0005-00-0000-69.png,0003-00-0001-99.png
00000009,373,1,1446648952050,1446648952903,366,364,0,0,0,0,1,1,1,0001-00-0000-24.png,0005-00-0001-93.png
00000009,374,1,1446648953889,1446648954947,934,373,0,0,0,2,1,1,3,0003-00-0000-41.png,0005-00-0001-72.png
00000009,375,1,1446648955967,1446648957057,906,348,0,0,0,4,3,1,7,0004-00-0000-75.png,0002-00-0000-36.png
00000009,376,0,1446648958158,1446648959004,492,233,0,0,0,1,0,1,1,0005-00-0000-08.png,0001-00-0001-97.png
00000009,377,1,1446648962057,1446648962745,959,366,0,0,0,1,0,1,1,0005-00-0000-72.png,0001-00-0000-80.png
00000009,378,1,1446648963647,1446648963715,885,374,0,0,0,3,2,1,5,0002-00-0000-70.png,0003-00-0001-36.png
00000009,379,1,1446648964879,1446648964963,862,451,0,0,0,4,3,1,7,0004-00-0000-05.png,0002-00-0001-44.png
00000009,380,1,1446648966063,1446648967330,938,332,0,0,0,2,1,1,3,0003-00-0000-76.png,0005-00-0000-66.png
00000009,381,1,1446648968347,1446648969322,519,241,0,0,0,1,2,1,3,0005-00-0001-22.png,0003-00-0000-53.png
00000009,382,0,1446648970366,1446648970402,882,416,0,0,0,3,4,1,7,0002-00-0001-21.png,0004-00-0001-64.png
00000009,383,0,1446648973473,1446648973491,889,335,0,0,0,2,3,1,5,0003-00-0000-64.png,0002-00-0001-73.png
00000009,384,0,1446648976616,1446648976640,860,362,0,0,0,0,1,1,1,0001-00-0000-42.png,0005-00-0000-09.png
00000009,385,1,1446648979826,1446648979850,915,319,0,0,0,1,0,1,1,0005-00-0000-88.png,0001-00-0000-92.png
00000009,386,0,1446648980849,1446648981897,912,347,0,0,0,2,3,1,5,0003-00-0001-50.png,0002-00-0000-66.png
00000009,387,0,1446648985013,1446648985862,373,370,0,0,0,3,2,1,5,0002-00-0000-53.png,0003-00-0001-44.png
00000009,388,0,1446648989007,1446648989051,888,314,0,0,0,0,1,1,1,0001-00-0000-86.png,0005-00-0000-71.png
00000009,389,1,1446648992168,1446648992212,888,310,0,0,0,4,3,1,7,0004-00-0000-12.png,0002-00-0001-34.png
00000009,390,1,1446648993132,1446648994182,1048,304,0,0,0,2,1,1,3,0003-00-0000-99.png,0005-00-0001-71.png
00000009,391,0,1446648995199,1446648995251,865,383,0,0,0,1,2,1,3,0005-00-0001-80.png,0003-00-0000-58.png
00000009,392,0,1446648998151,1446648998850,934,349,0,0,0,3,4,1,7,0002-00-0001-82.png,0004-00-0001-51.png
00000009,393,0,1446649002005,1446649002041,889,328,0,0,0,3,4,1,7,0002-00-0000-12.png,0004-00-0001-30.png
00000009,394,1,1446649005166,1446649005203,880,312,0,0,0,3,2,1,5,0002-00-0000-64.png,0003-00-0001-43.png
00000009,395,0,1446649006190,1446649007262,946,344,0,0,0,2,3,1,5,0003-00-0001-97.png,0002-00-0001-43.png
00000009,396,1,1446649010454,1446649010470,909,303,0,0,0,1,0,1,1,0005-00-0000-35.png,0001-00-0001-05.png
00000009,397,1,1446649011449,1446649012730,516,251,0,0,0,1,2,1,3,0005-00-0000-21.png,0003-00-0000-16.png
00000009,398,1,1446649013813,1446649013837,859,414,0,0,0,4,3,1,7,0004-00-0001-47.png,0002-00-0000-86.png
00000009,399,1,1446649014994,1446649016058,520,220,0,0,0,0,1,1,1,0001-00-0001-61.png,0005-00-0001-46.png
00000009,400,1,1446649017031,1446649017039,889,413,0,0,0,2,1,1,3,0003-00-0001-62.png,0005-00-0000-72.png
00000009,401,0,1446649018324,1446649018348,876,384,0,0,0,0,1,1,1,0001-00-0000-02.png,0005-00-0001-70.png
00000009,402,0,1446649021481,1446649022038,942,377,0,0,0,2,3,1,5,0003-00-0000-65.png,0002-00-0001-76.png
00000009,403,1,1446649024865,1446649025606,1052,306,0,0,0,4,3,1,7,0004-00-0001-50.png,0002-00-0000-76.png
00000009,404,0,1446649026538,1446649027572,504,242,0,0,0,1,0,1,1,0005-00-0001-72.png,0001-00-0000-09.png
00000009,405,0,1446649031132,1446649031144,904,319,0,0,0,1,2,1,3,0005-00-0001-38.png,0003-00-0001-23.png
00000009,406,0,1446649034244,1446649034939,946,366,0,0,0,3,4,1,7,0002-00-0001-62.png,0004-00-0001-68.png
00000009,407,1,1446649038089,1446649038129,928,329,0,0,0,3,2,1,5,0002-00-0000-92.png,0003-00-0001-54.png
00000009,408,1,1446649039135,1446649040024,922,327,0,0,0,2,1,1,3,0003-00-0000-96.png,0005-00-0001-18.png
00000009,409,1,1446649041072,1446649041096,905,401,0,0,0,4,3,1,7,0004-00-0001-23.png,0002-00-0001-06.png
00000009,410,1,1446649042233,1446649043470,463,332,0,0,0,2,3,1,5,0003-00-0000-09.png,0002-00-0000-03.png
00000009,411,0,1446649044480,1446649045752,425,370,0,0,0,3,2,1,5,0002-00-0000-13.png,0003-00-0001-27.png
00000009,412,1,1446649048923,1446649048939,878,307,0,0,0,2,1,1,3,0003-00-0000-88.png,0005-00-0000-62.png
00000009,413,0,1446649049955,1446649051340,1054,285,0,0,0,1,2,1,3,0005-00-0000-72.png,0003-00-0000-72.png
00000009,414,1,1446649054194,1446649054735,432,367,0,0,0,3,4,1,7,0002-00-0001-37.png,0004-00-0001-43.png
00000009,415,0,1446649055628,1446649056485,407,358,0,0,0,1,0,1,1,0005-00-0000-52.png,0001-00-0000-92.png
00000009,416,0,1446649059396,1446649059432,879,410,0,0,0,0,1,1,1,0001-00-0000-07.png,0005-00-0001-88.png
00000009,417,0,1446649062565,1446649062601,882,317,0,0,0,0,1,1,1,0001-00-0000-56.png,0005-00-0000-18.png
00000009,418,0,1446649065755,1446649065799,894,346,0,0,0,3,4,1,7,0002-00-0001-98.png,0004-00-0000-94.png
00000009,419,1,1446649068966,1446649068990,884,309,0,0,0,3,2,1,5,0002-00-0000-34.png,0003-00-0000-47.png
00000009,420,1,1446649069950,1446649071181,470,253,0,0,0,1,2,1,3,0005-00-0000-28.png,0003-00-0001-08.png
00000009,421,1,1446649072172,1446649072193,864,390,0,0,0,2,1,1,3,0003-00-0001-98.png,0005-00-0001-70.png
00000009,422,0,1446649073466,1446649073510,862,426,0,0,0,2,3,1,5,0003-00-0000-60.png,0002-00-0000-91.png
00000009,423,0,1446649076376,1446649077593,363,344,0,0,0,1,0,1,1,0005-00-0001-31.png,0001-00-0001-49.png
00000009,424,1,1446649080621,1446649080845,904,395,0,0,0,4,3,1,7,0004-00-0000-55.png,0002-00-0001-35.png
00000009,425,1,1446649081865,1446649082944,935,321,0,0,0,1,0,1,1,0005-00-0000-77.png,0001-00-0001-12.png
00000009,426,0,1446649084011,1446649084043,937,390,0,0,0,1,2,1,3,0005-00-0001-72.png,0003-00-0001-06.png
00000009,427,1,1446649087219,1446649087255,879,340,0,0,0,4,3,1,7,0004-00-0000-62.png,0002-00-0001-27.png
00000009,428,1,1446649088204,1446649089390,941,314,0,0,0,3,2,1,5,0002-00-0001-12.png,0003-00-0000-81.png
00000009,429,1,1446649091165,1446649091943,424,341,0,0,0,2,3,1,5,0003-00-0000-44.png,0002-00-0001-93.png
00000009,430,1,1446649092944,1446649093765,426,340,0,0,0,0,1,1,1,0001-00-0001-48.png,0005-00-0000-12.png
00000009,431,1,1446649095626,1446649095733,862,503,0,0,0,2,1,1,3,0003-00-0001-64.png,0005-00-0001-73.png
00000009,432,0,1446649096829,1446649098080,949,341,0,0,0,3,4,1,7,0002-00-0000-42.png,0004-00-0000-34.png
00000009,433,1,1446649101278,1446649101316,894,333,0,0,0,3,2,1,5,0002-00-0001-11.png,0003-00-0000-13.png
00000009,434,1,1446649102244,1446649103145,943,348,0,0,0,2,1,1,3,0003-00-0000-32.png,0005-00-0000-39.png
00000009,435,0,1446649104271,1446649104350,862,453,0,0,0,3,4,1,7,0002-00-0001-85.png,0004-00-0000-62.png
00000009,436,1,1446649107210,1446649107318,914,416,0,0,0,1,0,1,1,0005-00-0000-24.png,0001-00-0000-60.png
00000009,437,1,1446649108289,1446649109473,947,351,0,0,0,4,3,1,7,0004-00-0001-13.png,0002-00-0001-44.png
00000009,438,0,1446649110512,1446649111683,970,350,0,0,0,0,1,1,1,0001-00-0000-17.png,0005-00-0001-43.png
00000009,439,0,1446649114623,1446649115189,1045,305,0,0,0,2,3,1,5,0003-00-0001-42.png,0002-00-0001-73.png
00000009,440,0,1446649118214,1446649118258,945,331,0,0,0,1,2,1,3,0005-00-0001-91.png,0003-00-0000-09.png
00000009,441,1,1446649121482,1446649121494,867,303,0,0,0,3,2,1,5,0002-00-0000-65.png,0003-00-0001-59.png
00000009,442,1,1446649122538,1446649123794,512,220,0,0,0,2,3,1,5,0003-00-0000-40.png,0002-00-0001-44.png
00000009,443,0,1446649124843,1446649124859,862,415,0,0,0,3,4,1,7,0002-00-0000-22.png,0004-00-0001-36.png
00000009,444,0,1446649128002,1446649128026,918,329,0,0,0,1,2,1,3,0005-00-0001-71.png,0003-00-0000-07.png
00000009,445,1,1446649131123,1446649131168,884,344,0,0,0,1,0,1,1,0005-00-0001-45.png,0001-00-0001-78.png
00000009,446,1,1446649132104,1446649133103,928,348,0,0,0,2,1,1,3,0003-00-0001-93.png,0005-00-0000-89.png
00000009,447,0,1446649134193,1446649134268,862,420,0,0,0,0,1,1,1,0001-00-0001-90.png,0005-00-0001-83.png
00000009,448,1,1446649137243,1446649137999,1041,279,0,0,0,4,3,1,7,0004-00-0001-81.png,0002-00-0001-37.png
00000009,449,0,1446649138872,1446649140103,430,335,0,0,0,3,2,1,5,0002-00-0000-68.png,0003-00-0001-82.png
00000009,450,1,1446649143256,1446649143312,946,330,0,0,0,1,0,1,1,0005-00-0001-66.png,0001-00-0001-73.png
00000009,451,1,1446649144218,1446649145082,512,229,0,0,0,1,2,1,3,0005-00-0001-22.png,0003-00-0000-64.png
00000009,452,0,1446649146216,1446649146281,862,389,0,0,0,0,1,1,1,0001-00-0000-31.png,0005-00-0000-47.png
00000009,453,0,1446649149107,1446649149143,885,359,0,0,0,2,3,1,5,0003-00-0001-04.png,0002-00-0001-45.png
00000009,454,1,1446649152337,1446649152382,888,314,0,0,0,4,3,1,7,0004-00-0001-95.png,0002-00-0001-70.png
00000009,455,1,1446649153324,1446649154279,1036,287,0,0,0,2,1,1,3,0003-00-0001-28.png,0005-00-0000-75.png
00000009,456,1,1446649155388,1446649156769,415,410,0,0,0,3,4,1,7,0002-00-0001-16.png,0004-00-0001-00.png
00000009,457,0,1446649157775,1446649157815,863,461,0,0,0,2,3,1,5,0003-00-0001-94.png,0002-00-0000-85.png
00000009,458,1,1446649160953,1446649161192,883,438,0,0,0,3,2,1,5,0002-00-0001-45.png,0003-00-0000-20.png
00000009,459,1,1446649162185,1446649163135,959,347,0,0,0,4,3,1,7,0004-00-0000-02.png,0002-00-0001-02.png
00000009,460,0,1446649164174,1446649165111,482,405,0,0,0,1,0,1,1,0005-00-0001-30.png,0001-00-0000-66.png
00000009,461,0,1446649168276,1446649168300,930,308,0,0,0,3,4,1,7,0002-00-0000-11.png,0004-00-0001-75.png
00000009,462,1,1446649171468,1446649171541,916,369,0,0,0,2,1,1,3,0003-00-0001-39.png,0005-00-0001-40.png
00000009,463,1,1446649172529,1446649173311,520,243,0,0,0,1,2,1,3,0005-00-0001-23.png,0003-00-0000-92.png
00000009,464,1,1446649174318,1446649175382,513,227,0,0,0,0,1,1,1,0001-00-0001-28.png,0005-00-0001-05.png
00000009,465,1,1446649176397,1446649177945,495,241,0,0,0,2,3,1,5,0003-00-0000-79.png,0002-00-0000-59.png
00000009,466,1,1446649178960,1446649180069,1047,296,0,0,0,4,3,1,7,0004-00-0001-69.png,0002-00-0000-71.png
00000009,467,1,1446649181156,1446649181188,893,327,0,0,0,2,1,1,3,0003-00-0001-29.png,0005-00-0000-98.png
00000009,468,1,1446649182427,1446649183355,510,244,0,0,0,1,2,1,3,0005-00-0000-03.png,0003-00-0000-46.png
00000009,469,1,1446649184365,1446649185507,497,235,0,0,0,0,1,1,1,0001-00-0000-43.png,0005-00-0001-05.png
00000009,470,0,1446649186672,1446649187499,506,226,0,0,0,3,2,1,5,0002-00-0001-97.png,0003-00-0000-28.png
00000009,471,0,1446649190357,1446649191332,499,266,0,0,0,1,0,1,1,0005-00-0000-94.png,0001-00-0000-25.png
00000009,472,0,1446649194512,1446649194548,898,332,0,0,0,3,4,1,7,0002-00-0001-28.png,0004-00-0000-66.png
00000009,473,0,1446649198096,1446649198139,894,324,0,0,0,0,1,1,1,0001-00-0001-77.png,0005-00-0001-56.png
00000009,474,1,1446649201219,1446649201247,865,363,0,0,0,4,3,1,7,0004-00-0001-96.png,0002-00-0000-31.png
00000009,475,1,1446649202233,1446649203199,495,234,0,0,0,3,4,1,7,0002-00-0001-14.png,0004-00-0000-97.png
00000009,476,1,1446649204194,1446649205443,405,360,0,0,0,2,3,1,5,0003-00-0001-14.png,0002-00-0000-03.png
00000009,477,0,1446649206525,1446649207428,503,221,0,0,0,3,2,1,5,0002-00-0000-73.png,0003-00-0000-80.png
00000009,478,1,1446649210540,1446649210555,862,347,0,0,0,2,1,1,3,0003-00-0000-93.png,0005-00-0001-18.png
00000009,479,0,1446649211464,1446649212615,435,336,0,0,0,1,0,1,1,0005-00-0000-96.png,0001-00-0000-19.png
00000009,480,1,1446649215635,1446649216168,419,383,0,0,0,1,2,1,3,0005-00-0000-93.png,0003-00-0000-52.png
00000009,481,1,1446649217149,1446649217958,514,233,0,0,0,1,2,1,3,0005-00-0000-58.png,0003-00-0001-59.png
00000009,482,0,1446649219066,1446649220540,510,260,0,0,0,4,3,1,7,0004-00-0001-25.png,0002-00-0000-35.png
00000009,483,0,1446649223550,1446649223582,939,384,0,0,0,3,4,1,7,0002-00-0001-16.png,0004-00-0001-11.png
00000009,484,0,1446649226579,1446649227150,503,270,0,0,0,1,0,1,1,0005-00-0001-33.png,0001-00-0001-60.png
00000009,485,1,1446649230601,1446649231143,497,260,0,0,0,0,1,1,1,0001-00-0001-90.png,0005-00-0001-78.png
00000009,486,1,1446649232096,1446649233087,1039,281,0,0,0,2,1,1,3,0003-00-0000-90.png,0005-00-0000-85.png
00000009,487,0,1446649234133,1446649235024,923,340,0,0,0,2,3,1,5,0003-00-0000-21.png,0002-00-0001-89.png
00000009,488,1,1446649237908,1446649238653,1066,273,0,0,0,3,2,1,5,0002-00-0001-96.png,0003-00-0001-77.png
00000009,489,0,1446649239620,1446649240779,923,392,0,0,0,0,1,1,1,0001-00-0000-04.png,0005-00-0000-42.png
00000009,490,1,1446649244379,1446649244407,862,332,0,0,0,1,0,1,1,0005-00-0001-46.png,0001-00-0000-53.png
00000009,491,0,1446649245423,1446649246249,485,241,0,0,0,3,2,1,5,0002-00-0000-41.png,0003-00-0001-43.png
00000009,492,0,1446649249277,1446649249321,863,366,0,0,0,1,2,1,3,0005-00-0001-80.png,0003-00-0000-87.png
00000009,493,0,1446649252507,1446649252523,863,334,0,0,0,2,3,1,5,0003-00-0000-82.png,0002-00-0000-11.png
00000009,494,0,1446649255658,1446649255694,886,340,0,0,0,3,4,1,7,0002-00-0001-50.png,0004-00-0001-53.png
00000009,495,1,1446649259136,1446649259172,893,320,0,0,0,4,3,1,7,0004-00-0000-66.png,0002-00-0000-53.png
00000009,496,1,1446649260208,1446649260984,997,297,0,0,0,2,1,1,3,0003-00-0000-34.png,0005-00-0000-61.png
00000009,497,0,1446649262752,1446649263394,946,352,0,0,0,2,3,1,5,0003-00-0001-12.png,0002-00-0000-01.png
00000009,498,0,1446649273188,1446649273716,450,380,0,0,0,3,2,1,5,0002-00-0001-45.png,0003-00-0001-46.png
00000009,499,1,1446649277946,1446649278441,427,400,0,0,0,1,2,1,3,0005-00-0000-06.png,0003-00-0000-98.png
00000009,500,1,1446649279366,1446649280107,510,264,0,0,0,3,4,1,7,0002-00-0000-34.png,0004-00-0000-68.png
00000009,501,0,1446649281167,1446649281918,419,360,0,0,0,1,0,1,1,0005-00-0000-81.png,0001-00-0001-04.png
00000009,502,1,1446649285302,1446649285860,941,358,0,0,0,4,3,1,7,0004-00-0000-31.png,0002-00-0001-96.png
00000009,503,0,1446649286893,1446649286945,868,437,0,0,0,0,1,1,1,0001-00-0000-33.png,0005-00-0000-46.png
00000009,504,1,1446649290290,1446649290852,968,413,0,0,0,2,1,1,3,0003-00-0001-78.png,0005-00-0001-39.png
00000009,505,1,1446649291667,1446649292643,930,372,0,0,0,4,3,1,7,0004-00-0001-57.png,0002-00-0000-68.png
00000009,506,1,1446649293700,1446649294444,419,340,0,0,0,0,1,1,1,0001-00-0000-99.png,0005-00-0000-38.png
00000009,507,1,1446649295496,1446649296249,522,235,0,0,0,1,2,1,3,0005-00-0001-19.png,0003-00-0000-38.png
00000009,508,1,1446649297263,1446649297311,987,556,0,0,0,1,0,1,1,0005-00-0001-27.png,0001-00-0000-23.png
00000009,509,1,1446649298529,1446649299539,946,347,0,0,0,2,1,1,3,0003-00-0001-11.png,0005-00-0000-44.png
00000009,510,0,1446649300595,1446649300639,921,405,0,0,0,2,3,1,5,0003-00-0000-98.png,0002-00-0000-45.png
00000009,511,1,1446649303684,1446649304675,478,232,0,0,0,3,4,1,7,0002-00-0001-53.png,0004-00-0001-04.png
00000009,512,0,1446649305635,1446649306285,447,347,0,0,0,3,2,1,5,0002-00-0000-70.png,0003-00-0000-50.png
00000009,513,0,1446649309251,1446649309990,502,292,0,0,0,2,1,1,3,0003-00-0001-47.png,0005-00-0001-69.png
00000009,514,1,1446649313157,1446649313165,865,302,0,0,0,4,3,1,7,0004-00-0001-95.png,0002-00-0000-78.png
00000009,515,1,1446649314221,1446649314929,430,346,0,0,0,1,2,1,3,0005-00-0000-03.png,0003-00-0001-21.png
00000009,516,1,1446649315947,1446649316688,946,345,0,0,0,1,0,1,1,0005-00-0001-16.png,0001-00-0000-51.png
00000009,517,0,1446649317748,1446649317800,955,466,0,0,0,0,1,1,1,0001-00-0001-19.png,0005-00-0001-63.png
00000009,518,1,1446649328921,1446649329409,506,267,0,0,0,3,4,1,7,0002-00-0001-22.png,0004-00-0000-13.png
00000009,519,0,1446649330423,1446649331203,931,325,0,0,0,2,3,1,5,0003-00-0000-29.png,0002-00-0000-87.png
00000009,520,0,1446649334171,1446649334708,421,374,0,0,0,3,2,1,5,0002-00-0001-79.png,0003-00-0001-49.png
00000009,521,0,1446649337903,1446649338366,459,347,0,0,0,1,0,1,1,0005-00-0000-75.png,0001-00-0001-34.png
00000009,522,1,1446649342350,1446649342909,372,359,0,0,0,0,1,1,1,0001-00-0000-70.png,0005-00-0000-40.png
00000009,523,0,1446649344701,1446649344721,911,348,0,0,0,2,3,1,5,0003-00-0001-02.png,0002-00-0001-07.png
00000009,524,1,1446649348767,1446649349297,1067,256,0,0,0,4,3,1,7,0004-00-0000-33.png,0002-00-0000-80.png
00000009,525,1,1446649350396,1446649351310,923,371,0,0,0,2,1,1,3,0003-00-0000-28.png,0005-00-0001-74.png
00000009,526,1,1446649352346,1446649352386,868,402,0,0,0,3,2,1,5,0002-00-0000-01.png,0003-00-0000-11.png
00000009,527,1,1446649353527,1446649354377,515,268,0,0,0,3,4,1,7,0002-00-0001-41.png,0004-00-0000-61.png
00000009,528,1,1446649355374,1446649356175,494,245,0,0,0,1,2,1,3,0005-00-0000-26.png,0003-00-0001-19.png
00000009,529,1,1446649357225,1446649357249,893,364,0,0,0,2,1,1,3,0003-00-0000-03.png,0005-00-0001-75.png
00000009,530,1,1446649358445,1446649359302,509,261,0,0,0,0,1,1,1,0001-00-0001-35.png,0005-00-0001-12.png
00000009,531,0,1446649360266,1446649360302,884,418,0,0,0,1,2,1,3,0005-00-0001-91.png,0003-00-0001-22.png
00000009,532,1,1446649363593,1446649364073,401,382,0,0,0,3,4,1,7,0002-00-0001-64.png,0004-00-0001-79.png
00000009,533,0,1446649365072,1446649365788,432,360,0,0,0,3,2,1,5,0002-00-0000-62.png,0003-00-0000-58.png
00000009,534,1,1446649368761,1446649369104,1018,300,0,0,0,4,3,1,7,0004-00-0000-87.png,0002-00-0001-91.png
00000009,535,0,1446649370043,1446649371053,1067,294,0,0,0,2,3,1,5,0003-00-0000-30.png,0002-00-0000-50.png
00000009,536,1,1446649374128,1446649374164,896,394,0,0,0,1,0,1,1,0005-00-0000-10.png,0001-00-0000-29.png
00000009,537,1,1446649375150,1446649376211,1046,280,0,0,0,2,1,1,3,0003-00-0001-78.png,0005-00-0001-62.png
00000009,538,0,1446649377347,1446649377384,878,420,0,0,0,1,2,1,3,0005-00-0000-81.png,0003-00-0000-30.png
00000009,539,1,1446649380506,1446649380542,858,327,0,0,0,1,0,1,1,0005-00-0000-64.png,0001-00-0000-50.png
00000009,540,0,1446649381510,1446649382454,951,345,0,0,0,3,4,1,7,0002-00-0001-68.png,0004-00-0000-67.png
00000009,541,1,1446649385606,1446649385638,876,410,0,0,0,4,3,1,7,0004-00-0000-11.png,0002-00-0001-76.png
00000009,542,0,1446649386838,1446649386854,866,341,0,0,0,0,1,1,1,0001-00-0000-32.png,0005-00-0001-74.png
00000009,543,0,1446649407713,1446649408249,469,258,0,0,0,3,2,1,5,0002-00-0000-31.png,0003-00-0000-93.png
00000009,544,0,1446649411453,1446649411469,892,306,0,0,0,2,3,1,5,0003-00-0000-39.png,0002-00-0001-63.png
00000009,545,0,1446649414650,1446649415229,493,266,0,0,0,3,2,1,5,0002-00-0000-70.png,0003-00-0000-43.png
00000009,546,1,1446649418241,1446649418317,889,341,0,0,0,1,0,1,1,0005-00-0000-41.png,0001-00-0000-74.png
00000009,547,1,1446649419351,1446649420167,915,354,0,0,0,2,1,1,3,0003-00-0001-78.png,0005-00-0001-45.png
00000009,548,0,1446649421113,1446649421173,878,419,0,0,0,0,1,1,1,0001-00-0000-30.png,0005-00-0001-61.png
00000009,549,0,1446649424282,1446649424306,887,309,0,0,0,3,4,1,7,0002-00-0000-81.png,0004-00-0000-43.png
00000009,550,1,1446649427294,1446649427765,434,355,0,0,0,1,2,1,3,0005-00-0001-86.png,0003-00-0001-78.png
00000009,551,1,1446649428684,1446649429733,946,314,0,0,0,4,3,1,7,0004-00-0001-37.png,0002-00-0001-89.png
00000009,552,0,1446649430838,1446649430858,867,365,0,0,0,2,3,1,5,0003-00-0001-93.png,0002-00-0000-35.png
00000009,553,1,1446649433990,1446649434034,888,318,0,0,0,3,2,1,5,0002-00-0001-75.png,0003-00-0000-61.png
00000009,554,1,1446649434966,1446649435893,511,244,0,0,0,3,4,1,7,0002-00-0000-60.png,0004-00-0001-51.png
00000009,555,0,1446649436942,1446649437006,888,474,0,0,0,0,1,1,1,0001-00-0001-94.png,0005-00-0001-25.png
00000009,556,0,1446649439930,1446649439942,914,383,0,0,0,2,3,1,5,0003-00-0000-58.png,0002-00-0000-54.png
00000009,557,1,1446649452181,1446649452778,939,450,0,0,0,2,1,1,3,0003-00-0000-33.png,0005-00-0001-92.png
00000009,558,0,1446649453777,1446649454670,498,245,0,0,0,1,0,1,1,0005-00-0000-20.png,0001-00-0001-96.png
00000009,559,1,1446649458566,1446649459123,499,267,0,0,0,1,2,1,3,0005-00-0001-55.png,0003-00-0001-82.png
00000009,560,0,1446649460020,1446649461266,406,413,0,0,0,4,3,1,7,0004-00-0000-86.png,0002-00-0001-18.png
00000009,561,0,1446649464266,1446649464939,517,244,0,0,0,1,0,1,1,0005-00-0000-10.png,0001-00-0000-97.png
00000009,562,1,1446649468236,1446649468782,1021,328,0,0,0,4,3,1,7,0004-00-0001-80.png,0002-00-0000-68.png
00000009,563,0,1446649469715,1446649469784,862,448,0,0,0,0,1,1,1,0001-00-0001-71.png,0005-00-0000-87.png
00000009,564,0,1446649472935,1446649472963,873,296,0,0,0,1,2,1,3,0005-00-0000-87.png,0003-00-0000-56.png
00000009,565,0,1446649476106,1446649476185,1003,297,0,0,0,2,3,1,5,0003-00-0000-94.png,0002-00-0000-82.png
00000009,566,1,1446649479307,1446649479796,1047,278,0,0,0,2,1,1,3,0003-00-0001-72.png,0005-00-0000-09.png
00000009,567,0,1446649480750,1446649480766,867,427,0,0,0,3,4,1,7,0002-00-0001-44.png,0004-00-0000-60.png
00000009,568,1,1446649483866,1446649483913,913,344,0,0,0,3,2,1,5,0002-00-0001-48.png,0003-00-0000-61.png
00000009,569,0,1446649484934,1446649486064,1057,279,0,0,0,2,3,1,5,0003-00-0000-20.png,0002-00-0000-64.png
00000009,570,1,1446649488901,1446649489519,494,267,0,0,0,1,2,1,3,0005-00-0001-76.png,0003-00-0000-61.png
00000009,571,1,1446649490426,1446649491697,941,355,0,0,0,4,3,1,7,0004-00-0000-54.png,0002-00-0000-66.png
00000009,572,0,1446649492623,1446649494026,472,236,0,0,0,3,2,1,5,0002-00-0001-91.png,0003-00-0001-53.png
00000009,573,1,1446649502931,1446649503462,941,381,0,0,0,2,1,1,3,0003-00-0000-23.png,0005-00-0001-67.png
00000009,574,0,1446649504446,1446649504522,861,435,0,0,0,0,1,1,1,0001-00-0000-22.png,0005-00-0000-27.png
00000009,575,1,1446649507664,1446649508184,499,245,0,0,0,3,4,1,7,0002-00-0000-41.png,0004-00-0001-87.png
00000009,576,0,1446649509101,1446649509992,494,251,0,0,0,1,0,1,1,0005-00-0001-22.png,0001-00-0001-97.png
00000009,577,1,1446649513132,1446649513140,863,329,0,0,0,1,0,1,1,0005-00-0001-06.png,0001-00-0001-97.png
00000009,578,1,1446649514116,1446649514882,503,252,0,0,0,1,2,1,3,0005-00-0000-64.png,0003-00-0001-78.png
00000009,579,0,1446649515905,1446649517156,1062,307,0,0,0,0,1,1,1,0001-00-0000-90.png,0005-00-0001-59.png
00000009,580,1,1446649520117,1446649520172,860,367,0,0,0,4,3,1,7,0004-00-0000-49.png,0002-00-0000-17.png
00000009,581,0,1446649521112,1446649522250,509,236,0,0,0,3,2,1,5,0002-00-0001-55.png,0003-00-0000-73.png
00000009,582,1,1446649526060,1446649526136,886,274,0,0,0,2,1,1,3,0003-00-0001-84.png,0005-00-0000-32.png
00000009,583,0,1446649527213,1446649528392,956,348,0,0,0,3,4,1,7,0002-00-0000-10.png,0004-00-0001-65.png
00000009,584,0,1446649531425,1446649531477,862,349,0,0,0,2,3,1,5,0003-00-0001-14.png,0002-00-0001-84.png
00000009,585,0,1446649534357,1446649535104,1018,282,0,0,0,0,1,1,1,0001-00-0000-89.png,0005-00-0001-58.png
00000009,586,1,1446649538287,1446649538928,1043,279,0,0,0,4,3,1,7,0004-00-0001-72.png,0002-00-0001-23.png
00000009,587,0,1446649539916,1446649540855,1169,332,0,0,0,2,3,1,5,0003-00-0001-40.png,0002-00-0001-24.png
00000009,588,0,1446649544059,1446649544651,918,333,0,0,0,3,4,1,7,0002-00-0001-79.png,0004-00-0001-95.png
00000009,589,0,1446649547535,1446649547573,859,348,0,0,0,1,2,1,3,0005-00-0001-80.png,0003-00-0000-02.png
00000009,590,1,1446649550609,1446649550653,857,360,0,0,0,1,0,1,1,0005-00-0001-67.png,0001-00-0000-03.png
00000009,591,1,1446649551623,1446649552719,1039,268,0,0,0,2,1,1,3,0003-00-0001-94.png,0005-00-0001-81.png
00000009,592,1,1446649553737,1446649553753,874,384,0,0,0,3,2,1,5,0002-00-0000-61.png,0003-00-0001-02.png
00000009,593,1,1446649554902,1446649554918,872,417,0,0,0,2,1,1,3,0003-00-0001-30.png,0005-00-0001-58.png
00000009,594,0,1446649556226,1446649557102,513,239,0,0,0,1,0,1,1,0005-00-0001-58.png,0001-00-0001-46.png
00000009,595,0,1446649560295,1446649560311,875,324,0,0,0,1,2,1,3,0005-00-0001-39.png,0003-00-0000-16.png
00000009,596,0,1446649563904,1446649564663,482,260,0,0,0,4,3,1,7,0004-00-0001-27.png,0002-00-0000-07.png
00000009,597,1,1446649569396,1446649569925,427,365,0,0,0,3,4,1,7,0002-00-0000-26.png,0004-00-0001-74.png
00000009,598,1,1446649570919,1446649571830,504,236,0,0,0,0,1,1,1,0001-00-0001-82.png,0005-00-0000-73.png
00000009,599,1,1446649572825,1446649572881,895,414,0,0,0,3,2,1,5,0002-00-0001-41.png,0003-00-0001-86.png
00000009,600,1,1446649573985,1446649575103,413,341,0,0,0,2,3,1,5,0003-00-0001-60.png,0002-00-0000-57.png
00000009,601,1,1446649576214,1446649576226,862,411,0,0,0,4,3,1,7,0004-00-0000-99.png,0002-00-0000-22.png
00000009,602,1,1446649577298,1446649578882,482,236,0,0,0,1,2,1,3,0005-00-0001-01.png,0003-00-0001-85.png
00000009,603,0,1446649579869,1446649581282,478,249,0,0,0,1,0,1,1,0005-00-0001-35.png,0001-00-0000-28.png
00000009,604,1,1446649584394,1446649585044,411,371,0,0,0,2,3,1,5,0003-00-0000-06.png,0002-00-0000-92.png
00000009,605,0,1446649586072,1446649586930,415,355,0,0,0,3,2,1,5,0002-00-0001-83.png,0003-00-0001-29.png
00000009,606,0,1446649590025,1446649590093,895,371,0,0,0,3,4,1,7,0002-00-0000-61.png,0004-00-0000-05.png
00000009,607,0,1446649593087,1446649593123,862,394,0,0,0,0,1,1,1,0001-00-0000-22.png,0005-00-0000-98.png
00000009,608,1,1446649596030,1446649596068,862,426,0,0,0,2,1,1,3,0003-00-0000-84.png,0005-00-0000-26.png
00000009,609,0,1446649597164,1446649598753,479,258,0,0,0,3,2,1,5,0002-00-0000-34.png,0003-00-0000-65.png
00000009,610,0,1446649601934,1446649602747,485,251,0,0,0,4,3,1,7,0004-00-0000-41.png,0002-00-0000-27.png
00000009,611,1,1446649619521,1446649620101,376,369,0,0,0,2,3,1,5,0003-00-0001-07.png,0002-00-0000-98.png
00000009,612,0,1446649621184,1446649622086,994,261,0,0,0,1,2,1,3,0005-00-0001-62.png,0003-00-0001-98.png
00000009,613,0,1446649625424,1446649625980,418,351,0,0,0,1,0,1,1,0005-00-0001-05.png,0001-00-0000-81.png
00000009,614,0,1446649629053,1446649629089,863,360,0,0,0,3,4,1,7,0002-00-0001-06.png,0004-00-0000-63.png
00000009,615,0,1446649632255,1446649632287,892,303,0,0,0,0,1,1,1,0001-00-0000-60.png,0005-00-0001-53.png
00000009,616,1,1446649635461,1446649635473,881,332,0,0,0,2,1,1,3,0003-00-0001-66.png,0005-00-0000-23.png
00000009,617,1,1446649636398,1446649637517,923,365,0,0,0,2,1,1,3,0003-00-0000-52.png,0005-00-0001-40.png
00000009,618,0,1446649638526,1446649639763,931,343,0,0,0,1,2,1,3,0005-00-0000-31.png,0003-00-0001-39.png
00000009,619,0,1446649642629,1446649643365,942,357,0,0,0,3,4,1,7,0002-00-0000-95.png,0004-00-0000-26.png
00000009,620,0,1446649646426,1446649647082,488,256,0,0,0,1,0,1,1,0005-00-0000-43.png,0001-00-0000-36.png
00000009,621,0,1446649650142,1446649650150,862,360,0,0,0,0,1,1,1,0001-00-0001-98.png,0005-00-0000-89.png
00000009,622,0,1446649653362,1446649653924,1039,304,0,0,0,2,3,1,5,0003-00-0001-86.png,0002-00-0001-30.png
00000009,623,1,1446649657108,1446649657124,888,329,0,0,0,4,3,1,7,0004-00-0000-48.png,0002-00-0000-08.png
00000009,624,1,1446649658201,1446649659195,948,327,0,0,0,3,2,1,5,0002-00-0000-82.png,0003-00-0001-01.png
00000009,625,1,1446649660279,1446649661618,509,221,0,0,0,3,4,1,7,0002-00-0000-96.png,0004-00-0001-77.png
00000009,626,0,1446649662673,1446649663763,500,264,0,0,0,1,0,1,1,0005-00-0000-56.png,0001-00-0000-46.png
00000009,627,0,1446649666674,1446649666752,927,384,0,0,0,0,1,1,1,0001-00-0000-00.png,0005-00-0000-30.png
00000009,628,1,1446649669817,1446649669837,886,336,0,0,0,3,2,1,5,0002-00-0001-75.png,0003-00-0001-65.png
00000009,629,0,1446649670832,1446649671785,932,335,0,0,0,2,3,1,5,0003-00-0001-93.png,0002-00-0001-80.png
00000009,630,1,1446649674878,1446649675806,416,386,0,0,0,1,2,1,3,0005-00-0001-88.png,0003-00-0000-74.png
00000009,631,1,1446649676865,1446649678069,926,324,0,0,0,4,3,1,7,0004-00-0001-91.png,0002-00-0000-44.png
00000009,632,1,1446649679109,1446649679172,888,422,0,0,0,2,1,1,3,0003-00-0001-91.png,0005-00-0000-44.png
00000009,633,1,1446649680453,1446649681618,1021,275,0,0,0,4,3,1,7,0004-00-0001-58.png,0002-00-0001-34.png
00000009,634,0,1446649682748,1446649683703,517,227,0,0,0,1,0,1,1,0005-00-0001-33.png,0001-00-0001-32.png
00000009,635,1,1446649686790,1446649686826,898,318,0,0,0,2,1,1,3,0003-00-0000-62.png,0005-00-0000-37.png
00000009,636,0,1446649687854,1446649689150,958,347,0,0,0,2,3,1,5,0003-00-0001-75.png,0002-00-0001-58.png
00000009,637,0,1446649692244,1446649692300,904,337,0,0,0,1,2,1,3,0005-00-0001-45.png,0003-00-0000-15.png
00000009,638,0,1446649695366,1446649695422,913,342,0,0,0,0,1,1,1,0001-00-0001-73.png,0005-00-0000-13.png
00000009,639,1,1446649698281,1446649698313,968,381,0,0,0,3,2,1,5,0002-00-0001-36.png,0003-00-0000-35.png
00000009,640,1,1446649699420,1446649700332,504,254,0,0,0,3,4,1,7,0002-00-0001-22.png,0004-00-0000-37.png
00000009,641,1,1446649701436,1446649701464,905,405,0,0,0,3,2,1,5,0002-00-0000-51.png,0003-00-0000-24.png
00000009,642,0,1446649702871,1446649703749,486,429,0,0,0,4,3,1,7,0004-00-0000-15.png,0002-00-0000-36.png
00000009,643,1,1446649706763,1446649706779,883,355,0,0,0,1,0,1,1,0005-00-0000-41.png,0001-00-0001-94.png
00000009,644,1,1446649707798,1446649708719,498,252,0,0,0,0,1,1,1,0001-00-0000-54.png,0005-00-0001-09.png
00000009,645,1,1446649709725,1446649710733,501,256,0,0,0,3,4,1,7,0002-00-0000-86.png,0004-00-0000-58.png
00000009,646,1,1446649711923,1446649712782,508,257,0,0,0,1,2,1,3,0005-00-0000-82.png,0003-00-0001-40.png
00000009,647,0,1446649713917,1446649714957,1066,276,0,0,0,2,3,1,5,0003-00-0000-27.png,0002-00-0000-23.png
00000009,648,1,1446649722272,1446649722920,943,372,0,0,0,2,1,1,3,0003-00-0001-26.png,0005-00-0001-69.png
00000009,649,0,1446649723983,1446649724059,888,410,0,0,0,0,1,1,1,0001-00-0001-92.png,0005-00-0001-35.png
00000009,650,0,1446649727200,1446649727220,888,332,0,0,0,2,3,1,5,0003-00-0000-55.png,0002-00-0001-60.png
00000009,651,1,1446649730060,1446649730218,990,384,0,0,0,2,1,1,3,0003-00-0001-45.png,0005-00-0000-83.png
00000009,652,1,1446649731207,1446649732449,509,242,0,0,0,3,4,1,7,0002-00-0000-28.png,0004-00-0000-76.png
00000009,653,0,1446649733474,1446649734631,494,267,0,0,0,3,2,1,5,0002-00-0000-36.png,0003-00-0001-73.png
00000009,654,1,1446649737904,1446649737944,888,369,0,0,0,1,0,1,1,0005-00-0001-62.png,0001-00-0000-70.png
00000009,655,1,1446649738897,1446649739860,521,266,0,0,0,1,2,1,3,0005-00-0001-58.png,0003-00-0001-29.png
00000009,656,1,1446649740965,1446649741988,950,369,0,0,0,4,3,1,7,0004-00-0000-48.png,0002-00-0001-07.png
00000009,657,1,1446649743114,1446649743166,890,385,0,0,0,4,3,1,7,0004-00-0001-34.png,0002-00-0001-81.png
00000009,658,1,1446649744474,1446649744542,872,462,0,0,0,2,1,1,3,0003-00-0001-91.png,0005-00-0000-20.png
00000009,659,1,1446649746033,1446649746778,518,259,0,0,0,0,1,1,1,0001-00-0000-10.png,0005-00-0001-12.png
00000009,660,0,1446649747971,1446649747983,868,485,0,0,0,1,2,1,3,0005-00-0001-77.png,0003-00-0001-27.png
00000009,661,0,1446649751130,1446649751158,882,315,0,0,0,3,4,1,7,0002-00-0000-70.png,0004-00-0000-57.png
00000009,662,1,1446649754279,1446649754319,898,342,0,0,0,3,2,1,5,0002-00-0001-77.png,0003-00-0000-36.png
00000009,663,0,1446649755296,1446649756364,949,376,0,0,0,2,3,1,5,0003-00-0001-79.png,0002-00-0001-41.png
00000009,664,0,1446649759540,1446649760163,462,404,0,0,0,1,0,1,1,0005-00-0001-84.png,0001-00-0001-80.png
00000009,665,0,1446649763868,1446649764815,444,359,0,0,0,4,3,1,7,0004-00-0000-23.png,0002-00-0001-25.png
00000009,666,1,1446649767978,1446649768902,428,385,0,0,0,3,4,1,7,0002-00-0001-15.png,0004-00-0001-13.png
00000009,667,1,1446649769913,1446649769929,859,408,0,0,0,2,1,1,3,0003-00-0001-55.png,0005-00-0001-89.png
00000009,668,0,1446649771085,1446649772458,1038,298,0,0,0,2,3,1,5,0003-00-0001-51.png,0002-00-0001-26.png
00000009,669,1,1446649775628,1446649775640,885,330,0,0,0,3,2,1,5,0002-00-0001-66.png,0003-00-0000-57.png
00000009,670,0,1446649776620,1446649776702,862,462,0,0,0,1,2,1,3,0005-00-0001-02.png,0003-00-0001-30.png
00000009,671,0,1446649780008,1446649780605,922,357,0,0,0,0,1,1,1,0001-00-0000-59.png,0005-00-0001-19.png
00000009,672,0,1446649783555,1446649784101,495,277,0,0,0,1,0,1,1,0005-00-0000-48.png,0001-00-0001-19.png
00000009,673,1,1446649787385,1446649788040,502,262,0,0,0,1,2,1,3,0005-00-0000-85.png,0003-00-0001-76.png
00000009,674,0,1446649789072,1446649790021,497,260,0,0,0,3,2,1,5,0002-00-0000-86.png,0003-00-0001-26.png
00000009,675,1,1446649793027,1446649793106,901,332,0,0,0,1,0,1,1,0005-00-0001-00.png,0001-00-0000-41.png
00000009,676,1,1446649794161,1446649795040,914,376,0,0,0,2,1,1,3,0003-00-0000-19.png,0005-00-0001-29.png
00000009,677,1,1446649796134,1446649796160,884,361,0,0,0,4,3,1,7,0004-00-0000-56.png,0002-00-0001-97.png
00000009,678,1,1446649797579,1446649799099,409,337,0,0,0,2,3,1,5,0003-00-0001-98.png,0002-00-0001-21.png
00000009,679,1,1446649800153,1446649801265,520,234,0,0,0,0,1,1,1,0001-00-0000-80.png,0005-00-0001-01.png
00000009,680,1,1446649802409,1446649803758,411,348,0,0,0,3,4,1,7,0002-00-0001-45.png,0004-00-0000-35.png
00000009,681,0,1446649804884,1446649805934,1027,297,0,0,0,3,4,1,7,0002-00-0000-77.png,0004-00-0000-93.png
00000009,682,1,1446649809076,1446649809121,913,332,0,0,0,3,2,1,5,0002-00-0001-00.png,0003-00-0001-89.png
00000009,683,0,1446649810070,1446649811011,945,316,0,0,0,2,3,1,5,0003-00-0000-18.png,0002-00-0000-15.png
00000009,684,1,1446649813854,1446649813960,1004,360,0,0,0,2,1,1,3,0003-00-0001-19.png,0005-00-0001-53.png
00000009,685,0,1446649815032,1446649815895,505,275,0,0,0,1,0,1,1,0005-00-0000-24.png,0001-00-0000-93.png
00000009,686,0,1446649818791,1446649818811,972,403,0,0,0,0,1,1,1,0001-00-0000-43.png,0005-00-0001-16.png
00000009,687,1,1446649821773,1446649822333,497,236,0,0,0,1,2,1,3,0005-00-0001-75.png,0003-00-0001-93.png
00000009,688,1,1446649823284,1446649823321,887,405,0,0,0,4,3,1,7,0004-00-0001-39.png,0002-00-0001-55.png
00000009,689,1,1446649824468,1446649824484,888,441,0,0,0,3,2,1,5,0002-00-0000-63.png,0003-00-0000-73.png
00000009,690,1,1446649825707,1446649826798,1091,285,0,0,0,4,3,1,7,0004-00-0001-41.png,0002-00-0000-54.png
00000009,691,0,1446649827858,1446649827874,866,396,0,0,0,0,1,1,1,0001-00-0001-02.png,0005-00-0000-84.png
00000009,692,0,1446649830965,1446649831001,888,342,0,0,0,1,2,1,3,0005-00-0001-84.png,0003-00-0001-24.png
00000009,693,0,1446649833857,1446649834626,933,364,0,0,0,3,4,1,7,0002-00-0000-06.png,0004-00-0000-18.png
00000009,694,1,1446649845741,1446649846264,1010,278,0,0,0,1,0,1,1,0005-00-0000-40.png,0001-00-0000-81.png
00000009,695,0,1446649847363,1446649848294,934,350,0,0,0,2,3,1,5,0003-00-0001-69.png,0002-00-0000-24.png
00000009,696,0,1446649851457,1446649852381,482,275,0,0,0,2,1,1,3,0003-00-0001-55.png,0005-00-0000-66.png
00000009,697,1,1446649855532,1446649855638,1024,281,0,0,0,2,1,1,3,0003-00-0001-82.png,0005-00-0000-81.png
00000009,698,0,1446649856635,1446649857698,504,236,0,0,0,1,0,1,1,0005-00-0000-80.png,0001-00-0000-86.png
00000009,699,1,1446649860732,1446649861300,1066,310,0,0,0,4,3,1,7,0004-00-0001-31.png,0002-00-0001-23.png
00000009,700,1,1446649862228,1446649863058,399,349,0,0,0,1,2,1,3,0005-00-0000-42.png,0003-00-0000-21.png
00000009,701,1,1446649864147,1446649865567,522,251,0,0,0,3,4,1,7,0002-00-0001-71.png,0004-00-0001-45.png
00000009,702,0,1446649866648,1446649868025,485,257,0,0,0,3,2,1,5,0002-00-0000-93.png,0003-00-0001-18.png
00000009,703,0,1446649871129,1446649871691,1042,280,0,0,0,0,1,1,1,0001-00-0000-95.png,0005-00-0001-49.png
00000009,704,0,1446649877941,1446649878488,941,383,0,0,0,2,3,1,5,0003-00-0000-83.png,0002-00-0000-06.png
00000009,705,0,1446649881586,1446649881602,865,355,0,0,0,1,2,1,3,0005-00-0001-44.png,0003-00-0000-62.png
00000009,706,1,1446649884807,1446649884823,892,308,0,0,0,1,0,1,1,0005-00-0000-60.png,0001-00-0001-97.png
00000009,707,0,1446649885761,1446649885777,860,468,0,0,0,3,4,1,7,0002-00-0001-47.png,0004-00-0001-18.png
00000009,708,0,1446649888860,1446649888943,913,329,0,0,0,0,1,1,1,0001-00-0000-66.png,0005-00-0000-56.png
00000009,709,1,1446649891852,1446649891928,886,455,0,0,0,4,3,1,7,0004-00-0000-89.png,0002-00-0001-52.png
00000009,710,0,1446649892979,1446649894088,510,228,0,0,0,3,2,1,5,0002-00-0000-56.png,0003-00-0001-37.png
00000009,711,0,1446649897158,1446649897205,891,388,0,0,0,2,3,1,5,0003-00-0001-88.png,0002-00-0000-04.png
00000009,712,1,1446649900406,1446649900418,886,332,0,0,0,2,1,1,3,0003-00-0001-87.png,0005-00-0000-83.png
00000009,713,0,1446649901442,1446649902394,419,381,0,0,0,3,2,1,5,0002-00-0001-83.png,0003-00-0000-63.png
00000009,714,1,1446649905466,1446649905502,893,324,0,0,0,2,1,1,3,0003-00-0000-15.png,0005-00-0000-57.png
00000009,715,0,1446649906510,1446649907646,517,220,0,0,0,4,3,1,7,0004-00-0000-27.png,0002-00-0001-79.png
00000009,716,0,1446649910863,1446649910899,918,323,0,0,0,3,4,1,7,0002-00-0000-60.png,0004-00-0000-79.png
00000009,717,0,1446649913972,1446649914020,880,347,0,0,0,1,2,1,3,0005-00-0000-55.png,0003-00-0000-46.png
00000009,718,0,1446649917023,1446649917576,937,350,0,0,0,2,3,1,5,0003-00-0001-66.png,0002-00-0000-72.png
00000009,719,1,1446649920721,1446649920737,867,322,0,0,0,1,0,1,1,0005-00-0001-20.png,0001-00-0000-04.png
00000009,720,1,1446649921755,1446649922603,402,338,0,0,0,0,1,1,1,0001-00-0000-15.png,0005-00-0001-73.png
00000009,721,0,1446649923660,1446649924157,921,557,0,0,0,1,2,1,3,0005-00-0001-70.png,0003-00-0000-26.png
00000009,722,1,1446649927160,1446649927184,878,332,0,0,0,4,3,1,7,0004-00-0001-79.png,0002-00-0000-41.png
00000009,723,0,1446649928204,1446649929201,929,350,0,0,0,2,3,1,5,0003-00-0001-52.png,0002-00-0000-30.png
00000009,724,0,1446649932140,1446649932650,453,396,0,0,0,1,0,1,1,0005-00-0001-60.png,0001-00-0001-85.png
00000009,725,1,1446649935698,1446649936246,1041,308,0,0,0,3,2,1,5,0002-00-0001-69.png,0003-00-0001-87.png
00000009,726,1,1446649937279,1446649938150,508,230,0,0,0,0,1,1,1,0001-00-0001-98.png,0005-00-0001-26.png
00000009,727,1,1446649939156,1446649939212,940,432,0,0,0,2,1,1,3,0003-00-0000-49.png,0005-00-0001-76.png
00000009,728,1,1446649940546,1446649941411,414,347,0,0,0,3,4,1,7,0002-00-0000-79.png,0004-00-0001-46.png
00000009,729,0,1446649942652,1446649942701,868,454,0,0,0,3,4,1,7,0002-00-0001-79.png,0004-00-0001-06.png
00000009,730,1,1446649945784,1446649946293,492,245,0,0,0,0,1,1,1,0001-00-0000-28.png,0005-00-0001-34.png
00000009,731,0,1446649947184,1446649948376,509,248,0,0,0,3,2,1,5,0002-00-0000-29.png,0003-00-0001-95.png
00000009,732,1,1446649951226,1446649951754,931,350,0,0,0,1,0,1,1,0005-00-0001-37.png,0001-00-0000-51.png
00000009,733,1,1446649952699,1446649952723,886,427,0,0,0,2,1,1,3,0003-00-0000-41.png,0005-00-0000-81.png
00000009,734,0,1446649953951,1446649953987,882,426,0,0,0,1,2,1,3,0005-00-0001-38.png,0003-00-0001-25.png
00000009,735,0,1446649957177,1446649958151,1038,301,0,0,0,2,3,1,5,0003-00-0001-59.png,0002-00-0000-69.png
00000009,736,0,1446649961205,1446649961785,463,429,0,0,0,4,3,1,7,0004-00-0001-09.png,0002-00-0000-48.png
00000009,737,0,1446649972018,1446649972665,921,386,0,0,0,1,2,1,3,0005-00-0000-71.png,0003-00-0001-71.png
00000009,738,1,1446649975645,1446649976382,953,377,0,0,0,3,2,1,5,0002-00-0000-65.png,0003-00-0001-12.png
00000009,739,0,1446649977387,1446649978329,496,235,0,0,0,1,0,1,1,0005-00-0000-16.png,0001-00-0001-85.png
00000009,740,0,1446649981551,1446649981583,900,313,0,0,0,0,1,1,1,0001-00-0000-20.png,0005-00-0000-79.png
00000009,741,1,1446649984770,1446649985647,480,262,0,0,0,3,4,1,7,0002-00-0000-88.png,0004-00-0000-70.png
00000009,742,0,1446649986609,1446649987921,1043,257,0,0,0,2,3,1,5,0003-00-0000-06.png,0002-00-0001-94.png
00000009,743,1,1446649990833,1446649990850,862,395,0,0,0,2,1,1,3,0003-00-0000-14.png,0005-00-0001-85.png
00000009,744,1,1446649991894,1446649991931,874,470,0,0,0,4,3,1,7,0004-00-0001-72.png,0002-00-0001-43.png
00000009,745,1,1446649993098,1446649994081,504,288,0,0,0,0,1,1,1,0001-00-0001-41.png,0005-00-0001-19.png
00000009,746,0,1446649995116,1446649996073,516,260,0,0,0,3,2,1,5,0002-00-0001-95.png,0003-00-0001-95.png
00000009,747,1,1446649999199,1446649999762,937,363,0,0,0,4,3,1,7,0004-00-0001-64.png,0002-00-0001-97.png
00000009,748,1,1446650000751,1446650001643,905,352,0,0,0,2,1,1,3,0003-00-0000-13.png,0005-00-0000-09.png
00000009,749,1,1446650002654,1446650003747,937,342,0,0,0,1,0,1,1,0005-00-0001-84.png,0001-00-0001-62.png
00000009,750,0,1446650004875,1446650004891,911,398,0,0,0,3,4,1,7,0002-00-0000-20.png,0004-00-0000-29.png
00000009,751,0,1446650008003,1446650008051,904,336,0,0,0,1,2,1,3,0005-00-0000-05.png,0003-00-0001-03.png
00000009,752,0,1446650011104,1446650011747,1039,301,0,0,0,2,3,1,5,0003-00-0000-06.png,0002-00-0000-96.png
00000009,753,1,1446650014812,1446650015424,498,255,0,0,0,0,1,1,1,0001-00-0000-70.png,0005-00-0000-82.png
00000009,754,1,1446650016986,1446650017014,890,389,0,0,0,1,0,1,1,0005-00-0001-15.png,0001-00-0001-10.png
00000009,755,0,1446650018119,1446650019660,922,383,0,0,0,3,4,1,7,0002-00-0000-28.png,0004-00-0001-94.png
00000009,756,1,1446650022808,1446650023401,511,266,0,0,0,1,2,1,3,0005-00-0000-07.png,0003-00-0000-66.png
00000009,757,1,1446650024411,1446650024435,857,410,0,0,0,4,3,1,7,0004-00-0001-51.png,0002-00-0000-49.png
00000009,758,1,1446650025521,1446650026762,932,348,0,0,0,2,1,1,3,0003-00-0001-85.png,0005-00-0000-86.png
00000009,759,0,1446650027818,1446650028909,1026,303,0,0,0,2,3,1,5,0003-00-0001-29.png,0002-00-0001-51.png
00000009,760,1,1446650032001,1446650032013,883,359,0,0,0,3,2,1,5,0002-00-0001-69.png,0003-00-0000-01.png
00000009,761,1,1446650033372,1446650034282,930,358,0,0,0,1,0,1,1,0005-00-0000-30.png,0001-00-0001-14.png
00000009,762,0,1446650035355,1446650036886,511,234,0,0,0,4,3,1,7,0004-00-0001-40.png,0002-00-0001-49.png
00000009,763,0,1446650040049,1446650040077,887,312,0,0,0,1,2,1,3,0005-00-0001-02.png,0003-00-0000-33.png
00000009,764,0,1446650043121,1446650043145,888,375,0,0,0,0,1,1,1,0001-00-0001-65.png,0005-00-0001-93.png
00000009,765,1,1446650046230,1446650046278,887,355,0,0,0,2,1,1,3,0003-00-0000-70.png,0005-00-0001-99.png
00000009,766,0,1446650047362,1446650048703,1030,288,0,0,0,2,3,1,5,0003-00-0000-42.png,0002-00-0000-66.png
00000009,767,1,1446650051532,1446650051572,888,410,0,0,0,3,2,1,5,0002-00-0000-00.png,0003-00-0000-54.png
00000009,768,0,1446650052669,1446650053813,955,349,0,0,0,3,4,1,7,0002-00-0001-04.png,0004-00-0001-59.png
00000009,769,0,1446650056752,1446650057318,1041,282,0,0,0,2,3,1,5,0003-00-0000-10.png,0002-00-0000-67.png
00000009,770,0,1446650060868,1446650061539,493,249,0,0,0,4,3,1,7,0004-00-0001-76.png,0002-00-0000-79.png
00000009,771,1,1446650064486,1446650064510,971,377,0,0,0,3,2,1,5,0002-00-0000-72.png,0003-00-0000-32.png
00000009,772,1,1446650065519,1446650066507,497,247,0,0,0,1,2,1,3,0005-00-0000-18.png,0003-00-0000-49.png
00000009,773,1,1446650067555,1446650068917,432,336,0,0,0,3,4,1,7,0002-00-0001-25.png,0004-00-0000-70.png
00000009,774,0,1446650070210,1446650071489,904,352,0,0,0,0,1,1,1,0001-00-0001-32.png,0005-00-0000-51.png
00000009,775,1,1446650074470,1446650074598,939,488,0,0,0,2,1,1,3,0003-00-0000-52.png,0005-00-0001-33.png
00000009,776,0,1446650075563,1446650076890,490,264,0,0,0,1,0,1,1,0005-00-0000-08.png,0001-00-0000-77.png
00000009,777,0,1446650080035,1446650080073,888,348,0,0,0,1,2,1,3,0005-00-0001-30.png,0003-00-0000-34.png
00000009,778,1,1446650083044,1446650083119,950,387,0,0,0,3,2,1,5,0002-00-0001-76.png,0003-00-0000-76.png
00000009,779,1,1446650084101,1446650085449,964,420,0,0,0,1,0,1,1,0005-00-0001-67.png,0001-00-0001-00.png
00000009,780,0,1446650086495,1446650086515,913,373,0,0,0,3,4,1,7,0002-00-0001-09.png,0004-00-0000-91.png
00000009,781,1,1446650089575,1446650090445,445,257,0,0,0,0,1,1,1,0001-00-0000-46.png,0005-00-0000-25.png
00000009,782,1,1446650091485,1446650092429,1014,277,0,0,0,2,1,1,3,0003-00-0001-64.png,0005-00-0001-02.png
00000009,783,1,1446650093591,1446650093686,862,505,0,0,0,4,3,1,7,0004-00-0001-02.png,0002-00-0001-68.png
00000009,784,0,1446650095032,1446650096165,920,367,0,0,0,2,3,1,5,0003-00-0000-48.png,0002-00-0001-87.png
00000009,785,0,1446650100467,1446650101022,1039,289,0,0,0,2,3,1,5,0003-00-0001-93.png,0002-00-0001-81.png
00000009,786,1,1446650103981,1446650104057,963,351,0,0,0,3,2,1,5,0002-00-0000-85.png,0003-00-0000-25.png
00000009,787,0,1446650105169,1446650106307,939,363,0,0,0,1,2,1,3,0005-00-0001-64.png,0003-00-0001-00.png
00000009,788,0,1446650109207,1446650109738,510,264,0,0,0,4,3,1,7,0004-00-0001-46.png,0002-00-0001-38.png
00000009,789,0,1446650112859,1446650113491,1063,264,0,0,0,3,4,1,7,0002-00-0001-47.png,0004-00-0000-92.png
00000009,790,1,1446650124960,1446650124972,864,353,0,0,0,1,0,1,1,0005-00-0001-22.png,0001-00-0000-80.png
00000009,791,0,1446650126116,1446650126987,1031,279,0,0,0,0,1,1,1,0001-00-0001-88.png,0005-00-0000-21.png
00000009,792,1,1446650130162,1446650130716,1055,307,0,0,0,2,1,1,3,0003-00-0001-25.png,0005-00-0000-38.png
00000009,793,0,1446650132290,1446650133374,931,352,0,0,0,3,4,1,7,0002-00-0000-96.png,0004-00-0001-65.png
00000009,794,0,1446650136222,1446650137091,473,276,0,0,0,3,2,1,5,0002-00-0001-85.png,0003-00-0001-40.png
00000009,795,0,1446650140199,1446650140215,863,366,0,0,0,1,2,1,3,0005-00-0000-87.png,0003-00-0001-58.png
00000009,796,1,1446650143361,1446650143410,888,358,0,0,0,2,1,1,3,0003-00-0001-79.png,0005-00-0001-12.png
00000009,797,0,1446650144487,1446650145409,1010,331,0,0,0,0,1,1,1,0001-00-0000-42.png,0005-00-0000-79.png
00000009,798,1,1446650148375,1446650148922,1037,309,0,0,0,4,3,1,7,0004-00-0001-72.png,0002-00-0001-98.png
00000009,799,0,1446650149899,1446650151335,933,373,0,0,0,2,3,1,5,0003-00-0001-59.png,0002-00-0000-01.png
00000009,800,0,1446650154319,1446650155265,426,354,0,0,0,1,0,1,1,0005-00-0001-03.png,0001-00-0000-42.png
00000009,801,1,1446650158317,1446650158363,927,359,0,0,0,2,1,1,3,0003-00-0000-47.png,0005-00-0000-15.png
00000009,802,1,1446650159400,1446650160585,956,355,0,0,0,4,3,1,7,0004-00-0001-63.png,0002-00-0001-05.png
00000009,803,1,1446650161653,1446650163291,518,248,0,0,0,3,4,1,7,0002-00-0001-12.png,0004-00-0000-32.png
00000009,804,0,1446650164380,1446650165472,498,265,0,0,0,1,0,1,1,0005-00-0000-05.png,0001-00-0000-84.png
00000009,805,1,1446650168640,1446650168669,885,341,0,0,0,3,2,1,5,0002-00-0000-23.png,0003-00-0000-13.png
00000009,806,0,1446650169663,1446650169703,871,384,0,0,0,1,2,1,3,0005-00-0001-21.png,0003-00-0001-00.png
00000009,807,0,1446650172630,1446650173158,945,393,0,0,0,2,3,1,5,0003-00-0001-88.png,0002-00-0000-84.png
00000009,808,0,1446650176133,1446650176681,1067,306,0,0,0,0,1,1,1,0001-00-0001-37.png,0005-00-0000-94.png
00000009,809,1,1446650179801,1446650180362,510,265,0,0,0,3,4,1,7,0002-00-0001-23.png,0004-00-0001-70.png
00000009,810,1,1446650181392,1446650181404,860,348,0,0,0,3,2,1,5,0002-00-0000-92.png,0003-00-0000-59.png
00000009,811,1,1446650182545,1446650183789,941,302,0,0,0,1,0,1,1,0005-00-0001-67.png,0001-00-0000-48.png
00000009,812,0,1446650184924,1446650185925,416,331,0,0,0,4,3,1,7,0004-00-0000-43.png,0002-00-0001-64.png
00000009,813,1,1446650189121,1446650189714,1061,288,0,0,0,2,1,1,3,0003-00-0001-49.png,0005-00-0000-43.png
00000009,814,0,1446650190702,1446650190718,877,328,0,0,0,2,3,1,5,0003-00-0000-30.png,0002-00-0001-61.png
00000009,815,0,1446650193558,1446650193602,950,404,0,0,0,1,2,1,3,0005-00-0000-62.png,0003-00-0000-22.png
00000009,816,0,1446650196515,1446650196590,904,373,0,0,0,0,1,1,1,0001-00-0000-28.png,0005-00-0001-19.png
00000009,817,1,1446650199507,1446650200084,1058,301,0,0,0,2,1,1,3,0003-00-0000-63.png,0005-00-0001-72.png
00000009,818,1,1446650201007,1446650201042,858,431,0,0,0,3,2,1,5,0002-00-0000-40.png,0003-00-0000-09.png
00000009,819,0,1446650202166,1446650203202,505,251,0,0,0,1,0,1,1,0005-00-0000-24.png,0001-00-0001-69.png
00000009,820,0,1446650206342,1446650207140,941,360,0,0,0,2,3,1,5,0003-00-0000-07.png,0002-00-0000-30.png
00000009,821,0,1446650210187,1446650210218,863,357,0,0,0,0,1,1,1,0001-00-0001-62.png,0005-00-0001-45.png
00000009,822,1,1446650220791,1446650220973,965,299,0,0,0,4,3,1,7,0004-00-0001-89.png,0002-00-0001-32.png
00000009,823,1,1446650222054,1446650223192,483,254,0,0,0,3,4,1,7,0002-00-0000-28.png,0004-00-0000-21.png
00000009,824,1,1446650224197,1446650225085,481,247,0,0,0,1,2,1,3,0005-00-0001-54.png,0003-00-0001-88.png
00000009,825,0,1446650226119,1446650226892,516,240,0,0,0,3,2,1,5,0002-00-0000-59.png,0003-00-0000-69.png
00000009,826,1,1446650230001,1446650230053,890,297,0,0,0,2,1,1,3,0003-00-0000-97.png,0005-00-0001-22.png
00000009,827,1,1446650231037,1446650232177,907,335,0,0,0,1,0,1,1,0005-00-0000-14.png,0001-00-0000-59.png
00000009,828,0,1446650233217,1446650233281,903,399,0,0,0,2,3,1,5,0003-00-0000-84.png,0002-00-0000-76.png
00000009,829,1,1446650236470,1446650237225,934,369,0,0,0,4,3,1,7,0004-00-0001-25.png,0002-00-0000-28.png
00000009,830,1,1446650238128,1446650238913,496,259,0,0,0,0,1,1,1,0001-00-0001-73.png,0005-00-0000-36.png
00000009,831,1,1446650239975,1446650241083,404,386,0,0,0,3,4,1,7,0002-00-0000-52.png,0004-00-0000-00.png
00000009,832,1,1446650242177,1446650243498,453,420,0,0,0,1,2,1,3,0005-00-0001-92.png,0003-00-0001-79.png
00000009,833,1,1446650244632,1446650245498,937,355,0,0,0,4,3,1,7,0004-00-0001-53.png,0002-00-0001-89.png
00000009,834,0,1446650247204,1446650248270,922,326,0,0,0,3,4,1,7,0002-00-0000-17.png,0004-00-0000-22.png
00000009,835,0,1446650251296,1446650251347,881,378,0,0,0,0,1,1,1,0001-00-0000-71.png,0005-00-0000-62.png
00000009,836,0,1446650254218,1446650254250,936,295,0,0,0,2,3,1,5,0003-00-0001-84.png,0002-00-0001-23.png
00000009,837,1,1446650257311,1446650257346,921,345,0,0,0,1,0,1,1,0005-00-0001-02.png,0001-00-0000-67.png
00000009,838,1,1446650258347,1446650259971,521,221,0,0,0,1,2,1,3,0005-00-0001-38.png,0003-00-0000-61.png
00000009,839,1,1446650260974,1446650260994,866,439,0,0,0,3,2,1,5,0002-00-0000-96.png,0003-00-0000-35.png
00000009,840,1,1446650262134,1446650262170,882,430,0,0,0,2,1,1,3,0003-00-0001-15.png,0005-00-0000-91.png
00000009,841,1,1446650263567,1446650263587,858,409,0,0,0,3,2,1,5,0002-00-0000-02.png,0003-00-0001-27.png
00000009,842,0,1446650264989,1446650265040,893,472,0,0,0,1,2,1,3,0005-00-0000-53.png,0003-00-0001-11.png
00000009,843,0,1446650268008,1446650268324,953,356,0,0,0,2,3,1,5,0003-00-0001-42.png,0002-00-0000-53.png
00000009,844,0,1446650271448,1446650271492,917,373,0,0,0,3,4,1,7,0002-00-0000-70.png,0004-00-0001-61.png
00000009,845,0,1446650274589,1446650275121,518,246,0,0,0,1,0,1,1,0005-00-0000-08.png,0001-00-0001-46.png
00000009,846,1,1446650278195,1446650278223,913,358,0,0,0,4,3,1,7,0004-00-0000-38.png,0002-00-0000-94.png
00000009,847,0,1446650279271,1446650280120,945,294,0,0,0,0,1,1,1,0001-00-0001-66.png,0005-00-0001-44.png
00000009,848,1,1446650283424,1446650283925,939,369,0,0,0,2,1,1,3,0003-00-0000-16.png,0005-00-0000-12.png
00000009,849,1,1446650284885,1446650286032,1070,281,0,0,0,4,3,1,7,0004-00-0001-41.png,0002-00-0001-28.png
00000009,850,1,1446650287082,1446650287110,878,436,0,0,0,1,0,1,1,0005-00-0000-88.png,0001-00-0001-07.png
00000009,851,1,1446650288133,1446650289561,513,248,0,0,0,1,2,1,3,0005-00-0001-12.png,0003-00-0001-70.png
00000009,852,1,1446650290578,1446650290594,870,422,0,0,0,2,1,1,3,0003-00-0001-74.png,0005-00-0000-37.png
00000009,853,0,1446650291751,1446650293004,490,236,0,0,0,3,2,1,5,0002-00-0001-02.png,0003-00-0001-28.png
00000009,854,0,1446650296094,1446650296122,892,337,0,0,0,2,3,1,5,0003-00-0000-99.png,0002-00-0000-95.png
00000009,855,0,1446650299283,1446650299295,887,339,0,0,0,3,4,1,7,0002-00-0001-11.png,0004-00-0000-02.png
00000009,856,0,1446650302123,1446650302135,868,404,0,0,0,0,1,1,1,0001-00-0001-58.png,0005-00-0001-37.png
00000009,857,1,1446650305544,1446650305556,860,384,0,0,0,4,3,1,7,0004-00-0000-78.png,0002-00-0001-10.png
00000009,858,1,1446650306593,1446650307379,516,268,0,0,0,0,1,1,1,0001-00-0000-99.png,0005-00-0001-00.png
00000009,859,0,1446650308459,1446650308511,880,482,0,0,0,1,2,1,3,0005-00-0000-22.png,0003-00-0000-12.png
00000009,860,1,1446650311682,1446650312482,515,239,0,0,0,3,4,1,7,0002-00-0001-45.png,0004-00-0000-37.png
00000009,861,1,1446650313474,1446650314306,939,351,0,0,0,2,1,1,3,0003-00-0000-90.png,0005-00-0000-52.png
00000009,862,1,1446650315363,1446650315379,876,410,0,0,0,3,2,1,5,0002-00-0000-13.png,0003-00-0001-50.png
00000009,863,0,1446650316596,1446650317468,929,355,0,0,0,2,3,1,5,0003-00-0000-45.png,0002-00-0000-84.png
00000009,864,1,1446650320619,1446650320858,926,436,0,0,0,1,0,1,1,0005-00-0001-80.png,0001-00-0001-91.png
00000009,865,1,1446650321894,1446650322926,490,290,0,0,0,1,2,1,3,0005-00-0001-93.png,0003-00-0001-26.png
00000009,866,1,1446650324046,1446650324802,514,250,0,0,0,0,1,1,1,0001-00-0000-61.png,0005-00-0001-24.png
00000009,867,1,1446650325834,1446650326873,1038,310,0,0,0,1,0,1,1,0005-00-0001-67.png,0001-00-0000-20.png
00000009,868,1,1446650327915,1446650327943,876,458,0,0,0,4,3,1,7,0004-00-0001-21.png,0002-00-0001-20.png
00000009,869,1,1446650329846,1446650330652,936,332,0,0,0,2,1,1,3,0003-00-0001-22.png,0005-00-0001-20.png
00000009,870,1,1446650331712,1446650333395,488,250,0,0,0,3,4,1,7,0002-00-0001-71.png,0004-00-0001-11.png
00000009,871,0,1446650334379,1446650335540,916,391,0,0,0,2,3,1,5,0003-00-0000-64.png,0002-00-0001-49.png
00000009,872,1,1446650338363,1446650338942,936,376,0,0,0,3,2,1,5,0002-00-0001-53.png,0003-00-0001-03.png
00000009,873,0,1446650339928,1446650340988,940,358,0,0,0,2,3,1,5,0003-00-0001-41.png,0002-00-0001-87.png
00000009,874,0,1446650344072,1446650344088,859,359,0,0,0,3,4,1,7,0002-00-0001-23.png,0004-00-0001-80.png
00000009,875,1,1446650346981,1446650347504,1066,304,0,0,0,2,1,1,3,0003-00-0000-47.png,0005-00-0001-97.png
00000009,876,0,1446650348403,1446650349781,485,243,0,0,0,3,2,1,5,0002-00-0000-28.png,0003-00-0001-00.png
00000009,877,0,1446650365358,1446650365998,911,379,0,0,0,0,1,1,1,0001-00-0001-37.png,0005-00-0000-48.png
00000009,878,1,1446650369209,1446650369225,885,318,0,0,0,4,3,1,7,0004-00-0000-11.png,0002-00-0001-78.png
00000009,879,1,1446650370202,1446650371069,909,332,0,0,0,1,0,1,1,0005-00-0001-62.png,0001-00-0001-47.png
00000009,880,0,1446650372138,1446650372186,875,425,0,0,0,1,2,1,3,0005-00-0000-14.png,0003-00-0001-72.png
00000009,881,0,1446650375268,1446650375296,879,358,0,0,0,0,1,1,1,0001-00-0001-91.png,0005-00-0001-80.png
00000009,882,1,1446650378438,1446650378458,862,332,0,0,0,3,2,1,5,0002-00-0001-62.png,0003-00-0000-57.png
00000009,883,1,1446650379363,1446650380639,496,260,0,0,0,3,4,1,7,0002-00-0000-02.png,0004-00-0001-33.png
00000009,884,1,1446650381678,1446650381714,905,382,0,0,0,1,0,1,1,0005-00-0000-11.png,0001-00-0000-63.png
00000009,885,0,1446650382989,1446650383064,862,488,0,0,0,2,3,1,5,0003-00-0000-95.png,0002-00-0001-71.png
00000009,886,1,1446650385983,1446650386566,1045,309,0,0,0,4,3,1,7,0004-00-0001-24.png,0002-00-0001-95.png
00000009,887,1,1446650387483,1446650388379,504,255,0,0,0,1,2,1,3,0005-00-0000-51.png,0003-00-0001-24.png
00000009,888,1,1446650389368,1446650390585,928,355,0,0,0,2,1,1,3,0003-00-0000-67.png,0005-00-0001-94.png
00000009,889,1,1446650391686,1446650391719,884,440,0,0,0,3,2,1,5,0002-00-0000-70.png,0003-00-0000-09.png
00000009,890,1,1446650392896,1446650394346,477,289,0,0,0,1,2,1,3,0005-00-0001-91.png,0003-00-0001-11.png
00000009,891,1,1446650395360,1446650396123,390,361,0,0,0,0,1,1,1,0001-00-0001-14.png,0005-00-0001-70.png
00000009,892,1,1446650397220,1446650398462,503,238,0,0,0,3,4,1,7,0002-00-0001-18.png,0004-00-0000-28.png
00000009,893,1,1446650399476,1446650399555,858,485,0,0,0,1,0,1,1,0005-00-0001-99.png,0001-00-0001-55.png
00000009,894,0,1446650400638,1446650400721,902,413,0,0,0,2,3,1,5,0003-00-0001-83.png,0002-00-0001-59.png
00000009,895,1,1446650403827,1446650403835,911,379,0,0,0,4,3,1,7,0004-00-0001-30.png,0002-00-0001-21.png
00000009,896,1,1446650404794,1446650405747,928,385,0,0,0,2,1,1,3,0003-00-0001-68.png,0005-00-0000-31.png
00000009,897,1,1446650406821,1446650407811,939,344,0,0,0,1,0,1,1,0005-00-0000-69.png,0001-00-0000-22.png
00000009,898,0,1446650408824,1446650410143,499,240,0,0,0,3,2,1,5,0002-00-0000-39.png,0003-00-0000-12.png
00000009,899,1,1446650413050,1446650413592,947,374,0,0,0,2,1,1,3,0003-00-0001-20.png,0005-00-0000-30.png
00000009,900,1,1446650414572,1446650415695,520,266,0,0,0,2,3,1,5,0003-00-0001-06.png,0002-00-0000-55.png
00000009,901,0,1446650416718,1446650416742,914,442,0,0,0,1,2,1,3,0005-00-0000-48.png,0003-00-0000-10.png
00000009,902,0,1446650419937,1446650420539,423,397,0,0,0,4,3,1,7,0004-00-0001-82.png,0002-00-0000-44.png
00000009,903,1,1446650423681,1446650424382,494,232,0,0,0,0,1,1,1,0001-00-0000-32.png,0005-00-0000-44.png
00000009,904,0,1446650425341,1446650426439,1025,304,0,0,0,3,4,1,7,0002-00-0000-68.png,0004-00-0000-16.png
00000009,905,0,1446650429276,1446650429838,910,360,0,0,0,2,3,1,5,0003-00-0001-98.png,0002-00-0001-03.png
00000009,906,1,1446650432975,1446650433522,498,244,0,0,0,0,1,1,1,0001-00-0000-50.png,0005-00-0001-46.png
00000009,907,1,1446650434523,1446650434640,888,541,0,0,0,2,1,1,3,0003-00-0000-16.png,0005-00-0001-55.png
00000009,908,0,1446650435935,1446650436783,496,262,0,0,0,1,0,1,1,0005-00-0001-07.png,0001-00-0001-54.png
00000009,909,0,1446650439712,1446650439732,861,442,0,0,0,3,4,1,7,0002-00-0000-11.png,0004-00-0000-16.png
00000009,910,1,1446650442591,1446650442670,946,426,0,0,0,4,3,1,7,0004-00-0001-73.png,0002-00-0001-01.png
00000009,911,1,1446650443667,1446650444935,938,321,0,0,0,3,2,1,5,0002-00-0000-28.png,0003-00-0001-38.png
00000009,912,1,1446650446113,1446650446896,506,244,0,0,0,1,2,1,3,0005-00-0000-99.png,0003-00-0000-97.png
00000009,913,1,1446650447960,1446650449066,1029,298,0,0,0,1,0,1,1,0005-00-0001-69.png,0001-00-0001-11.png
00000009,914,0,1446650450266,1446650450330,885,482,0,0,0,2,3,1,5,0003-00-0000-41.png,0002-00-0000-29.png
00000009,915,1,1446650453215,1446650453223,906,356,0,0,0,3,2,1,5,0002-00-0001-67.png,0003-00-0000-13.png
00000009,916,0,1446650454328,1446650455417,891,334,0,0,0,3,4,1,7,0002-00-0000-46.png,0004-00-0001-06.png
00000009,917,0,1446650458275,1446650458362,892,437,0,0,0,1,2,1,3,0005-00-0000-14.png,0003-00-0001-70.png
00000009,918,1,1446650461704,1446650462278,915,395,0,0,0,4,3,1,7,0004-00-0000-54.png,0002-00-0000-08.png
00000009,919,1,1446650463253,1446650464186,1023,305,0,0,0,2,1,1,3,0003-00-0000-33.png,0005-00-0001-40.png
00000009,920,1,1446650465219,1446650466112,519,243,0,0,0,0,1,1,1,0001-00-0000-33.png,0005-00-0000-60.png
00000009,921,1,1446650467157,1446650468217,505,241,0,0,0,0,1,1,1,0001-00-0001-16.png,0005-00-0000-03.png
00000009,922,0,1446650469223,1446650470525,475,263,0,0,0,1,0,1,1,0005-00-0000-89.png,0001-00-0001-89.png
00000009,923,0,1446650473653,1446650473669,867,331,0,0,0,2,3,1,5,0003-00-0000-07.png,0002-00-0001-20.png
00000009,924,1,1446650476755,1446650476779,893,379,0,0,0,2,1,1,3,0003-00-0001-17.png,0005-00-0001-44.png
00000009,925,0,1446650477769,1446650478886,506,243,0,0,0,3,2,1,5,0002-00-0001-11.png,0003-00-0001-58.png
00000009,926,0,1446650482050,1446650482078,880,358,0,0,0,3,4,1,7,0002-00-0001-67.png,0004-00-0000-53.png
00000009,927,1,1446650485242,1446650485399,991,306,0,0,0,4,3,1,7,0004-00-0000-43.png,0002-00-0000-74.png
00000009,928,0,1446650486413,1446650486460,862,462,0,0,0,1,2,1,3,0005-00-0001-33.png,0003-00-0001-33.png
00000009,929,0,1446650489716,1446650490246,519,240,0,0,0,3,2,1,5,0002-00-0001-97.png,0003-00-0000-61.png
00000009,930,0,1446650502721,1446650503215,939,406,0,0,0,2,3,1,5,0003-00-0001-85.png,0002-00-0001-97.png
00000009,931,0,1446650506507,1446650506535,880,345,0,0,0,3,4,1,7,0002-00-0001-46.png,0004-00-0000-88.png
00000009,932,1,1446650509648,1446650510184,401,363,0,0,0,1,2,1,3,0005-00-0001-02.png,0003-00-0001-41.png
00000009,933,1,1446650511170,1446650512217,1010,309,0,0,0,2,1,1,3,0003-00-0000-84.png,0005-00-0000-37.png
00000009,934,0,1446650513275,1446650514357,1015,279,0,0,0,0,1,1,1,0001-00-0000-16.png,0005-00-0001-01.png
00000009,935,0,1446650517401,1446650518052,479,276,0,0,0,4,3,1,7,0004-00-0001-57.png,0002-00-0000-04.png
00000009,936,1,1446650520963,1446650521502,896,351,0,0,0,1,0,1,1,0005-00-0001-54.png,0001-00-0001-59.png
00000009,937,1,1446650523272,1446650523825,516,245,0,0,0,1,2,1,3,0005-00-0001-27.png,0003-00-0000-97.png
00000009,938,0,1446650524798,1446650526021,509,259,0,0,0,4,3,1,7,0004-00-0000-08.png,0002-00-0000-94.png
00000009,939,0,1446650529056,1446650529084,898,368,0,0,0,3,4,1,7,0002-00-0000-08.png,0004-00-0001-99.png
00000009,940,1,1446650531906,1446650532474,485,286,0,0,0,0,1,1,1,0001-00-0000-38.png,0005-00-0000-71.png
00000009,941,1,1446650533439,1446650534360,1007,279,0,0,0,1,0,1,1,0005-00-0000-50.png,0001-00-0001-23.png
00000009,942,1,1446650535527,1446650536716,1023,314,0,0,0,2,1,1,3,0003-00-0001-75.png,0005-00-0000-95.png
00000009,943,0,1446650537732,1446650538844,948,339,0,0,0,2,3,1,5,0003-00-0000-93.png,0002-00-0000-90.png
00000009,944,1,1446650542102,1446650542118,894,320,0,0,0,3,2,1,5,0002-00-0001-06.png,0003-00-0000-71.png
00000009,945,0,1446650543218,1446650544247,1016,275,0,0,0,0,1,1,1,0001-00-0000-17.png,0005-00-0001-76.png
00000009,946,1,1446650547312,1446650548067,1195,368,0,0,0,3,2,1,5,0002-00-0001-89.png,0003-00-0000-58.png
00000009,947,1,1446650549028,1446650549048,888,384,0,0,0,2,1,1,3,0003-00-0000-12.png,0005-00-0001-95.png
00000009,948,0,1446650550269,1446650551622,935,334,0,0,0,2,3,1,5,0003-00-0001-67.png,0002-00-0001-94.png
00000009,949,1,1446650554643,1446650554735,976,358,0,0,0,1,0,1,1,0005-00-0000-45.png,0001-00-0000-97.png
00000009,950,1,1446650555818,1446650556954,1036,296,0,0,0,4,3,1,7,0004-00-0000-42.png,0002-00-0001-62.png
