subject_id,trial,correct_response,stim_time,response_time,x_coord,y_coord,trial_timeout,timeout_time,interTrial_timeout,left_rank,right_rank,distance,joint_rank,left_image,right_image
00000014,1,0,1442845473179,1442845474837,364,464,0,0,0,5,1,4,51,0005-00-0005-01.png,0001-00-0003-48.png
00000014,2,1,1442845478519,1442845479002,387,554,0,0,0,1,4,3,14,0001-00-0005-34.png,0004-00-0009-29.png
00000014,3,0,1442845480397,1442845482318,386,544,0,0,0,2,1,1,21,0002-00-0000-29.png,0001-00-0006-85.png
00000014,4,1,1442845486250,1442845486694,411,437,0,0,0,2,3,1,23,0002-00-0001-52.png,0003-00-0000-55.png
00000014,5,0,1442845488497,1442845489049,946,420,0,0,0,1,2,1,12,0001-00-0008-36.png,0002-00-0000-06.png
00000014,6,0,1442845505805,1442845506340,384,402,0,0,0,5,3,2,53,0005-00-0007-83.png,0003-00-0006-45.png
00000014,7,1,1442845512887,1442845515216,340,388,0,0,0,4,5,1,45,0004-00-0001-59.png,0005-00-0005-53.png
00000014,8,1,1442845516795,1442845517356,941,517,0,0,0,4,3,1,43,0004-00-0001-10.png,0003-00-0002-08.png
00000014,9,0,1442845519052,1442845519521,955,428,0,0,0,1,5,4,15,0001-00-0000-21.png,0005-00-0002-86.png
00000014,10,1,1442845523117,1442845523618,926,528,0,0,0,4,2,2,42,0004-00-0001-26.png,0002-00-0000-34.png
00000014,11,1,1442845524862,1442845525390,390,410,0,0,0,3,4,1,34,0003-00-0004-30.png,0004-00-0001-52.png
00000014,12,1,1442845528807,1442845529356,954,505,0,0,0,4,1,3,41,0004-00-0008-81.png,0001-00-0003-54.png
00000014,13,0,1442845530746,1442845531168,381,432,0,0,0,5,4,1,54,0005-00-0005-46.png,0004-00-0003-49.png
00000014,14,1,1442845534418,1442845534847,411,533,0,0,0,3,5,2,35,0003-00-0007-42.png,0005-00-0007-87.png
00000014,15,0,1442845536176,1442845536744,331,399,0,0,0,5,2,3,52,0005-00-0009-68.png,0002-00-0006-46.png
00000014,16,0,1442845540703,1442845541134,392,403,0,0,0,3,1,2,31,0003-00-0001-27.png,0001-00-0009-39.png
00000014,17,1,1442845544296,1442845544670,379,390,0,0,0,1,3,2,13,0001-00-0004-39.png,0003-00-0002-77.png
00000014,18,1,1442845546125,1442845546571,932,400,0,0,0,3,2,1,32,0003-00-0005-26.png,0002-00-0004-94.png
00000014,19,0,1442845548264,1442845548816,899,489,0,0,0,2,4,2,24,0002-00-0007-56.png,0004-00-0007-36.png
00000014,20,1,1442845551740,1442845552135,354,427,0,0,0,2,5,3,25,0002-00-0007-24.png,0005-00-0004-25.png
00000014,21,1,1442845554168,1442845554620,358,402,0,0,0,1,3,2,13,0001-00-0002-04.png,0003-00-0007-13.png
00000014,22,1,1442845560674,1442845561306,355,408,0,0,0,1,5,4,15,0001-00-0002-26.png,0005-00-0007-51.png
00000014,23,1,1442845562763,1442845563348,904,480,0,0,0,5,1,4,51,0005-00-0003-34.png,0001-00-0006-22.png
00000014,24,0,1442845564969,1442845565501,942,490,0,0,0,4,5,1,45,0004-00-0003-76.png,0005-00-0009-69.png
00000014,25,1,1442845570922,1442845571406,956,402,0,0,0,4,3,1,43,0004-00-0002-60.png,0003-00-0002-23.png
00000014,26,0,1442845573240,1442845573745,389,425,0,0,0,5,4,1,54,0005-00-0001-48.png,0004-00-0005-12.png
00000014,27,0,1442845577847,1442845578391,900,515,0,0,0,3,4,1,34,0003-00-0000-32.png,0004-00-0002-89.png
00000014,28,1,1442845581468,1442845581941,924,481,0,0,0,2,1,1,21,0002-00-0001-15.png,0001-00-0009-08.png
00000014,29,1,1442845583456,1442845583939,977,396,0,0,0,5,3,2,53,0005-00-0009-63.png,0003-00-0001-27.png
00000014,30,1,1442845585460,1442845586014,917,465,0,0,0,3,2,1,32,0003-00-0007-94.png,0002-00-0009-60.png
00000014,31,1,1442845587571,1442845588168,409,420,0,0,0,2,4,2,24,0002-00-0003-48.png,0004-00-0003-42.png
00000014,32,1,1442845595303,1442845595813,924,385,0,0,0,4,2,2,42,0004-00-0001-79.png,0002-00-0007-46.png
00000014,33,0,1442845597420,1442845597955,907,460,0,0,0,2,5,3,25,0002-00-0003-65.png,0005-00-0006-08.png
00000014,34,1,1442845600902,1442845600910,447,347,0,0,0,1,4,3,14,0001-00-0003-74.png,0004-00-0000-82.png
00000014,35,1,1442845602492,1442845602988,922,445,0,0,0,4,1,3,41,0004-00-0008-39.png,0001-00-0006-76.png
00000014,36,1,1442845604450,1442845604933,916,459,0,0,0,3,1,2,31,0003-00-0009-44.png,0001-00-0002-59.png
00000014,37,1,1442845606478,1442845607024,925,504,0,0,0,5,2,3,52,0005-00-0001-86.png,0002-00-0003-28.png
00000014,38,1,1442845609072,1442845609512,427,398,0,0,0,1,2,1,12,0001-00-0001-85.png,0002-00-0007-33.png
00000014,39,1,1442845611130,1442845611555,379,475,0,0,0,2,3,1,23,0002-00-0002-13.png,0003-00-0008-24.png
00000014,40,0,1442845612768,1442845613309,900,385,0,0,0,3,5,2,35,0003-00-0002-52.png,0005-00-0001-29.png
00000014,41,1,1442845616357,1442845616783,376,402,0,0,0,4,5,1,45,0004-00-0001-92.png,0005-00-0001-16.png
00000014,42,1,1442845617917,1442845618480,889,395,0,0,0,3,1,2,31,0003-00-0004-85.png,0001-00-0008-17.png
00000014,43,0,1442845619747,1442845620230,302,394,0,0,0,4,3,1,43,0004-00-0003-56.png,0003-00-0006-93.png
00000014,44,1,1442845623173,1442845623665,365,466,0,0,0,2,5,3,25,0002-00-0006-64.png,0005-00-0000-76.png
00000014,45,0,1442845624773,1442845625316,897,412,0,0,0,3,4,1,34,0003-00-0006-98.png,0004-00-0009-64.png
00000014,46,1,1442845628181,1442845628635,406,440,0,0,0,1,2,1,12,0001-00-0008-92.png,0002-00-0006-30.png
00000014,47,1,1442845629718,1442845630161,334,420,0,0,0,2,3,1,23,0002-00-0006-17.png,0003-00-0001-52.png
00000014,48,1,1442845631329,1442845631912,355,463,0,0,0,1,5,4,15,0001-00-0004-18.png,0005-00-0009-80.png
00000014,49,1,1442845632987,1442845633720,408,402,0,0,0,3,5,2,35,0003-00-0007-45.png,0005-00-0001-53.png
00000014,50,0,1442845634956,1442845635460,309,424,0,0,0,5,2,3,52,0005-00-0001-07.png,0002-00-0000-33.png
00000014,51,0,1442845638644,1442845639142,896,472,0,0,0,1,3,2,13,0001-00-0001-42.png,0003-00-0003-67.png
00000014,52,0,1442845642033,1442845642459,413,397,0,0,0,5,3,2,53,0005-00-0005-96.png,0003-00-0007-37.png
00000014,53,1,1442845645670,1442845646067,401,488,0,0,0,2,4,2,24,0002-00-0009-27.png,0004-00-0006-38.png
00000014,54,0,1442845647147,1442845647611,343,427,0,0,0,3,2,1,32,0003-00-0006-67.png,0002-00-0003-34.png
00000014,55,1,1442845651008,1442845651463,939,421,0,0,0,5,1,4,51,0005-00-0002-02.png,0001-00-0007-63.png
00000014,56,0,1442845652619,1442845653107,373,409,0,0,0,4,2,2,42,0004-00-0005-73.png,0002-00-0007-72.png
00000014,57,0,1442845655996,1442845656043,470,391,0,0,0,2,1,1,21,0002-00-0003-60.png,0001-00-0006-77.png
00000014,58,0,1442845658930,1442845658966,476,390,0,0,0,4,1,3,41,0004-00-0008-23.png,0001-00-0002-07.png
00000014,59,1,1442845662377,1442845662828,287,370,0,0,0,1,4,3,14,0001-00-0004-31.png,0004-00-0009-57.png
00000014,60,0,1442845663869,1442845664361,314,456,0,0,0,5,4,1,54,0005-00-0005-80.png,0004-00-0001-53.png
00000014,61,1,1442845667457,1442845667933,922,341,0,0,0,5,4,1,54,0005-00-0004-46.png,0004-00-0001-46.png
00000014,62,1,1442845669097,1442845669626,901,450,0,0,0,5,2,3,52,0005-00-0004-85.png,0002-00-0006-37.png
00000014,63,1,1442845670758,1442845671303,325,410,0,0,0,3,4,1,34,0003-00-0005-49.png,0004-00-0006-11.png
00000014,64,0,1442845672399,1442845672933,874,437,0,0,0,1,2,1,12,0001-00-0006-30.png,0002-00-0004-00.png
00000014,65,1,1442845676324,1442845676795,876,475,0,0,0,3,1,2,31,0003-00-0001-56.png,0001-00-0001-23.png
00000014,66,1,1442845677980,1442845678498,335,400,0,0,0,1,4,3,14,0001-00-0000-01.png,0004-00-0009-04.png
00000014,67,1,1442845679574,1442845680128,887,404,0,0,0,4,3,1,43,0004-00-0007-20.png,0003-00-0003-44.png
00000014,68,0,1442845681274,1442845681883,364,423,0,0,0,4,1,3,41,0004-00-0002-41.png,0001-00-0009-84.png
00000014,69,1,1442845684861,1442845685361,401,491,0,0,0,1,5,4,15,0001-00-0001-81.png,0005-00-0004-86.png
00000014,70,1,1442845686587,1442845687058,330,423,0,0,0,2,5,3,25,0002-00-0004-40.png,0005-00-0000-31.png
00000014,71,1,1442845688182,1442845688674,393,426,0,0,0,1,3,2,13,0001-00-0008-13.png,0003-00-0005-28.png
00000014,72,1,1442845689812,1442845690396,875,449,0,0,0,5,3,2,53,0005-00-0009-44.png,0003-00-0003-68.png
00000014,73,0,1442845691532,1442845692090,878,469,0,0,0,3,5,2,35,0003-00-0000-37.png,0005-00-0004-40.png
00000014,74,1,1442845695117,1442845695606,333,418,0,0,0,2,3,1,23,0002-00-0009-14.png,0003-00-0009-10.png
00000014,75,0,1442845696637,1442845697195,398,444,0,0,0,2,1,1,21,0002-00-0000-45.png,0001-00-0002-32.png
00000014,76,1,1442845700088,1442845700108,488,384,0,0,0,2,4,2,24,0002-00-0001-68.png,0004-00-0008-05.png
00000014,77,0,1442845701351,1442845701801,281,392,0,0,0,4,2,2,42,0004-00-0007-54.png,0002-00-0006-89.png
00000014,78,0,1442845704691,1442845704729,499,361,0,0,0,5,1,4,51,0005-00-0007-81.png,0001-00-0004-71.png
00000014,79,0,1442845707672,1442845707688,504,370,0,0,0,3,2,1,32,0003-00-0007-81.png,0002-00-0007-77.png
00000014,80,1,1442845710842,1442845711333,377,467,0,0,0,4,5,1,45,0004-00-0007-49.png,0005-00-0002-51.png
00000014,81,1,1442845712483,1442845712966,311,421,0,0,0,1,3,2,13,0001-00-0008-25.png,0003-00-0002-30.png
00000014,82,1,1442845714091,1442845714629,358,388,0,0,0,2,5,3,25,0002-00-0000-96.png,0005-00-0006-60.png
00000014,83,1,1442845715693,1442845716192,364,409,0,0,0,1,4,3,14,0001-00-0004-82.png,0004-00-0004-54.png
00000014,84,0,1442845717224,1442845717757,368,401,0,0,0,5,4,1,54,0005-00-0009-40.png,0004-00-0002-84.png
00000014,85,0,1442845720634,1442845720662,491,341,0,0,0,5,2,3,52,0005-00-0009-28.png,0002-00-0009-34.png
00000014,86,0,1442845723704,1442845724767,310,378,0,0,0,4,3,1,43,0004-00-0009-85.png,0003-00-0002-83.png
00000014,87,0,1442845727658,1442845727706,480,330,0,0,0,3,2,1,32,0003-00-0001-14.png,0002-00-0001-13.png
00000014,88,0,1442845730721,1442845731217,350,344,0,0,0,3,1,2,31,0003-00-0001-00.png,0001-00-0004-30.png
00000014,89,0,1442845734190,1442845734202,511,305,0,0,0,4,1,3,41,0004-00-0008-41.png,0001-00-0005-89.png
00000014,90,0,1442845737500,1442845737926,346,402,0,0,0,5,3,2,53,0005-00-0003-38.png,0003-00-0006-63.png
00000014,91,0,1442845742020,1442845742511,906,426,0,0,0,3,4,1,34,0003-00-0007-21.png,0004-00-0009-68.png
00000014,92,1,1442845745689,1442845746134,912,390,0,0,0,4,2,2,42,0004-00-0003-64.png,0002-00-0005-00.png
00000014,93,1,1442845747329,1442845747783,363,397,0,0,0,3,5,2,35,0003-00-0001-71.png,0005-00-0003-16.png
00000014,94,1,1442845749035,1442845749512,880,349,0,0,0,5,1,4,51,0005-00-0003-23.png,0001-00-0000-74.png
00000014,95,1,1442845750668,1442845751111,299,436,0,0,0,2,3,1,23,0002-00-0009-32.png,0003-00-0001-27.png
00000014,96,1,1442845752289,1442845752710,325,422,0,0,0,1,2,1,12,0001-00-0003-62.png,0002-00-0003-32.png
00000014,97,1,1442845753852,1442845754351,273,414,0,0,0,1,5,4,15,0001-00-0008-53.png,0005-00-0008-95.png
00000014,98,1,1442845755529,1442845755980,362,410,0,0,0,4,5,1,45,0004-00-0008-24.png,0005-00-0002-97.png
00000014,99,0,1442845757080,1442845757577,325,425,0,0,0,2,1,1,21,0002-00-0008-61.png,0001-00-0004-58.png
00000014,100,0,1442845760507,1442845760982,900,319,0,0,0,2,4,2,24,0002-00-0003-05.png,0004-00-0009-08.png
00000014,101,0,1442845764137,1442845764634,427,501,0,0,0,3,1,2,31,0003-00-0003-16.png,0001-00-0000-63.png
00000014,102,0,1442845767616,1442845768102,940,370,0,0,0,1,4,3,14,0001-00-0005-58.png,0004-00-0001-15.png
00000014,103,1,1442845771112,1442845771558,362,379,0,0,0,3,5,2,35,0003-00-0008-38.png,0005-00-0000-13.png
00000014,104,1,1442845772602,1442845773174,873,449,0,0,0,3,2,1,32,0003-00-0002-23.png,0002-00-0007-58.png
00000014,105,1,1442845774269,1442845774740,334,415,0,0,0,2,5,3,25,0002-00-0009-98.png,0005-00-0006-53.png
00000014,106,1,1442845775833,1442845776324,383,419,0,0,0,4,5,1,45,0004-00-0002-19.png,0005-00-0004-67.png
00000014,107,0,1442845777445,1442845777930,376,423,0,0,0,4,3,1,43,0004-00-0006-03.png,0003-00-0002-64.png
00000014,108,1,1442845781330,1442845781848,927,398,0,0,0,4,1,3,41,0004-00-0002-79.png,0001-00-0007-33.png
00000014,109,1,1442845782991,1442845783448,384,419,0,0,0,2,4,2,24,0002-00-0002-92.png,0004-00-0008-65.png
00000014,110,0,1442845784498,1442845784962,361,423,0,0,0,5,2,3,52,0005-00-0004-44.png,0002-00-0000-40.png
00000014,111,1,1442845788033,1442845788571,882,474,0,0,0,4,2,2,42,0004-00-0004-47.png,0002-00-0002-74.png
00000014,112,0,1442845789599,1442845790176,916,388,0,0,0,3,4,1,34,0003-00-0007-41.png,0004-00-0005-33.png
00000014,113,0,1442845793634,1442845794081,342,401,0,0,0,5,4,1,54,0005-00-0004-65.png,0004-00-0000-02.png
00000014,114,1,1442845796913,1442845797427,927,382,0,0,0,2,1,1,21,0002-00-0008-34.png,0001-00-0000-44.png
00000014,115,0,1442845798496,1442845799074,875,460,0,0,0,2,3,1,23,0002-00-0004-32.png,0003-00-0008-50.png
00000014,116,1,1442845801920,1442845801940,453,349,0,0,0,1,5,4,15,0001-00-0002-16.png,0005-00-0001-60.png
00000014,117,1,1442845803058,1442845803595,901,383,0,0,0,5,3,2,53,0005-00-0006-72.png,0003-00-0004-58.png
00000014,118,1,1442845804757,1442845805242,384,394,0,0,0,1,2,1,12,0001-00-0003-33.png,0002-00-0001-47.png
00000014,119,1,1442845806307,1442845806853,879,375,0,0,0,5,1,4,51,0005-00-0009-36.png,0001-00-0001-70.png
00000014,120,1,1442845807965,1442845808514,365,391,0,0,0,1,3,2,13,0001-00-0001-87.png,0003-00-0004-34.png
00000014,121,1,1442845809578,1442845810131,319,374,0,0,0,4,5,1,45,0004-00-0004-73.png,0005-00-0007-45.png
00000014,122,0,1442845811228,1442845811770,376,397,0,0,0,4,1,3,41,0004-00-0000-07.png,0001-00-0008-88.png
00000014,123,1,1442845814634,1442845815128,921,448,0,0,0,4,3,1,43,0004-00-0009-78.png,0003-00-0000-83.png
00000014,124,1,1442845816146,1442845816673,334,404,0,0,0,1,5,4,15,0001-00-0000-25.png,0005-00-0008-80.png
00000014,125,1,1442845817758,1442845818397,885,432,0,0,0,5,2,3,52,0005-00-0005-79.png,0002-00-0008-72.png
00000014,126,1,1442845819507,1442845820075,861,372,0,0,0,2,1,1,21,0002-00-0008-82.png,0001-00-0004-59.png
00000014,127,0,1442845821163,1442845821646,314,416,0,0,0,5,4,1,54,0005-00-0003-54.png,0004-00-0008-40.png
00000014,128,1,1442845824863,1442845825382,901,387,0,0,0,5,3,2,53,0005-00-0003-12.png,0003-00-0008-82.png
00000014,129,1,1442845826403,1442845826886,414,423,0,0,0,2,5,3,25,0002-00-0000-81.png,0005-00-0003-15.png
00000014,130,0,1442845827964,1442845828497,324,397,0,0,0,3,2,1,32,0003-00-0004-55.png,0002-00-0001-46.png
00000014,131,0,1442845831348,1442845831733,401,384,0,0,0,4,2,2,42,0004-00-0003-62.png,0002-00-0003-73.png
00000014,132,0,1442845834655,1442845834711,435,374,0,0,0,3,1,2,31,0003-00-0004-83.png,0001-00-0004-20.png
00000014,133,0,1442845837844,1442845838363,926,383,0,0,0,2,4,2,24,0002-00-0007-40.png,0004-00-0003-65.png
00000014,134,0,1442845841209,1442845841230,491,348,0,0,0,5,1,4,51,0005-00-0000-84.png,0001-00-0006-99.png
00000014,135,0,1442845844271,1442845844750,918,417,0,0,0,2,3,1,23,0002-00-0009-89.png,0003-00-0006-65.png
00000014,136,1,1442845847679,1442845847699,478,370,0,0,0,1,2,1,12,0001-00-0007-06.png,0002-00-0008-42.png
00000014,137,1,1442845848796,1442845849253,367,492,0,0,0,1,3,2,13,0001-00-0004-47.png,0003-00-0007-65.png
00000014,138,1,1442845850327,1442845850785,260,395,0,0,0,1,4,3,14,0001-00-0007-62.png,0004-00-0009-11.png
00000014,139,0,1442845851857,1442845852443,878,361,0,0,0,3,5,2,35,0003-00-0006-55.png,0005-00-0004-97.png
00000014,140,1,1442845855672,1442845856153,343,381,0,0,0,3,4,1,34,0003-00-0006-82.png,0004-00-0001-78.png
00000014,141,1,1442845857183,1442845857772,901,358,0,0,0,5,3,2,53,0005-00-0004-81.png,0003-00-0002-27.png
00000014,142,1,1442845858792,1442845859307,339,414,0,0,0,2,3,1,23,0002-00-0000-03.png,0003-00-0004-55.png
00000014,143,0,1442845860414,1442845860917,350,397,0,0,0,4,3,1,43,0004-00-0003-01.png,0003-00-0001-92.png
00000014,144,0,1442845864070,1442845864639,875,475,0,0,0,4,5,1,45,0004-00-0002-37.png,0005-00-0008-68.png
00000014,145,1,1442845867687,1442845867711,519,377,0,0,0,3,4,1,34,0003-00-0003-10.png,0004-00-0005-66.png
00000014,146,0,1442845868782,1442845869352,874,360,0,0,0,1,5,4,15,0001-00-0007-47.png,0005-00-0007-69.png
00000014,147,0,1442845872430,1442845872991,910,384,0,0,0,2,5,3,25,0002-00-0004-69.png,0005-00-0007-66.png
00000014,148,0,1442845875857,1442845875883,447,352,0,0,0,2,1,1,21,0002-00-0002-93.png,0001-00-0000-62.png
00000014,149,0,1442845878719,1442845879163,338,383,0,0,0,3,2,1,32,0003-00-0007-17.png,0002-00-0002-67.png
00000014,150,1,1442845882250,1442845882762,901,476,0,0,0,5,1,4,51,0005-00-0003-52.png,0001-00-0006-27.png
00000014,151,1,1442845884059,1442845884499,362,396,0,0,0,1,3,2,13,0001-00-0000-76.png,0003-00-0003-61.png
00000014,152,1,1442845885591,1442845886065,333,393,0,0,0,1,4,3,14,0001-00-0009-79.png,0004-00-0007-22.png
00000014,153,1,1442845887190,1442845887691,384,482,0,0,0,1,2,1,12,0001-00-0008-01.png,0002-00-0006-24.png
00000014,154,1,1442845888779,1442845889362,903,467,0,0,0,3,1,2,31,0003-00-0005-51.png,0001-00-0007-80.png
00000014,155,1,1442845890419,1442845890956,406,402,0,0,0,2,4,2,24,0002-00-0002-63.png,0004-00-0004-90.png
00000014,156,1,1442845892031,1442845892542,875,397,0,0,0,5,2,3,52,0005-00-0005-53.png,0002-00-0009-79.png
00000014,157,0,1442845893671,1442845894188,336,404,0,0,0,4,2,2,42,0004-00-0003-54.png,0002-00-0002-73.png
00000014,158,0,1442845897138,1442845897174,523,407,0,0,0,4,1,3,41,0004-00-0002-82.png,0001-00-0008-47.png
00000014,159,0,1442845900221,1442845900732,387,447,0,0,0,5,4,1,54,0005-00-0005-84.png,0004-00-0007-66.png
00000014,160,1,1442845903738,1442845903822,431,400,0,0,0,3,5,2,35,0003-00-0008-90.png,0005-00-0006-03.png
00000014,161,1,1442845904861,1442845905399,858,499,0,0,0,2,1,1,21,0002-00-0006-37.png,0001-00-0000-83.png
00000014,162,1,1442845906532,1442845907092,899,383,0,0,0,5,1,4,51,0005-00-0006-33.png,0001-00-0005-35.png
00000014,163,0,1442845908193,1442845908763,336,431,0,0,0,5,3,2,53,0005-00-0000-48.png,0003-00-0002-04.png
00000014,164,1,1442845911937,1442845912414,336,397,0,0,0,3,5,2,35,0003-00-0005-41.png,0005-00-0009-32.png
00000014,165,1,1442845913469,1442845914092,892,443,0,0,0,3,2,1,32,0003-00-0006-87.png,0002-00-0000-66.png
00000014,166,0,1442845915099,1442845915686,901,384,0,0,0,1,4,3,14,0001-00-0004-37.png,0004-00-0007-48.png
00000014,167,1,1442845918627,1442845919120,942,399,0,0,0,3,1,2,31,0003-00-0001-69.png,0001-00-0000-75.png
00000014,168,0,1442845920276,1442845920832,906,362,0,0,0,3,4,1,34,0003-00-0005-73.png,0004-00-0000-34.png
00000014,169,1,1442845923955,1442845924398,429,395,0,0,0,2,3,1,23,0002-00-0000-78.png,0003-00-0000-54.png
00000014,170,1,1442845925426,1442845925916,392,414,0,0,0,1,3,2,13,0001-00-0007-46.png,0003-00-0005-69.png
00000014,171,0,1442845927353,1442845927915,879,374,0,0,0,4,5,1,45,0004-00-0003-41.png,0005-00-0000-49.png
00000014,172,1,1442845931141,1442845931684,903,386,0,0,0,5,4,1,54,0005-00-0001-37.png,0004-00-0009-46.png
00000014,173,1,1442845932819,1442845933336,928,412,0,0,0,4,1,3,41,0004-00-0008-57.png,0001-00-0002-32.png
00000014,174,0,1442845934459,1442845934997,362,410,0,0,0,4,2,2,42,0004-00-0007-40.png,0002-00-0005-75.png
00000014,175,0,1442845937999,1442845938466,376,502,0,0,0,4,3,1,43,0004-00-0007-24.png,0003-00-0001-14.png
00000014,176,1,1442845941776,1442845942221,372,495,0,0,0,2,4,2,24,0002-00-0006-20.png,0004-00-0009-15.png
00000014,177,0,1442845943354,1442845943931,877,459,0,0,0,1,2,1,12,0001-00-0001-02.png,0002-00-0007-81.png
00000014,178,0,1442845947020,1442845947494,315,402,0,0,0,5,2,3,52,0005-00-0005-70.png,0002-00-0008-35.png
00000014,179,1,1442845950371,1442845950399,514,366,0,0,0,2,5,3,25,0002-00-0005-08.png,0005-00-0000-95.png
00000014,180,0,1442845951592,1442845952107,882,391,0,0,0,1,5,4,15,0001-00-0000-90.png,0005-00-0006-31.png
00000014,181,0,1442845955053,1442845955556,900,488,0,0,0,2,3,1,23,0002-00-0007-26.png,0003-00-0006-74.png
00000014,182,0,1442845958551,1442845958607,519,392,0,0,0,4,3,1,43,0004-00-0000-13.png,0003-00-0001-54.png
00000014,183,1,1442845961466,1442845961948,357,391,0,0,0,2,5,3,25,0002-00-0002-12.png,0005-00-0004-04.png
00000014,184,0,1442845962983,1442845963526,383,398,0,0,0,3,2,1,32,0003-00-0000-70.png,0002-00-0009-86.png
00000014,185,1,1442845966612,1442845967062,909,499,0,0,0,2,1,1,21,0002-00-0009-86.png,0001-00-0000-99.png
00000014,186,1,1442845968103,1442845968673,860,437,0,0,0,4,2,2,42,0004-00-0006-99.png,0002-00-0000-59.png
00000014,187,1,1442845969779,1442845970339,896,367,0,0,0,5,1,4,51,0005-00-0008-97.png,0001-00-0007-28.png
00000014,188,1,1442845971427,1442845971969,866,454,0,0,0,5,3,2,53,0005-00-0003-35.png,0003-00-0001-53.png
00000014,189,1,1442845973043,1442845973496,287,398,0,0,0,1,3,2,13,0001-00-0006-62.png,0003-00-0006-93.png
00000014,190,1,1442845974700,1442845975187,385,511,0,0,0,3,5,2,35,0003-00-0008-58.png,0005-00-0006-73.png
00000014,191,0,1442845976262,1442845976786,876,383,0,0,0,1,5,4,15,0001-00-0005-45.png,0005-00-0001-18.png
00000014,192,0,1442845979900,1442845980472,895,388,0,0,0,1,2,1,12,0001-00-0008-98.png,0002-00-0003-00.png
00000014,193,1,1442845983509,1442845983994,896,498,0,0,0,3,1,2,31,0003-00-0001-02.png,0001-00-0000-78.png
00000014,194,1,1442845985317,1442845985819,363,422,0,0,0,4,5,1,45,0004-00-0000-17.png,0005-00-0000-07.png
00000014,195,1,1442845986816,1442845987350,311,423,0,0,0,2,4,2,24,0002-00-0006-84.png,0004-00-0009-16.png
00000014,196,0,1442845988447,1442845989008,345,380,0,0,0,4,1,3,41,0004-00-0002-98.png,0001-00-0001-10.png
00000014,197,1,1442845992094,1442845992605,892,444,0,0,0,5,4,1,54,0005-00-0001-52.png,0004-00-0001-63.png
00000014,198,1,1442845993717,1442845994204,308,405,0,0,0,3,4,1,34,0003-00-0007-01.png,0004-00-0008-67.png
00000014,199,1,1442845995704,1442845996156,382,394,0,0,0,1,4,3,14,0001-00-0002-25.png,0004-00-0006-24.png
00000014,200,1,1442845997322,1442845997901,903,413,0,0,0,5,2,3,52,0005-00-0002-84.png,0002-00-0009-30.png
00000014,201,0,1442845998963,1442845999415,361,405,0,0,0,4,2,2,42,0004-00-0009-58.png,0002-00-0000-66.png
00000014,202,1,1442846002661,1442846003154,371,475,0,0,0,3,5,2,35,0003-00-0009-41.png,0005-00-0005-99.png
00000014,203,1,1442846004270,1442846004806,875,450,0,0,0,5,4,1,54,0005-00-0004-10.png,0004-00-0008-20.png
00000014,204,1,1442846005881,1442846006399,339,422,0,0,0,4,5,1,45,0004-00-0000-09.png,0005-00-0004-85.png
00000014,205,1,1442846007510,1442846008107,894,393,0,0,0,5,2,3,52,0005-00-0002-23.png,0002-00-0008-31.png
00000014,206,1,1442846009139,1442846009827,893,453,0,0,0,3,2,1,32,0003-00-0004-10.png,0002-00-0007-21.png
00000014,207,1,1442846010881,1442846011421,926,385,0,0,0,2,1,1,21,0002-00-0006-61.png,0001-00-0002-24.png
00000014,208,1,1442846012560,1442846013183,350,345,0,0,0,1,4,3,14,0001-00-0000-08.png,0004-00-0002-48.png
00000014,209,1,1442846014448,1442846014991,352,393,0,0,0,1,2,1,12,0001-00-0009-96.png,0002-00-0000-24.png
00000014,210,1,1442846016147,1442846016803,889,495,0,0,0,4,1,3,41,0004-00-0002-07.png,0001-00-0002-65.png
00000014,211,1,1442846017836,1442846019189,475,391,0,0,0,2,3,1,23,0002-00-0005-39.png,0003-00-0000-14.png
00000014,212,1,1442846021008,1442846021468,315,416,0,0,0,1,3,2,13,0001-00-0002-17.png,0003-00-0009-05.png
00000014,213,0,1442846023104,1442846023642,870,393,0,0,0,3,4,1,34,0003-00-0008-34.png,0004-00-0006-22.png
00000014,214,1,1442846026689,1442846027171,392,393,0,0,0,1,5,4,15,0001-00-0004-38.png,0005-00-0000-25.png
00000014,215,1,1442846028243,1442846028737,290,417,0,0,0,2,5,3,25,0002-00-0005-34.png,0005-00-0000-43.png
00000014,216,1,1442846029913,1442846030456,862,475,0,0,0,3,1,2,31,0003-00-0002-95.png,0001-00-0002-80.png
00000014,217,0,1442846031655,1442846032158,367,519,0,0,0,5,3,2,53,0005-00-0002-32.png,0003-00-0009-49.png
00000014,218,0,1442846035019,1442846035087,472,400,0,0,0,5,1,4,51,0005-00-0007-90.png,0001-00-0000-87.png
00000014,219,0,1442846038111,1442846038139,482,337,0,0,0,4,3,1,43,0004-00-0007-45.png,0003-00-0002-24.png
00000014,220,0,1442846041224,1442846041718,861,372,0,0,0,2,4,2,24,0002-00-0002-50.png,0004-00-0004-59.png
00000014,221,1,1442846044640,1442846044676,485,397,0,0,0,2,4,2,24,0002-00-0003-67.png,0004-00-0001-08.png
00000014,222,1,1442846045835,1442846046395,319,382,0,0,0,4,5,1,45,0004-00-0008-29.png,0005-00-0005-55.png
00000014,223,1,1442846047496,1442846048025,325,423,0,0,0,1,3,2,13,0001-00-0000-27.png,0003-00-0003-14.png
00000014,224,1,1442846049145,1442846049706,317,392,0,0,0,2,3,1,23,0002-00-0000-08.png,0003-00-0005-55.png
00000014,225,1,1442846050943,1442846051528,875,462,0,0,0,3,1,2,31,0003-00-0004-78.png,0001-00-0001-08.png
00000014,226,1,1442846052612,1442846053189,899,490,0,0,0,3,2,1,32,0003-00-0001-52.png,0002-00-0008-03.png
00000014,227,1,1442846054243,1442846054832,877,413,0,0,0,5,4,1,54,0005-00-0006-46.png,0004-00-0002-23.png
00000014,228,1,1442846055953,1442846056527,905,402,0,0,0,5,2,3,52,0005-00-0005-75.png,0002-00-0002-89.png
00000014,229,1,1442846057664,1442846058217,892,371,0,0,0,4,1,3,41,0004-00-0006-98.png,0001-00-0002-30.png
00000014,230,0,1442846059304,1442846059819,369,531,0,0,0,4,3,1,43,0004-00-0005-64.png,0003-00-0005-52.png
00000014,231,1,1442846062919,1442846063426,390,494,0,0,0,1,4,3,14,0001-00-0007-56.png,0004-00-0006-44.png
00000014,232,1,1442846064389,1442846064931,901,398,0,0,0,5,1,4,51,0005-00-0007-49.png,0001-00-0002-89.png
00000014,233,1,1442846066016,1442846066495,376,397,0,0,0,2,5,3,25,0002-00-0000-35.png,0005-00-0006-92.png
00000014,234,0,1442846067556,1442846068075,876,397,0,0,0,1,2,1,12,0001-00-0000-95.png,0002-00-0002-60.png
00000014,235,1,1442846071120,1442846071573,362,419,0,0,0,1,5,4,15,0001-00-0003-28.png,0005-00-0002-92.png
00000014,236,1,1442846072612,1442846073155,361,394,0,0,0,3,5,2,35,0003-00-0005-91.png,0005-00-0005-31.png
00000014,237,1,1442846074196,1442846074689,379,484,0,0,0,3,4,1,34,0003-00-0009-23.png,0004-00-0002-83.png
00000014,238,1,1442846075799,1442846076343,880,401,0,0,0,2,1,1,21,0002-00-0004-18.png,0001-00-0001-14.png
00000014,239,1,1442846077420,1442846077980,913,410,0,0,0,5,3,2,53,0005-00-0007-90.png,0003-00-0002-49.png
00000014,240,0,1442846079280,1442846079830,400,486,0,0,0,4,2,2,42,0004-00-0008-93.png,0002-00-0007-75.png
00000014,241,0,1442846083018,1442846083398,363,371,0,0,0,5,4,1,54,0005-00-0004-97.png,0004-00-0008-26.png
00000014,242,0,1442846086615,1442846087089,428,416,0,0,0,4,3,1,43,0004-00-0000-21.png,0003-00-0008-96.png
00000014,243,1,1442846090640,1442846091137,366,363,0,0,0,3,5,2,35,0003-00-0004-44.png,0005-00-0008-39.png
00000014,244,1,1442846092236,1442846092707,394,401,0,0,0,1,2,1,12,0001-00-0001-91.png,0002-00-0004-45.png
00000014,245,1,1442846093759,1442846094239,356,401,0,0,0,2,4,2,24,0002-00-0005-37.png,0004-00-0001-96.png
00000014,246,0,1442846095414,1442846096042,407,447,0,0,0,2,1,1,21,0002-00-0008-13.png,0001-00-0002-59.png
00000014,247,1,1442846099026,1442846099074,510,314,0,0,0,1,4,3,14,0001-00-0005-82.png,0004-00-0004-79.png
00000014,248,1,1442846100211,1442846100752,871,393,0,0,0,5,3,2,53,0005-00-0000-17.png,0003-00-0003-04.png
00000014,249,1,1442846101900,1442846102461,876,396,0,0,0,4,2,2,42,0004-00-0009-07.png,0002-00-0007-85.png
00000014,250,0,1442846103551,1442846104134,894,457,0,0,0,1,3,2,13,0001-00-0005-67.png,0003-00-0009-35.png
00000014,251,1,1442846106998,1442846107475,315,389,0,0,0,1,5,4,15,0001-00-0005-45.png,0005-00-0006-01.png
00000014,252,0,1442846108540,1442846109062,902,389,0,0,0,2,3,1,23,0002-00-0000-75.png,0003-00-0007-13.png
00000014,253,0,1442846112005,1442846112053,472,393,0,0,0,3,2,1,32,0003-00-0002-37.png,0002-00-0008-72.png
00000014,254,0,1442846115129,1442846115587,936,426,0,0,0,3,4,1,34,0003-00-0004-71.png,0004-00-0009-10.png
00000014,255,1,1442846118575,1442846119076,895,515,0,0,0,5,2,3,52,0005-00-0009-11.png,0002-00-0008-52.png
00000014,256,1,1442846120189,1442846120743,900,472,0,0,0,5,1,4,51,0005-00-0005-48.png,0001-00-0001-55.png
00000014,257,1,1442846121777,1442846122380,376,397,0,0,0,4,5,1,45,0004-00-0008-99.png,0005-00-0009-35.png
00000014,258,0,1442846123452,1442846123998,401,384,0,0,0,3,1,2,31,0003-00-0005-73.png,0001-00-0007-71.png
00000014,259,1,1442846127193,1442846127644,897,366,0,0,0,4,1,3,41,0004-00-0009-13.png,0001-00-0003-23.png
00000014,260,1,1442846129042,1442846129484,390,424,0,0,0,2,5,3,25,0002-00-0008-07.png,0005-00-0009-58.png
00000014,261,0,1442846130618,1442846131159,886,476,0,0,0,1,2,1,12,0001-00-0004-29.png,0002-00-0000-94.png
00000014,262,1,1442846133998,1442846134024,458,441,0,0,0,2,4,2,24,0002-00-0004-14.png,0004-00-0008-66.png
00000014,263,1,1442846135165,1442846135686,896,483,0,0,0,2,1,1,21,0002-00-0008-76.png,0001-00-0001-92.png
00000014,264,1,1442846136824,1442846137323,362,476,0,0,0,1,4,3,14,0001-00-0004-60.png,0004-00-0001-83.png
00000014,265,1,1442846138403,1442846138980,870,367,0,0,0,5,4,1,54,0005-00-0006-30.png,0004-00-0009-17.png
00000014,266,1,1442846140040,1442846140594,905,375,0,0,0,4,1,3,41,0004-00-0001-02.png,0001-00-0001-83.png
00000014,267,0,1442846141734,1442846142222,312,423,0,0,0,3,2,1,32,0003-00-0003-35.png,0002-00-0002-61.png
00000014,268,0,1442846145321,1442846145804,424,391,0,0,0,4,2,2,42,0004-00-0003-37.png,0002-00-0007-35.png
00000014,269,1,1442846148849,1442846149315,413,397,0,0,0,3,5,2,35,0003-00-0007-98.png,0005-00-0005-50.png
00000014,270,1,1442846150405,1442846150963,905,401,0,0,0,5,3,2,53,0005-00-0001-78.png,0003-00-0001-39.png
00000014,271,1,1442846152033,1442846152564,315,416,0,0,0,2,3,1,23,0002-00-0008-88.png,0003-00-0004-68.png
00000014,272,1,1442846153591,1442846154125,363,392,0,0,0,1,5,4,15,0001-00-0000-32.png,0005-00-0003-12.png
00000014,273,0,1442846155265,1442846155755,325,409,0,0,0,3,1,2,31,0003-00-0000-60.png,0001-00-0008-88.png
00000014,274,1,1442846158829,1442846159314,930,401,0,0,0,5,1,4,51,0005-00-0009-34.png,0001-00-0009-81.png
00000014,275,1,1442846160396,1442846160855,356,412,0,0,0,2,5,3,25,0002-00-0002-58.png,0005-00-0005-83.png
00000014,276,1,1442846161900,1442846162475,901,397,0,0,0,5,2,3,52,0005-00-0001-11.png,0002-00-0008-20.png
00000014,277,1,1442846163489,1442846164174,368,297,0,0,0,1,3,2,13,0001-00-0006-11.png,0003-00-0002-59.png
00000014,278,0,1442846165404,1442846165930,903,418,0,0,0,4,5,1,45,0004-00-0005-38.png,0005-00-0003-44.png
00000014,279,1,1442846169016,1442846169468,415,424,0,0,0,3,4,1,34,0003-00-0004-12.png,0004-00-0002-85.png
00000014,280,1,1442846170587,1442846171184,901,435,0,0,0,4,3,1,43,0004-00-0006-67.png,0003-00-0006-56.png
00000014,281,1,1442846172400,1442846172965,884,435,0,0,0,5,3,2,53,0005-00-0003-83.png,0003-00-0002-87.png
00000014,282,0,1442846174076,1442846174625,900,423,0,0,0,4,5,1,45,0004-00-0007-86.png,0005-00-0000-05.png
00000014,283,1,1442846177763,1442846177867,508,543,0,0,0,2,4,2,24,0002-00-0008-76.png,0004-00-0009-02.png
00000014,284,1,1442846179419,1442846179886,312,400,0,0,0,1,3,2,13,0001-00-0005-54.png,0003-00-0001-69.png
00000014,285,1,1442846180865,1442846181430,888,422,0,0,0,3,2,1,32,0003-00-0007-31.png,0002-00-0007-24.png
00000014,286,1,1442846182584,1442846183140,900,415,0,0,0,3,1,2,31,0003-00-0005-82.png,0001-00-0003-15.png
00000014,287,1,1442846184202,1442846184676,376,517,0,0,0,1,4,3,14,0001-00-0007-94.png,0004-00-0000-79.png
00000014,288,0,1442846185918,1442846186445,366,507,0,0,0,5,4,1,54,0005-00-0007-00.png,0004-00-0006-97.png
00000014,289,1,1442846189361,1442846189934,390,440,0,0,0,3,5,2,35,0003-00-0003-01.png,0005-00-0000-46.png
00000014,290,0,1442846191012,1442846191578,872,430,0,0,0,2,5,3,25,0002-00-0006-49.png,0005-00-0004-81.png
00000014,291,1,1442846194630,1442846194674,502,450,0,0,0,2,3,1,23,0002-00-0004-87.png,0003-00-0007-67.png
00000014,292,1,1442846195775,1442846196319,888,422,0,0,0,5,1,4,51,0005-00-0008-22.png,0001-00-0004-34.png
00000014,293,1,1442846197342,1442846197852,350,410,0,0,0,1,5,4,15,0001-00-0004-17.png,0005-00-0001-97.png
00000014,294,0,1442846198899,1442846199666,929,425,0,0,0,3,4,1,34,0003-00-0002-56.png,0004-00-0001-60.png
00000014,295,0,1442846203057,1442846203572,385,501,0,0,0,4,1,3,41,0004-00-0004-81.png,0001-00-0007-66.png
00000014,296,1,1442846206755,1442846207370,919,412,0,0,0,4,3,1,43,0004-00-0008-53.png,0003-00-0003-37.png
00000014,297,1,1442846208461,1442846209026,875,385,0,0,0,4,2,2,42,0004-00-0006-47.png,0002-00-0007-63.png
00000014,298,1,1442846210053,1442846210596,887,507,0,0,0,5,2,3,52,0005-00-0002-24.png,0002-00-0007-26.png
00000014,299,1,1442846211684,1442846212132,368,427,0,0,0,1,2,1,12,0001-00-0009-01.png,0002-00-0009-59.png
00000014,300,1,1442846213238,1442846213770,901,410,0,0,0,2,1,1,21,0002-00-0003-24.png,0001-00-0000-98.png
00000014,301,1,1442846214944,1442846215400,401,423,0,0,0,1,3,2,13,0001-00-0005-99.png,0003-00-0009-31.png
00000014,302,0,1442846216711,1442846217257,879,417,0,0,0,3,4,1,34,0003-00-0007-42.png,0004-00-0007-44.png
00000014,303,0,1442846222238,1442846222735,902,440,0,0,0,3,5,2,35,0003-00-0005-35.png,0005-00-0002-22.png
00000014,304,1,1442846226809,1442846227331,900,515,0,0,0,2,1,1,21,0002-00-0006-34.png,0001-00-0008-00.png
00000014,305,0,1442846228707,1442846229186,393,413,0,0,0,5,2,3,52,0005-00-0005-85.png,0002-00-0008-40.png
00000014,306,1,1442846233232,1442846233713,377,484,0,0,0,1,2,1,12,0001-00-0003-94.png,0002-00-0000-85.png
00000014,307,1,1442846234826,1442846235364,305,413,0,0,0,1,5,4,15,0001-00-0005-43.png,0005-00-0007-27.png
00000014,308,1,1442846236416,1442846236950,389,409,0,0,0,4,5,1,45,0004-00-0007-71.png,0005-00-0003-78.png
00000014,309,1,1442846238019,1442846238573,930,427,0,0,0,3,2,1,32,0003-00-0009-62.png,0002-00-0005-87.png
00000014,310,0,1442846239798,1442846240260,317,427,0,0,0,3,1,2,31,0003-00-0002-56.png,0001-00-0006-21.png
00000014,311,1,1442846243196,1442846243749,927,423,0,0,0,5,1,4,51,0005-00-0007-03.png,0001-00-0006-83.png
00000014,312,1,1442846244758,1442846245364,902,390,0,0,0,4,2,2,42,0004-00-0007-31.png,0002-00-0008-57.png
00000014,313,1,1442846246398,1442846246961,412,401,0,0,0,2,5,3,25,0002-00-0001-36.png,0005-00-0004-51.png
00000014,314,1,1442846247954,1442846248482,892,508,0,0,0,4,1,3,41,0004-00-0008-75.png,0001-00-0002-04.png
00000014,315,0,1442846249607,1442846250188,876,414,0,0,0,2,4,2,24,0002-00-0002-91.png,0004-00-0003-13.png
00000014,316,0,1442846253075,1442846253593,938,398,0,0,0,2,3,1,23,0002-00-0005-16.png,0003-00-0004-10.png
00000014,317,0,1442846256604,1442846256624,521,341,0,0,0,5,3,2,53,0005-00-0004-03.png,0003-00-0004-73.png
00000014,318,1,1442846259964,1442846260450,892,502,0,0,0,5,4,1,54,0005-00-0008-84.png,0004-00-0007-34.png
00000014,319,0,1442846261504,1442846262041,393,414,0,0,0,4,3,1,43,0004-00-0002-20.png,0003-00-0005-23.png
00000014,320,1,1442846265101,1442846265137,495,379,0,0,0,1,4,3,14,0001-00-0003-22.png,0004-00-0001-29.png
00000014,321,1,1442846266375,1442846266885,873,485,0,0,0,5,3,2,53,0005-00-0002-01.png,0003-00-0008-05.png
00000014,322,1,1442846268065,1442846268626,893,391,0,0,0,3,2,1,32,0003-00-0007-21.png,0002-00-0001-73.png
00000014,323,1,1442846269635,1442846270204,897,401,0,0,0,5,1,4,51,0005-00-0006-62.png,0001-00-0001-24.png
00000014,324,1,1442846271284,1442846271758,338,391,0,0,0,1,4,3,14,0001-00-0000-69.png,0004-00-0008-06.png
00000014,325,1,1442846272854,1442846273411,427,465,0,0,0,1,3,2,13,0001-00-0004-43.png,0003-00-0007-38.png
00000014,326,1,1442846274544,1442846275399,376,371,0,0,0,3,4,1,34,0003-00-0004-79.png,0004-00-0004-49.png
00000014,327,1,1442846276689,1442846277238,902,418,0,0,0,5,2,3,52,0005-00-0004-48.png,0002-00-0002-42.png
00000014,328,1,1442846278330,1442846278863,901,410,0,0,0,4,1,3,41,0004-00-0001-21.png,0001-00-0002-81.png
00000014,329,0,1442846280009,1442846280603,355,430,0,0,0,5,4,1,54,0005-00-0009-83.png,0004-00-0003-89.png
00000014,330,0,1442846283789,1442846284239,891,509,0,0,0,2,4,2,24,0002-00-0004-33.png,0004-00-0002-48.png
00000014,331,0,1442846287430,1442846288048,920,476,0,0,0,2,5,3,25,0002-00-0007-10.png,0005-00-0007-95.png
00000014,332,1,1442846291171,1442846291673,894,510,0,0,0,2,1,1,21,0002-00-0008-31.png,0001-00-0003-18.png
00000014,333,0,1442846292783,1442846293242,366,500,0,0,0,4,3,1,43,0004-00-0001-48.png,0003-00-0007-71.png
00000014,334,1,1442846296231,1442846296250,504,347,0,0,0,1,5,4,15,0001-00-0000-52.png,0005-00-0005-18.png
00000014,335,1,1442846297250,1442846297703,313,417,0,0,0,3,5,2,35,0003-00-0002-46.png,0005-00-0009-07.png
00000014,336,0,1442846298813,1442846299350,362,410,0,0,0,4,2,2,42,0004-00-0003-05.png,0002-00-0009-13.png
00000014,337,1,1442846302314,1442846302758,354,428,0,0,0,1,2,1,12,0001-00-0009-88.png,0002-00-0002-23.png
00000014,338,1,1442846303835,1442846304355,904,428,0,0,0,3,1,2,31,0003-00-0001-26.png,0001-00-0009-88.png
00000014,339,0,1442846305479,1442846306010,879,401,0,0,0,2,3,1,23,0002-00-0006-96.png,0003-00-0009-71.png
00000014,340,1,1442846308936,1442846308956,513,364,0,0,0,4,5,1,45,0004-00-0000-69.png,0005-00-0001-28.png
00000014,341,1,1442846310098,1442846310580,292,401,0,0,0,2,5,3,25,0002-00-0004-75.png,0005-00-0003-39.png
00000014,342,0,1442846311589,1442846312157,877,391,0,0,0,4,5,1,45,0004-00-0005-25.png,0005-00-0008-68.png
00000014,343,0,1442846315287,1442846315906,946,485,0,0,0,2,4,2,24,0002-00-0007-87.png,0004-00-0006-66.png
00000014,344,1,1442846318952,1442846319438,928,407,0,0,0,4,1,3,41,0004-00-0001-69.png,0001-00-0002-37.png
00000014,345,0,1442846320472,1442846321005,288,397,0,0,0,2,1,1,21,0002-00-0007-19.png,0001-00-0004-57.png
00000014,346,0,1442846324100,1442846324120,496,413,0,0,0,5,3,2,53,0005-00-0006-99.png,0003-00-0007-41.png
00000014,347,1,1442846327250,1442846327764,915,422,0,0,0,5,4,1,54,0005-00-0007-64.png,0004-00-0002-55.png
00000014,348,0,1442846328779,1442846329239,394,426,0,0,0,4,2,2,42,0004-00-0005-65.png,0002-00-0002-14.png
00000014,349,1,1442846332108,1442846332124,494,406,0,0,0,1,2,1,12,0001-00-0004-85.png,0002-00-0003-26.png
00000014,350,1,1442846333302,1442846333758,353,502,0,0,0,1,5,4,15,0001-00-0008-47.png,0005-00-0004-49.png
00000014,351,1,1442846334774,1442846335374,871,482,0,0,0,3,2,1,32,0003-00-0007-44.png,0002-00-0004-99.png
00000014,352,1,1442846336384,1442846336823,401,397,0,0,0,3,4,1,34,0003-00-0008-38.png,0004-00-0005-00.png
00000014,353,1,1442846337920,1442846338444,887,424,0,0,0,3,1,2,31,0003-00-0000-18.png,0001-00-0000-48.png
00000014,354,0,1442846339682,1442846340218,899,423,0,0,0,3,5,2,35,0003-00-0004-01.png,0005-00-0000-54.png
00000014,355,1,1442846343210,1442846343226,508,348,0,0,0,1,3,2,13,0001-00-0000-36.png,0003-00-0008-37.png
00000014,356,0,1442846344332,1442846344911,299,403,0,0,0,5,1,4,51,0005-00-0009-32.png,0001-00-0007-66.png
00000014,357,1,1442846348001,1442846348507,363,397,0,0,0,2,3,1,23,0002-00-0008-93.png,0003-00-0009-20.png
00000014,358,1,1442846349571,1442846350120,888,371,0,0,0,5,2,3,52,0005-00-0002-36.png,0002-00-0000-38.png
00000014,359,1,1442846351240,1442846351740,388,397,0,0,0,1,4,3,14,0001-00-0004-22.png,0004-00-0004-64.png
00000014,360,1,1442846352826,1442846353414,866,483,0,0,0,4,3,1,43,0004-00-0000-99.png,0003-00-0005-45.png
00000014,361,1,1442846354509,1442846355072,416,502,0,0,0,1,4,3,14,0001-00-0007-84.png,0004-00-0004-18.png
00000014,362,1,1442846356131,1442846356676,362,418,0,0,0,2,3,1,23,0002-00-0007-08.png,0003-00-0005-67.png
00000014,363,1,1442846357732,1442846358203,418,401,0,0,0,4,5,1,45,0004-00-0008-72.png,0005-00-0004-58.png
00000014,364,1,1442846359356,1442846359917,898,410,0,0,0,3,1,2,31,0003-00-0006-51.png,0001-00-0003-03.png
00000014,365,0,1442846360971,1442846361463,372,507,0,0,0,2,1,1,21,0002-00-0005-93.png,0001-00-0006-68.png
00000014,366,1,1442846364601,1442846365142,887,476,0,0,0,4,1,3,41,0004-00-0007-52.png,0001-00-0008-26.png
00000014,367,1,1442846366203,1442846366834,878,462,0,0,0,4,3,1,43,0004-00-0009-76.png,0003-00-0007-89.png
00000014,368,0,1442846367858,1442846368322,425,429,0,0,0,3,2,1,32,0003-00-0009-56.png,0002-00-0004-58.png
00000014,369,1,1442846371366,1442846371370,505,437,0,0,0,1,5,4,15,0001-00-0009-85.png,0005-00-0008-28.png
00000014,370,0,1442846372420,1442846373269,401,396,0,0,0,4,2,2,42,0004-00-0008-72.png,0002-00-0009-68.png
00000014,371,0,1442846376316,1442846376332,521,410,0,0,0,5,1,4,51,0005-00-0007-78.png,0001-00-0006-61.png
00000014,372,0,1442846379336,1442846379340,483,418,0,0,0,5,3,2,53,0005-00-0004-23.png,0003-00-0000-31.png
00000014,373,1,1442846382357,1442846382845,921,432,0,0,0,5,4,1,54,0005-00-0008-17.png,0004-00-0007-06.png
00000014,374,1,1442846384038,1442846384575,337,392,0,0,0,3,5,2,35,0003-00-0005-78.png,0005-00-0006-34.png
00000014,375,0,1442846385647,1442846386174,894,410,0,0,0,3,4,1,34,0003-00-0001-32.png,0004-00-0004-18.png
00000014,376,1,1442846389146,1442846389166,510,335,0,0,0,1,2,1,12,0001-00-0009-00.png,0002-00-0002-71.png
00000014,377,1,1442846390190,1442846390718,318,394,0,0,0,2,5,3,25,0002-00-0004-38.png,0005-00-0008-50.png
00000014,378,0,1442846391756,1442846392333,879,454,0,0,0,2,4,2,24,0002-00-0000-36.png,0004-00-0005-67.png
00000014,379,0,1442846395171,1442846395622,387,405,0,0,0,5,2,3,52,0005-00-0004-65.png,0002-00-0000-66.png
00000014,380,1,1442846398683,1442846398702,442,411,0,0,0,1,3,2,13,0001-00-0003-91.png,0003-00-0003-04.png
00000014,381,1,1442846399770,1442846400299,372,518,0,0,0,2,3,1,23,0002-00-0001-81.png,0003-00-0001-75.png
00000014,382,1,1442846401359,1442846401913,889,414,0,0,0,3,1,2,31,0003-00-0004-19.png,0001-00-0007-30.png
00000014,383,1,1442846402970,1442846403449,334,400,0,0,0,1,4,3,14,0001-00-0007-52.png,0004-00-0008-43.png
00000014,384,1,1442846404601,1442846405153,871,394,0,0,0,3,2,1,32,0003-00-0009-38.png,0002-00-0001-39.png
00000014,385,1,1442846406281,1442846406820,873,490,0,0,0,2,1,1,21,0002-00-0002-99.png,0001-00-0008-91.png
00000014,386,0,1442846407961,1442846408557,869,390,0,0,0,1,3,2,13,0001-00-0002-19.png,0003-00-0003-18.png
00000014,387,1,1442846411426,1442846411869,413,398,0,0,0,1,2,1,12,0001-00-0002-25.png,0002-00-0005-54.png
00000014,388,1,1442846412879,1442846413448,870,426,0,0,0,5,2,3,52,0005-00-0001-25.png,0002-00-0000-29.png
00000014,389,1,1442846414561,1442846415044,309,430,0,0,0,2,4,2,24,0002-00-0007-55.png,0004-00-0003-46.png
00000014,390,1,1442846416105,1442846416662,911,467,0,0,0,4,2,2,42,0004-00-0002-60.png,0002-00-0005-62.png
00000014,391,1,1442846417729,1442846418267,377,509,0,0,0,3,4,1,34,0003-00-0008-87.png,0004-00-0002-57.png
00000014,392,1,1442846419275,1442846419770,364,512,0,0,0,1,5,4,15,0001-00-0009-11.png,0005-00-0001-91.png
00000014,393,1,1442846420860,1442846421508,862,487,0,0,0,5,4,1,54,0005-00-0009-15.png,0004-00-0009-21.png
00000014,394,1,1442846422668,1442846423189,900,414,0,0,0,5,1,4,51,0005-00-0004-51.png,0001-00-0002-46.png
00000014,395,1,1442846424339,1442846424833,350,410,0,0,0,4,5,1,45,0004-00-0001-51.png,0005-00-0009-79.png
00000014,396,1,1442846426026,1442846426575,877,424,0,0,0,4,3,1,43,0004-00-0003-62.png,0003-00-0006-70.png
00000014,397,1,1442846427753,1442846428240,424,450,0,0,0,2,5,3,25,0002-00-0007-03.png,0005-00-0004-09.png
00000014,398,0,1442846429774,1442846430335,876,450,0,0,0,3,5,2,35,0003-00-0002-54.png,0005-00-0001-05.png
00000014,399,1,1442846433577,1442846434048,925,449,0,0,0,4,1,3,41,0004-00-0007-15.png,0001-00-0000-60.png
00000014,400,1,1442846435142,1442846435735,895,447,0,0,0,5,3,2,53,0005-00-0005-81.png,0003-00-0004-71.png
00000014,401,1,1442846436906,1442846437492,875,412,0,0,0,4,2,2,42,0004-00-0009-56.png,0002-00-0008-19.png
00000014,402,1,1442846438611,1442846439141,372,513,0,0,0,2,5,3,25,0002-00-0004-93.png,0005-00-0009-09.png
00000014,403,1,1442846440282,1442846440898,372,504,0,0,0,3,5,2,35,0003-00-0000-00.png,0005-00-0004-35.png
00000014,404,1,1442846442045,1442846442579,359,423,0,0,0,4,5,1,45,0004-00-0004-58.png,0005-00-0004-15.png
00000014,405,1,1442846443710,1442846444334,873,421,0,0,0,4,1,3,41,0004-00-0007-85.png,0001-00-0000-89.png
00000014,406,0,1442846445410,1442846445977,875,398,0,0,0,1,4,3,14,0001-00-0007-19.png,0004-00-0000-66.png
00000014,407,1,1442846449117,1442846449580,337,434,0,0,0,1,5,4,15,0001-00-0006-04.png,0005-00-0008-85.png
00000014,408,0,1442846450578,1442846451078,384,511,0,0,0,5,2,3,52,0005-00-0008-93.png,0002-00-0008-25.png
00000014,409,1,1442846454275,1442846454740,336,396,0,0,0,2,4,2,24,0002-00-0007-12.png,0004-00-0008-39.png
00000014,410,1,1442846455755,1442846456322,891,508,0,0,0,5,1,4,51,0005-00-0009-40.png,0001-00-0003-92.png
00000014,411,1,1442846457828,1442846458317,391,520,0,0,0,1,2,1,12,0001-00-0002-85.png,0002-00-0004-40.png
00000014,412,1,1442846459352,1442846459851,369,513,0,0,0,1,3,2,13,0001-00-0008-89.png,0003-00-0002-35.png
00000014,413,1,1442846460908,1442846461514,378,400,0,0,0,3,4,1,34,0003-00-0003-29.png,0004-00-0002-46.png
00000014,414,1,1442846462512,1442846463178,887,502,0,0,0,5,4,1,54,0005-00-0005-20.png,0004-00-0001-13.png
00000014,415,1,1442846464184,1442846464754,877,413,0,0,0,2,1,1,21,0002-00-0009-75.png,0001-00-0004-39.png
00000014,416,1,1442846465784,1442846466365,368,407,0,0,0,2,3,1,23,0002-00-0005-19.png,0003-00-0000-28.png
00000014,417,0,1442846467400,1442846467928,315,415,0,0,0,5,3,2,53,0005-00-0009-59.png,0003-00-0005-02.png
00000014,418,1,1442846470769,1442846471241,912,424,0,0,0,3,2,1,32,0003-00-0001-95.png,0002-00-0006-29.png
00000014,419,1,1442846472231,1442846472781,880,389,0,0,0,4,3,1,43,0004-00-0003-06.png,0003-00-0009-67.png
00000014,420,1,1442846473761,1442846474347,875,397,0,0,0,3,1,2,31,0003-00-0001-38.png,0001-00-0006-26.png
00000014,421,1,1442846475353,1442846475929,876,418,0,0,0,4,1,3,41,0004-00-0003-79.png,0001-00-0000-09.png
00000014,422,1,1442846476972,1442846477497,366,492,0,0,0,1,4,3,14,0001-00-0002-88.png,0004-00-0000-74.png
00000014,423,1,1442846478581,1442846479156,875,397,0,0,0,4,3,1,43,0004-00-0000-32.png,0003-00-0001-94.png
00000014,424,1,1442846480292,1442846480802,371,514,0,0,0,1,2,1,12,0001-00-0005-05.png,0002-00-0006-53.png
00000014,425,0,1442846482179,1442846483159,432,395,0,0,0,5,2,3,52,0005-00-0003-25.png,0002-00-0008-25.png
00000014,426,1,1442846486196,1442846486871,945,390,0,0,0,5,3,2,53,0005-00-0007-50.png,0003-00-0004-62.png
00000014,427,0,1442846487836,1442846489253,858,553,0,0,0,4,5,1,45,0004-00-0003-40.png,0005-00-0003-32.png
00000014,428,1,1442846492317,1442846492782,304,386,0,0,0,2,4,2,24,0002-00-0003-16.png,0004-00-0003-79.png
00000014,429,1,1442846493794,1442846494348,917,419,0,0,0,5,1,4,51,0005-00-0000-71.png,0001-00-0007-42.png
00000014,430,0,1442846495375,1442846495963,874,346,0,0,0,1,3,2,13,0001-00-0004-13.png,0003-00-0006-81.png
00000014,431,0,1442846498987,1442846499513,365,364,0,0,0,3,1,2,31,0003-00-0007-27.png,0001-00-0006-26.png
00000014,432,1,1442846502465,1442846502489,493,410,0,0,0,2,5,3,25,0002-00-0007-37.png,0005-00-0006-64.png
00000014,433,0,1442846503606,1442846504108,379,514,0,0,0,5,4,1,54,0005-00-0007-95.png,0004-00-0004-31.png
00000014,434,1,1442846507217,1442846507713,913,455,0,0,0,2,1,1,21,0002-00-0003-83.png,0001-00-0001-96.png
00000014,435,0,1442846508757,1442846509283,879,461,0,0,0,3,4,1,34,0003-00-0006-22.png,0004-00-0009-69.png
00000014,436,1,1442846512237,1442846512249,478,396,0,0,0,1,5,4,15,0001-00-0002-72.png,0005-00-0001-12.png
00000014,437,1,1442846513359,1442846513931,319,417,0,0,0,3,5,2,35,0003-00-0003-92.png,0005-00-0007-38.png
00000014,438,0,1442846514979,1442846515584,879,413,0,0,0,2,3,1,23,0002-00-0009-47.png,0003-00-0006-02.png
00000014,439,1,1442846518644,1442846519120,896,524,0,0,0,4,2,2,42,0004-00-0004-21.png,0002-00-0007-25.png
00000014,440,1,1442846520107,1442846520650,880,401,0,0,0,3,2,1,32,0003-00-0002-01.png,0002-00-0007-75.png
00000014,441,1,1442846521639,1442846522217,887,424,0,0,0,2,1,1,21,0002-00-0006-84.png,0001-00-0001-65.png
00000014,442,1,1442846523266,1442846523860,894,415,0,0,0,4,3,1,43,0004-00-0000-21.png,0003-00-0001-30.png
00000014,443,1,1442846524908,1442846525431,389,491,0,0,0,3,5,2,35,0003-00-0004-73.png,0005-00-0006-69.png
00000014,444,1,1442846526566,1442846527107,877,442,0,0,0,3,2,1,32,0003-00-0001-96.png,0002-00-0000-20.png
00000014,445,0,1442846528316,1442846528803,344,401,0,0,0,4,2,2,42,0004-00-0004-17.png,0002-00-0003-57.png
00000014,446,1,1442846531841,1442846532359,894,438,0,0,0,5,3,2,53,0005-00-0001-25.png,0003-00-0008-80.png
00000014,447,1,1442846533377,1442846533920,900,397,0,0,0,5,1,4,51,0005-00-0001-23.png,0001-00-0004-51.png
00000014,448,0,1442846534924,1442846535493,873,484,0,0,0,1,2,1,12,0001-00-0000-88.png,0002-00-0005-24.png
00000014,449,0,1442846538601,1442846539093,900,424,0,0,0,3,4,1,34,0003-00-0009-27.png,0004-00-0003-99.png
00000014,450,0,1442846542142,1442846542604,389,501,0,0,0,3,1,2,31,0003-00-0006-91.png,0001-00-0009-62.png
00000014,451,1,1442846545888,1442846546425,359,421,0,0,0,2,5,3,25,0002-00-0000-72.png,0005-00-0002-16.png
00000014,452,1,1442846547497,1442846547980,314,414,0,0,0,1,5,4,15,0001-00-0000-72.png,0005-00-0004-68.png
00000014,453,1,1442846548968,1442846549540,918,418,0,0,0,4,1,3,41,0004-00-0004-45.png,0001-00-0009-75.png
00000014,454,0,1442846550806,1442846551359,900,411,0,0,0,2,3,1,23,0002-00-0000-87.png,0003-00-0003-72.png
00000014,455,1,1442846554309,1442846554333,493,384,0,0,0,2,4,2,24,0002-00-0005-94.png,0004-00-0008-07.png
00000014,456,1,1442846555400,1442846555899,880,401,0,0,0,5,2,3,52,0005-00-0003-58.png,0002-00-0008-49.png
00000014,457,0,1442846556989,1442846557535,879,402,0,0,0,1,3,2,13,0001-00-0002-15.png,0003-00-0008-46.png
00000014,458,1,1442846560994,1442846561077,518,436,0,0,0,4,5,1,45,0004-00-0005-44.png,0005-00-0005-93.png
00000014,459,1,1442846562216,1442846562725,331,413,0,0,0,1,4,3,14,0001-00-0000-54.png,0004-00-0006-21.png
00000014,460,1,1442846563776,1442846564327,903,410,0,0,0,5,4,1,54,0005-00-0009-50.png,0004-00-0001-43.png
00000014,461,1,1442846565458,1442846566046,876,448,0,0,0,4,2,2,42,0004-00-0006-23.png,0002-00-0001-86.png
00000014,462,1,1442846567349,1442846567890,376,488,0,0,0,4,5,1,45,0004-00-0008-32.png,0005-00-0009-90.png
00000014,463,1,1442846569125,1442846569717,875,459,0,0,0,5,1,4,51,0005-00-0007-85.png,0001-00-0004-84.png
00000014,464,1,1442846571003,1442846571466,310,431,0,0,0,2,5,3,25,0002-00-0003-10.png,0005-00-0003-30.png
00000014,465,1,1442846572911,1442846573436,875,409,0,0,0,5,2,3,52,0005-00-0005-46.png,0002-00-0006-58.png
00000014,466,1,1442846574610,1442846575174,873,411,0,0,0,5,4,1,54,0005-00-0002-79.png,0004-00-0006-40.png
00000014,467,1,1442846576410,1442846576901,350,403,0,0,0,1,5,4,15,0001-00-0004-72.png,0005-00-0000-36.png
00000014,468,0,1442846578098,1442846578673,862,424,0,0,0,3,4,1,34,0003-00-0009-84.png,0004-00-0000-23.png
00000014,469,0,1442846581952,1442846582488,857,508,0,0,0,3,5,2,35,0003-00-0008-01.png,0005-00-0003-06.png
00000014,470,0,1442846585931,1442846586800,335,408,0,0,0,5,3,2,53,0005-00-0009-86.png,0003-00-0000-14.png
00000014,471,1,1442846590176,1442846590658,924,431,0,0,0,4,3,1,43,0004-00-0008-42.png,0003-00-0008-99.png
00000014,472,1,1442846591717,1442846592241,875,385,0,0,0,3,2,1,32,0003-00-0003-37.png,0002-00-0002-38.png
00000014,473,1,1442846593305,1442846593928,344,376,0,0,0,2,3,1,23,0002-00-0004-41.png,0003-00-0006-06.png
00000014,474,0,1442846595005,1442846595560,899,412,0,0,0,1,4,3,14,0001-00-0000-87.png,0004-00-0001-27.png
00000014,475,1,1442846598680,1442846599174,923,508,0,0,0,3,1,2,31,0003-00-0003-31.png,0001-00-0002-78.png
00000014,476,1,1442846600137,1442846600769,376,370,0,0,0,2,4,2,24,0002-00-0002-27.png,0004-00-0004-18.png
00000014,477,1,1442846601825,1442846602412,871,420,0,0,0,2,1,1,21,0002-00-0009-55.png,0001-00-0009-36.png
00000014,478,1,1442846603513,1442846603995,319,409,0,0,0,1,3,2,13,0001-00-0006-78.png,0003-00-0006-46.png
00000014,479,1,1442846605114,1442846605649,401,384,0,0,0,1,2,1,12,0001-00-0002-92.png,0002-00-0003-93.png
00000014,480,1,1442846606648,1442846607331,874,489,0,0,0,4,1,3,41,0004-00-0008-72.png,0001-00-0002-39.png
00000014,481,0,1442846608300,1442846608911,873,439,0,0,0,3,4,1,34,0003-00-0006-79.png,0004-00-0008-87.png
00000014,482,1,1442846611978,1442846612445,915,448,0,0,0,5,4,1,54,0005-00-0000-24.png,0004-00-0009-21.png
00000014,483,1,1442846613431,1442846613999,873,431,0,0,0,3,2,1,32,0003-00-0000-65.png,0002-00-0001-46.png
00000014,484,1,1442846615050,1442846615529,386,508,0,0,0,1,4,3,14,0001-00-0005-96.png,0004-00-0007-32.png
00000014,485,0,1442846616521,1442846617172,874,438,0,0,0,1,3,2,13,0001-00-0004-86.png,0003-00-0000-15.png
00000014,486,1,1442846620097,1442846620657,930,443,0,0,0,4,1,3,41,0004-00-0007-85.png,0001-00-0003-68.png
00000014,487,1,1442846621669,1442846622173,293,419,0,0,0,1,5,4,15,0001-00-0004-07.png,0005-00-0009-63.png
00000014,488,0,1442846623157,1442846624736,202,507,0,0,0,5,3,2,53,0005-00-0009-09.png,0003-00-0005-42.png
00000014,489,0,1442846627650,1442846627666,504,318,0,0,0,5,1,4,51,0005-00-0007-19.png,0001-00-0008-84.png
00000014,490,1,1442846630769,1442846631256,925,437,0,0,0,2,1,1,21,0002-00-0005-40.png,0001-00-0009-56.png
00000014,491,1,1442846632234,1442846632782,879,427,0,0,0,4,2,2,42,0004-00-0005-85.png,0002-00-0000-01.png
00000014,492,1,1442846633804,1442846634286,293,400,0,0,0,2,4,2,24,0002-00-0002-84.png,0004-00-0003-28.png
00000014,493,0,1442846635306,1442846635788,320,409,0,0,0,3,1,2,31,0003-00-0007-06.png,0001-00-0004-39.png
00000014,494,1,1442846638882,1442846639332,435,393,0,0,0,2,3,1,23,0002-00-0001-35.png,0003-00-0004-71.png
00000014,495,1,1442846640422,1442846640948,309,404,0,0,0,4,5,1,45,0004-00-0003-47.png,0005-00-0009-27.png
00000014,496,1,1442846641931,1442846642555,875,423,0,0,0,4,3,1,43,0004-00-0000-86.png,0003-00-0001-20.png
00000014,497,1,1442846643563,1442846644136,889,423,0,0,0,5,2,3,52,0005-00-0007-13.png,0002-00-0007-67.png
00000014,498,0,1442846645181,1442846645754,891,425,0,0,0,1,2,1,12,0001-00-0002-70.png,0002-00-0000-79.png
00000014,499,1,1442846648740,1442846649191,386,409,0,0,0,3,5,2,35,0003-00-0004-97.png,0005-00-0008-79.png
00000014,500,1,1442846650728,1442846651160,376,410,0,0,0,2,5,3,25,0002-00-0002-38.png,0005-00-0006-58.png
00000014,501,0,1442846652696,1442846653187,415,423,0,0,0,4,3,1,43,0004-00-0009-71.png,0003-00-0004-88.png
00000014,502,1,1442846656061,1442846656541,350,396,0,0,0,1,3,2,13,0001-00-0008-06.png,0003-00-0009-51.png
00000014,503,0,1442846657536,1442846658042,351,381,0,0,0,3,2,1,32,0003-00-0002-76.png,0002-00-0004-82.png
00000014,504,1,1442846661143,1442846661234,475,546,0,0,0,2,4,2,24,0002-00-0005-98.png,0004-00-0003-37.png
00000014,505,1,1442846662307,1442846662831,880,427,0,0,0,4,2,2,42,0004-00-0007-22.png,0002-00-0009-73.png
00000014,506,0,1442846663836,1442846664409,888,424,0,0,0,2,3,1,23,0002-00-0008-67.png,0003-00-0007-78.png
00000014,507,0,1442846667382,1442846667390,512,362,0,0,0,5,2,3,52,0005-00-0009-06.png,0002-00-0006-18.png
00000014,508,1,1442846670547,1442846671040,312,392,0,0,0,4,5,1,45,0004-00-0008-93.png,0005-00-0001-09.png
00000014,509,1,1442846672116,1442846672636,370,537,0,0,0,1,5,4,15,0001-00-0003-45.png,0005-00-0006-61.png
00000014,510,1,1442846673673,1442846674228,410,538,0,0,0,1,2,1,12,0001-00-0005-63.png,0002-00-0000-65.png
00000014,511,1,1442846675244,1442846675845,343,416,0,0,0,3,4,1,34,0003-00-0008-92.png,0004-00-0008-02.png
00000014,512,1,1442846676905,1442846677450,901,398,0,0,0,5,1,4,51,0005-00-0001-59.png,0001-00-0000-10.png
00000014,513,1,1442846678441,1442846678978,886,419,0,0,0,3,1,2,31,0003-00-0003-94.png,0001-00-0002-30.png
00000014,514,1,1442846680005,1442846680558,869,498,0,0,0,4,1,3,41,0004-00-0005-46.png,0001-00-0004-59.png
00000014,515,1,1442846681610,1442846682186,875,435,0,0,0,5,3,2,53,0005-00-0007-69.png,0003-00-0004-83.png
00000014,516,1,1442846683256,1442846683830,862,452,0,0,0,5,4,1,54,0005-00-0009-95.png,0004-00-0007-51.png
00000014,517,1,1442846684969,1442846685510,892,403,0,0,0,2,1,1,21,0002-00-0004-59.png,0001-00-0009-38.png
00000014,518,1,1442846686574,1442846687980,350,398,0,0,0,1,4,3,14,0001-00-0004-29.png,0004-00-0009-86.png
00000014,519,1,1442846689017,1442846689511,401,423,0,0,0,2,5,3,25,0002-00-0006-78.png,0005-00-0002-97.png
00000014,520,1,1442846690526,1442846691059,344,419,0,0,0,3,5,2,35,0003-00-0007-87.png,0005-00-0005-61.png
00000014,521,1,1442846692077,1442846692638,879,427,0,0,0,5,2,3,52,0005-00-0003-00.png,0002-00-0007-12.png
00000014,522,0,1442846693648,1442846694346,875,410,0,0,0,2,5,3,25,0002-00-0006-45.png,0005-00-0002-55.png
00000014,523,1,1442846697182,1442846697768,912,531,0,0,0,3,2,1,32,0003-00-0007-45.png,0002-00-0005-90.png
00000014,524,1,1442846698763,1442846699767,321,396,0,0,0,3,4,1,34,0003-00-0007-14.png,0004-00-0001-36.png
00000014,525,1,1442846700793,1442846701331,884,427,0,0,0,5,1,4,51,0005-00-0002-65.png,0001-00-0001-61.png
00000014,526,1,1442846702343,1442846702816,387,410,0,0,0,1,3,2,13,0001-00-0006-62.png,0003-00-0005-33.png
00000014,527,0,1442846703944,1442846704511,320,421,0,0,0,5,3,2,53,0005-00-0005-73.png,0003-00-0004-84.png
00000014,528,1,1442846707717,1442846708218,427,384,0,0,0,2,3,1,23,0002-00-0006-52.png,0003-00-0000-14.png
00000014,529,0,1442846709391,1442846709942,872,431,0,0,0,1,2,1,12,0001-00-0006-06.png,0002-00-0009-96.png
00000014,530,1,1442846712826,1442846713335,900,501,0,0,0,4,1,3,41,0004-00-0002-95.png,0001-00-0004-53.png
00000014,531,1,1442846714348,1442846714865,325,430,0,0,0,2,4,2,24,0002-00-0004-08.png,0004-00-0004-34.png
00000014,532,1,1442846715928,1442846716450,339,443,0,0,0,4,5,1,45,0004-00-0006-15.png,0005-00-0003-46.png
00000014,533,1,1442846717490,1442846718150,863,405,0,0,0,3,1,2,31,0003-00-0004-99.png,0001-00-0007-55.png
00000014,534,0,1442846719309,1442846720169,358,382,0,0,0,5,4,1,54,0005-00-0005-58.png,0004-00-0002-28.png
00000014,535,1,1442846723522,1442846723984,370,417,0,0,0,1,4,3,14,0001-00-0000-51.png,0004-00-0008-97.png
00000014,536,0,1442846725012,1442846725618,894,507,0,0,0,3,5,2,35,0003-00-0004-79.png,0005-00-0001-78.png
00000014,537,0,1442846728820,1442846729344,368,427,0,0,0,4,3,1,43,0004-00-0005-88.png,0003-00-0006-30.png
00000014,538,0,1442846732316,1442846732336,470,358,0,0,0,2,1,1,21,0002-00-0001-98.png,0001-00-0007-24.png
00000014,539,0,1442846735506,1442846735979,925,451,0,0,0,1,5,4,15,0001-00-0002-28.png,0005-00-0004-65.png
00000014,540,0,1442846738854,1442846738874,491,303,0,0,0,4,2,2,42,0004-00-0007-69.png,0002-00-0004-38.png
00000014,541,0,1442846741968,1442846742457,898,433,0,0,0,1,3,2,13,0001-00-0001-07.png,0003-00-0009-60.png
00000014,542,0,1442846745666,1442846745702,504,436,0,0,0,5,2,3,52,0005-00-0006-81.png,0002-00-0005-40.png
00000014,543,0,1442846748735,1442846748771,504,426,0,0,0,3,1,2,31,0003-00-0003-28.png,0001-00-0003-41.png
00000014,544,0,1442846752218,1442846752798,325,441,0,0,0,5,4,1,54,0005-00-0008-91.png,0004-00-0004-49.png
00000014,545,1,1442846755732,1442846755752,513,350,0,0,0,4,5,1,45,0004-00-0009-70.png,0005-00-0008-64.png
00000014,546,1,1442846756828,1442846757349,324,397,0,0,0,3,4,1,34,0003-00-0006-67.png,0004-00-0009-57.png
00000014,547,1,1442846758632,1442846759090,322,404,0,0,0,2,3,1,23,0002-00-0000-08.png,0003-00-0008-73.png
00000014,548,0,1442846760206,1442846760705,363,423,0,0,0,4,3,1,43,0004-00-0001-63.png,0003-00-0005-08.png
00000014,549,1,1442846763713,1442846764333,375,500,0,0,0,2,4,2,24,0002-00-0004-91.png,0004-00-0001-08.png
00000014,550,1,1442846765455,1442846765998,901,462,0,0,0,5,3,2,53,0005-00-0005-66.png,0003-00-0005-01.png
00000014,551,1,1442846767111,1442846767589,401,462,0,0,0,1,2,1,12,0001-00-0005-57.png,0002-00-0006-40.png
00000014,552,1,1442846768624,1442846769169,926,436,0,0,0,2,1,1,21,0002-00-0000-33.png,0001-00-0000-78.png
00000014,553,1,1442846770224,1442846770688,376,384,0,0,0,3,5,2,35,0003-00-0002-88.png,0005-00-0008-32.png
00000014,554,1,1442846771745,1442846772304,876,435,0,0,0,5,1,4,51,0005-00-0002-60.png,0001-00-0005-63.png
00000014,555,1,1442846773384,1442846773980,877,416,0,0,0,3,2,1,32,0003-00-0006-73.png,0002-00-0003-28.png
00000014,556,1,1442846774973,1442846775476,352,405,0,0,0,1,5,4,15,0001-00-0004-84.png,0005-00-0003-00.png
00000014,557,0,1442846776524,1442846777074,881,415,0,0,0,1,4,3,14,0001-00-0000-87.png,0004-00-0008-27.png
00000014,558,0,1442846780161,1442846780637,389,397,0,0,0,4,1,3,41,0004-00-0002-89.png,0001-00-0003-37.png
00000014,559,0,1442846783617,1442846783645,497,358,0,0,0,4,2,2,42,0004-00-0003-49.png,0002-00-0004-19.png
00000014,560,1,1442846786532,1442846787002,333,417,0,0,0,2,5,3,25,0002-00-0003-02.png,0005-00-0009-21.png
00000014,561,0,1442846788021,1442846788601,862,449,0,0,0,4,5,1,45,0004-00-0000-80.png,0005-00-0002-36.png
00000014,562,1,1442846791677,1442846792144,323,426,0,0,0,3,5,2,35,0003-00-0009-19.png,0005-00-0005-37.png
00000014,563,1,1442846793161,1442846793705,901,442,0,0,0,3,2,1,32,0003-00-0003-24.png,0002-00-0007-24.png
00000014,564,1,1442846794780,1442846795258,389,410,0,0,0,1,2,1,12,0001-00-0009-51.png,0002-00-0002-03.png
00000014,565,0,1442846796309,1442846797252,338,409,0,0,0,5,2,3,52,0005-00-0005-00.png,0002-00-0003-83.png
00000014,566,1,1442846800325,1442846800765,339,391,0,0,0,3,4,1,34,0003-00-0001-19.png,0004-00-0008-48.png
00000014,567,1,1442846801785,1442846802382,324,440,0,0,0,2,5,3,25,0002-00-0004-90.png,0005-00-0009-39.png
00000014,568,0,1442846803395,1442846803854,409,446,0,0,0,5,4,1,54,0005-00-0007-59.png,0004-00-0001-21.png
00000014,569,1,1442846806720,1442846807211,894,531,0,0,0,3,1,2,31,0003-00-0000-28.png,0001-00-0006-29.png
00000014,570,0,1442846808137,1442846809044,420,400,0,0,0,4,2,2,42,0004-00-0003-37.png,0002-00-0009-41.png
00000014,571,0,1442846812152,1442846812619,862,414,0,0,0,2,4,2,24,0002-00-0000-93.png,0004-00-0000-14.png
00000014,572,1,1442846815620,1442846815656,489,417,0,0,0,1,5,4,15,0001-00-0000-65.png,0005-00-0003-60.png
00000014,573,0,1442846816734,1442846817273,886,424,0,0,0,1,4,3,14,0001-00-0003-54.png,0004-00-0006-43.png
00000014,574,1,1442846820460,1442846820995,900,424,0,0,0,5,1,4,51,0005-00-0005-52.png,0001-00-0001-93.png
00000014,575,1,1442846822001,1442846822527,366,523,0,0,0,1,3,2,13,0001-00-0007-20.png,0003-00-0004-85.png
00000014,576,1,1442846823578,1442846824122,861,414,0,0,0,5,3,2,53,0005-00-0006-27.png,0003-00-0002-28.png
00000014,577,0,1442846825152,1442846825703,366,438,0,0,0,4,1,3,41,0004-00-0000-36.png,0001-00-0005-77.png
00000014,578,0,1442846828652,1442846828668,482,426,0,0,0,2,1,1,21,0002-00-0004-21.png,0001-00-0004-24.png
00000014,579,0,1442846831650,1442846831674,499,381,0,0,0,4,3,1,43,0004-00-0006-76.png,0003-00-0009-16.png
00000014,580,0,1442846834530,1442846835100,943,400,0,0,0,2,3,1,23,0002-00-0000-68.png,0003-00-0009-85.png
00000014,581,1,1442846837918,1442846838479,932,430,0,0,0,5,2,3,52,0005-00-0007-93.png,0002-00-0008-25.png
00000014,582,1,1442846839484,1442846840027,879,415,0,0,0,4,1,3,41,0004-00-0009-39.png,0001-00-0003-96.png
00000014,583,0,1442846841073,1442846841639,884,427,0,0,0,3,4,1,34,0003-00-0008-11.png,0004-00-0001-18.png
00000014,584,1,1442846844670,1442846845168,863,533,0,0,0,2,1,1,21,0002-00-0001-68.png,0001-00-0003-64.png
00000014,585,0,1442846846130,1442846846672,875,443,0,0,0,4,5,1,45,0004-00-0005-48.png,0005-00-0003-69.png
00000014,586,1,1442846849537,1442846849577,450,289,0,0,0,1,4,3,14,0001-00-0006-64.png,0004-00-0006-68.png
00000014,587,0,1442846850663,1442846851229,346,400,0,0,0,5,1,4,51,0005-00-0006-99.png,0001-00-0000-65.png
00000014,588,0,1442846854140,1442846854148,509,347,0,0,0,5,4,1,54,0005-00-0009-30.png,0004-00-0001-33.png
00000014,589,1,1442846857279,1442846857327,498,454,0,0,0,2,3,1,23,0002-00-0003-62.png,0003-00-0000-06.png
00000014,590,0,1442846858320,1442846858835,294,421,0,0,0,3,2,1,32,0003-00-0000-68.png,0002-00-0003-81.png
00000014,591,1,1442846861762,1442846861791,458,365,0,0,0,2,5,3,25,0002-00-0006-48.png,0005-00-0004-91.png
00000014,592,0,1442846862829,1442846863351,340,441,0,0,0,4,3,1,43,0004-00-0001-97.png,0003-00-0001-73.png
00000014,593,0,1442846866724,1442846867176,401,397,0,0,0,5,3,2,53,0005-00-0004-24.png,0003-00-0007-77.png
00000014,594,1,1442846870051,1442846870457,376,424,0,0,0,1,5,4,15,0001-00-0003-18.png,0005-00-0000-11.png
00000014,595,1,1442846871486,1442846871965,317,419,0,0,0,3,5,2,35,0003-00-0008-79.png,0005-00-0008-42.png
00000014,596,1,1442846873054,1442846873594,334,397,0,0,0,2,4,2,24,0002-00-0003-58.png,0004-00-0000-86.png
00000014,597,1,1442846874601,1442846875172,905,429,0,0,0,3,1,2,31,0003-00-0008-37.png,0001-00-0001-12.png
00000014,598,1,1442846876196,1442846876653,399,394,0,0,0,1,3,2,13,0001-00-0001-71.png,0003-00-0004-26.png
00000014,599,0,1442846877611,1442846878159,888,450,0,0,0,1,2,1,12,0001-00-0006-87.png,0002-00-0006-58.png
00000014,600,1,1442846881200,1442846881751,902,450,0,0,0,4,2,2,42,0004-00-0008-45.png,0002-00-0002-46.png
00000014,601,0,1442846882752,1442846883346,879,428,0,0,0,2,4,2,24,0002-00-0007-69.png,0004-00-0002-12.png
00000014,602,1,1442846886321,1442846886337,494,394,0,0,0,3,4,1,34,0003-00-0006-06.png,0004-00-0008-06.png
00000014,603,0,1442846887344,1442846887897,376,410,0,0,0,5,4,1,54,0005-00-0007-68.png,0004-00-0000-60.png
00000014,604,1,1442846890802,1442846890818,513,409,0,0,0,1,3,2,13,0001-00-0002-53.png,0003-00-0007-54.png
00000014,605,1,1442846891897,1442846892431,877,440,0,0,0,5,3,2,53,0005-00-0003-80.png,0003-00-0005-42.png
00000014,606,0,1442846893468,1442846894431,362,411,0,0,0,4,2,2,42,0004-00-0005-18.png,0002-00-0003-48.png
00000014,607,1,1442846897376,1442846897416,433,402,0,0,0,2,3,1,23,0002-00-0005-39.png,0003-00-0008-74.png
00000014,608,1,1442846898437,1442846898961,388,543,0,0,0,1,2,1,12,0001-00-0001-14.png,0002-00-0005-98.png
00000014,609,1,1442846900026,1442846900559,892,398,0,0,0,5,1,4,51,0005-00-0005-29.png,0001-00-0001-83.png
00000014,610,1,1442846901567,1442846902089,389,528,0,0,0,4,5,1,45,0004-00-0001-82.png,0005-00-0005-10.png
00000014,611,1,1442846903057,1442846903622,879,415,0,0,0,5,2,3,52,0005-00-0002-95.png,0002-00-0007-07.png
00000014,612,1,1442846904648,1442846905187,318,409,0,0,0,2,5,3,25,0002-00-0001-33.png,0005-00-0002-19.png
00000014,613,1,1442846906228,1442846906769,880,401,0,0,0,4,1,3,41,0004-00-0009-43.png,0001-00-0003-17.png
00000014,614,1,1442846907791,1442846908410,900,408,0,0,0,3,2,1,32,0003-00-0009-71.png,0002-00-0004-66.png
00000014,615,0,1442846909436,1442846910057,888,423,0,0,0,1,5,4,15,0001-00-0005-87.png,0005-00-0000-11.png
00000014,616,1,1442846913232,1442846913684,291,427,0,0,0,1,4,3,14,0001-00-0000-20.png,0004-00-0002-10.png
00000014,617,1,1442846914704,1442846915235,917,432,0,0,0,4,3,1,43,0004-00-0009-10.png,0003-00-0002-49.png
00000014,618,1,1442846916214,1442846916807,897,444,0,0,0,3,1,2,31,0003-00-0002-83.png,0001-00-0008-30.png
00000014,619,1,1442846917784,1442846918754,427,410,0,0,0,3,5,2,35,0003-00-0003-22.png,0005-00-0007-74.png
00000014,620,0,1442846919780,1442846920271,406,517,0,0,0,2,1,1,21,0002-00-0004-85.png,0001-00-0006-93.png
00000014,621,1,1442846923378,1442846923846,360,428,0,0,0,1,5,4,15,0001-00-0004-60.png,0005-00-0008-41.png
00000014,622,1,1442846924920,1442846925477,869,509,0,0,0,4,1,3,41,0004-00-0006-00.png,0001-00-0008-50.png
00000014,623,1,1442846926500,1442846927033,461,445,0,0,0,4,5,1,45,0004-00-0006-74.png,0005-00-0000-85.png
00000014,624,1,1442846928101,1442846928598,365,420,0,0,0,2,4,2,24,0002-00-0003-49.png,0004-00-0002-52.png
00000014,625,1,1442846929729,1442846930274,368,447,0,0,0,3,5,2,35,0003-00-0009-56.png,0005-00-0003-22.png
00000014,626,1,1442846931248,1442846931809,419,420,0,0,0,2,5,3,25,0002-00-0002-49.png,0005-00-0008-62.png
00000014,627,1,1442846932815,1442846933769,350,384,0,0,0,3,4,1,34,0003-00-0009-90.png,0004-00-0005-02.png
00000014,628,1,1442846934877,1442846935366,427,423,0,0,0,2,3,1,23,0002-00-0003-32.png,0003-00-0007-30.png
00000014,629,0,1442846936417,1442846937009,378,399,0,0,0,5,4,1,54,0005-00-0006-94.png,0004-00-0001-45.png
00000014,630,1,1442846940032,1442846940044,508,393,0,0,0,1,2,1,12,0001-00-0006-39.png,0002-00-0006-96.png
00000014,631,0,1442846941066,1442846942555,412,423,0,0,0,3,1,2,31,0003-00-0002-31.png,0001-00-0000-44.png
00000014,632,1,1442846946085,1442846947071,938,424,0,0,0,4,2,2,42,0004-00-0004-43.png,0002-00-0008-75.png
00000014,633,1,1442846948222,1442846948716,880,455,0,0,0,2,1,1,21,0002-00-0009-34.png,0001-00-0001-74.png
00000014,634,1,1442846949753,1442846950286,888,424,0,0,0,5,3,2,53,0005-00-0002-13.png,0003-00-0002-27.png
00000014,635,1,1442846951329,1442846951814,310,412,0,0,0,1,4,3,14,0001-00-0004-31.png,0004-00-0002-18.png
00000014,636,0,1442846952913,1442846953416,384,445,0,0,0,3,2,1,32,0003-00-0003-13.png,0002-00-0004-61.png
00000014,637,1,1442846956429,1442846956918,901,424,0,0,0,4,3,1,43,0004-00-0003-45.png,0003-00-0004-44.png
00000014,638,0,1442846958025,1442846958992,465,420,0,0,0,5,2,3,52,0005-00-0002-00.png,0002-00-0005-51.png
00000014,639,1,1442846962076,1442846962538,889,401,0,0,0,5,1,4,51,0005-00-0007-03.png,0001-00-0008-52.png
00000014,640,1,1442846963677,1442846964270,334,406,0,0,0,1,3,2,13,0001-00-0008-20.png,0003-00-0000-76.png
00000014,641,1,1442846965245,1442846965812,875,436,0,0,0,4,3,1,43,0004-00-0002-32.png,0003-00-0002-53.png
00000014,642,1,1442846966887,1442846967386,401,410,0,0,0,1,4,3,14,0001-00-0006-97.png,0004-00-0000-19.png
00000014,643,0,1442846968480,1442846968990,318,421,0,0,0,3,2,1,32,0003-00-0004-58.png,0002-00-0002-48.png
00000014,644,1,1442846971992,1442846972485,888,449,0,0,0,5,1,4,51,0005-00-0004-10.png,0001-00-0005-31.png
00000014,645,0,1442846973567,1442846974119,357,446,0,0,0,5,4,1,54,0005-00-0002-71.png,0004-00-0000-52.png
00000014,646,1,1442846977158,1442846977634,868,538,0,0,0,3,1,2,31,0003-00-0000-21.png,0001-00-0009-35.png
00000014,647,1,1442846978773,1442846979328,887,428,0,0,0,2,1,1,21,0002-00-0005-13.png,0001-00-0008-39.png
00000014,648,1,1442846980362,1442846980945,359,416,0,0,0,3,4,1,34,0003-00-0000-40.png,0004-00-0008-50.png
00000014,649,1,1442846981949,1442846982478,342,428,0,0,0,4,5,1,45,0004-00-0001-07.png,0005-00-0002-15.png
00000014,650,0,1442846983508,1442846984010,401,424,0,0,0,5,2,3,52,0005-00-0009-36.png,0002-00-0008-61.png
00000014,651,1,1442846987115,1442846987578,401,396,0,0,0,2,4,2,24,0002-00-0007-93.png,0004-00-0008-91.png
00000014,652,0,1442846988636,1442846989222,868,483,0,0,0,1,3,2,13,0001-00-0003-62.png,0003-00-0001-48.png
00000014,653,1,1442846992331,1442846992782,364,441,0,0,0,2,5,3,25,0002-00-0009-42.png,0005-00-0008-08.png
00000014,654,0,1442846993862,1442846994336,401,410,0,0,0,4,1,3,41,0004-00-0001-69.png,0001-00-0008-66.png
00000014,655,1,1442846997207,1442846997239,522,374,0,0,0,1,2,1,12,0001-00-0000-50.png,0002-00-0007-05.png
00000014,656,0,1442846998290,1442846998840,330,411,0,0,0,4,2,2,42,0004-00-0009-83.png,0002-00-0003-60.png
00000014,657,0,1442847002991,1442847003488,861,397,0,0,0,1,5,4,15,0001-00-0006-41.png,0005-00-0004-09.png
00000014,658,1,1442847006581,1442847007033,389,423,0,0,0,3,5,2,35,0003-00-0006-08.png,0005-00-0000-56.png
00000014,659,1,1442847008141,1442847008643,394,452,0,0,0,2,3,1,23,0002-00-0005-60.png,0003-00-0003-92.png
00000014,660,1,1442847009725,1442847010317,863,424,0,0,0,5,3,2,53,0005-00-0007-72.png,0003-00-0003-74.png
00000014,661,1,1442847011348,1442847011867,320,421,0,0,0,4,5,1,45,0004-00-0001-47.png,0005-00-0003-24.png
00000014,662,1,1442847012949,1442847013465,344,424,0,0,0,2,4,2,24,0002-00-0005-58.png,0004-00-0002-17.png
00000014,663,1,1442847014549,1442847015032,393,427,0,0,0,1,2,1,12,0001-00-0004-75.png,0002-00-0006-62.png
00000014,664,1,1442847016110,1442847016685,879,454,0,0,0,5,4,1,54,0005-00-0002-20.png,0004-00-0007-72.png
00000014,665,1,1442847017716,1442847018286,877,442,0,0,0,4,1,3,41,0004-00-0005-68.png,0001-00-0001-23.png
00000014,666,1,1442847019289,1442847019800,340,417,0,0,0,1,3,2,13,0001-00-0009-73.png,0003-00-0001-46.png
00000014,667,0,1442847020951,1442847021494,875,449,0,0,0,3,4,1,34,0003-00-0009-14.png,0004-00-0001-15.png
00000014,668,1,1442847024645,1442847025120,401,370,0,0,0,2,5,3,25,0002-00-0005-45.png,0005-00-0008-27.png
00000014,669,1,1442847026137,1442847026754,904,402,0,0,0,4,2,2,42,0004-00-0007-38.png,0002-00-0007-72.png
00000014,670,1,1442847027877,1442847028911,894,525,0,0,0,5,3,2,53,0005-00-0007-98.png,0003-00-0008-69.png
00000014,671,0,1442847029955,1442847030411,416,435,0,0,0,2,1,1,21,0002-00-0009-63.png,0001-00-0007-05.png
00000014,672,0,1442847033432,1442847033440,521,403,0,0,0,3,1,2,31,0003-00-0002-70.png,0001-00-0004-56.png
00000014,673,1,1442847036288,1442847036309,516,382,0,0,0,3,5,2,35,0003-00-0002-58.png,0005-00-0000-40.png
00000014,674,0,1442847037368,1442847038330,358,401,0,0,0,3,2,1,32,0003-00-0005-23.png,0002-00-0006-84.png
00000014,675,1,1442847041263,1442847041766,329,374,0,0,0,1,4,3,14,0001-00-0007-29.png,0004-00-0006-42.png
00000014,676,0,1442847042815,1442847043345,875,423,0,0,0,2,3,1,23,0002-00-0009-92.png,0003-00-0006-29.png
00000014,677,1,1442847046217,1442847046721,379,435,0,0,0,1,5,4,15,0001-00-0004-91.png,0005-00-0000-89.png
00000014,678,1,1442847047723,1442847048347,909,386,0,0,0,5,1,4,51,0005-00-0004-32.png,0001-00-0003-13.png
00000014,679,0,1442847049414,1442847050365,401,436,0,0,0,5,2,3,52,0005-00-0007-02.png,0002-00-0004-86.png
00000014,680,0,1442847053237,1442847053265,466,395,0,0,0,4,3,1,43,0004-00-0007-81.png,0003-00-0008-48.png
00000014,681,0,1442847056428,1442847056921,904,471,0,0,0,1,2,1,12,0001-00-0003-82.png,0002-00-0004-77.png
00000014,682,0,1442847060157,1442847060666,892,497,0,0,0,4,5,1,45,0004-00-0004-01.png,0005-00-0000-35.png
00000014,683,1,1442847064002,1442847064490,903,410,0,0,0,5,1,4,51,0005-00-0009-11.png,0001-00-0006-39.png
00000014,684,1,1442847065532,1442847066104,863,433,0,0,0,5,4,1,54,0005-00-0007-06.png,0004-00-0009-77.png
00000014,685,1,1442847067119,1442847067623,376,384,0,0,0,2,4,2,24,0002-00-0007-23.png,0004-00-0006-88.png
00000014,686,0,1442847068672,1442847069699,197,479,0,0,0,3,2,1,32,0003-00-0004-47.png,0002-00-0008-43.png
00000014,687,1,1442847072824,1442847073687,288,388,0,0,0,3,5,2,35,0003-00-0000-01.png,0005-00-0004-44.png
00000014,688,0,1442847074753,1442847075283,340,416,0,0,0,4,3,1,43,0004-00-0003-71.png,0003-00-0004-81.png
00000014,689,1,1442847078159,1442847078191,509,353,0,0,0,1,5,4,15,0001-00-0001-03.png,0005-00-0008-87.png
00000014,690,1,1442847079126,1442847079700,886,424,0,0,0,5,3,2,53,0005-00-0007-57.png,0003-00-0001-76.png
00000014,691,1,1442847080660,1442847081168,319,412,0,0,0,2,5,3,25,0002-00-0004-24.png,0005-00-0005-68.png
00000014,692,1,1442847082147,1442847082751,868,490,0,0,0,5,2,3,52,0005-00-0004-30.png,0002-00-0002-10.png
00000014,693,1,1442847083755,1442847084314,389,502,0,0,0,2,3,1,23,0002-00-0001-70.png,0003-00-0004-31.png
00000014,694,0,1442847085285,1442847085862,879,427,0,0,0,3,4,1,34,0003-00-0006-93.png,0004-00-0002-37.png
00000014,695,1,1442847088924,1442847089409,900,423,0,0,0,4,2,2,42,0004-00-0000-24.png,0002-00-0002-82.png
00000014,696,1,1442847090457,1442847090991,899,412,0,0,0,2,1,1,21,0002-00-0003-41.png,0001-00-0006-13.png
00000014,697,1,1442847092065,1442847092583,881,429,0,0,0,3,1,2,31,0003-00-0009-51.png,0001-00-0005-16.png
00000014,698,0,1442847093615,1442847094158,899,387,0,0,0,1,3,2,13,0001-00-0003-21.png,0003-00-0000-01.png
00000014,699,1,1442847097184,1442847097208,484,392,0,0,0,1,4,3,14,0001-00-0005-38.png,0004-00-0008-42.png
00000014,700,0,1442847098196,1442847098690,318,435,0,0,0,4,1,3,41,0004-00-0005-67.png,0001-00-0008-61.png
00000014,701,1,1442847101643,1442847101667,508,354,0,0,0,1,2,1,12,0001-00-0006-47.png,0002-00-0003-80.png
00000014,702,0,1442847102650,1442847103184,876,450,0,0,0,3,5,2,35,0003-00-0006-30.png,0005-00-0000-35.png
00000014,703,1,1442847106098,1442847106661,926,385,0,0,0,3,2,1,32,0003-00-0009-46.png,0002-00-0001-77.png
00000014,704,1,1442847107646,1442847108158,874,502,0,0,0,3,1,2,31,0003-00-0006-24.png,0001-00-0002-64.png
00000014,705,1,1442847109147,1442847109675,879,427,0,0,0,5,1,4,51,0005-00-0006-62.png,0001-00-0006-74.png
00000014,706,0,1442847110677,1442847111140,376,384,0,0,0,2,1,1,21,0002-00-0002-38.png,0001-00-0000-09.png
00000014,707,0,1442847114046,1442847114062,495,415,0,0,0,5,2,3,52,0005-00-0007-91.png,0002-00-0003-82.png
00000014,708,1,1442847117398,1442847117929,376,358,0,0,0,2,3,1,23,0002-00-0000-57.png,0003-00-0002-85.png
00000014,709,0,1442847119038,1442847120007,337,397,0,0,0,4,3,1,43,0004-00-0002-43.png,0003-00-0005-84.png
00000014,710,1,1442847123057,1442847123528,919,416,0,0,0,4,2,2,42,0004-00-0006-59.png,0002-00-0004-24.png
00000014,711,1,1442847124501,1442847125221,376,370,0,0,0,2,5,3,25,0002-00-0003-87.png,0005-00-0005-97.png
00000014,712,1,1442847126302,1442847126834,319,410,0,0,0,4,5,1,45,0004-00-0001-66.png,0005-00-0007-12.png
00000014,713,1,1442847127833,1442847128346,318,436,0,0,0,1,3,2,13,0001-00-0004-19.png,0003-00-0002-07.png
00000014,714,1,1442847129333,1442847129854,401,384,0,0,0,2,4,2,24,0002-00-0008-76.png,0004-00-0001-06.png
00000014,715,1,1442847130832,1442847131488,901,423,0,0,0,5,4,1,54,0005-00-0008-21.png,0004-00-0008-84.png
00000014,716,1,1442847132472,1442847132967,338,423,0,0,0,1,5,4,15,0001-00-0009-95.png,0005-00-0007-15.png
00000014,717,0,1442847134049,1442847134547,363,449,0,0,0,4,1,3,41,0004-00-0002-76.png,0001-00-0006-50.png
00000014,718,0,1442847137558,1442847138074,896,446,0,0,0,1,4,3,14,0001-00-0007-03.png,0004-00-0009-93.png
00000014,719,1,1442847140935,1442847141393,358,392,0,0,0,3,4,1,34,0003-00-0008-61.png,0004-00-0004-26.png
00000014,720,1,1442847142379,1442847142895,880,428,0,0,0,5,3,2,53,0005-00-0000-42.png,0003-00-0003-69.png
00000014,721,1,1442847143986,1442847144526,870,472,0,0,0,4,3,1,43,0004-00-0009-36.png,0003-00-0007-91.png
00000014,722,1,1442847145460,1442847146349,401,384,0,0,0,4,5,1,45,0004-00-0006-27.png,0005-00-0009-59.png
00000014,723,1,1442847147469,1442847148476,905,427,0,0,0,3,2,1,32,0003-00-0007-22.png,0002-00-0003-37.png
00000014,724,1,1442847149517,1442847150212,401,358,0,0,0,2,4,2,24,0002-00-0001-95.png,0004-00-0007-06.png
00000014,725,1,1442847151304,1442847152141,384,393,0,0,0,2,5,3,25,0002-00-0006-78.png,0005-00-0001-18.png
00000014,726,0,1442847153231,1442847153828,868,428,0,0,0,1,4,3,14,0001-00-0006-24.png,0004-00-0001-22.png
00000014,727,0,1442847156768,1442847156784,511,459,0,0,0,3,1,2,31,0003-00-0008-11.png,0001-00-0003-31.png
00000014,728,1,1442847159938,1442847160760,427,410,0,0,0,1,2,1,12,0001-00-0002-81.png,0002-00-0003-53.png
00000014,729,1,1442847161799,1442847162394,879,413,0,0,0,4,2,2,42,0004-00-0008-22.png,0002-00-0009-66.png
00000014,730,1,1442847163508,1442847164083,350,422,0,0,0,3,4,1,34,0003-00-0006-67.png,0004-00-0005-79.png
00000014,731,1,1442847165109,1442847165675,341,440,0,0,0,3,5,2,35,0003-00-0000-70.png,0005-00-0002-71.png
00000014,732,0,1442847166648,1442847167203,404,409,0,0,0,5,2,3,52,0005-00-0009-28.png,0002-00-0005-98.png
00000014,733,1,1442847170342,1442847170828,877,390,0,0,0,5,1,4,51,0005-00-0004-90.png,0001-00-0005-01.png
00000014,734,1,1442847171876,1442847172326,311,449,0,0,0,1,5,4,15,0001-00-0001-61.png,0005-00-0003-93.png
00000014,735,1,1442847173440,1442847173930,352,421,0,0,0,2,3,1,23,0002-00-0004-07.png,0003-00-0004-32.png
00000014,736,1,1442847174946,1442847175494,880,418,0,0,0,5,4,1,54,0005-00-0009-53.png,0004-00-0004-73.png
00000014,737,1,1442847176546,1442847177008,401,410,0,0,0,1,3,2,13,0001-00-0009-33.png,0003-00-0001-98.png
00000014,738,0,1442847178057,1442847179024,420,392,0,0,0,4,1,3,41,0004-00-0007-42.png,0001-00-0002-48.png
00000014,739,0,1442847181910,1442847181993,521,528,0,0,0,2,1,1,21,0002-00-0004-90.png,0001-00-0006-02.png
00000014,740,0,1442847184839,1442847184863,490,347,0,0,0,5,3,2,53,0005-00-0006-93.png,0003-00-0000-06.png
00000014,741,0,1442847187744,1442847188259,926,554,0,0,0,3,4,1,34,0003-00-0005-49.png,0004-00-0002-86.png
00000014,742,1,1442847191363,1442847191842,872,509,0,0,0,4,2,2,42,0004-00-0002-60.png,0002-00-0002-47.png
00000014,743,0,1442847192814,1442847193380,862,450,0,0,0,1,2,1,12,0001-00-0001-22.png,0002-00-0000-20.png
00000014,744,0,1442847196232,1442847196697,900,441,0,0,0,1,3,2,13,0001-00-0004-09.png,0003-00-0004-19.png
00000014,745,0,1442847199750,1442847200332,214,484,0,0,0,4,1,3,41,0004-00-0009-83.png,0001-00-0005-37.png
00000014,746,0,1442847203658,1442847204089,401,410,0,0,0,5,4,1,54,0005-00-0003-06.png,0004-00-0009-93.png
00000014,747,1,1442847207054,1442847207655,944,482,0,0,0,5,1,4,51,0005-00-0008-35.png,0001-00-0003-72.png
00000014,748,1,1442847208655,1442847209210,364,415,0,0,0,1,5,4,15,0001-00-0003-05.png,0005-00-0005-47.png
00000014,749,1,1442847210344,1442847211019,388,410,0,0,0,2,3,1,23,0002-00-0005-83.png,0003-00-0005-29.png
00000014,750,1,1442847212134,1442847212605,355,426,0,0,0,2,4,2,24,0002-00-0003-48.png,0004-00-0005-85.png
00000014,751,1,1442847213642,1442847214140,355,436,0,0,0,4,5,1,45,0004-00-0000-39.png,0005-00-0007-99.png
00000014,752,0,1442847215117,1442847215669,354,408,0,0,0,3,2,1,32,0003-00-0002-86.png,0002-00-0002-83.png
00000014,753,1,1442847218592,1442847219069,343,414,0,0,0,3,5,2,35,0003-00-0009-55.png,0005-00-0004-91.png
00000014,754,0,1442847220055,1442847220549,373,459,0,0,0,2,1,1,21,0002-00-0000-17.png,0001-00-0009-32.png
00000014,755,0,1442847223412,1442847223460,487,436,0,0,0,3,1,2,31,0003-00-0007-94.png,0001-00-0005-68.png
00000014,756,1,1442847226462,1442847226942,862,397,0,0,0,5,2,3,52,0005-00-0006-62.png,0002-00-0007-86.png
00000014,757,1,1442847227947,1442847228478,869,489,0,0,0,5,3,2,53,0005-00-0009-82.png,0003-00-0003-01.png
00000014,758,0,1442847229456,1442847230058,376,384,0,0,0,4,3,1,43,0004-00-0006-72.png,0003-00-0006-60.png
00000014,759,1,1442847235473,1442847235931,401,424,0,0,0,1,4,3,14,0001-00-0000-67.png,0004-00-0004-08.png
00000014,760,1,1442847237041,1442847237558,323,431,0,0,0,2,5,3,25,0002-00-0008-37.png,0005-00-0003-85.png
00000014,761,0,1442847238559,1442847239137,892,432,0,0,0,1,2,1,12,0001-00-0007-18.png,0002-00-0006-28.png
00000014,762,1,1442847242216,1442847242678,887,436,0,0,0,3,1,2,31,0003-00-0002-22.png,0001-00-0009-33.png
00000014,763,1,1442847243637,1442847244204,879,453,0,0,0,4,3,1,43,0004-00-0002-28.png,0003-00-0006-52.png
00000014,764,0,1442847245157,1442847245749,867,451,0,0,0,2,5,3,25,0002-00-0006-44.png,0005-00-0002-30.png
00000014,765,0,1442847248600,1442847248633,511,339,0,0,0,5,1,4,51,0005-00-0000-89.png,0001-00-0001-16.png
00000014,766,1,1442847251959,1442847252376,390,414,0,0,0,1,3,2,13,0001-00-0003-05.png,0003-00-0008-36.png
00000014,767,0,1442847253395,1442847253960,318,425,0,0,0,4,2,2,42,0004-00-0004-85.png,0002-00-0009-65.png
00000014,768,0,1442847256971,1442847256999,510,473,0,0,0,3,2,1,32,0003-00-0003-34.png,0002-00-0000-34.png
00000014,769,1,1442847259903,1442847260378,379,484,0,0,0,1,5,4,15,0001-00-0002-67.png,0005-00-0003-68.png
00000014,770,1,1442847261357,1442847261880,871,419,0,0,0,4,1,3,41,0004-00-0005-82.png,0001-00-0006-45.png
00000014,771,1,1442847262888,1442847263379,414,528,0,0,0,1,4,3,14,0001-00-0004-04.png,0004-00-0008-15.png
00000014,772,1,1442847264313,1442847264882,871,446,0,0,0,5,4,1,54,0005-00-0002-92.png,0004-00-0005-19.png
00000014,773,1,1442847265905,1442847266367,338,423,0,0,0,3,5,2,35,0003-00-0005-78.png,0005-00-0001-24.png
00000014,774,1,1442847267438,1442847267960,873,430,0,0,0,2,1,1,21,0002-00-0004-66.png,0001-00-0003-79.png
00000014,775,1,1442847268959,1442847269555,867,422,0,0,0,5,3,2,53,0005-00-0005-90.png,0003-00-0004-74.png
00000014,776,1,1442847270589,1442847271507,356,421,0,0,0,3,4,1,34,0003-00-0002-75.png,0004-00-0007-65.png
00000014,777,1,1442847272496,1442847273089,414,525,0,0,0,2,4,2,24,0002-00-0000-67.png,0004-00-0001-12.png
00000014,778,1,1442847274017,1442847274959,401,384,0,0,0,4,5,1,45,0004-00-0005-72.png,0005-00-0002-67.png
00000014,779,1,1442847276044,1442847277008,438,527,0,0,0,2,3,1,23,0002-00-0001-96.png,0003-00-0002-12.png
00000014,780,0,1442847278021,1442847279018,446,436,0,0,0,5,2,3,52,0005-00-0008-37.png,0002-00-0002-26.png
00000014,781,1,1442847282772,1442847283222,865,541,0,0,0,5,3,2,53,0005-00-0004-09.png,0003-00-0002-58.png
00000014,782,0,1442847284152,1442847284701,880,426,0,0,0,1,4,3,14,0001-00-0000-97.png,0004-00-0005-97.png
00000014,783,1,1442847287798,1442847288287,376,527,0,0,0,3,5,2,35,0003-00-0006-37.png,0005-00-0006-48.png
00000014,784,0,1442847289321,1442847289928,908,413,0,0,0,2,4,2,24,0002-00-0008-45.png,0004-00-0004-20.png
00000014,785,1,1442847293343,1442847293804,314,415,0,0,0,1,3,2,13,0001-00-0008-95.png,0003-00-0009-30.png
00000014,786,1,1442847294786,1442847295330,875,412,0,0,0,4,2,2,42,0004-00-0005-75.png,0002-00-0006-88.png
00000014,787,0,1442847296354,1442847296972,901,450,0,0,0,1,2,1,12,0001-00-0001-20.png,0002-00-0004-12.png
00000014,788,1,1442847300340,1442847300831,350,384,0,0,0,2,5,3,25,0002-00-0000-82.png,0005-00-0009-91.png
00000014,789,0,1442847301832,1442847302783,504,399,0,0,0,5,4,1,54,0005-00-0000-38.png,0004-00-0008-69.png
00000014,790,1,1442847305876,1442847306362,922,446,0,0,0,5,2,3,52,0005-00-0002-32.png,0002-00-0005-36.png
00000014,791,1,1442847307366,1442847307894,885,473,0,0,0,5,1,4,51,0005-00-0001-39.png,0001-00-0000-45.png
00000014,792,1,1442847308908,1442847309831,930,375,0,0,0,4,1,3,41,0004-00-0006-76.png,0001-00-0003-35.png
00000014,793,0,1442847310906,1442847311425,861,424,0,0,0,3,4,1,34,0003-00-0004-99.png,0004-00-0002-24.png
00000014,794,0,1442847314310,1442847314350,468,438,0,0,0,3,2,1,32,0003-00-0002-35.png,0002-00-0008-66.png
00000014,795,1,1442847317463,1442847317961,879,427,0,0,0,3,1,2,31,0003-00-0006-68.png,0001-00-0000-73.png
00000014,796,0,1442847318924,1442847319882,374,429,0,0,0,4,3,1,43,0004-00-0000-84.png,0003-00-0004-52.png
00000014,797,1,1442847323446,1442847323887,357,377,0,0,0,1,5,4,15,0001-00-0001-11.png,0005-00-0001-08.png
00000014,798,0,1442847324847,1442847325365,401,384,0,0,0,2,1,1,21,0002-00-0000-12.png,0001-00-0001-38.png
00000014,799,1,1442847328423,1442847328887,436,403,0,0,0,4,5,1,45,0004-00-0008-62.png,0005-00-0004-03.png
00000014,800,1,1442847329827,1442847330316,401,384,0,0,0,2,3,1,23,0002-00-0003-48.png,0003-00-0000-36.png
00000014,801,1,1442847331311,1442847331849,880,428,0,0,0,5,1,4,51,0005-00-0006-70.png,0001-00-0002-72.png
00000014,802,1,1442847332863,1442847333315,382,412,0,0,0,2,5,3,25,0002-00-0009-97.png,0005-00-0000-25.png
00000014,803,0,1442847334298,1442847334841,453,448,0,0,0,4,3,1,43,0004-00-0007-17.png,0003-00-0008-94.png
00000014,804,1,1442847338830,1442847339317,909,426,0,0,0,5,2,3,52,0005-00-0000-27.png,0002-00-0008-12.png
00000014,805,1,1442847340301,1442847340865,905,453,0,0,0,5,4,1,54,0005-00-0006-47.png,0004-00-0000-87.png
00000014,806,0,1442847341830,1442847342487,903,415,0,0,0,2,3,1,23,0002-00-0009-83.png,0003-00-0005-27.png
00000014,807,1,1442847345525,1442847345990,409,394,0,0,0,2,4,2,24,0002-00-0007-42.png,0004-00-0005-74.png
00000014,808,1,1442847346988,1442847347460,387,384,0,0,0,1,5,4,15,0001-00-0001-43.png,0005-00-0002-35.png
00000014,809,1,1442847348470,1442847348963,313,423,0,0,0,1,3,2,13,0001-00-0008-89.png,0003-00-0002-78.png
00000014,810,1,1442847349918,1442847350447,879,427,0,0,0,4,1,3,41,0004-00-0004-58.png,0001-00-0003-17.png
00000014,811,1,1442847351461,1442847352230,381,434,0,0,0,3,5,2,35,0003-00-0002-63.png,0005-00-0009-94.png
00000014,812,1,1442847353270,1442847353943,900,413,0,0,0,2,1,1,21,0002-00-0002-49.png,0001-00-0005-17.png
00000014,813,1,1442847354909,1442847355494,364,420,0,0,0,3,4,1,34,0003-00-0003-32.png,0004-00-0005-25.png
00000014,814,0,1442847356479,1442847357086,877,441,0,0,0,1,2,1,12,0001-00-0003-74.png,0002-00-0003-86.png
00000014,815,0,1442847361000,1442847361459,401,384,0,0,0,3,1,2,31,0003-00-0007-59.png,0001-00-0009-31.png
00000014,816,1,1442847364440,1442847364941,927,409,0,0,0,3,2,1,32,0003-00-0006-82.png,0002-00-0002-88.png
00000014,817,0,1442847365969,1442847366886,410,394,0,0,0,4,2,2,42,0004-00-0009-99.png,0002-00-0004-89.png
00000014,818,0,1442847371971,1442847372406,881,431,0,0,0,1,4,3,14,0001-00-0001-28.png,0004-00-0005-61.png
00000014,819,1,1442847375256,1442847375727,880,523,0,0,0,5,3,2,53,0005-00-0001-76.png,0003-00-0009-06.png
00000014,820,1,1442847376744,1442847377545,365,393,0,0,0,4,5,1,45,0004-00-0006-44.png,0005-00-0007-87.png
00000014,821,1,1442847378581,1442847379103,337,424,0,0,0,2,4,2,24,0002-00-0000-38.png,0004-00-0007-75.png
00000014,822,1,1442847380040,1442847380952,406,482,0,0,0,1,4,3,14,0001-00-0006-43.png,0004-00-0003-99.png
00000014,823,0,1442847381931,1442847382464,350,403,0,0,0,4,1,3,41,0004-00-0007-88.png,0001-00-0000-33.png
00000014,824,1,1442847385448,1442847385524,518,484,0,0,0,1,2,1,12,0001-00-0005-25.png,0002-00-0001-59.png
00000014,825,1,1442847386471,1442847387460,912,398,0,0,0,2,1,1,21,0002-00-0007-66.png,0001-00-0006-90.png
00000014,826,1,1442847388456,1442847388931,364,528,0,0,0,2,5,3,25,0002-00-0001-34.png,0005-00-0002-49.png
00000014,827,1,1442847389869,1442847390465,880,416,0,0,0,3,2,1,32,0003-00-0006-50.png,0002-00-0002-33.png
00000014,828,1,1442847391439,1442847391994,865,504,0,0,0,5,2,3,52,0005-00-0006-58.png,0002-00-0006-91.png
00000014,829,1,1442847392919,1442847393790,357,420,0,0,0,3,4,1,34,0003-00-0005-76.png,0004-00-0004-38.png
00000014,830,1,1442847394778,1442847395765,350,410,0,0,0,4,5,1,45,0004-00-0009-92.png,0005-00-0002-68.png
00000014,831,1,1442847396777,1442847397330,859,412,0,0,0,3,1,2,31,0003-00-0000-03.png,0001-00-0003-69.png
00000014,832,1,1442847398325,1442847398925,859,413,0,0,0,4,2,2,42,0004-00-0000-43.png,0002-00-0005-17.png
00000014,833,1,1442847399991,1442847400489,376,384,0,0,0,1,5,4,15,0001-00-0009-83.png,0005-00-0009-10.png
00000014,834,1,1442847401485,1442847402008,362,411,0,0,0,3,5,2,35,0003-00-0002-01.png,0005-00-0005-59.png
00000014,835,1,1442847403028,1442847403560,862,423,0,0,0,5,1,4,51,0005-00-0003-09.png,0001-00-0008-98.png
00000014,836,1,1442847404546,1442847405091,345,437,0,0,0,2,3,1,23,0002-00-0008-02.png,0003-00-0002-52.png
00000014,837,1,1442847406043,1442847407055,871,393,0,0,0,4,3,1,43,0004-00-0001-38.png,0003-00-0003-81.png
00000014,838,1,1442847408034,1442847408557,427,436,0,0,0,1,3,2,13,0001-00-0003-89.png,0003-00-0008-46.png
00000014,839,0,1442847409442,1442847409975,376,462,0,0,0,5,4,1,54,0005-00-0002-22.png,0004-00-0003-00.png
00000014,840,1,1442847412980,1442847413463,905,498,0,0,0,5,3,2,53,0005-00-0005-50.png,0003-00-0001-22.png
00000014,841,1,1442847414544,1442847415042,359,423,0,0,0,2,5,3,25,0002-00-0004-81.png,0005-00-0001-59.png
00000014,842,1,1442847416084,1442847416559,338,450,0,0,0,4,5,1,45,0004-00-0003-48.png,0005-00-0000-96.png
00000014,843,1,1442847417583,1442847418134,403,535,0,0,0,2,4,2,24,0002-00-0007-24.png,0004-00-0003-05.png
00000014,844,1,1442847419045,1442847419651,887,450,0,0,0,4,1,3,41,0004-00-0002-66.png,0001-00-0002-86.png
00000014,845,1,1442847420676,1442847421205,401,410,0,0,0,3,4,1,34,0003-00-0008-11.png,0004-00-0006-74.png
00000014,846,1,1442847422175,1442847422689,862,424,0,0,0,3,1,2,31,0003-00-0005-22.png,0001-00-0001-82.png
00000014,847,1,1442847423636,1442847424296,875,411,0,0,0,2,1,1,21,0002-00-0003-30.png,0001-00-0004-85.png
00000014,848,1,1442847425219,1442847426376,874,430,0,0,0,4,2,2,42,0004-00-0006-66.png,0002-00-0004-19.png
00000014,849,0,1442847427322,1442847428282,412,535,0,0,0,5,1,4,51,0005-00-0002-62.png,0001-00-0007-45.png
00000014,850,0,1442847431316,1442847431811,896,446,0,0,0,1,4,3,14,0001-00-0000-03.png,0004-00-0007-79.png
00000014,851,0,1442847434877,1442847434885,491,400,0,0,0,5,2,3,52,0005-00-0007-52.png,0002-00-0009-72.png
00000014,852,0,1442847437795,1442847437823,506,397,0,0,0,5,3,2,53,0005-00-0003-59.png,0003-00-0006-38.png
00000014,853,1,1442847441879,1442847442366,951,541,0,0,0,5,4,1,54,0005-00-0004-56.png,0004-00-0001-39.png
00000014,854,1,1442847443613,1442847444403,466,410,0,0,0,3,5,2,35,0003-00-0008-94.png,0005-00-0007-70.png
00000014,855,0,1442847445363,1442847445882,440,475,0,0,0,3,2,1,32,0003-00-0006-15.png,0002-00-0008-04.png
00000014,856,0,1442847450840,1442847451240,367,428,0,0,0,4,3,1,43,0004-00-0004-58.png,0003-00-0004-73.png
00000014,857,1,1442847455994,1442847456462,220,505,0,0,0,1,5,4,15,0001-00-0007-23.png,0005-00-0004-90.png
00000014,858,0,1442847457746,1442847458276,877,448,0,0,0,1,2,1,12,0001-00-0009-25.png,0002-00-0008-84.png
00000014,859,0,1442847461180,1442847461632,904,506,0,0,0,1,3,2,13,0001-00-0004-33.png,0003-00-0000-06.png
00000014,860,0,1442847464460,1442847465101,951,410,0,0,0,2,3,1,23,0002-00-0000-66.png,0003-00-0004-01.png
00000014,861,0,1442847468229,1442847468682,926,415,0,0,0,3,4,1,34,0003-00-0003-65.png,0004-00-0008-97.png
00000014,862,0,1442847471785,1442847472168,401,410,0,0,0,4,2,2,42,0004-00-0007-58.png,0002-00-0009-59.png
00000014,863,0,1442847475506,1442847476010,868,491,0,0,0,2,4,2,24,0002-00-0005-85.png,0004-00-0003-25.png
00000014,864,1,1442847479031,1442847479507,907,414,0,0,0,4,3,1,43,0004-00-0008-57.png,0003-00-0006-68.png
00000014,865,1,1442847480523,1442847481089,901,384,0,0,0,5,1,4,51,0005-00-0002-90.png,0001-00-0009-32.png
00000014,866,0,1442847482114,1442847482625,314,416,0,0,0,5,3,2,53,0005-00-0006-19.png,0003-00-0008-14.png
00000014,867,0,1442847485549,1442847485569,498,388,0,0,0,5,4,1,54,0005-00-0003-43.png,0004-00-0001-01.png
00000014,868,1,1442847488450,1442847488478,486,361,0,0,0,2,5,3,25,0002-00-0000-10.png,0005-00-0001-94.png
00000014,869,1,1442847489457,1442847489953,888,424,0,0,0,3,1,2,31,0003-00-0002-32.png,0001-00-0005-68.png
00000014,870,1,1442847490879,1442847491392,478,410,0,0,0,2,3,1,23,0002-00-0008-89.png,0003-00-0003-31.png
00000014,871,1,1442847492396,1442847492895,879,439,0,0,0,5,2,3,52,0005-00-0002-13.png,0002-00-0007-30.png
00000014,872,1,1442847493837,1442847494363,873,456,0,0,0,3,2,1,32,0003-00-0005-85.png,0002-00-0008-64.png
00000014,873,0,1442847495283,1442847496111,453,413,0,0,0,4,1,3,41,0004-00-0008-29.png,0001-00-0001-46.png
00000014,874,0,1442847499287,1442847499729,857,490,0,0,0,1,4,3,14,0001-00-0006-24.png,0004-00-0008-13.png
00000014,875,1,1442847503415,1442847504390,899,396,0,0,0,2,1,1,21,0002-00-0009-76.png,0001-00-0001-93.png
00000014,876,1,1442847506063,1442847506083,520,411,0,0,0,3,5,2,35,0003-00-0007-85.png,0005-00-0001-15.png
00000014,877,1,1442847507078,1442847507955,427,384,0,0,0,4,5,1,45,0004-00-0001-88.png,0005-00-0002-81.png
00000014,878,1,1442847508925,1442847509427,331,430,0,0,0,1,5,4,15,0001-00-0006-33.png,0005-00-0008-80.png
00000014,879,1,1442847510297,1442847510872,399,411,0,0,0,1,2,1,12,0001-00-0006-31.png,0002-00-0003-63.png
00000014,880,1,1442847512203,1442847513104,334,443,0,0,0,1,3,2,13,0001-00-0008-41.png,0003-00-0001-17.png
00000014,881,0,1442847514033,1442847514555,348,422,0,0,0,2,1,1,21,0002-00-0004-73.png,0001-00-0008-24.png
00000014,882,1,1442847518030,1442847518460,350,384,0,0,0,1,4,3,14,0001-00-0004-82.png,0004-00-0007-59.png
00000014,883,0,1442847519427,1442847519933,337,449,0,0,0,5,2,3,52,0005-00-0001-98.png,0002-00-0009-14.png
00000014,884,1,1442847522866,1442847522906,492,396,0,0,0,1,2,1,12,0001-00-0009-18.png,0002-00-0003-20.png
00000014,885,1,1442847523844,1442847524351,427,410,0,0,0,4,5,1,45,0004-00-0003-31.png,0005-00-0002-12.png
00000014,886,1,1442847525280,1442847525912,898,497,0,0,0,4,1,3,41,0004-00-0001-67.png,0001-00-0003-15.png
00000014,887,1,1442847526802,1442847527301,427,423,0,0,0,1,3,2,13,0001-00-0003-96.png,0003-00-0000-07.png
00000014,888,1,1442847528204,1442847528769,440,423,0,0,0,3,5,2,35,0003-00-0008-70.png,0005-00-0002-10.png
00000014,889,0,1442847529724,1442847530301,876,414,0,0,0,2,3,1,23,0002-00-0007-55.png,0003-00-0006-58.png
00000014,890,0,1442847533253,1442847533264,435,395,0,0,0,5,4,1,54,0005-00-0006-83.png,0004-00-0003-02.png
00000014,891,1,1442847536413,1442847536844,316,376,0,0,0,1,5,4,15,0001-00-0002-09.png,0005-00-0008-26.png
00000014,892,1,1442847537789,1442847538312,904,428,0,0,0,3,1,2,31,0003-00-0006-63.png,0001-00-0005-97.png
00000014,893,0,1442847539222,1442847540040,427,384,0,0,0,5,1,4,51,0005-00-0005-02.png,0001-00-0004-21.png
00000014,894,1,1442847543162,1442847543650,884,426,0,0,0,4,2,2,42,0004-00-0004-35.png,0002-00-0003-46.png
00000014,895,0,1442847544570,1442847545108,888,427,0,0,0,3,4,1,34,0003-00-0006-61.png,0004-00-0006-98.png
00000014,896,1,1442847548321,1442847548743,344,420,0,0,0,2,4,2,24,0002-00-0006-13.png,0004-00-0009-36.png
00000014,897,1,1442847549672,1442847550426,338,406,0,0,0,2,5,3,25,0002-00-0000-34.png,0005-00-0000-14.png
00000014,898,1,1442847551480,1442847552007,875,423,0,0,0,3,2,1,32,0003-00-0003-58.png,0002-00-0006-77.png
00000014,899,1,1442847552971,1442847553525,862,504,0,0,0,5,3,2,53,0005-00-0003-34.png,0003-00-0001-15.png
00000014,900,0,1442847554462,1442847554981,401,423,0,0,0,4,3,1,43,0004-00-0006-66.png,0003-00-0009-53.png
00000014,901,0,1442847558228,1442847558716,900,422,0,0,0,2,4,2,24,0002-00-0009-02.png,0004-00-0005-22.png
00000014,902,1,1442847561642,1442847561693,459,430,0,0,0,1,5,4,15,0001-00-0005-63.png,0005-00-0005-74.png
00000014,903,1,1442847562747,1442847563669,448,418,0,0,0,3,4,1,34,0003-00-0008-48.png,0004-00-0008-78.png
00000014,904,1,1442847564554,1442847565425,418,428,0,0,0,4,5,1,45,0004-00-0004-31.png,0005-00-0003-62.png
00000014,905,1,1442847566426,1442847567424,875,520,0,0,0,3,1,2,31,0003-00-0006-13.png,0001-00-0001-90.png
00000014,906,1,1442847568373,1442847568880,410,419,0,0,0,1,4,3,14,0001-00-0004-97.png,0004-00-0001-34.png
00000014,907,1,1442847569762,1442847570319,358,445,0,0,0,2,5,3,25,0002-00-0003-09.png,0005-00-0008-63.png
00000014,908,0,1442847571242,1442847572336,410,394,0,0,0,3,2,1,32,0003-00-0001-60.png,0002-00-0007-91.png
00000014,909,1,1442847575407,1442847575858,888,489,0,0,0,5,3,2,53,0005-00-0000-22.png,0003-00-0006-62.png
00000014,910,1,1442847576769,1442847577314,401,384,0,0,0,2,3,1,23,0002-00-0005-31.png,0003-00-0009-87.png
00000014,911,1,1442847578180,1442847578783,427,384,0,0,0,3,5,2,35,0003-00-0001-88.png,0005-00-0008-55.png
00000014,912,1,1442847579674,1442847580232,376,397,0,0,0,1,2,1,12,0001-00-0007-84.png,0002-00-0006-15.png
00000014,913,1,1442847581232,1442847581757,879,427,0,0,0,5,2,3,52,0005-00-0009-82.png,0002-00-0002-57.png
00000014,914,0,1442847582631,1442847582659,475,440,0,0,0,4,1,3,41,0004-00-0004-01.png,0001-00-0001-97.png
00000014,915,0,1442847585632,1442847586056,337,397,0,0,0,2,1,1,21,0002-00-0000-83.png,0001-00-0001-15.png
00000014,916,1,1442847589162,1442847589605,875,488,0,0,0,4,3,1,43,0004-00-0006-71.png,0003-00-0001-17.png
00000014,917,1,1442847590592,1442847591121,875,449,0,0,0,5,4,1,54,0005-00-0007-21.png,0004-00-0000-49.png
00000014,918,0,1442847592154,1442847593038,382,347,0,0,0,5,1,4,51,0005-00-0003-50.png,0001-00-0009-69.png
00000014,919,1,1442847595988,1442847596016,456,412,0,0,0,1,3,2,13,0001-00-0002-65.png,0003-00-0009-36.png
00000014,920,1,1442847596952,1442847597488,879,453,0,0,0,4,2,2,42,0004-00-0006-77.png,0002-00-0006-69.png
00000014,921,0,1442847598380,1442847599024,882,430,0,0,0,2,5,3,25,0002-00-0009-39.png,0005-00-0001-12.png
00000014,922,0,1442847602391,1442847602403,523,450,0,0,0,5,1,4,51,0005-00-0006-43.png,0001-00-0008-65.png
00000014,923,1,1442847606167,1442847606640,905,428,0,0,0,4,2,2,42,0004-00-0002-40.png,0002-00-0000-69.png
00000014,924,1,1442847607573,1442847608121,881,414,0,0,0,4,1,3,41,0004-00-0000-29.png,0001-00-0001-22.png
00000014,925,1,1442847609087,1442847609682,906,440,0,0,0,5,2,3,52,0005-00-0009-94.png,0002-00-0000-82.png
00000014,926,1,1442847610626,1442847611665,889,423,0,0,0,5,4,1,54,0005-00-0002-07.png,0004-00-0001-81.png
00000014,927,0,1442847612575,1442847613120,338,415,0,0,0,2,1,1,21,0002-00-0002-51.png,0001-00-0007-89.png
00000014,928,1,1442847616022,1442847616524,906,402,0,0,0,3,1,2,31,0003-00-0005-24.png,0001-00-0008-87.png
00000014,929,0,1442847617464,1442847618039,869,468,0,0,0,1,4,3,14,0001-00-0003-78.png,0004-00-0008-04.png
00000014,930,0,1442847621170,1442847621684,350,410,0,0,0,4,3,1,43,0004-00-0002-15.png,0003-00-0004-27.png
00000014,931,0,1442847624537,1442847624980,931,470,0,0,0,1,3,2,13,0001-00-0005-44.png,0003-00-0008-87.png
00000014,932,1,1442847628066,1442847628587,317,419,0,0,0,4,5,1,45,0004-00-0002-59.png,0005-00-0002-94.png
00000014,933,1,1442847629566,1442847630029,397,419,0,0,0,3,5,2,35,0003-00-0002-60.png,0005-00-0005-60.png
00000014,934,1,1442847631018,1442847631496,427,410,0,0,0,3,4,1,34,0003-00-0003-35.png,0004-00-0004-26.png
00000014,935,1,1442847632472,1442847632974,401,384,0,0,0,1,5,4,15,0001-00-0006-51.png,0005-00-0005-86.png
00000014,936,1,1442847633954,1442847634524,379,402,0,0,0,2,3,1,23,0002-00-0005-59.png,0003-00-0005-17.png
00000014,937,1,1442847635481,1442847636024,887,413,0,0,0,5,3,2,53,0005-00-0006-16.png,0003-00-0006-74.png
00000014,938,0,1442847637449,1442847637904,878,431,0,0,0,2,4,2,24,0002-00-0007-17.png,0004-00-0009-55.png
00000014,939,1,1442847641076,1442847641583,432,479,0,0,0,1,2,1,12,0001-00-0004-49.png,0002-00-0003-59.png
00000014,940,1,1442847642538,1442847643063,859,516,0,0,0,3,2,1,32,0003-00-0005-90.png,0002-00-0004-21.png
00000014,941,1,1442847644048,1442847644958,401,384,0,0,0,2,4,2,24,0002-00-0006-37.png,0004-00-0005-39.png
00000014,942,1,1442847645956,1442847646500,877,442,0,0,0,3,1,2,31,0003-00-0009-65.png,0001-00-0008-57.png
