subject_id,trial,correct_response,stim_time,response_time,x_coord,y_coord,trial_timeout,timeout_time,interTrial_timeout,left_rank,right_rank,distance,joint_rank,left_image,right_image
00000009,1,0,1442606327837,1442606328610,960,407,0,0,0,3,4,1,34,0003-00-0009-97.png,0004-00-0007-89.png
00000009,2,1,1442606332056,1442606332064,890,285,0,0,0,4,3,1,43,0004-00-0006-44.png,0003-00-0009-25.png
00000009,3,1,1442606333104,1442606333192,870,388,0,0,0,5,3,2,53,0005-00-0003-38.png,0003-00-0007-10.png
00000009,4,1,1442606334560,1442606334596,880,395,0,0,0,4,2,2,42,0004-00-0001-66.png,0002-00-0007-30.png
00000009,5,0,1442606335963,1442606336013,886,382,0,0,0,4,5,1,45,0004-00-0000-04.png,0005-00-0001-19.png
00000009,6,1,1442606339210,1442606339242,879,249,0,0,0,5,1,4,51,0005-00-0004-63.png,0001-00-0002-63.png
00000009,7,1,1442606340148,1442606341884,381,230,0,0,0,2,3,1,23,0002-00-0004-19.png,0003-00-0009-24.png
00000009,8,0,1442606342827,1442606343474,888,541,0,0,0,1,4,3,14,0001-00-0001-50.png,0004-00-0004-06.png
00000009,9,1,1442606346417,1442606347050,425,291,0,0,0,2,4,2,24,0002-00-0009-14.png,0004-00-0008-05.png
00000009,10,1,1442606347928,1442606347992,862,489,0,0,0,2,1,1,21,0002-00-0005-78.png,0001-00-0003-59.png
00000009,11,0,1442606348849,1442606348960,879,487,0,0,0,1,2,1,12,0001-00-0004-32.png,0002-00-0003-56.png
00000009,12,1,1442606352132,1442606352711,438,267,0,0,0,2,5,3,25,0002-00-0005-98.png,0005-00-0006-27.png
00000009,13,1,1442606353605,1442606354532,909,355,0,0,0,5,2,3,52,0005-00-0005-11.png,0002-00-0005-73.png
00000009,14,0,1442606355593,1442606355641,895,489,0,0,0,1,5,4,15,0001-00-0004-80.png,0005-00-0002-08.png
00000009,15,1,1442606358851,1442606358879,913,284,0,0,0,4,1,3,41,0004-00-0008-63.png,0001-00-0009-40.png
00000009,16,1,1442606359793,1442606359857,872,457,0,0,0,3,1,2,31,0003-00-0002-72.png,0001-00-0009-42.png
00000009,17,0,1442606360914,1442606362158,978,358,0,0,0,1,3,2,13,0001-00-0000-53.png,0003-00-0009-56.png
00000009,18,1,1442606365201,1442606365245,858,264,0,0,0,5,4,1,54,0005-00-0009-78.png,0004-00-0007-17.png
00000009,19,1,1442606366152,1442606366180,865,413,0,0,0,3,2,1,32,0003-00-0000-83.png,0002-00-0007-04.png
00000009,20,0,1442606367335,1442606368355,1066,283,0,0,0,3,5,2,35,0003-00-0009-37.png,0005-00-0002-62.png
00000009,21,1,1442606371248,1442606371767,944,328,0,0,0,4,2,2,42,0004-00-0003-93.png,0002-00-0005-42.png
00000009,22,0,1442606373077,1442606373161,862,396,0,0,0,1,5,4,15,0001-00-0002-97.png,0005-00-0005-58.png
00000009,23,0,1442606376093,1442606376648,342,398,0,0,0,5,4,1,54,0005-00-0003-22.png,0004-00-0003-37.png
00000009,24,1,1442606380126,1442606380154,885,275,0,0,0,2,1,1,21,0002-00-0009-81.png,0001-00-0000-99.png
00000009,25,1,1442606381158,1442606382023,359,375,0,0,0,1,2,1,12,0001-00-0004-75.png,0002-00-0009-35.png
00000009,26,1,1442606382970,1442606383864,502,227,0,0,0,4,5,1,45,0004-00-0003-22.png,0005-00-0000-04.png
00000009,27,0,1442606384845,1442606384881,860,416,0,0,0,1,4,3,14,0001-00-0003-89.png,0004-00-0009-34.png
00000009,28,1,1442606388125,1442606388712,467,244,0,0,0,2,3,1,23,0002-00-0002-93.png,0003-00-0007-97.png
00000009,29,0,1442606390113,1442606390149,863,395,0,0,0,1,3,2,13,0001-00-0002-07.png,0003-00-0001-48.png
00000009,30,1,1442606393204,1442606393300,913,298,0,0,0,3,1,2,31,0003-00-0007-78.png,0001-00-0003-09.png
00000009,31,1,1442606394247,1442606394332,896,436,0,0,0,4,1,3,41,0004-00-0006-82.png,0001-00-0009-89.png
00000009,32,1,1442606395463,1442606396426,463,265,0,0,0,2,5,3,25,0002-00-0008-29.png,0005-00-0005-17.png
00000009,33,1,1442606397385,1442606398219,909,322,0,0,0,3,2,1,32,0003-00-0008-83.png,0002-00-0005-41.png
00000009,34,0,1442606399052,1442606399096,889,460,0,0,0,2,4,2,24,0002-00-0000-96.png,0004-00-0002-64.png
00000009,35,0,1442606402564,1442606403164,428,276,0,0,0,5,1,4,51,0005-00-0003-99.png,0001-00-0006-99.png
00000009,36,0,1442606406736,1442606407333,964,421,0,0,0,3,4,1,34,0003-00-0004-01.png,0004-00-0000-94.png
00000009,37,0,1442606410684,1442606411379,913,372,0,0,0,3,5,2,35,0003-00-0006-21.png,0005-00-0000-89.png
00000009,38,0,1442606414483,1442606415027,434,277,0,0,0,4,3,1,43,0004-00-0005-05.png,0003-00-0005-51.png
00000009,39,0,1442606418545,1442606419208,455,314,0,0,0,5,2,3,52,0005-00-0006-15.png,0002-00-0003-10.png
00000009,40,1,1442606422260,1442606422347,1018,279,0,0,0,5,3,2,53,0005-00-0002-43.png,0003-00-0006-72.png
00000009,41,0,1442606423335,1442606423355,874,430,0,0,0,3,4,1,34,0003-00-0005-04.png,0004-00-0002-93.png
00000009,42,1,1442606426455,1442606427040,990,426,0,0,0,5,4,1,54,0005-00-0003-60.png,0004-00-0009-82.png
00000009,43,1,1442606427916,1442606427988,912,373,0,0,0,4,3,1,43,0004-00-0006-06.png,0003-00-0001-17.png
00000009,44,0,1442606429008,1442606429959,478,234,0,0,0,3,2,1,32,0003-00-0004-00.png,0002-00-0006-44.png
00000009,45,1,1442606433051,1442606433644,344,386,0,0,0,2,4,2,24,0002-00-0008-07.png,0004-00-0006-20.png
00000009,46,1,1442606434472,1442606436154,344,381,0,0,0,1,3,2,13,0001-00-0007-91.png,0003-00-0002-90.png
00000009,47,1,1442606437026,1442606439653,445,244,0,0,0,3,5,2,35,0003-00-0006-64.png,0005-00-0004-86.png
00000009,48,0,1442606440574,1442606441457,900,363,0,0,0,2,3,1,23,0002-00-0006-70.png,0003-00-0003-47.png
00000009,49,1,1442606444582,1442606445115,964,358,0,0,0,4,2,2,42,0004-00-0006-45.png,0002-00-0001-86.png
00000009,50,1,1442606445971,1442606447015,430,276,0,0,0,1,4,3,14,0001-00-0005-91.png,0004-00-0004-63.png
00000009,51,1,1442606452057,1442606452080,875,310,0,0,0,3,1,2,31,0003-00-0007-16.png,0001-00-0004-83.png
00000009,52,1,1442606453009,1442606453799,372,401,0,0,0,1,2,1,12,0001-00-0002-28.png,0002-00-0007-41.png
00000009,53,0,1442606454749,1442606454785,861,469,0,0,0,1,5,4,15,0001-00-0002-84.png,0005-00-0001-50.png
00000009,54,1,1442606457663,1442606458233,481,270,0,0,0,4,5,1,45,0004-00-0005-62.png,0005-00-0003-10.png
00000009,55,0,1442606459160,1442606459928,339,403,0,0,0,5,1,4,51,0005-00-0003-62.png,0001-00-0002-57.png
00000009,56,0,1442606463266,1442606463897,463,266,0,0,0,5,2,3,52,0005-00-0003-93.png,0002-00-0005-76.png
00000009,57,0,1442606467050,1442606467591,432,285,0,0,0,5,3,2,53,0005-00-0002-63.png,0003-00-0006-12.png
00000009,58,1,1442606470738,1442606471263,896,378,0,0,0,2,1,1,21,0002-00-0005-02.png,0001-00-0004-35.png
00000009,59,0,1442606472719,1442606473259,453,277,0,0,0,4,1,3,41,0004-00-0005-74.png,0001-00-0006-42.png
00000009,60,1,1442606476411,1442606476977,357,397,0,0,0,2,5,3,25,0002-00-0006-05.png,0005-00-0000-19.png
00000009,61,0,1442606478457,1442606479013,964,354,0,0,0,1,2,1,12,0001-00-0004-79.png,0002-00-0005-90.png
00000009,62,0,1442606481949,1442606482021,942,382,0,0,0,2,5,3,25,0002-00-0005-27.png,0005-00-0003-64.png
00000009,63,1,1442606484942,1442606485486,349,403,0,0,0,2,4,2,24,0002-00-0008-80.png,0004-00-0008-15.png
00000009,64,1,1442606486859,1442606487720,945,344,0,0,0,5,3,2,53,0005-00-0003-91.png,0003-00-0001-76.png
00000009,65,0,1442606489194,1442606490085,477,275,0,0,0,5,4,1,54,0005-00-0002-52.png,0004-00-0000-92.png
00000009,66,0,1442606493238,1442606493775,468,272,0,0,0,4,3,1,43,0004-00-0003-48.png,0003-00-0003-34.png
00000009,67,1,1442606496866,1442606497558,459,258,0,0,0,2,3,1,23,0002-00-0008-65.png,0003-00-0001-86.png
00000009,68,1,1442606498930,1442606499933,936,358,0,0,0,5,1,4,51,0005-00-0007-34.png,0001-00-0008-50.png
00000009,69,1,1442606505999,1442606506272,919,295,0,0,0,2,1,1,21,0002-00-0001-10.png,0001-00-0004-82.png
00000009,70,1,1442606507199,1442606507762,393,536,0,0,0,4,5,1,45,0004-00-0000-21.png,0005-00-0000-66.png
00000009,71,0,1442606508742,1442606509831,477,267,0,0,0,5,2,3,52,0005-00-0000-77.png,0002-00-0003-05.png
00000009,72,0,1442606512986,1442606512994,873,331,0,0,0,1,5,4,15,0001-00-0008-87.png,0005-00-0004-37.png
00000009,73,1,1442606516086,1442606516656,481,264,0,0,0,1,3,2,13,0001-00-0006-83.png,0003-00-0008-83.png
00000009,74,1,1442606518130,1442606518647,1047,281,0,0,0,3,1,2,31,0003-00-0001-93.png,0001-00-0003-02.png
00000009,75,0,1442606519962,1442606520829,401,424,0,0,0,4,1,3,41,0004-00-0005-20.png,0001-00-0009-97.png
00000009,76,0,1442606523973,1442606524001,904,301,0,0,0,3,4,1,34,0003-00-0009-14.png,0004-00-0001-72.png
00000009,77,0,1442606527117,1442606527129,905,352,0,0,0,3,5,2,35,0003-00-0007-59.png,0005-00-0008-52.png
00000009,78,1,1442606530250,1442606530274,871,318,0,0,0,3,2,1,32,0003-00-0007-91.png,0002-00-0008-63.png
00000009,79,1,1442606531135,1442606531973,450,242,0,0,0,1,4,3,14,0001-00-0008-45.png,0004-00-0008-73.png
00000009,80,1,1442606532863,1442606533845,1042,254,0,0,0,4,2,2,42,0004-00-0005-90.png,0002-00-0001-99.png
00000009,81,1,1442606534792,1442606535709,1045,278,0,0,0,3,1,2,31,0003-00-0002-68.png,0001-00-0004-67.png
00000009,82,1,1442606536646,1442606537640,445,229,0,0,0,2,5,3,25,0002-00-0004-39.png,0005-00-0006-05.png
00000009,83,1,1442606538726,1442606539605,466,242,0,0,0,2,3,1,23,0002-00-0009-12.png,0003-00-0003-80.png
00000009,84,0,1442606540478,1442606541549,982,338,0,0,0,3,4,1,34,0003-00-0004-55.png,0004-00-0006-01.png
00000009,85,1,1442606544386,1442606544941,416,300,0,0,0,4,5,1,45,0004-00-0009-93.png,0005-00-0001-12.png
00000009,86,0,1442606546350,1442606546639,893,301,0,0,0,1,4,3,14,0001-00-0004-25.png,0004-00-0003-37.png
00000009,87,0,1442606549801,1442606550039,875,357,0,0,0,1,5,4,15,0001-00-0009-69.png,0005-00-0004-21.png
00000009,88,1,1442606553244,1442606553721,404,310,0,0,0,1,3,2,13,0001-00-0002-28.png,0003-00-0003-31.png
00000009,89,0,1442606555048,1442606555911,449,253,0,0,0,5,2,3,52,0005-00-0006-67.png,0002-00-0001-46.png
00000009,90,1,1442606559028,1442606559631,363,405,0,0,0,2,4,2,24,0002-00-0006-25.png,0004-00-0003-54.png
00000009,91,1,1442606560962,1442606561860,937,332,0,0,0,4,3,1,43,0004-00-0004-41.png,0003-00-0005-77.png
00000009,92,1,1442606562720,1442606563269,861,501,0,0,0,2,1,1,21,0002-00-0007-69.png,0001-00-0007-52.png
00000009,93,1,1442606564330,1442606565273,1047,271,0,0,0,5,3,2,53,0005-00-0009-36.png,0003-00-0002-18.png
00000009,94,1,1442606566242,1442606566294,858,441,0,0,0,3,2,1,32,0003-00-0001-09.png,0002-00-0004-17.png
00000009,95,0,1442606567531,1442606568441,1005,279,0,0,0,3,5,2,35,0003-00-0004-71.png,0005-00-0001-11.png
00000009,96,0,1442606571768,1442606572247,462,265,0,0,0,5,4,1,54,0005-00-0000-89.png,0004-00-0005-43.png
00000009,97,1,1442606575255,1442606575291,962,372,0,0,0,4,2,2,42,0004-00-0007-23.png,0002-00-0007-03.png
00000009,98,1,1442606576227,1442606576931,941,338,0,0,0,4,1,3,41,0004-00-0002-32.png,0001-00-0009-87.png
00000009,99,0,1442606577778,1442606578540,939,541,0,0,0,1,2,1,12,0001-00-0000-38.png,0002-00-0000-80.png
00000009,100,1,1442606581685,1442606581710,921,344,0,0,0,5,1,4,51,0005-00-0000-01.png,0001-00-0004-49.png
00000009,101,1,1442606582587,1442606583503,944,355,0,0,0,5,2,3,52,0005-00-0005-76.png,0002-00-0008-62.png
00000009,102,1,1442606584382,1442606585447,353,340,0,0,0,2,3,1,23,0002-00-0000-64.png,0003-00-0006-59.png
00000009,103,0,1442606586290,1442606587377,1062,281,0,0,0,3,5,2,35,0003-00-0004-01.png,0005-00-0005-23.png
00000009,104,0,1442606590375,1442606590956,473,245,0,0,0,5,4,1,54,0005-00-0003-39.png,0004-00-0005-95.png
00000009,105,1,1442606594126,1442606594659,480,280,0,0,0,1,4,3,14,0001-00-0009-66.png,0004-00-0000-29.png
00000009,106,0,1442606596567,1442606596587,888,253,0,0,0,2,5,3,25,0002-00-0002-95.png,0005-00-0009-52.png
00000009,107,0,1442606599563,1442606599619,934,442,0,0,0,1,5,4,15,0001-00-0006-96.png,0005-00-0006-61.png
00000009,108,0,1442606602537,1442606602579,990,434,0,0,0,4,5,1,45,0004-00-0000-40.png,0005-00-0001-16.png
00000009,109,1,1442606605732,1442606605756,913,332,0,0,0,3,2,1,32,0003-00-0003-20.png,0002-00-0005-60.png
00000009,110,1,1442606606665,1442606607556,926,352,0,0,0,4,2,2,42,0004-00-0005-11.png,0002-00-0008-13.png
00000009,111,0,1442606608454,1442606609377,445,252,0,0,0,2,1,1,21,0002-00-0007-82.png,0001-00-0007-00.png
00000009,112,1,1442606612312,1442606613060,940,348,0,0,0,5,3,2,53,0005-00-0009-22.png,0003-00-0009-43.png
00000009,113,0,1442606614498,1442606615302,1041,227,0,0,0,1,3,2,13,0001-00-0000-96.png,0003-00-0003-37.png
00000009,114,1,1442606618330,1442606618907,869,343,0,0,0,4,1,3,41,0004-00-0005-01.png,0001-00-0002-83.png
00000009,115,0,1442606620150,1442606620990,931,332,0,0,0,1,2,1,12,0001-00-0001-14.png,0002-00-0004-57.png
00000009,116,0,1442606624258,1442606624765,431,271,0,0,0,4,3,1,43,0004-00-0004-34.png,0003-00-0001-65.png
00000009,117,0,1442606637351,1442606637371,913,332,0,0,0,2,4,2,24,0002-00-0008-08.png,0004-00-0008-43.png
00000009,118,0,1442606640200,1442606640212,520,451,0,0,0,3,1,2,31,0003-00-0005-98.png,0001-00-0008-41.png
00000009,119,1,1442606643332,1442606643360,902,330,0,0,0,5,1,4,51,0005-00-0004-80.png,0001-00-0001-47.png
00000009,120,1,1442606644218,1442606645530,338,377,0,0,0,3,4,1,34,0003-00-0009-23.png,0004-00-0008-61.png
00000009,121,1,1442606646979,1442606647701,1067,253,0,0,0,4,1,3,41,0004-00-0009-15.png,0001-00-0005-18.png
00000009,122,1,1442606648538,1442606649459,368,378,0,0,0,1,2,1,12,0001-00-0005-28.png,0002-00-0009-17.png
00000009,123,0,1442606650617,1442606651698,447,250,0,0,0,4,3,1,43,0004-00-0000-44.png,0003-00-0006-13.png
00000009,124,1,1442606654652,1442606655207,928,358,0,0,0,2,1,1,21,0002-00-0003-73.png,0001-00-0006-13.png
00000009,125,1,1442606656390,1442606657392,497,248,0,0,0,3,4,1,34,0003-00-0007-45.png,0004-00-0003-43.png
00000009,126,1,1442606658243,1442606659281,465,248,0,0,0,2,3,1,23,0002-00-0000-92.png,0003-00-0008-23.png
00000009,127,1,1442606660169,1442606661442,438,261,0,0,0,3,5,2,35,0003-00-0007-88.png,0005-00-0005-92.png
00000009,128,1,1442606662266,1442606663239,967,344,0,0,0,5,1,4,51,0005-00-0001-14.png,0001-00-0004-40.png
00000009,129,1,1442606664169,1442606664209,871,410,0,0,0,3,1,2,31,0003-00-0004-44.png,0001-00-0003-29.png
00000009,130,0,1442606665300,1442606666175,478,222,0,0,0,5,3,2,53,0005-00-0002-23.png,0003-00-0001-81.png
00000009,131,1,1442606669409,1442606670034,936,353,0,0,0,3,2,1,32,0003-00-0008-99.png,0002-00-0006-95.png
00000009,132,0,1442606671233,1442606671315,868,404,0,0,0,4,5,1,45,0004-00-0001-21.png,0005-00-0003-25.png
00000009,133,1,1442606674646,1442606675198,332,378,0,0,0,2,5,3,25,0002-00-0009-48.png,0005-00-0009-13.png
00000009,134,1,1442606676546,1442606677639,397,389,0,0,0,1,4,3,14,0001-00-0000-08.png,0004-00-0007-38.png
00000009,135,0,1442606678948,1442606679862,457,260,0,0,0,5,4,1,54,0005-00-0009-63.png,0004-00-0005-50.png
00000009,136,0,1442606684406,1442606684442,891,329,0,0,0,1,3,2,13,0001-00-0008-28.png,0003-00-0002-33.png
00000009,137,1,1442606737213,1442606737712,311,415,0,0,0,2,4,2,24,0002-00-0002-51.png,0004-00-0000-79.png
00000009,138,1,1442606738563,1442606738669,877,488,0,0,0,4,2,2,42,0004-00-0006-13.png,0002-00-0001-48.png
00000009,139,0,1442606740104,1442606740125,864,407,0,0,0,1,5,4,15,0001-00-0007-69.png,0005-00-0008-81.png
00000009,140,0,1442606745203,1442606745845,457,263,0,0,0,5,2,3,52,0005-00-0006-29.png,0002-00-0007-62.png
00000009,141,0,1442606748721,1442606749253,957,365,0,0,0,2,4,2,24,0002-00-0008-61.png,0004-00-0008-15.png
00000009,142,0,1442606752389,1442606752931,456,296,0,0,0,4,1,3,41,0004-00-0007-04.png,0001-00-0000-02.png
00000009,143,1,1442606756060,1442606756734,944,352,0,0,0,5,3,2,53,0005-00-0000-31.png,0003-00-0009-64.png
00000009,144,1,1442606758072,1442606758909,1053,296,0,0,0,3,1,2,31,0003-00-0008-89.png,0001-00-0000-65.png
00000009,145,0,1442606760266,1442606760304,872,382,0,0,0,3,4,1,34,0003-00-0006-70.png,0004-00-0000-94.png
00000009,146,1,1442606763658,1442606763722,885,331,0,0,0,5,1,4,51,0005-00-0003-71.png,0001-00-0000-65.png
00000009,147,1,1442606764711,1442606765522,936,376,0,0,0,4,2,2,42,0004-00-0009-34.png,0002-00-0007-91.png
00000009,148,1,1442606766878,1442606767652,377,363,0,0,0,1,3,2,13,0001-00-0007-86.png,0003-00-0006-46.png
00000009,149,1,1442606768586,1442606769550,1069,249,0,0,0,5,2,3,52,0005-00-0000-22.png,0002-00-0003-17.png
00000009,150,1,1442606770800,1442606771633,907,333,0,0,0,3,2,1,32,0003-00-0007-36.png,0002-00-0004-22.png
00000009,151,1,1442606772938,1442606773722,450,245,0,0,0,4,5,1,45,0004-00-0001-71.png,0005-00-0004-31.png
00000009,152,1,1442606774554,1442606775598,435,226,0,0,0,2,5,3,25,0002-00-0000-10.png,0005-00-0000-37.png
00000009,153,1,1442606776451,1442606776993,518,395,0,0,0,1,5,4,15,0001-00-0006-84.png,0005-00-0008-51.png
00000009,154,0,1442606778122,1442606779199,941,320,0,0,0,3,5,2,35,0003-00-0006-42.png,0005-00-0001-15.png
00000009,155,1,1442606782208,1442606782242,859,355,0,0,0,5,4,1,54,0005-00-0006-07.png,0004-00-0007-71.png
00000009,156,1,1442606783181,1442606784230,467,262,0,0,0,1,4,3,14,0001-00-0005-71.png,0004-00-0004-24.png
00000009,157,1,1442606785102,1442606786521,297,371,0,0,0,1,2,1,12,0001-00-0000-60.png,0002-00-0005-81.png
00000009,158,1,1442606787408,1442606788609,960,292,0,0,0,2,1,1,21,0002-00-0003-80.png,0001-00-0005-44.png
00000009,159,0,1442606789942,1442606790022,862,423,0,0,0,2,3,1,23,0002-00-0000-34.png,0003-00-0005-10.png
00000009,160,0,1442606793112,1442606793584,465,283,0,0,0,4,3,1,43,0004-00-0008-96.png,0003-00-0009-37.png
00000009,161,1,1442606796512,1442606797308,380,396,0,0,0,3,5,2,35,0003-00-0001-17.png,0005-00-0007-42.png
00000009,162,0,1442606798138,1442606799271,393,292,0,0,0,4,3,1,43,0004-00-0001-14.png,0003-00-0001-52.png
00000009,163,1,1442606802274,1442606802310,903,400,0,0,0,5,2,3,52,0005-00-0002-86.png,0002-00-0001-02.png
00000009,164,0,1442606803162,1442606804111,387,362,0,0,0,5,3,2,53,0005-00-0005-16.png,0003-00-0001-82.png
00000009,165,0,1442606807204,1442606807272,967,327,0,0,0,1,4,3,14,0001-00-0009-07.png,0004-00-0009-87.png
00000009,166,0,1442606810232,1442606810549,1091,313,0,0,0,3,4,1,34,0003-00-0000-68.png,0004-00-0001-71.png
00000009,167,1,1442606813607,1442606814263,990,332,0,0,0,3,2,1,32,0003-00-0000-56.png,0002-00-0000-73.png
00000009,168,1,1442606815539,1442606816499,472,261,0,0,0,1,3,2,13,0001-00-0000-39.png,0003-00-0000-84.png
00000009,169,1,1442606817323,1442606819042,415,279,0,0,0,1,2,1,12,0001-00-0007-54.png,0002-00-0004-80.png
00000009,170,0,1442606819880,1442606819888,513,562,0,0,0,3,1,2,31,0003-00-0003-73.png,0001-00-0005-99.png
00000009,171,1,1442606823190,1442606823946,964,332,0,0,0,2,1,1,21,0002-00-0000-48.png,0001-00-0001-28.png
00000009,172,1,1442606824825,1442606825667,353,387,0,0,0,2,4,2,24,0002-00-0009-88.png,0004-00-0000-08.png
00000009,173,1,1442606827007,1442606827939,950,381,0,0,0,5,1,4,51,0005-00-0001-53.png,0001-00-0003-57.png
00000009,174,1,1442606828841,1442606829603,477,242,0,0,0,2,3,1,23,0002-00-0008-14.png,0003-00-0004-15.png
00000009,175,1,1442606831039,1442606831124,862,394,0,0,0,5,4,1,54,0005-00-0005-15.png,0004-00-0002-31.png
00000009,176,1,1442606832162,1442606833006,357,396,0,0,0,1,5,4,15,0001-00-0002-16.png,0005-00-0006-72.png
00000009,177,1,1442606833896,1442606834905,939,384,0,0,0,4,1,3,41,0004-00-0002-56.png,0001-00-0004-55.png
00000009,178,0,1442606836214,1442606836334,877,410,0,0,0,2,5,3,25,0002-00-0001-93.png,0005-00-0000-24.png
00000009,179,1,1442606839312,1442606839872,491,277,0,0,0,4,5,1,45,0004-00-0000-19.png,0005-00-0001-43.png
00000009,180,1,1442606841246,1442606842030,903,351,0,0,0,4,2,2,42,0004-00-0005-07.png,0002-00-0000-73.png
00000009,181,1,1442606843185,1442606843268,878,408,0,0,0,5,2,3,52,0005-00-0004-53.png,0002-00-0001-70.png
00000009,182,1,1442606844369,1442606845248,483,235,0,0,0,2,5,3,25,0002-00-0008-55.png,0005-00-0009-89.png
00000009,183,1,1442606846170,1442606847078,356,379,0,0,0,4,5,1,45,0004-00-0007-16.png,0005-00-0008-58.png
00000009,184,1,1442606848028,1442606848860,435,282,0,0,0,2,4,2,24,0002-00-0003-96.png,0004-00-0000-01.png
00000009,185,1,1442606849721,1442606850860,941,358,0,0,0,3,2,1,32,0003-00-0003-92.png,0002-00-0000-78.png
00000009,186,0,1442606851735,1442606851785,865,372,0,0,0,3,5,2,35,0003-00-0000-94.png,0005-00-0005-50.png
00000009,187,0,1442606854771,1442606855326,329,367,0,0,0,3,1,2,31,0003-00-0007-28.png,0001-00-0005-02.png
00000009,188,1,1442606859021,1442606859600,959,393,0,0,0,4,2,2,42,0004-00-0000-39.png,0002-00-0006-16.png
00000009,189,0,1442606860975,1442606861475,463,293,0,0,0,5,3,2,53,0005-00-0006-15.png,0003-00-0009-01.png
00000009,190,1,1442606864991,1442606865553,500,288,0,0,0,1,2,1,12,0001-00-0002-32.png,0002-00-0007-50.png
00000009,191,0,1442606866396,1442606866484,876,410,0,0,0,1,4,3,14,0001-00-0002-23.png,0004-00-0002-92.png
00000009,192,1,1442606869669,1442606870305,457,299,0,0,0,2,3,1,23,0002-00-0008-34.png,0003-00-0003-04.png
00000009,193,1,1442606871147,1442606871679,879,473,0,0,0,2,1,1,21,0002-00-0002-19.png,0001-00-0007-33.png
00000009,194,1,1442606872704,1442606872825,897,410,0,0,0,4,1,3,41,0004-00-0001-53.png,0001-00-0001-15.png
00000009,195,1,1442606873804,1442606874700,467,226,0,0,0,1,5,4,15,0001-00-0001-00.png,0005-00-0000-00.png
00000009,196,1,1442606875636,1442606876332,878,486,0,0,0,4,3,1,43,0004-00-0008-88.png,0003-00-0006-32.png
00000009,197,1,1442606877343,1442606878226,364,369,0,0,0,1,3,2,13,0001-00-0000-99.png,0003-00-0002-87.png
00000009,198,1,1442606880301,1442606880353,916,300,0,0,0,5,4,1,54,0005-00-0006-87.png,0004-00-0002-11.png
00000009,199,1,1442606881265,1442606882347,435,280,0,0,0,3,4,1,34,0003-00-0002-17.png,0004-00-0008-11.png
00000009,200,0,1442606883241,1442606884187,469,258,0,0,0,5,1,4,51,0005-00-0004-02.png,0001-00-0007-78.png
00000009,201,0,1442606887283,1442606887810,930,360,0,0,0,3,5,2,35,0003-00-0001-37.png,0005-00-0003-29.png
00000009,202,1,1442606890680,1442606891480,1099,278,0,0,0,2,1,1,21,0002-00-0006-40.png,0001-00-0001-65.png
00000009,203,0,1442606892912,1442606893411,457,265,0,0,0,5,2,3,52,0005-00-0000-34.png,0002-00-0006-34.png
00000009,204,1,1442606896800,1442606896808,879,397,0,0,0,4,3,1,43,0004-00-0005-35.png,0003-00-0006-60.png
00000009,205,1,1442606897691,1442606898565,937,376,0,0,0,4,1,3,41,0004-00-0009-08.png,0001-00-0009-17.png
00000009,206,0,1442606899411,1442606899450,888,410,0,0,0,4,5,1,45,0004-00-0009-68.png,0005-00-0002-91.png
00000009,207,1,1442606902920,1442606903497,942,421,0,0,0,3,2,1,32,0003-00-0007-69.png,0002-00-0004-29.png
00000009,208,1,1442606904846,1442606904933,991,560,0,0,0,3,1,2,31,0003-00-0001-28.png,0001-00-0007-72.png
00000009,209,1,1442606905991,1442606906812,490,250,0,0,0,2,5,3,25,0002-00-0007-29.png,0005-00-0005-43.png
00000009,210,0,1442606907928,1442606907952,887,474,0,0,0,2,4,2,24,0002-00-0007-79.png,0004-00-0001-62.png
00000009,211,1,1442606911078,1442606911098,873,358,0,0,0,5,1,4,51,0005-00-0002-64.png,0001-00-0005-70.png
00000009,212,0,1442606912421,1442606913202,1018,270,0,0,0,3,4,1,34,0003-00-0007-22.png,0004-00-0002-85.png
00000009,213,1,1442606916770,1442606917310,368,408,0,0,0,1,4,3,14,0001-00-0003-85.png,0004-00-0008-75.png
00000009,214,1,1442606918634,1442606918669,867,335,0,0,0,4,2,2,42,0004-00-0001-65.png,0002-00-0002-25.png
00000009,215,1,1442606919597,1442606920389,370,396,0,0,0,2,3,1,23,0002-00-0001-98.png,0003-00-0003-51.png
00000009,216,1,1442606921273,1442606921981,447,343,0,0,0,1,5,4,15,0001-00-0000-60.png,0005-00-0006-75.png
00000009,217,0,1442606923075,1442606923866,322,384,0,0,0,5,3,2,53,0005-00-0000-84.png,0003-00-0007-61.png
00000009,218,1,1442606927076,1442606927625,474,263,0,0,0,1,2,1,12,0001-00-0002-52.png,0002-00-0009-02.png
00000009,219,0,1442606928889,1442606929795,1002,306,0,0,0,1,3,2,13,0001-00-0002-24.png,0003-00-0003-09.png
00000009,220,1,1442606932752,1442606932780,935,358,0,0,0,5,4,1,54,0005-00-0004-34.png,0004-00-0009-19.png
00000009,221,0,1442606933679,1442606933972,891,498,0,0,0,1,5,4,15,0001-00-0001-84.png,0005-00-0004-59.png
00000009,222,1,1442606937373,1442606937957,918,351,0,0,0,4,2,2,42,0004-00-0003-47.png,0002-00-0004-67.png
00000009,223,1,1442606939371,1442606939490,913,374,0,0,0,3,1,2,31,0003-00-0006-64.png,0001-00-0008-13.png
00000009,224,0,1442606940456,1442606941317,908,313,0,0,0,4,5,1,45,0004-00-0006-69.png,0005-00-0007-56.png
00000009,225,0,1442606944585,1442606945338,916,325,0,0,0,2,4,2,24,0002-00-0009-33.png,0004-00-0005-12.png
00000009,226,0,1442606949023,1442606949055,917,335,0,0,0,3,4,1,34,0003-00-0001-77.png,0004-00-0005-54.png
00000009,227,1,1442606952150,1442606952720,372,371,0,0,0,1,4,3,14,0001-00-0006-33.png,0004-00-0004-81.png
00000009,228,1,1442606953988,1442606954060,965,539,0,0,0,5,3,2,53,0005-00-0004-04.png,0003-00-0004-88.png
00000009,229,0,1442606955130,1442606955989,939,342,0,0,0,3,5,2,35,0003-00-0003-31.png,0005-00-0002-44.png
00000009,230,1,1442606958984,1442606959655,946,357,0,0,0,4,1,3,41,0004-00-0008-18.png,0001-00-0005-38.png
00000009,231,1,1442606960915,1442606961700,1069,273,0,0,0,5,1,4,51,0005-00-0009-78.png,0001-00-0003-92.png
00000009,232,1,1442606962971,1442606963027,862,384,0,0,0,3,2,1,32,0003-00-0001-50.png,0002-00-0001-58.png
00000009,233,1,1442606963932,1442606965023,1067,263,0,0,0,5,4,1,54,0005-00-0004-00.png,0004-00-0001-24.png
00000009,234,0,1442606966266,1442606969248,436,304,0,0,0,4,3,1,43,0004-00-0000-53.png,0003-00-0006-97.png
00000009,235,1,1442606972308,1442606972963,938,345,0,0,0,2,1,1,21,0002-00-0000-20.png,0001-00-0001-77.png
00000009,236,0,1442606974092,1442606974173,953,559,0,0,0,1,3,2,13,0001-00-0006-82.png,0003-00-0005-02.png
00000009,237,1,1442606977279,1442606977861,391,374,0,0,0,2,5,3,25,0002-00-0006-73.png,0005-00-0003-74.png
00000009,238,0,1442606979154,1442606980005,914,340,0,0,0,1,2,1,12,0001-00-0003-95.png,0002-00-0001-87.png
00000009,239,0,1442606983402,1442606983454,913,306,0,0,0,2,3,1,23,0002-00-0004-91.png,0003-00-0006-34.png
00000009,240,1,1442606986438,1442606987010,907,345,0,0,0,5,2,3,52,0005-00-0006-79.png,0002-00-0009-52.png
00000009,241,0,1442606988200,1442606988275,859,360,0,0,0,3,4,1,34,0003-00-0004-73.png,0004-00-0005-00.png
00000009,242,0,1442606991426,1442606991476,933,323,0,0,0,1,5,4,15,0001-00-0008-60.png,0005-00-0005-51.png
00000009,243,1,1442606994547,1442606995278,462,260,0,0,0,3,5,2,35,0003-00-0006-74.png,0005-00-0000-66.png
00000009,244,0,1442606996555,1442606997440,1083,253,0,0,0,2,3,1,23,0002-00-0008-34.png,0003-00-0005-14.png
00000009,245,1,1442607000531,1442607000567,943,331,0,0,0,4,1,3,41,0004-00-0001-19.png,0001-00-0006-33.png
00000009,246,0,1442607001426,1442607002547,471,249,0,0,0,4,3,1,43,0004-00-0003-89.png,0003-00-0005-36.png
00000009,247,0,1442607005747,1442607005796,910,335,0,0,0,4,5,1,45,0004-00-0003-45.png,0005-00-0007-34.png
00000009,248,1,1442607008889,1442607009133,902,410,0,0,0,5,3,2,53,0005-00-0003-70.png,0003-00-0002-09.png
00000009,249,1,1442607010027,1442607010794,939,344,0,0,0,4,2,2,42,0004-00-0001-89.png,0002-00-0004-25.png
00000009,250,0,1442607012139,1442607012223,902,358,0,0,0,2,5,3,25,0002-00-0006-24.png,0005-00-0007-16.png
00000009,251,1,1442607015038,1442607015594,459,277,0,0,0,1,2,1,12,0001-00-0003-47.png,0002-00-0004-24.png
00000009,252,1,1442607016490,1442607017503,917,349,0,0,0,5,4,1,54,0005-00-0001-68.png,0004-00-0007-13.png
00000009,253,0,1442607018363,1442607018395,868,360,0,0,0,1,4,3,14,0001-00-0004-89.png,0004-00-0002-27.png
00000009,254,1,1442607021588,1442607021632,957,355,0,0,0,5,2,3,52,0005-00-0008-86.png,0002-00-0009-90.png
00000009,255,1,1442607022489,1442607023616,470,234,0,0,0,1,3,2,13,0001-00-0005-43.png,0003-00-0000-21.png
00000009,256,1,1442607024518,1442607025514,922,353,0,0,0,3,1,2,31,0003-00-0003-62.png,0001-00-0002-26.png
00000009,257,1,1442607026396,1442607026443,869,393,0,0,0,3,2,1,32,0003-00-0003-06.png,0002-00-0001-04.png
00000009,258,1,1442607027277,1442607028372,890,357,0,0,0,5,1,4,51,0005-00-0001-04.png,0001-00-0000-42.png
00000009,259,0,1442607029227,1442607029284,920,398,0,0,0,2,4,2,24,0002-00-0006-12.png,0004-00-0008-12.png
00000009,260,1,1442607032386,1442607032417,883,333,0,0,0,2,1,1,21,0002-00-0001-13.png,0001-00-0003-21.png
00000009,261,1,1442607033351,1442607034215,444,243,0,0,0,1,2,1,12,0001-00-0000-09.png,0002-00-0003-31.png
00000009,262,0,1442607035070,1442607035974,447,258,0,0,0,4,3,1,43,0004-00-0003-96.png,0003-00-0003-56.png
00000009,263,1,1442607039107,1442607039702,453,280,0,0,0,1,5,4,15,0001-00-0003-76.png,0005-00-0008-37.png
00000009,264,0,1442607041024,1442607041887,436,302,0,0,0,2,1,1,21,0002-00-0004-93.png,0001-00-0000-14.png
00000009,265,0,1442607044926,1442607045509,475,280,0,0,0,3,2,1,32,0003-00-0001-47.png,0002-00-0005-23.png
00000009,266,1,1442607048646,1442607049241,925,358,0,0,0,3,1,2,31,0003-00-0003-96.png,0001-00-0004-89.png
00000009,267,1,1442607050474,1442607051195,921,333,0,0,0,4,2,2,42,0004-00-0001-62.png,0002-00-0004-93.png
00000009,268,0,1442607052527,1442607053440,1062,266,0,0,0,3,4,1,34,0003-00-0005-40.png,0004-00-0000-62.png
00000009,269,1,1442607056301,1442607057052,954,391,0,0,0,5,2,3,52,0005-00-0007-26.png,0002-00-0004-16.png
00000009,270,0,1442607058228,1442607059088,386,393,0,0,0,5,4,1,54,0005-00-0009-19.png,0004-00-0001-76.png
00000009,271,0,1442607062184,1442607062351,857,431,0,0,0,2,5,3,25,0002-00-0005-63.png,0005-00-0006-37.png
00000009,272,0,1442607065460,1442607065500,909,349,0,0,0,3,5,2,35,0003-00-0008-82.png,0005-00-0001-06.png
00000009,273,1,1442607068643,1442607068647,881,351,0,0,0,5,1,4,51,0005-00-0008-74.png,0001-00-0005-58.png
00000009,274,1,1442607069526,1442607070407,454,243,0,0,0,2,4,2,24,0002-00-0005-92.png,0004-00-0000-02.png
00000009,275,1,1442607071304,1442607071393,868,399,0,0,0,4,1,3,41,0004-00-0008-39.png,0001-00-0009-23.png
00000009,276,1,1442607072489,1442607073876,1101,279,0,0,0,5,3,2,53,0005-00-0004-84.png,0003-00-0006-02.png
00000009,277,0,1442607075292,1442607076133,883,346,0,0,0,1,4,3,14,0001-00-0005-37.png,0004-00-0005-62.png
00000009,278,0,1442607079209,1442607080044,916,355,0,0,0,4,5,1,45,0004-00-0009-71.png,0005-00-0008-44.png
00000009,279,0,1442607083181,1442607083214,889,357,0,0,0,2,3,1,23,0002-00-0000-05.png,0003-00-0009-32.png
00000009,280,0,1442607086282,1442607087171,1092,296,0,0,0,1,3,2,13,0001-00-0004-87.png,0003-00-0003-39.png
00000009,281,1,1442607090008,1442607090675,445,279,0,0,0,2,3,1,23,0002-00-0000-22.png,0003-00-0009-08.png
00000009,282,1,1442607092010,1442607092092,887,330,0,0,0,2,1,1,21,0002-00-0004-41.png,0001-00-0007-27.png
00000009,283,0,1442607093169,1442607094243,1049,308,0,0,0,3,4,1,34,0003-00-0003-84.png,0004-00-0006-79.png
00000009,284,0,1442607097120,1442607098144,410,301,0,0,0,5,3,2,53,0005-00-0006-53.png,0003-00-0006-12.png
00000009,285,0,1442607101319,1442607102049,366,419,0,0,0,5,4,1,54,0005-00-0003-87.png,0004-00-0007-67.png
00000009,286,1,1442607105157,1442607105774,369,410,0,0,0,2,5,3,25,0002-00-0002-69.png,0005-00-0003-85.png
00000009,287,1,1442607107119,1442607108507,398,254,0,0,0,4,5,1,45,0004-00-0004-10.png,0005-00-0001-02.png
00000009,288,1,1442607109392,1442607110190,332,392,0,0,0,1,4,3,14,0001-00-0009-50.png,0004-00-0002-93.png
00000009,289,0,1442607111236,1442607111991,367,387,0,0,0,4,3,1,43,0004-00-0000-78.png,0003-00-0008-50.png
00000009,290,0,1442607115213,1442607115339,862,400,0,0,0,3,5,2,35,0003-00-0006-22.png,0005-00-0006-01.png
00000009,291,1,1442607124434,1442607127045,1047,362,0,0,0,3,2,1,32,0003-00-0003-00.png,0002-00-0005-79.png
00000009,292,1,1442607128112,1442607128168,989,557,0,0,0,3,1,2,31,0003-00-0009-46.png,0001-00-0003-76.png
00000009,293,1,1442607129205,1442607129243,886,358,0,0,0,5,1,4,51,0005-00-0000-29.png,0001-00-0002-23.png
00000009,294,1,1442607130209,1442607130253,886,374,0,0,0,4,1,3,41,0004-00-0007-94.png,0001-00-0002-59.png
00000009,295,1,1442607131300,1442607131340,882,375,0,0,0,5,2,3,52,0005-00-0009-05.png,0002-00-0007-87.png
00000009,296,0,1442607132734,1442607132861,946,378,0,0,0,2,4,2,24,0002-00-0007-81.png,0004-00-0002-20.png
00000009,297,0,1442607139399,1442607140085,453,280,0,0,0,4,2,2,42,0004-00-0008-12.png,0002-00-0000-08.png
00000009,298,1,1442607143134,1442607143663,458,315,0,0,0,1,5,4,15,0001-00-0005-20.png,0005-00-0001-89.png
00000009,299,0,1442607144956,1442607145073,915,350,0,0,0,1,2,1,12,0001-00-0002-55.png,0002-00-0008-51.png
00000009,300,1,1442607148236,1442607148753,362,381,0,0,0,1,3,2,13,0001-00-0009-46.png,0003-00-0008-98.png
00000009,301,0,1442607149984,1442607150016,911,361,0,0,0,1,4,3,14,0001-00-0004-89.png,0004-00-0003-12.png
00000009,302,1,1442607152957,1442607153553,358,348,0,0,0,2,3,1,23,0002-00-0003-60.png,0003-00-0004-82.png
00000009,303,0,1442607154804,1442607154816,892,359,0,0,0,3,5,2,35,0003-00-0002-25.png,0005-00-0008-11.png
00000009,304,1,1442607157955,1442607158195,932,365,0,0,0,5,2,3,52,0005-00-0009-13.png,0002-00-0005-54.png
00000009,305,1,1442607159595,1442607160365,1038,279,0,0,0,5,1,4,51,0005-00-0009-29.png,0001-00-0003-47.png
00000009,306,1,1442607161781,1442607161801,866,368,0,0,0,5,3,2,53,0005-00-0001-76.png,0003-00-0003-38.png
00000009,307,0,1442607162862,1442607163765,442,266,0,0,0,2,1,1,21,0002-00-0005-34.png,0001-00-0005-72.png
00000009,308,1,1442607166920,1442607167455,460,269,0,0,0,1,2,1,12,0001-00-0008-05.png,0002-00-0007-53.png
00000009,309,0,1442607168314,1442607169452,385,387,0,0,0,5,4,1,54,0005-00-0008-88.png,0004-00-0005-93.png
00000009,310,0,1442607172554,1442607173195,434,296,0,0,0,4,1,3,41,0004-00-0002-66.png,0001-00-0009-21.png
00000009,311,1,1442607176051,1442607176855,427,295,0,0,0,3,4,1,34,0003-00-0007-87.png,0004-00-0002-91.png
00000009,312,0,1442607177684,1442607177756,862,400,0,0,0,1,5,4,15,0001-00-0007-38.png,0005-00-0007-81.png
00000009,313,1,1442607181219,1442607181753,469,279,0,0,0,2,4,2,24,0002-00-0006-26.png,0004-00-0002-78.png
00000009,314,0,1442607183025,1442607183109,911,387,0,0,0,1,3,2,13,0001-00-0005-94.png,0003-00-0009-87.png
00000009,315,1,1442607186243,1442607187092,1012,274,0,0,0,4,2,2,42,0004-00-0009-83.png,0002-00-0000-87.png
00000009,316,1,1442607188304,1442607188345,862,384,0,0,0,3,2,1,32,0003-00-0005-00.png,0002-00-0008-22.png
00000009,317,1,1442607189449,1442607189493,870,434,0,0,0,4,3,1,43,0004-00-0005-64.png,0003-00-0001-26.png
00000009,318,0,1442607190634,1442607190679,877,431,0,0,0,4,5,1,45,0004-00-0004-11.png,0005-00-0000-61.png
00000009,319,1,1442607193881,1442607194428,478,270,0,0,0,2,5,3,25,0002-00-0008-64.png,0005-00-0000-68.png
00000009,320,1,1442607195628,1442607195696,884,359,0,0,0,3,1,2,31,0003-00-0009-80.png,0001-00-0006-28.png
00000009,321,1,1442607196732,1442607197933,919,421,0,0,0,4,2,2,42,0004-00-0005-45.png,0002-00-0002-52.png
00000009,322,0,1442607198833,1442607199512,467,278,0,0,0,5,4,1,54,0005-00-0004-63.png,0004-00-0000-48.png
00000009,323,0,1442607202961,1442607203560,421,303,0,0,0,5,3,2,53,0005-00-0003-30.png,0003-00-0005-79.png
00000009,324,1,1442607206403,1442607206960,964,348,0,0,0,2,1,1,21,0002-00-0002-83.png,0001-00-0006-13.png
00000009,325,0,1442607208261,1442607208301,896,357,0,0,0,1,4,3,14,0001-00-0007-59.png,0004-00-0001-62.png
00000009,326,0,1442607211254,1442607211870,1092,279,0,0,0,1,2,1,12,0001-00-0009-05.png,0002-00-0004-36.png
00000009,327,0,1442607219025,1442607219065,999,363,0,0,0,1,5,4,15,0001-00-0002-25.png,0005-00-0000-40.png
00000009,328,1,1442607222255,1442607222963,382,402,0,0,0,3,4,1,34,0003-00-0006-92.png,0004-00-0008-68.png
00000009,329,1,1442607223792,1442607223837,885,397,0,0,0,4,1,3,41,0004-00-0007-51.png,0001-00-0003-45.png
00000009,330,0,1442607224790,1442607224818,882,435,0,0,0,1,3,2,13,0001-00-0005-61.png,0003-00-0005-76.png
00000009,331,1,1442607227930,1442607228534,475,278,0,0,0,3,5,2,35,0003-00-0009-07.png,0005-00-0005-49.png
00000009,332,1,1442607229854,1442607229910,868,400,0,0,0,3,1,2,31,0003-00-0004-58.png,0001-00-0005-31.png
00000009,333,1,1442607231008,1442607231040,868,425,0,0,0,4,3,1,43,0004-00-0002-31.png,0003-00-0001-89.png
00000009,334,1,1442607232160,1442607232212,878,417,0,0,0,3,2,1,32,0003-00-0001-70.png,0002-00-0008-64.png
00000009,335,1,1442607233473,1442607233517,886,402,0,0,0,5,2,3,52,0005-00-0002-38.png,0002-00-0006-19.png
00000009,336,0,1442607234755,1442607234775,889,434,0,0,0,2,3,1,23,0002-00-0005-89.png,0003-00-0007-87.png
00000009,337,1,1442607237637,1442607238252,1118,314,0,0,0,5,1,4,51,0005-00-0009-74.png,0001-00-0001-37.png
00000009,338,0,1442607239456,1442607239497,880,377,0,0,0,2,4,2,24,0002-00-0009-75.png,0004-00-0000-29.png
00000009,339,0,1442607242468,1442607243125,1068,306,0,0,0,2,5,3,25,0002-00-0000-68.png,0005-00-0003-57.png
00000009,340,0,1442607246335,1442607246375,920,321,0,0,0,4,5,1,45,0004-00-0003-63.png,0005-00-0004-96.png
00000009,341,0,1442607249444,1442607249909,343,408,0,0,0,5,1,4,51,0005-00-0009-47.png,0001-00-0007-54.png
00000009,342,1,1442607253005,1442607253530,938,331,0,0,0,3,1,2,31,0003-00-0004-09.png,0001-00-0001-20.png
00000009,343,0,1442607254851,1442607254891,924,349,0,0,0,1,2,1,12,0001-00-0002-37.png,0002-00-0004-89.png
00000009,344,1,1442607257993,1442607258621,464,271,0,0,0,2,5,3,25,0002-00-0004-74.png,0005-00-0008-55.png
00000009,345,0,1442607259939,1442607259987,865,356,0,0,0,1,5,4,15,0001-00-0006-96.png,0005-00-0000-67.png
00000009,346,1,1442607263487,1442607264019,938,330,0,0,0,5,2,3,52,0005-00-0008-59.png,0002-00-0004-42.png
00000009,347,1,1442607265218,1442607265280,924,358,0,0,0,5,4,1,54,0005-00-0006-72.png,0004-00-0001-16.png
00000009,348,1,1442607266275,1442607266333,881,388,0,0,0,4,3,1,43,0004-00-0002-75.png,0003-00-0007-28.png
00000009,349,1,1442607267474,1442607268495,478,219,0,0,0,1,3,2,13,0001-00-0004-11.png,0003-00-0001-31.png
00000009,350,1,1442607269499,1442607269523,869,394,0,0,0,4,1,3,41,0004-00-0001-91.png,0001-00-0000-29.png
00000009,351,0,1442607270603,1442607270655,878,411,0,0,0,3,5,2,35,0003-00-0007-64.png,0005-00-0008-40.png
00000009,352,0,1442607273604,1442607274325,1067,279,0,0,0,3,4,1,34,0003-00-0001-79.png,0004-00-0008-05.png
00000009,353,1,1442607277740,1442607278376,1117,328,0,0,0,4,2,2,42,0004-00-0006-73.png,0002-00-0004-25.png
00000009,354,0,1442607279757,1442607279817,939,398,0,0,0,1,4,3,14,0001-00-0007-49.png,0004-00-0000-82.png
00000009,355,0,1442607282993,1442607283212,880,340,0,0,0,4,5,1,45,0004-00-0004-55.png,0005-00-0009-36.png
00000009,356,0,1442607286297,1442607287049,360,370,0,0,0,3,2,1,32,0003-00-0007-34.png,0002-00-0008-86.png
00000009,357,1,1442607290190,1442607290487,1073,310,0,0,0,2,1,1,21,0002-00-0009-99.png,0001-00-0003-01.png
00000009,358,0,1442607291343,1442607292391,388,371,0,0,0,5,3,2,53,0005-00-0007-53.png,0003-00-0006-59.png
00000009,359,1,1442607295236,1442607295902,352,386,0,0,0,2,3,1,23,0002-00-0004-69.png,0003-00-0003-60.png
00000009,360,0,1442607297334,1442607297374,862,349,0,0,0,2,4,2,24,0002-00-0008-91.png,0004-00-0001-08.png
00000009,361,1,1442607300487,1442607300539,937,379,0,0,0,4,1,3,41,0004-00-0002-41.png,0001-00-0006-42.png
00000009,362,0,1442607301460,1442607301488,913,446,0,0,0,1,3,2,13,0001-00-0001-51.png,0003-00-0005-33.png
00000009,363,1,1442607304651,1442607305172,488,280,0,0,0,2,5,3,25,0002-00-0007-55.png,0005-00-0000-00.png
00000009,364,1,1442607306012,1442607306982,371,380,0,0,0,2,3,1,23,0002-00-0005-57.png,0003-00-0007-66.png
00000009,365,0,1442607308189,1442607308229,920,368,0,0,0,1,5,4,15,0001-00-0001-30.png,0005-00-0001-45.png
00000009,366,1,1442607311398,1442607312133,456,277,0,0,0,3,4,1,34,0003-00-0000-91.png,0004-00-0004-85.png
00000009,367,1,1442607313447,1442607314637,1068,305,0,0,0,4,2,2,42,0004-00-0008-71.png,0002-00-0006-03.png
00000009,368,1,1442607315471,1442607315555,913,410,0,0,0,3,2,1,32,0003-00-0003-56.png,0002-00-0006-36.png
00000009,369,1,1442607316764,1442607316821,870,412,0,0,0,4,3,1,43,0004-00-0007-19.png,0003-00-0008-39.png
00000009,370,1,1442607318034,1442607318098,862,410,0,0,0,5,2,3,52,0005-00-0007-67.png,0002-00-0009-66.png
00000009,371,1,1442607319305,1442607319361,869,403,0,0,0,5,3,2,53,0005-00-0004-50.png,0003-00-0004-11.png
00000009,372,1,1442607320731,1442607320778,872,436,0,0,0,5,4,1,54,0005-00-0008-41.png,0004-00-0005-00.png
00000009,373,0,1442607322107,1442607323195,489,244,0,0,0,3,1,2,31,0003-00-0008-63.png,0001-00-0007-75.png
00000009,374,1,1442607326056,1442607326642,471,279,0,0,0,1,4,3,14,0001-00-0004-73.png,0004-00-0006-97.png
00000009,375,0,1442607327851,1442607327884,865,386,0,0,0,1,2,1,12,0001-00-0002-30.png,0002-00-0000-44.png
00000009,376,1,1442607330984,1442607331626,417,404,0,0,0,3,5,2,35,0003-00-0005-64.png,0005-00-0002-53.png
00000009,377,0,1442607332930,1442607332983,876,367,0,0,0,2,4,2,24,0002-00-0008-66.png,0004-00-0004-12.png
00000009,378,0,1442607335925,1442607336518,485,312,0,0,0,2,1,1,21,0002-00-0006-03.png,0001-00-0006-68.png
00000009,379,1,1442607339642,1442607340229,497,272,0,0,0,4,5,1,45,0004-00-0004-94.png,0005-00-0005-73.png
00000009,380,1,1442607341646,1442607341718,913,358,0,0,0,5,1,4,51,0005-00-0003-28.png,0001-00-0004-18.png
00000009,381,0,1442607342790,1442607342830,860,413,0,0,0,2,3,1,23,0002-00-0002-00.png,0003-00-0003-67.png
00000009,382,1,1442607346049,1442607346537,479,297,0,0,0,1,2,1,12,0001-00-0002-07.png,0002-00-0008-49.png
00000009,383,0,1442607347829,1442607347919,894,394,0,0,0,1,4,3,14,0001-00-0000-68.png,0004-00-0006-21.png
00000009,384,1,1442607350880,1442607351564,1092,296,0,0,0,5,1,4,51,0005-00-0004-88.png,0001-00-0009-16.png
00000009,385,1,1442607352707,1442607352791,914,381,0,0,0,5,4,1,54,0005-00-0006-59.png,0004-00-0000-68.png
00000009,386,0,1442607353851,1442607353891,888,400,0,0,0,1,3,2,13,0001-00-0006-92.png,0003-00-0003-10.png
00000009,387,1,1442607356953,1442607357514,937,330,0,0,0,3,2,1,32,0003-00-0000-84.png,0002-00-0009-83.png
00000009,388,1,1442607358740,1442607358812,913,367,0,0,0,4,1,3,41,0004-00-0006-81.png,0001-00-0004-00.png
00000009,389,1,1442607359855,1442607359895,865,394,0,0,0,3,1,2,31,0003-00-0002-88.png,0001-00-0009-55.png
00000009,390,0,1442607361144,1442607361954,491,252,0,0,0,5,2,3,52,0005-00-0008-37.png,0002-00-0008-34.png
00000009,391,0,1442607367070,1442607367104,903,380,0,0,0,4,5,1,45,0004-00-0004-41.png,0005-00-0000-31.png
00000009,392,0,1442607370330,1442607371179,314,369,0,0,0,4,2,2,42,0004-00-0006-93.png,0002-00-0008-91.png
00000009,393,1,1442607374384,1442607374908,370,391,0,0,0,1,5,4,15,0001-00-0000-35.png,0005-00-0003-41.png
00000009,394,0,1442607376169,1442607376241,903,365,0,0,0,2,4,2,24,0002-00-0007-54.png,0004-00-0001-56.png
00000009,395,1,1442607379110,1442607379182,905,407,0,0,0,2,1,1,21,0002-00-0008-82.png,0001-00-0004-81.png
00000009,396,0,1442607380146,1442607380190,904,416,0,0,0,2,5,3,25,0002-00-0004-52.png,0005-00-0009-78.png
00000009,397,1,1442607383854,1442607383874,953,308,0,0,0,5,3,2,53,0005-00-0004-39.png,0003-00-0000-60.png
00000009,398,0,1442607384812,1442607384870,862,397,0,0,0,3,4,1,34,0003-00-0004-97.png,0004-00-0008-91.png
00000009,399,0,1442607388006,1442607388662,399,386,0,0,0,4,3,1,43,0004-00-0003-07.png,0003-00-0000-07.png
00000009,400,0,1442607391766,1442607392324,918,328,0,0,0,3,5,2,35,0003-00-0006-95.png,0005-00-0006-68.png
00000009,401,1,1442607395828,1442607395872,939,358,0,0,0,3,2,1,32,0003-00-0007-55.png,0002-00-0006-96.png
00000009,402,1,1442607396823,1442607396871,888,369,0,0,0,3,1,2,31,0003-00-0006-28.png,0001-00-0006-38.png
00000009,403,0,1442607397939,1442607398008,881,392,0,0,0,2,5,3,25,0002-00-0004-86.png,0005-00-0006-63.png
00000009,404,1,1442607400835,1442607401178,960,437,0,0,0,5,4,1,54,0005-00-0003-61.png,0004-00-0001-63.png
00000009,405,0,1442607402079,1442607402137,895,390,0,0,0,1,2,1,12,0001-00-0006-28.png,0002-00-0004-08.png
00000009,406,1,1442607405182,1442607405855,463,280,0,0,0,2,4,2,24,0002-00-0006-55.png,0004-00-0004-61.png
00000009,407,1,1442607407145,1442607407169,862,358,0,0,0,5,2,3,52,0005-00-0009-91.png,0002-00-0002-30.png
00000009,408,1,1442607408349,1442607408389,867,369,0,0,0,2,1,1,21,0002-00-0005-08.png,0001-00-0009-17.png
00000009,409,1,1442607409611,1442607409635,894,387,0,0,0,4,3,1,43,0004-00-0004-98.png,0003-00-0000-51.png
00000009,410,1,1442607410734,1442607410766,860,389,0,0,0,4,1,3,41,0004-00-0009-22.png,0001-00-0001-67.png
00000009,411,0,1442607412125,1442607412145,897,385,0,0,0,2,3,1,23,0002-00-0000-34.png,0003-00-0001-21.png
00000009,412,0,1442607414988,1442607415584,371,376,0,0,0,5,3,2,53,0005-00-0009-16.png,0003-00-0005-01.png
00000009,413,1,1442607418704,1442607419282,383,385,0,0,0,4,5,1,45,0004-00-0004-15.png,0005-00-0008-53.png
00000009,414,0,1442607420550,1442607421628,1074,288,0,0,0,1,4,3,14,0001-00-0006-98.png,0004-00-0003-92.png
00000009,415,1,1442607425194,1442607425874,1118,304,0,0,0,5,1,4,51,0005-00-0004-63.png,0001-00-0004-27.png
00000009,416,1,1442607427212,1442607427220,886,398,0,0,0,4,2,2,42,0004-00-0008-40.png,0002-00-0000-66.png
00000009,417,1,1442607428153,1442607429113,467,262,0,0,0,1,3,2,13,0001-00-0006-57.png,0003-00-0007-66.png
00000009,418,0,1442607430063,1442607430103,862,452,0,0,0,1,5,4,15,0001-00-0005-18.png,0005-00-0007-48.png
00000009,419,1,1442607433245,1442607433761,403,379,0,0,0,3,5,2,35,0003-00-0008-43.png,0005-00-0005-10.png
00000009,420,0,1442607434594,1442607434662,913,424,0,0,0,3,4,1,34,0003-00-0004-21.png,0004-00-0004-22.png
00000009,421,1,1442607437726,1442607437955,860,372,0,0,0,3,2,1,32,0003-00-0003-04.png,0002-00-0008-31.png
00000009,422,1,1442607439279,1442607439319,897,363,0,0,0,5,2,3,52,0005-00-0007-09.png,0002-00-0000-59.png
00000009,423,0,1442607440339,1442607440369,901,400,0,0,0,1,4,3,14,0001-00-0003-02.png,0004-00-0002-20.png
00000009,424,1,1442607443520,1442607444129,508,268,0,0,0,2,4,2,24,0002-00-0003-24.png,0004-00-0001-22.png
00000009,425,1,1442607445440,1442607446533,343,377,0,0,0,2,3,1,23,0002-00-0001-64.png,0003-00-0002-04.png
00000009,426,1,1442607447665,1442607448343,895,480,0,0,0,3,1,2,31,0003-00-0000-74.png,0001-00-0005-13.png
00000009,427,0,1442607449372,1442607449428,877,372,0,0,0,1,2,1,12,0001-00-0009-36.png,0002-00-0006-99.png
00000009,428,0,1442607452555,1442607453177,472,263,0,0,0,5,4,1,54,0005-00-0004-52.png,0004-00-0005-06.png
00000009,429,0,1442607456182,1442607457164,930,389,0,0,0,1,3,2,13,0001-00-0002-21.png,0003-00-0005-19.png
00000009,430,0,1442607460226,1442607460842,1092,306,0,0,0,4,5,1,45,0004-00-0004-82.png,0005-00-0009-76.png
00000009,431,0,1442607463935,1442607463975,926,353,0,0,0,3,5,2,35,0003-00-0004-12.png,0005-00-0003-62.png
00000009,432,0,1442607467165,1442607467264,924,280,0,0,0,1,5,4,15,0001-00-0005-05.png,0005-00-0007-82.png
00000009,433,0,1442607470444,1442607471096,354,372,0,0,0,4,1,3,41,0004-00-0008-43.png,0001-00-0008-34.png
00000009,434,0,1442607473959,1442607474575,473,297,0,0,0,5,1,4,51,0005-00-0007-24.png,0001-00-0003-84.png
00000009,435,1,1442607477764,1442607478831,385,343,0,0,0,2,5,3,25,0002-00-0006-95.png,0005-00-0007-55.png
00000009,436,1,1442607479762,1442607480809,939,410,0,0,0,4,3,1,43,0004-00-0005-13.png,0003-00-0008-84.png
00000009,437,1,1442607481723,1442607481783,896,402,0,0,0,5,3,2,53,0005-00-0009-65.png,0003-00-0006-03.png
00000009,438,1,1442607482822,1442607482887,862,396,0,0,0,4,2,2,42,0004-00-0009-58.png,0002-00-0005-95.png
00000009,439,0,1442607484296,1442607484323,874,387,0,0,0,3,4,1,34,0003-00-0008-46.png,0004-00-0000-01.png
00000009,440,1,1442607487393,1442607488016,983,306,0,0,0,2,1,1,21,0002-00-0004-71.png,0001-00-0002-46.png
00000009,441,1,1442607489173,1442607489217,880,366,0,0,0,2,1,1,21,0002-00-0006-55.png,0001-00-0004-18.png
00000009,442,1,1442607490307,1442607490346,898,403,0,0,0,3,2,1,32,0003-00-0009-03.png,0002-00-0003-34.png
00000009,443,0,1442607491518,1442607491570,874,410,0,0,0,4,5,1,45,0004-00-0004-98.png,0005-00-0004-86.png
00000009,444,1,1442607494533,1442607495325,939,345,0,0,0,4,3,1,43,0004-00-0003-73.png,0003-00-0008-39.png
00000009,445,0,1442607496580,1442607496664,894,374,0,0,0,2,4,2,24,0002-00-0002-76.png,0004-00-0007-76.png
00000009,446,1,1442607499637,1442607500182,1046,307,0,0,0,4,1,3,41,0004-00-0003-26.png,0001-00-0005-24.png
00000009,447,1,1442607501448,1442607501476,893,362,0,0,0,5,3,2,53,0005-00-0009-69.png,0003-00-0009-79.png
00000009,448,0,1442607502458,1442607503362,366,381,0,0,0,5,4,1,54,0005-00-0009-49.png,0004-00-0004-89.png
00000009,449,1,1442607506497,1442607507032,1042,307,0,0,0,3,1,2,31,0003-00-0003-80.png,0001-00-0007-59.png
00000009,450,0,1442607508249,1442607508277,863,355,0,0,0,1,2,1,12,0001-00-0000-28.png,0002-00-0000-52.png
00000009,451,0,1442607511417,1442607511465,873,359,0,0,0,3,5,2,35,0003-00-0005-41.png,0005-00-0003-09.png
00000009,452,1,1442607514538,1442607515152,481,280,0,0,0,3,4,1,34,0003-00-0001-49.png,0004-00-0008-82.png
00000009,453,0,1442607516515,1442607516563,873,354,0,0,0,1,3,2,13,0001-00-0006-29.png,0003-00-0005-68.png
00000009,454,1,1442607519765,1442607520313,466,266,0,0,0,2,3,1,23,0002-00-0005-67.png,0003-00-0000-02.png
00000009,455,0,1442607521601,1442607521637,903,370,0,0,0,1,5,4,15,0001-00-0003-95.png,0005-00-0000-62.png
00000009,456,1,1442607524883,1442607524899,897,332,0,0,0,4,2,2,42,0004-00-0002-33.png,0002-00-0001-43.png
00000009,457,0,1442607525817,1442607526252,876,462,0,0,0,1,4,3,14,0001-00-0001-65.png,0004-00-0009-43.png
00000009,458,0,1442607529813,1442607530465,375,326,0,0,0,5,2,3,52,0005-00-0000-48.png,0002-00-0006-74.png
00000009,459,1,1442607533348,1442607533881,1067,270,0,0,0,5,1,4,51,0005-00-0002-47.png,0001-00-0001-77.png
00000009,460,0,1442607534719,1442607534797,885,405,0,0,0,2,5,3,25,0002-00-0009-57.png,0005-00-0009-16.png
00000009,461,1,1442607537821,1442607538127,1080,333,0,0,0,5,2,3,52,0005-00-0003-20.png,0002-00-0009-47.png
00000009,462,0,1442607539054,1442607539094,886,390,0,0,0,1,4,3,14,0001-00-0007-91.png,0004-00-0000-85.png
00000009,463,1,1442607542089,1442607542719,515,268,0,0,0,2,3,1,23,0002-00-0003-66.png,0003-00-0009-86.png
00000009,464,1,1442607543601,1442607543645,881,372,0,0,0,5,3,2,53,0005-00-0007-55.png,0003-00-0007-52.png
00000009,465,1,1442607544617,1442607544673,899,426,0,0,0,4,3,1,43,0004-00-0007-00.png,0003-00-0007-20.png
00000009,466,0,1442607545811,1442607545845,899,408,0,0,0,3,4,1,34,0003-00-0001-79.png,0004-00-0007-11.png
00000009,467,1,1442607548803,1442607549436,1143,291,0,0,0,4,2,2,42,0004-00-0000-49.png,0002-00-0006-25.png
00000009,468,1,1442607550651,1442607550687,905,386,0,0,0,3,1,2,31,0003-00-0009-49.png,0001-00-0004-22.png
00000009,469,0,1442607551674,1442607552774,1051,253,0,0,0,4,5,1,45,0004-00-0000-71.png,0005-00-0004-72.png
00000009,470,0,1442607555906,1442607556146,901,313,0,0,0,2,5,3,25,0002-00-0008-88.png,0005-00-0004-08.png
00000009,471,0,1442607559383,1442607559503,888,292,0,0,0,1,2,1,12,0001-00-0001-55.png,0002-00-0005-53.png
00000009,472,1,1442607562715,1442607563385,496,272,0,0,0,1,3,2,13,0001-00-0007-79.png,0003-00-0006-96.png
00000009,473,1,1442607564711,1442607564743,862,366,0,0,0,4,1,3,41,0004-00-0000-24.png,0001-00-0002-63.png
00000009,474,0,1442607565814,1442607565854,919,394,0,0,0,3,5,2,35,0003-00-0002-79.png,0005-00-0007-22.png
00000009,475,1,1442607569065,1442607569640,1093,308,0,0,0,3,2,1,32,0003-00-0002-14.png,0002-00-0003-61.png
00000009,476,0,1442607570942,1442607571003,882,364,0,0,0,2,4,2,24,0002-00-0006-65.png,0004-00-0006-52.png
00000009,477,1,1442607574085,1442607574696,486,284,0,0,0,1,5,4,15,0001-00-0001-26.png,0005-00-0006-10.png
00000009,478,1,1442607576072,1442607576100,862,395,0,0,0,5,4,1,54,0005-00-0008-62.png,0004-00-0000-36.png
00000009,479,1,1442607577102,1442607577954,915,332,0,0,0,5,1,4,51,0005-00-0008-29.png,0001-00-0001-51.png
00000009,480,1,1442607578798,1442607578876,895,410,0,0,0,2,1,1,21,0002-00-0001-85.png,0001-00-0002-07.png
00000009,481,1,1442607579858,1442607579957,862,448,0,0,0,4,3,1,43,0004-00-0000-18.png,0003-00-0008-66.png
00000009,482,1,1442607581139,1442607582006,475,254,0,0,0,1,5,4,15,0001-00-0008-87.png,0005-00-0003-37.png
00000009,483,1,1442607582917,1442607583099,894,453,0,0,0,4,1,3,41,0004-00-0002-96.png,0001-00-0001-14.png
00000009,484,1,1442607584199,1442607584267,871,438,0,0,0,5,3,2,53,0005-00-0004-54.png,0003-00-0003-29.png
00000009,485,0,1442607585379,1442607585419,862,398,0,0,0,1,4,3,14,0001-00-0000-17.png,0004-00-0000-60.png
00000009,486,1,1442607588553,1442607589136,508,265,0,0,0,2,4,2,24,0002-00-0008-15.png,0004-00-0006-24.png
00000009,487,0,1442607590482,1442607590490,865,385,0,0,0,2,5,3,25,0002-00-0001-78.png,0005-00-0007-59.png
00000009,488,0,1442607593677,1442607594399,939,401,0,0,0,4,5,1,45,0004-00-0007-05.png,0005-00-0000-76.png
00000009,489,0,1442607597366,1442607598178,446,261,0,0,0,2,1,1,21,0002-00-0004-01.png,0001-00-0004-25.png
00000009,490,0,1442607601406,1442607602013,1126,284,0,0,0,3,4,1,34,0003-00-0008-04.png,0004-00-0005-57.png
00000009,491,1,1442607605188,1442607605807,941,356,0,0,0,3,1,2,31,0003-00-0008-80.png,0001-00-0002-94.png
00000009,492,1,1442607606630,1442607606715,923,404,0,0,0,5,4,1,54,0005-00-0005-55.png,0004-00-0005-56.png
00000009,493,0,1442607607631,1442607607667,861,396,0,0,0,3,5,2,35,0003-00-0004-08.png,0005-00-0004-92.png
00000009,494,1,1442607610724,1442607611315,939,320,0,0,0,5,2,3,52,0005-00-0005-25.png,0002-00-0000-58.png
00000009,495,1,1442607612502,1442607612594,888,384,0,0,0,4,2,2,42,0004-00-0001-59.png,0002-00-0003-51.png
00000009,496,1,1442607613635,1442607613674,874,400,0,0,0,5,1,4,51,0005-00-0008-88.png,0001-00-0006-00.png
00000009,497,0,1442607614885,1442607614929,897,392,0,0,0,1,3,2,13,0001-00-0007-69.png,0003-00-0009-29.png
00000009,498,1,1442607617919,1442607618464,473,262,0,0,0,2,3,1,23,0002-00-0002-83.png,0003-00-0006-90.png
00000009,499,1,1442607619887,1442607619939,871,349,0,0,0,3,2,1,32,0003-00-0009-41.png,0002-00-0006-75.png
00000009,500,0,1442607621026,1442607621082,870,400,0,0,0,1,2,1,12,0001-00-0007-36.png,0002-00-0008-40.png
00000009,501,1,1442607624230,1442607624820,943,348,0,0,0,4,2,2,42,0004-00-0003-89.png,0002-00-0004-16.png
00000009,502,0,1442607625997,1442607626057,862,385,0,0,0,2,3,1,23,0002-00-0006-46.png,0003-00-0001-43.png
00000009,503,0,1442607629150,1442607629686,1064,303,0,0,0,3,5,2,35,0003-00-0002-71.png,0005-00-0002-86.png
00000009,504,1,1442607633254,1442607633278,885,348,0,0,0,2,1,1,21,0002-00-0007-23.png,0001-00-0007-89.png
00000009,505,1,1442607634145,1442607635095,969,325,0,0,0,5,1,4,51,0005-00-0007-77.png,0001-00-0009-51.png
00000009,506,1,1442607635964,1442607636015,909,400,0,0,0,4,1,3,41,0004-00-0005-29.png,0001-00-0006-48.png
00000009,507,1,1442607636956,1442607638008,1048,259,0,0,0,3,2,1,32,0003-00-0000-73.png,0002-00-0001-52.png
00000009,508,1,1442607638842,1442607638898,950,400,0,0,0,5,2,3,52,0005-00-0001-87.png,0002-00-0001-70.png
00000009,509,0,1442607640230,1442607640277,888,402,0,0,0,1,5,4,15,0001-00-0001-37.png,0005-00-0000-31.png
00000009,510,1,1442607643447,1442607643992,483,264,0,0,0,2,4,2,24,0002-00-0002-96.png,0004-00-0002-31.png
00000009,511,0,1442607645248,1442607645288,888,358,0,0,0,1,3,2,13,0001-00-0009-34.png,0003-00-0008-55.png
00000009,512,0,1442607648147,1442607648882,344,378,0,0,0,5,4,1,54,0005-00-0000-85.png,0004-00-0007-03.png
00000009,513,1,1442607652056,1442607652624,1064,306,0,0,0,4,3,1,43,0004-00-0006-38.png,0003-00-0001-35.png
00000009,514,0,1442607653734,1442607653806,914,372,0,0,0,4,5,1,45,0004-00-0007-19.png,0005-00-0005-52.png
00000009,515,1,1442607656816,1442607657413,1064,279,0,0,0,3,1,2,31,0003-00-0001-13.png,0001-00-0004-28.png
00000009,516,0,1442607658715,1442607658799,899,384,0,0,0,3,4,1,34,0003-00-0001-93.png,0004-00-0005-77.png
00000009,517,1,1442607661975,1442607662589,482,255,0,0,0,1,2,1,12,0001-00-0003-09.png,0002-00-0009-34.png
00000009,518,1,1442607663432,1442607664561,494,246,0,0,0,2,5,3,25,0002-00-0008-74.png,0005-00-0001-31.png
00000009,519,1,1442607665600,1442607665680,878,410,0,0,0,5,3,2,53,0005-00-0000-23.png,0003-00-0002-74.png
00000009,520,0,1442607666643,1442607667341,939,541,0,0,0,1,4,3,14,0001-00-0005-43.png,0004-00-0009-69.png
00000009,521,1,1442607670451,1442607671010,356,399,0,0,0,2,3,1,23,0002-00-0009-90.png,0003-00-0001-02.png
00000009,522,1,1442607671863,1442607672682,1068,280,0,0,0,4,1,3,41,0004-00-0007-31.png,0001-00-0000-62.png
00000009,523,0,1442607673508,1442607673544,914,429,0,0,0,1,4,3,14,0001-00-0001-56.png,0004-00-0000-25.png
00000009,524,0,1442607676710,1442607677277,1069,287,0,0,0,3,5,2,35,0003-00-0003-76.png,0005-00-0003-90.png
00000009,525,1,1442607680416,1442607680459,927,332,0,0,0,5,1,4,51,0005-00-0001-43.png,0001-00-0001-65.png
00000009,526,1,1442607681799,1442607681891,884,405,0,0,0,5,4,1,54,0005-00-0005-32.png,0004-00-0002-74.png
00000009,527,0,1442607682933,1442607682993,862,372,0,0,0,1,2,1,12,0001-00-0004-80.png,0002-00-0001-77.png
00000009,528,0,1442607686044,1442607686586,467,267,0,0,0,4,2,2,42,0004-00-0007-62.png,0002-00-0008-95.png
00000009,529,1,1442607689578,1442607690194,486,309,0,0,0,1,5,4,15,0001-00-0003-14.png,0005-00-0004-33.png
00000009,530,1,1442607691020,1442607691052,862,369,0,0,0,2,1,1,21,0002-00-0003-47.png,0001-00-0000-03.png
00000009,531,1,1442607692123,1442607692974,384,355,0,0,0,2,5,3,25,0002-00-0006-89.png,0005-00-0002-34.png
00000009,532,0,1442607694086,1442607694975,408,367,0,0,0,5,2,3,52,0005-00-0008-57.png,0002-00-0004-56.png
00000009,533,1,1442607698001,1442607698039,932,391,0,0,0,3,1,2,31,0003-00-0001-30.png,0001-00-0007-68.png
00000009,534,1,1442607699013,1442607699033,868,414,0,0,0,4,3,1,43,0004-00-0003-36.png,0003-00-0006-42.png
00000009,535,1,1442607699973,1442607700988,500,252,0,0,0,2,4,2,24,0002-00-0002-98.png,0004-00-0009-09.png
00000009,536,1,1442607701851,1442607701891,892,388,0,0,0,5,3,2,53,0005-00-0005-91.png,0003-00-0005-46.png
00000009,537,0,1442607702965,1442607703558,951,527,0,0,0,1,3,2,13,0001-00-0002-53.png,0003-00-0005-77.png
00000009,538,0,1442607706754,1442607706907,880,426,0,0,0,3,4,1,34,0003-00-0002-97.png,0004-00-0002-75.png
00000009,539,1,1442607709890,1442607710516,1083,306,0,0,0,3,2,1,32,0003-00-0009-85.png,0002-00-0004-79.png
00000009,540,0,1442607711997,1442607712117,927,345,0,0,0,4,5,1,45,0004-00-0008-31.png,0005-00-0009-94.png
00000009,541,1,1442607715295,1442607715880,938,306,0,0,0,2,1,1,21,0002-00-0003-88.png,0001-00-0004-04.png
00000009,542,1,1442607717188,1442607717272,939,358,0,0,0,5,1,4,51,0005-00-0006-16.png,0001-00-0001-99.png
00000009,543,1,1442607718267,1442607718347,881,394,0,0,0,4,2,2,42,0004-00-0007-06.png,0002-00-0005-31.png
00000009,544,0,1442607719421,1442607719461,873,406,0,0,0,1,4,3,14,0001-00-0001-05.png,0004-00-0002-50.png
00000009,545,1,1442607722614,1442607723154,939,399,0,0,0,3,2,1,32,0003-00-0004-19.png,0002-00-0005-42.png
00000009,546,1,1442607724351,1442607725099,392,347,0,0,0,1,2,1,12,0001-00-0005-20.png,0002-00-0007-70.png
00000009,547,1,1442607726466,1442607726494,867,386,0,0,0,4,3,1,43,0004-00-0001-25.png,0003-00-0004-80.png
00000009,548,0,1442607727480,1442607727512,869,400,0,0,0,3,5,2,35,0003-00-0002-70.png,0005-00-0005-82.png
00000009,549,0,1442607730383,1442607730439,965,387,0,0,0,1,3,2,13,0001-00-0009-23.png,0003-00-0004-46.png
00000009,550,0,1442607733485,1442607734070,908,335,0,0,0,3,4,1,34,0003-00-0008-11.png,0004-00-0004-55.png
00000009,551,1,1442607737202,1442607737750,484,296,0,0,0,2,4,2,24,0002-00-0000-48.png,0004-00-0000-22.png
00000009,552,0,1442607739056,1442607739104,860,385,0,0,0,2,3,1,23,0002-00-0008-86.png,0003-00-0009-32.png
00000009,553,1,1442607742049,1442607742675,1067,279,0,0,0,5,4,1,54,0005-00-0000-81.png,0004-00-0000-00.png
00000009,554,1,1442607743916,1442607744871,943,349,0,0,0,5,3,2,53,0005-00-0004-99.png,0003-00-0006-04.png
00000009,555,0,1442607745714,1442607746681,1075,253,0,0,0,4,5,1,45,0004-00-0003-56.png,0005-00-0007-01.png
00000009,556,1,1442607750154,1442607750813,1075,300,0,0,0,3,1,2,31,0003-00-0001-00.png,0001-00-0008-14.png
00000009,557,0,1442607752044,1442607752182,888,394,0,0,0,1,5,4,15,0001-00-0006-13.png,0005-00-0009-63.png
00000009,558,1,1442607755148,1442607755710,482,276,0,0,0,2,5,3,25,0002-00-0007-23.png,0005-00-0005-10.png
00000009,559,1,1442607757031,1442607757095,888,366,0,0,0,4,1,3,41,0004-00-0008-22.png,0001-00-0008-80.png
00000009,560,1,1442607758106,1442607758158,862,394,0,0,0,5,2,3,52,0005-00-0000-52.png,0002-00-0009-07.png
00000009,561,0,1442607759339,1442607759381,889,431,0,0,0,1,3,2,13,0001-00-0007-15.png,0003-00-0000-86.png
00000009,562,1,1442607762350,1442607762402,913,427,0,0,0,3,1,2,31,0003-00-0007-33.png,0001-00-0009-91.png
00000009,563,0,1442607763317,1442607763385,888,449,0,0,0,3,5,2,35,0003-00-0008-24.png,0005-00-0006-91.png
00000009,564,1,1442607766555,1442607766591,941,352,0,0,0,2,1,1,21,0002-00-0001-72.png,0001-00-0002-56.png
00000009,565,1,1442607767587,1442607767653,882,403,0,0,0,5,2,3,52,0005-00-0003-58.png,0002-00-0004-51.png
00000009,566,1,1442607768770,1442607769354,939,541,0,0,0,5,3,2,53,0005-00-0000-30.png,0003-00-0000-70.png
00000009,567,1,1442607770320,1442607770364,888,446,0,0,0,4,2,2,42,0004-00-0000-57.png,0002-00-0004-55.png
00000009,568,0,1442607771373,1442607771405,869,436,0,0,0,3,4,1,34,0003-00-0001-95.png,0004-00-0009-86.png
00000009,569,1,1442607774518,1442607775179,1127,276,0,0,0,4,3,1,43,0004-00-0004-01.png,0003-00-0009-21.png
00000009,570,1,1442607776008,1442607776076,899,462,0,0,0,4,1,3,41,0004-00-0008-18.png,0001-00-0008-90.png
00000009,571,0,1442607777238,1442607777290,878,410,0,0,0,1,5,4,15,0001-00-0001-25.png,0005-00-0002-47.png
00000009,572,0,1442607780110,1442607780865,506,252,0,0,0,3,2,1,32,0003-00-0007-87.png,0002-00-0002-08.png
00000009,573,1,1442607783817,1442607784481,513,313,0,0,0,2,4,2,24,0002-00-0000-12.png,0004-00-0001-04.png
00000009,574,0,1442607785324,1442607785389,862,410,0,0,0,4,5,1,45,0004-00-0001-34.png,0005-00-0001-03.png
00000009,575,1,1442607788440,1442607789090,936,329,0,0,0,5,4,1,54,0005-00-0000-84.png,0004-00-0003-59.png
00000009,576,0,1442607789928,1442607790007,913,446,0,0,0,1,2,1,12,0001-00-0008-14.png,0002-00-0004-65.png
00000009,577,0,1442607792940,1442607792988,901,464,0,0,0,2,5,3,25,0002-00-0000-39.png,0005-00-0001-19.png
00000009,578,1,1442607795962,1442607796630,939,399,0,0,0,5,1,4,51,0005-00-0001-65.png,0001-00-0002-02.png
00000009,579,0,1442607797828,1442607797880,884,389,0,0,0,2,3,1,23,0002-00-0007-68.png,0003-00-0000-30.png
00000009,580,1,1442607800803,1442607800823,478,407,0,0,0,1,4,3,14,0001-00-0008-36.png,0004-00-0006-63.png
00000009,581,0,1442607801876,1442607801924,862,401,0,0,0,2,5,3,25,0002-00-0002-00.png,0005-00-0000-45.png
00000009,582,1,1442607805047,1442607805306,913,425,0,0,0,3,2,1,32,0003-00-0000-83.png,0002-00-0007-22.png
00000009,583,1,1442607806542,1442607806606,899,393,0,0,0,5,2,3,52,0005-00-0003-93.png,0002-00-0001-06.png
00000009,584,0,1442607807656,1442607807700,889,391,0,0,0,2,3,1,23,0002-00-0003-11.png,0003-00-0004-75.png
00000009,585,1,1442607811273,1442607811903,1081,279,0,0,0,2,1,1,21,0002-00-0004-60.png,0001-00-0002-38.png
00000009,586,0,1442607813143,1442607813191,882,377,0,0,0,1,4,3,14,0001-00-0004-07.png,0004-00-0002-70.png
00000009,587,1,1442607816651,1442607817480,915,296,0,0,0,4,3,1,43,0004-00-0006-35.png,0003-00-0008-60.png
00000009,588,1,1442607818316,1442607818803,963,538,0,0,0,5,4,1,54,0005-00-0007-31.png,0004-00-0004-09.png
00000009,589,0,1442607819912,1442607819992,913,410,0,0,0,1,3,2,13,0001-00-0005-24.png,0003-00-0007-96.png
00000009,590,1,1442607823141,1442607823744,486,258,0,0,0,2,4,2,24,0002-00-0009-27.png,0004-00-0007-92.png
00000009,591,1,1442607824600,1442607824676,862,446,0,0,0,3,1,2,31,0003-00-0007-03.png,0001-00-0005-11.png
00000009,592,1,1442607825636,1442607825712,862,427,0,0,0,5,1,4,51,0005-00-0008-95.png,0001-00-0007-98.png
00000009,593,1,1442607826836,1442607826888,870,410,0,0,0,4,2,2,42,0004-00-0000-37.png,0002-00-0003-76.png
00000009,594,1,1442607828098,1442607829029,488,261,0,0,0,1,2,1,12,0001-00-0009-63.png,0002-00-0005-81.png
00000009,595,0,1442607829947,1442607829987,922,420,0,0,0,4,5,1,45,0004-00-0000-68.png,0005-00-0000-25.png
00000009,596,1,1442607833027,1442607833079,917,381,0,0,0,5,3,2,53,0005-00-0008-75.png,0003-00-0006-66.png
00000009,597,1,1442607834066,1442607834101,896,384,0,0,0,4,1,3,41,0004-00-0000-89.png,0001-00-0009-16.png
00000009,598,1,1442607835003,1442607835893,394,375,0,0,0,1,5,4,15,0001-00-0001-91.png,0005-00-0001-16.png
00000009,599,0,1442607836845,1442607836881,868,428,0,0,0,3,4,1,34,0003-00-0003-23.png,0004-00-0003-33.png
00000009,600,0,1442607840023,1442607840291,888,436,0,0,0,3,5,2,35,0003-00-0001-58.png,0005-00-0000-06.png
00000009,601,0,1442607843355,1442607844000,427,450,0,0,0,3,2,1,32,0003-00-0005-26.png,0002-00-0004-05.png
00000009,602,1,1442607847129,1442607847710,368,399,0,0,0,4,5,1,45,0004-00-0005-31.png,0005-00-0001-57.png
00000009,603,0,1442607848608,1442607848648,894,374,0,0,0,1,2,1,12,0001-00-0000-83.png,0002-00-0004-19.png
00000009,604,1,1442607851761,1442607852324,1092,306,0,0,0,4,1,3,41,0004-00-0001-42.png,0001-00-0004-02.png
00000009,605,0,1442607853700,1442607854674,391,424,0,0,0,5,3,2,53,0005-00-0006-05.png,0003-00-0009-91.png
00000009,606,1,1442607857595,1442607858195,476,291,0,0,0,3,4,1,34,0003-00-0007-56.png,0004-00-0007-09.png
00000009,607,0,1442607859035,1442607859910,391,365,0,0,0,3,1,2,31,0003-00-0008-08.png,0001-00-0001-83.png
00000009,608,1,1442607863048,1442607863677,466,279,0,0,0,2,4,2,24,0002-00-0003-86.png,0004-00-0006-68.png
00000009,609,0,1442607865035,1442607865134,888,384,0,0,0,2,5,3,25,0002-00-0007-18.png,0005-00-0007-99.png
00000009,610,1,1442607868208,1442607868891,1103,321,0,0,0,5,2,3,52,0005-00-0008-91.png,0002-00-0007-30.png
00000009,611,1,1442607870225,1442607870234,867,360,0,0,0,2,1,1,21,0002-00-0002-43.png,0001-00-0009-71.png
00000009,612,1,1442607871404,1442607872083,894,479,0,0,0,5,1,4,51,0005-00-0004-98.png,0001-00-0009-47.png
00000009,613,1,1442607873403,1442607873467,874,384,0,0,0,5,4,1,54,0005-00-0002-02.png,0004-00-0007-24.png
00000009,614,0,1442607874624,1442607874676,885,422,0,0,0,2,3,1,23,0002-00-0006-12.png,0003-00-0000-44.png
00000009,615,0,1442607877868,1442607878926,434,260,0,0,0,4,3,1,43,0004-00-0003-20.png,0003-00-0003-81.png
00000009,616,1,1442607882028,1442607882637,387,388,0,0,0,1,3,2,13,0001-00-0001-40.png,0003-00-0001-38.png
00000009,617,0,1442607883486,1442607883550,881,365,0,0,0,1,4,3,14,0001-00-0008-52.png,0004-00-0004-24.png
00000009,618,1,1442607886663,1442607887307,1117,306,0,0,0,4,2,2,42,0004-00-0008-84.png,0002-00-0002-53.png
00000009,619,0,1442607888137,1442607889046,1082,260,0,0,0,3,5,2,35,0003-00-0004-62.png,0005-00-0009-95.png
00000009,620,1,1442607892259,1442607892865,362,348,0,0,0,1,5,4,15,0001-00-0001-11.png,0005-00-0007-07.png
00000009,621,0,1442607894206,1442607894274,913,378,0,0,0,1,5,4,15,0001-00-0002-12.png,0005-00-0001-36.png
00000009,622,0,1442607897306,1442607897917,397,353,0,0,0,3,2,1,32,0003-00-0009-93.png,0002-00-0007-59.png
00000009,623,1,1442607900914,1442607901629,490,267,0,0,0,1,3,2,13,0001-00-0008-63.png,0003-00-0004-43.png
00000009,624,1,1442607902494,1442607902554,859,460,0,0,0,4,2,2,42,0004-00-0005-46.png,0002-00-0004-34.png
00000009,625,1,1442607903624,1442607904106,894,477,0,0,0,4,1,3,41,0004-00-0003-96.png,0001-00-0001-79.png
00000009,626,0,1442607905095,1442607905135,939,424,0,0,0,2,4,2,24,0002-00-0008-46.png,0004-00-0000-75.png
00000009,627,1,1442607908318,1442607908928,933,353,0,0,0,5,4,1,54,0005-00-0002-55.png,0004-00-0008-77.png
00000009,628,1,1442607910186,1442607910238,896,377,0,0,0,5,1,4,51,0005-00-0000-92.png,0001-00-0005-92.png
00000009,629,0,1442607911276,1442607911332,887,437,0,0,0,3,4,1,34,0003-00-0006-11.png,0004-00-0000-04.png
00000009,630,1,1442607914497,1442607915174,1129,280,0,0,0,5,3,2,53,0005-00-0001-59.png,0003-00-0000-67.png
00000009,631,1,1442607916075,1442607916139,898,436,0,0,0,4,3,1,43,0004-00-0000-06.png,0003-00-0006-29.png
00000009,632,0,1442607917011,1442607918211,1067,292,0,0,0,3,5,2,35,0003-00-0002-42.png,0005-00-0002-95.png
00000009,633,1,1442607921297,1442607921912,358,372,0,0,0,4,5,1,45,0004-00-0004-54.png,0005-00-0006-82.png
00000009,634,0,1442607922751,1442607922823,896,410,0,0,0,2,3,1,23,0002-00-0006-73.png,0003-00-0001-55.png
00000009,635,1,1442607925796,1442607926411,504,289,0,0,0,1,4,3,14,0001-00-0004-30.png,0004-00-0004-93.png
00000009,636,1,1442607928530,1442607929138,938,337,0,0,0,3,1,2,31,0003-00-0005-44.png,0001-00-0004-73.png
00000009,637,0,1442607929971,1442607930039,903,435,0,0,0,2,5,3,25,0002-00-0002-08.png,0005-00-0000-92.png
00000009,638,1,1442607933094,1442607933686,910,336,0,0,0,5,2,3,52,0005-00-0000-75.png,0002-00-0004-74.png
00000009,639,0,1442607934950,1442607934962,916,340,0,0,0,1,2,1,12,0001-00-0003-33.png,0002-00-0003-70.png
00000009,640,0,1442607937812,1442607938427,493,266,0,0,0,2,1,1,21,0002-00-0000-30.png,0001-00-0009-92.png
00000009,641,1,1442607941477,1442607941741,865,370,0,0,0,5,4,1,54,0005-00-0002-63.png,0004-00-0003-98.png
00000009,642,1,1442607942673,1442607942753,888,424,0,0,0,5,1,4,51,0005-00-0001-66.png,0001-00-0007-07.png
00000009,643,1,1442607943667,1442607943695,866,419,0,0,0,4,3,1,43,0004-00-0000-37.png,0003-00-0004-87.png
00000009,644,0,1442607944886,1442607945504,951,528,0,0,0,3,4,1,34,0003-00-0000-70.png,0004-00-0002-09.png
00000009,645,1,1442607948376,1442607949170,1093,306,0,0,0,4,1,3,41,0004-00-0003-68.png,0001-00-0009-93.png
00000009,646,1,1442607950453,1442607950506,888,399,0,0,0,5,2,3,52,0005-00-0004-88.png,0002-00-0002-19.png
00000009,647,1,1442607951446,1442607951486,870,436,0,0,0,3,2,1,32,0003-00-0009-27.png,0002-00-0002-68.png
00000009,648,0,1442607952577,1442607952621,898,384,0,0,0,1,5,4,15,0001-00-0006-35.png,0005-00-0004-43.png
00000009,649,0,1442607955788,1442607955812,926,354,0,0,0,2,3,1,23,0002-00-0008-04.png,0003-00-0008-99.png
00000009,650,1,1442607958652,1442607959385,326,357,0,0,0,4,5,1,45,0004-00-0006-96.png,0005-00-0008-87.png
00000009,651,0,1442607960210,1442607960289,913,426,0,0,0,2,5,3,25,0002-00-0003-63.png,0005-00-0004-52.png
00000009,652,1,1442607963302,1442607963902,478,277,0,0,0,1,2,1,12,0001-00-0007-94.png,0002-00-0004-54.png
00000009,653,0,1442607964744,1442607964821,874,436,0,0,0,1,4,3,14,0001-00-0006-56.png,0004-00-0006-00.png
00000009,654,0,1442607967911,1442607968555,511,251,0,0,0,5,3,2,53,0005-00-0007-12.png,0003-00-0001-96.png
00000009,655,1,1442607971601,1442607972185,510,290,0,0,0,1,3,2,13,0001-00-0003-41.png,0003-00-0001-10.png
00000009,656,0,1442607973606,1442607974675,495,272,0,0,0,2,1,1,21,0002-00-0002-37.png,0001-00-0003-18.png
00000009,657,1,1442607977858,1442607978395,1096,302,0,0,0,4,2,2,42,0004-00-0000-94.png,0002-00-0004-68.png
00000009,658,0,1442607979281,1442607979377,938,432,0,0,0,3,5,2,35,0003-00-0002-45.png,0005-00-0002-59.png
00000009,659,1,1442607982444,1442607983007,1082,306,0,0,0,3,1,2,31,0003-00-0005-26.png,0001-00-0007-12.png
00000009,660,1,1442607984211,1442607985116,439,358,0,0,0,2,4,2,24,0002-00-0001-94.png,0004-00-0007-16.png
00000009,661,1,1442607986148,1442607986235,920,451,0,0,0,3,2,1,32,0003-00-0000-33.png,0002-00-0000-59.png
00000009,662,0,1442607987398,1442607987482,900,436,0,0,0,4,5,1,45,0004-00-0004-79.png,0005-00-0004-13.png
00000009,663,0,1442607990382,1442607990937,1110,282,0,0,0,1,2,1,12,0001-00-0007-65.png,0002-00-0003-53.png
00000009,664,1,1442607994049,1442607994674,939,323,0,0,0,5,4,1,54,0005-00-0001-26.png,0004-00-0009-63.png
00000009,665,1,1442607995528,1442607995621,939,462,0,0,0,5,3,2,53,0005-00-0008-13.png,0003-00-0004-47.png
00000009,666,1,1442607996682,1442607996728,916,415,0,0,0,5,1,4,51,0005-00-0006-12.png,0001-00-0005-58.png
00000009,667,1,1442607997832,1442607997892,890,442,0,0,0,3,1,2,31,0003-00-0005-95.png,0001-00-0003-55.png
00000009,668,1,1442607999045,1442607999069,861,419,0,0,0,4,2,2,42,0004-00-0004-41.png,0002-00-0000-79.png
00000009,669,0,1442608000277,1442608000305,871,415,0,0,0,1,3,2,13,0001-00-0007-23.png,0003-00-0001-15.png
00000009,670,0,1442608003456,1442608004022,496,276,0,0,0,4,3,1,43,0004-00-0004-45.png,0003-00-0003-31.png
00000009,671,0,1442608006849,1442608006955,892,407,0,0,0,2,5,3,25,0002-00-0001-43.png,0005-00-0008-23.png
00000009,672,1,1442608010146,1442608010790,1142,297,0,0,0,5,2,3,52,0005-00-0007-02.png,0002-00-0003-33.png
00000009,673,0,1442608011629,1442608012669,1084,272,0,0,0,3,4,1,34,0003-00-0009-34.png,0004-00-0000-38.png
00000009,674,1,1442608015752,1442608016390,480,286,0,0,0,2,3,1,23,0002-00-0006-54.png,0003-00-0002-29.png
00000009,675,0,1442608017213,1442608017245,862,410,0,0,0,2,4,2,24,0002-00-0002-71.png,0004-00-0003-37.png
00000009,676,1,1442608020403,1442608021215,355,371,0,0,0,1,5,4,15,0001-00-0005-45.png,0005-00-0005-35.png
00000009,677,1,1442608022070,1442608022130,896,439,0,0,0,4,1,3,41,0004-00-0002-63.png,0001-00-0003-18.png
00000009,678,0,1442608023135,1442608023187,862,427,0,0,0,1,4,3,14,0001-00-0006-15.png,0004-00-0004-54.png
00000009,679,1,1442608026752,1442608027900,433,260,0,0,0,3,5,2,35,0003-00-0002-00.png,0005-00-0006-48.png
00000009,680,1,1442608028800,1442608029914,961,305,0,0,0,2,1,1,21,0002-00-0003-57.png,0001-00-0009-82.png
00000009,681,0,1442608030867,1442608030947,930,416,0,0,0,3,5,2,35,0003-00-0001-22.png,0005-00-0003-78.png
00000009,682,0,1442608033850,1442608033858,453,436,0,0,0,4,1,3,41,0004-00-0001-47.png,0001-00-0009-11.png
00000009,683,1,1442608036840,1442608037503,931,404,0,0,0,4,2,2,42,0004-00-0006-73.png,0002-00-0004-06.png
00000009,684,0,1442608038788,1442608038852,908,337,0,0,0,1,3,2,13,0001-00-0006-06.png,0003-00-0003-28.png
00000009,685,0,1442608041758,1442608041770,517,407,0,0,0,5,4,1,54,0005-00-0002-42.png,0004-00-0008-70.png
00000009,686,0,1442608044961,1442608045586,393,346,0,0,0,2,1,1,21,0002-00-0006-54.png,0001-00-0002-60.png
00000009,687,1,1442608048805,1442608049405,918,348,0,0,0,5,2,3,52,0005-00-0008-71.png,0002-00-0000-54.png
00000009,688,1,1442608050313,1442608050392,947,402,0,0,0,3,2,1,32,0003-00-0004-89.png,0002-00-0005-68.png
00000009,689,1,1442608051360,1442608051408,896,408,0,0,0,4,3,1,43,0004-00-0006-91.png,0003-00-0001-77.png
00000009,690,1,1442608052520,1442608052572,888,398,0,0,0,5,3,2,53,0005-00-0009-92.png,0003-00-0002-13.png
00000009,691,1,1442608053790,1442608053822,894,378,0,0,0,3,1,2,31,0003-00-0005-38.png,0001-00-0005-17.png
00000009,692,0,1442608055184,1442608055216,904,398,0,0,0,1,5,4,15,0001-00-0004-16.png,0005-00-0008-06.png
00000009,693,1,1442608058098,1442608058126,512,454,0,0,0,3,4,1,34,0003-00-0009-07.png,0004-00-0006-50.png
00000009,694,0,1442608059051,1442608059107,888,410,0,0,0,1,4,3,14,0001-00-0001-12.png,0004-00-0002-85.png
00000009,695,0,1442608062242,1442608062306,964,358,0,0,0,1,2,1,12,0001-00-0004-75.png,0002-00-0000-42.png
00000009,696,0,1442608065759,1442608065799,925,389,0,0,0,4,5,1,45,0004-00-0003-62.png,0005-00-0004-58.png
00000009,697,1,1442608068889,1442608068989,876,331,0,0,0,5,1,4,51,0005-00-0001-34.png,0001-00-0009-59.png
00000009,698,0,1442608070014,1442608070042,918,394,0,0,0,2,5,3,25,0002-00-0002-34.png,0005-00-0004-14.png
00000009,699,0,1442608073135,1442608073962,943,329,0,0,0,2,3,1,23,0002-00-0003-73.png,0003-00-0008-89.png
00000009,700,1,1442608077099,1442608077654,376,380,0,0,0,2,4,2,24,0002-00-0001-01.png,0004-00-0009-87.png
00000009,701,1,1442608079132,1442608079156,864,334,0,0,0,4,2,2,42,0004-00-0004-99.png,0002-00-0004-93.png
00000009,702,0,1442608080166,1442608080211,876,402,0,0,0,2,4,2,24,0002-00-0009-35.png,0004-00-0008-56.png
00000009,703,1,1442608083267,1442608083809,506,265,0,0,0,1,2,1,12,0001-00-0008-73.png,0002-00-0002-70.png
00000009,704,1,1442608085165,1442608085237,903,358,0,0,0,3,2,1,32,0003-00-0006-06.png,0002-00-0005-90.png
00000009,705,0,1442608086291,1442608086331,862,410,0,0,0,2,3,1,23,0002-00-0009-83.png,0003-00-0002-48.png
00000009,706,1,1442608089433,1442608090093,488,275,0,0,0,3,5,2,35,0003-00-0009-80.png,0005-00-0007-84.png
00000009,707,0,1442608090950,1442608092109,944,296,0,0,0,3,4,1,34,0003-00-0007-41.png,0004-00-0008-82.png
00000009,708,1,1442608094973,1442608095523,480,305,0,0,0,1,5,4,15,0001-00-0005-17.png,0005-00-0000-39.png
00000009,709,1,1442608096884,1442608096928,869,377,0,0,0,5,2,3,52,0005-00-0005-07.png,0002-00-0000-39.png
00000009,710,1,1442608098125,1442608098188,904,466,0,0,0,4,3,1,43,0004-00-0005-34.png,0003-00-0001-53.png
00000009,711,1,1442608099278,1442608099318,881,420,0,0,0,5,3,2,53,0005-00-0003-19.png,0003-00-0008-77.png
00000009,712,0,1442608100579,1442608100631,904,440,0,0,0,1,3,2,13,0001-00-0008-11.png,0003-00-0003-26.png
00000009,713,1,1442608103603,1442608104249,496,243,0,0,0,2,5,3,25,0002-00-0005-95.png,0005-00-0004-35.png
00000009,714,0,1442608105580,1442608105588,888,358,0,0,0,4,5,1,45,0004-00-0003-44.png,0005-00-0009-42.png
00000009,715,0,1442608108690,1442608108734,934,353,0,0,0,1,4,3,14,0001-00-0004-59.png,0004-00-0001-78.png
00000009,716,0,1442608111924,1442608112542,480,315,0,0,0,2,1,1,21,0002-00-0004-86.png,0001-00-0006-63.png
00000009,717,1,1442608115668,1442608115712,968,340,0,0,0,5,4,1,54,0005-00-0001-63.png,0004-00-0000-65.png
00000009,718,1,1442608116718,1442608116754,888,384,0,0,0,4,1,3,41,0004-00-0001-37.png,0001-00-0005-49.png
00000009,719,1,1442608117907,1442608118837,928,332,0,0,0,3,1,2,31,0003-00-0003-35.png,0001-00-0009-33.png
00000009,720,1,1442608119824,1442608119881,949,447,0,0,0,5,1,4,51,0005-00-0005-73.png,0001-00-0004-58.png
00000009,721,0,1442608120983,1442608121012,868,403,0,0,0,1,5,4,15,0001-00-0008-18.png,0005-00-0006-23.png
00000009,722,1,1442608124592,1442608125178,948,325,0,0,0,5,1,4,51,0005-00-0004-18.png,0001-00-0000-85.png
00000009,723,1,1442608126019,1442608127068,494,261,0,0,0,2,3,1,23,0002-00-0007-02.png,0003-00-0008-94.png
00000009,724,0,1442608127947,1442608127999,888,421,0,0,0,1,4,3,14,0001-00-0000-71.png,0004-00-0004-39.png
00000009,725,1,1442608131171,1442608131219,947,351,0,0,0,4,3,1,43,0004-00-0002-52.png,0003-00-0008-82.png
00000009,726,0,1442608132202,1442608132278,894,400,0,0,0,3,4,1,34,0003-00-0002-05.png,0004-00-0003-19.png
00000009,727,0,1442608135495,1442608136222,1092,279,0,0,0,2,4,2,24,0002-00-0001-27.png,0004-00-0008-85.png
00000009,728,1,1442608139419,1442608139993,1112,306,0,0,0,3,1,2,31,0003-00-0006-89.png,0001-00-0006-48.png
00000009,729,1,1442608140809,1442608140869,940,402,0,0,0,2,1,1,21,0002-00-0007-10.png,0001-00-0009-92.png
00000009,730,0,1442608142101,1442608142152,886,385,0,0,0,1,3,2,13,0001-00-0004-30.png,0003-00-0001-48.png
00000009,731,1,1442608145082,1442608145809,512,222,0,0,0,1,2,1,12,0001-00-0006-72.png,0002-00-0001-36.png
00000009,732,1,1442608146634,1442608146686,888,393,0,0,0,4,1,3,41,0004-00-0005-64.png,0001-00-0001-24.png
00000009,733,0,1442608147608,1442608147965,888,462,0,0,0,3,5,2,35,0003-00-0007-89.png,0005-00-0009-61.png
00000009,734,0,1442608150987,1442608151019,913,402,0,0,0,4,5,1,45,0004-00-0006-34.png,0005-00-0008-99.png
00000009,735,1,1442608154137,1442608154734,461,267,0,0,0,2,5,3,25,0002-00-0009-95.png,0005-00-0008-74.png
00000009,736,1,1442608156147,1442608156183,892,342,0,0,0,4,2,2,42,0004-00-0005-08.png,0002-00-0007-54.png
00000009,737,1,1442608157099,1442608157147,873,410,0,0,0,5,4,1,54,0005-00-0006-25.png,0004-00-0007-26.png
00000009,738,1,1442608158339,1442608158383,897,427,0,0,0,5,3,2,53,0005-00-0003-80.png,0003-00-0000-88.png
00000009,739,1,1442608159629,1442608159677,885,449,0,0,0,5,2,3,52,0005-00-0002-78.png,0002-00-0004-08.png
00000009,740,1,1442608160871,1442608160931,878,410,0,0,0,3,2,1,32,0003-00-0002-24.png,0002-00-0004-77.png
00000009,741,1,1442608161995,1442608162027,892,394,0,0,0,5,3,2,53,0005-00-0003-84.png,0003-00-0005-50.png
00000009,742,0,1442608163417,1442608163473,901,427,0,0,0,2,3,1,23,0002-00-0006-21.png,0003-00-0001-66.png
00000009,743,0,1442608166677,1442608167290,494,291,0,0,0,2,1,1,21,0002-00-0002-06.png,0001-00-0008-75.png
00000009,744,1,1442608170455,1442608171066,983,354,0,0,0,4,2,2,42,0004-00-0007-25.png,0002-00-0004-96.png
00000009,745,1,1442608172331,1442608172379,881,353,0,0,0,5,2,3,52,0005-00-0007-10.png,0002-00-0004-34.png
00000009,746,0,1442608173513,1442608173597,880,470,0,0,0,4,5,1,45,0004-00-0002-40.png,0005-00-0004-97.png
00000009,747,1,1442608176603,1442608177210,1118,279,0,0,0,4,1,3,41,0004-00-0009-98.png,0001-00-0006-59.png
00000009,748,0,1442608178434,1442608178482,913,358,0,0,0,2,4,2,24,0002-00-0003-92.png,0004-00-0003-47.png
00000009,749,1,1442608181494,1442608182160,504,279,0,0,0,1,5,4,15,0001-00-0003-90.png,0005-00-0007-17.png
00000009,750,1,1442608183392,1442608183452,888,358,0,0,0,4,3,1,43,0004-00-0007-18.png,0003-00-0004-70.png
00000009,751,0,1442608184566,1442608185200,939,553,0,0,0,3,5,2,35,0003-00-0002-43.png,0005-00-0009-74.png
00000009,752,1,1442608188351,1442608188399,926,340,0,0,0,3,1,2,31,0003-00-0009-60.png,0001-00-0001-28.png
00000009,753,1,1442608189374,1442608189435,944,427,0,0,0,5,4,1,54,0005-00-0003-26.png,0004-00-0000-22.png
00000009,754,0,1442608190417,1442608190449,875,427,0,0,0,1,2,1,12,0001-00-0007-47.png,0002-00-0002-85.png
00000009,755,1,1442608193621,1442608194211,1134,306,0,0,0,3,2,1,32,0003-00-0001-60.png,0002-00-0006-38.png
00000009,756,0,1442608195456,1442608195476,898,374,0,0,0,3,4,1,34,0003-00-0002-93.png,0004-00-0003-56.png
00000009,757,1,1442608198628,1442608199170,489,305,0,0,0,1,4,3,14,0001-00-0002-46.png,0004-00-0001-99.png
00000009,758,1,1442608200015,1442608201058,1087,281,0,0,0,5,1,4,51,0005-00-0004-44.png,0001-00-0000-48.png
00000009,759,0,1442608201956,1442608202005,976,403,0,0,0,2,5,3,25,0002-00-0009-61.png,0005-00-0008-22.png
00000009,760,1,1442608204947,1442608205537,504,265,0,0,0,1,3,2,13,0001-00-0006-17.png,0003-00-0000-17.png
00000009,761,1,1442608206364,1442608206425,888,384,0,0,0,4,1,3,41,0004-00-0007-40.png,0001-00-0005-96.png
00000009,762,1,1442608207538,1442608207632,896,428,0,0,0,5,1,4,51,0005-00-0008-52.png,0001-00-0006-15.png
00000009,763,1,1442608208981,1442608209013,892,393,0,0,0,4,3,1,43,0004-00-0008-70.png,0003-00-0009-49.png
00000009,764,0,1442608210510,1442608210550,860,414,0,0,0,2,4,2,24,0002-00-0000-88.png,0004-00-0001-93.png
00000009,765,1,1442608215132,1442608215868,914,425,0,0,0,4,2,2,42,0004-00-0004-91.png,0002-00-0000-51.png
00000009,766,1,1442608216712,1442608216768,888,424,0,0,0,3,1,2,31,0003-00-0005-20.png,0001-00-0001-03.png
00000009,767,1,1442608217727,1442608217759,862,397,0,0,0,5,4,1,54,0005-00-0002-85.png,0004-00-0000-92.png
00000009,768,1,1442608218840,1442608218880,862,421,0,0,0,5,2,3,52,0005-00-0006-16.png,0002-00-0008-68.png
00000009,769,1,1442608219953,1442608219993,888,419,0,0,0,2,1,1,21,0002-00-0006-01.png,0001-00-0007-68.png
00000009,770,1,1442608221094,1442608221134,882,419,0,0,0,5,3,2,53,0005-00-0001-43.png,0003-00-0009-24.png
00000009,771,0,1442608222266,1442608222322,888,410,0,0,0,3,5,2,35,0003-00-0005-79.png,0005-00-0001-35.png
00000009,772,0,1442608225449,1442608226030,1070,304,0,0,0,3,4,1,34,0003-00-0008-66.png,0004-00-0004-98.png
00000009,773,1,1442608228972,1442608230024,451,296,0,0,0,1,2,1,12,0001-00-0008-15.png,0002-00-0006-67.png
00000009,774,0,1442608230860,1442608230956,897,462,0,0,0,1,4,3,14,0001-00-0001-35.png,0004-00-0000-24.png
00000009,775,1,1442608234013,1442608234273,953,360,0,0,0,3,2,1,32,0003-00-0002-77.png,0002-00-0003-96.png
00000009,776,0,1442608235555,1442608235601,888,394,0,0,0,1,5,4,15,0001-00-0007-75.png,0005-00-0003-88.png
00000009,777,1,1442608238566,1442608239286,393,359,0,0,0,1,3,2,13,0001-00-0009-06.png,0003-00-0001-36.png
00000009,778,0,1442608240581,1442608240653,897,358,0,0,0,2,3,1,23,0002-00-0001-78.png,0003-00-0007-44.png
00000009,779,1,1442608243625,1442608244241,495,284,0,0,0,2,5,3,25,0002-00-0002-73.png,0005-00-0000-46.png
00000009,780,0,1442608245619,1442608245659,862,358,0,0,0,4,5,1,45,0004-00-0009-36.png,0005-00-0009-24.png
00000009,781,0,1442608248872,1442608249562,482,264,0,0,0,5,1,4,51,0005-00-0005-96.png,0001-00-0004-27.png
00000009,782,0,1442608252741,1442608253330,1115,305,0,0,0,3,5,2,35,0003-00-0003-53.png,0005-00-0009-63.png
00000009,783,1,1442608256359,1442608256968,1107,321,0,0,0,5,2,3,52,0005-00-0009-68.png,0002-00-0002-46.png
00000009,784,1,1442608257812,1442608257916,888,514,0,0,0,4,3,1,43,0004-00-0002-14.png,0003-00-0008-40.png
00000009,785,0,1442608258997,1442608259030,878,433,0,0,0,1,3,2,13,0001-00-0000-89.png,0003-00-0000-17.png
00000009,786,0,1442608262190,1442608262813,453,448,0,0,0,2,1,1,21,0002-00-0002-44.png,0001-00-0006-64.png
00000009,787,1,1442608265735,1442608266321,501,252,0,0,0,1,2,1,12,0001-00-0008-44.png,0002-00-0000-93.png
00000009,788,1,1442608267190,1442608267279,913,451,0,0,0,3,1,2,31,0003-00-0000-62.png,0001-00-0009-38.png
00000009,789,1,1442608268180,1442608268220,862,410,0,0,0,4,2,2,42,0004-00-0008-83.png,0002-00-0009-46.png
00000009,790,0,1442608269341,1442608269401,888,418,0,0,0,1,4,3,14,0001-00-0006-56.png,0004-00-0001-81.png
00000009,791,1,1442608272456,1442608272965,1077,308,0,0,0,4,1,3,41,0004-00-0007-42.png,0001-00-0007-64.png
00000009,792,1,1442608274199,1442608274262,896,376,0,0,0,3,2,1,32,0003-00-0004-56.png,0002-00-0002-05.png
00000009,793,0,1442608275377,1442608275417,879,417,0,0,0,1,5,4,15,0001-00-0008-49.png,0005-00-0006-11.png
00000009,794,1,1442608278546,1442608279109,965,324,0,0,0,5,4,1,54,0005-00-0009-05.png,0004-00-0006-31.png
00000009,795,0,1442608279990,1442608280078,939,425,0,0,0,2,4,2,24,0002-00-0006-35.png,0004-00-0002-30.png
00000009,796,1,1442608283218,1442608283803,486,303,0,0,0,2,3,1,23,0002-00-0007-28.png,0003-00-0005-83.png
00000009,797,1,1442608284737,1442608284789,875,436,0,0,0,5,3,2,53,0005-00-0004-29.png,0003-00-0006-39.png
00000009,798,0,1442608285806,1442608285861,858,440,0,0,0,3,4,1,34,0003-00-0004-28.png,0004-00-0007-95.png
00000009,799,1,1442608288987,1442608289543,397,378,0,0,0,2,5,3,25,0002-00-0005-08.png,0005-00-0009-85.png
00000009,800,0,1442608290962,1442608291005,913,375,0,0,0,4,5,1,45,0004-00-0004-60.png,0005-00-0004-24.png
00000009,801,1,1442608293998,1442608294549,503,297,0,0,0,2,5,3,25,0002-00-0003-60.png,0005-00-0001-78.png
00000009,802,0,1442608295428,1442608295468,898,480,0,0,0,4,5,1,45,0004-00-0002-61.png,0005-00-0005-08.png
00000009,803,1,1442608302276,1442608302809,477,278,0,0,0,2,3,1,23,0002-00-0008-07.png,0003-00-0000-07.png
00000009,804,1,1442608303696,1442608303768,882,433,0,0,0,5,1,4,51,0005-00-0009-04.png,0001-00-0000-67.png
00000009,805,1,1442608305146,1442608305202,867,408,0,0,0,5,2,3,52,0005-00-0006-90.png,0002-00-0007-27.png
00000009,806,1,1442608306351,1442608306626,928,549,0,0,0,4,3,1,43,0004-00-0002-59.png,0003-00-0006-13.png
00000009,807,1,1442608310315,1442608311028,1060,282,0,0,0,3,2,1,32,0003-00-0008-81.png,0002-00-0002-42.png
00000009,808,0,1442608312343,1442608312383,885,387,0,0,0,3,5,2,35,0003-00-0009-11.png,0005-00-0009-68.png
00000009,809,1,1442608315393,1442608315929,501,280,0,0,0,1,5,4,15,0001-00-0004-95.png,0005-00-0007-26.png
00000009,810,1,1442608317201,1442608317263,929,410,0,0,0,2,1,1,21,0002-00-0009-88.png,0001-00-0007-72.png
00000009,811,1,1442608318304,1442608318368,905,436,0,0,0,5,3,2,53,0005-00-0008-47.png,0003-00-0000-66.png
00000009,812,0,1442608319387,1442608319419,891,444,0,0,0,3,4,1,34,0003-00-0000-36.png,0004-00-0006-47.png
00000009,813,1,1442608322385,1442608323096,961,331,0,0,0,4,1,3,41,0004-00-0007-51.png,0001-00-0004-91.png
00000009,814,0,1442608323975,1442608324055,939,427,0,0,0,1,4,3,14,0001-00-0004-81.png,0004-00-0003-43.png
00000009,815,0,1442608326877,1442608327145,874,389,0,0,0,2,4,2,24,0002-00-0003-14.png,0004-00-0002-06.png
00000009,816,1,1442608330180,1442608330788,943,317,0,0,0,4,2,2,42,0004-00-0000-63.png,0002-00-0003-44.png
00000009,817,1,1442608332108,1442608332140,895,378,0,0,0,5,4,1,54,0005-00-0004-15.png,0004-00-0006-40.png
00000009,818,1,1442608333239,1442608334101,1053,253,0,0,0,3,1,2,31,0003-00-0006-52.png,0001-00-0008-02.png
00000009,819,0,1442608334947,1442608334983,945,426,0,0,0,1,2,1,12,0001-00-0005-74.png,0002-00-0002-31.png
00000009,820,0,1442608338855,1442608338901,871,351,0,0,0,1,3,2,13,0001-00-0005-54.png,0003-00-0006-53.png
00000009,821,1,1442608342105,1442608342715,493,270,0,0,0,2,4,2,24,0002-00-0000-43.png,0004-00-0006-47.png
00000009,822,0,1442608343954,1442608343966,866,350,0,0,0,4,5,1,45,0004-00-0005-10.png,0005-00-0001-44.png
00000009,823,1,1442608347088,1442608347671,452,282,0,0,0,2,5,3,25,0002-00-0004-38.png,0005-00-0005-73.png
00000009,824,1,1442608348973,1442608349033,872,384,0,0,0,4,2,2,42,0004-00-0001-56.png,0002-00-0009-42.png
00000009,825,1,1442608350057,1442608350081,867,414,0,0,0,5,2,3,52,0005-00-0004-60.png,0002-00-0007-39.png
00000009,826,1,1442608351207,1442608351557,925,527,0,0,0,2,1,1,21,0002-00-0002-37.png,0001-00-0008-44.png
00000009,827,1,1442608352572,1442608352632,913,399,0,0,0,3,1,2,31,0003-00-0000-85.png,0001-00-0003-23.png
00000009,828,1,1442608353599,1442608353656,901,456,0,0,0,3,2,1,32,0003-00-0002-70.png,0002-00-0009-12.png
00000009,829,1,1442608354764,1442608354828,888,451,0,0,0,5,1,4,51,0005-00-0003-08.png,0001-00-0000-46.png
00000009,830,0,1442608356075,1442608356148,910,474,0,0,0,2,3,1,23,0002-00-0000-53.png,0003-00-0008-70.png
00000009,831,0,1442608362222,1442608363055,434,299,0,0,0,5,3,2,53,0005-00-0002-35.png,0003-00-0001-24.png
00000009,832,1,1442608366456,1442608367052,369,356,0,0,0,1,4,3,14,0001-00-0000-76.png,0004-00-0007-34.png
00000009,833,0,1442608367985,1442608368033,862,459,0,0,0,3,4,1,34,0003-00-0004-22.png,0004-00-0007-16.png
00000009,834,1,1442608374474,1442608375007,945,325,0,0,0,4,3,1,43,0004-00-0003-62.png,0003-00-0008-91.png
00000009,835,1,1442608376016,1442608376056,900,410,0,0,0,4,1,3,41,0004-00-0007-96.png,0001-00-0002-84.png
00000009,836,0,1442608377059,1442608377099,910,433,0,0,0,1,5,4,15,0001-00-0004-27.png,0005-00-0008-20.png
00000009,837,1,1442608380351,1442608380502,1010,291,0,0,0,5,4,1,54,0005-00-0006-93.png,0004-00-0001-08.png
00000009,838,0,1442608381453,1442608381485,939,410,0,0,0,3,5,2,35,0003-00-0008-69.png,0005-00-0001-12.png
00000009,839,0,1442608384485,1442608384741,961,326,0,0,0,1,2,1,12,0001-00-0002-64.png,0002-00-0000-01.png
00000009,840,1,1442608387883,1442608388497,357,391,0,0,0,1,3,2,13,0001-00-0000-92.png,0003-00-0009-53.png
00000009,841,1,1442608389312,1442608389484,937,438,0,0,0,5,1,4,51,0005-00-0004-54.png,0001-00-0002-74.png
00000009,842,1,1442608390616,1442608390689,896,413,0,0,0,3,2,1,32,0003-00-0006-78.png,0002-00-0008-81.png
00000009,843,1,1442608391648,1442608391688,884,442,0,0,0,4,2,2,42,0004-00-0008-56.png,0002-00-0002-09.png
00000009,844,1,1442608393277,1442608393329,898,415,0,0,0,4,3,1,43,0004-00-0001-94.png,0003-00-0001-38.png
00000009,845,1,1442608394530,1442608394602,908,455,0,0,0,4,1,3,41,0004-00-0000-50.png,0001-00-0004-06.png
00000009,846,0,1442608395701,1442608395733,889,413,0,0,0,3,5,2,35,0003-00-0002-17.png,0005-00-0005-97.png
00000009,847,1,1442608398954,1442608399507,1083,273,0,0,0,2,1,1,21,0002-00-0000-53.png,0001-00-0007-61.png
00000009,848,1,1442608400731,1442608401488,398,379,0,0,0,4,5,1,45,0004-00-0004-88.png,0005-00-0003-92.png
00000009,849,1,1442608402368,1442608403207,1064,281,0,0,0,3,1,2,31,0003-00-0004-86.png,0001-00-0001-63.png
00000009,850,0,1442608404648,1442608404679,925,410,0,0,0,1,4,3,14,0001-00-0001-85.png,0004-00-0003-19.png
00000009,851,1,1442608408404,1442608408950,479,285,0,0,0,2,5,3,25,0002-00-0002-37.png,0005-00-0001-12.png
00000009,852,1,1442608409786,1442608410590,485,281,0,0,0,1,5,4,15,0001-00-0001-28.png,0005-00-0003-93.png
00000009,853,0,1442608411421,1442608412358,431,350,0,0,0,5,3,2,53,0005-00-0008-21.png,0003-00-0007-55.png
00000009,854,0,1442608415450,1442608415492,951,399,0,0,0,1,2,1,12,0001-00-0004-84.png,0002-00-0004-59.png
00000009,855,0,1442608418451,1442608419004,448,277,0,0,0,5,2,3,52,0005-00-0005-81.png,0002-00-0004-59.png
00000009,856,1,1442608422217,1442608422942,403,364,0,0,0,2,3,1,23,0002-00-0001-27.png,0003-00-0009-51.png
00000009,857,0,1442608424232,1442608424268,866,356,0,0,0,2,4,2,24,0002-00-0001-99.png,0004-00-0001-06.png
00000009,858,0,1442608427315,1442608427881,1082,304,0,0,0,3,4,1,34,0003-00-0003-41.png,0004-00-0000-14.png
00000009,859,1,1442608431094,1442608431768,1109,299,0,0,0,5,4,1,54,0005-00-0006-94.png,0004-00-0008-69.png
00000009,860,0,1442608432657,1442608432813,914,487,0,0,0,1,3,2,13,0001-00-0005-10.png,0003-00-0004-00.png
00000009,861,1,1442608435785,1442608436387,937,328,0,0,0,5,4,1,54,0005-00-0007-94.png,0004-00-0005-91.png
00000009,862,0,1442608437234,1442608437274,888,422,0,0,0,3,5,2,35,0003-00-0005-27.png,0005-00-0008-92.png
00000009,863,1,1442608440372,1442608440953,456,268,0,0,0,2,5,3,25,0002-00-0009-49.png,0005-00-0003-55.png
00000009,864,0,1442608441843,1442608441919,913,396,0,0,0,1,4,3,14,0001-00-0009-44.png,0004-00-0004-25.png
00000009,865,0,1442608445068,1442608445270,1088,310,0,0,0,2,3,1,23,0002-00-0008-62.png,0003-00-0004-37.png
00000009,866,0,1442608448437,1442608448744,951,349,0,0,0,1,2,1,12,0001-00-0002-70.png,0002-00-0006-06.png
00000009,867,1,1442608451865,1442608452519,479,280,0,0,0,4,5,1,45,0004-00-0007-69.png,0005-00-0003-93.png
00000009,868,1,1442608453890,1442608453950,939,384,0,0,0,5,3,2,53,0005-00-0001-23.png,0003-00-0009-37.png
00000009,869,1,1442608454953,1442608455517,979,529,0,0,0,5,2,3,52,0005-00-0003-60.png,0002-00-0007-62.png
00000009,870,1,1442608456618,1442608456653,952,388,0,0,0,3,2,1,32,0003-00-0000-10.png,0002-00-0007-43.png
00000009,871,0,1442608458185,1442608458225,931,420,0,0,0,1,3,2,13,0001-00-0002-16.png,0003-00-0002-70.png
00000009,872,0,1442608461165,1442608461772,1082,279,0,0,0,3,4,1,34,0003-00-0004-19.png,0004-00-0008-85.png
00000009,873,0,1442608464952,1442608464980,859,356,0,0,0,2,4,2,24,0002-00-0007-81.png,0004-00-0002-46.png
00000009,874,1,1442608468187,1442608468836,1106,314,0,0,0,3,1,2,31,0003-00-0000-47.png,0001-00-0003-58.png
00000009,875,1,1442608470093,1442608470172,969,320,0,0,0,5,1,4,51,0005-00-0005-07.png,0001-00-0006-96.png
00000009,876,1,1442608471282,1442608471338,919,402,0,0,0,4,1,3,41,0004-00-0007-35.png,0001-00-0005-58.png
00000009,877,1,1442608472326,1442608472365,888,384,0,0,0,4,3,1,43,0004-00-0002-44.png,0003-00-0005-85.png
00000009,878,1,1442608473474,1442608473538,894,400,0,0,0,4,2,2,42,0004-00-0006-32.png,0002-00-0003-47.png
00000009,879,0,1442608474677,1442608474725,900,430,0,0,0,1,5,4,15,0001-00-0005-29.png,0005-00-0002-72.png
00000009,880,1,1442608477761,1442608478307,1087,278,0,0,0,2,1,1,21,0002-00-0003-00.png,0001-00-0009-52.png
00000009,881,0,1442608479425,1442608479516,939,421,0,0,0,1,3,2,13,0001-00-0002-03.png,0003-00-0003-88.png
00000009,882,1,1442608482562,1442608483162,1092,306,0,0,0,5,1,4,51,0005-00-0006-00.png,0001-00-0009-96.png
00000009,883,1,1442608484298,1442608484354,905,387,0,0,0,4,1,3,41,0004-00-0006-26.png,0001-00-0002-12.png
00000009,884,1,1442608485330,1442608485375,889,420,0,0,0,4,3,1,43,0004-00-0001-27.png,0003-00-0001-33.png
00000009,885,0,1442608486464,1442608486500,871,390,0,0,0,4,5,1,45,0004-00-0007-86.png,0005-00-0004-92.png
00000009,886,1,1442608489500,1442608490109,515,272,0,0,0,2,3,1,23,0002-00-0006-55.png,0003-00-0009-34.png
00000009,887,1,1442608491455,1442608491503,888,372,0,0,0,5,4,1,54,0005-00-0007-57.png,0004-00-0000-07.png
00000009,888,1,1442608492538,1442608492570,866,451,0,0,0,2,1,1,21,0002-00-0008-19.png,0001-00-0009-24.png
00000009,889,0,1442608493695,1442608493748,876,456,0,0,0,3,5,2,35,0003-00-0001-32.png,0005-00-0002-79.png
00000009,890,1,1442608496772,1442608497885,370,445,0,0,0,1,4,3,14,0001-00-0002-01.png,0004-00-0003-29.png
00000009,891,1,1442608498781,1442608499751,940,358,0,0,0,3,1,2,31,0003-00-0007-17.png,0001-00-0000-68.png
00000009,892,0,1442608500632,1442608500703,949,433,0,0,0,3,4,1,34,0003-00-0003-18.png,0004-00-0004-53.png
00000009,893,1,1442608503740,1442608504307,510,301,0,0,0,1,5,4,15,0001-00-0004-83.png,0005-00-0001-46.png
00000009,894,0,1442608505597,1442608505657,922,402,0,0,0,2,5,3,25,0002-00-0009-93.png,0005-00-0002-82.png
00000009,895,1,1442608508863,1442608509529,944,339,0,0,0,5,2,3,52,0005-00-0002-35.png,0002-00-0006-06.png
00000009,896,1,1442608510733,1442608510787,888,384,0,0,0,5,3,2,53,0005-00-0006-70.png,0003-00-0005-38.png
00000009,897,0,1442608511758,1442608512233,927,529,0,0,0,1,2,1,12,0001-00-0002-64.png,0002-00-0002-21.png
00000009,898,1,1442608515357,1442608515544,913,424,0,0,0,4,2,2,42,0004-00-0005-41.png,0002-00-0006-48.png
00000009,899,1,1442608516551,1442608517539,487,279,0,0,0,2,4,2,24,0002-00-0002-31.png,0004-00-0009-88.png
00000009,900,1,1442608518498,1442608518569,903,462,0,0,0,3,2,1,32,0003-00-0008-60.png,0002-00-0000-80.png
00000009,901,0,1442608519646,1442608519710,893,421,0,0,0,3,5,2,35,0003-00-0006-24.png,0005-00-0003-73.png
00000009,902,1,1442608523029,1442608523617,1092,279,0,0,0,5,2,3,52,0005-00-0001-66.png,0002-00-0000-62.png
00000009,903,0,1442608524838,1442608524894,898,384,0,0,0,2,5,3,25,0002-00-0009-05.png,0005-00-0009-31.png
00000009,904,1,1442608527804,1442608528323,453,318,0,0,0,2,3,1,23,0002-00-0004-22.png,0003-00-0006-70.png
00000009,905,1,1442608529199,1442608530063,936,345,0,0,0,3,1,2,31,0003-00-0000-87.png,0001-00-0000-50.png
00000009,906,0,1442608530946,1442608530982,912,358,0,0,0,3,4,1,34,0003-00-0007-81.png,0004-00-0003-92.png
00000009,907,1,1442608534179,1442608534215,932,385,0,0,0,5,3,2,53,0005-00-0004-80.png,0003-00-0007-25.png
00000009,908,0,1442608535225,1442608535292,913,397,0,0,0,2,4,2,24,0002-00-0009-43.png,0004-00-0007-96.png
00000009,909,1,1442608538435,1442608539016,478,265,0,0,0,1,5,4,15,0001-00-0006-27.png,0005-00-0000-09.png
00000009,910,0,1442608540550,1442608540578,862,358,0,0,0,4,5,1,45,0004-00-0005-80.png,0005-00-0004-61.png
00000009,911,0,1442608543610,1442608544248,399,380,0,0,0,3,2,1,32,0003-00-0003-20.png,0002-00-0007-37.png
00000009,912,1,1442608547379,1442608548024,965,333,0,0,0,5,4,1,54,0005-00-0006-50.png,0004-00-0008-86.png
00000009,913,0,1442608548926,1442608549006,895,452,0,0,0,1,2,1,12,0001-00-0007-97.png,0002-00-0005-02.png
00000009,914,0,1442608552287,1442608552872,503,270,0,0,0,4,2,2,42,0004-00-0006-55.png,0002-00-0000-73.png
00000009,915,0,1442608556298,1442608556614,896,347,0,0,0,1,4,3,14,0001-00-0000-27.png,0004-00-0004-29.png
00000009,916,1,1442608559560,1442608559835,939,441,0,0,0,5,1,4,51,0005-00-0000-24.png,0001-00-0004-82.png
00000009,917,1,1442608560669,1442608560753,922,462,0,0,0,4,1,3,41,0004-00-0008-59.png,0001-00-0007-17.png
00000009,918,1,1442608562005,1442608562076,888,394,0,0,0,2,1,1,21,0002-00-0003-50.png,0001-00-0006-15.png
00000009,919,0,1442608563025,1442608563073,863,423,0,0,0,1,3,2,13,0001-00-0003-81.png,0003-00-0008-40.png
00000009,920,0,1442608565979,1442608566603,520,274,0,0,0,4,3,1,43,0004-00-0002-09.png,0003-00-0007-23.png
00000009,921,1,1442608569807,1442608570451,468,303,0,0,0,2,4,2,24,0002-00-0007-00.png,0004-00-0001-87.png
00000009,922,0,1442608571339,1442608571402,893,398,0,0,0,3,4,1,34,0003-00-0007-12.png,0004-00-0008-02.png
00000009,923,1,1442608574641,1442608575151,967,325,0,0,0,5,1,4,51,0005-00-0008-84.png,0001-00-0006-39.png
00000009,924,1,1442608576418,1442608576521,930,384,0,0,0,5,4,1,54,0005-00-0002-11.png,0004-00-0008-41.png
00000009,925,1,1442608577437,1442608577736,910,480,0,0,0,4,2,2,42,0004-00-0007-11.png,0002-00-0009-17.png
00000009,926,1,1442608578798,1442608578838,904,391,0,0,0,4,1,3,41,0004-00-0008-09.png,0001-00-0009-59.png
00000009,927,0,1442608580082,1442608580559,931,486,0,0,0,2,3,1,23,0002-00-0004-78.png,0003-00-0006-34.png
00000009,928,1,1442608583522,1442608584136,964,373,0,0,0,2,1,1,21,0002-00-0002-27.png,0001-00-0006-61.png
00000009,929,1,1442608585283,1442608585347,879,358,0,0,0,3,2,1,32,0003-00-0006-93.png,0002-00-0008-52.png
00000009,930,1,1442608586393,1442608586425,861,421,0,0,0,5,3,2,53,0005-00-0000-47.png,0003-00-0009-67.png
00000009,931,1,1442608587564,1442608587608,866,417,0,0,0,4,3,1,43,0004-00-0008-37.png,0003-00-0006-95.png
00000009,932,0,1442608588865,1442608588901,866,387,0,0,0,3,5,2,35,0003-00-0004-08.png,0005-00-0003-24.png
00000009,933,1,1442608591806,1442608592467,964,419,0,0,0,3,1,2,31,0003-00-0006-01.png,0001-00-0007-49.png
00000009,934,0,1442608593679,1442608593742,913,367,0,0,0,1,3,2,13,0001-00-0000-99.png,0003-00-0004-00.png
00000009,935,1,1442608597261,1442608597791,465,311,0,0,0,1,5,4,15,0001-00-0005-67.png,0005-00-0006-21.png
00000009,936,0,1442608599223,1442608599467,997,373,0,0,0,4,5,1,45,0004-00-0001-27.png,0005-00-0009-83.png
00000009,937,0,1442608602591,1442608603277,1117,277,0,0,0,1,2,1,12,0001-00-0002-81.png,0002-00-0007-54.png
00000009,938,0,1442608606266,1442608606299,862,410,0,0,0,2,5,3,25,0002-00-0005-07.png,0005-00-0006-06.png
00000009,939,1,1442608609546,1442608610033,497,299,0,0,0,1,4,3,14,0001-00-0001-12.png,0004-00-0007-86.png
00000009,940,1,1442608610953,1442608611046,931,403,0,0,0,5,2,3,52,0005-00-0003-36.png,0002-00-0002-18.png
00000009,941,1,1442608611920,1442608611944,867,401,0,0,0,5,3,2,53,0005-00-0002-33.png,0003-00-0002-52.png
