subject_id,trial,correct_response,stim_time,response_time,x_coord,y_coord,trial_timeout,timeout_time,interTrial_timeout,left_rank,right_rank,distance,joint_rank,left_image,right_image
00000014,1,0,1443020521763,1443020522730,1057,387,0,0,0,1,4,3,14,0001-00-0000-55.png,0004-00-0004-13.png
00000014,2,1,1443020526663,1443020528356,363,410,0,0,0,2,4,2,24,0002-00-0008-23.png,0004-00-0005-28.png
00000014,3,0,1443020539785,1443020540362,392,500,0,0,0,5,2,3,52,0005-00-0005-28.png,0002-00-0009-68.png
00000014,4,0,1443020543652,1443020544096,366,446,0,0,0,4,1,3,41,0004-00-0007-27.png,0001-00-0005-91.png
00000014,5,1,1443020547090,1443020547545,914,465,0,0,0,5,3,2,53,0005-00-0008-22.png,0003-00-0000-13.png
00000014,6,1,1443020548706,1443020549125,339,419,0,0,0,4,5,1,45,0004-00-0009-69.png,0005-00-0004-30.png
00000014,7,1,1443020551080,1443020551478,330,485,0,0,0,3,5,2,35,0003-00-0000-21.png,0005-00-0009-31.png
00000014,8,0,1443020555920,1443020556335,338,409,0,0,0,2,1,1,21,0002-00-0006-70.png,0001-00-0008-34.png
00000014,9,0,1443020559355,1443020559757,325,423,0,0,0,4,3,1,43,0004-00-0003-34.png,0003-00-0001-68.png
00000014,10,0,1443020562825,1443020563176,348,389,0,0,0,3,2,1,32,0003-00-0000-63.png,0002-00-0007-38.png
00000014,11,1,1443020566141,1443020566687,927,417,0,0,0,3,1,2,31,0003-00-0006-09.png,0001-00-0003-25.png
00000014,12,1,1443020568498,1443020569028,357,428,0,0,0,1,5,4,15,0001-00-0009-25.png,0005-00-0002-95.png
00000014,13,1,1443020570554,1443020571089,896,471,0,0,0,5,4,1,54,0005-00-0001-30.png,0004-00-0001-05.png
00000014,14,1,1443020572787,1443020573318,286,419,0,0,0,2,5,3,25,0002-00-0007-24.png,0005-00-0006-68.png
00000014,15,1,1443020574831,1443020575350,921,497,0,0,0,4,2,2,42,0004-00-0003-37.png,0002-00-0009-42.png
00000014,16,0,1443020577069,1443020577543,952,397,0,0,0,2,3,1,23,0002-00-0005-73.png,0003-00-0000-23.png
00000014,17,0,1443020581737,1443020582275,900,514,0,0,0,1,2,1,12,0001-00-0008-81.png,0002-00-0008-18.png
00000014,18,0,1443020585334,1443020585860,953,387,0,0,0,3,4,1,34,0003-00-0003-85.png,0004-00-0006-91.png
00000014,19,1,1443020588932,1443020589395,925,487,0,0,0,5,1,4,51,0005-00-0001-47.png,0001-00-0007-97.png
00000014,20,0,1443020591090,1443020591591,957,421,0,0,0,1,3,2,13,0001-00-0005-01.png,0003-00-0006-30.png
00000014,21,1,1443020594557,1443020595011,982,375,0,0,0,4,1,3,41,0004-00-0009-86.png,0001-00-0004-65.png
00000014,22,1,1443020596923,1443020597489,337,398,0,0,0,2,4,2,24,0002-00-0009-32.png,0004-00-0005-60.png
00000014,23,1,1443020599210,1443020599674,364,529,0,0,0,1,5,4,15,0001-00-0009-71.png,0005-00-0006-41.png
00000014,24,1,1443020600830,1443020601366,886,502,0,0,0,2,1,1,21,0002-00-0006-84.png,0001-00-0002-84.png
00000014,25,1,1443020602552,1443020603104,375,444,0,0,0,2,3,1,23,0002-00-0005-60.png,0003-00-0009-02.png
00000014,26,1,1443020604169,1443020604736,924,411,0,0,0,5,2,3,52,0005-00-0001-40.png,0002-00-0005-67.png
00000014,27,1,1443020605813,1443020606367,922,413,0,0,0,4,3,1,43,0004-00-0002-97.png,0003-00-0002-60.png
00000014,28,0,1443020607549,1443020608628,873,490,0,0,0,1,3,2,13,0001-00-0004-79.png,0003-00-0005-42.png
00000014,29,1,1443020611998,1443020612442,312,397,0,0,0,4,5,1,45,0004-00-0006-49.png,0005-00-0000-37.png
00000014,30,1,1443020613760,1443020614346,899,489,0,0,0,4,2,2,42,0004-00-0004-02.png,0002-00-0007-64.png
00000014,31,1,1443020615422,1443020615967,346,515,0,0,0,3,5,2,35,0003-00-0004-62.png,0005-00-0006-75.png
00000014,32,1,1443020616989,1443020617506,401,424,0,0,0,1,2,1,12,0001-00-0009-98.png,0002-00-0003-92.png
00000014,33,1,1443020618481,1443020619026,916,416,0,0,0,5,1,4,51,0005-00-0006-15.png,0001-00-0008-97.png
00000014,34,1,1443020620117,1443020620631,298,449,0,0,0,3,4,1,34,0003-00-0003-73.png,0004-00-0000-34.png
00000014,35,1,1443020621786,1443020622328,876,460,0,0,0,3,1,2,31,0003-00-0002-87.png,0001-00-0003-63.png
00000014,36,1,1443020623475,1443020624028,376,410,0,0,0,2,5,3,25,0002-00-0001-76.png,0005-00-0000-88.png
00000014,37,1,1443020625075,1443020625636,875,410,0,0,0,5,3,2,53,0005-00-0009-22.png,0003-00-0004-95.png
00000014,38,1,1443020626757,1443020627328,889,423,0,0,0,3,2,1,32,0003-00-0003-99.png,0002-00-0005-16.png
00000014,39,1,1443020628795,1443020629344,886,477,0,0,0,5,4,1,54,0005-00-0006-65.png,0004-00-0004-18.png
00000014,40,1,1443020630544,1443020631011,291,444,0,0,0,1,4,3,14,0001-00-0004-01.png,0004-00-0007-16.png
00000014,41,1,1443020632661,1443020633198,879,401,0,0,0,3,1,2,31,0003-00-0001-94.png,0001-00-0006-33.png
00000014,42,1,1443020634262,1443020634827,875,449,0,0,0,5,2,3,52,0005-00-0007-41.png,0002-00-0002-82.png
00000014,43,1,1443020635852,1443020636433,901,409,0,0,0,4,2,2,42,0004-00-0008-80.png,0002-00-0007-85.png
00000014,44,1,1443020637431,1443020637993,861,513,0,0,0,3,2,1,32,0003-00-0003-75.png,0002-00-0001-01.png
00000014,45,1,1443020639103,1443020639639,887,398,0,0,0,5,1,4,51,0005-00-0000-20.png,0001-00-0001-76.png
00000014,46,0,1443020645055,1443020645497,923,394,0,0,0,1,4,3,14,0001-00-0003-63.png,0004-00-0001-08.png
00000014,47,1,1443020648545,1443020648962,331,448,0,0,0,1,5,4,15,0001-00-0001-16.png,0005-00-0000-88.png
00000014,48,0,1443020650043,1443020650649,315,402,0,0,0,2,1,1,21,0002-00-0008-65.png,0001-00-0006-34.png
00000014,49,0,1443020653542,1443020653998,350,422,0,0,0,5,3,2,53,0005-00-0002-32.png,0003-00-0008-39.png
00000014,50,1,1443020657090,1443020657146,497,417,0,0,0,1,3,2,13,0001-00-0000-77.png,0003-00-0002-26.png
00000014,51,1,1443020658233,1443020658245,504,436,0,0,0,2,4,2,24,0002-00-0003-77.png,0004-00-0009-92.png
00000014,52,1,1443020659516,1443020660027,912,423,0,0,0,4,1,3,41,0004-00-0007-49.png,0001-00-0001-73.png
00000014,53,1,1443020661136,1443020661697,268,426,0,0,0,4,5,1,45,0004-00-0007-43.png,0005-00-0006-15.png
00000014,54,1,1443020662737,1443020663783,391,439,0,0,0,3,4,1,34,0003-00-0009-39.png,0004-00-0004-27.png
00000014,55,1,1443020664834,1443020665376,906,427,0,0,0,4,3,1,43,0004-00-0002-60.png,0003-00-0005-50.png
00000014,56,0,1443020666415,1443020666986,875,437,0,0,0,1,2,1,12,0001-00-0003-74.png,0002-00-0008-55.png
00000014,57,1,1443020671612,1443020672064,263,417,0,0,0,3,5,2,35,0003-00-0007-24.png,0005-00-0004-10.png
00000014,58,0,1443020673091,1443020673615,902,494,0,0,0,2,5,3,25,0002-00-0009-84.png,0005-00-0004-59.png
00000014,59,1,1443020676576,1443020677109,925,411,0,0,0,5,4,1,54,0005-00-0006-63.png,0004-00-0000-15.png
00000014,60,1,1443020678163,1443020678702,400,410,0,0,0,2,3,1,23,0002-00-0000-65.png,0003-00-0002-89.png
00000014,61,1,1443020679723,1443020680265,376,436,0,0,0,1,3,2,13,0001-00-0007-05.png,0003-00-0004-46.png
00000014,62,1,1443020681263,1443020681809,857,488,0,0,0,4,3,1,43,0004-00-0007-57.png,0003-00-0000-51.png
00000014,63,0,1443020682892,1443020683889,913,481,0,0,0,3,4,1,34,0003-00-0009-62.png,0004-00-0007-92.png
00000014,64,1,1443020687209,1443020687673,909,448,0,0,0,4,2,2,42,0004-00-0000-23.png,0002-00-0004-73.png
00000014,65,1,1443020688740,1443020689250,370,417,0,0,0,2,5,3,25,0002-00-0005-22.png,0005-00-0006-12.png
00000014,66,0,1443020690261,1443020690923,873,387,0,0,0,4,5,1,45,0004-00-0001-75.png,0005-00-0003-73.png
00000014,67,1,1443020694066,1443020694555,895,416,0,0,0,5,3,2,53,0005-00-0009-79.png,0003-00-0007-66.png
00000014,68,1,1443020695687,1443020696243,871,498,0,0,0,3,2,1,32,0003-00-0001-50.png,0002-00-0000-84.png
00000014,69,1,1443020697257,1443020697780,872,404,0,0,0,4,1,3,41,0004-00-0000-74.png,0001-00-0002-42.png
00000014,70,1,1443020698871,1443020699461,913,396,0,0,0,3,1,2,31,0003-00-0000-89.png,0001-00-0006-50.png
00000014,71,1,1443020700528,1443020701054,889,491,0,0,0,2,1,1,21,0002-00-0008-36.png,0001-00-0001-94.png
00000014,72,0,1443020702117,1443020702651,902,390,0,0,0,2,4,2,24,0002-00-0008-36.png,0004-00-0008-98.png
00000014,73,1,1443020705485,1443020706010,866,479,0,0,0,5,2,3,52,0005-00-0001-22.png,0002-00-0008-14.png
00000014,74,0,1443020707115,1443020707626,360,534,0,0,0,5,4,1,54,0005-00-0004-94.png,0004-00-0002-27.png
00000014,75,0,1443020710475,1443020710974,870,388,0,0,0,2,3,1,23,0002-00-0000-76.png,0003-00-0000-12.png
00000014,76,1,1443020714035,1443020714468,332,393,0,0,0,1,5,4,15,0001-00-0001-04.png,0005-00-0008-52.png
00000014,77,1,1443020715515,1443020716207,290,402,0,0,0,3,5,2,35,0003-00-0004-69.png,0005-00-0003-97.png
00000014,78,1,1443020717354,1443020717803,311,429,0,0,0,1,4,3,14,0001-00-0005-14.png,0004-00-0006-51.png
00000014,79,0,1443020718881,1443020719473,879,402,0,0,0,1,2,1,12,0001-00-0000-53.png,0002-00-0007-67.png
00000014,80,1,1443020722653,1443020723045,941,422,0,0,0,5,1,4,51,0005-00-0003-49.png,0001-00-0005-01.png
00000014,81,1,1443020724144,1443020725192,951,476,0,0,0,4,3,1,43,0004-00-0005-08.png,0003-00-0004-44.png
00000014,82,1,1443020726261,1443020726745,306,394,0,0,0,4,5,1,45,0004-00-0006-72.png,0005-00-0003-01.png
00000014,83,0,1443020727842,1443020728472,868,387,0,0,0,3,5,2,35,0003-00-0002-97.png,0005-00-0007-98.png
00000014,84,0,1443020731449,1443020731870,390,423,0,0,0,5,2,3,52,0005-00-0006-15.png,0002-00-0009-71.png
00000014,85,1,1443020735226,1443020735720,896,444,0,0,0,4,2,2,42,0004-00-0003-47.png,0002-00-0009-35.png
00000014,86,1,1443020736896,1443020737362,901,410,0,0,0,5,4,1,54,0005-00-0008-84.png,0004-00-0006-78.png
00000014,87,1,1443020738515,1443020739069,870,498,0,0,0,5,3,2,53,0005-00-0006-78.png,0003-00-0009-88.png
00000014,88,1,1443020740215,1443020740716,356,412,0,0,0,1,5,4,15,0001-00-0001-89.png,0005-00-0000-43.png
00000014,89,0,1443020741806,1443020742439,900,384,0,0,0,2,4,2,24,0002-00-0009-97.png,0004-00-0008-42.png
00000014,90,1,1443020745572,1443020746016,356,498,0,0,0,1,4,3,14,0001-00-0001-70.png,0004-00-0003-93.png
00000014,91,1,1443020747043,1443020747569,387,410,0,0,0,2,5,3,25,0002-00-0005-36.png,0005-00-0001-82.png
00000014,92,1,1443020748663,1443020749165,266,427,0,0,0,2,3,1,23,0002-00-0003-75.png,0003-00-0009-44.png
00000014,93,1,1443020750184,1443020750730,373,412,0,0,0,3,4,1,34,0003-00-0004-40.png,0004-00-0007-10.png
00000014,94,1,1443020751880,1443020752484,871,484,0,0,0,5,1,4,51,0005-00-0002-39.png,0001-00-0001-75.png
00000014,95,1,1443020754755,1443020755267,360,536,0,0,0,1,3,2,13,0001-00-0006-76.png,0003-00-0006-13.png
00000014,96,0,1443020756823,1443020757311,335,501,0,0,0,2,1,1,21,0002-00-0005-43.png,0001-00-0009-99.png
00000014,97,1,1443020760301,1443020760772,344,410,0,0,0,1,2,1,12,0001-00-0003-93.png,0002-00-0008-75.png
00000014,98,1,1443020761857,1443020762425,879,402,0,0,0,3,1,2,31,0003-00-0002-90.png,0001-00-0007-27.png
00000014,99,1,1443020763722,1443020764213,895,397,0,0,0,4,1,3,41,0004-00-0001-06.png,0001-00-0004-25.png
00000014,100,1,1443020765440,1443020765991,879,401,0,0,0,3,2,1,32,0003-00-0002-91.png,0002-00-0007-38.png
00000014,101,0,1443020767118,1443020767633,417,466,0,0,0,3,2,1,32,0003-00-0008-88.png,0002-00-0009-03.png
00000014,102,0,1443020770475,1443020770503,504,347,0,0,0,5,1,4,51,0005-00-0005-26.png,0001-00-0005-84.png
00000014,103,1,1443020773342,1443020773805,895,484,0,0,0,4,2,2,42,0004-00-0000-48.png,0002-00-0001-65.png
00000014,104,0,1443020774853,1443020775616,417,417,0,0,0,5,4,1,54,0005-00-0004-81.png,0004-00-0001-35.png
00000014,105,0,1443020778639,1443020779111,919,460,0,0,0,2,4,2,24,0002-00-0009-95.png,0004-00-0003-48.png
00000014,106,1,1443020782230,1443020782706,879,403,0,0,0,5,2,3,52,0005-00-0004-03.png,0002-00-0007-82.png
00000014,107,1,1443020783763,1443020784260,385,510,0,0,0,1,3,2,13,0001-00-0002-95.png,0003-00-0003-36.png
00000014,108,1,1443020785308,1443020785888,864,476,0,0,0,5,3,2,53,0005-00-0006-86.png,0003-00-0009-54.png
00000014,109,1,1443020786930,1443020787396,388,410,0,0,0,1,5,4,15,0001-00-0006-17.png,0005-00-0008-79.png
00000014,110,1,1443020788491,1443020788974,299,449,0,0,0,2,5,3,25,0002-00-0000-83.png,0005-00-0004-89.png
00000014,111,1,1443020790112,1443020790714,296,432,0,0,0,1,2,1,12,0001-00-0005-68.png,0002-00-0008-73.png
00000014,112,0,1443020791820,1443020792392,362,441,0,0,0,4,3,1,43,0004-00-0004-01.png,0003-00-0001-07.png
00000014,113,1,1443020795406,1443020795893,391,407,0,0,0,3,5,2,35,0003-00-0000-84.png,0005-00-0002-62.png
00000014,114,1,1443020796999,1443020797505,285,430,0,0,0,3,4,1,34,0003-00-0005-80.png,0004-00-0004-08.png
00000014,115,1,1443020798530,1443020799085,885,498,0,0,0,3,1,2,31,0003-00-0007-00.png,0001-00-0009-02.png
00000014,116,1,1443020800259,1443020800763,314,410,0,0,0,1,4,3,14,0001-00-0008-39.png,0004-00-0004-25.png
00000014,117,1,1443020801799,1443020802359,896,456,0,0,0,4,1,3,41,0004-00-0006-04.png,0001-00-0002-38.png
00000014,118,1,1443020803349,1443020804036,876,517,0,0,0,2,1,1,21,0002-00-0006-98.png,0001-00-0003-72.png
00000014,119,1,1443020805109,1443020805634,315,432,0,0,0,2,3,1,23,0002-00-0004-16.png,0003-00-0006-38.png
00000014,120,1,1443020806645,1443020807184,345,436,0,0,0,4,5,1,45,0004-00-0000-40.png,0005-00-0004-88.png
00000014,121,0,1443020808216,1443020809243,914,490,0,0,0,1,4,3,14,0001-00-0004-39.png,0004-00-0000-23.png
00000014,122,1,1443020812633,1443020813104,396,418,0,0,0,2,5,3,25,0002-00-0000-23.png,0005-00-0005-61.png
00000014,123,1,1443020814124,1443020814587,368,427,0,0,0,2,3,1,23,0002-00-0004-65.png,0003-00-0009-52.png
00000014,124,1,1443020815673,1443020816168,413,449,0,0,0,3,4,1,34,0003-00-0003-02.png,0004-00-0000-94.png
00000014,125,1,1443020817315,1443020817907,865,426,0,0,0,3,1,2,31,0003-00-0003-44.png,0001-00-0006-27.png
00000014,126,0,1443020818953,1443020819539,874,438,0,0,0,3,5,2,35,0003-00-0005-80.png,0005-00-0006-74.png
00000014,127,0,1443020822572,1443020823065,896,446,0,0,0,1,2,1,12,0001-00-0008-50.png,0002-00-0000-52.png
00000014,128,1,1443020826108,1443020826592,863,501,0,0,0,5,4,1,54,0005-00-0000-29.png,0004-00-0002-14.png
00000014,129,1,1443020827631,1443020828101,376,436,0,0,0,2,4,2,24,0002-00-0003-82.png,0004-00-0001-10.png
00000014,130,1,1443020829101,1443020829571,383,446,0,0,0,1,3,2,13,0001-00-0008-91.png,0003-00-0007-12.png
00000014,131,1,1443020830911,1443020831423,401,449,0,0,0,4,5,1,45,0004-00-0006-62.png,0005-00-0003-85.png
00000014,132,0,1443020832462,1443020833093,358,453,0,0,0,4,3,1,43,0004-00-0008-13.png,0003-00-0003-78.png
00000014,133,0,1443020836009,1443020836636,944,417,0,0,0,1,5,4,15,0001-00-0007-25.png,0005-00-0005-87.png
00000014,134,1,1443020839618,1443020840174,889,491,0,0,0,5,2,3,52,0005-00-0002-77.png,0002-00-0003-52.png
00000014,135,1,1443020841234,1443020841795,901,424,0,0,0,4,2,2,42,0004-00-0006-33.png,0002-00-0003-06.png
00000014,136,0,1443020842889,1443020843939,311,384,0,0,0,4,1,3,41,0004-00-0009-92.png,0001-00-0001-03.png
00000014,137,1,1443020846992,1443020847506,901,417,0,0,0,5,1,4,51,0005-00-0005-74.png,0001-00-0004-17.png
00000014,138,0,1443020848482,1443020849024,376,439,0,0,0,5,3,2,53,0005-00-0008-71.png,0003-00-0008-13.png
00000014,139,1,1443020852956,1443020853458,874,490,0,0,0,3,2,1,32,0003-00-0005-12.png,0002-00-0008-23.png
00000014,140,1,1443020854487,1443020855026,913,390,0,0,0,2,1,1,21,0002-00-0004-40.png,0001-00-0003-40.png
00000014,141,1,1443020856120,1443020856690,879,422,0,0,0,5,4,1,54,0005-00-0009-14.png,0004-00-0005-99.png
00000014,142,0,1443020857727,1443020858242,878,417,0,0,0,3,4,1,34,0003-00-0007-96.png,0004-00-0006-62.png
00000014,143,1,1443020861345,1443020861819,376,396,0,0,0,4,5,1,45,0004-00-0004-78.png,0005-00-0001-43.png
00000014,144,1,1443020862879,1443020863408,401,410,0,0,0,1,5,4,15,0001-00-0000-96.png,0005-00-0004-16.png
00000014,145,1,1443020864479,1443020865023,881,446,0,0,0,5,1,4,51,0005-00-0002-60.png,0001-00-0001-94.png
00000014,146,1,1443020866058,1443020866540,376,527,0,0,0,1,2,1,12,0001-00-0003-91.png,0002-00-0001-33.png
00000014,147,1,1443020867689,1443020868230,918,418,0,0,0,4,3,1,43,0004-00-0001-33.png,0003-00-0008-07.png
00000014,148,1,1443020869377,1443020869955,894,496,0,0,0,5,3,2,53,0005-00-0007-30.png,0003-00-0009-49.png
00000014,149,1,1443020871047,1443020871568,293,448,0,0,0,1,4,3,14,0001-00-0005-25.png,0004-00-0004-84.png
00000014,150,0,1443020872698,1443020873309,390,528,0,0,0,4,1,3,41,0004-00-0006-70.png,0001-00-0006-76.png
00000014,151,1,1443020876310,1443020876359,504,421,0,0,0,2,4,2,24,0002-00-0002-75.png,0004-00-0003-87.png
00000014,152,1,1443020877419,1443020877905,341,464,0,0,0,3,5,2,35,0003-00-0002-21.png,0005-00-0009-98.png
00000014,153,1,1443020878849,1443020879793,314,410,0,0,0,2,3,1,23,0002-00-0009-30.png,0003-00-0000-74.png
00000014,154,0,1443020880806,1443020881325,880,445,0,0,0,2,5,3,25,0002-00-0005-97.png,0005-00-0009-43.png
00000014,155,0,1443020884434,1443020884854,312,397,0,0,0,2,1,1,21,0002-00-0007-05.png,0001-00-0006-50.png
00000014,156,1,1443020887824,1443020887856,491,384,0,0,0,1,3,2,13,0001-00-0004-32.png,0003-00-0002-68.png
00000014,157,1,1443020888887,1443020889452,875,461,0,0,0,5,2,3,52,0005-00-0007-74.png,0002-00-0003-21.png
00000014,158,0,1443020890456,1443020891051,401,513,0,0,0,3,2,1,32,0003-00-0005-11.png,0002-00-0009-72.png
00000014,159,1,1443020893944,1443020894442,924,434,0,0,0,3,1,2,31,0003-00-0000-34.png,0001-00-0001-02.png
00000014,160,1,1443020895451,1443020895991,875,528,0,0,0,4,2,2,42,0004-00-0009-94.png,0002-00-0002-05.png
00000014,161,1,1443020897068,1443020897560,376,448,0,0,0,2,3,1,23,0002-00-0000-88.png,0003-00-0008-12.png
00000014,162,1,1443020898517,1443020899096,909,404,0,0,0,4,1,3,41,0004-00-0006-90.png,0001-00-0004-78.png
00000014,163,1,1443020900197,1443020900816,862,410,0,0,0,3,2,1,32,0003-00-0000-77.png,0002-00-0001-21.png
00000014,164,1,1443020901856,1443020902346,389,423,0,0,0,1,4,3,14,0001-00-0002-54.png,0004-00-0007-92.png
00000014,165,1,1443020903388,1443020904007,877,529,0,0,0,2,1,1,21,0002-00-0001-55.png,0001-00-0005-06.png
00000014,166,1,1443020905107,1443020905717,879,453,0,0,0,4,2,2,42,0004-00-0000-37.png,0002-00-0007-63.png
00000014,167,1,1443020906837,1443020907326,337,449,0,0,0,1,5,4,15,0001-00-0008-72.png,0005-00-0004-47.png
00000014,168,1,1443020908401,1443020908939,396,420,0,0,0,2,5,3,25,0002-00-0004-39.png,0005-00-0002-44.png
00000014,169,1,1443020910148,1443020910668,314,441,0,0,0,1,2,1,12,0001-00-0001-95.png,0002-00-0004-83.png
00000014,170,1,1443020911709,1443020912350,867,448,0,0,0,4,3,1,43,0004-00-0002-90.png,0003-00-0001-25.png
00000014,171,1,1443020913518,1443020914099,875,437,0,0,0,5,4,1,54,0005-00-0007-45.png,0004-00-0009-10.png
00000014,172,0,1443020915108,1443020915727,890,510,0,0,0,2,4,2,24,0002-00-0003-11.png,0004-00-0006-75.png
00000014,173,0,1443020918736,1443020919247,889,423,0,0,0,1,3,2,13,0001-00-0006-36.png,0003-00-0009-92.png
00000014,174,1,1443020922592,1443020923066,385,508,0,0,0,4,5,1,45,0004-00-0001-83.png,0005-00-0009-06.png
00000014,175,1,1443020924143,1443020924684,406,435,0,0,0,3,4,1,34,0003-00-0008-54.png,0004-00-0006-96.png
00000014,176,1,1443020925685,1443020926262,919,487,0,0,0,5,1,4,51,0005-00-0009-17.png,0001-00-0002-21.png
00000014,177,1,1443020927284,1443020927904,875,427,0,0,0,5,2,3,52,0005-00-0003-29.png,0002-00-0004-58.png
00000014,178,1,1443020928873,1443020929469,368,453,0,0,0,3,5,2,35,0003-00-0008-16.png,0005-00-0004-46.png
00000014,179,1,1443020930443,1443020931177,875,416,0,0,0,5,3,2,53,0005-00-0002-87.png,0003-00-0005-31.png
00000014,180,1,1443020932213,1443020933274,942,419,0,0,0,3,1,2,31,0003-00-0003-65.png,0001-00-0008-15.png
00000014,181,1,1443020934370,1443020934871,900,413,0,0,0,3,1,2,31,0003-00-0005-38.png,0001-00-0005-75.png
00000014,182,0,1443020935858,1443020936408,366,402,0,0,0,4,3,1,43,0004-00-0001-66.png,0003-00-0000-36.png
00000014,183,1,1443020939352,1443020939885,948,436,0,0,0,3,2,1,32,0003-00-0008-18.png,0002-00-0008-19.png
00000014,184,0,1443020940858,1443020941392,867,513,0,0,0,3,5,2,35,0003-00-0004-62.png,0005-00-0004-65.png
00000014,185,1,1443020944486,1443020944999,311,344,0,0,0,3,4,1,34,0003-00-0006-71.png,0004-00-0002-14.png
00000014,186,1,1443020946066,1443020946613,879,427,0,0,0,2,1,1,21,0002-00-0001-43.png,0001-00-0006-47.png
00000014,187,1,1443020947699,1443020948264,877,496,0,0,0,4,1,3,41,0004-00-0002-45.png,0001-00-0004-73.png
00000014,188,1,1443020949236,1443020949793,913,410,0,0,0,5,3,2,53,0005-00-0009-83.png,0003-00-0001-75.png
00000014,189,1,1443020950787,1443020951356,901,424,0,0,0,4,2,2,42,0004-00-0003-73.png,0002-00-0005-51.png
00000014,190,1,1443020952374,1443020952861,315,413,0,0,0,1,5,4,15,0001-00-0005-24.png,0005-00-0008-79.png
00000014,191,1,1443020954005,1443020954489,376,410,0,0,0,1,3,2,13,0001-00-0005-32.png,0003-00-0000-04.png
00000014,192,1,1443020955522,1443020956101,364,425,0,0,0,2,4,2,24,0002-00-0003-26.png,0004-00-0009-26.png
00000014,193,1,1443020957138,1443020957681,376,384,0,0,0,2,5,3,25,0002-00-0002-72.png,0005-00-0007-69.png
00000014,194,1,1443020958738,1443020959279,384,533,0,0,0,1,4,3,14,0001-00-0006-38.png,0004-00-0005-35.png
00000014,195,1,1443020960702,1443020961162,309,456,0,0,0,1,2,1,12,0001-00-0003-89.png,0002-00-0004-74.png
00000014,196,1,1443020962145,1443020962741,875,502,0,0,0,5,2,3,52,0005-00-0008-64.png,0002-00-0004-03.png
00000014,197,1,1443020963776,1443020964345,916,447,0,0,0,5,4,1,54,0005-00-0004-33.png,0004-00-0009-87.png
00000014,198,1,1443020965396,1443020965926,445,453,0,0,0,4,5,1,45,0004-00-0002-17.png,0005-00-0009-46.png
00000014,199,1,1443020966937,1443020967536,895,455,0,0,0,5,1,4,51,0005-00-0000-33.png,0001-00-0003-47.png
00000014,200,1,1443020968516,1443020969133,385,432,0,0,0,2,3,1,23,0002-00-0003-93.png,0003-00-0004-82.png
00000014,201,0,1443020970166,1443020971111,419,426,0,0,0,2,1,1,21,0002-00-0002-77.png,0001-00-0002-08.png
00000014,202,1,1443020974122,1443020974739,915,415,0,0,0,4,3,1,43,0004-00-0004-64.png,0003-00-0007-36.png
00000014,203,1,1443020975751,1443020976265,414,447,0,0,0,1,3,2,13,0001-00-0000-49.png,0003-00-0006-22.png
00000014,204,0,1443020977213,1443020977825,380,454,0,0,0,5,2,3,52,0005-00-0009-34.png,0002-00-0007-31.png
00000014,205,1,1443020980845,1443020980865,517,393,0,0,0,2,3,1,23,0002-00-0007-63.png,0003-00-0007-92.png
00000014,206,1,1443020981812,1443020982457,356,438,0,0,0,3,4,1,34,0003-00-0002-87.png,0004-00-0004-29.png
00000014,207,0,1443020983373,1443020983953,888,410,0,0,0,2,4,2,24,0002-00-0006-97.png,0004-00-0002-81.png
00000014,208,1,1443020987076,1443020987601,278,379,0,0,0,2,5,3,25,0002-00-0000-31.png,0005-00-0006-23.png
00000014,209,1,1443020988625,1443020989210,875,435,0,0,0,3,2,1,32,0003-00-0002-30.png,0002-00-0003-12.png
00000014,210,1,1443020990181,1443020990758,890,492,0,0,0,5,4,1,54,0005-00-0000-87.png,0004-00-0002-19.png
00000014,211,1,1443020991772,1443020992293,906,403,0,0,0,4,1,3,41,0004-00-0005-24.png,0001-00-0007-41.png
00000014,212,1,1443020993621,1443020994104,401,448,0,0,0,1,2,1,12,0001-00-0002-35.png,0002-00-0007-80.png
00000014,213,1,1443020995171,1443020995763,879,428,0,0,0,4,2,2,42,0004-00-0007-85.png,0002-00-0000-02.png
00000014,214,1,1443020996772,1443020997362,454,406,0,0,0,3,5,2,35,0003-00-0005-19.png,0005-00-0006-47.png
00000014,215,1,1443020998391,1443020998876,415,435,0,0,0,1,5,4,15,0001-00-0004-74.png,0005-00-0001-07.png
00000014,216,1,1443020999900,1443021000473,406,515,0,0,0,1,4,3,14,0001-00-0008-14.png,0004-00-0003-57.png
00000014,217,1,1443021001572,1443021002130,890,449,0,0,0,3,1,2,31,0003-00-0005-89.png,0001-00-0001-26.png
00000014,218,0,1443021003170,1443021003759,870,453,0,0,0,4,5,1,45,0004-00-0001-95.png,0005-00-0002-70.png
00000014,219,0,1443021006775,1443021006831,432,420,0,0,0,5,1,4,51,0005-00-0003-04.png,0001-00-0000-64.png
00000014,220,1,1443021009870,1443021010442,921,414,0,0,0,5,3,2,53,0005-00-0005-95.png,0003-00-0006-17.png
00000014,221,0,1443021011460,1443021011992,414,449,0,0,0,2,1,1,21,0002-00-0003-52.png,0001-00-0005-46.png
00000014,222,0,1443021014845,1443021015294,335,399,0,0,0,3,1,2,31,0003-00-0009-28.png,0001-00-0001-75.png
00000014,223,0,1443021018638,1443021019140,414,410,0,0,0,5,3,2,53,0005-00-0002-18.png,0003-00-0001-10.png
00000014,224,0,1443021022162,1443021022645,858,446,0,0,0,3,5,2,35,0003-00-0006-51.png,0005-00-0002-68.png
00000014,225,1,1443021025850,1443021026314,341,428,0,0,0,1,5,4,15,0001-00-0000-99.png,0005-00-0004-36.png
00000014,226,0,1443021027318,1443021027841,401,410,0,0,0,4,2,2,42,0004-00-0008-99.png,0002-00-0002-70.png
00000014,227,1,1443021030677,1443021030705,514,400,0,0,0,4,5,1,45,0004-00-0000-61.png,0005-00-0002-43.png
00000014,228,1,1443021031842,1443021032313,293,460,0,0,0,2,4,2,24,0002-00-0008-01.png,0004-00-0004-27.png
00000014,229,0,1443021033370,1443021033861,413,450,0,0,0,4,1,3,41,0004-00-0003-90.png,0001-00-0009-42.png
00000014,230,1,1443021036832,1443021037378,965,423,0,0,0,5,1,4,51,0005-00-0004-70.png,0001-00-0005-52.png
00000014,231,1,1443021038339,1443021038860,337,450,0,0,0,2,3,1,23,0002-00-0002-13.png,0003-00-0001-37.png
00000014,232,0,1443021040043,1443021040577,875,462,0,0,0,2,5,3,25,0002-00-0008-56.png,0005-00-0005-94.png
00000014,233,1,1443021043682,1443021044157,220,507,0,0,0,3,4,1,34,0003-00-0001-75.png,0004-00-0005-85.png
00000014,234,1,1443021045120,1443021045666,400,538,0,0,0,1,4,3,14,0001-00-0000-82.png,0004-00-0006-46.png
00000014,235,1,1443021046681,1443021047261,860,424,0,0,0,5,4,1,54,0005-00-0008-43.png,0004-00-0003-93.png
00000014,236,1,1443021048316,1443021048934,904,427,0,0,0,3,2,1,32,0003-00-0000-58.png,0002-00-0000-73.png
00000014,237,1,1443021049951,1443021050505,898,429,0,0,0,4,3,1,43,0004-00-0001-76.png,0003-00-0003-13.png
00000014,238,0,1443021051481,1443021052679,314,396,0,0,0,5,2,3,52,0005-00-0000-52.png,0002-00-0003-23.png
00000014,239,1,1443021055765,1443021056737,403,419,0,0,0,1,3,2,13,0001-00-0009-89.png,0003-00-0003-72.png
00000014,240,0,1443021057853,1443021058441,877,436,0,0,0,1,2,1,12,0001-00-0002-17.png,0002-00-0001-62.png
00000014,241,1,1443021061401,1443021061887,894,538,0,0,0,5,2,3,52,0005-00-0008-92.png,0002-00-0005-78.png
00000014,242,0,1443021062861,1443021063342,401,436,0,0,0,3,2,1,32,0003-00-0004-82.png,0002-00-0003-80.png
00000014,243,0,1443021066460,1443021066914,876,424,0,0,0,2,4,2,24,0002-00-0000-05.png,0004-00-0008-98.png
00000014,244,1,1443021069797,1443021070668,381,511,0,0,0,2,3,1,23,0002-00-0001-45.png,0003-00-0000-93.png
00000014,245,1,1443021071606,1443021072131,397,446,0,0,0,1,3,2,13,0001-00-0008-85.png,0003-00-0000-97.png
00000014,246,1,1443021073197,1443021073761,893,417,0,0,0,5,3,2,53,0005-00-0003-56.png,0003-00-0007-11.png
00000014,247,1,1443021074728,1443021075251,413,424,0,0,0,2,5,3,25,0002-00-0009-03.png,0005-00-0005-40.png
00000014,248,1,1443021076216,1443021076731,338,424,0,0,0,3,4,1,34,0003-00-0005-81.png,0004-00-0002-16.png
00000014,249,0,1443021077728,1443021078372,871,516,0,0,0,1,4,3,14,0001-00-0001-19.png,0004-00-0001-45.png
00000014,250,0,1443021081613,1443021082080,893,437,0,0,0,3,5,2,35,0003-00-0007-02.png,0005-00-0001-02.png
00000014,251,1,1443021085160,1443021085641,874,441,0,0,0,5,4,1,54,0005-00-0003-77.png,0004-00-0008-27.png
00000014,252,1,1443021086733,1443021087279,289,442,0,0,0,1,5,4,15,0001-00-0005-72.png,0005-00-0001-88.png
00000014,253,0,1443021088273,1443021088907,894,495,0,0,0,4,5,1,45,0004-00-0005-52.png,0005-00-0001-22.png
00000014,254,1,1443021092011,1443021092450,876,397,0,0,0,3,1,2,31,0003-00-0005-87.png,0001-00-0001-50.png
00000014,255,1,1443021093511,1443021094085,874,499,0,0,0,2,1,1,21,0002-00-0009-15.png,0001-00-0006-50.png
00000014,256,0,1443021095112,1443021095665,424,417,0,0,0,4,1,3,41,0004-00-0002-63.png,0001-00-0004-93.png
00000014,257,0,1443021098496,1443021098997,335,397,0,0,0,5,1,4,51,0005-00-0001-02.png,0001-00-0001-30.png
00000014,258,0,1443021102066,1443021102547,405,449,0,0,0,4,3,1,43,0004-00-0003-55.png,0003-00-0005-01.png
00000014,259,0,1443021105477,1443021106122,930,392,0,0,0,1,2,1,12,0001-00-0005-55.png,0002-00-0001-67.png
00000014,260,1,1443021109086,1443021109596,952,383,0,0,0,4,2,2,42,0004-00-0006-01.png,0002-00-0006-92.png
00000014,261,1,1443021110566,1443021111100,891,512,0,0,0,5,1,4,51,0005-00-0006-86.png,0001-00-0009-58.png
00000014,262,0,1443021112097,1443021112670,299,410,0,0,0,5,4,1,54,0005-00-0000-02.png,0004-00-0001-95.png
00000014,263,0,1443021115606,1443021116198,918,479,0,0,0,4,5,1,45,0004-00-0003-69.png,0005-00-0009-67.png
00000014,264,0,1443021119046,1443021119058,499,348,0,0,0,4,1,3,41,0004-00-0000-85.png,0001-00-0002-38.png
00000014,265,1,1443021122331,1443021122836,350,410,0,0,0,2,5,3,25,0002-00-0007-86.png,0005-00-0004-32.png
00000014,266,1,1443021123873,1443021124364,366,520,0,0,0,1,4,3,14,0001-00-0009-70.png,0004-00-0005-70.png
00000014,267,1,1443021125295,1443021125863,862,502,0,0,0,2,1,1,21,0002-00-0000-64.png,0001-00-0009-56.png
00000014,268,1,1443021126837,1443021127403,859,500,0,0,0,3,1,2,31,0003-00-0001-53.png,0001-00-0009-03.png
00000014,269,1,1443021128305,1443021128909,325,411,0,0,0,1,5,4,15,0001-00-0004-00.png,0005-00-0003-57.png
00000014,270,0,1443021129893,1443021130356,336,432,0,0,0,4,2,2,42,0004-00-0006-86.png,0002-00-0003-73.png
00000014,271,1,1443021133405,1443021133901,290,393,0,0,0,2,3,1,23,0002-00-0008-16.png,0003-00-0007-32.png
00000014,272,1,1443021134874,1443021135470,878,480,0,0,0,5,2,3,52,0005-00-0004-45.png,0002-00-0004-38.png
00000014,273,0,1443021136869,1443021137331,879,453,0,0,0,3,4,1,34,0003-00-0004-09.png,0004-00-0002-61.png
00000014,274,1,1443021140220,1443021140778,878,439,0,0,0,3,2,1,32,0003-00-0000-31.png,0002-00-0002-20.png
00000014,275,0,1443021141750,1443021142340,875,488,0,0,0,1,3,2,13,0001-00-0008-50.png,0003-00-0001-62.png
00000014,276,1,1443021145235,1443021145659,346,393,0,0,0,1,2,1,12,0001-00-0000-19.png,0002-00-0009-51.png
00000014,277,0,1443021146731,1443021147551,407,436,0,0,0,5,3,2,53,0005-00-0003-59.png,0003-00-0003-57.png
00000014,278,1,1443021150542,1443021150562,486,315,0,0,0,3,5,2,35,0003-00-0003-56.png,0005-00-0006-82.png
00000014,279,1,1443021151530,1443021152025,299,410,0,0,0,2,4,2,24,0002-00-0002-06.png,0004-00-0004-55.png
00000014,280,1,1443021152961,1443021153549,875,438,0,0,0,4,3,1,43,0004-00-0003-79.png,0003-00-0002-52.png
00000014,281,1,1443021154600,1443021155161,899,441,0,0,0,5,3,2,53,0005-00-0007-02.png,0003-00-0009-07.png
00000014,282,1,1443021156140,1443021157082,427,423,0,0,0,3,5,2,35,0003-00-0001-52.png,0005-00-0007-22.png
00000014,283,1,1443021158100,1443021158649,887,450,0,0,0,2,1,1,21,0002-00-0007-48.png,0001-00-0005-09.png
00000014,284,0,1443021159590,1443021160196,862,424,0,0,0,1,2,1,12,0001-00-0009-69.png,0002-00-0001-99.png
00000014,285,1,1443021163246,1443021163756,883,447,0,0,0,4,2,2,42,0004-00-0002-01.png,0002-00-0001-84.png
00000014,286,1,1443021165459,1443021165927,299,423,0,0,0,1,5,4,15,0001-00-0003-24.png,0005-00-0002-41.png
00000014,287,0,1443021167434,1443021167930,873,476,0,0,0,4,5,1,45,0004-00-0004-20.png,0005-00-0000-43.png
00000014,288,1,1443021170990,1443021171486,386,458,0,0,0,3,4,1,34,0003-00-0007-65.png,0004-00-0007-39.png
00000014,289,1,1443021172440,1443021173081,901,436,0,0,0,5,4,1,54,0005-00-0004-97.png,0004-00-0000-18.png
00000014,290,1,1443021174026,1443021175081,361,404,0,0,0,1,3,2,13,0001-00-0009-20.png,0003-00-0001-56.png
00000014,291,1,1443021175998,1443021176521,908,415,0,0,0,3,1,2,31,0003-00-0009-52.png,0001-00-0002-06.png
00000014,292,0,1443021177525,1443021178023,409,464,0,0,0,4,3,1,43,0004-00-0005-04.png,0003-00-0000-83.png
00000014,293,1,1443021181116,1443021181574,394,460,0,0,0,1,4,3,14,0001-00-0007-72.png,0004-00-0008-38.png
00000014,294,1,1443021182526,1443021183056,904,428,0,0,0,5,1,4,51,0005-00-0007-67.png,0001-00-0000-51.png
00000014,295,1,1443021184103,1443021184716,350,474,0,0,0,2,3,1,23,0002-00-0004-64.png,0003-00-0008-08.png
00000014,296,1,1443021185696,1443021186262,906,440,0,0,0,4,1,3,41,0004-00-0009-94.png,0001-00-0005-82.png
00000014,297,1,1443021187197,1443021187684,344,434,0,0,0,2,4,2,24,0002-00-0004-91.png,0004-00-0004-13.png
00000014,298,0,1443021189087,1443021190068,335,404,0,0,0,3,2,1,32,0003-00-0003-53.png,0002-00-0008-42.png
00000014,299,0,1443021192928,1443021193365,376,410,0,0,0,5,2,3,52,0005-00-0001-47.png,0002-00-0002-77.png
00000014,300,1,1443021196220,1443021196228,509,348,0,0,0,2,5,3,25,0002-00-0004-37.png,0005-00-0002-48.png
00000014,301,0,1443021197347,1443021197808,313,442,0,0,0,2,1,1,21,0002-00-0005-51.png,0001-00-0000-57.png
00000014,302,1,1443021200792,1443021201376,926,410,0,0,0,3,2,1,32,0003-00-0006-66.png,0002-00-0004-15.png
00000014,303,0,1443021202372,1443021203341,440,416,0,0,0,5,1,4,51,0005-00-0009-88.png,0001-00-0002-44.png
00000014,304,1,1443021206279,1443021206303,498,332,0,0,0,1,4,3,14,0001-00-0002-76.png,0004-00-0003-46.png
00000014,305,1,1443021207443,1443021207891,401,408,0,0,0,2,5,3,25,0002-00-0008-90.png,0005-00-0002-87.png
00000014,306,0,1443021208933,1443021209443,394,452,0,0,0,3,1,2,31,0003-00-0006-96.png,0001-00-0002-01.png
00000014,307,1,1443021212480,1443021212911,336,393,0,0,0,2,4,2,24,0002-00-0007-64.png,0004-00-0008-59.png
00000014,308,1,1443021213993,1443021214501,376,423,0,0,0,4,5,1,45,0004-00-0003-60.png,0005-00-0008-97.png
00000014,309,1,1443021215444,1443021216005,338,450,0,0,0,1,5,4,15,0001-00-0002-56.png,0005-00-0006-60.png
00000014,310,0,1443021216924,1443021217969,912,491,0,0,0,1,3,2,13,0001-00-0009-57.png,0003-00-0001-51.png
00000014,311,1,1443021220825,1443021221343,350,358,0,0,0,3,4,1,34,0003-00-0002-77.png,0004-00-0004-19.png
00000014,312,1,1443021222360,1443021222907,879,427,0,0,0,5,3,2,53,0005-00-0004-86.png,0003-00-0001-55.png
00000014,313,1,1443021223849,1443021224513,914,411,0,0,0,4,2,2,42,0004-00-0005-55.png,0002-00-0002-93.png
00000014,314,1,1443021225460,1443021225942,411,429,0,0,0,2,3,1,23,0002-00-0000-88.png,0003-00-0006-08.png
00000014,315,0,1443021226912,1443021227473,389,526,0,0,0,5,2,3,52,0005-00-0000-44.png,0002-00-0000-13.png
00000014,316,0,1443021230477,1443021230935,440,435,0,0,0,4,1,3,41,0004-00-0003-16.png,0001-00-0009-24.png
00000014,317,1,1443021233847,1443021234300,404,457,0,0,0,1,2,1,12,0001-00-0003-18.png,0002-00-0006-97.png
00000014,318,0,1443021235239,1443021235808,443,410,0,0,0,5,4,1,54,0005-00-0009-37.png,0004-00-0009-93.png
00000014,319,0,1443021238837,1443021238857,512,401,0,0,0,4,3,1,43,0004-00-0004-85.png,0003-00-0002-51.png
00000014,320,1,1443021241757,1443021242226,401,410,0,0,0,3,5,2,35,0003-00-0002-23.png,0005-00-0008-95.png
00000014,321,1,1443021243200,1443021243791,909,416,0,0,0,3,1,2,31,0003-00-0005-57.png,0001-00-0006-66.png
00000014,322,1,1443021244880,1443021245401,886,528,0,0,0,5,4,1,54,0005-00-0002-70.png,0004-00-0001-43.png
00000014,323,1,1443021246469,1443021247340,319,409,0,0,0,1,4,3,14,0001-00-0006-15.png,0004-00-0008-18.png
00000014,324,1,1443021248328,1443021249049,395,486,0,0,0,2,3,1,23,0002-00-0005-76.png,0003-00-0002-30.png
00000014,325,0,1443021250015,1443021250627,376,410,0,0,0,4,1,3,41,0004-00-0008-93.png,0001-00-0007-60.png
00000014,326,1,1443021253634,1443021253638,512,410,0,0,0,2,4,2,24,0002-00-0000-78.png,0004-00-0000-02.png
00000014,327,0,1443021255038,1443021255502,373,402,0,0,0,3,2,1,32,0003-00-0005-93.png,0002-00-0003-04.png
00000014,328,0,1443021258376,1443021258424,478,458,0,0,0,5,1,4,51,0005-00-0001-97.png,0001-00-0002-16.png
00000014,329,0,1443021261585,1443021262060,389,461,0,0,0,5,3,2,53,0005-00-0002-52.png,0003-00-0006-63.png
00000014,330,1,1443021265135,1443021265626,302,398,0,0,0,1,3,2,13,0001-00-0008-03.png,0003-00-0003-29.png
00000014,331,0,1443021266661,1443021267186,293,460,0,0,0,2,1,1,21,0002-00-0002-51.png,0001-00-0004-37.png
00000014,332,1,1443021270153,1443021270598,363,450,0,0,0,3,4,1,34,0003-00-0001-81.png,0004-00-0004-05.png
00000014,333,0,1443021271483,1443021272067,401,528,0,0,0,4,2,2,42,0004-00-0007-96.png,0002-00-0004-30.png
00000014,334,1,1443021275440,1443021275885,341,445,0,0,0,1,5,4,15,0001-00-0004-72.png,0005-00-0003-14.png
00000014,335,1,1443021276922,1443021277424,369,453,0,0,0,1,2,1,12,0001-00-0009-90.png,0002-00-0006-24.png
00000014,336,1,1443021278424,1443021279244,413,417,0,0,0,3,5,2,35,0003-00-0005-58.png,0005-00-0006-31.png
00000014,337,1,1443021280227,1443021280842,876,467,0,0,0,5,2,3,52,0005-00-0002-41.png,0002-00-0007-04.png
00000014,338,1,1443021281841,1443021282422,863,482,0,0,0,4,3,1,43,0004-00-0006-80.png,0003-00-0004-37.png
00000014,339,0,1443021283390,1443021284035,914,466,0,0,0,4,5,1,45,0004-00-0000-48.png,0005-00-0000-35.png
00000014,340,1,1443021287028,1443021287522,312,420,0,0,0,2,5,3,25,0002-00-0009-19.png,0005-00-0005-66.png
00000014,341,1,1443021288478,1443021289129,232,488,0,0,0,3,5,2,35,0003-00-0001-63.png,0005-00-0004-89.png
00000014,342,1,1443021290028,1443021290048,478,436,0,0,0,1,5,4,15,0001-00-0004-14.png,0005-00-0001-10.png
00000014,343,0,1443021291224,1443021291825,343,471,0,0,0,5,4,1,54,0005-00-0002-65.png,0004-00-0006-21.png
00000014,344,1,1443021294707,1443021295230,351,385,0,0,0,2,3,1,23,0002-00-0004-87.png,0003-00-0008-76.png
00000014,345,0,1443021296232,1443021296714,336,455,0,0,0,4,2,2,42,0004-00-0002-01.png,0002-00-0000-13.png
00000014,346,0,1443021299806,1443021300280,387,436,0,0,0,3,1,2,31,0003-00-0007-90.png,0001-00-0007-95.png
00000014,347,0,1443021303355,1443021303858,875,501,0,0,0,1,3,2,13,0001-00-0003-45.png,0003-00-0005-61.png
00000014,348,1,1443021306859,1443021307450,365,513,0,0,0,4,5,1,45,0004-00-0005-29.png,0005-00-0002-02.png
00000014,349,0,1443021308436,1443021308991,405,530,0,0,0,3,2,1,32,0003-00-0006-64.png,0002-00-0003-78.png
00000014,350,0,1443021311922,1443021311938,517,368,0,0,0,5,3,2,53,0005-00-0009-13.png,0003-00-0009-63.png
00000014,351,1,1443021314895,1443021315444,343,486,0,0,0,2,4,2,24,0002-00-0000-06.png,0004-00-0004-42.png
00000014,352,1,1443021316507,1443021317087,926,449,0,0,0,2,1,1,21,0002-00-0005-26.png,0001-00-0003-87.png
00000014,353,0,1443021318123,1443021318744,859,554,0,0,0,3,4,1,34,0003-00-0001-13.png,0004-00-0009-10.png
00000014,354,1,1443021321845,1443021322317,337,427,0,0,0,2,5,3,25,0002-00-0001-02.png,0005-00-0003-37.png
00000014,355,1,1443021323275,1443021323798,925,410,0,0,0,5,1,4,51,0005-00-0003-81.png,0001-00-0002-35.png
00000014,356,1,1443021324980,1443021325521,866,469,0,0,0,5,2,3,52,0005-00-0000-69.png,0002-00-0006-15.png
00000014,357,1,1443021326486,1443021327039,878,442,0,0,0,4,3,1,43,0004-00-0006-33.png,0003-00-0005-49.png
00000014,358,0,1443021328036,1443021328648,900,412,0,0,0,1,2,1,12,0001-00-0007-73.png,0002-00-0007-83.png
00000014,359,0,1443021331563,1443021332087,913,459,0,0,0,1,4,3,14,0001-00-0009-08.png,0004-00-0006-89.png
00000014,360,0,1443021335462,1443021335925,401,423,0,0,0,4,1,3,41,0004-00-0004-37.png,0001-00-0004-79.png
00000014,361,1,1443021338903,1443021338931,447,400,0,0,0,2,5,3,25,0002-00-0007-89.png,0005-00-0001-27.png
00000014,362,0,1443021339920,1443021340485,885,425,0,0,0,4,5,1,45,0004-00-0001-70.png,0005-00-0004-81.png
00000014,363,1,1443021343407,1443021343898,901,439,0,0,0,4,1,3,41,0004-00-0001-57.png,0001-00-0002-04.png
00000014,364,1,1443021344780,1443021345483,888,502,0,0,0,4,2,2,42,0004-00-0005-97.png,0002-00-0008-01.png
00000014,365,0,1443021346420,1443021347564,884,455,0,0,0,3,4,1,34,0003-00-0006-20.png,0004-00-0006-17.png
00000014,366,1,1443021350609,1443021351094,887,490,0,0,0,5,4,1,54,0005-00-0000-31.png,0004-00-0004-13.png
00000014,367,1,1443021352019,1443021352606,361,412,0,0,0,2,3,1,23,0002-00-0005-07.png,0003-00-0002-50.png
00000014,368,1,1443021353496,1443021354053,893,534,0,0,0,3,2,1,32,0003-00-0008-76.png,0002-00-0004-84.png
00000014,369,0,1443021355058,1443021355600,361,455,0,0,0,5,3,2,53,0005-00-0000-04.png,0003-00-0001-99.png
00000014,370,0,1443021358594,1443021359047,898,430,0,0,0,1,3,2,13,0001-00-0003-52.png,0003-00-0002-49.png
00000014,371,1,1443021361949,1443021362455,401,435,0,0,0,1,5,4,15,0001-00-0007-18.png,0005-00-0005-44.png
00000014,372,0,1443021363318,1443021363970,887,501,0,0,0,1,4,3,14,0001-00-0000-06.png,0004-00-0004-77.png
00000014,373,1,1443021367020,1443021367581,877,416,0,0,0,5,2,3,52,0005-00-0008-11.png,0002-00-0006-80.png
00000014,374,1,1443021368592,1443021369119,887,528,0,0,0,3,1,2,31,0003-00-0009-63.png,0001-00-0005-49.png
00000014,375,1,1443021370082,1443021370679,893,453,0,0,0,4,3,1,43,0004-00-0008-29.png,0003-00-0005-73.png
00000014,376,1,1443021371737,1443021372632,395,531,0,0,0,3,5,2,35,0003-00-0009-44.png,0005-00-0006-17.png
00000014,377,1,1443021373602,1443021374130,313,445,0,0,0,1,2,1,12,0001-00-0006-70.png,0002-00-0008-60.png
00000014,378,0,1443021375090,1443021375937,334,397,0,0,0,2,1,1,21,0002-00-0008-98.png,0001-00-0006-69.png
00000014,379,0,1443021378798,1443021378826,483,415,0,0,0,5,1,4,51,0005-00-0007-05.png,0001-00-0003-79.png
00000014,380,1,1443021381706,1443021382326,325,378,0,0,0,2,4,2,24,0002-00-0009-72.png,0004-00-0006-54.png
00000014,381,1,1443021383500,1443021384004,900,413,0,0,0,5,3,2,53,0005-00-0007-09.png,0003-00-0002-72.png
00000014,382,1,1443021385010,1443021385505,379,431,0,0,0,2,5,3,25,0002-00-0001-38.png,0005-00-0007-07.png
00000014,383,1,1443021386498,1443021387054,383,410,0,0,0,1,3,2,13,0001-00-0001-20.png,0003-00-0005-22.png
00000014,384,1,1443021388132,1443021388602,376,410,0,0,0,1,5,4,15,0001-00-0004-28.png,0005-00-0009-37.png
00000014,385,1,1443021389731,1443021390259,862,450,0,0,0,4,1,3,41,0004-00-0004-26.png,0001-00-0009-87.png
00000014,386,0,1443021391620,1443021392162,325,424,0,0,0,5,4,1,54,0005-00-0001-96.png,0004-00-0002-09.png
00000014,387,1,1443021395027,1443021395459,362,449,0,0,0,4,5,1,45,0004-00-0003-08.png,0005-00-0000-49.png
00000014,388,1,1443021396779,1443021397227,353,410,0,0,0,3,4,1,34,0003-00-0002-63.png,0004-00-0000-89.png
00000014,389,1,1443021398339,1443021398996,865,475,0,0,0,5,2,3,52,0005-00-0003-66.png,0002-00-0009-38.png
00000014,390,1,1443021400296,1443021400727,401,410,0,0,0,1,4,3,14,0001-00-0008-15.png,0004-00-0005-89.png
00000014,391,1,1443021401861,1443021402370,337,449,0,0,0,1,2,1,12,0001-00-0005-91.png,0002-00-0008-34.png
00000014,392,0,1443021403387,1443021404358,401,528,0,0,0,3,2,1,32,0003-00-0003-30.png,0002-00-0000-42.png
00000014,393,1,1443021411560,1443021411970,896,471,0,0,0,2,1,1,21,0002-00-0000-32.png,0001-00-0005-16.png
00000014,394,0,1443021413520,1443021414420,401,424,0,0,0,4,3,1,43,0004-00-0004-56.png,0003-00-0004-97.png
00000014,395,1,1443021424252,1443021424688,910,498,0,0,0,5,1,4,51,0005-00-0000-15.png,0001-00-0008-22.png
00000014,396,0,1443021426292,1443021426763,868,561,0,0,0,3,5,2,35,0003-00-0002-48.png,0005-00-0005-96.png
00000014,397,1,1443021429771,1443021429791,462,339,0,0,0,2,4,2,24,0002-00-0006-24.png,0004-00-0007-91.png
00000014,398,1,1443021431005,1443021432017,863,396,0,0,0,4,2,2,42,0004-00-0001-45.png,0002-00-0007-36.png
00000014,399,0,1443021433188,1443021433651,401,462,0,0,0,3,1,2,31,0003-00-0003-00.png,0001-00-0004-79.png
00000014,400,1,1443021436830,1443021437297,401,436,0,0,0,2,3,1,23,0002-00-0008-89.png,0003-00-0008-70.png
00000014,401,1,1443021438690,1443021439233,390,554,0,0,0,2,4,2,24,0002-00-0009-88.png,0004-00-0006-38.png
00000014,402,1,1443021440298,1443021440794,386,475,0,0,0,3,5,2,35,0003-00-0004-82.png,0005-00-0001-32.png
00000014,403,0,1443021441900,1443021442859,397,494,0,0,0,3,1,2,31,0003-00-0005-83.png,0001-00-0001-22.png
00000014,404,1,1443021446033,1443021446524,882,421,0,0,0,5,1,4,51,0005-00-0009-78.png,0001-00-0005-41.png
00000014,405,1,1443021447631,1443021448198,875,450,0,0,0,4,2,2,42,0004-00-0006-14.png,0002-00-0002-19.png
00000014,406,1,1443021449342,1443021450218,870,501,0,0,0,5,2,3,52,0005-00-0009-54.png,0002-00-0009-18.png
00000014,407,1,1443021452041,1443021452527,926,474,0,0,0,4,1,3,41,0004-00-0005-85.png,0001-00-0002-06.png
00000014,408,0,1443021454430,1443021454987,887,476,0,0,0,1,4,3,14,0001-00-0009-34.png,0004-00-0001-01.png
00000014,409,1,1443021466645,1443021467135,873,491,0,0,0,3,2,1,32,0003-00-0007-80.png,0002-00-0001-20.png
00000014,410,0,1443021468199,1443021468763,875,429,0,0,0,3,4,1,34,0003-00-0001-69.png,0004-00-0002-14.png
00000014,411,1,1443021472054,1443021472542,299,404,0,0,0,2,5,3,25,0002-00-0006-83.png,0005-00-0002-04.png
00000014,412,1,1443021473734,1443021474270,883,447,0,0,0,5,3,2,53,0005-00-0002-10.png,0003-00-0008-54.png
00000014,413,1,1443021475443,1443021475957,382,541,0,0,0,1,5,4,15,0001-00-0002-73.png,0005-00-0009-55.png
00000014,414,0,1443021477503,1443021477958,908,471,0,0,0,1,2,1,12,0001-00-0007-11.png,0002-00-0003-25.png
00000014,415,0,1443021481517,1443021482024,395,392,0,0,0,5,4,1,54,0005-00-0005-57.png,0004-00-0009-73.png
00000014,416,0,1443021485134,1443021485612,899,429,0,0,0,4,5,1,45,0004-00-0008-50.png,0005-00-0003-21.png
00000014,417,1,1443021488643,1443021489142,393,427,0,0,0,2,3,1,23,0002-00-0009-71.png,0003-00-0003-59.png
00000014,418,0,1443021490305,1443021490780,345,541,0,0,0,2,1,1,21,0002-00-0001-81.png,0001-00-0003-53.png
00000014,419,1,1443021493761,1443021494726,442,449,0,0,0,1,3,2,13,0001-00-0001-11.png,0003-00-0007-47.png
00000014,420,1,1443021495781,1443021496324,900,488,0,0,0,4,3,1,43,0004-00-0007-67.png,0003-00-0002-42.png
00000014,421,1,1443021497381,1443021497907,887,450,0,0,0,3,1,2,31,0003-00-0007-71.png,0001-00-0004-43.png
00000014,422,1,1443021498852,1443021499503,876,435,0,0,0,5,2,3,52,0005-00-0008-20.png,0002-00-0000-87.png
00000014,423,1,1443021500471,1443021500958,427,448,0,0,0,2,5,3,25,0002-00-0002-37.png,0005-00-0006-26.png
00000014,424,1,1443021501861,1443021502393,891,474,0,0,0,4,1,3,41,0004-00-0000-83.png,0001-00-0002-73.png
00000014,425,0,1443021503351,1443021504314,420,444,0,0,0,3,2,1,32,0003-00-0004-79.png,0002-00-0001-94.png
00000014,426,1,1443021507194,1443021507752,342,408,0,0,0,4,5,1,45,0004-00-0003-35.png,0005-00-0005-08.png
00000014,427,0,1443021508749,1443021509807,273,442,0,0,0,4,3,1,43,0004-00-0009-24.png,0003-00-0007-52.png
00000014,428,0,1443021512844,1443021513375,362,533,0,0,0,2,1,1,21,0002-00-0001-69.png,0001-00-0004-46.png
00000014,429,0,1443021516429,1443021516873,857,527,0,0,0,1,2,1,12,0001-00-0004-64.png,0002-00-0003-25.png
00000014,430,1,1443021519805,1443021520307,427,424,0,0,0,1,5,4,15,0001-00-0005-89.png,0005-00-0003-11.png
00000014,431,1,1443021522017,1443021522570,313,454,0,0,0,3,5,2,35,0003-00-0008-98.png,0005-00-0007-98.png
00000014,432,1,1443021523666,1443021524229,869,429,0,0,0,5,1,4,51,0005-00-0001-18.png,0001-00-0008-30.png
00000014,433,0,1443021525297,1443021526264,434,421,0,0,0,5,3,2,53,0005-00-0007-95.png,0003-00-0002-17.png
00000014,434,0,1443021536403,1443021536845,927,427,0,0,0,2,3,1,23,0002-00-0004-25.png,0003-00-0007-26.png
00000014,435,1,1443021543447,1443021543943,862,502,0,0,0,4,2,2,42,0004-00-0009-67.png,0002-00-0005-03.png
00000014,436,1,1443021545295,1443021545728,360,458,0,0,0,1,3,2,13,0001-00-0004-42.png,0003-00-0002-50.png
00000014,437,1,1443021546763,1443021547262,360,488,0,0,0,1,4,3,14,0001-00-0006-09.png,0004-00-0007-80.png
00000014,438,1,1443021548186,1443021548763,429,471,0,0,0,3,4,1,34,0003-00-0005-11.png,0004-00-0002-36.png
00000014,439,0,1443021549734,1443021550580,370,410,0,0,0,5,4,1,54,0005-00-0004-57.png,0004-00-0008-82.png
00000014,440,1,1443021562337,1443021562796,329,454,0,0,0,2,4,2,24,0002-00-0000-42.png,0004-00-0004-52.png
00000014,441,1,1443021564120,1443021564667,383,445,0,0,0,3,4,1,34,0003-00-0009-12.png,0004-00-0008-18.png
00000014,442,1,1443021565992,1443021566986,888,450,0,0,0,5,3,2,53,0005-00-0005-74.png,0003-00-0003-44.png
00000014,443,1,1443021568542,1443021569068,900,437,0,0,0,3,1,2,31,0003-00-0000-70.png,0001-00-0001-35.png
00000014,444,1,1443021570431,1443021570936,323,467,0,0,0,3,5,2,35,0003-00-0002-43.png,0005-00-0002-08.png
00000014,445,1,1443021571953,1443021572455,350,452,0,0,0,2,3,1,23,0002-00-0003-44.png,0003-00-0003-19.png
00000014,446,1,1443021573422,1443021574006,899,531,0,0,0,5,2,3,52,0005-00-0008-75.png,0002-00-0000-63.png
00000014,447,1,1443021575515,1443021575973,433,437,0,0,0,1,5,4,15,0001-00-0005-32.png,0005-00-0003-74.png
00000014,448,1,1443021577043,1443021577563,875,514,0,0,0,4,1,3,41,0004-00-0008-66.png,0001-00-0005-97.png
00000014,449,1,1443021578580,1443021579124,427,462,0,0,0,2,5,3,25,0002-00-0009-07.png,0005-00-0001-55.png
00000014,450,1,1443021580109,1443021580663,901,450,0,0,0,2,1,1,21,0002-00-0002-45.png,0001-00-0008-92.png
00000014,451,1,1443021581756,1443021582293,376,462,0,0,0,2,4,2,24,0002-00-0003-13.png,0004-00-0003-31.png
00000014,452,1,1443021583243,1443021583937,885,471,0,0,0,4,2,2,42,0004-00-0008-56.png,0002-00-0005-32.png
00000014,453,0,1443021584887,1443021585926,434,394,0,0,0,4,3,1,43,0004-00-0006-45.png,0003-00-0007-87.png
00000014,454,1,1443021590377,1443021590815,387,465,0,0,0,1,3,2,13,0001-00-0003-33.png,0003-00-0006-42.png
00000014,455,1,1443021591988,1443021592550,886,477,0,0,0,3,2,1,32,0003-00-0009-85.png,0002-00-0001-05.png
00000014,456,1,1443021593747,1443021594210,314,450,0,0,0,1,2,1,12,0001-00-0009-76.png,0002-00-0005-03.png
00000014,457,1,1443021595198,1443021595772,350,475,0,0,0,1,4,3,14,0001-00-0008-32.png,0004-00-0002-80.png
00000014,458,1,1443021596899,1443021597984,902,546,0,0,0,5,1,4,51,0005-00-0002-76.png,0001-00-0002-67.png
00000014,459,1,1443021598984,1443021600224,897,445,0,0,0,5,4,1,54,0005-00-0003-97.png,0004-00-0007-80.png
00000014,460,1,1443021601225,1443021601919,383,449,0,0,0,4,5,1,45,0004-00-0000-89.png,0005-00-0007-03.png
00000014,461,1,1443021602921,1443021603515,889,553,0,0,0,5,1,4,51,0005-00-0009-36.png,0001-00-0005-94.png
00000014,462,0,1443021604536,1443021605072,876,462,0,0,0,2,3,1,23,0002-00-0003-02.png,0003-00-0008-88.png
00000014,463,1,1443021609995,1443021610576,893,487,0,0,0,5,3,2,53,0005-00-0006-58.png,0003-00-0006-93.png
00000014,464,1,1443021611954,1443021612467,392,473,0,0,0,1,3,2,13,0001-00-0004-80.png,0003-00-0002-89.png
00000014,465,1,1443021613763,1443021614294,880,453,0,0,0,3,1,2,31,0003-00-0009-64.png,0001-00-0001-56.png
00000014,466,1,1443021615572,1443021616105,376,410,0,0,0,1,2,1,12,0001-00-0003-97.png,0002-00-0001-21.png
00000014,467,1,1443021617323,1443021617764,392,548,0,0,0,1,5,4,15,0001-00-0001-16.png,0005-00-0002-22.png
00000014,468,0,1443021618881,1443021619373,420,531,0,0,0,4,3,1,43,0004-00-0001-66.png,0003-00-0002-65.png
00000014,469,1,1443021623261,1443021623760,426,471,0,0,0,4,5,1,45,0004-00-0002-55.png,0005-00-0003-65.png
00000014,470,1,1443021624826,1443021625276,376,449,0,0,0,3,4,1,34,0003-00-0004-80.png,0004-00-0009-62.png
00000014,471,1,1443021626306,1443021626827,860,529,0,0,0,4,1,3,41,0004-00-0001-48.png,0001-00-0004-72.png
00000014,472,0,1443021627847,1443021628420,412,564,0,0,0,5,2,3,52,0005-00-0004-81.png,0002-00-0000-33.png
00000014,473,1,1443021631719,1443021632868,907,488,0,0,0,4,2,2,42,0004-00-0005-75.png,0002-00-0003-17.png
00000014,474,0,1443021633969,1443021634445,361,536,0,0,0,2,1,1,21,0002-00-0005-87.png,0001-00-0001-79.png
00000014,475,1,1443021637498,1443021637981,390,436,0,0,0,2,5,3,25,0002-00-0002-60.png,0005-00-0002-89.png
00000014,476,1,1443021639137,1443021639708,879,428,0,0,0,3,2,1,32,0003-00-0001-18.png,0002-00-0001-34.png
00000014,477,1,1443021640687,1443021641210,403,445,0,0,0,2,4,2,24,0002-00-0004-26.png,0004-00-0005-27.png
00000014,478,1,1443021642199,1443021642691,343,442,0,0,0,3,5,2,35,0003-00-0005-05.png,0005-00-0003-21.png
00000014,479,1,1443021643630,1443021644804,860,424,0,0,0,5,4,1,54,0005-00-0000-64.png,0004-00-0008-87.png
00000014,480,0,1443021645795,1443021646357,874,438,0,0,0,1,4,3,14,0001-00-0002-18.png,0004-00-0001-49.png
00000014,481,1,1443021650568,1443021651022,879,428,0,0,0,4,1,3,41,0004-00-0000-06.png,0001-00-0005-93.png
00000014,482,1,1443021651987,1443021652438,413,462,0,0,0,1,3,2,13,0001-00-0004-43.png,0003-00-0002-83.png
00000014,483,1,1443021653418,1443021653973,888,424,0,0,0,4,3,1,43,0004-00-0001-12.png,0003-00-0004-46.png
00000014,484,0,1443021654937,1443021655966,912,424,0,0,0,3,5,2,35,0003-00-0004-16.png,0005-00-0008-33.png
00000014,485,0,1443021658962,1443021658982,474,411,0,0,0,5,1,4,51,0005-00-0001-35.png,0001-00-0005-94.png
00000014,486,0,1443021662071,1443021662617,299,362,0,0,0,5,2,3,52,0005-00-0004-95.png,0002-00-0009-32.png
00000014,487,1,1443021667748,1443021668221,342,506,0,0,0,2,5,3,25,0002-00-0005-30.png,0005-00-0002-54.png
00000014,488,0,1443021669323,1443021669813,357,469,0,0,0,5,4,1,54,0005-00-0002-10.png,0004-00-0000-57.png
00000014,489,1,1443021673990,1443021674500,877,438,0,0,0,3,2,1,32,0003-00-0008-24.png,0002-00-0000-23.png
00000014,490,0,1443021675552,1443021676023,299,450,0,0,0,4,2,2,42,0004-00-0004-60.png,0002-00-0007-15.png
00000014,491,1,1443021679242,1443021679699,363,399,0,0,0,1,5,4,15,0001-00-0003-15.png,0005-00-0001-13.png
00000014,492,0,1443021680717,1443021681203,369,427,0,0,0,2,1,1,21,0002-00-0007-90.png,0001-00-0001-08.png
00000014,493,1,1443021684263,1443021684690,444,428,0,0,0,2,3,1,23,0002-00-0004-45.png,0003-00-0004-83.png
00000014,494,1,1443021685648,1443021686263,405,465,0,0,0,1,4,3,14,0001-00-0007-82.png,0004-00-0005-20.png
00000014,495,0,1443021687146,1443021687868,889,465,0,0,0,4,5,1,45,0004-00-0009-63.png,0005-00-0006-86.png
00000014,496,0,1443021690891,1443021691472,875,502,0,0,0,3,4,1,34,0003-00-0006-06.png,0004-00-0005-13.png
00000014,497,1,1443021695346,1443021695872,406,437,0,0,0,2,4,2,24,0002-00-0000-04.png,0004-00-0003-36.png
00000014,498,1,1443021696887,1443021697383,420,419,0,0,0,1,2,1,12,0001-00-0005-20.png,0002-00-0004-12.png
00000014,499,0,1443021698415,1443021699372,384,419,0,0,0,3,1,2,31,0003-00-0007-13.png,0001-00-0004-93.png
00000014,500,0,1443021702248,1443021702658,350,451,0,0,0,5,3,2,53,0005-00-0002-48.png,0003-00-0000-25.png
00000014,501,1,1443021705629,1443021706158,362,517,0,0,0,3,5,2,35,0003-00-0004-10.png,0005-00-0000-51.png
00000014,502,0,1443021707052,1443021707890,435,420,0,0,0,5,4,1,54,0005-00-0009-53.png,0004-00-0005-48.png
00000014,503,1,1443021710880,1443021710892,478,424,0,0,0,1,2,1,12,0001-00-0002-86.png,0002-00-0009-59.png
00000014,504,1,1443021711882,1443021712452,875,424,0,0,0,5,1,4,51,0005-00-0006-69.png,0001-00-0001-80.png
00000014,505,1,1443021713424,1443021713902,414,437,0,0,0,1,5,4,15,0001-00-0001-26.png,0005-00-0005-78.png
00000014,506,1,1443021714855,1443021715477,403,437,0,0,0,4,5,1,45,0004-00-0006-32.png,0005-00-0004-11.png
00000014,507,0,1443021716373,1443021716873,350,422,0,0,0,3,2,1,32,0003-00-0001-13.png,0002-00-0008-32.png
00000014,508,0,1443021719833,1443021720339,337,423,0,0,0,5,2,3,52,0005-00-0005-39.png,0002-00-0008-27.png
00000014,509,1,1443021723199,1443021723660,376,462,0,0,0,2,4,2,24,0002-00-0008-07.png,0004-00-0001-42.png
00000014,510,1,1443021724657,1443021725245,350,436,0,0,0,2,3,1,23,0002-00-0001-58.png,0003-00-0006-87.png
00000014,511,1,1443021726184,1443021726747,864,474,0,0,0,4,3,1,43,0004-00-0004-78.png,0003-00-0006-90.png
00000014,512,1,1443021727795,1443021728357,879,454,0,0,0,5,3,2,53,0005-00-0008-08.png,0003-00-0001-32.png
00000014,513,1,1443021729354,1443021729947,874,438,0,0,0,2,1,1,21,0002-00-0003-05.png,0001-00-0006-51.png
00000014,514,1,1443021730913,1443021731359,412,450,0,0,0,1,4,3,14,0001-00-0007-59.png,0004-00-0009-86.png
00000014,515,1,1443021732802,1443021733295,871,445,0,0,0,3,1,2,31,0003-00-0008-42.png,0001-00-0006-35.png
00000014,516,1,1443021734287,1443021734795,329,428,0,0,0,3,4,1,34,0003-00-0004-18.png,0004-00-0007-68.png
00000014,517,0,1443021735724,1443021736213,401,554,0,0,0,4,2,2,42,0004-00-0002-51.png,0002-00-0003-73.png
00000014,518,0,1443021739471,1443021739957,410,419,0,0,0,4,1,3,41,0004-00-0004-80.png,0001-00-0008-34.png
00000014,519,1,1443021743073,1443021743506,413,439,0,0,0,2,5,3,25,0002-00-0003-59.png,0005-00-0002-17.png
00000014,520,1,1443021744418,1443021744939,350,435,0,0,0,1,3,2,13,0001-00-0005-65.png,0003-00-0004-72.png
00000014,521,1,1443021745814,1443021746404,869,440,0,0,0,4,1,3,41,0004-00-0007-84.png,0001-00-0000-33.png
00000014,522,0,1443021747341,1443021747952,870,452,0,0,0,4,5,1,45,0004-00-0006-60.png,0005-00-0005-82.png
00000014,523,0,1443021750964,1443021751013,478,395,0,0,0,3,2,1,32,0003-00-0009-43.png,0002-00-0003-11.png
00000014,524,1,1443021753855,1443021753922,504,462,0,0,0,3,5,2,35,0003-00-0000-83.png,0005-00-0003-23.png
00000014,525,0,1443021754973,1443021755505,407,549,0,0,0,5,4,1,54,0005-00-0004-08.png,0004-00-0007-19.png
00000014,526,1,1443021758600,1443021759027,422,411,0,0,0,2,4,2,24,0002-00-0005-81.png,0004-00-0008-13.png
00000014,527,1,1443021760020,1443021760537,406,436,0,0,0,2,5,3,25,0002-00-0007-82.png,0005-00-0007-40.png
00000014,528,1,1443021761446,1443021762016,875,450,0,0,0,5,2,3,52,0005-00-0004-84.png,0002-00-0001-50.png
00000014,529,1,1443021762961,1443021763467,357,419,0,0,0,1,5,4,15,0001-00-0005-24.png,0005-00-0006-99.png
00000014,530,1,1443021764403,1443021764901,408,549,0,0,0,1,2,1,12,0001-00-0006-01.png,0002-00-0007-24.png
00000014,531,0,1443021765839,1443021766314,417,439,0,0,0,2,1,1,21,0002-00-0004-69.png,0001-00-0000-43.png
00000014,532,1,1443021770049,1443021770521,875,475,0,0,0,5,1,4,51,0005-00-0006-22.png,0001-00-0006-09.png
00000014,533,0,1443021771469,1443021772050,913,436,0,0,0,1,3,2,13,0001-00-0004-41.png,0003-00-0006-41.png
00000014,534,0,1443021774957,1443021774961,494,428,0,0,0,4,3,1,43,0004-00-0004-96.png,0003-00-0008-71.png
00000014,535,1,1443021778158,1443021778640,350,450,0,0,0,2,3,1,23,0002-00-0004-11.png,0003-00-0004-11.png
00000014,536,1,1443021779663,1443021780213,888,436,0,0,0,3,1,2,31,0003-00-0005-13.png,0001-00-0004-01.png
00000014,537,1,1443021781232,1443021781779,406,542,0,0,0,3,4,1,34,0003-00-0002-60.png,0004-00-0003-96.png
00000014,538,0,1443021782625,1443021783676,420,418,0,0,0,4,2,2,42,0004-00-0001-16.png,0002-00-0005-55.png
00000014,539,0,1443021786703,1443021787176,421,459,0,0,0,5,3,2,53,0005-00-0004-41.png,0003-00-0006-97.png
00000014,540,1,1443021790200,1443021790674,432,428,0,0,0,1,4,3,14,0001-00-0000-25.png,0004-00-0006-42.png
00000014,541,1,1443021791583,1443021792098,441,448,0,0,0,1,5,4,15,0001-00-0006-02.png,0005-00-0009-57.png
00000014,542,0,1443021793034,1443021793614,356,442,0,0,0,5,2,3,52,0005-00-0003-65.png,0002-00-0008-61.png
00000014,543,0,1443021796659,1443021797165,397,440,0,0,0,3,2,1,32,0003-00-0000-36.png,0002-00-0002-26.png
00000014,544,1,1443021800281,1443021800722,418,427,0,0,0,1,2,1,12,0001-00-0005-82.png,0002-00-0006-82.png
00000014,545,1,1443021801697,1443021802202,358,446,0,0,0,1,3,2,13,0001-00-0004-86.png,0003-00-0000-10.png
00000014,546,1,1443021803162,1443021803760,360,423,0,0,0,4,5,1,45,0004-00-0003-01.png,0005-00-0007-31.png
00000014,547,0,1443021804702,1443021805217,427,467,0,0,0,4,2,2,42,0004-00-0003-23.png,0002-00-0003-80.png
00000014,548,1,1443021808229,1443021808738,392,402,0,0,0,2,4,2,24,0002-00-0002-73.png,0004-00-0004-45.png
00000014,549,0,1443021809744,1443021810789,925,422,0,0,0,3,5,2,35,0003-00-0009-37.png,0005-00-0000-19.png
00000014,550,0,1443021813854,1443021813890,440,398,0,0,0,2,1,1,21,0002-00-0005-99.png,0001-00-0007-35.png
00000014,551,1,1443021817305,1443021817848,867,507,0,0,0,5,4,1,54,0005-00-0009-84.png,0004-00-0007-60.png
00000014,552,1,1443021818905,1443021819419,875,443,0,0,0,5,1,4,51,0005-00-0002-37.png,0001-00-0004-39.png
00000014,553,0,1443021820406,1443021820967,864,453,0,0,0,2,3,1,23,0002-00-0004-87.png,0003-00-0005-51.png
00000014,554,1,1443021829981,1443021830426,910,436,0,0,0,4,3,1,43,0004-00-0006-00.png,0003-00-0002-45.png
00000014,555,1,1443021831654,1443021832159,901,460,0,0,0,5,3,2,53,0005-00-0006-33.png,0003-00-0002-58.png
00000014,556,1,1443021833554,1443021833953,358,445,0,0,0,1,4,3,14,0001-00-0009-02.png,0004-00-0000-98.png
00000014,557,1,1443021834915,1443021835437,870,446,0,0,0,3,1,2,31,0003-00-0005-84.png,0001-00-0002-26.png
00000014,558,1,1443021836527,1443021836535,478,436,0,0,0,2,5,3,25,0002-00-0008-91.png,0005-00-0007-20.png
00000014,559,0,1443021837739,1443021838308,873,468,0,0,0,3,4,1,34,0003-00-0003-12.png,0004-00-0003-86.png
00000014,560,1,1443021841145,1443021841702,898,468,0,0,0,4,1,3,41,0004-00-0004-94.png,0001-00-0006-96.png
00000014,561,1,1443021842833,1443021843311,367,427,0,0,0,3,5,2,35,0003-00-0009-79.png,0005-00-0007-61.png
00000014,562,1,1443021844286,1443021845337,899,501,0,0,0,4,2,2,42,0004-00-0008-15.png,0002-00-0000-94.png
00000014,563,1,1443021846224,1443021846742,350,424,0,0,0,2,3,1,23,0002-00-0005-64.png,0003-00-0001-87.png
00000014,564,0,1443021847625,1443021848179,401,450,0,0,0,4,3,1,43,0004-00-0001-75.png,0003-00-0009-25.png
00000014,565,1,1443021858214,1443021858704,879,506,0,0,0,2,1,1,21,0002-00-0004-51.png,0001-00-0008-40.png
00000014,566,1,1443021859767,1443021860250,393,554,0,0,0,1,5,4,15,0001-00-0001-45.png,0005-00-0005-94.png
00000014,567,1,1443021861579,1443021862774,901,533,0,0,0,5,3,2,53,0005-00-0007-29.png,0003-00-0003-95.png
00000014,568,1,1443021863751,1443021864293,900,449,0,0,0,4,1,3,41,0004-00-0001-16.png,0001-00-0002-62.png
00000014,569,0,1443021865307,1443021865904,857,410,0,0,0,2,4,2,24,0002-00-0000-34.png,0004-00-0002-07.png
00000014,570,1,1443021871306,1443021871749,388,508,0,0,0,2,5,3,25,0002-00-0002-83.png,0005-00-0007-67.png
00000014,571,1,1443021872792,1443021873401,881,562,0,0,0,3,1,2,31,0003-00-0005-92.png,0001-00-0007-63.png
00000014,572,0,1443021874348,1443021874880,439,557,0,0,0,5,4,1,54,0005-00-0000-05.png,0004-00-0005-71.png
00000014,573,1,1443021878850,1443021879287,371,392,0,0,0,3,4,1,34,0003-00-0003-36.png,0004-00-0004-32.png
00000014,574,1,1443021880459,1443021880984,314,466,0,0,0,4,5,1,45,0004-00-0000-75.png,0005-00-0000-38.png
00000014,575,1,1443021881920,1443021882420,392,467,0,0,0,1,3,2,13,0001-00-0003-26.png,0003-00-0005-94.png
00000014,576,1,1443021883442,1443021883904,354,466,0,0,0,1,4,3,14,0001-00-0002-07.png,0004-00-0007-86.png
00000014,577,1,1443021884882,1443021885437,895,440,0,0,0,5,2,3,52,0005-00-0009-99.png,0002-00-0006-20.png
00000014,578,1,1443021886355,1443021886984,871,446,0,0,0,5,1,4,51,0005-00-0003-44.png,0001-00-0003-07.png
00000014,579,1,1443021887919,1443021888613,872,515,0,0,0,3,2,1,32,0003-00-0001-03.png,0002-00-0008-23.png
00000014,580,1,1443021889631,1443021890101,316,429,0,0,0,1,2,1,12,0001-00-0007-58.png,0002-00-0009-98.png
00000014,581,1,1443021891003,1443021891553,389,462,0,0,0,3,4,1,34,0003-00-0007-10.png,0004-00-0005-13.png
00000014,582,1,1443021892411,1443021892973,420,558,0,0,0,2,3,1,23,0002-00-0008-84.png,0003-00-0000-29.png
00000014,583,0,1443021893935,1443021894535,388,431,0,0,0,5,4,1,54,0005-00-0001-66.png,0004-00-0009-30.png
00000014,584,1,1443021897680,1443021898126,440,436,0,0,0,1,2,1,12,0001-00-0003-07.png,0002-00-0009-77.png
00000014,585,1,1443021899120,1443021899792,874,437,0,0,0,4,3,1,43,0004-00-0002-65.png,0003-00-0000-97.png
00000014,586,1,1443021900843,1443021901366,340,476,0,0,0,1,5,4,15,0001-00-0003-20.png,0005-00-0009-53.png
00000014,587,1,1443021902363,1443021902904,351,465,0,0,0,4,5,1,45,0004-00-0006-43.png,0005-00-0003-68.png
00000014,588,0,1443021903892,1443021904692,891,492,0,0,0,1,4,3,14,0001-00-0002-61.png,0004-00-0003-58.png
00000014,589,1,1443021912429,1443021912796,950,457,0,0,0,2,1,1,21,0002-00-0007-15.png,0001-00-0007-73.png
00000014,590,1,1443021913975,1443021914515,897,471,0,0,0,3,1,2,31,0003-00-0007-70.png,0001-00-0009-18.png
00000014,591,0,1443021915725,1443021916320,862,551,0,0,0,2,5,3,25,0002-00-0007-27.png,0005-00-0000-71.png
00000014,592,1,1443021919790,1443021920287,871,523,0,0,0,5,1,4,51,0005-00-0004-92.png,0001-00-0007-97.png
00000014,593,1,1443021921558,1443021922113,872,482,0,0,0,4,2,2,42,0004-00-0005-51.png,0002-00-0008-82.png
00000014,594,1,1443021923114,1443021923788,889,543,0,0,0,5,2,3,52,0005-00-0005-03.png,0002-00-0004-95.png
00000014,595,0,1443021924819,1443021925466,875,514,0,0,0,3,5,2,35,0003-00-0007-50.png,0005-00-0008-38.png
00000014,596,0,1443021928304,1443021928862,330,392,0,0,0,5,3,2,53,0005-00-0008-82.png,0003-00-0002-88.png
00000014,597,1,1443021933336,1443021933880,908,447,0,0,0,3,2,1,32,0003-00-0001-66.png,0002-00-0009-83.png
00000014,598,1,1443021934901,1443021935422,332,418,0,0,0,2,4,2,24,0002-00-0005-72.png,0004-00-0006-39.png
00000014,599,0,1443021936468,1443021936987,392,533,0,0,0,4,1,3,41,0004-00-0000-82.png,0001-00-0001-10.png
00000014,600,0,1443021939995,1443021940514,874,524,0,0,0,1,3,2,13,0001-00-0007-29.png,0003-00-0006-40.png
00000014,601,1,1443021945292,1443021946160,954,444,0,0,0,3,1,2,31,0003-00-0007-36.png,0001-00-0004-04.png
00000014,602,0,1443021947279,1443021947758,325,408,0,0,0,2,1,1,21,0002-00-0000-34.png,0001-00-0001-00.png
00000014,603,0,1443021951721,1443021952165,368,479,0,0,0,4,2,2,42,0004-00-0009-04.png,0002-00-0004-20.png
00000014,604,1,1443021955057,1443021955452,326,423,0,0,0,1,2,1,12,0001-00-0006-76.png,0002-00-0005-25.png
00000014,605,1,1443021956472,1443021956951,350,528,0,0,0,4,5,1,45,0004-00-0006-29.png,0005-00-0004-13.png
00000014,606,1,1443021957822,1443021958537,893,512,0,0,0,4,3,1,43,0004-00-0006-80.png,0003-00-0006-72.png
00000014,607,0,1443021959465,1443021959972,363,530,0,0,0,5,4,1,54,0005-00-0007-54.png,0004-00-0000-92.png
00000014,608,1,1443021963329,1443021963803,382,523,0,0,0,1,3,2,13,0001-00-0003-51.png,0003-00-0002-57.png
00000014,609,1,1443021964761,1443021965354,868,466,0,0,0,5,2,3,52,0005-00-0001-28.png,0002-00-0002-66.png
00000014,610,1,1443021966321,1443021966801,438,456,0,0,0,3,5,2,35,0003-00-0008-64.png,0005-00-0008-63.png
00000014,611,0,1443021967711,1443021968339,863,475,0,0,0,2,5,3,25,0002-00-0003-55.png,0005-00-0000-33.png
00000014,612,1,1443021971458,1443021971917,350,422,0,0,0,1,4,3,14,0001-00-0007-04.png,0004-00-0005-10.png
00000014,613,1,1443021972929,1443021973501,894,469,0,0,0,3,2,1,32,0003-00-0004-24.png,0002-00-0004-23.png
00000014,614,0,1443021974391,1443021974940,392,454,0,0,0,5,1,4,51,0005-00-0006-67.png,0001-00-0000-61.png
00000014,615,1,1443021979101,1443021979573,314,433,0,0,0,2,4,2,24,0002-00-0006-29.png,0004-00-0008-03.png
00000014,616,1,1443021980552,1443021981114,426,472,0,0,0,3,4,1,34,0003-00-0001-74.png,0004-00-0002-75.png
00000014,617,1,1443021981968,1443021982644,328,455,0,0,0,2,3,1,23,0002-00-0008-95.png,0003-00-0009-44.png
00000014,618,1,1443021983562,1443021984131,409,446,0,0,0,1,5,4,15,0001-00-0006-34.png,0005-00-0005-19.png
00000014,619,1,1443021985018,1443021985629,886,476,0,0,0,4,1,3,41,0004-00-0007-86.png,0001-00-0006-67.png
00000014,620,0,1443021986623,1443021987148,438,457,0,0,0,5,3,2,53,0005-00-0000-90.png,0003-00-0008-49.png
00000014,621,1,1443021994102,1443021994577,918,493,0,0,0,4,1,3,41,0004-00-0001-35.png,0001-00-0004-20.png
00000014,622,1,1443021995477,1443021996068,896,445,0,0,0,5,2,3,52,0005-00-0005-56.png,0002-00-0000-80.png
00000014,623,1,1443021996950,1443021997450,382,523,0,0,0,1,2,1,12,0001-00-0004-02.png,0002-00-0001-63.png
00000014,624,1,1443021998521,1443021999038,340,423,0,0,0,3,4,1,34,0003-00-0003-02.png,0004-00-0002-35.png
00000014,625,1,1443021999957,1443022000541,419,426,0,0,0,4,5,1,45,0004-00-0007-82.png,0005-00-0003-00.png
00000014,626,1,1443022001467,1443022002548,891,466,0,0,0,5,1,4,51,0005-00-0007-84.png,0001-00-0003-88.png
00000014,627,1,1443022003480,1443022004112,874,439,0,0,0,4,2,2,42,0004-00-0004-93.png,0002-00-0006-46.png
00000014,628,0,1443022005046,1443022014150,367,543,0,0,0,5,3,2,53,0005-00-0001-34.png,0003-00-0004-66.png
00000014,629,0,1443022017377,1443022017851,901,450,0,0,0,2,3,1,23,0002-00-0008-50.png,0003-00-0000-23.png
00000014,630,1,1443022021259,1443022021738,861,533,0,0,0,3,1,2,31,0003-00-0006-92.png,0001-00-0005-40.png
00000014,631,0,1443022022705,1443022023243,357,423,0,0,0,2,1,1,21,0002-00-0009-80.png,0001-00-0003-10.png
00000014,632,1,1443022026560,1443022026996,362,527,0,0,0,2,4,2,24,0002-00-0005-89.png,0004-00-0006-21.png
00000014,633,0,1443022027961,1443022028440,356,545,0,0,0,3,2,1,32,0003-00-0002-13.png,0002-00-0004-31.png
00000014,634,0,1443022031489,1443022031920,874,384,0,0,0,3,5,2,35,0003-00-0000-10.png,0005-00-0006-67.png
00000014,635,0,1443022041159,1443022041571,901,435,0,0,0,1,5,4,15,0001-00-0001-75.png,0005-00-0009-25.png
00000014,636,1,1443022044539,1443022044949,367,453,0,0,0,2,5,3,25,0002-00-0003-02.png,0005-00-0009-87.png
00000014,637,1,1443022045851,1443022046350,420,453,0,0,0,1,4,3,14,0001-00-0006-31.png,0004-00-0007-41.png
00000014,638,1,1443022047301,1443022047901,874,437,0,0,0,4,3,1,43,0004-00-0009-18.png,0003-00-0009-18.png
00000014,639,1,1443022048918,1443022049436,368,454,0,0,0,1,3,2,13,0001-00-0007-78.png,0003-00-0006-51.png
00000014,640,0,1443022050329,1443022050919,376,449,0,0,0,5,4,1,54,0005-00-0000-04.png,0004-00-0005-45.png
00000014,641,1,1443022053896,1443022053924,463,399,0,0,0,3,5,2,35,0003-00-0000-30.png,0005-00-0008-19.png
00000014,642,1,1443022054951,1443022055498,890,445,0,0,0,4,2,2,42,0004-00-0003-47.png,0002-00-0007-64.png
00000014,643,1,1443022056478,1443022056970,444,480,0,0,0,1,4,3,14,0001-00-0005-34.png,0004-00-0009-61.png
00000014,644,1,1443022057884,1443022058455,461,454,0,0,0,3,4,1,34,0003-00-0004-75.png,0004-00-0002-96.png
00000014,645,1,1443022059464,1443022059942,401,423,0,0,0,1,3,2,13,0001-00-0000-78.png,0003-00-0009-25.png
00000014,646,1,1443022060984,1443022061675,878,453,0,0,0,5,3,2,53,0005-00-0000-92.png,0003-00-0002-73.png
00000014,647,1,1443022062633,1443022064350,955,454,0,0,0,4,3,1,43,0004-00-0002-98.png,0003-00-0008-06.png
00000014,648,1,1443022065307,1443022065966,871,498,0,0,0,3,1,2,31,0003-00-0002-51.png,0001-00-0005-84.png
00000014,649,0,1443022066847,1443022067499,879,454,0,0,0,1,2,1,12,0001-00-0000-47.png,0002-00-0004-45.png
00000014,650,1,1443022071449,1443022071974,880,426,0,0,0,4,1,3,41,0004-00-0008-77.png,0001-00-0005-48.png
00000014,651,1,1443022072926,1443022073424,388,535,0,0,0,2,4,2,24,0002-00-0000-28.png,0004-00-0007-55.png
00000014,652,0,1443022074928,1443022075376,332,395,0,0,0,3,2,1,32,0003-00-0005-60.png,0002-00-0008-60.png
00000014,653,0,1443022078336,1443022078842,908,469,0,0,0,4,5,1,45,0004-00-0007-84.png,0005-00-0004-87.png
00000014,654,0,1443022081963,1443022082455,360,451,0,0,0,2,1,1,21,0002-00-0007-68.png,0001-00-0007-49.png
00000014,655,1,1443022085412,1443022085898,299,479,0,0,0,2,3,1,23,0002-00-0006-07.png,0003-00-0002-97.png
00000014,656,1,1443022086863,1443022087330,415,436,0,0,0,1,5,4,15,0001-00-0009-77.png,0005-00-0008-66.png
00000014,657,1,1443022088302,1443022088839,877,442,0,0,0,5,4,1,54,0005-00-0001-66.png,0004-00-0004-30.png
00000014,658,1,1443022089711,1443022090309,867,535,0,0,0,5,1,4,51,0005-00-0009-45.png,0001-00-0007-02.png
00000014,659,1,1443022091202,1443022092300,943,413,0,0,0,5,2,3,52,0005-00-0007-19.png,0002-00-0007-00.png
00000014,660,1,1443022093203,1443022093728,340,441,0,0,0,2,5,3,25,0002-00-0007-24.png,0005-00-0003-63.png
00000014,661,0,1443022094605,1443022095177,350,449,0,0,0,3,2,1,32,0003-00-0000-34.png,0002-00-0001-20.png
00000014,662,1,1443022098314,1443022098788,434,446,0,0,0,3,5,2,35,0003-00-0009-05.png,0005-00-0002-14.png
00000014,663,1,1443022099722,1443022100717,926,423,0,0,0,2,1,1,21,0002-00-0003-93.png,0001-00-0005-94.png
00000014,664,1,1443022102000,1443022102566,858,499,0,0,0,5,4,1,54,0005-00-0006-51.png,0004-00-0002-49.png
00000014,665,0,1443022103425,1443022104074,869,472,0,0,0,4,5,1,45,0004-00-0001-34.png,0005-00-0008-78.png
00000014,666,1,1443022107198,1443022107610,461,394,0,0,0,3,4,1,34,0003-00-0005-62.png,0004-00-0009-06.png
00000014,667,1,1443022108517,1443022109050,410,445,0,0,0,1,3,2,13,0001-00-0004-40.png,0003-00-0006-37.png
00000014,668,1,1443022109938,1443022110470,354,434,0,0,0,2,4,2,24,0002-00-0003-90.png,0004-00-0009-14.png
00000014,669,1,1443022111461,1443022112082,871,446,0,0,0,5,3,2,53,0005-00-0005-86.png,0003-00-0008-83.png
00000014,670,1,1443022113030,1443022113536,441,502,0,0,0,2,3,1,23,0002-00-0006-39.png,0003-00-0006-12.png
00000014,671,0,1443022114481,1443022115186,891,451,0,0,0,1,2,1,12,0001-00-0001-56.png,0002-00-0004-74.png
00000014,672,0,1443022118032,1443022118493,415,487,0,0,0,4,3,1,43,0004-00-0009-65.png,0003-00-0006-21.png
00000014,673,1,1443022121928,1443022122413,927,450,0,0,0,3,1,2,31,0003-00-0003-55.png,0001-00-0007-42.png
00000014,674,1,1443022123362,1443022124093,875,528,0,0,0,5,2,3,52,0005-00-0005-20.png,0002-00-0001-15.png
00000014,675,1,1443022125064,1443022125627,896,455,0,0,0,4,2,2,42,0004-00-0004-66.png,0002-00-0000-43.png
00000014,676,1,1443022126529,1443022127131,401,449,0,0,0,2,5,3,25,0002-00-0003-83.png,0005-00-0002-99.png
00000014,677,1,1443022128084,1443022128600,377,437,0,0,0,1,4,3,14,0001-00-0007-45.png,0004-00-0009-77.png
00000014,678,1,1443022129462,1443022130018,901,450,0,0,0,4,1,3,41,0004-00-0006-75.png,0001-00-0007-59.png
00000014,679,1,1443022131005,1443022131629,893,450,0,0,0,5,1,4,51,0005-00-0001-75.png,0001-00-0009-95.png
00000014,680,1,1443022132556,1443022133033,401,436,0,0,0,1,5,4,15,0001-00-0005-86.png,0005-00-0001-36.png
00000014,681,1,1443022134011,1443022134660,380,468,0,0,0,2,5,3,25,0002-00-0003-57.png,0005-00-0008-17.png
00000014,682,1,1443022135542,1443022136160,439,543,0,0,0,1,5,4,15,0001-00-0003-37.png,0005-00-0001-03.png
00000014,683,1,1443022137085,1443022137655,889,449,0,0,0,2,1,1,21,0002-00-0008-06.png,0001-00-0007-52.png
00000014,684,0,1443022138546,1443022139583,470,454,0,0,0,5,3,2,53,0005-00-0003-26.png,0003-00-0004-07.png
00000014,685,1,1443022143738,1443022144216,866,431,0,0,0,4,2,2,42,0004-00-0005-82.png,0002-00-0008-08.png
00000014,686,1,1443022145167,1443022146321,345,435,0,0,0,2,3,1,23,0002-00-0000-67.png,0003-00-0009-36.png
00000014,687,1,1443022147228,1443022147792,369,462,0,0,0,3,4,1,34,0003-00-0006-23.png,0004-00-0009-77.png
00000014,688,1,1443022148650,1443022149208,875,449,0,0,0,4,1,3,41,0004-00-0003-54.png,0001-00-0007-61.png
00000014,689,1,1443022150266,1443022151274,910,425,0,0,0,5,2,3,52,0005-00-0004-86.png,0002-00-0005-72.png
00000014,690,0,1443022152130,1443022152791,401,541,0,0,0,3,1,2,31,0003-00-0002-74.png,0001-00-0009-25.png
00000014,691,1,1443022155948,1443022156416,875,424,0,0,0,5,1,4,51,0005-00-0005-16.png,0001-00-0007-19.png
00000014,692,1,1443022157329,1443022157855,434,472,0,0,0,1,2,1,12,0001-00-0002-70.png,0002-00-0007-62.png
00000014,693,0,1443022158813,1443022159405,906,415,0,0,0,1,3,2,13,0001-00-0005-24.png,0003-00-0009-67.png
00000014,694,0,1443022162904,1443022163353,863,510,0,0,0,3,5,2,35,0003-00-0005-94.png,0005-00-0005-80.png
00000014,695,0,1443022166237,1443022166269,521,351,0,0,0,5,4,1,54,0005-00-0001-64.png,0004-00-0004-50.png
00000014,696,1,1443022169124,1443022169593,926,423,0,0,0,4,3,1,43,0004-00-0008-17.png,0003-00-0006-17.png
00000014,697,1,1443022170507,1443022170959,415,451,0,0,0,1,4,3,14,0001-00-0000-45.png,0004-00-0005-93.png
00000014,698,1,1443022171806,1443022172480,889,520,0,0,0,3,2,1,32,0003-00-0000-71.png,0002-00-0003-36.png
00000014,699,1,1443022173381,1443022173865,344,425,0,0,0,2,4,2,24,0002-00-0001-56.png,0004-00-0006-40.png
00000014,700,0,1443022174850,1443022175424,862,440,0,0,0,4,5,1,45,0004-00-0008-85.png,0005-00-0007-55.png
00000014,701,1,1443022178464,1443022178999,248,446,0,0,0,3,4,1,34,0003-00-0003-15.png,0004-00-0000-91.png
00000014,702,1,1443022180158,1443022181215,900,515,0,0,0,5,3,2,53,0005-00-0001-75.png,0003-00-0000-45.png
00000014,703,1,1443022182160,1443022182744,870,445,0,0,0,5,4,1,54,0005-00-0007-64.png,0004-00-0002-05.png
00000014,704,0,1443022183670,1443022184279,877,423,0,0,0,2,4,2,24,0002-00-0001-70.png,0004-00-0003-54.png
00000014,705,1,1443022187131,1443022187151,513,422,0,0,0,1,3,2,13,0001-00-0004-67.png,0003-00-0006-41.png
00000014,706,1,1443022188652,1443022189145,894,453,0,0,0,4,2,2,42,0004-00-0007-32.png,0002-00-0004-02.png
00000014,707,1,1443022190100,1443022190985,432,498,0,0,0,1,5,4,15,0001-00-0006-70.png,0005-00-0001-37.png
00000014,708,1,1443022191979,1443022192543,416,555,0,0,0,2,5,3,25,0002-00-0009-96.png,0005-00-0006-13.png
00000014,709,0,1443022193409,1443022194024,895,446,0,0,0,2,3,1,23,0002-00-0002-44.png,0003-00-0002-15.png
00000014,710,0,1443022198775,1443022199230,368,533,0,0,0,2,1,1,21,0002-00-0004-14.png,0001-00-0007-01.png
00000014,711,0,1443022202105,1443022202727,316,427,0,0,0,5,2,3,52,0005-00-0003-91.png,0002-00-0009-80.png
00000014,712,1,1443022205684,1443022206151,287,423,0,0,0,4,5,1,45,0004-00-0009-10.png,0005-00-0005-83.png
00000014,713,0,1443022207244,1443022207966,365,449,0,0,0,3,2,1,32,0003-00-0008-94.png,0002-00-0003-22.png
00000014,714,1,1443022210811,1443022210827,523,398,0,0,0,1,2,1,12,0001-00-0009-83.png,0002-00-0000-34.png
00000014,715,1,1443022211832,1443022212356,862,502,0,0,0,4,3,1,43,0004-00-0004-35.png,0003-00-0005-35.png
00000014,716,1,1443022213218,1443022213804,365,456,0,0,0,1,4,3,14,0001-00-0003-03.png,0004-00-0003-88.png
00000014,717,0,1443022214730,1443022214750,504,436,0,0,0,5,1,4,51,0005-00-0004-07.png,0001-00-0008-13.png
00000014,718,0,1443022217728,1443022218277,439,346,0,0,0,3,1,2,31,0003-00-0006-39.png,0001-00-0001-19.png
00000014,719,1,1443022221339,1443022221833,874,502,0,0,0,4,1,3,41,0004-00-0005-35.png,0001-00-0007-68.png
00000014,720,1,1443022222960,1443022223372,371,530,0,0,0,3,5,2,35,0003-00-0003-99.png,0005-00-0002-84.png
00000014,721,1,1443022224350,1443022224910,875,410,0,0,0,4,3,1,43,0004-00-0003-76.png,0003-00-0008-31.png
00000014,722,1,1443022225859,1443022226402,876,424,0,0,0,5,3,2,53,0005-00-0006-54.png,0003-00-0006-15.png
00000014,723,0,1443022227376,1443022227920,875,423,0,0,0,1,5,4,15,0001-00-0007-15.png,0005-00-0001-43.png
00000014,724,1,1443022230819,1443022230839,504,410,0,0,0,2,5,3,25,0002-00-0002-29.png,0005-00-0002-91.png
00000014,725,0,1443022231851,1443022232394,339,475,0,0,0,3,1,2,31,0003-00-0003-33.png,0001-00-0006-94.png
00000014,726,0,1443022235421,1443022235860,339,416,0,0,0,3,2,1,32,0003-00-0002-92.png,0002-00-0007-56.png
00000014,727,1,1443022238926,1443022238958,495,404,0,0,0,3,4,1,34,0003-00-0002-69.png,0004-00-0000-48.png
00000014,728,1,1443022239951,1443022240534,870,497,0,0,0,5,4,1,54,0005-00-0004-92.png,0004-00-0004-84.png
00000014,729,1,1443022241402,1443022241905,339,444,0,0,0,1,2,1,12,0001-00-0000-58.png,0002-00-0005-73.png
00000014,730,1,1443022243342,1443022243802,395,462,0,0,0,3,5,2,35,0003-00-0001-95.png,0005-00-0005-88.png
00000014,731,0,1443022244721,1443022245308,877,441,0,0,0,1,3,2,13,0001-00-0008-47.png,0003-00-0005-54.png
00000014,732,1,1443022248369,1443022248855,927,440,0,0,0,4,1,3,41,0004-00-0002-08.png,0001-00-0001-82.png
00000014,733,1,1443022249760,1443022250348,876,452,0,0,0,5,2,3,52,0005-00-0003-43.png,0002-00-0007-22.png
00000014,734,1,1443022251282,1443022251813,350,448,0,0,0,1,4,3,14,0001-00-0000-04.png,0004-00-0001-94.png
00000014,735,1,1443022252700,1443022253750,929,427,0,0,0,4,2,2,42,0004-00-0006-50.png,0002-00-0000-60.png
00000014,736,1,1443022254698,1443022255204,391,470,0,0,0,2,3,1,23,0002-00-0004-98.png,0003-00-0000-72.png
00000014,737,1,1443022256049,1443022256629,368,427,0,0,0,4,5,1,45,0004-00-0003-12.png,0005-00-0009-86.png
00000014,738,1,1443022257564,1443022258158,886,454,0,0,0,5,1,4,51,0005-00-0002-63.png,0001-00-0006-46.png
00000014,739,0,1443022259072,1443022259551,366,450,0,0,0,2,1,1,21,0002-00-0004-49.png,0001-00-0008-59.png
00000014,740,1,1443022262539,1443022263012,248,436,0,0,0,2,4,2,24,0002-00-0008-63.png,0004-00-0004-50.png
00000014,741,1,1443022263956,1443022264596,876,415,0,0,0,5,3,2,53,0005-00-0002-73.png,0003-00-0005-43.png
00000014,742,1,1443022265534,1443022266037,444,480,0,0,0,1,2,1,12,0001-00-0008-57.png,0002-00-0008-56.png
00000014,743,1,1443022266950,1443022267472,407,525,0,0,0,2,4,2,24,0002-00-0004-35.png,0004-00-0005-25.png
00000014,744,1,1443022268376,1443022268906,408,550,0,0,0,4,5,1,45,0004-00-0002-64.png,0005-00-0006-72.png
00000014,745,1,1443022269771,1443022269791,504,472,0,0,0,1,4,3,14,0001-00-0006-56.png,0004-00-0007-88.png
00000014,746,0,1443022271045,1443022271484,325,436,0,0,0,5,4,1,54,0005-00-0007-86.png,0004-00-0000-05.png
00000014,747,1,1443022274365,1443022274393,520,415,0,0,0,2,3,1,23,0002-00-0008-03.png,0003-00-0004-73.png
00000014,748,1,1443022275450,1443022276003,879,454,0,0,0,4,3,1,43,0004-00-0007-93.png,0003-00-0005-61.png
00000014,749,1,1443022276921,1443022277501,895,471,0,0,0,4,1,3,41,0004-00-0009-60.png,0001-00-0004-86.png
00000014,750,0,1443022278432,1443022279681,914,428,0,0,0,2,5,3,25,0002-00-0000-82.png,0005-00-0003-79.png
00000014,751,1,1443022282665,1443022283172,914,423,0,0,0,4,2,2,42,0004-00-0005-64.png,0002-00-0006-87.png
00000014,752,1,1443022284074,1443022284660,888,424,0,0,0,5,2,3,52,0005-00-0006-37.png,0002-00-0000-30.png
00000014,753,0,1443022285663,1443022286207,871,446,0,0,0,3,4,1,34,0003-00-0006-45.png,0004-00-0003-33.png
00000014,754,1,1443022289395,1443022289886,921,455,0,0,0,2,1,1,21,0002-00-0003-17.png,0001-00-0000-38.png
00000014,755,0,1443022290795,1443022291268,341,466,0,0,0,3,1,2,31,0003-00-0000-12.png,0001-00-0003-22.png
00000014,756,1,1443022294408,1443022294863,325,410,0,0,0,3,5,2,35,0003-00-0004-31.png,0005-00-0002-24.png
00000014,757,1,1443022295752,1443022295792,499,456,0,0,0,1,5,4,15,0001-00-0002-04.png,0005-00-0000-30.png
00000014,758,0,1443022296873,1443022297387,336,428,0,0,0,5,1,4,51,0005-00-0007-82.png,0001-00-0004-98.png
00000014,759,0,1443022300392,1443022300914,447,511,0,0,0,3,2,1,32,0003-00-0002-33.png,0002-00-0007-41.png
00000014,760,1,1443022303992,1443022304495,363,436,0,0,0,1,3,2,13,0001-00-0004-63.png,0003-00-0004-59.png
00000014,761,1,1443022305566,1443022306146,904,416,0,0,0,5,1,4,51,0005-00-0002-45.png,0001-00-0001-09.png
00000014,762,1,1443022307162,1443022307684,415,461,0,0,0,3,4,1,34,0003-00-0003-71.png,0004-00-0006-21.png
00000014,763,1,1443022308583,1443022309163,411,561,0,0,0,3,5,2,35,0003-00-0003-61.png,0005-00-0008-37.png
00000014,764,1,1443022310093,1443022310679,896,458,0,0,0,5,3,2,53,0005-00-0009-52.png,0003-00-0004-33.png
00000014,765,0,1443022311608,1443022312178,875,463,0,0,0,1,5,4,15,0001-00-0007-36.png,0005-00-0005-85.png
00000014,766,1,1443022315182,1443022315663,440,449,0,0,0,4,5,1,45,0004-00-0007-43.png,0005-00-0004-08.png
00000014,767,1,1443022316579,1443022317065,387,554,0,0,0,1,2,1,12,0001-00-0000-60.png,0002-00-0009-10.png
00000014,768,1,1443022318577,1443022319047,395,563,0,0,0,2,4,2,24,0002-00-0003-57.png,0004-00-0001-85.png
00000014,769,0,1443022319887,1443022320422,887,499,0,0,0,1,3,2,13,0001-00-0003-67.png,0003-00-0009-07.png
00000014,770,1,1443022323279,1443022323782,932,471,0,0,0,4,1,3,41,0004-00-0003-98.png,0001-00-0003-14.png
00000014,771,1,1443022324669,1443022325242,900,429,0,0,0,5,2,3,52,0005-00-0000-17.png,0002-00-0006-47.png
00000014,772,1,1443022326115,1443022326596,340,421,0,0,0,2,3,1,23,0002-00-0003-42.png,0003-00-0008-13.png
00000014,773,0,1443022327473,1443022327968,416,476,0,0,0,3,2,1,32,0003-00-0005-46.png,0002-00-0002-49.png
00000014,774,0,1443022330893,1443022331349,371,486,0,0,0,4,3,1,43,0004-00-0004-55.png,0003-00-0006-13.png
00000014,775,1,1443022335115,1443022335640,888,450,0,0,0,2,1,1,21,0002-00-0007-37.png,0001-00-0009-65.png
00000014,776,0,1443022336557,1443022337080,376,475,0,0,0,3,1,2,31,0003-00-0006-74.png,0001-00-0008-79.png
00000014,777,0,1443022340043,1443022340595,387,443,0,0,0,4,2,2,42,0004-00-0003-60.png,0002-00-0003-95.png
00000014,778,0,1443022344108,1443022344562,390,469,0,0,0,5,4,1,54,0005-00-0008-94.png,0004-00-0002-42.png
00000014,779,1,1443022347700,1443022348143,431,461,0,0,0,1,4,3,14,0001-00-0007-04.png,0004-00-0009-01.png
00000014,780,1,1443022349137,1443022349665,370,479,0,0,0,2,5,3,25,0002-00-0000-62.png,0005-00-0004-06.png
00000014,781,1,1443022350551,1443022351145,923,415,0,0,0,4,2,2,42,0004-00-0009-35.png,0002-00-0005-62.png
00000014,782,1,1443022352043,1443022352549,407,552,0,0,0,4,5,1,45,0004-00-0003-90.png,0005-00-0004-70.png
00000014,783,0,1443022353460,1443022354419,474,446,0,0,0,4,1,3,41,0004-00-0002-94.png,0001-00-0002-98.png
00000014,784,1,1443022360623,1443022361071,376,475,0,0,0,3,4,1,34,0003-00-0005-91.png,0004-00-0005-71.png
00000014,785,0,1443022361994,1443022362469,888,410,0,0,0,3,5,2,35,0003-00-0002-33.png,0005-00-0009-60.png
00000014,786,1,1443022366744,1443022367309,280,471,0,0,0,2,4,2,24,0002-00-0000-50.png,0004-00-0009-72.png
00000014,787,0,1443022368314,1443022368903,902,467,0,0,0,1,3,2,13,0001-00-0001-16.png,0003-00-0004-86.png
00000014,788,0,1443022372995,1443022373880,434,473,0,0,0,2,1,1,21,0002-00-0006-24.png,0001-00-0009-41.png
00000014,789,1,1443022376824,1443022377280,901,449,0,0,0,3,1,2,31,0003-00-0000-02.png,0001-00-0001-85.png
00000014,790,0,1443022378204,1443022378826,878,465,0,0,0,1,5,4,15,0001-00-0006-86.png,0005-00-0003-99.png
00000014,791,1,1443022381720,1443022382108,906,526,0,0,0,4,3,1,43,0004-00-0004-43.png,0003-00-0007-67.png
00000014,792,1,1443022383106,1443022383647,880,473,0,0,0,5,3,2,53,0005-00-0003-17.png,0003-00-0002-48.png
00000014,793,0,1443022384882,1443022385337,431,477,0,0,0,5,4,1,54,0005-00-0006-74.png,0004-00-0008-32.png
00000014,794,0,1443022388539,1443022388966,401,384,0,0,0,3,2,1,32,0003-00-0003-18.png,0002-00-0009-78.png
00000014,795,1,1443022391957,1443022392466,417,442,0,0,0,2,3,1,23,0002-00-0001-77.png,0003-00-0003-63.png
00000014,796,1,1443022393439,1443022393891,426,467,0,0,0,1,2,1,12,0001-00-0005-94.png,0002-00-0003-17.png
00000014,797,1,1443022394721,1443022395294,874,561,0,0,0,5,2,3,52,0005-00-0004-77.png,0002-00-0006-96.png
00000014,798,1,1443022396182,1443022396633,350,462,0,0,0,2,5,3,25,0002-00-0004-84.png,0005-00-0001-59.png
00000014,799,1,1443022397522,1443022398530,902,545,0,0,0,5,1,4,51,0005-00-0003-32.png,0001-00-0002-02.png
00000014,800,1,1443022399462,1443022405320,358,402,0,0,0,1,4,3,14,0001-00-0001-76.png,0004-00-0001-03.png
00000014,801,1,1443022406475,1443022406994,437,525,0,0,0,3,5,2,35,0003-00-0009-09.png,0005-00-0000-31.png
00000014,802,1,1443022408145,1443022409301,862,449,0,0,0,5,1,4,51,0005-00-0004-63.png,0001-00-0009-45.png
00000014,803,0,1443022410506,1443022415270,465,438,0,0,0,5,3,2,53,0005-00-0008-72.png,0003-00-0000-74.png
00000014,804,0,1443022422646,1443022423077,388,489,0,0,0,5,4,1,54,0005-00-0001-06.png,0004-00-0006-80.png
00000014,805,0,1443022426227,1443022426640,391,480,0,0,0,5,2,3,52,0005-00-0001-87.png,0002-00-0000-47.png
00000014,806,0,1443022430997,1443022431434,359,470,0,0,0,4,2,2,42,0004-00-0003-62.png,0002-00-0008-14.png
00000014,807,0,1443022437598,1443022438147,346,468,0,0,0,3,1,2,31,0003-00-0003-77.png,0001-00-0002-15.png
00000014,808,1,1443022441738,1443022442216,879,454,0,0,0,4,1,3,41,0004-00-0009-02.png,0001-00-0008-99.png
00000014,809,1,1443022443174,1443022443680,453,449,0,0,0,2,5,3,25,0002-00-0001-24.png,0005-00-0005-51.png
00000014,810,0,1443022444659,1443022445657,883,447,0,0,0,4,5,1,45,0004-00-0001-82.png,0005-00-0007-64.png
00000014,811,1,1443022448556,1443022449009,939,507,0,0,0,2,1,1,21,0002-00-0003-57.png,0001-00-0000-66.png
00000014,812,1,1443022449870,1443022450406,877,503,0,0,0,3,2,1,32,0003-00-0009-37.png,0002-00-0006-87.png
00000014,813,1,1443022451245,1443022451806,366,467,0,0,0,2,3,1,23,0002-00-0007-37.png,0003-00-0008-84.png
00000014,814,1,1443022452639,1443022453228,446,488,0,0,0,3,4,1,34,0003-00-0000-06.png,0004-00-0003-52.png
00000014,815,1,1443022454141,1443022454644,363,436,0,0,0,1,4,3,14,0001-00-0002-03.png,0004-00-0009-27.png
00000014,816,1,1443022455503,1443022456098,363,449,0,0,0,1,2,1,12,0001-00-0000-13.png,0002-00-0007-18.png
00000014,817,1,1443022456962,1443022457486,417,465,0,0,0,1,3,2,13,0001-00-0003-16.png,0003-00-0006-92.png
00000014,818,1,1443022458374,1443022458897,461,485,0,0,0,1,5,4,15,0001-00-0005-15.png,0005-00-0001-13.png
00000014,819,1,1443022459770,1443022460417,387,481,0,0,0,2,4,2,24,0002-00-0000-62.png,0004-00-0009-58.png
00000014,820,1,1443022461317,1443022461878,900,415,0,0,0,4,3,1,43,0004-00-0004-12.png,0003-00-0003-77.png
00000014,821,1,1443022462724,1443022463339,877,467,0,0,0,4,1,3,41,0004-00-0007-92.png,0001-00-0001-01.png
00000014,822,1,1443022464226,1443022464790,401,448,0,0,0,3,5,2,35,0003-00-0006-92.png,0005-00-0006-78.png
00000014,823,0,1443022466087,1443022466595,490,476,0,0,0,3,2,1,32,0003-00-0005-38.png,0002-00-0004-18.png
00000014,824,0,1443022473705,1443022474420,259,541,0,0,0,5,1,4,51,0005-00-0007-43.png,0001-00-0005-58.png
00000014,825,0,1443022478487,1443022478980,372,457,0,0,0,4,2,2,42,0004-00-0008-17.png,0002-00-0003-97.png
00000014,826,1,1443022486430,1443022487366,902,519,0,0,0,5,2,3,52,0005-00-0007-59.png,0002-00-0001-49.png
00000014,827,0,1443022488335,1443022488889,388,462,0,0,0,2,1,1,21,0002-00-0005-52.png,0001-00-0008-52.png
00000014,828,0,1443022492775,1443022493221,962,435,0,0,0,2,3,1,23,0002-00-0005-66.png,0003-00-0000-12.png
00000014,829,1,1443022498253,1443022498701,882,541,0,0,0,3,1,2,31,0003-00-0004-95.png,0001-00-0009-05.png
00000014,830,1,1443022499674,1443022500688,876,412,0,0,0,5,4,1,54,0005-00-0000-76.png,0004-00-0005-86.png
00000014,831,1,1443022501636,1443022502166,358,451,0,0,0,2,4,2,24,0002-00-0006-05.png,0004-00-0009-96.png
00000014,832,0,1443022503412,1443022503855,401,410,0,0,0,5,3,2,53,0005-00-0005-44.png,0003-00-0009-78.png
00000014,833,0,1443022506957,1443022507462,861,445,0,0,0,3,4,1,34,0003-00-0007-17.png,0004-00-0000-20.png
00000014,834,1,1443022510397,1443022510421,504,375,0,0,0,1,4,3,14,0001-00-0009-86.png,0004-00-0001-06.png
00000014,835,1,1443022511839,1443022512341,857,453,0,0,0,4,3,1,43,0004-00-0003-15.png,0003-00-0006-69.png
00000014,836,1,1443022513319,1443022513852,414,475,0,0,0,1,5,4,15,0001-00-0004-19.png,0005-00-0000-14.png
00000014,837,1,1443022514706,1443022515274,382,487,0,0,0,1,3,2,13,0001-00-0006-67.png,0003-00-0007-03.png
00000014,838,1,1443022516321,1443022516805,334,477,0,0,0,2,5,3,25,0002-00-0007-51.png,0005-00-0008-74.png
00000014,839,0,1443022517649,1443022518276,868,441,0,0,0,1,2,1,12,0001-00-0002-47.png,0002-00-0001-96.png
00000014,840,1,1443022521428,1443022522412,253,520,0,0,0,4,5,1,45,0004-00-0000-82.png,0005-00-0008-45.png
00000014,841,1,1443022523854,1443022524268,901,437,0,0,0,4,1,3,41,0004-00-0009-52.png,0001-00-0001-82.png
00000014,842,1,1443022525124,1443022525663,903,412,0,0,0,5,4,1,54,0005-00-0001-27.png,0004-00-0008-12.png
00000014,843,1,1443022526516,1443022527096,900,449,0,0,0,5,1,4,51,0005-00-0009-98.png,0001-00-0001-13.png
00000014,844,1,1443022527966,1443022529045,907,424,0,0,0,5,2,3,52,0005-00-0006-85.png,0002-00-0006-26.png
00000014,845,1,1443022529959,1443022530629,454,521,0,0,0,1,4,3,14,0001-00-0003-65.png,0004-00-0006-35.png
00000014,846,0,1443022547190,1443022547617,899,516,0,0,0,1,3,2,13,0001-00-0002-73.png,0003-00-0006-47.png
00000014,847,0,1443022552541,1443022552993,887,397,0,0,0,4,5,1,45,0004-00-0001-02.png,0005-00-0009-90.png
00000014,848,0,1443022556844,1443022557269,862,478,0,0,0,1,5,4,15,0001-00-0009-97.png,0005-00-0001-66.png
00000014,849,1,1443022560335,1443022560812,366,498,0,0,0,2,5,3,25,0002-00-0004-38.png,0005-00-0000-14.png
00000014,850,0,1443022561748,1443022562291,267,496,0,0,0,2,1,1,21,0002-00-0003-22.png,0001-00-0006-79.png
00000014,851,1,1443022566269,1443022567125,363,430,0,0,0,1,2,1,12,0001-00-0007-98.png,0002-00-0003-82.png
00000014,852,1,1443022568016,1443022568630,890,423,0,0,0,4,2,2,42,0004-00-0002-19.png,0002-00-0001-46.png
00000014,853,0,1443022569486,1443022570577,436,435,0,0,0,4,3,1,43,0004-00-0001-56.png,0003-00-0004-48.png
00000014,854,1,1443022573940,1443022574417,394,427,0,0,0,3,5,2,35,0003-00-0001-35.png,0005-00-0002-69.png
00000014,855,0,1443022575350,1443022575936,890,430,0,0,0,3,4,1,34,0003-00-0000-17.png,0004-00-0004-33.png
00000014,856,1,1443022578935,1443022579386,401,423,0,0,0,2,3,1,23,0002-00-0004-38.png,0003-00-0007-79.png
00000014,857,1,1443022580290,1443022580839,900,437,0,0,0,5,3,2,53,0005-00-0003-61.png,0003-00-0007-36.png
00000014,858,1,1443022582176,1443022582661,861,533,0,0,0,3,1,2,31,0003-00-0004-64.png,0001-00-0003-73.png
00000014,859,1,1443022583540,1443022584065,887,424,0,0,0,3,2,1,32,0003-00-0006-63.png,0002-00-0005-94.png
00000014,860,1,1443022584897,1443022585435,355,465,0,0,0,2,4,2,24,0002-00-0000-49.png,0004-00-0008-67.png
00000014,861,1,1443022586263,1443022586840,411,476,0,0,0,1,5,4,15,0001-00-0009-40.png,0005-00-0008-47.png
00000014,862,1,1443022587703,1443022588291,877,469,0,0,0,3,1,2,31,0003-00-0008-00.png,0001-00-0007-28.png
00000014,863,0,1443022589161,1443022589868,916,447,0,0,0,1,3,2,13,0001-00-0003-42.png,0003-00-0006-21.png
00000014,864,1,1443022594034,1443022594477,882,450,0,0,0,5,1,4,51,0005-00-0003-56.png,0001-00-0000-20.png
00000014,865,0,1443022595375,1443022595874,408,447,0,0,0,2,1,1,21,0002-00-0008-04.png,0001-00-0007-36.png
00000014,866,1,1443022599033,1443022599536,881,449,0,0,0,5,3,2,53,0005-00-0004-93.png,0003-00-0008-23.png
00000014,867,1,1443022600372,1443022600984,344,469,0,0,0,1,2,1,12,0001-00-0002-64.png,0002-00-0006-34.png
00000014,868,1,1443022601836,1443022602357,369,437,0,0,0,1,4,3,14,0001-00-0006-51.png,0004-00-0008-17.png
00000014,869,1,1443022603185,1443022603707,444,453,0,0,0,2,5,3,25,0002-00-0000-92.png,0005-00-0001-29.png
00000014,870,0,1443022604598,1443022605101,425,565,0,0,0,4,3,1,43,0004-00-0001-81.png,0003-00-0006-48.png
00000014,871,0,1443022607954,1443022608006,453,436,0,0,0,5,2,3,52,0005-00-0003-55.png,0002-00-0000-91.png
00000014,872,1,1443022611790,1443022612261,874,527,0,0,0,3,2,1,32,0003-00-0002-09.png,0002-00-0002-70.png
00000014,873,1,1443022613266,1443022613775,363,445,0,0,0,3,5,2,35,0003-00-0007-50.png,0005-00-0007-85.png
00000014,874,0,1443022614623,1443022615242,866,425,0,0,0,4,5,1,45,0004-00-0000-48.png,0005-00-0004-15.png
00000014,875,0,1443022619834,1443022620253,335,408,0,0,0,4,1,3,41,0004-00-0006-24.png,0001-00-0006-34.png
00000014,876,0,1443022623241,1443022623658,930,401,0,0,0,3,4,1,34,0003-00-0006-68.png,0004-00-0006-75.png
00000014,877,1,1443022626708,1443022627187,417,486,0,0,0,2,4,2,24,0002-00-0009-11.png,0004-00-0000-64.png
00000014,878,1,1443022628070,1443022628600,879,427,0,0,0,5,4,1,54,0005-00-0006-50.png,0004-00-0008-18.png
00000014,879,0,1443022629489,1443022630117,879,506,0,0,0,2,3,1,23,0002-00-0004-78.png,0003-00-0009-94.png
00000014,880,0,1443022633117,1443022633169,504,408,0,0,0,4,2,2,42,0004-00-0008-55.png,0002-00-0002-46.png
00000014,881,0,1443022637792,1443022638236,917,449,0,0,0,1,3,2,13,0001-00-0000-14.png,0003-00-0001-72.png
00000014,882,0,1443022645475,1443022645913,363,423,0,0,0,5,2,3,52,0005-00-0009-11.png,0002-00-0004-41.png
00000014,883,1,1443022649827,1443022650303,376,436,0,0,0,1,4,3,14,0001-00-0003-70.png,0004-00-0003-67.png
00000014,884,0,1443022651147,1443022651789,862,528,0,0,0,3,5,2,35,0003-00-0003-68.png,0005-00-0003-68.png
00000014,885,1,1443022658097,1443022658582,902,535,0,0,0,4,1,3,41,0004-00-0001-39.png,0001-00-0009-35.png
00000014,886,1,1443022659471,1443022659991,473,458,0,0,0,1,2,1,12,0001-00-0001-76.png,0002-00-0005-41.png
00000014,887,0,1443022660815,1443022661355,408,437,0,0,0,3,2,1,32,0003-00-0000-74.png,0002-00-0007-96.png
00000014,888,0,1443022664215,1443022664968,359,462,0,0,0,5,3,2,53,0005-00-0003-07.png,0003-00-0000-09.png
00000014,889,1,1443022667952,1443022668350,340,399,0,0,0,2,4,2,24,0002-00-0008-63.png,0004-00-0007-56.png
00000014,890,1,1443022669179,1443022669741,913,410,0,0,0,5,1,4,51,0005-00-0003-25.png,0001-00-0008-17.png
00000014,891,1,1443022670573,1443022671576,927,549,0,0,0,2,1,1,21,0002-00-0000-73.png,0001-00-0007-72.png
00000014,892,0,1443022672464,1443022672905,408,466,0,0,0,5,4,1,54,0005-00-0007-35.png,0004-00-0005-95.png
00000014,893,1,1443022679053,1443022679546,353,480,0,0,0,4,5,1,45,0004-00-0009-33.png,0005-00-0001-45.png
00000014,894,0,1443022680382,1443022680957,877,466,0,0,0,2,5,3,25,0002-00-0004-91.png,0005-00-0000-10.png
00000014,895,0,1443022684868,1443022685280,338,439,0,0,0,3,1,2,31,0003-00-0006-14.png,0001-00-0001-87.png
00000014,896,0,1443022688455,1443022688865,420,427,0,0,0,4,3,1,43,0004-00-0007-62.png,0003-00-0009-02.png
00000014,897,1,1443022691858,1443022692305,384,434,0,0,0,1,5,4,15,0001-00-0004-97.png,0005-00-0003-11.png
00000014,898,1,1443022693153,1443022694255,904,469,0,0,0,4,2,2,42,0004-00-0002-82.png,0002-00-0001-77.png
00000014,899,0,1443022695102,1443022695759,875,423,0,0,0,3,4,1,34,0003-00-0005-49.png,0004-00-0007-03.png
00000014,900,1,1443022699589,1443022700022,331,436,0,0,0,2,3,1,23,0002-00-0009-51.png,0003-00-0009-78.png
00000014,901,0,1443022700887,1443022701931,963,424,0,0,0,1,3,2,13,0001-00-0003-67.png,0003-00-0007-91.png
00000014,902,1,1443022705513,1443022705956,870,472,0,0,0,5,4,1,54,0005-00-0007-61.png,0004-00-0008-40.png
00000014,903,1,1443022706881,1443022707407,874,528,0,0,0,5,3,2,53,0005-00-0001-10.png,0003-00-0001-22.png
00000014,904,1,1443022708231,1443022708780,881,540,0,0,0,4,1,3,41,0004-00-0002-21.png,0001-00-0001-62.png
00000014,905,1,1443022709612,1443022710146,370,453,0,0,0,1,4,3,14,0001-00-0007-87.png,0004-00-0008-74.png
00000014,906,1,1443022710981,1443022711550,365,475,0,0,0,4,5,1,45,0004-00-0001-16.png,0005-00-0005-37.png
00000014,907,0,1443022712765,1443022713286,362,465,0,0,0,5,2,3,52,0005-00-0007-32.png,0002-00-0008-54.png
00000014,908,1,1443022718013,1443022718495,896,439,0,0,0,4,3,1,43,0004-00-0009-28.png,0003-00-0006-67.png
00000014,909,0,1443022719494,1443022720028,876,493,0,0,0,2,4,2,24,0002-00-0008-20.png,0004-00-0004-42.png
00000014,910,1,1443022723429,1443022723883,338,423,0,0,0,1,5,4,15,0001-00-0007-92.png,0005-00-0003-67.png
00000014,911,0,1443022724809,1443022725323,370,467,0,0,0,2,1,1,21,0002-00-0006-15.png,0001-00-0008-10.png
00000014,912,1,1443022728912,1443022729256,365,435,0,0,0,3,5,2,35,0003-00-0000-00.png,0005-00-0009-06.png
00000014,913,1,1443022730295,1443022730761,401,436,0,0,0,2,3,1,23,0002-00-0000-31.png,0003-00-0007-18.png
00000014,914,1,1443022731679,1443022732275,415,502,0,0,0,2,5,3,25,0002-00-0008-70.png,0005-00-0002-85.png
00000014,915,1,1443022733203,1443022733761,875,409,0,0,0,3,2,1,32,0003-00-0007-37.png,0002-00-0003-92.png
00000014,916,1,1443022734701,1443022735801,511,506,0,0,0,3,4,1,34,0003-00-0001-32.png,0004-00-0001-57.png
00000014,917,0,1443022736657,1443022736665,478,424,0,0,0,3,1,2,31,0003-00-0002-27.png,0001-00-0001-28.png
00000014,918,0,1443022739697,1443022740207,241,532,0,0,0,5,1,4,51,0005-00-0005-27.png,0001-00-0000-44.png
00000014,919,0,1443022743323,1443022743347,478,448,0,0,0,4,2,2,42,0004-00-0001-53.png,0002-00-0005-05.png
00000014,920,0,1443022747439,1443022747942,878,439,0,0,0,1,2,1,12,0001-00-0000-80.png,0002-00-0003-99.png
00000014,921,0,1443022750986,1443022751369,390,424,0,0,0,5,3,2,53,0005-00-0005-40.png,0003-00-0001-98.png
00000014,922,0,1443022754434,1443022754880,888,424,0,0,0,1,2,1,12,0001-00-0006-84.png,0002-00-0002-62.png
00000014,923,0,1443022757714,1443022758153,889,537,0,0,0,3,4,1,34,0003-00-0004-31.png,0004-00-0004-79.png
00000014,924,1,1443022761030,1443022761118,519,410,0,0,0,4,5,1,45,0004-00-0008-35.png,0005-00-0006-39.png
00000014,925,1,1443022761985,1443022762533,883,421,0,0,0,4,2,2,42,0004-00-0004-66.png,0002-00-0007-95.png
00000014,926,0,1443022763435,1443022764000,395,453,0,0,0,4,3,1,43,0004-00-0007-83.png,0003-00-0009-81.png
00000014,927,0,1443022766875,1443022767334,466,404,0,0,0,5,2,3,52,0005-00-0002-77.png,0002-00-0008-32.png
00000014,928,1,1443022770986,1443022771398,358,446,0,0,0,3,5,2,35,0003-00-0000-69.png,0005-00-0000-41.png
00000014,929,0,1443022772298,1443022772851,875,502,0,0,0,1,3,2,13,0001-00-0006-21.png,0003-00-0002-04.png
00000014,930,1,1443022775925,1443022776415,876,439,0,0,0,5,4,1,54,0005-00-0007-73.png,0004-00-0008-94.png
00000014,931,1,1443022777338,1443022777840,366,441,0,0,0,2,4,2,24,0002-00-0003-24.png,0004-00-0002-85.png
00000014,932,1,1443022779145,1443022779624,867,428,0,0,0,3,1,2,31,0003-00-0007-61.png,0001-00-0000-64.png
00000014,933,1,1443022780548,1443022781066,401,410,0,0,0,2,3,1,23,0002-00-0008-19.png,0003-00-0006-64.png
00000014,934,1,1443022781933,1443022782518,881,506,0,0,0,3,2,1,32,0003-00-0004-85.png,0002-00-0000-78.png
00000014,935,1,1443022783345,1443022783871,427,448,0,0,0,1,5,4,15,0001-00-0004-63.png,0005-00-0002-68.png
00000014,936,0,1443022784716,1443022785340,389,501,0,0,0,2,1,1,21,0002-00-0005-65.png,0001-00-0003-10.png
00000014,937,1,1443022788300,1443022788747,370,444,0,0,0,2,5,3,25,0002-00-0002-60.png,0005-00-0008-63.png
00000014,938,1,1443022789610,1443022790131,879,454,0,0,0,4,1,3,41,0004-00-0004-95.png,0001-00-0002-80.png
00000014,939,0,1443022790990,1443022791600,863,506,0,0,0,1,4,3,14,0001-00-0005-20.png,0004-00-0000-69.png
00000014,940,1,1443022795100,1443022796014,893,401,0,0,0,5,1,4,51,0005-00-0001-33.png,0001-00-0008-95.png
00000014,941,1,1443022796912,1443022797921,380,383,0,0,0,3,4,1,34,0003-00-0005-18.png,0004-00-0003-04.png
00000014,942,0,1443022798778,1443022799338,892,429,0,0,0,1,3,2,13,0001-00-0008-63.png,0003-00-0004-11.png
