subject_id,trial,correct_response,stim_time,response_time,x_coord,y_coord,trial_timeout,timeout_time,interTrial_timeout,left_rank,right_rank,distance,joint_rank,left_image,right_image
00000009,1,0,1443106783796,1443106784451,989,225,0,0,0,4,5,1,45,0004-00-0004-86.png,0005-00-0003-50.png
00000009,2,0,1443106787683,1443106789003,1078,308,0,0,0,1,5,4,15,0001-00-0000-09.png,0005-00-0002-71.png
00000009,3,1,1443106792164,1443106792880,942,362,0,0,0,4,1,3,41,0004-00-0002-88.png,0001-00-0005-52.png
00000009,4,1,1443106794518,1443106794992,878,462,0,0,0,5,2,3,52,0005-00-0001-74.png,0002-00-0009-15.png
00000009,5,1,1443106796061,1443106796165,886,428,0,0,0,2,1,1,21,0002-00-0008-38.png,0001-00-0009-37.png
00000009,6,1,1443106797084,1443106797172,886,459,0,0,0,5,1,4,51,0005-00-0000-67.png,0001-00-0008-01.png
00000009,7,1,1443106798147,1443106798195,874,430,0,0,0,4,3,1,43,0004-00-0000-06.png,0003-00-0008-82.png
00000009,8,1,1443106799237,1443106799357,924,552,0,0,0,5,4,1,54,0005-00-0004-59.png,0004-00-0008-33.png
00000009,9,1,1443106800274,1443106800290,863,476,0,0,0,3,2,1,32,0003-00-0007-64.png,0002-00-0009-98.png
00000009,10,1,1443106801654,1443106801722,890,469,0,0,0,4,2,2,42,0004-00-0005-58.png,0002-00-0004-84.png
00000009,11,0,1443106802779,1443106802803,870,454,0,0,0,1,2,1,12,0001-00-0000-77.png,0002-00-0006-81.png
00000009,12,1,1443106806264,1443106806804,918,351,0,0,0,3,1,2,31,0003-00-0004-50.png,0001-00-0000-94.png
00000009,13,0,1443106807707,1443106808817,1071,297,0,0,0,2,3,1,23,0002-00-0003-21.png,0003-00-0006-14.png
00000009,14,0,1443106811931,1443106812510,1069,325,0,0,0,3,4,1,34,0003-00-0006-12.png,0004-00-0007-29.png
00000009,15,0,1443106815419,1443106815519,869,289,0,0,0,1,4,3,14,0001-00-0001-77.png,0004-00-0004-02.png
00000009,16,1,1443106818648,1443106819370,349,405,0,0,0,3,5,2,35,0003-00-0000-90.png,0005-00-0002-27.png
00000009,17,1,1443106820338,1443106820366,901,409,0,0,0,5,3,2,53,0005-00-0005-21.png,0003-00-0005-09.png
00000009,18,0,1443106821270,1443106821290,889,418,0,0,0,1,3,2,13,0001-00-0009-66.png,0003-00-0001-14.png
00000009,19,1,1443106824240,1443106824898,423,291,0,0,0,2,4,2,24,0002-00-0000-23.png,0004-00-0001-49.png
00000009,20,0,1443106825773,1443106825829,868,401,0,0,0,2,5,3,25,0002-00-0005-32.png,0005-00-0008-83.png
00000009,21,1,1443106829131,1443106829872,422,259,0,0,0,3,5,2,35,0003-00-0006-57.png,0005-00-0005-48.png
00000009,22,0,1443106830770,1443106830831,882,421,0,0,0,1,4,3,14,0001-00-0008-05.png,0004-00-0001-20.png
00000009,23,1,1443106833962,1443106834496,963,353,0,0,0,3,2,1,32,0003-00-0001-76.png,0002-00-0000-40.png
00000009,24,1,1443106835839,1443106835895,887,410,0,0,0,4,3,1,43,0004-00-0007-16.png,0003-00-0001-92.png
00000009,25,0,1443106836861,1443106836901,885,410,0,0,0,4,5,1,45,0004-00-0006-66.png,0005-00-0004-66.png
00000009,26,1,1443106840041,1443106840611,942,347,0,0,0,5,2,3,52,0005-00-0009-65.png,0002-00-0006-89.png
00000009,27,0,1443106841891,1443106841927,903,398,0,0,0,1,3,2,13,0001-00-0003-92.png,0003-00-0002-59.png
00000009,28,1,1443106845081,1443106846044,462,250,0,0,0,2,4,2,24,0002-00-0005-40.png,0004-00-0008-76.png
00000009,29,0,1443106847287,1443106848458,915,332,0,0,0,3,4,1,34,0003-00-0005-36.png,0004-00-0003-10.png
00000009,30,1,1443106851431,1443106852039,1108,306,0,0,0,5,1,4,51,0005-00-0009-15.png,0001-00-0007-33.png
00000009,31,1,1443106853398,1443106853445,901,400,0,0,0,5,3,2,53,0005-00-0004-65.png,0003-00-0000-08.png
00000009,32,1,1443106854340,1443106854388,887,444,0,0,0,3,1,2,31,0003-00-0004-22.png,0001-00-0006-16.png
00000009,33,0,1443106855485,1443106855513,888,410,0,0,0,2,3,1,23,0002-00-0005-61.png,0003-00-0002-74.png
00000009,34,1,1443106858683,1443106859450,919,348,0,0,0,4,2,2,42,0004-00-0008-63.png,0002-00-0001-84.png
00000009,35,1,1443106860720,1443106861698,472,294,0,0,0,1,5,4,15,0001-00-0000-61.png,0005-00-0007-08.png
00000009,36,1,1443106862549,1443106863108,939,514,0,0,0,4,1,3,41,0004-00-0009-08.png,0001-00-0006-84.png
00000009,37,0,1443106863958,1443106864010,924,445,0,0,0,2,5,3,25,0002-00-0007-91.png,0005-00-0009-89.png
00000009,38,0,1443106866892,1443106866912,520,366,0,0,0,5,4,1,54,0005-00-0004-59.png,0004-00-0006-26.png
00000009,39,0,1443106870051,1443106870867,405,268,0,0,0,2,1,1,21,0002-00-0004-84.png,0001-00-0009-40.png
00000009,40,0,1443106873967,1443106874516,1091,325,0,0,0,1,2,1,12,0001-00-0009-15.png,0002-00-0001-23.png
00000009,41,1,1443106877362,1443106878196,453,240,0,0,0,1,5,4,15,0001-00-0007-48.png,0005-00-0007-70.png
00000009,42,0,1443106879055,1443106879182,913,462,0,0,0,3,4,1,34,0003-00-0002-98.png,0004-00-0001-56.png
00000009,43,1,1443106882265,1443106883022,429,251,0,0,0,2,5,3,25,0002-00-0009-82.png,0005-00-0007-77.png
00000009,44,1,1443106884409,1443106885196,1037,282,0,0,0,4,1,3,41,0004-00-0000-50.png,0001-00-0002-82.png
00000009,45,1,1443106886088,1443106886108,941,416,0,0,0,3,2,1,32,0003-00-0006-62.png,0002-00-0000-76.png
00000009,46,0,1443106887591,1443106887667,931,460,0,0,0,1,3,2,13,0001-00-0004-14.png,0003-00-0009-41.png
00000009,47,1,1443106890790,1443106891351,346,414,0,0,0,2,3,1,23,0002-00-0005-99.png,0003-00-0008-30.png
00000009,48,1,1443106892760,1443106893499,941,306,0,0,0,5,1,4,51,0005-00-0004-71.png,0001-00-0003-16.png
00000009,49,1,1443106894386,1443106894438,930,424,0,0,0,3,1,2,31,0003-00-0007-53.png,0001-00-0000-53.png
00000009,50,0,1443106895838,1443106895918,913,488,0,0,0,4,5,1,45,0004-00-0002-95.png,0005-00-0004-11.png
00000009,51,0,1443106898909,1443106899505,474,265,0,0,0,4,3,1,43,0004-00-0009-28.png,0003-00-0009-80.png
00000009,52,1,1443106902494,1443106902724,983,334,0,0,0,5,4,1,54,0005-00-0006-79.png,0004-00-0009-57.png
00000009,53,0,1443106903688,1443106903736,867,426,0,0,0,2,4,2,24,0002-00-0004-28.png,0004-00-0002-08.png
00000009,54,1,1443106906868,1443106907523,450,267,0,0,0,1,4,3,14,0001-00-0003-76.png,0004-00-0002-50.png
00000009,55,1,1443106908877,1443106908925,888,347,0,0,0,5,3,2,53,0005-00-0000-46.png,0003-00-0000-79.png
00000009,56,1,1443106909839,1443106910329,879,473,0,0,0,5,2,3,52,0005-00-0006-71.png,0002-00-0003-89.png
00000009,57,1,1443106911370,1443106911398,866,389,0,0,0,4,2,2,42,0004-00-0006-85.png,0002-00-0009-81.png
00000009,58,0,1443106912790,1443106912839,873,415,0,0,0,3,5,2,35,0003-00-0006-81.png,0005-00-0007-21.png
00000009,59,1,1443106916020,1443106916633,466,270,0,0,0,1,2,1,12,0001-00-0009-54.png,0002-00-0005-66.png
00000009,60,1,1443106917490,1443106917578,913,488,0,0,0,2,1,1,21,0002-00-0001-64.png,0001-00-0000-06.png
00000009,61,0,1443106918972,1443106919969,458,294,0,0,0,5,3,2,53,0005-00-0003-54.png,0003-00-0005-83.png
00000009,62,1,1443106922888,1443106923489,936,341,0,0,0,2,1,1,21,0002-00-0003-11.png,0001-00-0001-11.png
00000009,63,0,1443106924774,1443106924830,871,384,0,0,0,1,4,3,14,0001-00-0002-90.png,0004-00-0001-54.png
00000009,64,1,1443106927917,1443106928477,464,258,0,0,0,1,5,4,15,0001-00-0003-23.png,0005-00-0002-39.png
00000009,65,1,1443106929686,1443106930746,346,399,0,0,0,3,5,2,35,0003-00-0008-82.png,0005-00-0000-35.png
00000009,66,1,1443106932201,1443106933314,466,250,0,0,0,2,4,2,24,0002-00-0001-22.png,0004-00-0009-30.png
00000009,67,0,1443106934151,1443106935341,435,298,0,0,0,4,2,2,42,0004-00-0009-58.png,0002-00-0004-17.png
00000009,68,1,1443106938432,1443106939015,1091,328,0,0,0,5,1,4,51,0005-00-0000-75.png,0001-00-0005-66.png
00000009,69,0,1443106939829,1443106939861,867,423,0,0,0,1,2,1,12,0001-00-0001-83.png,0002-00-0006-98.png
00000009,70,1,1443106942731,1443106943474,346,383,0,0,0,4,5,1,45,0004-00-0008-54.png,0005-00-0006-85.png
00000009,71,1,1443106944301,1443106944483,939,514,0,0,0,5,2,3,52,0005-00-0002-88.png,0002-00-0007-15.png
00000009,72,1,1443106945942,1443106946014,865,410,0,0,0,3,1,2,31,0003-00-0009-87.png,0001-00-0009-41.png
00000009,73,1,1443106946945,1443106947331,913,514,0,0,0,5,4,1,54,0005-00-0008-01.png,0004-00-0003-89.png
00000009,74,0,1443106948485,1443106948537,861,396,0,0,0,2,3,1,23,0002-00-0006-63.png,0003-00-0005-81.png
00000009,75,0,1443106951509,1443106951517,513,517,0,0,0,4,3,1,43,0004-00-0001-97.png,0003-00-0009-23.png
00000009,76,0,1443106954458,1443106955151,1092,279,0,0,0,3,4,1,34,0003-00-0008-67.png,0004-00-0009-83.png
00000009,77,1,1443106957993,1443106958901,442,242,0,0,0,2,5,3,25,0002-00-0008-55.png,0005-00-0009-64.png
00000009,78,1,1443106959721,1443106960775,933,366,0,0,0,4,1,3,41,0004-00-0003-13.png,0001-00-0007-52.png
00000009,79,1,1443106961672,1443106961740,941,403,0,0,0,3,2,1,32,0003-00-0001-02.png,0002-00-0003-72.png
00000009,80,0,1443106962613,1443106962689,860,448,0,0,0,1,3,2,13,0001-00-0009-95.png,0003-00-0009-79.png
00000009,81,0,1443106965704,1443106966516,1097,268,0,0,0,3,5,2,35,0003-00-0000-33.png,0005-00-0007-35.png
00000009,82,1,1443106969442,1443106970029,359,377,0,0,0,2,5,3,25,0002-00-0004-68.png,0005-00-0007-69.png
00000009,83,0,1443106970842,1443106971137,874,500,0,0,0,3,4,1,34,0003-00-0000-80.png,0004-00-0001-24.png
00000009,84,1,1443106974015,1443106974571,961,328,0,0,0,5,1,4,51,0005-00-0002-71.png,0001-00-0009-83.png
00000009,85,1,1443106975883,1443106975963,883,368,0,0,0,5,2,3,52,0005-00-0007-19.png,0002-00-0006-22.png
00000009,86,1,1443106976955,1443106977114,913,488,0,0,0,2,1,1,21,0002-00-0000-45.png,0001-00-0004-41.png
00000009,87,1,1443106978038,1443106978126,888,488,0,0,0,5,3,2,53,0005-00-0004-81.png,0003-00-0006-34.png
00000009,88,0,1443106979120,1443106979946,496,377,0,0,0,4,3,1,43,0004-00-0006-81.png,0003-00-0005-98.png
00000009,89,1,1443106983028,1443106983561,934,326,0,0,0,4,1,3,41,0004-00-0007-12.png,0001-00-0004-99.png
00000009,90,1,1443106984658,1443106985484,408,382,0,0,0,1,2,1,12,0001-00-0002-30.png,0002-00-0006-85.png
00000009,91,1,1443106986516,1443106987301,486,351,0,0,0,2,4,2,24,0002-00-0000-07.png,0004-00-0006-48.png
00000009,92,0,1443106988285,1443106988748,878,472,0,0,0,4,5,1,45,0004-00-0000-24.png,0005-00-0007-45.png
00000009,93,1,1443106991893,1443106992427,470,279,0,0,0,1,4,3,14,0001-00-0008-05.png,0004-00-0009-42.png
00000009,94,1,1443106993776,1443106994631,405,419,0,0,0,2,3,1,23,0002-00-0004-01.png,0003-00-0007-08.png
00000009,95,1,1443106995518,1443106995677,901,462,0,0,0,4,2,2,42,0004-00-0006-62.png,0002-00-0003-57.png
00000009,96,1,1443106996858,1443106997018,869,452,0,0,0,5,4,1,54,0005-00-0005-02.png,0004-00-0005-03.png
00000009,97,0,1443106997882,1443106997970,888,488,0,0,0,1,5,4,15,0001-00-0005-58.png,0005-00-0006-85.png
00000009,98,0,1443107001014,1443107001640,467,236,0,0,0,3,1,2,31,0003-00-0002-85.png,0001-00-0007-71.png
00000009,99,1,1443107004772,1443107004935,880,403,0,0,0,3,2,1,32,0003-00-0008-93.png,0002-00-0009-83.png
00000009,100,1,1443107005942,1443107007290,425,249,0,0,0,1,3,2,13,0001-00-0007-03.png,0003-00-0006-91.png
00000009,101,1,1443107008136,1443107008745,931,538,0,0,0,5,2,3,52,0005-00-0009-40.png,0002-00-0003-23.png
00000009,102,0,1443107009751,1443107009879,896,480,0,0,0,1,3,2,13,0001-00-0009-97.png,0003-00-0008-30.png
00000009,103,1,1443107012798,1443107013343,434,274,0,0,0,1,5,4,15,0001-00-0000-31.png,0005-00-0001-84.png
00000009,104,1,1443107014746,1443107015582,939,313,0,0,0,3,2,1,32,0003-00-0005-30.png,0002-00-0003-69.png
00000009,105,1,1443107016466,1443107016494,875,424,0,0,0,5,1,4,51,0005-00-0006-35.png,0001-00-0008-28.png
00000009,106,0,1443107017905,1443107017948,861,420,0,0,0,4,5,1,45,0004-00-0004-64.png,0005-00-0005-19.png
00000009,107,1,1443107021108,1443107021783,335,416,0,0,0,2,3,1,23,0002-00-0002-16.png,0003-00-0007-81.png
00000009,108,1,1443107023066,1443107024294,947,355,0,0,0,4,1,3,41,0004-00-0008-26.png,0001-00-0007-93.png
00000009,109,1,1443107025647,1443107025687,872,384,0,0,0,2,1,1,21,0002-00-0003-56.png,0001-00-0001-46.png
00000009,110,0,1443107026560,1443107026851,939,541,0,0,0,3,5,2,35,0003-00-0002-05.png,0005-00-0000-95.png
00000009,111,1,1443107029731,1443107030397,482,259,0,0,0,1,2,1,12,0001-00-0006-66.png,0002-00-0002-35.png
00000009,112,1,1443107031730,1443107031774,862,346,0,0,0,5,4,1,54,0005-00-0006-88.png,0004-00-0006-13.png
00000009,113,1,1443107032742,1443107033653,942,351,0,0,0,4,2,2,42,0004-00-0009-03.png,0002-00-0005-54.png
00000009,114,1,1443107034512,1443107034548,922,423,0,0,0,4,3,1,43,0004-00-0003-10.png,0003-00-0003-74.png
00000009,115,0,1443107035933,1443107036005,888,488,0,0,0,1,4,3,14,0001-00-0005-87.png,0004-00-0000-58.png
00000009,116,0,1443107038892,1443107039478,1055,307,0,0,0,2,4,2,24,0002-00-0008-46.png,0004-00-0003-72.png
00000009,117,1,1443107042869,1443107043502,481,295,0,0,0,2,5,3,25,0002-00-0004-63.png,0005-00-0000-46.png
00000009,118,0,1443107044856,1443107044940,869,373,0,0,0,3,4,1,34,0003-00-0000-15.png,0004-00-0004-82.png
00000009,119,1,1443107048176,1443107048775,1098,299,0,0,0,3,1,2,31,0003-00-0005-32.png,0001-00-0007-34.png
00000009,120,1,1443107049946,1443107050033,878,388,0,0,0,5,3,2,53,0005-00-0006-79.png,0003-00-0000-55.png
00000009,121,0,1443107051118,1443107051166,870,435,0,0,0,1,5,4,15,0001-00-0006-21.png,0005-00-0009-09.png
00000009,122,1,1443107054081,1443107054655,951,331,0,0,0,5,1,4,51,0005-00-0009-55.png,0001-00-0001-53.png
00000009,123,1,1443107055775,1443107055844,916,399,0,0,0,3,2,1,32,0003-00-0004-15.png,0002-00-0001-10.png
00000009,124,0,1443107057298,1443107058048,468,267,0,0,0,5,4,1,54,0005-00-0004-01.png,0004-00-0002-68.png
00000009,125,1,1443107060967,1443107061538,346,395,0,0,0,1,4,3,14,0001-00-0007-58.png,0004-00-0008-66.png
00000009,126,1,1443107062884,1443107062928,888,370,0,0,0,3,1,2,31,0003-00-0004-82.png,0001-00-0001-54.png
00000009,127,1,1443107064420,1443107064722,901,529,0,0,0,2,1,1,21,0002-00-0001-13.png,0001-00-0000-93.png
00000009,128,0,1443107065932,1443107066020,913,541,0,0,0,2,4,2,24,0002-00-0005-78.png,0004-00-0001-27.png
00000009,129,1,1443107069082,1443107069748,435,266,0,0,0,1,3,2,13,0001-00-0001-85.png,0003-00-0004-92.png
00000009,130,0,1443107071130,1443107071198,862,358,0,0,0,3,4,1,34,0003-00-0005-20.png,0004-00-0001-17.png
00000009,131,1,1443107074389,1443107074915,938,351,0,0,0,4,1,3,41,0004-00-0003-42.png,0001-00-0006-02.png
00000009,132,0,1443107076068,1443107076168,862,401,0,0,0,2,5,3,25,0002-00-0004-56.png,0005-00-0009-60.png
00000009,133,0,1443107079517,1443107080122,470,232,0,0,0,4,3,1,43,0004-00-0009-14.png,0003-00-0009-40.png
00000009,134,1,1443107083196,1443107083924,919,348,0,0,0,5,3,2,53,0005-00-0001-27.png,0003-00-0001-24.png
00000009,135,1,1443107084862,1443107086087,453,243,0,0,0,4,5,1,45,0004-00-0004-10.png,0005-00-0000-78.png
00000009,136,1,1443107086991,1443107087259,899,500,0,0,0,4,2,2,42,0004-00-0002-43.png,0002-00-0002-52.png
00000009,137,0,1443107088242,1443107088310,876,503,0,0,0,2,3,1,23,0002-00-0006-81.png,0003-00-0004-61.png
00000009,138,1,1443107091472,1443107091520,920,332,0,0,0,5,2,3,52,0005-00-0006-79.png,0002-00-0000-33.png
00000009,139,0,1443107092434,1443107092721,926,541,0,0,0,1,2,1,12,0001-00-0002-10.png,0002-00-0002-66.png
00000009,140,0,1443107095687,1443107096832,1092,306,0,0,0,3,5,2,35,0003-00-0008-62.png,0005-00-0000-70.png
00000009,141,1,1443107099950,1443107100524,915,349,0,0,0,3,2,1,32,0003-00-0005-10.png,0002-00-0008-23.png
00000009,142,1,1443107101354,1443107102621,349,385,0,0,0,1,4,3,14,0001-00-0006-36.png,0004-00-0006-65.png
00000009,143,1,1443107103548,1443107105068,377,386,0,0,0,3,5,2,35,0003-00-0007-37.png,0005-00-0005-94.png
00000009,144,1,1443107105942,1443107106740,427,397,0,0,0,2,4,2,24,0002-00-0006-25.png,0004-00-0007-29.png
00000009,145,0,1443107107851,1443107108630,963,302,0,0,0,2,3,1,23,0002-00-0006-97.png,0003-00-0002-58.png
00000009,146,1,1443107111756,1443107112288,400,412,0,0,0,1,5,4,15,0001-00-0003-77.png,0005-00-0001-92.png
00000009,147,0,1443107113516,1443107113564,862,361,0,0,0,1,3,2,13,0001-00-0005-65.png,0003-00-0008-80.png
00000009,148,1,1443107117023,1443107117656,488,258,0,0,0,2,5,3,25,0002-00-0004-09.png,0005-00-0009-39.png
00000009,149,1,1443107118920,1443107120151,383,401,0,0,0,4,5,1,45,0004-00-0007-80.png,0005-00-0008-32.png
00000009,150,0,1443107121025,1443107121373,867,501,0,0,0,3,4,1,34,0003-00-0005-62.png,0004-00-0007-12.png
00000009,151,1,1443107124194,1443107125042,939,344,0,0,0,4,1,3,41,0004-00-0001-70.png,0001-00-0007-58.png
00000009,152,0,1443107126104,1443107127348,385,378,0,0,0,2,1,1,21,0002-00-0006-00.png,0001-00-0003-68.png
00000009,153,1,1443107130329,1443107130889,915,344,0,0,0,5,1,4,51,0005-00-0002-75.png,0001-00-0002-80.png
00000009,154,0,1443107131748,1443107132913,925,351,0,0,0,1,2,1,12,0001-00-0002-13.png,0002-00-0009-59.png
00000009,155,1,1443107135894,1443107136418,1021,293,0,0,0,5,2,3,52,0005-00-0002-58.png,0002-00-0007-36.png
00000009,156,1,1443107137254,1443107138508,1038,298,0,0,0,5,3,2,53,0005-00-0007-96.png,0003-00-0001-60.png
00000009,157,1,1443107139401,1443107139521,913,462,0,0,0,5,4,1,54,0005-00-0006-90.png,0004-00-0001-91.png
00000009,158,1,1443107140475,1443107140543,925,501,0,0,0,3,1,2,31,0003-00-0003-52.png,0001-00-0002-30.png
00000009,159,1,1443107141658,1443107141745,924,525,0,0,0,4,2,2,42,0004-00-0002-66.png,0002-00-0000-86.png
00000009,160,1,1443107142870,1443107142922,874,436,0,0,0,4,3,1,43,0004-00-0002-23.png,0003-00-0001-75.png
00000009,161,1,1443107144598,1443107144634,865,423,0,0,0,4,3,1,43,0004-00-0000-20.png,0003-00-0002-19.png
00000009,162,1,1443107145771,1443107145819,882,409,0,0,0,4,1,3,41,0004-00-0006-55.png,0001-00-0000-53.png
00000009,163,1,1443107147072,1443107147132,887,450,0,0,0,5,3,2,53,0005-00-0001-38.png,0003-00-0000-56.png
00000009,164,1,1443107148424,1443107148515,913,514,0,0,0,5,2,3,52,0005-00-0003-24.png,0002-00-0003-25.png
00000009,165,0,1443107149887,1443107149967,939,514,0,0,0,2,3,1,23,0002-00-0000-58.png,0003-00-0006-92.png
00000009,166,1,1443107153064,1443107153766,1092,342,0,0,0,3,1,2,31,0003-00-0008-96.png,0001-00-0006-71.png
00000009,167,0,1443107154746,1443107155625,936,325,0,0,0,1,2,1,12,0001-00-0003-16.png,0002-00-0007-88.png
00000009,168,1,1443107158718,1443107159473,434,290,0,0,0,2,4,2,24,0002-00-0005-73.png,0004-00-0007-77.png
00000009,169,1,1443107160317,1443107161493,360,370,0,0,0,3,4,1,34,0003-00-0008-16.png,0004-00-0008-76.png
00000009,170,0,1443107162417,1443107162895,939,514,0,0,0,1,5,4,15,0001-00-0006-60.png,0005-00-0000-48.png
00000009,171,1,1443107165873,1443107166457,464,293,0,0,0,3,5,2,35,0003-00-0008-36.png,0005-00-0009-68.png
00000009,172,1,1443107167315,1443107168209,939,369,0,0,0,2,1,1,21,0002-00-0003-44.png,0001-00-0001-24.png
00000009,173,0,1443107169052,1443107169466,905,494,0,0,0,1,4,3,14,0001-00-0005-97.png,0004-00-0005-90.png
00000009,174,1,1443107172673,1443107173254,917,344,0,0,0,5,4,1,54,0005-00-0006-24.png,0004-00-0005-06.png
00000009,175,0,1443107174173,1443107175222,477,229,0,0,0,4,2,2,42,0004-00-0000-39.png,0002-00-0001-85.png
00000009,176,1,1443107178306,1443107179030,428,320,0,0,0,4,5,1,45,0004-00-0008-76.png,0005-00-0004-58.png
00000009,177,1,1443107179863,1443107180691,923,378,0,0,0,3,2,1,32,0003-00-0001-45.png,0002-00-0000-56.png
00000009,178,0,1443107181604,1443107181684,870,410,0,0,0,1,3,2,13,0001-00-0001-13.png,0003-00-0008-87.png
00000009,179,1,1443107184664,1443107185440,466,261,0,0,0,2,5,3,25,0002-00-0003-31.png,0005-00-0006-55.png
00000009,180,1,1443107186303,1443107186363,862,410,0,0,0,5,1,4,51,0005-00-0000-55.png,0001-00-0008-71.png
00000009,181,0,1443107187209,1443107187526,913,541,0,0,0,1,5,4,15,0001-00-0009-99.png,0005-00-0001-45.png
00000009,182,0,1443107190357,1443107191228,1070,304,0,0,0,3,5,2,35,0003-00-0007-48.png,0005-00-0009-84.png
00000009,183,1,1443107194336,1443107195190,345,402,0,0,0,1,2,1,12,0001-00-0000-61.png,0002-00-0009-17.png
00000009,184,1,1443107196062,1443107197144,942,345,0,0,0,5,2,3,52,0005-00-0004-80.png,0002-00-0008-60.png
00000009,185,0,1443107198041,1443107198109,926,397,0,0,0,2,4,2,24,0002-00-0008-73.png,0004-00-0001-85.png
00000009,186,1,1443107201522,1443107202280,939,346,0,0,0,5,1,4,51,0005-00-0000-03.png,0001-00-0009-90.png
00000009,187,1,1443107203616,1443107203668,867,331,0,0,0,5,4,1,54,0005-00-0007-28.png,0004-00-0004-10.png
00000009,188,0,1443107204690,1443107205314,927,555,0,0,0,1,4,3,14,0001-00-0002-01.png,0004-00-0006-30.png
00000009,189,1,1443107208436,1443107209008,964,349,0,0,0,3,2,1,32,0003-00-0008-70.png,0002-00-0002-69.png
00000009,190,0,1443107210212,1443107210292,862,423,0,0,0,2,3,1,23,0002-00-0004-26.png,0003-00-0009-91.png
00000009,191,1,1443107213264,1443107213340,868,326,0,0,0,4,3,1,43,0004-00-0009-79.png,0003-00-0005-33.png
00000009,192,1,1443107214257,1443107215276,455,269,0,0,0,1,3,2,13,0001-00-0001-72.png,0003-00-0005-91.png
00000009,193,0,1443107216175,1443107217970,942,334,0,0,0,4,5,1,45,0004-00-0002-70.png,0005-00-0002-81.png
00000009,194,0,1443107220905,1443107220913,514,474,0,0,0,3,1,2,31,0003-00-0007-36.png,0001-00-0007-80.png
00000009,195,1,1443107224045,1443107224641,430,281,0,0,0,3,4,1,34,0003-00-0005-05.png,0004-00-0005-81.png
00000009,196,1,1443107225497,1443107226138,939,488,0,0,0,4,1,3,41,0004-00-0002-40.png,0001-00-0000-79.png
00000009,197,1,1443107227128,1443107227176,892,397,0,0,0,2,1,1,21,0002-00-0009-80.png,0001-00-0001-02.png
00000009,198,1,1443107228628,1443107229493,471,255,0,0,0,2,5,3,25,0002-00-0006-94.png,0005-00-0005-60.png
00000009,199,1,1443107230429,1443107230661,873,514,0,0,0,5,3,2,53,0005-00-0003-60.png,0003-00-0002-51.png
00000009,200,1,1443107231599,1443107233595,1073,292,0,0,0,4,2,2,42,0004-00-0004-63.png,0002-00-0003-46.png
00000009,201,1,1443107234440,1443107234488,865,413,0,0,0,3,2,1,32,0003-00-0005-88.png,0002-00-0008-81.png
00000009,202,1,1443107235416,1443107235519,899,501,0,0,0,2,1,1,21,0002-00-0006-44.png,0001-00-0008-16.png
00000009,203,1,1443107236637,1443107236760,860,500,0,0,0,4,3,1,43,0004-00-0007-15.png,0003-00-0009-17.png
00000009,204,1,1443107237889,1443107238886,891,347,0,0,0,5,2,3,52,0005-00-0007-16.png,0002-00-0008-17.png
00000009,205,0,1443107240316,1443107240364,868,369,0,0,0,1,2,1,12,0001-00-0004-59.png,0002-00-0000-50.png
00000009,206,1,1443107243545,1443107244110,435,409,0,0,0,1,3,2,13,0001-00-0004-27.png,0003-00-0000-99.png
00000009,207,1,1443107245422,1443107245478,865,401,0,0,0,5,4,1,54,0005-00-0005-42.png,0004-00-0009-81.png
00000009,208,1,1443107246365,1443107247719,379,378,0,0,0,1,4,3,14,0001-00-0005-09.png,0004-00-0001-72.png
00000009,209,1,1443107248603,1443107249645,932,366,0,0,0,5,1,4,51,0005-00-0005-25.png,0001-00-0005-69.png
00000009,210,1,1443107250509,1443107250569,864,437,0,0,0,4,2,2,42,0004-00-0003-27.png,0002-00-0007-74.png
00000009,211,1,1443107251883,1443107252833,371,397,0,0,0,2,4,2,24,0002-00-0007-76.png,0004-00-0007-94.png
00000009,212,0,1443107253697,1443107254855,471,229,0,0,0,5,3,2,53,0005-00-0007-71.png,0003-00-0004-25.png
00000009,213,0,1443107257965,1443107258575,941,354,0,0,0,4,5,1,45,0004-00-0003-09.png,0005-00-0000-36.png
00000009,214,1,1443107261629,1443107262217,939,375,0,0,0,3,1,2,31,0003-00-0007-52.png,0001-00-0008-51.png
00000009,215,0,1443107263550,1443107263598,885,355,0,0,0,2,5,3,25,0002-00-0006-48.png,0005-00-0002-26.png
00000009,216,1,1443107266579,1443107267166,386,368,0,0,0,2,3,1,23,0002-00-0000-59.png,0003-00-0002-71.png
00000009,217,1,1443107267987,1443107268950,480,288,0,0,0,3,5,2,35,0003-00-0003-22.png,0005-00-0002-00.png
00000009,218,1,1443107269889,1443107269949,863,449,0,0,0,4,1,3,41,0004-00-0000-87.png,0001-00-0005-08.png
00000009,219,0,1443107270950,1443107271046,888,514,0,0,0,3,4,1,34,0003-00-0007-03.png,0004-00-0002-05.png
00000009,220,1,1443107274179,1443107274784,415,381,0,0,0,1,5,4,15,0001-00-0004-93.png,0005-00-0009-20.png
00000009,221,1,1443107276237,1443107277111,1067,279,0,0,0,3,2,1,32,0003-00-0003-51.png,0002-00-0001-19.png
00000009,222,1,1443107278017,1443107278073,860,467,0,0,0,4,2,2,42,0004-00-0007-41.png,0002-00-0005-87.png
00000009,223,1,1443107279118,1443107279632,901,555,0,0,0,3,1,2,31,0003-00-0003-64.png,0001-00-0000-69.png
00000009,224,1,1443107280720,1443107281219,884,534,0,0,0,5,2,3,52,0005-00-0001-67.png,0002-00-0007-39.png
00000009,225,1,1443107282380,1443107282448,885,441,0,0,0,5,4,1,54,0005-00-0005-05.png,0004-00-0004-38.png
00000009,226,0,1443107283400,1443107283476,902,514,0,0,0,1,5,4,15,0001-00-0007-00.png,0005-00-0009-62.png
00000009,227,1,1443107286749,1443107287343,384,396,0,0,0,1,4,3,14,0001-00-0003-33.png,0004-00-0007-38.png
00000009,228,0,1443107288191,1443107289109,891,368,0,0,0,2,5,3,25,0002-00-0008-04.png,0005-00-0004-39.png
00000009,229,1,1443107292325,1443107292876,402,409,0,0,0,4,5,1,45,0004-00-0002-28.png,0005-00-0009-33.png
00000009,230,1,1443107293713,1443107293902,915,483,0,0,0,4,1,3,41,0004-00-0001-80.png,0001-00-0004-09.png
00000009,231,0,1443107294809,1443107294897,862,449,0,0,0,2,3,1,23,0002-00-0002-15.png,0003-00-0002-93.png
00000009,232,1,1443107298039,1443107298693,918,353,0,0,0,5,3,2,53,0005-00-0008-74.png,0003-00-0000-08.png
00000009,233,0,1443107299535,1443107299587,868,401,0,0,0,1,2,1,12,0001-00-0004-59.png,0002-00-0009-13.png
00000009,234,1,1443107302623,1443107303184,922,350,0,0,0,2,1,1,21,0002-00-0009-11.png,0001-00-0002-30.png
00000009,235,0,1443107304528,1443107304631,877,406,0,0,0,3,5,2,35,0003-00-0008-55.png,0005-00-0000-35.png
00000009,236,0,1443107307749,1443107308529,988,330,0,0,0,3,4,1,34,0003-00-0005-19.png,0004-00-0001-27.png
00000009,237,1,1443107311625,1443107312204,939,342,0,0,0,5,1,4,51,0005-00-0006-68.png,0001-00-0000-60.png
00000009,238,0,1443107313431,1443107313471,863,359,0,0,0,2,4,2,24,0002-00-0002-97.png,0004-00-0004-37.png
00000009,239,0,1443107316572,1443107316612,940,330,0,0,0,1,3,2,13,0001-00-0009-49.png,0003-00-0008-42.png
00000009,240,1,1443107319960,1443107319980,911,282,0,0,0,4,3,1,43,0004-00-0007-53.png,0003-00-0003-35.png
00000009,241,1,1443107320854,1443107322049,1090,336,0,0,0,2,1,1,21,0002-00-0004-28.png,0001-00-0004-37.png
00000009,242,1,1443107322868,1443107322932,870,428,0,0,0,5,4,1,54,0005-00-0004-93.png,0004-00-0009-61.png
00000009,243,1,1443107324162,1443107324276,902,503,0,0,0,3,2,1,32,0003-00-0002-80.png,0002-00-0008-58.png
00000009,244,1,1443107325365,1443107325472,888,488,0,0,0,5,3,2,53,0005-00-0007-31.png,0003-00-0006-56.png
00000009,245,0,1443107326579,1443107326835,876,529,0,0,0,1,4,3,14,0001-00-0007-84.png,0004-00-0004-58.png
00000009,246,0,1443107329999,1443107330510,936,331,0,0,0,2,4,2,24,0002-00-0009-05.png,0004-00-0003-48.png
00000009,247,1,1443107333677,1443107333907,932,328,0,0,0,3,1,2,31,0003-00-0009-48.png,0001-00-0004-98.png
00000009,248,0,1443107334872,1443107335828,373,404,0,0,0,4,1,3,41,0004-00-0004-12.png,0001-00-0003-36.png
00000009,249,1,1443107338992,1443107339811,372,397,0,0,0,3,5,2,35,0003-00-0001-54.png,0005-00-0008-19.png
00000009,250,1,1443107341258,1443107342271,955,427,0,0,0,5,2,3,52,0005-00-0005-01.png,0002-00-0001-59.png
00000009,251,0,1443107343155,1443107343203,862,420,0,0,0,1,5,4,15,0001-00-0007-51.png,0005-00-0006-44.png
00000009,252,0,1443107346365,1443107346959,1106,300,0,0,0,3,4,1,34,0003-00-0004-70.png,0004-00-0009-17.png
00000009,253,1,1443107350004,1443107350700,1066,302,0,0,0,4,3,1,43,0004-00-0001-41.png,0003-00-0005-06.png
00000009,254,0,1443107351528,1443107351611,887,396,0,0,0,1,3,2,13,0001-00-0005-54.png,0003-00-0002-82.png
00000009,255,1,1443107354614,1443107355328,470,266,0,0,0,2,3,1,23,0002-00-0008-50.png,0003-00-0009-02.png
00000009,256,0,1443107356162,1443107356700,964,541,0,0,0,1,2,1,12,0001-00-0007-84.png,0002-00-0005-19.png
00000009,257,1,1443107359850,1443107360610,485,258,0,0,0,4,5,1,45,0004-00-0001-27.png,0005-00-0001-63.png
00000009,258,1,1443107362045,1443107362573,927,528,0,0,0,4,2,2,42,0004-00-0008-66.png,0002-00-0006-10.png
00000009,259,1,1443107363537,1443107364550,1067,279,0,0,0,5,1,4,51,0005-00-0002-11.png,0001-00-0007-09.png
00000009,260,0,1443107365507,1443107365555,859,453,0,0,0,2,5,3,25,0002-00-0006-13.png,0005-00-0004-55.png
00000009,261,1,1443107368546,1443107369170,477,300,0,0,0,1,4,3,14,0001-00-0004-61.png,0004-00-0005-89.png
00000009,262,0,1443107369998,1443107371207,394,383,0,0,0,5,3,2,53,0005-00-0008-12.png,0003-00-0004-25.png
00000009,263,1,1443107374382,1443107375113,469,267,0,0,0,3,4,1,34,0003-00-0004-15.png,0004-00-0002-89.png
00000009,264,0,1443107376457,1443107376553,879,384,0,0,0,1,5,4,15,0001-00-0000-75.png,0005-00-0007-80.png
00000009,265,0,1443107379688,1443107380269,970,343,0,0,0,2,3,1,23,0002-00-0002-77.png,0003-00-0003-97.png
00000009,266,1,1443107383434,1443107384097,382,379,0,0,0,2,4,2,24,0002-00-0000-54.png,0004-00-0002-88.png
00000009,267,0,1443107384984,1443107386044,478,227,0,0,0,3,2,1,32,0003-00-0009-82.png,0002-00-0009-74.png
00000009,268,0,1443107389338,1443107390070,495,255,0,0,0,4,3,1,43,0004-00-0000-16.png,0003-00-0005-34.png
00000009,269,1,1443107392952,1443107393539,1081,330,0,0,0,2,1,1,21,0002-00-0002-91.png,0001-00-0008-22.png
00000009,270,0,1443107394871,1443107395359,888,474,0,0,0,4,5,1,45,0004-00-0003-99.png,0005-00-0005-00.png
00000009,271,1,1443107398265,1443107398873,1066,301,0,0,0,5,1,4,51,0005-00-0007-93.png,0001-00-0008-14.png
00000009,272,1,1443107399741,1443107399789,890,426,0,0,0,5,2,3,52,0005-00-0008-36.png,0002-00-0008-52.png
00000009,273,0,1443107400663,1443107401086,899,514,0,0,0,1,3,2,13,0001-00-0005-30.png,0003-00-0008-77.png
00000009,274,1,1443107404233,1443107404777,968,330,0,0,0,4,1,3,41,0004-00-0003-15.png,0001-00-0002-05.png
00000009,275,1,1443107406022,1443107406078,862,363,0,0,0,4,2,2,42,0004-00-0002-40.png,0002-00-0002-71.png
00000009,276,1,1443107407114,1443107408017,892,349,0,0,0,3,1,2,31,0003-00-0001-18.png,0001-00-0001-13.png
00000009,277,0,1443107408963,1443107409158,871,480,0,0,0,3,5,2,35,0003-00-0000-25.png,0005-00-0001-45.png
00000009,278,1,1443107411986,1443107412589,467,253,0,0,0,1,2,1,12,0001-00-0009-81.png,0002-00-0000-30.png
00000009,279,0,1443107413986,1443107414072,862,384,0,0,0,2,5,3,25,0002-00-0009-56.png,0005-00-0006-13.png
00000009,280,0,1443107417172,1443107417861,493,287,0,0,0,5,4,1,54,0005-00-0001-45.png,0004-00-0001-37.png
00000009,281,1,1443107420769,1443107421535,507,226,0,0,0,4,5,1,45,0004-00-0003-44.png,0005-00-0005-40.png
00000009,282,1,1443107422407,1443107422467,877,399,0,0,0,4,1,3,41,0004-00-0008-61.png,0001-00-0004-71.png
00000009,283,0,1443107423361,1443107424162,432,534,0,0,0,5,4,1,54,0005-00-0008-54.png,0004-00-0005-52.png
00000009,284,0,1443107427359,1443107428024,394,364,0,0,0,2,1,1,21,0002-00-0001-34.png,0001-00-0001-22.png
00000009,285,1,1443107431104,1443107431140,919,353,0,0,0,3,1,2,31,0003-00-0009-82.png,0001-00-0007-01.png
00000009,286,1,1443107432118,1443107432290,914,506,0,0,0,5,2,3,52,0005-00-0006-15.png,0002-00-0001-46.png
00000009,287,0,1443107433237,1443107433279,862,436,0,0,0,1,5,4,15,0001-00-0005-50.png,0005-00-0005-72.png
00000009,288,1,1443107436200,1443107436832,940,308,0,0,0,4,3,1,43,0004-00-0007-02.png,0003-00-0000-37.png
00000009,289,0,1443107438119,1443107438199,862,384,0,0,0,1,3,2,13,0001-00-0009-25.png,0003-00-0005-05.png
00000009,290,1,1443107441199,1443107441869,478,267,0,0,0,2,5,3,25,0002-00-0006-31.png,0005-00-0002-93.png
00000009,291,0,1443107442718,1443107442794,872,411,0,0,0,1,4,3,14,0001-00-0005-99.png,0004-00-0001-41.png
00000009,292,0,1443107445854,1443107446549,484,264,0,0,0,3,2,1,32,0003-00-0003-99.png,0002-00-0006-04.png
00000009,293,1,1443107449528,1443107450297,520,263,0,0,0,3,4,1,34,0003-00-0003-68.png,0004-00-0008-19.png
00000009,294,0,1443107451714,1443107452630,939,319,0,0,0,3,5,2,35,0003-00-0003-13.png,0005-00-0009-99.png
00000009,295,0,1443107455736,1443107456272,430,375,0,0,0,4,2,2,42,0004-00-0007-47.png,0002-00-0007-33.png
00000009,296,1,1443107459346,1443107460117,478,269,0,0,0,1,2,1,12,0001-00-0004-27.png,0002-00-0004-84.png
00000009,297,1,1443107460960,1443107461957,475,267,0,0,0,2,4,2,24,0002-00-0008-26.png,0004-00-0000-27.png
00000009,298,1,1443107462861,1443107464232,1092,296,0,0,0,5,3,2,53,0005-00-0001-59.png,0003-00-0000-81.png
00000009,299,1,1443107465140,1443107465196,899,441,0,0,0,5,1,4,51,0005-00-0005-72.png,0001-00-0008-78.png
00000009,300,0,1443107466194,1443107466494,926,514,0,0,0,2,3,1,23,0002-00-0006-25.png,0003-00-0002-29.png
00000009,301,1,1443107469602,1443107470173,1102,280,0,0,0,4,2,2,42,0004-00-0006-49.png,0002-00-0003-30.png
00000009,302,1,1443107471461,1443107472323,462,269,0,0,0,2,4,2,24,0002-00-0007-25.png,0004-00-0000-41.png
00000009,303,1,1443107473250,1443107474093,450,238,0,0,0,2,5,3,25,0002-00-0001-97.png,0005-00-0001-73.png
00000009,304,1,1443107475157,1443107476265,361,345,0,0,0,3,5,2,35,0003-00-0008-01.png,0005-00-0007-41.png
00000009,305,1,1443107477243,1443107477416,913,514,0,0,0,2,1,1,21,0002-00-0009-17.png,0001-00-0005-47.png
00000009,306,1,1443107478393,1443107479334,875,541,0,0,0,4,1,3,41,0004-00-0008-82.png,0001-00-0009-89.png
00000009,307,1,1443107480384,1443107480412,860,439,0,0,0,5,3,2,53,0005-00-0009-64.png,0003-00-0006-74.png
00000009,308,1,1443107481568,1443107481741,925,527,0,0,0,5,4,1,54,0005-00-0000-63.png,0004-00-0007-92.png
00000009,309,0,1443107482886,1443107482914,860,472,0,0,0,1,5,4,15,0001-00-0002-94.png,0005-00-0002-56.png
00000009,310,1,1443107485749,1443107486388,940,337,0,0,0,5,2,3,52,0005-00-0000-25.png,0002-00-0006-02.png
00000009,311,1,1443107487607,1443107487695,910,398,0,0,0,3,2,1,32,0003-00-0002-78.png,0002-00-0002-57.png
00000009,312,1,1443107489188,1443107489526,901,541,0,0,0,5,1,4,51,0005-00-0002-50.png,0001-00-0006-71.png
00000009,313,0,1443107490635,1443107490647,859,426,0,0,0,2,3,1,23,0002-00-0007-68.png,0003-00-0005-91.png
00000009,314,1,1443107494037,1443107494670,482,271,0,0,0,1,4,3,14,0001-00-0001-82.png,0004-00-0007-08.png
00000009,315,0,1443107496003,1443107496043,862,349,0,0,0,1,3,2,13,0001-00-0002-83.png,0003-00-0002-25.png
00000009,316,1,1443107499055,1443107499618,480,284,0,0,0,4,5,1,45,0004-00-0000-18.png,0005-00-0000-52.png
00000009,317,0,1443107501130,1443107501198,862,396,0,0,0,1,2,1,12,0001-00-0001-87.png,0002-00-0001-15.png
00000009,318,1,1443107504031,1443107504944,1125,288,0,0,0,4,3,1,43,0004-00-0001-72.png,0003-00-0000-10.png
00000009,319,1,1443107506198,1443107506238,862,358,0,0,0,3,1,2,31,0003-00-0005-01.png,0001-00-0009-14.png
00000009,320,0,1443107507224,1443107507668,939,541,0,0,0,3,4,1,34,0003-00-0005-96.png,0004-00-0003-37.png
00000009,321,1,1443107510542,1443107511550,434,276,0,0,0,3,4,1,34,0003-00-0004-10.png,0004-00-0004-88.png
00000009,322,1,1443107512397,1443107513491,380,371,0,0,0,1,3,2,13,0001-00-0004-82.png,0003-00-0003-92.png
00000009,323,1,1443107514477,1443107514754,898,551,0,0,0,5,1,4,51,0005-00-0001-05.png,0001-00-0003-19.png
00000009,324,0,1443107515710,1443107515810,874,541,0,0,0,1,2,1,12,0001-00-0006-93.png,0002-00-0009-24.png
00000009,325,0,1443107518856,1443107519419,471,262,0,0,0,2,1,1,21,0002-00-0003-14.png,0001-00-0005-48.png
00000009,326,1,1443107522480,1443107522513,964,378,0,0,0,4,2,2,42,0004-00-0001-72.png,0002-00-0008-56.png
00000009,327,1,1443107523521,1443107523525,857,409,0,0,0,5,2,3,52,0005-00-0008-62.png,0002-00-0005-65.png
00000009,328,1,1443107524394,1443107524494,862,488,0,0,0,3,1,2,31,0003-00-0003-92.png,0001-00-0007-97.png
00000009,329,1,1443107525694,1443107526042,924,552,0,0,0,5,4,1,54,0005-00-0009-33.png,0004-00-0001-37.png
00000009,330,1,1443107527142,1443107527244,902,503,0,0,0,3,2,1,32,0003-00-0005-03.png,0002-00-0001-73.png
00000009,331,0,1443107528288,1443107528606,928,529,0,0,0,2,3,1,23,0002-00-0000-26.png,0003-00-0008-05.png
00000009,332,1,1443107531640,1443107532217,496,282,0,0,0,3,5,2,35,0003-00-0001-44.png,0005-00-0000-26.png
00000009,333,1,1443107533747,1443107534720,380,374,0,0,0,2,4,2,24,0002-00-0008-43.png,0004-00-0003-38.png
00000009,334,1,1443107535612,1443107536635,362,381,0,0,0,4,5,1,45,0004-00-0000-46.png,0005-00-0005-35.png
00000009,335,0,1443107537602,1443107538560,914,363,0,0,0,2,5,3,25,0002-00-0000-57.png,0005-00-0007-66.png
00000009,336,1,1443107541680,1443107542260,506,269,0,0,0,1,5,4,15,0001-00-0009-54.png,0005-00-0007-06.png
00000009,337,1,1443107543104,1443107543222,898,488,0,0,0,5,3,2,53,0005-00-0007-78.png,0003-00-0000-86.png
00000009,338,1,1443107544218,1443107545193,892,359,0,0,0,4,1,3,41,0004-00-0006-45.png,0001-00-0001-85.png
00000009,339,1,1443107546148,1443107546204,904,446,0,0,0,4,3,1,43,0004-00-0000-55.png,0003-00-0001-51.png
00000009,340,0,1443107547100,1443107547140,891,439,0,0,0,1,4,3,14,0001-00-0001-33.png,0004-00-0007-63.png
00000009,341,1,1443107550002,1443107550686,964,358,0,0,0,4,2,2,42,0004-00-0000-94.png,0002-00-0005-31.png
00000009,342,1,1443107551981,1443107552037,861,385,0,0,0,5,2,3,52,0005-00-0009-35.png,0002-00-0006-08.png
00000009,343,0,1443107552998,1443107553109,913,514,0,0,0,2,4,2,24,0002-00-0009-67.png,0004-00-0007-41.png
00000009,344,0,1443107556245,1443107557117,473,256,0,0,0,4,1,3,41,0004-00-0008-25.png,0001-00-0004-87.png
00000009,345,0,1443107560230,1443107560865,968,355,0,0,0,3,4,1,34,0003-00-0007-97.png,0004-00-0007-09.png
00000009,346,0,1443107563806,1443107563814,488,494,0,0,0,5,3,2,53,0005-00-0001-90.png,0003-00-0001-68.png
00000009,347,0,1443107566738,1443107567270,509,294,0,0,0,4,3,1,43,0004-00-0003-12.png,0003-00-0000-48.png
00000009,348,0,1443107570443,1443107570491,921,320,0,0,0,2,5,3,25,0002-00-0009-69.png,0005-00-0007-57.png
00000009,349,1,1443107573515,1443107574111,1090,323,0,0,0,3,1,2,31,0003-00-0004-24.png,0001-00-0009-04.png
00000009,350,0,1443107574953,1443107575017,886,439,0,0,0,1,3,2,13,0001-00-0007-53.png,0003-00-0002-75.png
00000009,351,1,1443107577853,1443107578473,387,389,0,0,0,1,4,3,14,0001-00-0002-20.png,0004-00-0008-92.png
00000009,352,1,1443107579371,1443107579594,878,504,0,0,0,3,2,1,32,0003-00-0007-08.png,0002-00-0006-55.png
00000009,353,1,1443107580597,1443107580713,925,527,0,0,0,2,1,1,21,0002-00-0007-60.png,0001-00-0002-99.png
00000009,354,1,1443107581740,1443107581888,925,552,0,0,0,5,4,1,54,0005-00-0004-75.png,0004-00-0009-14.png
00000009,355,0,1443107582903,1443107582935,860,446,0,0,0,1,2,1,12,0001-00-0009-01.png,0002-00-0007-40.png
00000009,356,0,1443107586203,1443107586227,876,354,0,0,0,2,3,1,23,0002-00-0009-94.png,0003-00-0009-34.png
00000009,357,1,1443107589762,1443107590502,456,291,0,0,0,4,5,1,45,0004-00-0009-70.png,0005-00-0002-61.png
00000009,358,0,1443107591339,1443107591431,873,436,0,0,0,1,5,4,15,0001-00-0008-67.png,0005-00-0007-44.png
00000009,359,0,1443107594479,1443107594604,912,304,0,0,0,3,5,2,35,0003-00-0005-01.png,0005-00-0000-86.png
00000009,360,1,1443107597838,1443107598531,967,348,0,0,0,5,1,4,51,0005-00-0004-25.png,0001-00-0008-88.png
00000009,361,1,1443107599926,1443107600002,893,402,0,0,0,4,2,2,42,0004-00-0007-22.png,0002-00-0001-19.png
00000009,362,1,1443107600912,1443107600948,864,411,0,0,0,5,2,3,52,0005-00-0006-08.png,0002-00-0000-48.png
00000009,363,0,1443107601991,1443107602043,857,434,0,0,0,3,5,2,35,0003-00-0008-10.png,0005-00-0008-89.png
00000009,364,1,1443107605213,1443107605793,416,377,0,0,0,2,3,1,23,0002-00-0004-31.png,0003-00-0000-89.png
00000009,365,1,1443107606651,1443107607643,1070,308,0,0,0,5,1,4,51,0005-00-0008-74.png,0001-00-0001-69.png
00000009,366,0,1443107608463,1443107608495,921,410,0,0,0,1,2,1,12,0001-00-0004-49.png,0002-00-0002-54.png
00000009,367,1,1443107611330,1443107612180,474,273,0,0,0,2,5,3,25,0002-00-0007-93.png,0005-00-0004-92.png
00000009,368,0,1443107613371,1443107613479,862,434,0,0,0,1,4,3,14,0001-00-0004-88.png,0004-00-0007-23.png
00000009,369,1,1443107616684,1443107617323,466,279,0,0,0,4,5,1,45,0004-00-0003-20.png,0005-00-0000-77.png
00000009,370,1,1443107618638,1443107618698,888,384,0,0,0,4,3,1,43,0004-00-0003-07.png,0003-00-0007-22.png
00000009,371,0,1443107619800,1443107619871,865,445,0,0,0,1,3,2,13,0001-00-0002-04.png,0003-00-0003-43.png
00000009,372,1,1443107623019,1443107623079,944,328,0,0,0,5,4,1,54,0005-00-0007-88.png,0004-00-0004-76.png
00000009,373,1,1443107624025,1443107624177,925,501,0,0,0,4,1,3,41,0004-00-0009-56.png,0001-00-0009-12.png
00000009,374,0,1443107625098,1443107625257,874,514,0,0,0,1,5,4,15,0001-00-0006-57.png,0005-00-0003-56.png
00000009,375,1,1443107628482,1443107629099,966,340,0,0,0,2,1,1,21,0002-00-0001-29.png,0001-00-0008-35.png
00000009,376,1,1443107630374,1443107630402,871,384,0,0,0,3,2,1,32,0003-00-0005-42.png,0002-00-0006-96.png
00000009,377,1,1443107631337,1443107632115,472,388,0,0,0,3,4,1,34,0003-00-0005-90.png,0004-00-0004-83.png
00000009,378,0,1443107633346,1443107634131,462,363,0,0,0,5,3,2,53,0005-00-0004-22.png,0003-00-0000-65.png
00000009,379,1,1443107637181,1443107638041,483,275,0,0,0,2,4,2,24,0002-00-0005-01.png,0004-00-0006-34.png
00000009,380,1,1443107639383,1443107640208,1061,277,0,0,0,3,1,2,31,0003-00-0001-22.png,0001-00-0000-49.png
00000009,381,0,1443107641074,1443107641094,861,364,0,0,0,3,4,1,34,0003-00-0009-71.png,0004-00-0007-86.png
00000009,382,1,1443107644186,1443107644754,1096,281,0,0,0,5,3,2,53,0005-00-0003-60.png,0003-00-0006-91.png
00000009,383,1,1443107645592,1443107645620,903,435,0,0,0,4,1,3,41,0004-00-0005-78.png,0001-00-0004-78.png
00000009,384,1,1443107646903,1443107647423,925,552,0,0,0,2,1,1,21,0002-00-0000-01.png,0001-00-0005-40.png
00000009,385,1,1443107648491,1443107649369,471,397,0,0,0,2,5,3,25,0002-00-0009-02.png,0005-00-0005-08.png
00000009,386,0,1443107650417,1443107650533,901,528,0,0,0,1,4,3,14,0001-00-0008-04.png,0004-00-0003-29.png
00000009,387,0,1443107653396,1443107653440,964,384,0,0,0,1,2,1,12,0001-00-0002-20.png,0002-00-0005-67.png
00000009,388,1,1443107656637,1443107657254,958,363,0,0,0,4,2,2,42,0004-00-0009-69.png,0002-00-0003-45.png
00000009,389,1,1443107658076,1443107658144,913,373,0,0,0,5,4,1,54,0005-00-0006-96.png,0004-00-0005-54.png
00000009,390,0,1443107659022,1443107659495,913,541,0,0,0,1,5,4,15,0001-00-0001-50.png,0005-00-0008-17.png
00000009,391,1,1443107662530,1443107663241,506,288,0,0,0,3,5,2,35,0003-00-0007-22.png,0005-00-0003-41.png
00000009,392,1,1443107664686,1443107664746,859,408,0,0,0,5,2,3,52,0005-00-0003-92.png,0002-00-0000-92.png
00000009,393,0,1443107665810,1443107666365,924,526,0,0,0,4,5,1,45,0004-00-0004-24.png,0005-00-0003-18.png
00000009,394,1,1443107669635,1443107670229,1077,307,0,0,0,3,1,2,31,0003-00-0002-13.png,0001-00-0000-62.png
00000009,395,0,1443107671540,1443107672385,944,325,0,0,0,2,4,2,24,0002-00-0001-97.png,0004-00-0003-20.png
00000009,396,1,1443107675371,1443107676312,357,386,0,0,0,2,3,1,23,0002-00-0003-24.png,0003-00-0004-07.png
00000009,397,1,1443107677204,1443107677985,429,368,0,0,0,1,3,2,13,0001-00-0006-13.png,0003-00-0009-55.png
00000009,398,1,1443107678916,1443107679050,861,475,0,0,0,3,2,1,32,0003-00-0006-11.png,0002-00-0006-52.png
00000009,399,1,1443107680176,1443107680268,868,475,0,0,0,5,1,4,51,0005-00-0006-37.png,0001-00-0009-32.png
00000009,400,1,1443107681279,1443107681371,862,462,0,0,0,4,3,1,43,0004-00-0007-65.png,0003-00-0001-14.png
00000009,401,0,1443107682570,1443107683087,875,501,0,0,0,1,4,3,14,0001-00-0005-21.png,0004-00-0001-16.png
00000009,402,0,1443107686310,1443107687001,390,409,0,0,0,4,3,1,43,0004-00-0007-41.png,0003-00-0000-68.png
00000009,403,1,1443107689896,1443107690579,960,340,0,0,0,5,3,2,53,0005-00-0008-74.png,0003-00-0007-05.png
00000009,404,1,1443107691453,1443107691495,891,408,0,0,0,3,2,1,32,0003-00-0001-84.png,0002-00-0006-06.png
00000009,405,1,1443107692450,1443107693256,329,460,0,0,0,1,3,2,13,0001-00-0001-60.png,0003-00-0006-04.png
00000009,406,0,1443107694447,1443107695323,910,369,0,0,0,3,5,2,35,0003-00-0002-03.png,0005-00-0001-08.png
00000009,407,0,1443107698454,1443107698474,925,349,0,0,0,2,4,2,24,0002-00-0003-81.png,0004-00-0004-40.png
00000009,408,1,1443107701523,1443107702066,490,252,0,0,0,1,5,4,15,0001-00-0008-40.png,0005-00-0008-74.png
00000009,409,0,1443107703522,1443107703530,858,373,0,0,0,4,5,1,45,0004-00-0000-99.png,0005-00-0002-99.png
00000009,410,1,1443107706398,1443107706987,958,334,0,0,0,5,1,4,51,0005-00-0005-62.png,0001-00-0005-46.png
00000009,411,1,1443107708333,1443107708361,860,397,0,0,0,4,1,3,41,0004-00-0007-86.png,0001-00-0000-65.png
00000009,412,0,1443107709514,1443107709597,888,514,0,0,0,3,4,1,34,0003-00-0009-72.png,0004-00-0009-65.png
00000009,413,0,1443107712450,1443107712502,900,468,0,0,0,1,2,1,12,0001-00-0005-44.png,0002-00-0003-50.png
00000009,414,1,1443107715655,1443107716269,964,358,0,0,0,5,4,1,54,0005-00-0001-39.png,0004-00-0003-62.png
00000009,415,1,1443107717123,1443107717147,860,390,0,0,0,2,1,1,21,0002-00-0000-63.png,0001-00-0000-39.png
00000009,416,1,1443107718063,1443107718476,880,470,0,0,0,4,2,2,42,0004-00-0007-55.png,0002-00-0003-84.png
00000009,417,1,1443107719316,1443107719419,913,514,0,0,0,5,2,3,52,0005-00-0000-31.png,0002-00-0000-50.png
00000009,418,0,1443107720670,1443107721221,929,549,0,0,0,2,5,3,25,0002-00-0005-69.png,0005-00-0003-74.png
00000009,419,1,1443107724397,1443107724993,486,277,0,0,0,2,3,1,23,0002-00-0001-80.png,0003-00-0005-16.png
00000009,420,1,1443107725848,1443107726481,891,411,0,0,0,3,1,2,31,0003-00-0006-07.png,0001-00-0004-76.png
00000009,421,1,1443107727869,1443107727905,867,394,0,0,0,3,1,2,31,0003-00-0000-58.png,0001-00-0000-83.png
00000009,422,0,1443107728967,1443107729078,900,514,0,0,0,4,5,1,45,0004-00-0001-81.png,0005-00-0001-33.png
00000009,423,1,1443107732239,1443107733084,1091,280,0,0,0,4,3,1,43,0004-00-0001-93.png,0003-00-0002-65.png
00000009,424,1,1443107733914,1443107733978,913,410,0,0,0,5,4,1,54,0005-00-0005-11.png,0004-00-0006-26.png
00000009,425,0,1443107734912,1443107735441,899,527,0,0,0,1,4,3,14,0001-00-0001-91.png,0004-00-0009-29.png
00000009,426,1,1443107738495,1443107739101,1095,296,0,0,0,5,1,4,51,0005-00-0009-39.png,0001-00-0006-70.png
00000009,427,0,1443107740309,1443107740337,868,389,0,0,0,1,5,4,15,0001-00-0009-49.png,0005-00-0008-63.png
00000009,428,1,1443107743387,1443107744364,477,287,0,0,0,1,2,1,12,0001-00-0004-74.png,0002-00-0001-27.png
00000009,429,0,1443107745764,1443107745812,862,377,0,0,0,3,5,2,35,0003-00-0005-19.png,0005-00-0008-92.png
00000009,430,1,1443107748964,1443107748988,938,340,0,0,0,5,2,3,52,0005-00-0009-01.png,0002-00-0007-78.png
00000009,431,1,1443107749956,1443107750791,465,259,0,0,0,1,3,2,13,0001-00-0003-38.png,0003-00-0006-12.png
00000009,432,1,1443107751794,1443107752610,474,368,0,0,0,2,4,2,24,0002-00-0000-36.png,0004-00-0000-99.png
00000009,433,1,1443107753533,1443107754210,943,327,0,0,0,2,1,1,21,0002-00-0002-58.png,0001-00-0003-59.png
00000009,434,0,1443107755055,1443107755083,880,419,0,0,0,2,3,1,23,0002-00-0004-39.png,0003-00-0008-34.png
00000009,435,1,1443107758143,1443107758683,516,267,0,0,0,2,5,3,25,0002-00-0007-76.png,0005-00-0004-32.png
00000009,436,1,1443107759506,1443107760210,868,445,0,0,0,3,2,1,32,0003-00-0006-99.png,0002-00-0008-59.png
00000009,437,1,1443107761435,1443107761503,883,432,0,0,0,5,3,2,53,0005-00-0005-91.png,0003-00-0003-18.png
00000009,438,1,1443107762605,1443107762665,884,470,0,0,0,4,1,3,41,0004-00-0009-21.png,0001-00-0002-08.png
00000009,439,0,1443107763856,1443107763900,876,426,0,0,0,3,4,1,34,0003-00-0002-26.png,0004-00-0007-58.png
00000009,440,1,1443107766791,1443107767412,912,357,0,0,0,4,2,2,42,0004-00-0001-06.png,0002-00-0005-81.png
00000009,441,0,1443107768788,1443107768816,863,395,0,0,0,1,4,3,14,0001-00-0003-97.png,0004-00-0003-20.png
00000009,442,1,1443107771978,1443107772773,487,268,0,0,0,3,5,2,35,0003-00-0001-03.png,0005-00-0002-19.png
00000009,443,0,1443107773617,1443107774876,370,364,0,0,0,5,3,2,53,0005-00-0005-21.png,0003-00-0007-58.png
00000009,444,0,1443107777780,1443107777800,865,438,0,0,0,4,5,1,45,0004-00-0001-68.png,0005-00-0005-98.png
00000009,445,1,1443107780951,1443107781667,939,425,0,0,0,5,2,3,52,0005-00-0009-96.png,0002-00-0002-88.png
00000009,446,1,1443107782529,1443107782589,884,439,0,0,0,4,1,3,41,0004-00-0008-31.png,0001-00-0004-78.png
00000009,447,1,1443107783530,1443107784257,363,367,0,0,0,1,3,2,13,0001-00-0007-44.png,0003-00-0001-16.png
00000009,448,1,1443107785254,1443107786096,478,385,0,0,0,2,5,3,25,0002-00-0006-77.png,0005-00-0006-21.png
00000009,449,0,1443107787309,1443107788094,447,366,0,0,0,5,1,4,51,0005-00-0003-34.png,0001-00-0004-03.png
00000009,450,0,1443107791242,1443107791992,946,315,0,0,0,2,3,1,23,0002-00-0003-33.png,0003-00-0004-97.png
00000009,451,0,1443107794863,1443107794891,862,362,0,0,0,1,2,1,12,0001-00-0006-17.png,0002-00-0003-32.png
00000009,452,1,1443107797954,1443107798568,917,340,0,0,0,4,2,2,42,0004-00-0005-25.png,0002-00-0005-88.png
00000009,453,1,1443107799949,1443107800030,879,367,0,0,0,2,1,1,21,0002-00-0005-16.png,0001-00-0002-18.png
00000009,454,1,1443107801164,1443107801587,874,488,0,0,0,3,2,1,32,0003-00-0004-76.png,0002-00-0005-86.png
00000009,455,1,1443107802535,1443107802571,859,420,0,0,0,3,1,2,31,0003-00-0005-48.png,0001-00-0005-86.png
00000009,456,0,1443107803750,1443107803786,863,443,0,0,0,1,5,4,15,0001-00-0003-02.png,0005-00-0005-72.png
00000009,457,1,1443107806757,1443107807325,1081,306,0,0,0,5,4,1,54,0005-00-0009-97.png,0004-00-0009-70.png
00000009,458,0,1443107808189,1443107808257,903,471,0,0,0,3,4,1,34,0003-00-0001-26.png,0004-00-0001-02.png
00000009,459,0,1443107811199,1443107811744,460,271,0,0,0,4,3,1,43,0004-00-0001-03.png,0003-00-0004-54.png
00000009,460,0,1443107814889,1443107815688,964,410,0,0,0,2,4,2,24,0002-00-0005-40.png,0004-00-0000-42.png
00000009,461,0,1443107818554,1443107818661,912,298,0,0,0,1,3,2,13,0001-00-0003-29.png,0003-00-0008-23.png
00000009,462,0,1443107821923,1443107822641,493,263,0,0,0,5,4,1,54,0005-00-0004-77.png,0004-00-0009-47.png
00000009,463,0,1443107825682,1443107826275,936,354,0,0,0,3,4,1,34,0003-00-0000-61.png,0004-00-0001-21.png
00000009,464,1,1443107829506,1443107830250,387,383,0,0,0,3,5,2,35,0003-00-0005-11.png,0005-00-0004-88.png
00000009,465,1,1443107831802,1443107831921,903,410,0,0,0,5,1,4,51,0005-00-0007-31.png,0001-00-0004-52.png
00000009,466,0,1443107833093,1443107833145,859,446,0,0,0,1,2,1,12,0001-00-0003-50.png,0002-00-0007-56.png
00000009,467,1,1443107836304,1443107836881,942,338,0,0,0,4,1,3,41,0004-00-0007-46.png,0001-00-0000-30.png
00000009,468,1,1443107837742,1443107837786,886,386,0,0,0,4,2,2,42,0004-00-0001-33.png,0002-00-0007-12.png
00000009,469,0,1443107838755,1443107839075,913,514,0,0,0,4,5,1,45,0004-00-0005-57.png,0005-00-0000-62.png
00000009,470,1,1443107842602,1443107843164,1093,302,0,0,0,3,1,2,31,0003-00-0006-08.png,0001-00-0002-76.png
00000009,471,0,1443107844052,1443107844112,877,416,0,0,0,2,3,1,23,0002-00-0008-68.png,0003-00-0009-09.png
00000009,472,1,1443107847153,1443107847201,892,372,0,0,0,5,3,2,53,0005-00-0001-52.png,0003-00-0005-74.png
00000009,473,1,1443107848207,1443107848722,926,554,0,0,0,5,2,3,52,0005-00-0008-17.png,0002-00-0004-51.png
00000009,474,1,1443107849908,1443107849956,906,464,0,0,0,2,1,1,21,0002-00-0005-04.png,0001-00-0005-75.png
00000009,475,1,1443107851017,1443107851069,909,471,0,0,0,3,2,1,32,0003-00-0009-71.png,0002-00-0007-03.png
00000009,476,0,1443107852162,1443107852190,871,436,0,0,0,1,5,4,15,0001-00-0002-63.png,0005-00-0007-83.png
00000009,477,1,1443107855350,1443107855994,375,388,0,0,0,2,4,2,24,0002-00-0003-90.png,0004-00-0009-54.png
00000009,478,1,1443107856842,1443107857704,460,220,0,0,0,2,5,3,25,0002-00-0002-14.png,0005-00-0005-84.png
00000009,479,1,1443107858601,1443107858641,859,424,0,0,0,4,3,1,43,0004-00-0005-71.png,0003-00-0007-51.png
00000009,480,0,1443107859695,1443107859931,928,503,0,0,0,1,4,3,14,0001-00-0002-90.png,0004-00-0000-48.png
00000009,481,1,1443107863113,1443107863746,1087,313,0,0,0,4,1,3,41,0004-00-0007-14.png,0001-00-0006-64.png
00000009,482,1,1443107864590,1443107864661,913,420,0,0,0,3,1,2,31,0003-00-0001-92.png,0001-00-0005-58.png
00000009,483,0,1443107866153,1443107866205,862,446,0,0,0,2,3,1,23,0002-00-0007-31.png,0003-00-0002-08.png
00000009,484,0,1443107869064,1443107869623,1093,305,0,0,0,3,4,1,34,0003-00-0002-54.png,0004-00-0000-54.png
00000009,485,1,1443107872682,1443107873298,392,393,0,0,0,2,4,2,24,0002-00-0002-32.png,0004-00-0003-69.png
00000009,486,0,1443107874120,1443107874161,874,366,0,0,0,1,2,1,12,0001-00-0004-16.png,0002-00-0009-63.png
00000009,487,1,1443107877158,1443107877773,963,339,0,0,0,5,2,3,52,0005-00-0005-62.png,0002-00-0006-39.png
00000009,488,1,1443107879102,1443107879146,892,375,0,0,0,2,1,1,21,0002-00-0002-85.png,0001-00-0003-98.png
00000009,489,1,1443107880244,1443107881517,966,329,0,0,0,4,3,1,43,0004-00-0007-49.png,0003-00-0005-19.png
00000009,490,1,1443107882430,1443107882494,964,462,0,0,0,5,3,2,53,0005-00-0000-58.png,0003-00-0002-58.png
00000009,491,0,1443107883552,1443107883616,881,481,0,0,0,4,5,1,45,0004-00-0009-12.png,0005-00-0000-58.png
00000009,492,1,1443107886565,1443107887211,393,376,0,0,0,2,5,3,25,0002-00-0003-78.png,0005-00-0008-97.png
00000009,493,1,1443107888638,1443107889403,948,329,0,0,0,4,2,2,42,0004-00-0009-36.png,0002-00-0008-97.png
00000009,494,0,1443107890290,1443107890342,869,446,0,0,0,1,3,2,13,0001-00-0001-61.png,0003-00-0005-77.png
00000009,495,1,1443107893478,1443107894093,485,295,0,0,0,3,5,2,35,0003-00-0003-58.png,0005-00-0001-21.png
00000009,496,1,1443107894932,1443107895004,870,453,0,0,0,5,4,1,54,0005-00-0007-59.png,0004-00-0002-31.png
00000009,497,1,1443107896260,1443107897083,987,313,0,0,0,3,2,1,32,0003-00-0007-61.png,0002-00-0003-13.png
00000009,498,0,1443107898478,1443107898522,898,390,0,0,0,1,5,4,15,0001-00-0008-50.png,0005-00-0002-07.png
00000009,499,1,1443107901430,1443107902176,470,262,0,0,0,1,4,3,14,0001-00-0004-78.png,0004-00-0006-70.png
00000009,500,1,1443107903483,1443107903521,858,359,0,0,0,5,1,4,51,0005-00-0009-04.png,0001-00-0009-00.png
00000009,501,1,1443107904591,1443107905309,878,384,0,0,0,4,1,3,41,0004-00-0009-38.png,0001-00-0008-93.png
00000009,502,1,1443107906619,1443107906655,884,419,0,0,0,5,3,2,53,0005-00-0008-65.png,0003-00-0007-21.png
00000009,503,1,1443107907689,1443107907713,864,446,0,0,0,2,1,1,21,0002-00-0006-64.png,0001-00-0000-01.png
00000009,504,1,1443107908911,1443107908998,871,481,0,0,0,4,2,2,42,0004-00-0003-77.png,0002-00-0003-11.png
00000009,505,0,1443107910071,1443107910115,888,449,0,0,0,2,3,1,23,0002-00-0001-28.png,0003-00-0005-68.png
00000009,506,0,1443107913134,1443107913382,896,347,0,0,0,3,4,1,34,0003-00-0006-84.png,0004-00-0000-47.png
00000009,507,0,1443107916544,1443107917110,415,371,0,0,0,5,1,4,51,0005-00-0006-73.png,0001-00-0008-21.png
00000009,508,1,1443107920251,1443107920882,503,273,0,0,0,1,4,3,14,0001-00-0002-17.png,0004-00-0009-22.png
00000009,509,1,1443107921720,1443107922881,473,254,0,0,0,3,5,2,35,0003-00-0007-92.png,0005-00-0003-58.png
00000009,510,1,1443107923859,1443107924998,460,278,0,0,0,2,4,2,24,0002-00-0002-57.png,0004-00-0000-07.png
00000009,511,1,1443107925873,1443107927376,1092,306,0,0,0,4,3,1,43,0004-00-0007-45.png,0003-00-0008-57.png
00000009,512,0,1443107928400,1443107929322,471,245,0,0,0,3,2,1,32,0003-00-0005-91.png,0002-00-0000-01.png
00000009,513,1,1443107932437,1443107932540,935,282,0,0,0,5,4,1,54,0005-00-0005-38.png,0004-00-0005-41.png
00000009,514,0,1443107933548,1443107933588,894,465,0,0,0,1,2,1,12,0001-00-0002-29.png,0002-00-0007-04.png
00000009,515,1,1443107936558,1443107937165,1090,301,0,0,0,3,1,2,31,0003-00-0008-95.png,0001-00-0008-05.png
00000009,516,0,1443107938480,1443107938526,902,371,0,0,0,2,5,3,25,0002-00-0000-75.png,0005-00-0001-49.png
00000009,517,0,1443107941528,1443107941576,862,384,0,0,0,4,5,1,45,0004-00-0000-05.png,0005-00-0004-08.png
00000009,518,0,1443107944718,1443107945295,1097,304,0,0,0,1,5,4,15,0001-00-0002-83.png,0005-00-0007-41.png
00000009,519,1,1443107948475,1443107948511,912,306,0,0,0,5,2,3,52,0005-00-0007-56.png,0002-00-0009-46.png
00000009,520,0,1443107949524,1443107949556,863,414,0,0,0,1,3,2,13,0001-00-0009-71.png,0003-00-0001-46.png
00000009,521,1,1443107952646,1443107953181,400,396,0,0,0,1,3,2,13,0001-00-0006-27.png,0003-00-0005-10.png
00000009,522,1,1443107954564,1443107954615,878,358,0,0,0,5,4,1,54,0005-00-0008-74.png,0004-00-0002-40.png
00000009,523,0,1443107955805,1443107955817,877,423,0,0,0,3,4,1,34,0003-00-0008-94.png,0004-00-0007-99.png
00000009,524,1,1443107958917,1443107959495,942,354,0,0,0,5,3,2,53,0005-00-0000-76.png,0003-00-0001-94.png
00000009,525,0,1443107960356,1443107960388,899,401,0,0,0,1,2,1,12,0001-00-0008-43.png,0002-00-0006-54.png
00000009,526,1,1443107963566,1443107964290,393,386,0,0,0,2,4,2,24,0002-00-0001-07.png,0004-00-0008-12.png
00000009,527,0,1443107965694,1443107965746,888,393,0,0,0,1,5,4,15,0001-00-0006-41.png,0005-00-0008-10.png
00000009,528,1,1443107968572,1443107969306,491,257,0,0,0,1,4,3,14,0001-00-0003-74.png,0004-00-0007-50.png
00000009,529,1,1443107970562,1443107970586,864,385,0,0,0,5,2,3,52,0005-00-0002-74.png,0002-00-0000-41.png
00000009,530,1,1443107971646,1443107971694,861,447,0,0,0,4,1,3,41,0004-00-0001-81.png,0001-00-0008-91.png
00000009,531,0,1443107972776,1443107972860,862,462,0,0,0,4,5,1,45,0004-00-0009-53.png,0005-00-0007-89.png
00000009,532,0,1443107975748,1443107976818,340,366,0,0,0,3,2,1,32,0003-00-0008-34.png,0002-00-0007-09.png
00000009,533,1,1443107979991,1443107980601,1090,308,0,0,0,2,1,1,21,0002-00-0007-83.png,0001-00-0007-47.png
00000009,534,0,1443107981432,1443107981480,883,396,0,0,0,2,3,1,23,0002-00-0005-31.png,0003-00-0002-20.png
00000009,535,0,1443107984565,1443107985192,470,278,0,0,0,5,1,4,51,0005-00-0007-66.png,0001-00-0004-17.png
00000009,536,0,1443107988082,1443107988666,1069,309,0,0,0,3,5,2,35,0003-00-0005-00.png,0005-00-0004-13.png
00000009,537,1,1443107991879,1443107992443,975,354,0,0,0,3,1,2,31,0003-00-0004-98.png,0001-00-0002-32.png
00000009,538,1,1443107993348,1443107993376,911,367,0,0,0,4,3,1,43,0004-00-0008-25.png,0003-00-0001-97.png
00000009,539,1,1443107994231,1443107994763,901,529,0,0,0,4,2,2,42,0004-00-0006-71.png,0002-00-0003-56.png
00000009,540,0,1443107996161,1443107996221,870,384,0,0,0,2,5,3,25,0002-00-0001-04.png,0005-00-0006-59.png
00000009,541,1,1443107999440,1443108000048,1092,315,0,0,0,5,1,4,51,0005-00-0000-12.png,0001-00-0000-32.png
00000009,542,1,1443108001326,1443108001386,881,413,0,0,0,4,3,1,43,0004-00-0006-34.png,0003-00-0004-93.png
00000009,543,1,1443108002391,1443108002768,913,541,0,0,0,5,3,2,53,0005-00-0003-16.png,0003-00-0004-37.png
00000009,544,0,1443108003900,1443108003932,859,397,0,0,0,4,5,1,45,0004-00-0000-98.png,0005-00-0004-38.png
00000009,545,1,1443108007090,1443108007765,489,268,0,0,0,3,4,1,34,0003-00-0005-61.png,0004-00-0000-95.png
00000009,546,1,1443108008588,1443108008624,880,387,0,0,0,5,2,3,52,0005-00-0009-16.png,0002-00-0001-92.png
00000009,547,1,1443108009564,1443108010398,1079,462,0,0,0,3,2,1,32,0003-00-0009-73.png,0002-00-0004-13.png
00000009,548,0,1443108011811,1443108011863,880,436,0,0,0,1,5,4,15,0001-00-0006-02.png,0005-00-0003-43.png
00000009,549,1,1443108014803,1443108015885,409,469,0,0,0,1,2,1,12,0001-00-0003-64.png,0002-00-0002-17.png
00000009,550,1,1443108016757,1443108016793,863,441,0,0,0,5,4,1,54,0005-00-0002-67.png,0004-00-0000-50.png
00000009,551,1,1443108017734,1443108017782,879,436,0,0,0,4,1,3,41,0004-00-0006-86.png,0001-00-0006-77.png
00000009,552,0,1443108018785,1443108018817,881,462,0,0,0,2,5,3,25,0002-00-0006-89.png,0005-00-0002-48.png
00000009,553,1,1443108021878,1443108022572,1062,303,0,0,0,4,2,2,42,0004-00-0000-96.png,0002-00-0009-49.png
00000009,554,0,1443108023864,1443108023896,906,365,0,0,0,1,4,3,14,0001-00-0000-21.png,0004-00-0009-25.png
00000009,555,1,1443108026764,1443108027339,509,241,0,0,0,2,3,1,23,0002-00-0002-17.png,0003-00-0004-87.png
00000009,556,1,1443108028236,1443108028300,896,436,0,0,0,2,1,1,21,0002-00-0001-96.png,0001-00-0003-92.png
00000009,557,0,1443108029577,1443108030073,924,552,0,0,0,3,5,2,35,0003-00-0007-72.png,0005-00-0006-58.png
00000009,558,0,1443108033037,1443108033081,911,384,0,0,0,1,3,2,13,0001-00-0004-99.png,0003-00-0006-32.png
00000009,559,1,1443108036207,1443108036247,966,343,0,0,0,3,1,2,31,0003-00-0004-65.png,0001-00-0002-52.png
00000009,560,0,1443108037211,1443108037251,887,433,0,0,0,2,4,2,24,0002-00-0004-36.png,0004-00-0008-68.png
00000009,561,1,1443108040391,1443108041002,481,291,0,0,0,2,5,3,25,0002-00-0003-94.png,0005-00-0006-41.png
00000009,562,0,1443108042369,1443108042404,870,360,0,0,0,1,4,3,14,0001-00-0003-71.png,0004-00-0005-30.png
00000009,563,0,1443108045569,1443108045589,942,324,0,0,0,2,3,1,23,0002-00-0006-14.png,0003-00-0001-63.png
00000009,564,0,1443108048738,1443108048766,921,355,0,0,0,1,2,1,12,0001-00-0006-41.png,0002-00-0000-61.png
00000009,565,0,1443108051658,1443108051674,517,460,0,0,0,2,1,1,21,0002-00-0004-71.png,0001-00-0009-92.png
00000009,566,0,1443108054560,1443108055842,409,284,0,0,0,3,2,1,32,0003-00-0006-91.png,0002-00-0004-58.png
00000009,567,0,1443108058953,1443108059608,1092,306,0,0,0,1,3,2,13,0001-00-0004-37.png,0003-00-0000-94.png
00000009,568,1,1443108062751,1443108063363,941,333,0,0,0,5,4,1,54,0005-00-0006-11.png,0004-00-0007-87.png
00000009,569,1,1443108064289,1443108064349,925,424,0,0,0,5,3,2,53,0005-00-0005-53.png,0003-00-0004-79.png
00000009,570,1,1443108065254,1443108065302,870,410,0,0,0,4,2,2,42,0004-00-0005-85.png,0002-00-0000-51.png
00000009,571,0,1443108066453,1443108067682,1023,268,0,0,0,3,4,1,34,0003-00-0007-15.png,0004-00-0006-50.png
00000009,572,1,1443108070867,1443108071466,478,292,0,0,0,1,5,4,15,0001-00-0003-41.png,0005-00-0001-40.png
00000009,573,0,1443108072369,1443108072436,910,482,0,0,0,2,4,2,24,0002-00-0009-63.png,0004-00-0003-91.png
00000009,574,0,1443108075409,1443108075429,511,410,0,0,0,3,1,2,31,0003-00-0003-61.png,0001-00-0004-66.png
00000009,575,1,1443108078590,1443108079196,990,347,0,0,0,5,2,3,52,0005-00-0009-33.png,0002-00-0004-32.png
00000009,576,1,1443108080545,1443108080573,874,399,0,0,0,4,3,1,43,0004-00-0002-78.png,0003-00-0005-43.png
00000009,577,1,1443108081627,1443108082759,469,230,0,0,0,3,5,2,35,0003-00-0003-27.png,0005-00-0001-20.png
00000009,578,1,1443108083687,1443108083836,902,488,0,0,0,4,1,3,41,0004-00-0006-74.png,0001-00-0002-02.png
00000009,579,1,1443108084976,1443108085060,913,514,0,0,0,5,1,4,51,0005-00-0005-68.png,0001-00-0009-13.png
00000009,580,0,1443108086166,1443108086218,890,452,0,0,0,4,5,1,45,0004-00-0008-74.png,0005-00-0002-65.png
00000009,581,1,1443108089172,1443108089706,485,257,0,0,0,1,4,3,14,0001-00-0004-09.png,0004-00-0005-51.png
00000009,582,0,1443108091077,1443108091141,906,399,0,0,0,2,4,2,24,0002-00-0004-74.png,0004-00-0008-11.png
00000009,583,0,1443108094289,1443108094849,1091,309,0,0,0,1,2,1,12,0001-00-0005-04.png,0002-00-0009-53.png
00000009,584,0,1443108097687,1443108098308,946,327,0,0,0,2,5,3,25,0002-00-0008-53.png,0005-00-0003-96.png
00000009,585,1,1443108101217,1443108102238,1094,280,0,0,0,5,3,2,53,0005-00-0006-95.png,0003-00-0006-06.png
00000009,586,1,1443108103063,1443108103117,909,415,0,0,0,2,1,1,21,0002-00-0006-75.png,0001-00-0005-92.png
00000009,587,0,1443108104087,1443108104147,861,416,0,0,0,3,4,1,34,0003-00-0004-05.png,0004-00-0001-72.png
00000009,588,1,1443108107129,1443108107804,964,347,0,0,0,5,2,3,52,0005-00-0005-94.png,0002-00-0006-95.png
00000009,589,1,1443108108667,1443108108727,930,436,0,0,0,4,2,2,42,0004-00-0008-94.png,0002-00-0000-36.png
00000009,590,1,1443108109631,1443108110071,913,541,0,0,0,5,4,1,54,0005-00-0003-45.png,0004-00-0005-08.png
00000009,591,1,1443108111353,1443108112632,458,278,0,0,0,4,5,1,45,0004-00-0007-32.png,0005-00-0009-83.png
00000009,592,0,1443108113518,1443108113590,881,445,0,0,0,3,5,2,35,0003-00-0002-11.png,0005-00-0005-01.png
00000009,593,1,1443108116888,1443108117433,480,283,0,0,0,1,5,4,15,0001-00-0003-55.png,0005-00-0000-43.png
00000009,594,1,1443108118724,1443108118748,888,358,0,0,0,3,1,2,31,0003-00-0009-75.png,0001-00-0005-04.png
00000009,595,1,1443108119796,1443108119840,899,420,0,0,0,3,2,1,32,0003-00-0000-00.png,0002-00-0004-35.png
00000009,596,1,1443108120939,1443108120971,870,436,0,0,0,4,1,3,41,0004-00-0007-25.png,0001-00-0002-55.png
00000009,597,0,1443108122271,1443108122327,903,469,0,0,0,2,3,1,23,0002-00-0002-57.png,0003-00-0005-82.png
00000009,598,1,1443108125543,1443108126085,1015,357,0,0,0,5,1,4,51,0005-00-0003-24.png,0001-00-0000-96.png
00000009,599,1,1443108126941,1443108128079,938,360,0,0,0,4,3,1,43,0004-00-0003-27.png,0003-00-0008-35.png
00000009,600,0,1443108128968,1443108128988,887,393,0,0,0,1,3,2,13,0001-00-0009-80.png,0003-00-0002-02.png
00000009,601,1,1443108131971,1443108132518,960,331,0,0,0,3,1,2,31,0003-00-0004-96.png,0001-00-0004-17.png
00000009,602,1,1443108133358,1443108133402,915,386,0,0,0,5,4,1,54,0005-00-0000-12.png,0004-00-0000-13.png
00000009,603,1,1443108134227,1443108134416,953,529,0,0,0,4,2,2,42,0004-00-0009-76.png,0002-00-0005-00.png
00000009,604,0,1443108135407,1443108135459,914,441,0,0,0,4,5,1,45,0004-00-0007-58.png,0005-00-0000-17.png
00000009,605,1,1443108138401,1443108139085,505,258,0,0,0,1,4,3,14,0001-00-0001-23.png,0004-00-0000-21.png
00000009,606,1,1443108140465,1443108140497,888,373,0,0,0,5,3,2,53,0005-00-0007-50.png,0003-00-0007-90.png
00000009,607,1,1443108141529,1443108141553,906,470,0,0,0,2,1,1,21,0002-00-0007-54.png,0001-00-0007-23.png
00000009,608,1,1443108142770,1443108142810,897,460,0,0,0,5,1,4,51,0005-00-0006-44.png,0001-00-0002-78.png
00000009,609,1,1443108143824,1443108143852,887,449,0,0,0,5,2,3,52,0005-00-0008-30.png,0002-00-0007-70.png
00000009,610,0,1443108145623,1443108145655,892,440,0,0,0,1,5,4,15,0001-00-0006-26.png,0005-00-0001-74.png
00000009,611,1,1443108148525,1443108149196,1084,306,0,0,0,4,1,3,41,0004-00-0007-60.png,0001-00-0003-67.png
00000009,612,0,1443108150662,1443108150732,924,430,0,0,0,2,4,2,24,0002-00-0006-29.png,0004-00-0003-63.png
00000009,613,1,1443108153612,1443108154205,504,271,0,0,0,3,4,1,34,0003-00-0008-08.png,0004-00-0004-79.png
00000009,614,0,1443108155043,1443108156265,1085,283,0,0,0,1,2,1,12,0001-00-0000-80.png,0002-00-0006-39.png
00000009,615,1,1443108159197,1443108159866,515,264,0,0,0,2,5,3,25,0002-00-0003-58.png,0005-00-0006-18.png
00000009,616,0,1443108160713,1443108160757,862,395,0,0,0,2,3,1,23,0002-00-0009-27.png,0003-00-0004-39.png
00000009,617,0,1443108163751,1443108164398,489,272,0,0,0,4,3,1,43,0004-00-0001-86.png,0003-00-0004-23.png
00000009,618,0,1443108167306,1443108167358,858,436,0,0,0,1,3,2,13,0001-00-0001-50.png,0003-00-0004-31.png
00000009,619,1,1443108170389,1443108171006,477,280,0,0,0,3,5,2,35,0003-00-0002-81.png,0005-00-0003-14.png
00000009,620,1,1443108172387,1443108172431,877,338,0,0,0,3,2,1,32,0003-00-0003-89.png,0002-00-0006-86.png
00000009,621,0,1443108173556,1443108173588,867,401,0,0,0,3,5,2,35,0003-00-0006-03.png,0005-00-0008-66.png
00000009,622,1,1443108176457,1443108177280,970,325,0,0,0,2,1,1,21,0002-00-0002-34.png,0001-00-0005-48.png
00000009,623,0,1443108178674,1443108178698,865,399,0,0,0,2,4,2,24,0002-00-0005-75.png,0004-00-0008-96.png
00000009,624,1,1443108181753,1443108181986,880,369,0,0,0,5,2,3,52,0005-00-0001-99.png,0002-00-0006-90.png
00000009,625,1,1443108182949,1443108182981,886,422,0,0,0,3,2,1,32,0003-00-0007-53.png,0002-00-0006-21.png
00000009,626,1,1443108183991,1443108184031,879,421,0,0,0,5,1,4,51,0005-00-0009-22.png,0001-00-0007-93.png
00000009,627,1,1443108185202,1443108185234,886,424,0,0,0,3,1,2,31,0003-00-0006-58.png,0001-00-0009-81.png
00000009,628,0,1443108186336,1443108186356,889,422,0,0,0,1,5,4,15,0001-00-0003-60.png,0005-00-0005-21.png
00000009,629,0,1443108189496,1443108190176,958,337,0,0,0,3,4,1,34,0003-00-0000-92.png,0004-00-0004-74.png
00000009,630,1,1443108193531,1443108194187,487,277,0,0,0,4,5,1,45,0004-00-0001-16.png,0005-00-0008-30.png
00000009,631,0,1443108195040,1443108195083,888,419,0,0,0,2,5,3,25,0002-00-0006-60.png,0005-00-0004-07.png
00000009,632,1,1443108198202,1443108198246,920,327,0,0,0,5,3,2,53,0005-00-0000-47.png,0003-00-0002-64.png
00000009,633,0,1443108199175,1443108199215,888,396,0,0,0,2,3,1,23,0002-00-0001-44.png,0003-00-0008-30.png
00000009,634,1,1443108202305,1443108202851,1094,308,0,0,0,4,1,3,41,0004-00-0006-82.png,0001-00-0007-30.png
00000009,635,1,1443108204274,1443108204326,902,394,0,0,0,5,4,1,54,0005-00-0000-94.png,0004-00-0002-98.png
00000009,636,0,1443108205405,1443108205437,888,408,0,0,0,1,4,3,14,0001-00-0002-96.png,0004-00-0008-08.png
00000009,637,0,1443108208449,1443108209150,392,366,0,0,0,4,3,1,43,0004-00-0001-52.png,0003-00-0008-64.png
00000009,638,1,1443108212314,1443108212819,396,404,0,0,0,1,2,1,12,0001-00-0003-38.png,0002-00-0007-91.png
00000009,639,1,1443108214140,1443108214208,896,384,0,0,0,4,2,2,42,0004-00-0000-63.png,0002-00-0006-19.png
00000009,640,0,1443108215183,1443108215215,881,437,0,0,0,1,3,2,13,0001-00-0006-85.png,0003-00-0001-43.png
00000009,641,1,1443108218116,1443108218660,1096,305,0,0,0,5,1,4,51,0005-00-0002-17.png,0001-00-0008-15.png
00000009,642,0,1443108219629,1443108219681,969,368,0,0,0,1,3,2,13,0001-00-0003-21.png,0003-00-0009-86.png
00000009,643,1,1443108222516,1443108223083,913,332,0,0,0,3,2,1,32,0003-00-0006-76.png,0002-00-0001-45.png
00000009,644,0,1443108223938,1443108223986,985,424,0,0,0,1,4,3,14,0001-00-0007-40.png,0004-00-0002-25.png
00000009,645,1,1443108227136,1443108228092,474,262,0,0,0,2,3,1,23,0002-00-0005-93.png,0003-00-0005-51.png
00000009,646,0,1443108229328,1443108229356,889,393,0,0,0,2,4,2,24,0002-00-0003-52.png,0004-00-0005-00.png
00000009,647,1,1443108232266,1443108232811,943,350,0,0,0,3,1,2,31,0003-00-0009-97.png,0001-00-0006-85.png
00000009,648,1,1443108234183,1443108234223,888,375,0,0,0,4,3,1,43,0004-00-0007-03.png,0003-00-0002-92.png
00000009,649,0,1443108235355,1443108235386,887,434,0,0,0,1,2,1,12,0001-00-0008-21.png,0002-00-0009-72.png
00000009,650,1,1443108238228,1443108238940,1070,288,0,0,0,2,1,1,21,0002-00-0003-81.png,0001-00-0004-88.png
00000009,651,0,1443108240337,1443108241537,934,357,0,0,0,4,5,1,45,0004-00-0004-58.png,0005-00-0009-95.png
00000009,652,1,1443108244568,1443108245401,504,275,0,0,0,3,5,2,35,0003-00-0009-17.png,0005-00-0004-26.png
00000009,653,1,1443108246795,1443108246847,891,365,0,0,0,5,3,2,53,0005-00-0009-99.png,0003-00-0000-47.png
00000009,654,1,1443108247856,1443108247884,861,435,0,0,0,5,4,1,54,0005-00-0007-95.png,0004-00-0004-89.png
00000009,655,0,1443108249049,1443108249089,880,447,0,0,0,3,4,1,34,0003-00-0009-50.png,0004-00-0005-33.png
00000009,656,1,1443108252248,1443108253067,474,284,0,0,0,1,5,4,15,0001-00-0005-78.png,0005-00-0006-18.png
00000009,657,1,1443108254375,1443108254838,978,528,0,0,0,5,2,3,52,0005-00-0002-99.png,0002-00-0003-88.png
00000009,658,1,1443108255855,1443108255887,866,436,0,0,0,4,1,3,41,0004-00-0005-02.png,0001-00-0000-06.png
00000009,659,1,1443108256958,1443108257010,921,469,0,0,0,4,2,2,42,0004-00-0009-22.png,0002-00-0005-47.png
00000009,660,0,1443108258111,1443108258151,888,460,0,0,0,2,5,3,25,0002-00-0006-06.png,0005-00-0000-46.png
00000009,661,1,1443108261164,1443108261789,507,282,0,0,0,1,4,3,14,0001-00-0000-20.png,0004-00-0009-58.png
00000009,662,1,1443108263119,1443108263187,880,392,0,0,0,4,3,1,43,0004-00-0000-64.png,0003-00-0001-26.png
00000009,663,0,1443108264164,1443108264274,923,525,0,0,0,2,3,1,23,0002-00-0003-14.png,0003-00-0002-69.png
00000009,664,1,1443108267322,1443108268311,965,349,0,0,0,3,1,2,31,0003-00-0005-95.png,0001-00-0005-98.png
00000009,665,0,1443108269173,1443108269250,946,454,0,0,0,1,5,4,15,0001-00-0003-85.png,0005-00-0008-19.png
00000009,666,0,1443108272214,1443108272808,518,264,0,0,0,4,1,3,41,0004-00-0003-29.png,0001-00-0005-95.png
00000009,667,0,1443108275970,1443108276010,942,356,0,0,0,3,5,2,35,0003-00-0009-72.png,0005-00-0003-84.png
00000009,668,1,1443108279112,1443108279664,939,331,0,0,0,5,4,1,54,0005-00-0004-19.png,0004-00-0007-15.png
00000009,669,1,1443108280589,1443108280613,893,413,0,0,0,5,2,3,52,0005-00-0004-16.png,0002-00-0005-26.png
00000009,670,1,1443108281593,1443108281657,881,420,0,0,0,3,2,1,32,0003-00-0006-26.png,0002-00-0003-74.png
00000009,671,1,1443108282774,1443108282798,860,407,0,0,0,5,3,2,53,0005-00-0000-43.png,0003-00-0008-64.png
00000009,672,1,1443108284047,1443108284087,881,423,0,0,0,5,1,4,51,0005-00-0005-89.png,0001-00-0003-16.png
00000009,673,1,1443108285230,1443108285294,899,443,0,0,0,4,2,2,42,0004-00-0001-83.png,0002-00-0000-11.png
00000009,674,0,1443108286431,1443108286463,860,411,0,0,0,2,4,2,24,0002-00-0004-10.png,0004-00-0000-23.png
00000009,675,1,1443108289764,1443108290404,462,279,0,0,0,4,5,1,45,0004-00-0006-48.png,0005-00-0004-79.png
00000009,676,0,1443108291250,1443108291286,901,443,0,0,0,3,4,1,34,0003-00-0000-81.png,0004-00-0002-64.png
00000009,677,0,1443108294460,1443108294504,920,308,0,0,0,1,3,2,13,0001-00-0005-44.png,0003-00-0006-16.png
00000009,678,0,1443108297454,1443108298262,520,268,0,0,0,2,1,1,21,0002-00-0002-00.png,0001-00-0007-38.png
00000009,679,1,1443108301410,1443108301994,477,279,0,0,0,2,5,3,25,0002-00-0001-40.png,0005-00-0001-84.png
00000009,680,0,1443108302857,1443108302897,884,441,0,0,0,1,2,1,12,0001-00-0004-63.png,0002-00-0002-53.png
00000009,681,1,1443108305921,1443108306625,1096,310,0,0,0,4,1,3,41,0004-00-0007-80.png,0001-00-0007-09.png
00000009,682,0,1443108307492,1443108307532,891,447,0,0,0,2,5,3,25,0002-00-0008-00.png,0005-00-0004-53.png
00000009,683,0,1443108310610,1443108310642,911,354,0,0,0,3,4,1,34,0003-00-0000-25.png,0004-00-0001-78.png
00000009,684,1,1443108313798,1443108314402,494,268,0,0,0,2,3,1,23,0002-00-0004-74.png,0003-00-0006-13.png
00000009,685,1,1443108315735,1443108315779,888,423,0,0,0,4,2,2,42,0004-00-0009-32.png,0002-00-0004-41.png
00000009,686,0,1443108316770,1443108316830,896,420,0,0,0,1,5,4,15,0001-00-0005-52.png,0005-00-0003-48.png
00000009,687,1,1443108319924,1443108320534,965,323,0,0,0,5,4,1,54,0005-00-0005-91.png,0004-00-0005-01.png
00000009,688,1,1443108321402,1443108321434,910,408,0,0,0,5,1,4,51,0005-00-0006-44.png,0001-00-0007-36.png
00000009,689,0,1443108322514,1443108322538,884,439,0,0,0,1,2,1,12,0001-00-0007-97.png,0002-00-0004-62.png
00000009,690,1,1443108325657,1443108326251,520,283,0,0,0,4,5,1,45,0004-00-0001-97.png,0005-00-0009-38.png
00000009,691,1,1443108327114,1443108327154,885,400,0,0,0,3,2,1,32,0003-00-0003-45.png,0002-00-0001-97.png
00000009,692,1,1443108328177,1443108328229,883,420,0,0,0,3,1,2,31,0003-00-0007-11.png,0001-00-0007-23.png
00000009,693,1,1443108329299,1443108329331,886,414,0,0,0,4,3,1,43,0004-00-0005-02.png,0003-00-0001-14.png
00000009,694,1,1443108330522,1443108330575,906,415,0,0,0,5,3,2,53,0005-00-0000-02.png,0003-00-0007-09.png
00000009,695,1,1443108331775,1443108331835,908,449,0,0,0,5,2,3,52,0005-00-0008-23.png,0002-00-0008-45.png
00000009,696,0,1443108333095,1443108333127,886,438,0,0,0,1,3,2,13,0001-00-0000-28.png,0003-00-0006-90.png
00000009,697,0,1443108336167,1443108336775,490,266,0,0,0,2,1,1,21,0002-00-0007-82.png,0001-00-0001-29.png
00000009,698,1,1443108339836,1443108340797,457,297,0,0,0,1,4,3,14,0001-00-0007-04.png,0004-00-0005-94.png
00000009,699,1,1443108341672,1443108342913,380,393,0,0,0,3,5,2,35,0003-00-0007-15.png,0005-00-0006-31.png
00000009,700,0,1443108343851,1443108343871,887,420,0,0,0,2,4,2,24,0002-00-0007-91.png,0004-00-0000-42.png
00000009,701,1,1443108346782,1443108347542,476,254,0,0,0,1,2,1,12,0001-00-0009-73.png,0002-00-0007-70.png
00000009,702,0,1443108348371,1443108348391,908,393,0,0,0,2,4,2,24,0002-00-0009-03.png,0004-00-0003-19.png
00000009,703,1,1443108351384,1443108351929,481,276,0,0,0,2,5,3,25,0002-00-0004-03.png,0005-00-0005-26.png
00000009,704,1,1443108352835,1443108352982,969,497,0,0,0,5,1,4,51,0005-00-0005-90.png,0001-00-0000-58.png
00000009,705,1,1443108354599,1443108354623,859,414,0,0,0,4,1,3,41,0004-00-0000-59.png,0001-00-0003-27.png
00000009,706,0,1443108355723,1443108355815,862,478,0,0,0,2,3,1,23,0002-00-0001-62.png,0003-00-0005-72.png
00000009,707,1,1443108358933,1443108359523,971,426,0,0,0,4,2,2,42,0004-00-0000-54.png,0002-00-0003-44.png
00000009,708,0,1443108360354,1443108360402,924,423,0,0,0,3,5,2,35,0003-00-0002-97.png,0005-00-0000-09.png
00000009,709,0,1443108363982,1443108364646,1098,294,0,0,0,4,5,1,45,0004-00-0008-28.png,0005-00-0004-12.png
00000009,710,0,1443108367581,1443108368272,482,301,0,0,0,2,1,1,21,0002-00-0001-01.png,0001-00-0002-70.png
00000009,711,1,1443108371223,1443108371919,360,383,0,0,0,3,4,1,34,0003-00-0000-49.png,0004-00-0001-33.png
00000009,712,0,1443108372817,1443108373015,902,488,0,0,0,1,3,2,13,0001-00-0001-22.png,0003-00-0006-78.png
00000009,713,1,1443108376017,1443108376599,943,346,0,0,0,3,2,1,32,0003-00-0009-55.png,0002-00-0006-42.png
00000009,714,1,1443108377478,1443108377498,934,421,0,0,0,4,3,1,43,0004-00-0007-71.png,0003-00-0001-58.png
00000009,715,1,1443108378800,1443108378848,860,412,0,0,0,5,4,1,54,0005-00-0007-13.png,0004-00-0006-97.png
00000009,716,0,1443108379821,1443108380014,902,529,0,0,0,1,5,4,15,0001-00-0000-21.png,0005-00-0004-20.png
00000009,717,1,1443108382895,1443108383524,1064,283,0,0,0,3,1,2,31,0003-00-0009-34.png,0001-00-0000-19.png
00000009,718,1,1443108384860,1443108384892,860,394,0,0,0,5,3,2,53,0005-00-0002-22.png,0003-00-0003-28.png
00000009,719,1,1443108385992,1443108386024,864,439,0,0,0,5,2,3,52,0005-00-0006-93.png,0002-00-0007-37.png
00000009,720,0,1443108387165,1443108387185,859,449,0,0,0,1,4,3,14,0001-00-0007-29.png,0004-00-0006-51.png
00000009,721,1,1443108390384,1443108390953,941,354,0,0,0,3,1,2,31,0003-00-0004-05.png,0001-00-0004-25.png
00000009,722,0,1443108391804,1443108391838,888,384,0,0,0,4,5,1,45,0004-00-0005-01.png,0005-00-0006-08.png
00000009,723,1,1443108394836,1443108395365,394,381,0,0,0,2,3,1,23,0002-00-0004-49.png,0003-00-0006-75.png
00000009,724,0,1443108396188,1443108396212,909,374,0,0,0,2,5,3,25,0002-00-0008-53.png,0005-00-0009-07.png
00000009,725,0,1443108399387,1443108400052,1092,294,0,0,0,1,4,3,14,0001-00-0007-39.png,0004-00-0003-86.png
00000009,726,1,1443108403203,1443108403770,1091,315,0,0,0,5,2,3,52,0005-00-0009-48.png,0002-00-0002-30.png
00000009,727,0,1443108404602,1443108404646,881,418,0,0,0,3,4,1,34,0003-00-0001-22.png,0004-00-0000-36.png
00000009,728,0,1443108407617,1443108408273,518,264,0,0,0,5,3,2,53,0005-00-0005-74.png,0003-00-0003-05.png
00000009,729,1,1443108411304,1443108412032,968,291,0,0,0,3,2,1,32,0003-00-0007-26.png,0002-00-0008-06.png
00000009,730,0,1443108412879,1443108412998,955,462,0,0,0,1,5,4,15,0001-00-0006-84.png,0005-00-0003-62.png
00000009,731,0,1443108416223,1443108416855,949,329,0,0,0,1,3,2,13,0001-00-0004-69.png,0003-00-0001-44.png
00000009,732,1,1443108419989,1443108420519,1097,302,0,0,0,5,1,4,51,0005-00-0000-94.png,0001-00-0004-81.png
00000009,733,0,1443108421349,1443108421361,917,386,0,0,0,3,5,2,35,0003-00-0002-50.png,0005-00-0009-19.png
00000009,734,1,1443108424490,1443108424532,877,382,0,0,0,4,2,2,42,0004-00-0002-94.png,0002-00-0001-29.png
00000009,735,0,1443108425474,1443108425502,857,437,0,0,0,1,2,1,12,0001-00-0008-46.png,0002-00-0004-62.png
00000009,736,1,1443108428584,1443108428825,871,348,0,0,0,2,1,1,21,0002-00-0001-82.png,0001-00-0002-57.png
00000009,737,0,1443108429866,1443108429890,940,413,0,0,0,2,4,2,24,0002-00-0004-77.png,0004-00-0008-79.png
00000009,738,1,1443108433067,1443108433752,965,335,0,0,0,4,3,1,43,0004-00-0009-32.png,0003-00-0009-22.png
00000009,739,1,1443108434603,1443108434639,945,391,0,0,0,5,4,1,54,0005-00-0002-90.png,0004-00-0009-09.png
00000009,740,1,1443108435628,1443108435680,879,384,0,0,0,4,1,3,41,0004-00-0004-18.png,0001-00-0002-73.png
00000009,741,1,1443108436800,1443108436832,862,420,0,0,0,5,3,2,53,0005-00-0004-06.png,0003-00-0007-67.png
00000009,742,1,1443108438033,1443108438077,888,436,0,0,0,4,1,3,41,0004-00-0004-39.png,0001-00-0006-26.png
00000009,743,1,1443108439315,1443108439355,888,410,0,0,0,4,3,1,43,0004-00-0004-74.png,0003-00-0002-90.png
00000009,744,0,1443108440747,1443108440767,884,421,0,0,0,3,5,2,35,0003-00-0004-20.png,0005-00-0004-53.png
00000009,745,0,1443108443887,1443108443935,937,352,0,0,0,3,4,1,34,0003-00-0005-16.png,0004-00-0006-97.png
00000009,746,1,1443108446869,1443108447740,474,270,0,0,0,1,4,3,14,0001-00-0008-40.png,0004-00-0000-64.png
00000009,747,0,1443108449064,1443108449116,879,410,0,0,0,2,4,2,24,0002-00-0007-35.png,0004-00-0005-89.png
00000009,748,0,1443108451947,1443108452673,970,319,0,0,0,2,5,3,25,0002-00-0008-53.png,0005-00-0001-53.png
00000009,749,1,1443108455833,1443108456422,508,260,0,0,0,2,3,1,23,0002-00-0002-98.png,0003-00-0005-66.png
00000009,750,0,1443108457311,1443108457355,862,395,0,0,0,1,2,1,12,0001-00-0007-03.png,0002-00-0004-37.png
00000009,751,1,1443108460227,1443108460795,368,382,0,0,0,1,3,2,13,0001-00-0000-77.png,0003-00-0006-03.png
00000009,752,1,1443108462191,1443108463031,915,316,0,0,0,4,2,2,42,0004-00-0000-16.png,0002-00-0003-93.png
00000009,753,1,1443108463910,1443108463962,957,441,0,0,0,5,1,4,51,0005-00-0009-69.png,0001-00-0002-74.png
00000009,754,1,1443108465077,1443108465145,906,460,0,0,0,5,2,3,52,0005-00-0000-43.png,0002-00-0009-60.png
00000009,755,1,1443108466274,1443108466298,886,412,0,0,0,5,4,1,54,0005-00-0003-55.png,0004-00-0006-59.png
00000009,756,0,1443108467515,1443108467555,921,479,0,0,0,1,5,4,15,0001-00-0000-39.png,0005-00-0002-44.png
00000009,757,0,1443108470596,1443108471184,476,263,0,0,0,2,1,1,21,0002-00-0006-12.png,0001-00-0006-46.png
00000009,758,0,1443108474166,1443108474210,927,384,0,0,0,4,5,1,45,0004-00-0007-94.png,0005-00-0009-04.png
00000009,759,1,1443108477385,1443108477920,986,351,0,0,0,3,1,2,31,0003-00-0007-81.png,0001-00-0008-13.png
00000009,760,1,1443108478776,1443108478808,939,415,0,0,0,3,2,1,32,0003-00-0006-67.png,0002-00-0008-69.png
00000009,761,0,1443108479725,1443108479800,916,435,0,0,0,1,3,2,13,0001-00-0005-67.png,0003-00-0007-03.png
00000009,762,1,1443108482750,1443108483440,1092,306,0,0,0,3,1,2,31,0003-00-0002-60.png,0001-00-0002-14.png
00000009,763,0,1443108484292,1443108484332,971,394,0,0,0,1,2,1,12,0001-00-0000-54.png,0002-00-0004-24.png
00000009,764,1,1443108487483,1443108488035,377,370,0,0,0,1,5,4,15,0001-00-0006-44.png,0005-00-0008-24.png
00000009,765,1,1443108489507,1443108489539,869,398,0,0,0,5,1,4,51,0005-00-0000-03.png,0001-00-0002-85.png
00000009,766,1,1443108490521,1443108490553,888,436,0,0,0,2,1,1,21,0002-00-0009-71.png,0001-00-0001-06.png
00000009,767,0,1443108491684,1443108491748,924,448,0,0,0,3,4,1,34,0003-00-0005-60.png,0004-00-0005-64.png
00000009,768,0,1443108494596,1443108495350,939,451,0,0,0,4,5,1,45,0004-00-0009-51.png,0005-00-0007-29.png
00000009,769,1,1443108498376,1443108498958,471,314,0,0,0,2,5,3,25,0002-00-0008-45.png,0005-00-0006-79.png
00000009,770,1,1443108499842,1443108499894,973,455,0,0,0,5,4,1,54,0005-00-0003-68.png,0004-00-0006-78.png
00000009,771,1,1443108500724,1443108500736,878,434,0,0,0,5,3,2,53,0005-00-0004-69.png,0003-00-0007-24.png
00000009,772,1,1443108501650,1443108501690,872,410,0,0,0,4,1,3,41,0004-00-0006-17.png,0001-00-0003-06.png
00000009,773,1,1443108502753,1443108502785,896,416,0,0,0,5,2,3,52,0005-00-0007-88.png,0002-00-0006-80.png
00000009,774,0,1443108503965,1443108504021,915,412,0,0,0,3,5,2,35,0003-00-0006-58.png,0005-00-0007-84.png
00000009,775,1,1443108507235,1443108508339,484,262,0,0,0,2,3,1,23,0002-00-0006-71.png,0003-00-0009-91.png
00000009,776,1,1443108509274,1443108509314,899,443,0,0,0,3,2,1,32,0003-00-0003-76.png,0002-00-0002-48.png
00000009,777,1,1443108510285,1443108510340,906,462,0,0,0,4,3,1,43,0004-00-0009-06.png,0003-00-0004-37.png
00000009,778,0,1443108511329,1443108511389,899,448,0,0,0,1,4,3,14,0001-00-0006-24.png,0004-00-0006-26.png
00000009,779,0,1443108514500,1443108514552,919,333,0,0,0,2,4,2,24,0002-00-0006-68.png,0004-00-0004-96.png
00000009,780,1,1443108517642,1443108518235,1119,284,0,0,0,4,2,2,42,0004-00-0009-94.png,0002-00-0004-85.png
00000009,781,1,1443108519598,1443108519626,887,356,0,0,0,2,1,1,21,0002-00-0008-19.png,0001-00-0005-45.png
00000009,782,0,1443108520599,1443108520627,860,434,0,0,0,3,5,2,35,0003-00-0002-13.png,0005-00-0001-01.png
00000009,783,1,1443108523810,1443108524367,462,279,0,0,0,1,4,3,14,0001-00-0006-97.png,0004-00-0001-76.png
00000009,784,1,1443108525758,1443108525778,899,382,0,0,0,4,3,1,43,0004-00-0001-02.png,0003-00-0009-13.png
00000009,785,1,1443108526810,1443108526862,882,471,0,0,0,5,1,4,51,0005-00-0001-08.png,0001-00-0004-40.png
00000009,786,0,1443108527923,1443108527955,865,421,0,0,0,2,4,2,24,0002-00-0002-85.png,0004-00-0007-52.png
00000009,787,1,1443108530819,1443108531522,358,387,0,0,0,3,4,1,34,0003-00-0000-67.png,0004-00-0009-00.png
00000009,788,0,1443108532906,1443108532966,891,415,0,0,0,4,5,1,45,0004-00-0008-36.png,0005-00-0003-43.png
00000009,789,1,1443108536055,1443108536638,1122,303,0,0,0,3,2,1,32,0003-00-0001-13.png,0002-00-0001-86.png
00000009,790,0,1443108537513,1443108537553,957,464,0,0,0,2,3,1,23,0002-00-0000-16.png,0003-00-0002-25.png
00000009,791,1,1443108540744,1443108541358,1092,297,0,0,0,4,1,3,41,0004-00-0007-15.png,0001-00-0004-01.png
00000009,792,1,1443108542212,1443108542244,925,405,0,0,0,4,2,2,42,0004-00-0009-81.png,0002-00-0008-42.png
00000009,793,0,1443108543189,1443108543221,886,411,0,0,0,2,5,3,25,0002-00-0000-95.png,0005-00-0007-15.png
00000009,794,0,1443108546110,1443108546692,494,289,0,0,0,3,1,2,31,0003-00-0008-39.png,0001-00-0005-95.png
00000009,795,1,1443108549837,1443108550372,966,331,0,0,0,5,3,2,53,0005-00-0009-12.png,0003-00-0002-93.png
00000009,796,1,1443108551204,1443108551236,922,436,0,0,0,5,2,3,52,0005-00-0002-87.png,0002-00-0004-93.png
00000009,797,0,1443108552057,1443108552107,882,443,0,0,0,1,2,1,12,0001-00-0008-61.png,0002-00-0002-35.png
00000009,798,0,1443108555153,1443108555173,904,355,0,0,0,1,5,4,15,0001-00-0002-97.png,0005-00-0005-87.png
00000009,799,1,1443108558351,1443108558887,961,343,0,0,0,5,4,1,54,0005-00-0009-05.png,0004-00-0002-31.png
00000009,800,0,1443108559762,1443108559807,961,438,0,0,0,1,3,2,13,0001-00-0002-13.png,0003-00-0005-74.png
00000009,801,1,1443108562914,1443108563486,1077,301,0,0,0,3,1,2,31,0003-00-0008-22.png,0001-00-0008-33.png
00000009,802,1,1443108564321,1443108564377,911,454,0,0,0,5,1,4,51,0005-00-0001-36.png,0001-00-0008-85.png
00000009,803,0,1443108565455,1443108565564,862,447,0,0,0,3,4,1,34,0003-00-0002-57.png,0004-00-0006-64.png
00000009,804,1,1443108568676,1443108568700,894,352,0,0,0,5,4,1,54,0005-00-0007-86.png,0004-00-0006-37.png
00000009,805,0,1443108569700,1443108569720,925,454,0,0,0,1,3,2,13,0001-00-0007-56.png,0003-00-0006-13.png
00000009,806,1,1443108572679,1443108573307,503,269,0,0,0,1,4,3,14,0001-00-0008-55.png,0004-00-0004-34.png
00000009,807,0,1443108574600,1443108574640,915,428,0,0,0,4,5,1,45,0004-00-0007-77.png,0005-00-0004-63.png
00000009,808,1,1443108577720,1443108578374,370,387,0,0,0,2,4,2,24,0002-00-0007-06.png,0004-00-0005-47.png
00000009,809,1,1443108579768,1443108579796,922,400,0,0,0,3,2,1,32,0003-00-0004-88.png,0002-00-0009-31.png
00000009,810,1,1443108580787,1443108580815,866,433,0,0,0,2,1,1,21,0002-00-0003-75.png,0001-00-0000-62.png
00000009,811,0,1443108582089,1443108582153,938,413,0,0,0,3,5,2,35,0003-00-0007-02.png,0005-00-0004-73.png
00000009,812,1,1443108585021,1443108585609,511,262,0,0,0,1,5,4,15,0001-00-0001-47.png,0005-00-0000-70.png
00000009,813,0,1443108586461,1443108586493,887,467,0,0,0,2,3,1,23,0002-00-0007-17.png,0003-00-0008-22.png
00000009,814,1,1443108589586,1443108590290,969,365,0,0,0,4,2,2,42,0004-00-0003-04.png,0002-00-0008-48.png
00000009,815,1,1443108591171,1443108591239,910,435,0,0,0,5,2,3,52,0005-00-0000-06.png,0002-00-0000-84.png
00000009,816,0,1443108592214,1443108592254,895,421,0,0,0,2,5,3,25,0002-00-0006-68.png,0005-00-0007-12.png
00000009,817,0,1443108595444,1443108596023,948,345,0,0,0,1,2,1,12,0001-00-0008-41.png,0002-00-0003-42.png
00000009,818,1,1443108599164,1443108599690,941,366,0,0,0,4,1,3,41,0004-00-0000-32.png,0001-00-0009-53.png
00000009,819,1,1443108600538,1443108600586,913,410,0,0,0,5,3,2,53,0005-00-0009-26.png,0003-00-0002-73.png
00000009,820,1,1443108601706,1443108601738,900,410,0,0,0,4,3,1,43,0004-00-0003-98.png,0003-00-0003-54.png
00000009,821,0,1443108602857,1443108602897,921,452,0,0,0,3,5,2,35,0003-00-0002-69.png,0005-00-0003-51.png
00000009,822,0,1443108606121,1443108606688,507,285,0,0,0,5,3,2,53,0005-00-0002-22.png,0003-00-0007-05.png
00000009,823,0,1443108609882,1443108610448,1094,297,0,0,0,2,3,1,23,0002-00-0007-53.png,0003-00-0001-12.png
00000009,824,0,1443108613311,1443108613355,515,485,0,0,0,2,1,1,21,0002-00-0009-59.png,0001-00-0008-92.png
00000009,825,1,1443108616539,1443108616575,920,383,0,0,0,5,1,4,51,0005-00-0006-58.png,0001-00-0002-99.png
00000009,826,1,1443108617564,1443108617636,910,426,0,0,0,4,2,2,42,0004-00-0008-01.png,0002-00-0003-99.png
00000009,827,1,1443108618617,1443108618649,909,394,0,0,0,4,1,3,41,0004-00-0005-36.png,0001-00-0000-10.png
00000009,828,1,1443108619740,1443108619812,913,426,0,0,0,3,2,1,32,0003-00-0001-61.png,0002-00-0001-42.png
00000009,829,1,1443108620852,1443108620967,898,482,0,0,0,5,2,3,52,0005-00-0000-26.png,0002-00-0006-04.png
00000009,830,0,1443108622012,1443108622060,913,436,0,0,0,1,4,3,14,0001-00-0007-53.png,0004-00-0003-81.png
00000009,831,0,1443108625197,1443108626104,480,267,0,0,0,5,4,1,54,0005-00-0000-55.png,0004-00-0002-39.png
00000009,832,1,1443108629002,1443108629669,483,279,0,0,0,2,5,3,25,0002-00-0005-22.png,0005-00-0009-77.png
00000009,833,0,1443108630536,1443108630621,980,443,0,0,0,1,5,4,15,0001-00-0009-45.png,0005-00-0001-33.png
00000009,834,1,1443108633788,1443108634569,488,253,0,0,0,1,3,2,13,0001-00-0003-61.png,0003-00-0009-88.png
00000009,835,0,1443108635410,1443108635470,914,410,0,0,0,2,4,2,24,0002-00-0002-92.png,0004-00-0001-49.png
00000009,836,1,1443108638373,1443108638928,1092,309,0,0,0,3,1,2,31,0003-00-0002-32.png,0001-00-0000-85.png
00000009,837,0,1443108640368,1443108640408,891,375,0,0,0,4,5,1,45,0004-00-0001-85.png,0005-00-0006-26.png
00000009,838,0,1443108643617,1443108644202,966,355,0,0,0,3,4,1,34,0003-00-0006-48.png,0004-00-0009-98.png
00000009,839,0,1443108647365,1443108647405,937,349,0,0,0,1,2,1,12,0001-00-0009-49.png,0002-00-0004-41.png
00000009,840,1,1443108650379,1443108650443,862,449,0,0,0,4,3,1,43,0004-00-0004-50.png,0003-00-0009-61.png
00000009,841,0,1443108651380,1443108651403,859,415,0,0,0,1,4,3,14,0001-00-0006-16.png,0004-00-0003-06.png
00000009,842,1,1443108654482,1443108655083,410,376,0,0,0,1,2,1,12,0001-00-0001-33.png,0002-00-0006-79.png
00000009,843,1,1443108655907,1443108655963,913,410,0,0,0,3,2,1,32,0003-00-0001-34.png,0002-00-0003-93.png
00000009,844,1,1443108657461,1443108657517,878,436,0,0,0,2,1,1,21,0002-00-0005-19.png,0001-00-0000-10.png
00000009,845,1,1443108658577,1443108658645,976,526,0,0,0,4,3,1,43,0004-00-0009-17.png,0003-00-0006-59.png
00000009,846,0,1443108659805,1443108659829,887,424,0,0,0,4,5,1,45,0004-00-0006-24.png,0005-00-0005-29.png
00000009,847,1,1443108662688,1443108663317,939,314,0,0,0,5,4,1,54,0005-00-0004-80.png,0004-00-0008-08.png
00000009,848,1,1443108664180,1443108664196,915,394,0,0,0,5,3,2,53,0005-00-0005-58.png,0003-00-0005-02.png
00000009,849,1,1443108665084,1443108665524,913,514,0,0,0,3,1,2,31,0003-00-0003-08.png,0001-00-0002-02.png
00000009,850,1,1443108666406,1443108666434,883,454,0,0,0,5,2,3,52,0005-00-0006-37.png,0002-00-0004-53.png
00000009,851,0,1443108667686,1443108667754,896,481,0,0,0,2,5,3,25,0002-00-0000-47.png,0005-00-0005-60.png
00000009,852,1,1443108670905,1443108671677,501,272,0,0,0,3,4,1,34,0003-00-0004-69.png,0004-00-0006-09.png
00000009,853,0,1443108672945,1443108672965,890,396,0,0,0,3,5,2,35,0003-00-0001-12.png,0005-00-0004-23.png
00000009,854,1,1443108676047,1443108676607,949,355,0,0,0,4,2,2,42,0004-00-0002-36.png,0002-00-0005-77.png
00000009,855,0,1443108677444,1443108677476,939,423,0,0,0,1,5,4,15,0001-00-0003-05.png,0005-00-0005-59.png
00000009,856,1,1443108680479,1443108681098,503,273,0,0,0,1,3,2,13,0001-00-0002-39.png,0003-00-0001-12.png
00000009,857,0,1443108682482,1443108682800,939,541,0,0,0,2,3,1,23,0002-00-0001-70.png,0003-00-0006-83.png
00000009,858,1,1443108685962,1443108686604,403,375,0,0,0,2,4,2,24,0002-00-0007-26.png,0004-00-0000-30.png
00000009,859,1,1443108688000,1443108688052,885,396,0,0,0,4,1,3,41,0004-00-0004-46.png,0001-00-0002-84.png
00000009,860,1,1443108689104,1443108689207,939,541,0,0,0,5,1,4,51,0005-00-0002-24.png,0001-00-0001-20.png
00000009,861,1,1443108690343,1443108690394,860,440,0,0,0,4,3,1,43,0004-00-0007-78.png,0003-00-0009-98.png
00000009,862,0,1443108691575,1443108691607,895,440,0,0,0,1,3,2,13,0001-00-0000-80.png,0003-00-0004-19.png
00000009,863,1,1443108694477,1443108694489,516,447,0,0,0,1,4,3,14,0001-00-0002-77.png,0004-00-0003-41.png
00000009,864,1,1443108695532,1443108695588,914,475,0,0,0,5,4,1,54,0005-00-0004-49.png,0004-00-0001-29.png
00000009,865,1,1443108696534,1443108696566,864,436,0,0,0,2,1,1,21,0002-00-0000-83.png,0001-00-0008-57.png
00000009,866,1,1443108697867,1443108697888,872,462,0,0,0,4,2,2,42,0004-00-0005-74.png,0002-00-0003-93.png
00000009,867,1,1443108699147,1443108699227,921,480,0,0,0,5,2,3,52,0005-00-0005-06.png,0002-00-0009-35.png
00000009,868,1,1443108700280,1443108700324,913,438,0,0,0,5,3,2,53,0005-00-0009-24.png,0003-00-0001-87.png
00000009,869,0,1443108701689,1443108701728,890,441,0,0,0,1,5,4,15,0001-00-0000-22.png,0005-00-0005-37.png
00000009,870,1,1443108704785,1443108705427,486,267,0,0,0,4,5,1,45,0004-00-0002-12.png,0005-00-0007-49.png
00000009,871,1,1443108706261,1443108706336,917,475,0,0,0,5,1,4,51,0005-00-0007-52.png,0001-00-0008-41.png
00000009,872,1,1443108707206,1443108707270,886,435,0,0,0,3,1,2,31,0003-00-0000-31.png,0001-00-0009-39.png
00000009,873,0,1443108708498,1443108708538,886,448,0,0,0,3,4,1,34,0003-00-0009-50.png,0004-00-0000-80.png
00000009,874,1,1443108711760,1443108712326,1089,301,0,0,0,3,2,1,32,0003-00-0001-34.png,0002-00-0006-16.png
00000009,875,0,1443108713212,1443108713432,990,525,0,0,0,3,5,2,35,0003-00-0004-24.png,0005-00-0002-92.png
00000009,876,1,1443108716636,1443108717325,400,378,0,0,0,2,3,1,23,0002-00-0001-65.png,0003-00-0000-13.png
00000009,877,1,1443108718177,1443108718222,922,395,0,0,0,4,1,3,41,0004-00-0008-73.png,0001-00-0004-27.png
00000009,878,0,1443108719111,1443108719254,871,479,0,0,0,2,4,2,24,0002-00-0007-93.png,0004-00-0005-89.png
00000009,879,1,1443108722390,1443108722946,506,289,0,0,0,2,5,3,25,0002-00-0006-26.png,0005-00-0002-73.png
00000009,880,0,1443108724356,1443108724392,857,389,0,0,0,1,2,1,12,0001-00-0006-03.png,0002-00-0001-14.png
00000009,881,0,1443108727570,1443108727606,934,357,0,0,0,1,5,4,15,0001-00-0000-51.png,0005-00-0007-76.png
00000009,882,1,1443108730670,1443108731236,1114,296,0,0,0,5,1,4,51,0005-00-0007-44.png,0001-00-0000-85.png
00000009,883,0,1443108732606,1443108732658,878,384,0,0,0,3,4,1,34,0003-00-0005-98.png,0004-00-0001-79.png
00000009,884,0,1443108735739,1443108736274,1070,335,0,0,0,3,5,2,35,0003-00-0005-02.png,0005-00-0007-63.png
00000009,885,0,1443108739455,1443108740041,501,250,0,0,0,5,4,1,54,0005-00-0003-38.png,0004-00-0004-51.png
00000009,886,1,1443108743221,1443108743864,456,283,0,0,0,4,5,1,45,0004-00-0008-37.png,0005-00-0005-51.png
00000009,887,1,1443108744698,1443108744746,886,446,0,0,0,3,2,1,32,0003-00-0002-31.png,0002-00-0009-91.png
00000009,888,1,1443108745752,1443108745796,874,442,0,0,0,4,3,1,43,0004-00-0009-87.png,0003-00-0002-53.png
00000009,889,0,1443108746965,1443108746985,872,450,0,0,0,2,5,3,25,0002-00-0008-50.png,0005-00-0007-54.png
00000009,890,1,1443108749889,1443108750670,344,367,0,0,0,1,2,1,12,0001-00-0003-76.png,0002-00-0002-64.png
00000009,891,1,1443108752025,1443108752053,867,386,0,0,0,2,1,1,21,0002-00-0009-29.png,0001-00-0006-18.png
00000009,892,1,1443108753105,1443108753157,902,447,0,0,0,3,1,2,31,0003-00-0003-77.png,0001-00-0006-72.png
00000009,893,0,1443108754258,1443108754282,889,430,0,0,0,1,4,3,14,0001-00-0001-92.png,0004-00-0000-30.png
00000009,894,1,1443108757417,1443108758111,511,255,0,0,0,2,3,1,23,0002-00-0008-55.png,0003-00-0009-60.png
00000009,895,1,1443108758949,1443108759021,887,475,0,0,0,5,3,2,53,0005-00-0007-58.png,0003-00-0009-47.png
00000009,896,0,1443108759993,1443108760033,868,404,0,0,0,1,3,2,13,0001-00-0005-57.png,0003-00-0005-93.png
00000009,897,1,1443108762973,1443108763739,973,341,0,0,0,4,1,3,41,0004-00-0009-06.png,0001-00-0000-08.png
00000009,898,1,1443108764590,1443108764634,929,417,0,0,0,4,2,2,42,0004-00-0003-98.png,0002-00-0002-75.png
00000009,899,1,1443108765597,1443108765629,875,419,0,0,0,5,2,3,52,0005-00-0005-70.png,0002-00-0000-24.png
00000009,900,0,1443108766689,1443108766713,878,456,0,0,0,2,4,2,24,0002-00-0005-33.png,0004-00-0005-24.png
00000009,901,1,1443108769840,1443108769880,915,335,0,0,0,5,3,2,53,0005-00-0001-14.png,0003-00-0006-17.png
00000009,902,0,1443108770957,1443108770981,924,416,0,0,0,1,4,3,14,0001-00-0003-53.png,0004-00-0008-93.png
00000009,903,1,1443108779731,1443108780472,951,360,0,0,0,5,2,3,52,0005-00-0009-36.png,0002-00-0003-47.png
00000009,904,0,1443108781470,1443108781506,925,387,0,0,0,1,3,2,13,0001-00-0005-89.png,0003-00-0000-49.png
00000009,905,1,1443108784713,1443108785268,398,413,0,0,0,1,5,4,15,0001-00-0001-94.png,0005-00-0006-92.png
00000009,906,1,1443108786122,1443108786174,911,465,0,0,0,5,4,1,54,0005-00-0007-72.png,0004-00-0006-93.png
00000009,907,0,1443108787615,1443108787643,892,389,0,0,0,4,5,1,45,0004-00-0004-50.png,0005-00-0002-84.png
00000009,908,1,1443108790577,1443108791121,960,355,0,0,0,5,1,4,51,0005-00-0002-01.png,0001-00-0000-34.png
00000009,909,0,1443108792462,1443108792893,953,529,0,0,0,2,4,2,24,0002-00-0008-71.png,0004-00-0006-20.png
00000009,910,1,1443108796321,1443108796349,862,358,0,0,0,4,3,1,43,0004-00-0000-59.png,0003-00-0009-11.png
00000009,911,0,1443108797363,1443108797375,912,460,0,0,0,2,3,1,23,0002-00-0006-05.png,0003-00-0003-50.png
00000009,912,0,1443108800446,1443108801079,1053,306,0,0,0,3,5,2,35,0003-00-0002-75.png,0005-00-0002-10.png
00000009,913,1,1443108804201,1443108804233,909,389,0,0,0,3,2,1,32,0003-00-0000-37.png,0002-00-0008-41.png
00000009,914,0,1443108805291,1443108805319,898,446,0,0,0,1,2,1,12,0001-00-0008-09.png,0002-00-0006-74.png
00000009,915,1,1443108808266,1443108808842,1092,335,0,0,0,3,1,2,31,0003-00-0006-10.png,0001-00-0004-28.png
00000009,916,1,1443108809671,1443108809759,987,415,0,0,0,2,1,1,21,0002-00-0001-76.png,0001-00-0002-04.png
00000009,917,0,1443108811077,1443108811128,881,436,0,0,0,2,5,3,25,0002-00-0001-35.png,0005-00-0002-79.png
00000009,918,1,1443108814307,1443108814942,470,298,0,0,0,3,4,1,34,0003-00-0006-97.png,0004-00-0002-73.png
00000009,919,1,1443108815798,1443108815818,936,433,0,0,0,4,1,3,41,0004-00-0002-33.png,0001-00-0003-67.png
00000009,920,1,1443108816781,1443108816916,926,475,0,0,0,4,2,2,42,0004-00-0007-62.png,0002-00-0004-91.png
00000009,921,1,1443108817900,1443108817940,922,403,0,0,0,4,1,3,41,0004-00-0000-72.png,0001-00-0001-52.png
00000009,922,0,1443108819003,1443108819027,872,390,0,0,0,2,4,2,24,0002-00-0006-60.png,0004-00-0005-32.png
00000009,923,1,1443108822224,1443108822862,490,279,0,0,0,3,5,2,35,0003-00-0001-04.png,0005-00-0003-28.png
00000009,924,1,1443108823724,1443108823748,917,390,0,0,0,3,2,1,32,0003-00-0008-31.png,0002-00-0000-90.png
00000009,925,0,1443108824828,1443108824888,927,436,0,0,0,2,3,1,23,0002-00-0003-08.png,0003-00-0003-71.png
00000009,926,0,1443108827929,1443108827937,511,373,0,0,0,5,2,3,52,0005-00-0000-24.png,0002-00-0009-51.png
00000009,927,0,1443108831268,1443108831814,509,279,0,0,0,5,4,1,54,0005-00-0001-90.png,0004-00-0007-94.png
00000009,928,1,1443108834885,1443108835521,499,308,0,0,0,4,5,1,45,0004-00-0004-93.png,0005-00-0004-35.png
00000009,929,1,1443108836404,1443108836456,923,409,0,0,0,2,1,1,21,0002-00-0008-41.png,0001-00-0003-66.png
00000009,930,1,1443108837998,1443108838050,889,389,0,0,0,5,1,4,51,0005-00-0001-43.png,0001-00-0007-25.png
00000009,931,0,1443108839077,1443108839109,916,411,0,0,0,1,2,1,12,0001-00-0004-04.png,0002-00-0000-68.png
00000009,932,1,1443108842031,1443108842635,944,343,0,0,0,4,3,1,43,0004-00-0002-91.png,0003-00-0006-87.png
00000009,933,0,1443108843799,1443108843839,900,364,0,0,0,3,4,1,34,0003-00-0002-31.png,0004-00-0009-36.png
00000009,934,1,1443108847068,1443108847596,974,352,0,0,0,3,1,2,31,0003-00-0005-22.png,0001-00-0001-94.png
00000009,935,0,1443108848469,1443108848517,964,383,0,0,0,1,3,2,13,0001-00-0002-14.png,0003-00-0002-11.png
00000009,936,1,1443108851612,1443108852164,1095,316,0,0,0,5,3,2,53,0005-00-0007-22.png,0003-00-0009-23.png
00000009,937,0,1443108853082,1443108853102,995,405,0,0,0,1,5,4,15,0001-00-0005-92.png,0005-00-0001-03.png
00000009,938,1,1443108855968,1443108856546,935,355,0,0,0,4,2,2,42,0004-00-0005-35.png,0002-00-0004-72.png
00000009,939,0,1443108857949,1443108857981,894,398,0,0,0,1,4,3,14,0001-00-0002-93.png,0004-00-0002-86.png
00000009,940,1,1443108861179,1443108861752,484,277,0,0,0,2,5,3,25,0002-00-0002-49.png,0005-00-0000-73.png
00000009,941,1,1443108863186,1443108863196,880,395,0,0,0,3,1,2,31,0003-00-0004-30.png,0001-00-0005-78.png
