subject_id,trial,correct_response,stim_time,response_time,x_coord,y_coord,trial_timeout,timeout_time,interTrial_timeout,left_rank,right_rank,distance,joint_rank,left_image,right_image
00000009,1,1,1442931893910,1442931894884,963,380,0,0,0,5,1,4,51,0005-00-0008-12.png,0001-00-0005-49.png
00000009,2,0,1442931896845,1442931897638,295,417,0,0,0,5,3,2,53,0005-00-0004-32.png,0003-00-0001-85.png
00000009,3,1,1442931901237,1442931901831,1013,329,0,0,0,4,1,3,41,0004-00-0003-11.png,0001-00-0001-73.png
00000009,4,1,1442931903642,1442931904251,926,359,0,0,0,3,1,2,31,0003-00-0005-22.png,0001-00-0006-56.png
00000009,5,1,1442931905550,1442931906123,349,407,0,0,0,1,3,2,13,0001-00-0001-40.png,0003-00-0008-70.png
00000009,6,0,1442931907638,1442931908390,1020,401,0,0,0,1,2,1,12,0001-00-0001-79.png,0002-00-0008-56.png
00000009,7,1,1442931912528,1442931913310,344,383,0,0,0,2,5,3,25,0002-00-0002-24.png,0005-00-0008-92.png
00000009,8,0,1442931914842,1442931915460,1148,333,0,0,0,4,5,1,45,0004-00-0002-19.png,0005-00-0009-62.png
00000009,9,1,1442931918947,1442931919681,306,399,0,0,0,2,4,2,24,0002-00-0008-94.png,0004-00-0000-04.png
00000009,10,1,1442931921114,1442931921779,988,370,0,0,0,5,2,3,52,0005-00-0007-26.png,0002-00-0002-47.png
00000009,11,1,1442931923309,1442931923968,338,404,0,0,0,2,3,1,23,0002-00-0001-69.png,0003-00-0001-63.png
00000009,12,0,1442931925356,1442931925430,955,408,0,0,0,1,5,4,15,0001-00-0004-46.png,0005-00-0002-69.png
00000009,13,1,1442931929987,1442931930761,296,378,0,0,0,3,5,2,35,0003-00-0006-86.png,0005-00-0006-43.png
00000009,14,1,1442931932965,1442931933509,1143,302,0,0,0,3,2,1,32,0003-00-0007-32.png,0002-00-0000-24.png
00000009,15,0,1442931934573,1442931934637,1021,480,0,0,0,3,4,1,34,0003-00-0003-58.png,0004-00-0000-36.png
00000009,16,1,1442931938246,1442931938969,1041,335,0,0,0,4,3,1,43,0004-00-0006-23.png,0003-00-0007-66.png
00000009,17,0,1442931940163,1442931940231,1019,482,0,0,0,1,4,3,14,0001-00-0002-95.png,0004-00-0002-75.png
00000009,18,1,1442931947250,1442931947416,888,384,0,0,0,5,4,1,54,0005-00-0003-30.png,0004-00-0004-04.png
00000009,19,1,1442931948728,1442931948796,982,442,0,0,0,4,2,2,42,0004-00-0004-01.png,0002-00-0004-08.png
00000009,20,1,1442931950577,1442931951154,988,303,0,0,0,2,1,1,21,0002-00-0007-08.png,0001-00-0008-12.png
00000009,21,0,1442931953119,1442931953414,941,296,0,0,0,1,5,4,15,0001-00-0005-14.png,0005-00-0007-92.png
00000009,22,0,1442931957365,1442931957577,894,360,0,0,0,2,3,1,23,0002-00-0005-21.png,0003-00-0002-58.png
00000009,23,1,1442931964845,1442931965486,322,351,0,0,0,1,3,2,13,0001-00-0003-41.png,0003-00-0005-35.png
00000009,24,1,1442931966864,1442931966908,888,319,0,0,0,5,2,3,52,0005-00-0007-53.png,0002-00-0002-05.png
00000009,25,1,1442931969111,1442931969534,1011,387,0,0,0,3,1,2,31,0003-00-0005-89.png,0001-00-0003-63.png
00000009,26,1,1442931970780,1442931970900,860,381,0,0,0,3,2,1,32,0003-00-0002-89.png,0002-00-0004-78.png
00000009,27,0,1442931972329,1442931972417,898,408,0,0,0,3,4,1,34,0003-00-0007-26.png,0004-00-0006-17.png
00000009,28,1,1442931975660,1442931976403,473,250,0,0,0,1,2,1,12,0001-00-0008-89.png,0002-00-0000-83.png
00000009,29,0,1442931977304,1442931978519,1065,278,0,0,0,4,5,1,45,0004-00-0003-05.png,0005-00-0001-27.png
00000009,30,1,1442931981732,1442931982602,945,320,0,0,0,5,1,4,51,0005-00-0005-75.png,0001-00-0003-67.png
00000009,31,1,1442931983529,1442931984430,1093,303,0,0,0,4,3,1,43,0004-00-0005-17.png,0003-00-0002-29.png
00000009,32,1,1442931985438,1442931985494,882,391,0,0,0,5,3,2,53,0005-00-0002-28.png,0003-00-0003-95.png
00000009,33,1,1442931986837,1442931986901,898,410,0,0,0,2,1,1,21,0002-00-0000-55.png,0001-00-0007-98.png
00000009,34,1,1442931988528,1442931988572,940,390,0,0,0,4,1,3,41,0004-00-0004-14.png,0001-00-0005-29.png
00000009,35,0,1442931989811,1442931989887,881,422,0,0,0,1,4,3,14,0001-00-0003-14.png,0004-00-0003-62.png
00000009,36,0,1442931992888,1442931993743,372,352,0,0,0,5,4,1,54,0005-00-0003-83.png,0004-00-0009-53.png
00000009,37,1,1442931996606,1442931997427,368,377,0,0,0,2,5,3,25,0002-00-0002-21.png,0005-00-0004-17.png
00000009,38,1,1442931998433,1442931998501,888,445,0,0,0,4,2,2,42,0004-00-0008-43.png,0002-00-0004-79.png
00000009,39,0,1442931999534,1442931999562,907,391,0,0,0,2,4,2,24,0002-00-0003-46.png,0004-00-0005-88.png
00000009,40,0,1442932002396,1442932003114,965,312,0,0,0,3,5,2,35,0003-00-0004-64.png,0005-00-0009-25.png
00000009,41,0,1442932006683,1442932006788,899,279,0,0,0,2,5,3,25,0002-00-0002-49.png,0005-00-0008-71.png
00000009,42,1,1442932009613,1442932010437,993,303,0,0,0,2,1,1,21,0002-00-0006-71.png,0001-00-0003-74.png
00000009,43,1,1442932011373,1442932011497,929,481,0,0,0,4,1,3,41,0004-00-0007-67.png,0001-00-0008-88.png
00000009,44,0,1442932012504,1442932012572,876,410,0,0,0,1,4,3,14,0001-00-0000-42.png,0004-00-0002-02.png
00000009,45,0,1442932015567,1442932015591,499,381,0,0,0,3,1,2,31,0003-00-0000-23.png,0001-00-0008-28.png
00000009,46,1,1442932018424,1442932019321,354,378,0,0,0,1,3,2,13,0001-00-0003-06.png,0003-00-0008-94.png
00000009,47,1,1442932020247,1442932020370,877,436,0,0,0,3,2,1,32,0003-00-0001-44.png,0002-00-0006-72.png
00000009,48,0,1442932021568,1442932021661,919,429,0,0,0,3,4,1,34,0003-00-0004-19.png,0004-00-0000-80.png
00000009,49,0,1442932024819,1442932025610,433,387,0,0,0,4,3,1,43,0004-00-0004-16.png,0003-00-0007-91.png
00000009,50,1,1442932028649,1442932029274,967,316,0,0,0,5,2,3,52,0005-00-0004-17.png,0002-00-0000-86.png
00000009,51,0,1442932030194,1442932030289,933,409,0,0,0,3,5,2,35,0003-00-0003-81.png,0005-00-0005-21.png
00000009,52,1,1442932033722,1442932034354,990,343,0,0,0,5,1,4,51,0005-00-0006-65.png,0001-00-0004-46.png
00000009,53,0,1442932035270,1442932035386,928,462,0,0,0,1,5,4,15,0001-00-0008-11.png,0005-00-0005-81.png
00000009,54,0,1442932039365,1442932040085,1116,307,0,0,0,2,4,2,24,0002-00-0001-19.png,0004-00-0004-39.png
00000009,55,0,1442932043145,1442932043994,964,393,0,0,0,2,3,1,23,0002-00-0001-70.png,0003-00-0000-71.png
00000009,56,1,1442932047166,1442932047939,955,384,0,0,0,5,4,1,54,0005-00-0002-01.png,0004-00-0005-12.png
00000009,57,0,1442932048941,1442932049029,938,461,0,0,0,1,2,1,12,0001-00-0007-17.png,0002-00-0009-40.png
00000009,58,0,1442932052443,1442932052736,953,338,0,0,0,4,5,1,45,0004-00-0004-57.png,0005-00-0004-24.png
00000009,59,1,1442932055930,1442932055954,915,311,0,0,0,5,3,2,53,0005-00-0002-17.png,0003-00-0008-45.png
00000009,60,1,1442932057014,1442932057106,929,436,0,0,0,4,2,2,42,0004-00-0008-10.png,0002-00-0000-80.png
00000009,61,1,1442932058206,1442932058283,878,445,0,0,0,2,1,1,21,0002-00-0009-97.png,0001-00-0009-76.png
00000009,62,0,1442932059886,1442932059942,904,456,0,0,0,4,5,1,45,0004-00-0006-15.png,0005-00-0000-55.png
00000009,63,1,1442932063237,1442932064058,964,344,0,0,0,4,3,1,43,0004-00-0004-57.png,0003-00-0001-99.png
00000009,64,0,1442932065064,1442932065108,921,435,0,0,0,1,5,4,15,0001-00-0006-49.png,0005-00-0006-46.png
00000009,65,1,1442932068522,1442932069243,376,348,0,0,0,2,3,1,23,0002-00-0009-15.png,0003-00-0003-54.png
00000009,66,1,1442932070141,1442932071453,451,277,0,0,0,2,5,3,25,0002-00-0001-51.png,0005-00-0002-95.png
00000009,67,1,1442932072466,1442932072585,902,529,0,0,0,4,2,2,42,0004-00-0000-64.png,0002-00-0000-05.png
00000009,68,1,1442932073658,1442932073758,862,447,0,0,0,5,3,2,53,0005-00-0008-76.png,0003-00-0005-10.png
00000009,69,0,1442932075219,1442932075239,884,396,0,0,0,2,4,2,24,0002-00-0009-84.png,0004-00-0006-82.png
00000009,70,1,1442932078509,1442932079110,966,329,0,0,0,3,1,2,31,0003-00-0004-93.png,0001-00-0008-54.png
00000009,71,1,1442932079986,1442932080096,927,436,0,0,0,5,4,1,54,0005-00-0002-19.png,0004-00-0005-74.png
00000009,72,0,1442932081113,1442932081254,902,529,0,0,0,1,2,1,12,0001-00-0000-45.png,0002-00-0008-17.png
00000009,73,1,1442932084650,1442932084852,874,307,0,0,0,3,2,1,32,0003-00-0007-10.png,0002-00-0004-78.png
00000009,74,1,1442932085792,1442932086025,939,541,0,0,0,5,2,3,52,0005-00-0000-53.png,0002-00-0006-57.png
00000009,75,0,1442932087263,1442932088462,1084,306,0,0,0,3,4,1,34,0003-00-0005-24.png,0004-00-0005-89.png
00000009,76,1,1442932091775,1442932092359,964,348,0,0,0,4,1,3,41,0004-00-0004-47.png,0001-00-0006-03.png
00000009,77,0,1442932093284,1442932093372,907,521,0,0,0,3,5,2,35,0003-00-0008-98.png,0005-00-0003-05.png
00000009,78,1,1442932096417,1442932097577,446,266,0,0,0,1,4,3,14,0001-00-0007-90.png,0004-00-0000-20.png
00000009,79,1,1442932098586,1442932099069,888,488,0,0,0,5,1,4,51,0005-00-0009-12.png,0001-00-0008-83.png
00000009,80,0,1442932100367,1442932100483,939,488,0,0,0,1,3,2,13,0001-00-0002-00.png,0003-00-0003-19.png
00000009,81,1,1442932103820,1442932104436,480,276,0,0,0,2,3,1,23,0002-00-0005-22.png,0003-00-0001-90.png
00000009,82,0,1442932106036,1442932106239,964,420,0,0,0,3,5,2,35,0003-00-0002-80.png,0005-00-0005-67.png
00000009,83,1,1442932109564,1442932110132,482,251,0,0,0,1,3,2,13,0001-00-0000-28.png,0003-00-0000-78.png
00000009,84,1,1442932111094,1442932111118,918,439,0,0,0,5,3,2,53,0005-00-0004-50.png,0003-00-0005-63.png
00000009,85,0,1442932112962,1442932113125,932,457,0,0,0,2,4,2,24,0002-00-0006-08.png,0004-00-0008-56.png
00000009,86,1,1442932116799,1442932117546,379,388,0,0,0,3,4,1,34,0003-00-0006-18.png,0004-00-0008-64.png
00000009,87,1,1442932118547,1442932118627,870,488,0,0,0,5,4,1,54,0005-00-0004-53.png,0004-00-0008-02.png
00000009,88,0,1442932119627,1442932119675,874,393,0,0,0,1,5,4,15,0001-00-0004-92.png,0005-00-0001-58.png
00000009,89,1,1442932123168,1442932123856,462,253,0,0,0,2,5,3,25,0002-00-0004-49.png,0005-00-0005-30.png
00000009,90,1,1442932124758,1442932126013,1092,306,0,0,0,3,1,2,31,0003-00-0003-65.png,0001-00-0006-57.png
00000009,91,0,1442932127174,1442932128472,943,346,0,0,0,4,5,1,45,0004-00-0008-43.png,0005-00-0009-33.png
00000009,92,1,1442932131676,1442932132368,965,319,0,0,0,5,1,4,51,0005-00-0004-19.png,0001-00-0009-86.png
00000009,93,1,1442932133454,1442932133577,917,511,0,0,0,5,2,3,52,0005-00-0007-91.png,0002-00-0001-60.png
00000009,94,1,1442932135531,1442932135815,913,473,0,0,0,2,1,1,21,0002-00-0008-92.png,0001-00-0008-96.png
00000009,95,1,1442932136931,1442932136971,869,480,0,0,0,4,3,1,43,0004-00-0006-49.png,0003-00-0001-21.png
00000009,96,1,1442932138382,1442932138528,881,507,0,0,0,4,2,2,42,0004-00-0009-00.png,0002-00-0001-09.png
00000009,97,0,1442932139812,1442932139840,863,512,0,0,0,1,2,1,12,0001-00-0001-87.png,0002-00-0005-53.png
00000009,98,1,1442932142773,1442932143743,975,384,0,0,0,4,1,3,41,0004-00-0003-38.png,0001-00-0001-81.png
00000009,99,0,1442932144752,1442932144772,888,512,0,0,0,1,4,3,14,0001-00-0007-03.png,0004-00-0002-89.png
00000009,100,1,1442932147952,1442932148621,1118,306,0,0,0,3,2,1,32,0003-00-0004-54.png,0002-00-0005-48.png
00000009,101,1,1442932150425,1442932151396,1010,418,0,0,0,4,3,1,43,0004-00-0000-61.png,0003-00-0000-14.png
00000009,102,1,1442932152432,1442932152488,873,402,0,0,0,5,1,4,51,0005-00-0009-51.png,0001-00-0006-75.png
00000009,103,1,1442932153535,1442932154713,470,224,0,0,0,1,5,4,15,0001-00-0004-59.png,0005-00-0005-07.png
00000009,104,0,1442932155936,1442932156016,910,468,0,0,0,3,4,1,34,0003-00-0002-86.png,0004-00-0007-98.png
00000009,105,1,1442932159211,1442932159939,504,273,0,0,0,1,2,1,12,0001-00-0004-26.png,0002-00-0007-67.png
00000009,106,0,1442932161587,1442932162110,927,541,0,0,0,3,5,2,35,0003-00-0000-37.png,0005-00-0000-38.png
00000009,107,0,1442932165112,1442932165918,357,354,0,0,0,2,1,1,21,0002-00-0006-54.png,0001-00-0002-68.png
00000009,108,1,1442932168949,1442932169584,945,311,0,0,0,5,2,3,52,0005-00-0008-55.png,0002-00-0006-40.png
00000009,109,1,1442932170609,1442932171639,392,385,0,0,0,1,4,3,14,0001-00-0008-46.png,0004-00-0005-65.png
00000009,110,1,1442932172683,1442932173867,364,378,0,0,0,2,5,3,25,0002-00-0007-77.png,0005-00-0006-86.png
00000009,111,1,1442932174851,1442932175832,385,407,0,0,0,1,3,2,13,0001-00-0008-56.png,0003-00-0003-57.png
00000009,112,1,1442932176948,1442932176992,858,512,0,0,0,4,1,3,41,0004-00-0001-24.png,0001-00-0005-44.png
00000009,113,0,1442932178158,1442932178214,890,451,0,0,0,2,3,1,23,0002-00-0009-01.png,0003-00-0003-71.png
00000009,114,1,1442932181386,1442932182032,403,381,0,0,0,2,4,2,24,0002-00-0000-83.png,0004-00-0004-23.png
00000009,115,0,1442932182990,1442932184109,369,399,0,0,0,5,3,2,53,0005-00-0005-89.png,0003-00-0008-06.png
00000009,116,0,1442932187411,1442932187467,866,333,0,0,0,4,5,1,45,0004-00-0002-19.png,0005-00-0001-47.png
00000009,117,1,1442932191366,1442932192146,964,345,0,0,0,5,4,1,54,0005-00-0002-78.png,0004-00-0007-00.png
00000009,118,1,1442932193245,1442932193301,888,436,0,0,0,3,1,2,31,0003-00-0000-00.png,0001-00-0009-88.png
00000009,119,1,1442932194458,1442932194514,897,442,0,0,0,3,2,1,32,0003-00-0004-76.png,0002-00-0001-36.png
00000009,120,1,1442932196971,1442932197635,918,332,0,0,0,4,2,2,42,0004-00-0008-83.png,0002-00-0008-54.png
00000009,121,1,1442932198681,1442932198765,939,462,0,0,0,5,4,1,54,0005-00-0008-18.png,0004-00-0002-62.png
00000009,122,1,1442932200028,1442932200128,888,500,0,0,0,3,2,1,32,0003-00-0009-38.png,0002-00-0000-45.png
00000009,123,1,1442932201204,1442932202277,444,247,0,0,0,1,3,2,13,0001-00-0007-05.png,0003-00-0007-22.png
00000009,124,0,1442932203599,1442932203691,939,501,0,0,0,3,4,1,34,0003-00-0009-30.png,0004-00-0003-31.png
00000009,125,1,1442932206689,1442932207558,505,279,0,0,0,4,5,1,45,0004-00-0003-74.png,0005-00-0003-92.png
00000009,126,1,1442932208557,1442932208573,507,520,0,0,0,1,2,1,12,0001-00-0005-71.png,0002-00-0005-64.png
00000009,127,1,1442932209656,1442932210909,454,280,0,0,0,1,4,3,14,0001-00-0000-09.png,0004-00-0005-69.png
00000009,128,1,1442932212979,1442932213944,943,322,0,0,0,5,3,2,53,0005-00-0002-78.png,0003-00-0001-21.png
00000009,129,0,1442932215087,1442932215159,949,462,0,0,0,2,4,2,24,0002-00-0008-40.png,0004-00-0007-24.png
00000009,130,1,1442932218087,1442932218701,944,320,0,0,0,4,2,2,42,0004-00-0008-26.png,0002-00-0000-23.png
00000009,131,1,1442932219597,1442932221034,940,354,0,0,0,4,1,3,41,0004-00-0005-09.png,0001-00-0005-97.png
00000009,132,1,1442932222012,1442932222068,862,420,0,0,0,4,3,1,43,0004-00-0001-07.png,0003-00-0008-03.png
00000009,133,1,1442932223273,1442932223297,885,472,0,0,0,2,1,1,21,0002-00-0003-21.png,0001-00-0001-33.png
00000009,134,0,1442932224347,1442932224889,902,529,0,0,0,2,5,3,25,0002-00-0001-96.png,0005-00-0002-52.png
00000009,135,1,1442932228093,1442932228677,352,352,0,0,0,1,5,4,15,0001-00-0008-54.png,0005-00-0008-75.png
00000009,136,0,1442932230688,1442932231480,939,399,0,0,0,3,5,2,35,0003-00-0009-37.png,0005-00-0007-96.png
00000009,137,1,1442932234594,1442932235256,1172,300,0,0,0,5,1,4,51,0005-00-0008-80.png,0001-00-0006-41.png
00000009,138,1,1442932236375,1442932236409,918,476,0,0,0,3,1,2,31,0003-00-0008-43.png,0001-00-0003-80.png
00000009,139,1,1442932238009,1442932238110,905,462,0,0,0,5,2,3,52,0005-00-0009-30.png,0002-00-0008-66.png
00000009,140,0,1442932239124,1442932239192,886,518,0,0,0,2,3,1,23,0002-00-0004-99.png,0003-00-0006-96.png
00000009,141,1,1442932242553,1442932243316,387,370,0,0,0,1,5,4,15,0001-00-0009-32.png,0005-00-0007-59.png
00000009,142,1,1442932244759,1442932244835,888,425,0,0,0,4,2,2,42,0004-00-0005-10.png,0002-00-0007-75.png
00000009,143,0,1442932245760,1442932247114,1085,312,0,0,0,2,3,1,23,0002-00-0006-60.png,0003-00-0004-41.png
00000009,144,1,1442932250254,1442932250916,918,335,0,0,0,5,4,1,54,0005-00-0007-90.png,0004-00-0008-16.png
00000009,145,0,1442932252382,1442932252418,862,436,0,0,0,3,5,2,35,0003-00-0009-79.png,0005-00-0003-15.png
00000009,146,1,1442932255422,1442932255446,492,387,0,0,0,3,4,1,34,0003-00-0001-68.png,0004-00-0006-18.png
00000009,147,1,1442932257538,1442932258369,390,349,0,0,0,1,4,3,14,0001-00-0007-71.png,0004-00-0008-75.png
00000009,148,1,1442932259383,1442932260832,955,332,0,0,0,4,1,3,41,0004-00-0001-02.png,0001-00-0002-72.png
00000009,149,0,1442932262798,1442932262901,896,447,0,0,0,1,3,2,13,0001-00-0007-33.png,0003-00-0008-05.png
00000009,150,0,1442932266066,1442932266773,404,371,0,0,0,5,1,4,51,0005-00-0003-75.png,0001-00-0000-43.png
00000009,151,1,1442932270459,1442932271056,988,328,0,0,0,2,1,1,21,0002-00-0006-06.png,0001-00-0003-72.png
00000009,152,1,1442932272962,1442932273846,490,259,0,0,0,2,4,2,24,0002-00-0004-15.png,0004-00-0008-95.png
00000009,153,1,1442932274896,1442932276121,914,336,0,0,0,3,1,2,31,0003-00-0002-21.png,0001-00-0008-38.png
00000009,154,1,1442932277171,1442932277211,902,455,0,0,0,3,2,1,32,0003-00-0005-11.png,0002-00-0001-80.png
00000009,155,0,1442932278227,1442932278295,939,448,0,0,0,4,5,1,45,0004-00-0009-05.png,0005-00-0005-27.png
00000009,156,1,1442932281498,1442932281522,931,348,0,0,0,4,3,1,43,0004-00-0007-19.png,0003-00-0002-54.png
00000009,157,0,1442932282499,1442932282627,880,488,0,0,0,1,2,1,12,0001-00-0007-95.png,0002-00-0006-97.png
00000009,158,0,1442932285721,1442932286424,415,380,0,0,0,5,3,2,53,0005-00-0002-92.png,0003-00-0004-21.png
00000009,159,1,1442932289437,1442932289441,505,404,0,0,0,2,5,3,25,0002-00-0009-83.png,0005-00-0006-69.png
00000009,160,1,1442932290487,1442932290937,888,529,0,0,0,5,2,3,52,0005-00-0006-67.png,0002-00-0009-44.png
00000009,161,1,1442932292192,1442932292292,937,520,0,0,0,4,2,2,42,0004-00-0000-84.png,0002-00-0001-55.png
00000009,162,0,1442932293390,1442932293438,885,500,0,0,0,2,3,1,23,0002-00-0007-12.png,0003-00-0002-44.png
00000009,163,1,1442932296553,1442932297151,986,326,0,0,0,5,2,3,52,0005-00-0007-75.png,0002-00-0009-79.png
00000009,164,0,1442932298180,1442932298180,940,382,0,0,0,2,4,2,24,0002-00-0006-81.png,0004-00-0009-55.png
00000009,165,0,1442932301392,1442932301408,944,361,0,0,0,1,4,3,14,0001-00-0007-25.png,0004-00-0007-09.png
00000009,166,1,1442932304641,1442932305273,389,392,0,0,0,2,5,3,25,0002-00-0006-52.png,0005-00-0000-75.png
00000009,167,1,1442932306138,1442932307088,500,241,0,0,0,1,2,1,12,0001-00-0004-26.png,0002-00-0001-00.png
00000009,168,1,1442932309223,1442932310011,937,367,0,0,0,2,1,1,21,0002-00-0001-24.png,0001-00-0007-02.png
00000009,169,1,1442932311131,1442932311223,898,478,0,0,0,5,4,1,54,0005-00-0003-38.png,0004-00-0003-23.png
00000009,170,0,1442932312283,1442932312299,888,447,0,0,0,3,4,1,34,0003-00-0007-84.png,0004-00-0003-56.png
00000009,171,0,1442932315860,1442932316552,990,426,0,0,0,3,5,2,35,0003-00-0003-25.png,0005-00-0009-59.png
00000009,172,1,1442932319647,1442932320240,1140,305,0,0,0,5,1,4,51,0005-00-0000-75.png,0001-00-0002-11.png
00000009,173,0,1442932321205,1442932321217,917,446,0,0,0,1,3,2,13,0001-00-0002-82.png,0003-00-0002-19.png
00000009,174,0,1442932333729,1442932334532,508,269,0,0,0,5,3,2,53,0005-00-0002-09.png,0003-00-0000-77.png
00000009,175,0,1442932337487,1442932338167,915,386,0,0,0,1,5,4,15,0001-00-0007-53.png,0005-00-0007-66.png
00000009,176,1,1442932341343,1442932342304,981,436,0,0,0,3,2,1,32,0003-00-0000-40.png,0002-00-0001-00.png
00000009,177,0,1442932343337,1442932343389,903,462,0,0,0,4,5,1,45,0004-00-0005-58.png,0005-00-0006-52.png
00000009,178,1,1442932346658,1442932346712,967,308,0,0,0,4,3,1,43,0004-00-0004-96.png,0003-00-0006-44.png
00000009,179,1,1442932347734,1442932347830,889,510,0,0,0,4,1,3,41,0004-00-0000-26.png,0001-00-0003-18.png
00000009,180,1,1442932349600,1442932350922,963,353,0,0,0,3,1,2,31,0003-00-0007-24.png,0001-00-0008-96.png
00000009,181,1,1442932351945,1442932351973,863,445,0,0,0,3,1,2,31,0003-00-0003-45.png,0001-00-0004-66.png
00000009,182,1,1442932353097,1442932354550,931,350,0,0,0,4,3,1,43,0004-00-0002-16.png,0003-00-0009-75.png
00000009,183,0,1442932355713,1442932355757,900,504,0,0,0,1,3,2,13,0001-00-0001-50.png,0003-00-0005-48.png
00000009,184,0,1442932358919,1442932359592,444,293,0,0,0,5,4,1,54,0005-00-0006-89.png,0004-00-0006-18.png
00000009,185,1,1442932362669,1442932363320,1099,304,0,0,0,3,2,1,32,0003-00-0000-79.png,0002-00-0001-00.png
00000009,186,0,1442932364284,1442932364312,858,415,0,0,0,1,4,3,14,0001-00-0005-25.png,0004-00-0004-55.png
00000009,187,1,1442932367428,1442932368021,404,382,0,0,0,2,4,2,24,0002-00-0000-44.png,0004-00-0008-34.png
00000009,188,0,1442932368988,1442932369048,889,460,0,0,0,1,2,1,12,0001-00-0005-57.png,0002-00-0005-42.png
00000009,189,1,1442932372188,1442932372224,943,333,0,0,0,2,1,1,21,0002-00-0002-76.png,0001-00-0000-06.png
00000009,190,1,1442932374167,1442932374798,420,378,0,0,0,1,5,4,15,0001-00-0003-31.png,0005-00-0006-33.png
00000009,191,1,1442932375765,1442932376905,966,320,0,0,0,5,1,4,51,0005-00-0000-59.png,0001-00-0009-46.png
00000009,192,0,1442932377919,1442932377987,917,493,0,0,0,2,5,3,25,0002-00-0008-46.png,0005-00-0000-11.png
00000009,193,1,1442932380830,1442932381856,476,266,0,0,0,3,5,2,35,0003-00-0009-50.png,0005-00-0001-32.png
00000009,194,1,1442932382918,1442932385074,474,246,0,0,0,4,5,1,45,0004-00-0001-93.png,0005-00-0005-95.png
00000009,195,1,1442932386171,1442932387460,1069,295,0,0,0,5,2,3,52,0005-00-0000-75.png,0002-00-0007-61.png
00000009,196,0,1442932388515,1442932388612,900,527,0,0,0,2,3,1,23,0002-00-0006-02.png,0003-00-0003-23.png
00000009,197,1,1442932391756,1442932392509,1074,319,0,0,0,5,3,2,53,0005-00-0001-36.png,0003-00-0002-54.png
00000009,198,1,1442932394966,1442932395634,519,319,0,0,0,3,4,1,34,0003-00-0000-34.png,0004-00-0001-30.png
00000009,199,1,1442932396774,1442932396810,914,558,0,0,0,4,1,3,41,0004-00-0003-80.png,0001-00-0005-70.png
00000009,200,1,1442932397988,1442932397992,865,460,0,0,0,4,2,2,42,0004-00-0009-57.png,0002-00-0009-85.png
00000009,201,0,1442932400420,1442932400476,901,441,0,0,0,1,3,2,13,0001-00-0008-84.png,0003-00-0008-28.png
00000009,202,1,1442932403429,1442932404128,398,373,0,0,0,4,5,1,45,0004-00-0007-39.png,0005-00-0000-17.png
00000009,203,0,1442932405134,1442932405138,880,540,0,0,0,1,2,1,12,0001-00-0000-01.png,0002-00-0006-89.png
00000009,204,1,1442932408300,1442932408913,986,328,0,0,0,4,3,1,43,0004-00-0002-66.png,0003-00-0009-03.png
00000009,205,0,1442932409969,1442932410061,1002,526,0,0,0,1,4,3,14,0001-00-0009-59.png,0004-00-0000-47.png
00000009,206,1,1442932413330,1442932413919,924,361,0,0,0,5,2,3,52,0005-00-0000-19.png,0002-00-0008-59.png
00000009,207,1,1442932414840,1442932414896,879,511,0,0,0,4,1,3,41,0004-00-0000-38.png,0001-00-0005-09.png
00000009,208,1,1442932415894,1442932416199,913,541,0,0,0,5,3,2,53,0005-00-0008-59.png,0003-00-0004-44.png
00000009,209,1,1442932417773,1442932417809,884,448,0,0,0,3,1,2,31,0003-00-0002-68.png,0001-00-0000-84.png
00000009,210,1,1442932418935,1442932420362,485,285,0,0,0,2,4,2,24,0002-00-0002-83.png,0004-00-0002-18.png
00000009,211,0,1442932421598,1442932421642,879,544,0,0,0,3,5,2,35,0003-00-0007-12.png,0005-00-0004-84.png
00000009,212,1,1442932425176,1442932426041,1090,335,0,0,0,5,4,1,54,0005-00-0008-43.png,0004-00-0007-00.png
00000009,213,1,1442932427928,1442932428651,1115,305,0,0,0,3,2,1,32,0003-00-0000-17.png,0002-00-0005-60.png
00000009,214,0,1442932429756,1442932429852,935,520,0,0,0,3,4,1,34,0003-00-0000-27.png,0004-00-0001-41.png
00000009,215,0,1442932433035,1442932433063,916,383,0,0,0,2,3,1,23,0002-00-0007-52.png,0003-00-0004-36.png
00000009,216,1,1442932438007,1442932438666,457,280,0,0,0,2,5,3,25,0002-00-0009-54.png,0005-00-0009-64.png
00000009,217,1,1442932439675,1442932439739,869,490,0,0,0,2,1,1,21,0002-00-0009-23.png,0001-00-0003-97.png
00000009,218,1,1442932440767,1442932440803,883,446,0,0,0,5,1,4,51,0005-00-0006-76.png,0001-00-0001-40.png
00000009,219,1,1442932442201,1442932443460,507,249,0,0,0,1,5,4,15,0001-00-0004-28.png,0005-00-0004-94.png
00000009,220,1,1442932445219,1442932445243,884,393,0,0,0,4,2,2,42,0004-00-0007-12.png,0002-00-0007-57.png
00000009,221,1,1442932446363,1442932446428,860,457,0,0,0,3,2,1,32,0003-00-0009-87.png,0002-00-0008-82.png
00000009,222,0,1442932447634,1442932447662,866,448,0,0,0,2,3,1,23,0002-00-0008-04.png,0003-00-0008-87.png
00000009,223,0,1442932450755,1442932451379,438,353,0,0,0,4,3,1,43,0004-00-0005-87.png,0003-00-0009-51.png
00000009,224,1,1442932457372,1442932458101,505,232,0,0,0,2,5,3,25,0002-00-0004-56.png,0005-00-0003-87.png
00000009,225,1,1442932459489,1442932459569,888,488,0,0,0,4,1,3,41,0004-00-0007-50.png,0001-00-0000-53.png
00000009,226,1,1442932460541,1442932461812,499,261,0,0,0,3,5,2,35,0003-00-0000-23.png,0005-00-0009-45.png
00000009,227,1,1442932462877,1442932463872,939,315,0,0,0,5,1,4,51,0005-00-0006-70.png,0001-00-0009-78.png
00000009,228,1,1442932464892,1442932464932,911,486,0,0,0,2,1,1,21,0002-00-0001-76.png,0001-00-0001-82.png
00000009,229,1,1442932466226,1442932466282,873,472,0,0,0,4,2,2,42,0004-00-0008-66.png,0002-00-0002-93.png
00000009,230,1,1442932467629,1442932467676,868,518,0,0,0,3,1,2,31,0003-00-0002-86.png,0001-00-0003-05.png
00000009,231,1,1442932468670,1442932469932,395,351,0,0,0,2,4,2,24,0002-00-0003-17.png,0004-00-0009-20.png
00000009,232,0,1442932471096,1442932471164,895,480,0,0,0,1,2,1,12,0001-00-0006-43.png,0002-00-0000-95.png
00000009,233,1,1442932474545,1442932475347,388,363,0,0,0,4,5,1,45,0004-00-0001-71.png,0005-00-0001-39.png
00000009,234,1,1442932476473,1442932476529,880,443,0,0,0,5,4,1,54,0005-00-0008-45.png,0004-00-0000-30.png
00000009,235,1,1442932477805,1442932477853,881,448,0,0,0,5,3,2,53,0005-00-0004-50.png,0003-00-0005-97.png
00000009,236,1,1442932479680,1442932479760,941,425,0,0,0,5,2,3,52,0005-00-0009-95.png,0002-00-0006-27.png
00000009,237,1,1442932480783,1442932482153,459,259,0,0,0,1,3,2,13,0001-00-0002-38.png,0003-00-0003-18.png
00000009,238,1,1442932483344,1442932484557,451,282,0,0,0,1,5,4,15,0001-00-0005-47.png,0005-00-0003-61.png
00000009,239,0,1442932485644,1442932485688,973,352,0,0,0,1,4,3,14,0001-00-0000-55.png,0004-00-0003-26.png
00000009,240,1,1442932488784,1442932489999,500,262,0,0,0,3,4,1,34,0003-00-0004-49.png,0004-00-0001-55.png
00000009,241,1,1442932491169,1442932491177,862,419,0,0,0,3,1,2,31,0003-00-0008-67.png,0001-00-0005-76.png
00000009,242,0,1442932492312,1442932492356,881,454,0,0,0,1,5,4,15,0001-00-0001-04.png,0005-00-0007-98.png
00000009,243,1,1442932495471,1442932496159,506,243,0,0,0,3,5,2,35,0003-00-0000-25.png,0005-00-0007-92.png
00000009,244,0,1442932497240,1442932497284,873,436,0,0,0,3,4,1,34,0003-00-0000-76.png,0004-00-0006-48.png
00000009,245,0,1442932500519,1442932501248,521,279,0,0,0,4,1,3,41,0004-00-0009-16.png,0001-00-0002-69.png
00000009,246,0,1442932504405,1442932504421,858,352,0,0,0,4,5,1,45,0004-00-0007-52.png,0005-00-0008-28.png
00000009,247,1,1442932508451,1442932509038,963,313,0,0,0,3,2,1,32,0003-00-0006-75.png,0002-00-0009-31.png
00000009,248,1,1442932510291,1442932510322,918,407,0,0,0,2,1,1,21,0002-00-0003-39.png,0001-00-0000-61.png
00000009,249,1,1442932511980,1442932512014,909,451,0,0,0,5,2,3,52,0005-00-0003-18.png,0002-00-0002-82.png
00000009,250,1,1442932513309,1442932513333,868,417,0,0,0,5,1,4,51,0005-00-0001-25.png,0001-00-0007-22.png
00000009,251,0,1442932516757,1442932517438,364,368,0,0,0,4,3,1,43,0004-00-0003-78.png,0003-00-0000-31.png
00000009,252,0,1442932521847,1442932522595,434,375,0,0,0,5,3,2,53,0005-00-0005-40.png,0003-00-0007-13.png
00000009,253,1,1442932525868,1442932526427,976,326,0,0,0,5,4,1,54,0005-00-0005-61.png,0004-00-0009-24.png
00000009,254,0,1442932528093,1442932528173,931,448,0,0,0,2,3,1,23,0002-00-0000-00.png,0003-00-0009-40.png
00000009,255,1,1442932531194,1442932531827,403,401,0,0,0,1,4,3,14,0001-00-0005-14.png,0004-00-0002-62.png
00000009,256,0,1442932532805,1442932532861,907,455,0,0,0,2,5,3,25,0002-00-0008-43.png,0005-00-0008-78.png
00000009,257,0,1442932536037,1442932536979,964,345,0,0,0,1,2,1,12,0001-00-0009-42.png,0002-00-0009-61.png
00000009,258,1,1442932540499,1442932541183,372,388,0,0,0,1,3,2,13,0001-00-0002-78.png,0003-00-0007-05.png
00000009,259,0,1442932542337,1442932542381,878,410,0,0,0,2,4,2,24,0002-00-0007-46.png,0004-00-0004-73.png
00000009,260,1,1442932549363,1442932549464,888,253,0,0,0,4,2,2,42,0004-00-0008-70.png,0002-00-0007-67.png
00000009,261,0,1442932550626,1442932550642,902,384,0,0,0,2,5,3,25,0002-00-0008-95.png,0005-00-0005-22.png
00000009,262,0,1442932553622,1442932554327,394,359,0,0,0,2,1,1,21,0002-00-0006-39.png,0001-00-0009-97.png
00000009,263,1,1442932558406,1442932559114,375,357,0,0,0,4,5,1,45,0004-00-0002-04.png,0005-00-0001-56.png
00000009,264,0,1442932561337,1442932561878,989,324,0,0,0,3,4,1,34,0003-00-0007-32.png,0004-00-0004-95.png
00000009,265,1,1442932571268,1442932572118,284,340,0,0,0,2,3,1,23,0002-00-0007-12.png,0003-00-0008-74.png
00000009,266,0,1442932573766,1442932574813,469,273,0,0,0,4,1,3,41,0004-00-0006-94.png,0001-00-0009-83.png
00000009,267,1,1442932693049,1442932693704,484,297,0,0,0,1,5,4,15,0001-00-0008-15.png,0005-00-0000-04.png
00000009,268,0,1442932695643,1442932696005,1177,370,0,0,0,2,4,2,24,0002-00-0003-14.png,0004-00-0007-99.png
00000009,269,1,1442932699308,1442932699891,1121,304,0,0,0,4,3,1,43,0004-00-0001-69.png,0003-00-0003-74.png
00000009,270,0,1442932700921,1442932702336,934,351,0,0,0,1,2,1,12,0001-00-0003-05.png,0002-00-0000-70.png
00000009,271,1,1442932705433,1442932706046,449,371,0,0,0,3,5,2,35,0003-00-0001-87.png,0005-00-0000-88.png
00000009,272,1,1442932707719,1442932707783,862,397,0,0,0,3,2,1,32,0003-00-0008-00.png,0002-00-0001-94.png
00000009,273,1,1442932708880,1442932708916,866,410,0,0,0,3,1,2,31,0003-00-0004-67.png,0001-00-0000-12.png
00000009,274,1,1442932710064,1442932710100,863,416,0,0,0,5,3,2,53,0005-00-0008-73.png,0003-00-0000-05.png
00000009,275,1,1442932711325,1442932712586,1062,285,0,0,0,5,4,1,54,0005-00-0003-32.png,0004-00-0008-37.png
00000009,276,1,1442932713720,1442932713767,864,462,0,0,0,4,2,2,42,0004-00-0000-00.png,0002-00-0008-82.png
00000009,277,1,1442932714873,1442932716247,1068,305,0,0,0,5,2,3,52,0005-00-0007-75.png,0002-00-0000-09.png
00000009,278,1,1442932717308,1442932717364,878,494,0,0,0,5,1,4,51,0005-00-0005-77.png,0001-00-0002-79.png
00000009,279,0,1442932718430,1442932718564,858,433,0,0,0,1,3,2,13,0001-00-0006-17.png,0003-00-0000-57.png
00000009,280,1,1442932721531,1442932722198,406,378,0,0,0,1,4,3,14,0001-00-0002-70.png,0004-00-0004-84.png
00000009,281,1,1442932723148,1442932723256,888,541,0,0,0,2,1,1,21,0002-00-0004-06.png,0001-00-0000-48.png
00000009,282,0,1442932724263,1442932724319,861,474,0,0,0,2,4,2,24,0002-00-0003-24.png,0004-00-0002-81.png
00000009,283,0,1442932727573,1442932728185,504,394,0,0,0,3,1,2,31,0003-00-0009-23.png,0001-00-0002-91.png
00000009,284,0,1442932731130,1442932731154,914,352,0,0,0,1,3,2,13,0001-00-0007-16.png,0003-00-0000-89.png
00000009,285,0,1442932734289,1442932734932,989,355,0,0,0,2,5,3,25,0002-00-0008-46.png,0005-00-0004-47.png
00000009,286,1,1442932737778,1442932738517,964,365,0,0,0,4,1,3,41,0004-00-0000-53.png,0001-00-0008-61.png
00000009,287,0,1442932739474,1442932739526,913,436,0,0,0,3,4,1,34,0003-00-0006-35.png,0004-00-0003-69.png
00000009,288,1,1442932742925,1442932743524,1090,305,0,0,0,3,2,1,32,0003-00-0007-81.png,0002-00-0002-06.png
00000009,289,1,1442932744508,1442932744572,904,494,0,0,0,5,3,2,53,0005-00-0001-99.png,0003-00-0009-56.png
00000009,290,1,1442932745496,1442932745562,869,456,0,0,0,4,3,1,43,0004-00-0003-11.png,0003-00-0008-74.png
00000009,291,0,1442932746721,1442932747756,1042,275,0,0,0,1,2,1,12,0001-00-0004-86.png,0002-00-0000-68.png
00000009,292,1,1442932750986,1442932751718,1092,270,0,0,0,5,2,3,52,0005-00-0000-67.png,0002-00-0003-86.png
00000009,293,0,1442932753299,1442932753461,905,462,0,0,0,1,4,3,14,0001-00-0003-01.png,0004-00-0004-45.png
00000009,294,1,1442932756340,1442932756991,423,373,0,0,0,3,5,2,35,0003-00-0004-75.png,0005-00-0001-49.png
00000009,295,0,1442932758459,1442932758515,924,442,0,0,0,4,5,1,45,0004-00-0006-20.png,0005-00-0004-60.png
00000009,296,1,1442932761684,1442932762497,417,373,0,0,0,2,3,1,23,0002-00-0000-29.png,0003-00-0000-87.png
00000009,297,1,1442932763416,1442932763420,869,462,0,0,0,4,2,2,42,0004-00-0001-36.png,0002-00-0007-13.png
00000009,298,1,1442932764471,1442932764527,889,481,0,0,0,5,4,1,54,0005-00-0001-41.png,0004-00-0004-07.png
00000009,299,1,1442932765623,1442932765659,892,456,0,0,0,5,1,4,51,0005-00-0000-29.png,0001-00-0002-52.png
00000009,300,0,1442932767268,1442932767328,877,541,0,0,0,1,5,4,15,0001-00-0001-03.png,0005-00-0008-54.png
00000009,301,1,1442932770423,1442932771160,400,382,0,0,0,3,4,1,34,0003-00-0002-76.png,0004-00-0003-06.png
00000009,302,1,1442932772148,1442932773433,972,323,0,0,0,5,4,1,54,0005-00-0007-86.png,0004-00-0008-98.png
00000009,303,1,1442932774577,1442932774601,948,390,0,0,0,4,3,1,43,0004-00-0007-01.png,0003-00-0006-48.png
00000009,304,0,1442932775768,1442932775832,858,447,0,0,0,2,3,1,23,0002-00-0006-75.png,0003-00-0009-36.png
00000009,305,1,1442932778968,1442932779756,935,346,0,0,0,4,2,2,42,0004-00-0005-66.png,0002-00-0008-51.png
00000009,306,0,1442932780797,1442932780841,921,410,0,0,0,1,3,2,13,0001-00-0009-91.png,0003-00-0005-05.png
00000009,307,0,1442932783958,1442932784649,411,400,0,0,0,2,1,1,21,0002-00-0000-16.png,0001-00-0005-23.png
00000009,308,1,1442932787840,1442932788439,968,344,0,0,0,5,2,3,52,0005-00-0005-97.png,0002-00-0000-21.png
00000009,309,0,1442932789472,1442932789532,990,462,0,0,0,1,2,1,12,0001-00-0004-08.png,0002-00-0000-52.png
00000009,310,1,1442932793287,1442932794197,505,267,0,0,0,4,5,1,45,0004-00-0004-97.png,0005-00-0004-34.png
00000009,311,0,1442932795186,1442932795709,952,554,0,0,0,2,5,3,25,0002-00-0003-45.png,0005-00-0002-97.png
00000009,312,1,1442932799409,1442932800004,1069,323,0,0,0,4,1,3,41,0004-00-0009-92.png,0001-00-0003-17.png
00000009,313,1,1442932801039,1442932801128,928,444,0,0,0,3,2,1,32,0003-00-0009-86.png,0002-00-0003-11.png
00000009,314,1,1442932802170,1442932802238,870,438,0,0,0,3,1,2,31,0003-00-0000-89.png,0001-00-0002-32.png
00000009,315,0,1442932803272,1442932803308,873,407,0,0,0,3,5,2,35,0003-00-0007-41.png,0005-00-0007-54.png
00000009,316,1,1442932806742,1442932807577,988,385,0,0,0,5,3,2,53,0005-00-0008-11.png,0003-00-0001-41.png
00000009,317,0,1442932808602,1442932808634,894,402,0,0,0,2,4,2,24,0002-00-0007-16.png,0004-00-0002-19.png
00000009,318,0,1442932811632,1442932812737,377,356,0,0,0,5,1,4,51,0005-00-0003-49.png,0001-00-0000-12.png
00000009,319,1,1442932815637,1442932816318,395,393,0,0,0,1,5,4,15,0001-00-0007-85.png,0005-00-0009-82.png
00000009,320,0,1442932817289,1442932817313,873,415,0,0,0,1,4,3,14,0001-00-0008-96.png,0004-00-0004-73.png
00000009,321,1,1442932820962,1442932821594,930,363,0,0,0,3,2,1,32,0003-00-0008-56.png,0002-00-0000-58.png
00000009,322,1,1442932822621,1442932822701,921,429,0,0,0,5,4,1,54,0005-00-0001-23.png,0004-00-0003-47.png
00000009,323,0,1442932823633,1442932825132,1092,279,0,0,0,1,2,1,12,0001-00-0003-60.png,0002-00-0001-39.png
00000009,324,1,1442932828475,1442932829185,1084,313,0,0,0,2,1,1,21,0002-00-0008-19.png,0001-00-0007-37.png
00000009,325,0,1442932830085,1442932830599,927,528,0,0,0,3,5,2,35,0003-00-0009-43.png,0005-00-0002-85.png
00000009,326,1,1442932833892,1442932834599,413,373,0,0,0,1,5,4,15,0001-00-0002-54.png,0005-00-0001-14.png
00000009,327,0,1442932835621,1442932835693,862,462,0,0,0,2,3,1,23,0002-00-0008-28.png,0003-00-0002-36.png
00000009,328,1,1442932838660,1442932839281,414,366,0,0,0,1,4,3,14,0001-00-0000-66.png,0004-00-0007-73.png
00000009,329,0,1442932840351,1442932840355,944,501,0,0,0,4,5,1,45,0004-00-0002-37.png,0005-00-0006-12.png
00000009,330,1,1442932843344,1442932843376,880,391,0,0,0,4,2,2,42,0004-00-0007-10.png,0002-00-0000-25.png
00000009,331,1,1442932844585,1442932845051,901,554,0,0,0,5,2,3,52,0005-00-0009-70.png,0002-00-0003-88.png
00000009,332,1,1442932846185,1442932846209,863,458,0,0,0,4,3,1,43,0004-00-0000-71.png,0003-00-0004-23.png
00000009,333,1,1442932847413,1442932847481,861,500,0,0,0,3,1,2,31,0003-00-0004-12.png,0001-00-0003-36.png
00000009,334,0,1442932848591,1442932848664,862,451,0,0,0,2,5,3,25,0002-00-0009-32.png,0005-00-0003-54.png
00000009,335,1,1442932851937,1442932852601,914,366,0,0,0,4,1,3,41,0004-00-0003-96.png,0001-00-0008-76.png
00000009,336,0,1442932854356,1442932855412,401,371,0,0,0,5,3,2,53,0005-00-0000-57.png,0003-00-0006-68.png
00000009,337,1,1442932858694,1442932859350,435,351,0,0,0,2,4,2,24,0002-00-0001-28.png,0004-00-0006-43.png
00000009,338,0,1442932860294,1442932860330,857,411,0,0,0,1,3,2,13,0001-00-0009-07.png,0003-00-0008-54.png
00000009,339,1,1442932863333,1442932864220,940,348,0,0,0,5,1,4,51,0005-00-0007-82.png,0001-00-0001-10.png
00000009,340,0,1442932865283,1442932865398,905,523,0,0,0,3,4,1,34,0003-00-0001-37.png,0004-00-0002-51.png
00000009,341,1,1442932868395,1442932869040,958,355,0,0,0,3,1,2,31,0003-00-0004-00.png,0001-00-0002-75.png
00000009,342,1,1442932869951,1442932871450,419,337,0,0,0,1,4,3,14,0001-00-0006-16.png,0004-00-0006-14.png
00000009,343,0,1442932872396,1442932872432,879,410,0,0,0,1,3,2,13,0001-00-0003-80.png,0003-00-0009-67.png
00000009,344,1,1442932875837,1442932876862,1109,304,0,0,0,5,1,4,51,0005-00-0002-90.png,0001-00-0009-16.png
00000009,345,1,1442932877872,1442932877920,897,436,0,0,0,5,4,1,54,0005-00-0001-06.png,0004-00-0008-12.png
00000009,346,1,1442932879021,1442932880543,1063,280,0,0,0,4,2,2,42,0004-00-0005-73.png,0002-00-0000-93.png
00000009,347,1,1442932882257,1442932882382,925,462,0,0,0,5,3,2,53,0005-00-0001-75.png,0003-00-0004-98.png
00000009,348,0,1442932883398,1442932883474,859,460,0,0,0,3,5,2,35,0003-00-0006-61.png,0005-00-0008-67.png
00000009,349,0,1442932886618,1442932886722,986,270,0,0,0,2,5,3,25,0002-00-0002-92.png,0005-00-0002-03.png
00000009,350,0,1442932889877,1442932890550,995,357,0,0,0,2,3,1,23,0002-00-0001-29.png,0003-00-0001-77.png
00000009,351,0,1442932893772,1442932894417,940,358,0,0,0,1,2,1,12,0001-00-0002-84.png,0002-00-0003-86.png
00000009,352,1,1442932897658,1442932898262,414,365,0,0,0,4,5,1,45,0004-00-0007-25.png,0005-00-0008-29.png
00000009,353,0,1442932899278,1442932900669,965,325,0,0,0,3,4,1,34,0003-00-0004-50.png,0004-00-0006-51.png
00000009,354,0,1442932903888,1442932904993,469,256,0,0,0,4,3,1,43,0004-00-0003-82.png,0003-00-0009-83.png
00000009,355,1,1442932908311,1442932908986,1044,334,0,0,0,5,2,3,52,0005-00-0000-15.png,0002-00-0005-32.png
00000009,356,0,1442932910677,1442932910701,861,410,0,0,0,1,5,4,15,0001-00-0008-02.png,0005-00-0000-21.png
00000009,357,0,1442932913857,1442932914480,511,270,0,0,0,2,1,1,21,0002-00-0001-94.png,0001-00-0002-09.png
00000009,358,1,1442932917322,1442932918051,963,340,0,0,0,4,1,3,41,0004-00-0007-80.png,0001-00-0007-00.png
00000009,359,0,1442932919037,1442932919087,859,478,0,0,0,2,4,2,24,0002-00-0009-99.png,0004-00-0006-44.png
00000009,360,1,1442932921966,1442932922010,913,485,0,0,0,3,2,1,32,0003-00-0004-23.png,0002-00-0002-36.png
00000009,361,0,1442932923673,1442932923721,859,434,0,0,0,3,4,1,34,0003-00-0008-74.png,0004-00-0000-50.png
00000009,362,1,1442932926914,1442932927590,495,281,0,0,0,1,3,2,13,0001-00-0001-72.png,0003-00-0001-00.png
00000009,363,0,1442932928571,1442932928619,879,462,0,0,0,3,5,2,35,0003-00-0009-19.png,0005-00-0002-79.png
00000009,364,1,1442932932300,1442932932327,883,363,0,0,0,4,2,2,42,0004-00-0006-05.png,0002-00-0005-14.png
00000009,365,1,1442932934227,1442932934382,863,502,0,0,0,5,4,1,54,0005-00-0006-50.png,0004-00-0008-52.png
00000009,366,0,1442932935559,1442932935587,864,414,0,0,0,1,4,3,14,0001-00-0006-81.png,0004-00-0000-12.png
00000009,367,1,1442932938829,1442932938853,888,332,0,0,0,5,3,2,53,0005-00-0005-65.png,0003-00-0006-96.png
00000009,368,1,1442932939899,1442932941527,490,251,0,0,0,2,3,1,23,0002-00-0005-23.png,0003-00-0007-27.png
00000009,369,1,1442932942554,1442932943938,934,329,0,0,0,5,1,4,51,0005-00-0005-14.png,0001-00-0004-34.png
00000009,370,1,1442932945020,1442932945076,888,516,0,0,0,3,2,1,32,0003-00-0004-93.png,0002-00-0007-42.png
00000009,371,1,1442932946080,1442932946136,888,488,0,0,0,3,1,2,31,0003-00-0009-19.png,0001-00-0007-96.png
00000009,372,1,1442932947472,1442932947492,864,459,0,0,0,4,3,1,43,0004-00-0007-10.png,0003-00-0002-34.png
00000009,373,0,1442932948665,1442932948701,864,451,0,0,0,4,5,1,45,0004-00-0007-78.png,0005-00-0009-64.png
00000009,374,0,1442932951826,1442932952490,918,371,0,0,0,2,4,2,24,0002-00-0008-79.png,0004-00-0000-93.png
00000009,375,1,1442932955708,1442932956817,459,257,0,0,0,1,5,4,15,0001-00-0009-60.png,0005-00-0000-81.png
00000009,376,1,1442932957818,1442932957963,872,508,0,0,0,2,1,1,21,0002-00-0008-56.png,0001-00-0007-10.png
00000009,377,0,1442932959049,1442932960536,936,326,0,0,0,1,2,1,12,0001-00-0003-40.png,0002-00-0004-23.png
00000009,378,1,1442932963610,1442932964573,1016,420,0,0,0,5,2,3,52,0005-00-0001-95.png,0002-00-0007-62.png
00000009,379,1,1442932965696,1442932965743,893,401,0,0,0,4,1,3,41,0004-00-0005-69.png,0001-00-0000-31.png
00000009,380,0,1442932966727,1442932967304,900,554,0,0,0,2,5,3,25,0002-00-0003-09.png,0005-00-0009-46.png
00000009,381,1,1442933003906,1442933004668,352,348,0,0,0,2,4,2,24,0002-00-0008-85.png,0004-00-0005-53.png
00000009,382,0,1442933005707,1442933007014,898,351,0,0,0,2,3,1,23,0002-00-0000-95.png,0003-00-0006-85.png
00000009,383,1,1442933009991,1442933010586,1044,310,0,0,0,3,2,1,32,0003-00-0006-06.png,0002-00-0008-30.png
00000009,384,0,1442933011527,1442933011576,876,524,0,0,0,3,4,1,34,0003-00-0009-58.png,0004-00-0003-56.png
00000009,385,0,1442933014701,1442933015281,515,279,0,0,0,5,3,2,53,0005-00-0002-80.png,0003-00-0009-53.png
00000009,386,1,1442933018556,1442933019279,1072,336,0,0,0,4,3,1,43,0004-00-0007-45.png,0003-00-0002-06.png
00000009,387,1,1442933020235,1442933020303,902,445,0,0,0,5,4,1,54,0005-00-0000-74.png,0004-00-0007-68.png
00000009,388,0,1442933021397,1442933021465,906,487,0,0,0,2,5,3,25,0002-00-0009-19.png,0005-00-0002-40.png
00000009,389,1,1442933024809,1442933025591,375,371,0,0,0,1,2,1,12,0001-00-0002-62.png,0002-00-0009-99.png
00000009,390,0,1442933026585,1442933026624,865,419,0,0,0,1,5,4,15,0001-00-0008-87.png,0005-00-0006-37.png
00000009,391,1,1442933029697,1442933030530,990,341,0,0,0,4,1,3,41,0004-00-0008-96.png,0001-00-0000-98.png
00000009,392,1,1442933031566,1442933031650,892,492,0,0,0,5,2,3,52,0005-00-0002-68.png,0002-00-0007-89.png
00000009,393,1,1442933032738,1442933033886,920,338,0,0,0,4,2,2,42,0004-00-0009-36.png,0002-00-0004-88.png
00000009,394,0,1442933034957,1442933035087,870,553,0,0,0,1,3,2,13,0001-00-0003-81.png,0003-00-0005-60.png
00000009,395,1,1442933038398,1442933039066,1095,310,0,0,0,2,1,1,21,0002-00-0007-90.png,0001-00-0004-67.png
00000009,396,0,1442933040023,1442933040067,904,460,0,0,0,1,4,3,14,0001-00-0001-36.png,0004-00-0004-60.png
00000009,397,0,1442933044473,1442933044498,861,367,0,0,0,4,5,1,45,0004-00-0006-99.png,0005-00-0004-86.png
00000009,398,1,1442933047951,1442933048665,1023,351,0,0,0,3,1,2,31,0003-00-0000-64.png,0001-00-0004-16.png
00000009,399,1,1442933049629,1442933049705,884,471,0,0,0,5,1,4,51,0005-00-0001-58.png,0001-00-0009-97.png
00000009,400,0,1442933050703,1442933051765,922,341,0,0,0,3,5,2,35,0003-00-0004-74.png,0005-00-0007-75.png
00000009,401,1,1442933054900,1442933055529,1092,306,0,0,0,5,1,4,51,0005-00-0009-26.png,0001-00-0008-94.png
00000009,402,1,1442933056509,1442933057803,963,338,0,0,0,3,1,2,31,0003-00-0005-55.png,0001-00-0007-15.png
00000009,403,0,1442933058904,1442933058980,960,471,0,0,0,2,4,2,24,0002-00-0000-92.png,0004-00-0005-01.png
00000009,404,1,1442933062398,1442933062432,881,355,0,0,0,4,1,3,41,0004-00-0005-35.png,0001-00-0007-83.png
00000009,405,0,1442933063474,1442933063546,862,488,0,0,0,1,4,3,14,0001-00-0002-84.png,0004-00-0000-77.png
00000009,406,0,1442933066743,1442933066767,885,332,0,0,0,4,5,1,45,0004-00-0004-85.png,0005-00-0009-89.png
00000009,407,1,1442933070409,1442933071274,993,305,0,0,0,4,3,1,43,0004-00-0007-84.png,0003-00-0008-41.png
00000009,408,1,1442933072158,1442933072256,929,462,0,0,0,5,3,2,53,0005-00-0001-44.png,0003-00-0001-66.png
00000009,409,0,1442933073111,1442933073139,870,466,0,0,0,3,4,1,34,0003-00-0009-35.png,0004-00-0008-45.png
00000009,410,1,1442933076650,1442933077282,391,398,0,0,0,2,5,3,25,0002-00-0000-71.png,0005-00-0009-56.png
00000009,411,0,1442933078993,1442933079095,904,462,0,0,0,2,3,1,23,0002-00-0006-03.png,0003-00-0007-09.png
00000009,412,1,1442933082799,1442933082815,501,462,0,0,0,1,5,4,15,0001-00-0000-95.png,0005-00-0004-48.png
00000009,413,0,1442933083975,1442933084031,862,485,0,0,0,1,2,1,12,0001-00-0003-15.png,0002-00-0001-69.png
00000009,414,1,1442933087254,1442933087835,965,355,0,0,0,3,2,1,32,0003-00-0004-43.png,0002-00-0000-23.png
00000009,415,0,1442933089467,1442933089504,916,410,0,0,0,1,3,2,13,0001-00-0006-37.png,0003-00-0009-04.png
00000009,416,1,1442933092689,1442933093610,430,371,0,0,0,3,5,2,35,0003-00-0002-52.png,0005-00-0005-31.png
00000009,417,1,1442933094636,1442933094756,899,526,0,0,0,5,4,1,54,0005-00-0009-84.png,0004-00-0009-67.png
00000009,418,1,1442933095719,1442933097316,937,316,0,0,0,2,1,1,21,0002-00-0008-16.png,0001-00-0005-32.png
00000009,419,1,1442933098483,1442933098579,880,513,0,0,0,4,2,2,42,0004-00-0003-78.png,0002-00-0000-49.png
00000009,420,1,1442933099783,1442933099858,876,458,0,0,0,5,2,3,52,0005-00-0002-61.png,0002-00-0005-11.png
00000009,421,1,1442933101076,1442933101144,883,544,0,0,0,5,4,1,54,0005-00-0005-17.png,0004-00-0007-54.png
00000009,422,0,1442933102050,1442933103745,514,279,0,0,0,4,2,2,42,0004-00-0007-05.png,0002-00-0007-61.png
00000009,423,1,1442933107258,1442933108158,922,356,0,0,0,2,1,1,21,0002-00-0008-36.png,0001-00-0006-45.png
00000009,424,0,1442933109135,1442933109286,862,557,0,0,0,1,3,2,13,0001-00-0009-50.png,0003-00-0000-38.png
00000009,425,1,1442933112314,1442933112992,412,392,0,0,0,2,3,1,23,0002-00-0001-73.png,0003-00-0001-77.png
00000009,426,1,1442933114025,1442933115486,495,253,0,0,0,1,4,3,14,0001-00-0007-39.png,0004-00-0003-31.png
00000009,427,1,1442933116569,1442933117857,422,404,0,0,0,2,4,2,24,0002-00-0002-49.png,0004-00-0003-97.png
00000009,428,1,1442933119451,1442933119559,862,453,0,0,0,3,2,1,32,0003-00-0006-44.png,0002-00-0002-73.png
00000009,429,0,1442933120553,1442933120609,879,458,0,0,0,3,5,2,35,0003-00-0004-64.png,0005-00-0001-48.png
00000009,430,1,1442933209543,1442933209551,478,358,0,0,0,2,5,3,25,0002-00-0006-16.png,0005-00-0003-62.png
00000009,431,1,1442933211035,1442933211206,978,503,0,0,0,3,1,2,31,0003-00-0002-89.png,0001-00-0003-10.png
00000009,432,0,1442933212139,1442933212159,857,435,0,0,0,1,2,1,12,0001-00-0003-34.png,0002-00-0002-29.png
00000009,433,0,1442933215010,1442933215799,476,275,0,0,0,4,3,1,43,0004-00-0004-06.png,0003-00-0003-79.png
00000009,434,0,1442933218764,1442933219423,974,361,0,0,0,4,5,1,45,0004-00-0001-04.png,0005-00-0005-57.png
00000009,435,0,1442933222332,1442933222971,407,388,0,0,0,5,1,4,51,0005-00-0005-45.png,0001-00-0007-42.png
00000009,436,1,1442933225983,1442933226986,1102,299,0,0,0,5,3,2,53,0005-00-0009-17.png,0003-00-0001-38.png
00000009,437,1,1442933227901,1442933227937,868,450,0,0,0,4,1,3,41,0004-00-0002-70.png,0001-00-0003-40.png
00000009,438,0,1442933228842,1442933228910,869,408,0,0,0,3,4,1,34,0003-00-0001-18.png,0004-00-0004-07.png
00000009,439,1,1442933232154,1442933232162,956,323,0,0,0,5,2,3,52,0005-00-0000-89.png,0002-00-0001-12.png
00000009,440,0,1442933233068,1442933233112,871,429,0,0,0,1,5,4,15,0001-00-0001-61.png,0005-00-0000-55.png
00000009,441,1,1442933236357,1442933237018,505,253,0,0,0,2,3,1,23,0002-00-0005-89.png,0003-00-0001-46.png
00000009,442,1,1442933237852,1442933238988,372,368,0,0,0,2,5,3,25,0002-00-0003-08.png,0005-00-0003-31.png
00000009,443,0,1442933240104,1442933240140,882,437,0,0,0,1,3,2,13,0001-00-0001-67.png,0003-00-0004-37.png
00000009,444,1,1442933243242,1442933243999,433,325,0,0,0,3,4,1,34,0003-00-0007-04.png,0004-00-0006-74.png
00000009,445,1,1442933244941,1442933245009,873,481,0,0,0,4,2,2,42,0004-00-0008-97.png,0002-00-0006-68.png
00000009,446,1,1442933245975,1442933247498,380,357,0,0,0,3,5,2,35,0003-00-0002-93.png,0005-00-0008-51.png
00000009,447,1,1442933248490,1442933248566,888,446,0,0,0,3,2,1,32,0003-00-0008-26.png,0002-00-0003-58.png
00000009,448,1,1442933249729,1442933251096,940,341,0,0,0,5,3,2,53,0005-00-0005-74.png,0003-00-0003-05.png
00000009,449,1,1442933252157,1442933252213,905,440,0,0,0,5,1,4,51,0005-00-0004-72.png,0001-00-0005-44.png
00000009,450,0,1442933254173,1442933254209,888,384,0,0,0,2,4,2,24,0002-00-0004-85.png,0004-00-0003-76.png
00000009,451,1,1442933257084,1442933257703,480,284,0,0,0,1,4,3,14,0001-00-0003-91.png,0004-00-0006-41.png
00000009,452,1,1442933258583,1442933258690,884,459,0,0,0,4,3,1,43,0004-00-0002-78.png,0003-00-0003-57.png
00000009,453,1,1442933260126,1442933260254,877,541,0,0,0,2,1,1,21,0002-00-0001-21.png,0001-00-0007-04.png
00000009,454,1,1442933261127,1442933262500,1067,285,0,0,0,4,1,3,41,0004-00-0006-48.png,0001-00-0003-52.png
00000009,455,0,1442933263604,1442933263628,867,455,0,0,0,1,5,4,15,0001-00-0009-73.png,0005-00-0000-35.png
00000009,456,1,1442933266822,1442933267839,961,347,0,0,0,5,4,1,54,0005-00-0003-96.png,0004-00-0009-55.png
00000009,457,0,1442933269546,1442933269623,920,434,0,0,0,1,2,1,12,0001-00-0007-95.png,0002-00-0009-28.png
00000009,458,1,1442933272775,1442933273375,395,359,0,0,0,4,5,1,45,0004-00-0002-69.png,0005-00-0003-14.png
00000009,459,1,1442933274315,1442933274399,913,514,0,0,0,5,2,3,52,0005-00-0007-86.png,0002-00-0007-70.png
00000009,460,1,1442933275308,1442933276540,942,350,0,0,0,3,1,2,31,0003-00-0001-03.png,0001-00-0002-42.png
00000009,461,1,1442933277515,1442933277535,863,364,0,0,0,4,2,2,42,0004-00-0007-03.png,0002-00-0005-61.png
00000009,462,1,1442933278357,1442933278800,862,541,0,0,0,2,1,1,21,0002-00-0001-76.png,0001-00-0005-83.png
00000009,463,1,1442933280038,1442933280142,939,541,0,0,0,5,2,3,52,0005-00-0005-40.png,0002-00-0006-09.png
00000009,464,0,1442933281688,1442933281772,880,454,0,0,0,2,4,2,24,0002-00-0001-24.png,0004-00-0009-15.png
00000009,465,1,1442933284900,1442933285606,970,346,0,0,0,5,4,1,54,0005-00-0001-39.png,0004-00-0009-82.png
00000009,466,0,1442933286663,1442933286716,924,462,0,0,0,1,2,1,12,0001-00-0003-54.png,0002-00-0000-39.png
00000009,467,0,1442933289546,1442933290500,967,325,0,0,0,4,5,1,45,0004-00-0008-96.png,0005-00-0003-40.png
00000009,468,1,1442933293435,1442933294194,504,256,0,0,0,3,5,2,35,0003-00-0008-99.png,0005-00-0009-40.png
00000009,469,1,1442933295323,1442933295774,979,529,0,0,0,4,1,3,41,0004-00-0002-82.png,0001-00-0004-08.png
00000009,470,0,1442933296992,1442933297068,920,429,0,0,0,1,5,4,15,0001-00-0005-56.png,0005-00-0002-58.png
00000009,471,1,1442933300192,1442933300824,481,269,0,0,0,1,3,2,13,0001-00-0002-22.png,0003-00-0004-56.png
00000009,472,0,1442933302240,1442933302308,900,384,0,0,0,2,5,3,25,0002-00-0007-26.png,0005-00-0007-15.png
00000009,473,1,1442933305538,1442933305703,999,330,0,0,0,3,1,2,31,0003-00-0003-40.png,0001-00-0008-33.png
00000009,474,1,1442933306876,1442933306896,943,388,0,0,0,5,3,2,53,0005-00-0006-39.png,0003-00-0002-02.png
00000009,475,1,1442933307803,1442933308257,939,552,0,0,0,3,2,1,32,0003-00-0003-58.png,0002-00-0004-33.png
00000009,476,0,1442933309582,1442933309650,922,462,0,0,0,3,4,1,34,0003-00-0009-83.png,0004-00-0006-90.png
00000009,477,1,1442933312922,1442933313951,464,267,0,0,0,1,4,3,14,0001-00-0003-35.png,0004-00-0003-32.png
00000009,478,1,1442933315406,1442933315478,944,401,0,0,0,4,3,1,43,0004-00-0004-14.png,0003-00-0002-50.png
00000009,479,1,1442933316378,1442933316426,880,445,0,0,0,5,1,4,51,0005-00-0003-52.png,0001-00-0002-67.png
00000009,480,0,1442933317768,1442933317849,877,504,0,0,0,2,3,1,23,0002-00-0003-09.png,0003-00-0008-42.png
00000009,481,1,1442933320947,1442933321629,1066,323,0,0,0,4,2,2,42,0004-00-0000-88.png,0002-00-0000-26.png
00000009,482,1,1442933322727,1442933322739,941,351,0,0,0,3,1,2,31,0003-00-0002-12.png,0001-00-0001-02.png
00000009,483,0,1442933323622,1442933324083,939,552,0,0,0,3,4,1,34,0003-00-0005-73.png,0004-00-0007-82.png
00000009,484,1,1442933330322,1442933330883,483,276,0,0,0,1,5,4,15,0001-00-0003-19.png,0005-00-0000-17.png
00000009,485,0,1442933331962,1442933331990,911,421,0,0,0,1,3,2,13,0001-00-0000-01.png,0003-00-0008-18.png
00000009,486,1,1442933335079,1442933335679,382,364,0,0,0,1,4,3,14,0001-00-0002-44.png,0004-00-0007-11.png
00000009,487,1,1442933336681,1442933336709,881,442,0,0,0,2,1,1,21,0002-00-0000-77.png,0001-00-0008-34.png
00000009,488,1,1442933337775,1442933337849,954,548,0,0,0,4,1,3,41,0004-00-0006-88.png,0001-00-0003-40.png
00000009,489,0,1442933339067,1442933339115,926,488,0,0,0,3,5,2,35,0003-00-0003-79.png,0005-00-0008-99.png
00000009,490,1,1442933342713,1442933343374,887,362,0,0,0,5,3,2,53,0005-00-0002-07.png,0003-00-0007-16.png
00000009,491,1,1442933344460,1442933344512,961,444,0,0,0,4,3,1,43,0004-00-0006-21.png,0003-00-0003-80.png
00000009,492,0,1442933345495,1442933346045,875,528,0,0,0,2,3,1,23,0002-00-0008-24.png,0003-00-0004-76.png
00000009,493,0,1442933349669,1442933350285,434,377,0,0,0,5,4,1,54,0005-00-0008-72.png,0004-00-0008-70.png
00000009,494,1,1442933356088,1442933356780,1069,326,0,0,0,5,1,4,51,0005-00-0006-27.png,0001-00-0003-25.png
00000009,495,0,1442933357898,1442933357963,928,488,0,0,0,4,5,1,45,0004-00-0001-55.png,0005-00-0008-55.png
00000009,496,1,1442933361016,1442933361548,503,280,0,0,0,2,4,2,24,0002-00-0006-89.png,0004-00-0001-21.png
00000009,497,0,1442933362600,1442933362656,929,496,0,0,0,1,2,1,12,0001-00-0004-46.png,0002-00-0009-65.png
00000009,498,1,1442933365837,1442933366488,403,357,0,0,0,2,5,3,25,0002-00-0008-48.png,0005-00-0002-12.png
00000009,499,1,1442933367526,1442933367574,880,442,0,0,0,5,2,3,52,0005-00-0001-67.png,0002-00-0006-39.png
00000009,500,1,1442933368728,1442933368784,932,431,0,0,0,3,2,1,32,0003-00-0008-52.png,0002-00-0002-21.png
00000009,501,0,1442933369882,1442933370057,924,551,0,0,0,2,5,3,25,0002-00-0002-84.png,0005-00-0001-01.png
00000009,502,0,1442933381460,1442933381468,890,437,0,0,0,3,5,2,35,0003-00-0001-03.png,0005-00-0006-06.png
00000009,503,1,1442933384901,1442933385507,1040,330,0,0,0,5,1,4,51,0005-00-0007-76.png,0001-00-0009-49.png
00000009,504,0,1442933386660,1442933386724,913,488,0,0,0,1,3,2,13,0001-00-0002-79.png,0003-00-0004-45.png
00000009,505,1,1442933389920,1442933390183,885,333,0,0,0,3,2,1,32,0003-00-0001-66.png,0002-00-0000-06.png
00000009,506,0,1442933391330,1442933391366,862,436,0,0,0,2,3,1,23,0002-00-0006-02.png,0003-00-0009-74.png
00000009,507,1,1442933394768,1442933395376,1072,309,0,0,0,4,1,3,41,0004-00-0005-91.png,0001-00-0002-49.png
00000009,508,1,1442933396418,1442933396466,895,455,0,0,0,5,3,2,53,0005-00-0002-07.png,0003-00-0008-77.png
00000009,509,1,1442933397647,1442933398815,414,263,0,0,0,1,5,4,15,0001-00-0001-34.png,0005-00-0001-71.png
00000009,510,1,1442933399876,1442933399932,925,474,0,0,0,4,3,1,43,0004-00-0003-78.png,0003-00-0001-13.png
00000009,511,1,1442933401176,1442933401236,873,474,0,0,0,5,4,1,54,0005-00-0005-76.png,0004-00-0006-47.png
00000009,512,1,1442933402332,1442933403540,1026,279,0,0,0,5,2,3,52,0005-00-0000-29.png,0002-00-0002-08.png
00000009,513,1,1442933404696,1442933404712,887,447,0,0,0,4,2,2,42,0004-00-0009-74.png,0002-00-0008-88.png
00000009,514,1,1442933405809,1442933406701,455,288,0,0,0,1,4,3,14,0001-00-0005-75.png,0004-00-0005-57.png
00000009,515,1,1442933407717,1442933407753,880,399,0,0,0,2,1,1,21,0002-00-0009-37.png,0001-00-0004-37.png
00000009,516,1,1442933408849,1442933409972,470,266,0,0,0,3,4,1,34,0003-00-0003-25.png,0004-00-0001-89.png
00000009,517,0,1442933411058,1442933411094,913,506,0,0,0,2,4,2,24,0002-00-0002-58.png,0004-00-0003-80.png
00000009,518,1,1442933414115,1442933414732,380,414,0,0,0,1,2,1,12,0001-00-0007-17.png,0002-00-0008-46.png
00000009,519,1,1442933415763,1442933415811,869,434,0,0,0,3,1,2,31,0003-00-0000-47.png,0001-00-0000-26.png
00000009,520,1,1442933416759,1442933418208,483,258,0,0,0,4,5,1,45,0004-00-0002-64.png,0005-00-0004-43.png
00000009,521,0,1442933419333,1442933419414,862,541,0,0,0,1,5,4,15,0001-00-0009-00.png,0005-00-0002-68.png
00000009,522,0,1442933423796,1442933423979,862,394,0,0,0,2,5,3,25,0002-00-0000-80.png,0005-00-0008-53.png
00000009,523,1,1442933428545,1442933429157,970,358,0,0,0,3,2,1,32,0003-00-0001-71.png,0002-00-0002-65.png
00000009,524,0,1442933430251,1442933430710,952,554,0,0,0,2,4,2,24,0002-00-0002-57.png,0004-00-0002-21.png
00000009,525,1,1442933433851,1442933434435,491,274,0,0,0,3,5,2,35,0003-00-0005-35.png,0005-00-0007-89.png
00000009,526,0,1442933435510,1442933435514,871,338,0,0,0,4,5,1,45,0004-00-0006-57.png,0005-00-0004-97.png
00000009,527,1,1442933438541,1442933438559,506,522,0,0,0,3,4,1,34,0003-00-0008-10.png,0004-00-0001-99.png
00000009,528,1,1442933439754,1442933440864,462,268,0,0,0,2,3,1,23,0002-00-0001-30.png,0003-00-0005-46.png
00000009,529,1,1442933441970,1442933442496,874,553,0,0,0,5,1,4,51,0005-00-0001-26.png,0001-00-0006-37.png
00000009,530,1,1442933443669,1442933443756,922,488,0,0,0,3,1,2,31,0003-00-0007-96.png,0001-00-0007-05.png
00000009,531,0,1442933444599,1442933444672,899,436,0,0,0,1,4,3,14,0001-00-0004-59.png,0004-00-0002-05.png
00000009,532,0,1442933447949,1442933448625,488,296,0,0,0,5,3,2,53,0005-00-0005-45.png,0003-00-0006-56.png
00000009,533,1,1442933705258,1442933705825,950,332,0,0,0,4,3,1,43,0004-00-0003-75.png,0003-00-0003-19.png
00000009,534,0,1442933708122,1442933708179,994,361,0,0,0,1,3,2,13,0001-00-0008-55.png,0003-00-0005-13.png
00000009,535,1,1442933711301,1442933712079,992,314,0,0,0,5,4,1,54,0005-00-0006-59.png,0004-00-0005-39.png
00000009,536,0,1442933713789,1442933713829,958,418,0,0,0,1,2,1,12,0001-00-0006-84.png,0002-00-0003-38.png
00000009,537,0,1442933716788,1442933717463,351,398,0,0,0,2,1,1,21,0002-00-0006-60.png,0001-00-0008-21.png
00000009,538,1,1442933720652,1442933721244,969,334,0,0,0,4,2,2,42,0004-00-0005-78.png,0002-00-0005-43.png
00000009,539,1,1442933722186,1442933722252,936,489,0,0,0,5,2,3,52,0005-00-0003-80.png,0002-00-0001-65.png
00000009,540,1,1442933723289,1442933723301,873,473,0,0,0,4,1,3,41,0004-00-0006-92.png,0001-00-0007-58.png
00000009,541,0,1442933724540,1442933724596,939,453,0,0,0,1,5,4,15,0001-00-0003-06.png,0005-00-0006-33.png
00000009,542,1,1442933727771,1442933728474,1020,335,0,0,0,3,2,1,32,0003-00-0001-72.png,0002-00-0005-88.png
00000009,543,0,1442933729600,1442933729636,993,442,0,0,0,2,3,1,23,0002-00-0007-62.png,0003-00-0004-48.png
00000009,544,0,1442933732799,1442933733532,453,307,0,0,0,4,3,1,43,0004-00-0009-09.png,0003-00-0006-99.png
00000009,545,0,1442933736702,1442933737199,983,314,0,0,0,2,4,2,24,0002-00-0008-29.png,0004-00-0008-19.png
00000009,546,1,1442933740600,1442933741292,417,432,0,0,0,1,2,1,12,0001-00-0003-49.png,0002-00-0006-87.png
00000009,547,1,1442933742489,1442933742517,939,402,0,0,0,2,1,1,21,0002-00-0000-66.png,0001-00-0007-34.png
00000009,548,0,1442933744493,1442933744525,950,446,0,0,0,3,4,1,34,0003-00-0007-34.png,0004-00-0001-94.png
00000009,549,1,1442933834844,1442933838203,987,377,0,0,0,5,3,2,53,0005-00-0001-58.png,0003-00-0005-30.png
