subject_id,trial,correct_response,stim_time,response_time,x_coord,y_coord,trial_timeout,timeout_time,interTrial_timeout,left_rank,right_rank,distance,joint_rank,left_image,right_image
00000014,1,1,1442499892652,1442499893057,359,360,0,0,0,1,2,1,12,0001-00-0004-72.png,0002-00-0002-56.png
00000014,2,0,1442499894114,1442499894530,377,375,0,0,0,5,3,2,53,0005-00-0006-93.png,0003-00-0005-71.png
00000014,3,1,1442499896009,1442499896385,376,436,0,0,0,1,5,4,15,0001-00-0007-90.png,0005-00-0004-54.png
00000014,4,0,1442499897322,1442499897753,383,480,0,0,0,2,1,1,21,0002-00-0007-78.png,0001-00-0009-62.png
00000014,5,1,1442499899190,1442499899704,343,513,0,0,0,2,5,3,25,0002-00-0006-07.png,0005-00-0006-46.png
00000014,6,0,1442499900672,1442499901157,952,409,0,0,0,3,4,1,34,0003-00-0007-45.png,0004-00-0006-91.png
00000014,7,1,1442499903568,1442499903945,401,410,0,0,0,1,4,3,14,0001-00-0001-81.png,0004-00-0000-72.png
00000014,8,0,1442499904814,1442499905218,401,450,0,0,0,5,4,1,54,0005-00-0005-94.png,0004-00-0009-82.png
00000014,9,1,1442499908420,1442499908881,400,436,0,0,0,4,5,1,45,0004-00-0001-45.png,0005-00-0000-67.png
00000014,10,1,1442499909718,1442499910243,924,490,0,0,0,3,2,1,32,0003-00-0009-16.png,0002-00-0005-77.png
00000014,11,1,1442499911425,1442499911834,930,402,0,0,0,5,1,4,51,0005-00-0005-21.png,0001-00-0003-06.png
00000014,12,1,1442499913022,1442499913485,341,429,0,0,0,2,3,1,23,0002-00-0002-45.png,0003-00-0000-29.png
00000014,13,0,1442499914694,1442499915082,376,410,0,0,0,4,3,1,43,0004-00-0001-60.png,0003-00-0005-80.png
00000014,14,0,1442499917108,1442499917542,273,449,0,0,0,3,1,2,31,0003-00-0004-42.png,0001-00-0003-74.png
00000014,15,1,1442499921050,1442499921562,945,429,0,0,0,4,1,3,41,0004-00-0005-17.png,0001-00-0009-65.png
00000014,16,1,1442499922555,1442499922952,409,445,0,0,0,1,3,2,13,0001-00-0004-27.png,0003-00-0009-89.png
00000014,17,1,1442499923818,1442499924367,877,491,0,0,0,4,2,2,42,0004-00-0008-43.png,0002-00-0009-40.png
00000014,18,0,1442499925546,1442499925981,338,410,0,0,0,5,2,3,52,0005-00-0003-03.png,0002-00-0005-42.png
00000014,19,0,1442499929343,1442499929848,900,515,0,0,0,3,5,2,35,0003-00-0006-83.png,0005-00-0004-52.png
00000014,20,1,1442499932960,1442499933367,401,436,0,0,0,2,4,2,24,0002-00-0001-29.png,0004-00-0001-83.png
00000014,21,1,1442499934593,1442499935104,900,412,0,0,0,5,3,2,53,0005-00-0001-24.png,0003-00-0000-75.png
00000014,22,1,1442499935981,1442499936005,486,493,0,0,0,1,4,3,14,0001-00-0000-06.png,0004-00-0006-12.png
00000014,23,1,1442499937242,1442499937691,401,436,0,0,0,1,2,1,12,0001-00-0008-06.png,0002-00-0005-96.png
00000014,24,1,1442499945618,1442499946004,401,346,0,0,0,1,5,4,15,0001-00-0004-90.png,0005-00-0004-29.png
00000014,25,1,1442499947089,1442499947531,313,449,0,0,0,2,3,1,23,0002-00-0004-72.png,0003-00-0009-60.png
00000014,26,1,1442499948519,1442499948971,354,429,0,0,0,4,5,1,45,0004-00-0000-81.png,0005-00-0000-28.png
00000014,27,1,1442499950358,1442499950991,349,394,0,0,0,1,3,2,13,0001-00-0001-46.png,0003-00-0005-94.png
00000014,28,1,1442499954483,1442499954881,374,423,0,0,0,2,4,2,24,0002-00-0000-65.png,0004-00-0003-46.png
00000014,29,0,1442499957286,1442499957784,879,427,0,0,0,2,5,3,25,0002-00-0001-00.png,0005-00-0007-74.png
00000014,30,1,1442499965321,1442499965875,906,489,0,0,0,5,4,1,54,0005-00-0002-94.png,0004-00-0007-62.png
00000014,31,1,1442499967326,1442499967881,899,491,0,0,0,5,2,3,52,0005-00-0009-88.png,0002-00-0006-85.png
00000014,32,1,1442499969758,1442499970358,900,502,0,0,0,4,2,2,42,0004-00-0006-31.png,0002-00-0001-44.png
00000014,33,0,1442499971827,1442499972315,938,423,0,0,0,3,4,1,34,0003-00-0003-51.png,0004-00-0006-48.png
00000014,34,1,1442499976125,1442499976711,905,367,0,0,0,4,3,1,43,0004-00-0002-32.png,0003-00-0007-59.png
00000014,35,0,1442499977962,1442499978839,393,402,0,0,0,5,1,4,51,0005-00-0000-25.png,0001-00-0006-23.png
00000014,36,0,1442499980447,1442499980915,365,475,0,0,0,4,1,3,41,0004-00-0008-98.png,0001-00-0001-15.png
00000014,37,0,1442499985616,1442499986107,936,470,0,0,0,3,5,2,35,0003-00-0002-00.png,0005-00-0001-78.png
00000014,38,0,1442499988103,1442499988527,248,531,0,0,0,3,1,2,31,0003-00-0002-57.png,0001-00-0000-89.png
00000014,39,1,1442499991290,1442499991734,940,447,0,0,0,3,2,1,32,0003-00-0008-49.png,0002-00-0006-59.png
00000014,40,1,1442499992989,1442499993558,895,472,0,0,0,2,1,1,21,0002-00-0005-07.png,0001-00-0004-71.png
00000014,41,0,1442499994660,1442499995139,352,397,0,0,0,5,2,3,52,0005-00-0006-04.png,0002-00-0001-03.png
00000014,42,0,1442499997791,1442499997807,518,436,0,0,0,3,2,1,32,0003-00-0003-13.png,0002-00-0009-35.png
00000014,43,1,1442500001159,1442500001592,896,419,0,0,0,4,3,1,43,0004-00-0003-37.png,0003-00-0002-40.png
00000014,44,0,1442500002787,1442500003328,903,464,0,0,0,2,5,3,25,0002-00-0006-18.png,0005-00-0007-56.png
00000014,45,1,1442500006250,1442500006734,317,427,0,0,0,2,3,1,23,0002-00-0002-95.png,0003-00-0009-90.png
00000014,46,0,1442500007730,1442500008399,925,414,0,0,0,2,4,2,24,0002-00-0000-96.png,0004-00-0002-37.png
00000014,47,0,1442500012999,1442500013494,970,467,0,0,0,3,4,1,34,0003-00-0004-62.png,0004-00-0003-40.png
00000014,48,0,1442500015401,1442500015911,880,350,0,0,0,1,2,1,12,0001-00-0006-19.png,0002-00-0004-63.png
00000014,49,1,1442500017551,1442500018166,862,386,0,0,0,3,1,2,31,0003-00-0006-00.png,0001-00-0002-25.png
00000014,50,1,1442500019668,1442500020338,928,410,0,0,0,4,1,3,41,0004-00-0009-91.png,0001-00-0009-98.png
00000014,51,0,1442500021575,1442500022128,928,417,0,0,0,1,3,2,13,0001-00-0000-73.png,0003-00-0004-81.png
00000014,52,0,1442500023425,1442500023991,397,429,0,0,0,5,3,2,53,0005-00-0005-49.png,0003-00-0001-73.png
00000014,53,1,1442500026650,1442500027060,343,404,0,0,0,3,5,2,35,0003-00-0003-51.png,0005-00-0004-30.png
00000014,54,0,1442500028132,1442500028899,350,449,0,0,0,5,1,4,51,0005-00-0007-31.png,0001-00-0009-87.png
00000014,55,1,1442500030269,1442500030723,908,527,0,0,0,5,4,1,54,0005-00-0001-16.png,0004-00-0007-35.png
00000014,56,0,1442500032080,1442500032546,299,396,0,0,0,2,1,1,21,0002-00-0003-64.png,0001-00-0008-34.png
00000014,57,1,1442500034099,1442500034574,311,449,0,0,0,1,4,3,14,0001-00-0008-97.png,0004-00-0005-71.png
00000014,58,0,1442500035803,1442500036304,900,398,0,0,0,4,5,1,45,0004-00-0005-54.png,0005-00-0006-59.png
00000014,59,0,1442500037547,1442500038020,905,445,0,0,0,1,5,4,15,0001-00-0008-76.png,0005-00-0005-00.png
00000014,60,0,1442500039931,1442500040551,272,405,0,0,0,4,2,2,42,0004-00-0004-49.png,0002-00-0002-89.png
00000014,61,0,1442500042527,1442500043042,340,466,0,0,0,2,1,1,21,0002-00-0006-44.png,0001-00-0006-43.png
00000014,62,0,1442500045893,1442500046457,273,424,0,0,0,3,1,2,31,0003-00-0006-89.png,0001-00-0006-46.png
00000014,63,1,1442500048073,1442500048543,248,488,0,0,0,1,4,3,14,0001-00-0007-85.png,0004-00-0006-89.png
00000014,64,1,1442500050146,1442500050609,904,401,0,0,0,3,2,1,32,0003-00-0007-91.png,0002-00-0005-12.png
00000014,65,1,1442500051869,1442500052617,353,379,0,0,0,4,5,1,45,0004-00-0006-37.png,0005-00-0002-86.png
00000014,66,0,1442500053937,1442500054427,903,416,0,0,0,1,5,4,15,0001-00-0008-10.png,0005-00-0009-56.png
00000014,67,0,1442500056472,1442500056948,913,423,0,0,0,2,4,2,24,0002-00-0007-78.png,0004-00-0009-71.png
00000014,68,1,1442500059058,1442500059482,361,410,0,0,0,1,3,2,13,0001-00-0009-66.png,0003-00-0005-65.png
00000014,69,0,1442500060585,1442500061234,888,369,0,0,0,3,5,2,35,0003-00-0002-64.png,0005-00-0003-40.png
00000014,70,0,1442500064136,1442500065034,413,411,0,0,0,4,2,2,42,0004-00-0000-72.png,0002-00-0001-40.png
00000014,71,0,1442500066279,1442500066783,336,396,0,0,0,4,1,3,41,0004-00-0009-45.png,0001-00-0006-81.png
00000014,72,0,1442500068242,1442500069147,362,424,0,0,0,5,3,2,53,0005-00-0009-20.png,0003-00-0001-74.png
00000014,73,1,1442500070497,1442500070979,909,491,0,0,0,5,4,1,54,0005-00-0000-03.png,0004-00-0002-92.png
00000014,74,0,1442500072078,1442500072592,925,371,0,0,0,3,4,1,34,0003-00-0005-28.png,0004-00-0008-02.png
00000014,75,0,1442500073816,1442500074301,326,424,0,0,0,5,1,4,51,0005-00-0003-05.png,0001-00-0009-05.png
00000014,76,0,1442500076445,1442500076912,874,398,0,0,0,2,5,3,25,0002-00-0003-60.png,0005-00-0008-81.png
00000014,77,0,1442500078092,1442500078619,898,457,0,0,0,2,3,1,23,0002-00-0001-42.png,0003-00-0006-86.png
00000014,78,1,1442500081107,1442500081585,896,471,0,0,0,4,3,1,43,0004-00-0009-22.png,0003-00-0007-82.png
00000014,79,1,1442500082662,1442500083215,940,386,0,0,0,5,2,3,52,0005-00-0008-19.png,0002-00-0006-29.png
00000014,80,1,1442500084481,1442500084996,364,517,0,0,0,1,2,1,12,0001-00-0004-44.png,0002-00-0007-30.png
00000014,81,1,1442500086172,1442500086697,902,390,0,0,0,5,4,1,54,0005-00-0007-76.png,0004-00-0005-76.png
00000014,82,0,1442500088110,1442500088633,922,381,0,0,0,2,5,3,25,0002-00-0001-58.png,0005-00-0008-40.png
00000014,83,1,1442500089978,1442500090493,927,371,0,0,0,5,3,2,53,0005-00-0005-93.png,0003-00-0001-26.png
00000014,84,1,1442500091619,1442500092150,880,375,0,0,0,3,1,2,31,0003-00-0003-93.png,0001-00-0004-98.png
00000014,85,1,1442500093486,1442500093973,347,411,0,0,0,1,2,1,12,0001-00-0007-86.png,0002-00-0001-53.png
00000014,86,0,1442500095146,1442500095746,350,430,0,0,0,2,1,1,21,0002-00-0002-36.png,0001-00-0009-60.png
00000014,87,1,1442500097331,1442500097816,306,427,0,0,0,1,5,4,15,0001-00-0006-28.png,0005-00-0009-39.png
00000014,88,1,1442500099023,1442500099583,905,375,0,0,0,3,2,1,32,0003-00-0003-61.png,0002-00-0003-92.png
00000014,89,1,1442500100953,1442500101447,894,393,0,0,0,4,3,1,43,0004-00-0008-82.png,0003-00-0002-69.png
00000014,90,1,1442500102822,1442500103359,891,414,0,0,0,5,2,3,52,0005-00-0009-29.png,0002-00-0008-41.png
00000014,91,1,1442500104695,1442500105200,310,410,0,0,0,1,4,3,14,0001-00-0003-07.png,0004-00-0009-32.png
00000014,92,0,1442500106449,1442500107017,878,361,0,0,0,3,4,1,34,0003-00-0006-51.png,0004-00-0008-12.png
00000014,93,1,1442500108491,1442500109025,376,410,0,0,0,2,3,1,23,0002-00-0002-81.png,0003-00-0002-44.png
00000014,94,1,1442500110094,1442500111050,313,397,0,0,0,3,5,2,35,0003-00-0008-31.png,0005-00-0007-74.png
00000014,95,0,1442500112460,1442500113006,874,385,0,0,0,1,3,2,13,0001-00-0004-24.png,0003-00-0002-26.png
00000014,96,1,1442500114382,1442500114942,882,383,0,0,0,4,1,3,41,0004-00-0004-91.png,0001-00-0000-59.png
00000014,97,1,1442500116091,1442500116664,877,388,0,0,0,4,2,2,42,0004-00-0002-59.png,0002-00-0002-64.png
00000014,98,1,1442500118049,1442500118572,316,414,0,0,0,2,4,2,24,0002-00-0004-93.png,0004-00-0005-05.png
00000014,99,1,1442500119768,1442500120821,414,462,0,0,0,4,5,1,45,0004-00-0009-04.png,0005-00-0002-31.png
00000014,100,0,1442500122021,1442500123692,474,430,0,0,0,5,1,4,51,0005-00-0005-39.png,0001-00-0006-86.png
00000014,101,1,1442500125443,1442500125994,360,419,0,0,0,2,5,3,25,0002-00-0000-66.png,0005-00-0007-48.png
00000014,102,0,1442500127085,1442500127627,376,410,0,0,0,4,1,3,41,0004-00-0008-93.png,0001-00-0001-51.png
00000014,103,0,1442500128574,1442500129071,924,398,0,0,0,3,4,1,34,0003-00-0005-95.png,0004-00-0009-71.png
00000014,104,0,1442500131070,1442500131565,307,445,0,0,0,4,3,1,43,0004-00-0001-27.png,0003-00-0006-36.png
00000014,105,0,1442500133406,1442500133930,385,387,0,0,0,5,2,3,52,0005-00-0009-02.png,0002-00-0001-13.png
00000014,106,1,1442500135191,1442500135689,885,411,0,0,0,2,1,1,21,0002-00-0006-28.png,0001-00-0005-66.png
00000014,107,1,1442500136734,1442500137279,876,382,0,0,0,5,1,4,51,0005-00-0003-85.png,0001-00-0005-11.png
00000014,108,1,1442500138473,1442500139016,879,401,0,0,0,3,1,2,31,0003-00-0009-01.png,0001-00-0007-87.png
00000014,109,0,1442500140274,1442500140805,354,418,0,0,0,4,2,2,42,0004-00-0005-94.png,0002-00-0009-39.png
00000014,110,1,1442500141994,1442500142508,414,423,0,0,0,4,5,1,45,0004-00-0006-60.png,0005-00-0007-16.png
00000014,111,1,1442500143653,1442500144207,301,447,0,0,0,1,3,2,13,0001-00-0004-59.png,0003-00-0000-26.png
00000014,112,1,1442500145413,1442500145990,350,450,0,0,0,1,4,3,14,0001-00-0009-43.png,0004-00-0002-26.png
00000014,113,1,1442500147153,1442500147664,388,462,0,0,0,2,4,2,24,0002-00-0002-08.png,0004-00-0006-65.png
00000014,114,0,1442500148772,1442500149872,379,443,0,0,0,5,3,2,53,0005-00-0004-62.png,0003-00-0001-69.png
00000014,115,1,1442500151298,1442500151832,380,456,0,0,0,3,5,2,35,0003-00-0005-10.png,0005-00-0003-32.png
00000014,116,0,1442500152935,1442500153503,875,365,0,0,0,2,3,1,23,0002-00-0008-54.png,0003-00-0001-29.png
00000014,117,0,1442500154834,1442500155360,875,493,0,0,0,1,2,1,12,0001-00-0005-01.png,0002-00-0003-55.png
00000014,118,1,1442500157211,1442500157704,890,421,0,0,0,5,4,1,54,0005-00-0007-55.png,0004-00-0007-37.png
00000014,119,0,1442500158881,1442500159841,384,402,0,0,0,3,2,1,32,0003-00-0006-15.png,0002-00-0000-19.png
00000014,120,1,1442500160918,1442500161459,320,446,0,0,0,1,5,4,15,0001-00-0009-61.png,0005-00-0003-48.png
00000014,121,0,1442500162528,1442500163028,349,423,0,0,0,4,2,2,42,0004-00-0000-50.png,0002-00-0006-63.png
00000014,122,1,1442500164178,1442500164724,426,558,0,0,0,1,2,1,12,0001-00-0009-52.png,0002-00-0007-11.png
00000014,123,1,1442500165788,1442500166348,879,401,0,0,0,5,3,2,53,0005-00-0001-58.png,0003-00-0007-58.png
00000014,124,1,1442500167517,1442500168082,879,376,0,0,0,5,1,4,51,0005-00-0002-27.png,0001-00-0003-11.png
00000014,125,1,1442500169187,1442500169742,894,389,0,0,0,2,1,1,21,0002-00-0006-43.png,0001-00-0003-91.png
00000014,126,1,1442500171215,1442500171781,879,402,0,0,0,5,2,3,52,0005-00-0000-87.png,0002-00-0004-68.png
00000014,127,1,1442500173287,1442500173839,901,384,0,0,0,3,2,1,32,0003-00-0001-33.png,0002-00-0008-38.png
00000014,128,0,1442500175326,1442500175871,877,415,0,0,0,2,5,3,25,0002-00-0001-12.png,0005-00-0007-14.png
00000014,129,0,1442500177010,1442500177503,357,418,0,0,0,4,3,1,43,0004-00-0003-96.png,0003-00-0008-25.png
00000014,130,0,1442500179823,1442500180364,874,484,0,0,0,2,4,2,24,0002-00-0008-37.png,0004-00-0003-29.png
00000014,131,1,1442500181591,1442500182096,888,384,0,0,0,3,1,2,31,0003-00-0009-31.png,0001-00-0001-76.png
00000014,132,0,1442500183262,1442500183791,877,362,0,0,0,4,5,1,45,0004-00-0004-99.png,0005-00-0000-19.png
00000014,133,1,1442500185149,1442500185185,507,442,0,0,0,3,4,1,34,0003-00-0005-41.png,0004-00-0009-63.png
00000014,134,1,1442500186393,1442500186955,901,398,0,0,0,4,1,3,41,0004-00-0003-11.png,0001-00-0006-49.png
00000014,135,0,1442500188241,1442500188745,876,398,0,0,0,1,4,3,14,0001-00-0000-17.png,0004-00-0001-36.png
00000014,136,0,1442500190113,1442500190635,880,377,0,0,0,3,5,2,35,0003-00-0005-53.png,0005-00-0005-39.png
00000014,137,1,1442500191790,1442500191814,507,477,0,0,0,1,3,2,13,0001-00-0009-11.png,0003-00-0000-69.png
00000014,138,1,1442500193102,1442500194115,365,390,0,0,0,2,3,1,23,0002-00-0002-70.png,0003-00-0007-06.png
00000014,139,1,1442500195478,1442500196051,411,494,0,0,0,1,5,4,15,0001-00-0008-96.png,0005-00-0006-08.png
00000014,140,1,1442500197247,1442500197791,879,375,0,0,0,5,4,1,54,0005-00-0000-49.png,0004-00-0009-90.png
00000014,141,1,1442500199522,1442500200033,876,398,0,0,0,5,4,1,54,0005-00-0004-87.png,0004-00-0001-99.png
00000014,142,0,1442500201411,1442500202449,381,402,0,0,0,4,2,2,42,0004-00-0005-16.png,0002-00-0004-29.png
00000014,143,1,1442500203650,1442500204582,394,401,0,0,0,3,5,2,35,0003-00-0000-72.png,0005-00-0004-00.png
00000014,144,1,1442500205740,1442500206247,376,410,0,0,0,1,3,2,13,0001-00-0007-76.png,0003-00-0002-12.png
00000014,145,0,1442500207403,1442500208085,416,540,0,0,0,4,3,1,43,0004-00-0009-49.png,0003-00-0005-63.png
00000014,146,1,1442500209045,1442500209561,932,375,0,0,0,3,2,1,32,0003-00-0007-49.png,0002-00-0007-15.png
00000014,147,0,1442500210834,1442500211348,900,397,0,0,0,2,3,1,23,0002-00-0001-36.png,0003-00-0007-09.png
00000014,148,1,1442500212334,1442500212897,401,384,0,0,0,2,5,3,25,0002-00-0003-71.png,0005-00-0005-08.png
00000014,149,0,1442500214013,1442500214541,369,447,0,0,0,4,1,3,41,0004-00-0002-92.png,0001-00-0007-71.png
00000014,150,1,1442500215493,1442500216072,925,381,0,0,0,5,3,2,53,0005-00-0006-29.png,0003-00-0000-64.png
00000014,151,1,1442500217185,1442500217696,336,423,0,0,0,1,4,3,14,0001-00-0008-02.png,0004-00-0006-83.png
00000014,152,1,1442500218825,1442500219327,401,423,0,0,0,1,5,4,15,0001-00-0000-98.png,0005-00-0009-87.png
00000014,153,1,1442500220595,1442500221594,416,386,0,0,0,4,5,1,45,0004-00-0006-99.png,0005-00-0004-35.png
00000014,154,1,1442500222765,1442500223404,325,413,0,0,0,3,4,1,34,0003-00-0005-35.png,0004-00-0002-73.png
00000014,155,1,1442500224510,1442500225088,871,366,0,0,0,5,1,4,51,0005-00-0000-82.png,0001-00-0008-55.png
00000014,156,0,1442500226323,1442500227407,858,470,0,0,0,2,4,2,24,0002-00-0008-67.png,0004-00-0001-48.png
00000014,157,1,1442500228527,1442500229060,877,367,0,0,0,3,1,2,31,0003-00-0004-04.png,0001-00-0003-80.png
00000014,158,1,1442500230213,1442500230771,878,391,0,0,0,2,1,1,21,0002-00-0008-35.png,0001-00-0004-95.png
00000014,159,1,1442500231994,1442500232546,349,443,0,0,0,1,2,1,12,0001-00-0002-51.png,0002-00-0004-30.png
00000014,160,1,1442500233609,1442500235412,921,524,0,0,0,5,2,3,52,0005-00-0009-97.png,0002-00-0004-92.png
00000014,161,1,1442500236646,1442500237147,387,410,0,0,0,2,3,1,23,0002-00-0003-43.png,0003-00-0006-82.png
00000014,162,1,1442500238326,1442500238893,335,424,0,0,0,1,4,3,14,0001-00-0008-50.png,0004-00-0002-58.png
00000014,163,1,1442500240146,1442500241179,416,422,0,0,0,3,4,1,34,0003-00-0000-06.png,0004-00-0000-28.png
00000014,164,0,1442500242312,1442500242872,887,398,0,0,0,4,5,1,45,0004-00-0008-86.png,0005-00-0006-67.png
00000014,165,1,1442500243962,1442500244428,880,402,0,0,0,3,2,1,32,0003-00-0006-42.png,0002-00-0000-87.png
00000014,166,1,1442500245682,1442500246228,341,442,0,0,0,1,3,2,13,0001-00-0007-74.png,0003-00-0000-96.png
00000014,167,0,1442500247322,1442500248548,427,410,0,0,0,4,3,1,43,0004-00-0002-19.png,0003-00-0005-45.png
00000014,168,1,1442500250095,1442500250571,862,411,0,0,0,2,1,1,21,0002-00-0007-66.png,0001-00-0001-69.png
00000014,169,1,1442500251644,1442500252190,884,403,0,0,0,4,1,3,41,0004-00-0008-45.png,0001-00-0004-31.png
00000014,170,1,1442500253346,1442500253921,882,393,0,0,0,5,3,2,53,0005-00-0004-68.png,0003-00-0009-82.png
00000014,171,1,1442500254986,1442500255564,875,383,0,0,0,5,2,3,52,0005-00-0000-74.png,0002-00-0003-29.png
00000014,172,0,1442500256794,1442500257359,879,402,0,0,0,2,4,2,24,0002-00-0000-13.png,0004-00-0007-75.png
00000014,173,0,1442500258421,1442500258958,427,436,0,0,0,4,2,2,42,0004-00-0002-11.png,0002-00-0003-85.png
00000014,174,1,1442500260413,1442500260880,879,401,0,0,0,5,1,4,51,0005-00-0002-12.png,0001-00-0007-12.png
00000014,175,1,1442500261972,1442500262516,901,384,0,0,0,5,4,1,54,0005-00-0002-95.png,0004-00-0002-33.png
00000014,176,1,1442500263704,1442500264616,376,423,0,0,0,2,5,3,25,0002-00-0008-29.png,0005-00-0007-65.png
00000014,177,0,1442500265681,1442500266305,879,350,0,0,0,1,2,1,12,0001-00-0004-94.png,0002-00-0007-17.png
00000014,178,1,1442500267530,1442500268040,879,418,0,0,0,3,1,2,31,0003-00-0008-46.png,0001-00-0001-85.png
00000014,179,1,1442500269139,1442500269654,338,446,0,0,0,1,5,4,15,0001-00-0009-11.png,0005-00-0007-32.png
00000014,180,1,1442500270868,1442500271375,401,436,0,0,0,3,5,2,35,0003-00-0003-86.png,0005-00-0008-15.png
00000014,181,1,1442500272508,1442500273074,911,398,0,0,0,5,2,3,52,0005-00-0004-83.png,0002-00-0000-28.png
00000014,182,1,1442500274416,1442500274939,887,399,0,0,0,3,1,2,31,0003-00-0004-90.png,0001-00-0000-73.png
00000014,183,0,1442500276177,1442500276701,902,413,0,0,0,2,3,1,23,0002-00-0007-74.png,0003-00-0002-26.png
00000014,184,0,1442500278207,1442500278753,417,456,0,0,0,4,3,1,43,0004-00-0007-51.png,0003-00-0000-94.png
00000014,185,1,1442500281335,1442500281836,378,420,0,0,0,2,4,2,24,0002-00-0005-88.png,0004-00-0009-10.png
00000014,186,1,1442500282936,1442500283825,318,400,0,0,0,1,3,2,13,0001-00-0007-79.png,0003-00-0004-54.png
00000014,187,1,1442500284960,1442500285436,897,380,0,0,0,2,1,1,21,0002-00-0001-21.png,0001-00-0006-07.png
00000014,188,1,1442500286634,1442500287085,376,423,0,0,0,2,5,3,25,0002-00-0002-95.png,0005-00-0001-89.png
00000014,189,0,1442500288224,1442500288773,348,416,0,0,0,5,3,2,53,0005-00-0001-29.png,0003-00-0002-62.png
00000014,190,1,1442500289811,1442500290315,421,416,0,0,0,3,5,2,35,0003-00-0004-23.png,0005-00-0000-93.png
00000014,191,1,1442500291295,1442500291861,874,488,0,0,0,5,1,4,51,0005-00-0006-35.png,0001-00-0002-90.png
00000014,192,1,1442500293095,1442500293628,877,417,0,0,0,4,1,3,41,0004-00-0002-15.png,0001-00-0004-14.png
00000014,193,1,1442500294819,1442500295293,401,410,0,0,0,1,2,1,12,0001-00-0006-09.png,0002-00-0004-44.png
00000014,194,0,1442500296425,1442500296956,395,566,0,0,0,4,2,2,42,0004-00-0005-05.png,0002-00-0006-49.png
00000014,195,0,1442500298342,1442500298822,878,414,0,0,0,4,5,1,45,0004-00-0005-55.png,0005-00-0002-47.png
00000014,196,1,1442500300002,1442500300447,880,400,0,0,0,3,2,1,32,0003-00-0006-22.png,0002-00-0006-01.png
00000014,197,0,1442500301522,1442500302094,869,394,0,0,0,3,4,1,34,0003-00-0001-65.png,0004-00-0000-39.png
00000014,198,1,1442500303361,1442500303844,878,414,0,0,0,5,4,1,54,0005-00-0003-34.png,0004-00-0001-38.png
00000014,199,1,1442500304941,1442500305873,435,394,0,0,0,1,5,4,15,0001-00-0008-10.png,0005-00-0005-92.png
00000014,200,1,1442500306947,1442500307438,363,419,0,0,0,1,4,3,14,0001-00-0000-15.png,0004-00-0003-29.png
00000014,201,0,1442500308669,1442500309244,901,410,0,0,0,1,2,1,12,0001-00-0001-56.png,0002-00-0006-95.png
00000014,202,1,1442500310408,1442500310911,918,389,0,0,0,5,4,1,54,0005-00-0003-95.png,0004-00-0000-37.png
00000014,203,1,1442500312017,1442500312582,886,398,0,0,0,2,1,1,21,0002-00-0009-96.png,0001-00-0001-23.png
00000014,204,1,1442500313858,1442500314416,869,497,0,0,0,4,2,2,42,0004-00-0004-70.png,0002-00-0001-31.png
00000014,205,0,1442500315745,1442500316340,427,410,0,0,0,5,3,2,53,0005-00-0007-13.png,0003-00-0008-17.png
00000014,206,1,1442500317425,1442500317930,338,435,0,0,0,1,4,3,14,0001-00-0003-86.png,0004-00-0000-91.png
00000014,207,0,1442500319135,1442500319679,881,408,0,0,0,3,5,2,35,0003-00-0001-78.png,0005-00-0000-71.png
00000014,208,1,1442500320565,1442500321032,419,428,0,0,0,2,5,3,25,0002-00-0008-57.png,0005-00-0003-64.png
00000014,209,0,1442500322097,1442500322664,859,425,0,0,0,2,3,1,23,0002-00-0008-83.png,0003-00-0008-27.png
00000014,210,1,1442500323909,1442500324413,878,416,0,0,0,3,2,1,32,0003-00-0005-04.png,0002-00-0000-39.png
00000014,211,0,1442500325596,1442500326532,366,434,0,0,0,5,1,4,51,0005-00-0009-18.png,0001-00-0002-87.png
00000014,212,0,1442500327463,1442500327479,504,453,0,0,0,3,1,2,31,0003-00-0009-09.png,0001-00-0005-65.png
00000014,213,0,1442500330097,1442500330635,376,358,0,0,0,4,1,3,41,0004-00-0008-73.png,0001-00-0007-35.png
00000014,214,0,1442500331918,1442500332398,862,422,0,0,0,2,4,2,24,0002-00-0007-99.png,0004-00-0001-73.png
00000014,215,1,1442500333925,1442500334401,363,423,0,0,0,1,3,2,13,0001-00-0005-80.png,0003-00-0006-52.png
00000014,216,1,1442500335467,1442500336388,426,384,0,0,0,4,5,1,45,0004-00-0002-60.png,0005-00-0000-52.png
00000014,217,0,1442500337456,1442500338037,877,390,0,0,0,3,4,1,34,0003-00-0000-53.png,0004-00-0000-98.png
00000014,218,0,1442500339949,1442500340435,331,438,0,0,0,5,2,3,52,0005-00-0006-20.png,0002-00-0002-67.png
00000014,219,1,1442500341837,1442500342290,427,436,0,0,0,1,5,4,15,0001-00-0008-48.png,0005-00-0008-02.png
00000014,220,1,1442500343382,1442500343923,876,410,0,0,0,4,3,1,43,0004-00-0000-36.png,0003-00-0000-13.png
00000014,221,1,1442500345077,1442500345968,335,437,0,0,0,2,4,2,24,0002-00-0009-26.png,0004-00-0007-65.png
00000014,222,1,1442500347094,1442500347624,340,447,0,0,0,2,5,3,25,0002-00-0004-88.png,0005-00-0007-58.png
00000014,223,1,1442500348767,1442500349322,872,485,0,0,0,5,1,4,51,0005-00-0002-48.png,0001-00-0002-77.png
00000014,224,1,1442500350487,1442500350985,880,401,0,0,0,4,3,1,43,0004-00-0001-32.png,0003-00-0005-75.png
00000014,225,0,1442500352118,1442500352648,879,401,0,0,0,3,4,1,34,0003-00-0002-36.png,0004-00-0002-51.png
00000014,226,0,1442500354590,1442500355095,248,527,0,0,0,4,2,2,42,0004-00-0003-40.png,0002-00-0007-24.png
00000014,227,0,1442500356746,1442500357850,919,472,0,0,0,1,3,2,13,0001-00-0003-94.png,0003-00-0000-90.png
00000014,228,1,1442500359115,1442500359556,873,507,0,0,0,3,1,2,31,0003-00-0005-65.png,0001-00-0004-48.png
00000014,229,1,1442500360614,1442500361611,952,383,0,0,0,3,2,1,32,0003-00-0001-56.png,0002-00-0005-98.png
00000014,230,1,1442500362721,1442500363261,352,438,0,0,0,2,3,1,23,0002-00-0006-90.png,0003-00-0005-98.png
00000014,231,1,1442500364411,1442500364908,376,410,0,0,0,1,5,4,15,0001-00-0003-07.png,0005-00-0006-50.png
00000014,232,0,1442500366081,1442500366986,401,384,0,0,0,4,1,3,41,0004-00-0004-27.png,0001-00-0007-02.png
00000014,233,1,1442500369490,1442500370036,913,398,0,0,0,5,3,2,53,0005-00-0000-29.png,0003-00-0009-47.png
00000014,234,1,1442500371331,1442500372146,413,528,0,0,0,4,5,1,45,0004-00-0004-27.png,0005-00-0001-13.png
00000014,235,0,1442500373476,1442500373990,874,385,0,0,0,3,5,2,35,0003-00-0006-44.png,0005-00-0008-36.png
00000014,236,1,1442500375415,1442500376493,344,436,0,0,0,1,4,3,14,0001-00-0005-98.png,0004-00-0008-67.png
00000014,237,1,1442500377591,1442500378119,873,535,0,0,0,2,1,1,21,0002-00-0006-11.png,0001-00-0003-84.png
00000014,238,1,1442500379321,1442500379743,394,488,0,0,0,1,2,1,12,0001-00-0009-65.png,0002-00-0008-38.png
00000014,239,1,1442500380861,1442500381400,878,414,0,0,0,5,2,3,52,0005-00-0003-97.png,0002-00-0001-26.png
00000014,240,0,1442500382581,1442500383086,410,471,0,0,0,5,4,1,54,0005-00-0006-60.png,0004-00-0003-07.png
00000014,241,1,1442500385166,1442500385685,877,441,0,0,0,5,4,1,54,0005-00-0002-61.png,0004-00-0009-84.png
00000014,242,1,1442500386803,1442500387357,376,436,0,0,0,2,4,2,24,0002-00-0005-15.png,0004-00-0000-12.png
00000014,243,0,1442500388498,1442500389036,350,452,0,0,0,5,1,4,51,0005-00-0003-05.png,0001-00-0007-73.png
00000014,244,1,1442500390329,1442500390812,389,538,0,0,0,3,4,1,34,0003-00-0000-58.png,0004-00-0008-53.png
00000014,245,1,1442500391896,1442500392441,363,436,0,0,0,1,4,3,14,0001-00-0000-64.png,0004-00-0009-03.png
00000014,246,1,1442500393612,1442500394580,440,480,0,0,0,2,3,1,23,0002-00-0008-99.png,0003-00-0005-64.png
00000014,247,1,1442500395563,1442500396147,878,416,0,0,0,4,2,2,42,0004-00-0002-32.png,0002-00-0007-65.png
00000014,248,1,1442500397480,1442500398115,401,413,0,0,0,2,5,3,25,0002-00-0000-38.png,0005-00-0004-85.png
00000014,249,1,1442500399275,1442500399856,876,415,0,0,0,3,2,1,32,0003-00-0007-75.png,0002-00-0009-38.png
00000014,250,1,1442500401806,1442500402247,384,454,0,0,0,1,3,2,13,0001-00-0003-38.png,0003-00-0000-32.png
00000014,251,1,1442500403635,1442500404179,273,514,0,0,0,1,5,4,15,0001-00-0004-39.png,0005-00-0003-16.png
00000014,252,0,1442500405376,1442500405931,874,490,0,0,0,3,5,2,35,0003-00-0008-53.png,0005-00-0003-22.png
00000014,253,0,1442500407840,1442500408390,388,548,0,0,0,4,3,1,43,0004-00-0009-11.png,0003-00-0004-04.png
00000014,254,0,1442500410956,1442500411393,315,423,0,0,0,5,3,2,53,0005-00-0003-54.png,0003-00-0000-38.png
00000014,255,1,1442500412948,1442500413429,877,432,0,0,0,3,1,2,31,0003-00-0001-34.png,0001-00-0001-09.png
00000014,256,0,1442500414497,1442500415358,393,392,0,0,0,2,1,1,21,0002-00-0009-32.png,0001-00-0000-31.png
00000014,257,1,1442500416395,1442500417306,363,397,0,0,0,4,5,1,45,0004-00-0008-29.png,0005-00-0006-54.png
00000014,258,1,1442500418418,1442500418920,904,402,0,0,0,4,1,3,41,0004-00-0005-86.png,0001-00-0002-22.png
00000014,259,1,1442500420163,1442500420665,376,436,0,0,0,1,2,1,12,0001-00-0006-47.png,0002-00-0008-82.png
00000014,260,0,1442500421869,1442500422358,376,449,0,0,0,5,2,3,52,0005-00-0005-63.png,0002-00-0000-22.png
00000014,261,1,1442500423483,1442500423959,409,447,0,0,0,1,4,3,14,0001-00-0009-08.png,0004-00-0004-51.png
00000014,262,1,1442500425152,1442500425698,343,442,0,0,0,2,5,3,25,0002-00-0006-21.png,0005-00-0007-82.png
00000014,263,0,1442500426843,1442500427391,366,431,0,0,0,5,4,1,54,0005-00-0004-30.png,0004-00-0008-53.png
00000014,264,0,1442500428392,1442500428927,876,396,0,0,0,3,4,1,34,0003-00-0007-81.png,0004-00-0004-43.png
00000014,265,0,1442500431205,1442500431663,908,447,0,0,0,2,4,2,24,0002-00-0004-23.png,0004-00-0003-40.png
00000014,266,1,1442500432777,1442500433253,336,433,0,0,0,1,5,4,15,0001-00-0004-09.png,0005-00-0001-41.png
00000014,267,1,1442500434307,1442500434806,918,391,0,0,0,3,1,2,31,0003-00-0003-69.png,0001-00-0004-44.png
00000014,268,1,1442500435958,1442500436489,900,411,0,0,0,4,2,2,42,0004-00-0007-46.png,0002-00-0000-40.png
00000014,269,0,1442500437652,1442500438240,413,543,0,0,0,5,1,4,51,0005-00-0009-47.png,0001-00-0003-25.png
00000014,270,1,1442500439814,1442500440316,901,414,0,0,0,3,2,1,32,0003-00-0001-11.png,0002-00-0007-67.png
00000014,271,1,1442500441384,1442500441922,873,511,0,0,0,5,2,3,52,0005-00-0001-21.png,0002-00-0002-64.png
00000014,272,0,1442500443034,1442500443568,368,428,0,0,0,5,3,2,53,0005-00-0002-50.png,0003-00-0007-34.png
00000014,273,0,1442500444723,1442500445204,877,390,0,0,0,2,3,1,23,0002-00-0001-70.png,0003-00-0000-56.png
00000014,274,0,1442500446393,1442500446912,860,425,0,0,0,3,5,2,35,0003-00-0000-00.png,0005-00-0009-78.png
00000014,275,1,1442500449374,1442500449977,896,471,0,0,0,2,1,1,21,0002-00-0008-59.png,0001-00-0009-67.png
00000014,276,1,1442500451155,1442500451697,334,442,0,0,0,4,5,1,45,0004-00-0001-14.png,0005-00-0008-50.png
00000014,277,1,1442500452853,1442500453343,376,462,0,0,0,1,2,1,12,0001-00-0007-67.png,0002-00-0004-86.png
00000014,278,0,1442500454679,1442500455662,388,438,0,0,0,4,1,3,41,0004-00-0000-84.png,0001-00-0008-40.png
00000014,279,1,1442500456996,1442500457463,900,410,0,0,0,4,3,1,43,0004-00-0009-55.png,0003-00-0002-46.png
00000014,280,1,1442500458738,1442500459276,317,444,0,0,0,1,3,2,13,0001-00-0001-84.png,0003-00-0004-42.png
00000014,281,0,1442500460461,1442500461115,876,355,0,0,0,2,5,3,25,0002-00-0004-95.png,0005-00-0002-94.png
00000014,282,1,1442500462372,1442500462392,521,476,0,0,0,3,5,2,35,0003-00-0005-78.png,0005-00-0004-07.png
00000014,283,0,1442500463525,1442500464080,887,450,0,0,0,1,4,3,14,0001-00-0007-01.png,0004-00-0002-93.png
00000014,284,1,1442500465409,1442500465912,901,398,0,0,0,2,1,1,21,0002-00-0006-35.png,0001-00-0000-30.png
00000014,285,0,1442500467087,1442500467601,890,394,0,0,0,2,4,2,24,0002-00-0001-02.png,0004-00-0008-23.png
00000014,286,1,1442500469851,1442500470397,376,449,0,0,0,1,2,1,12,0001-00-0002-95.png,0002-00-0003-20.png
00000014,287,1,1442500471469,1442500472032,868,485,0,0,0,5,2,3,52,0005-00-0009-82.png,0002-00-0001-91.png
00000014,288,0,1442500473318,1442500473810,903,415,0,0,0,4,5,1,45,0004-00-0007-55.png,0005-00-0003-86.png
00000014,289,1,1442500475010,1442500475504,882,522,0,0,0,5,3,2,53,0005-00-0003-11.png,0003-00-0003-90.png
00000014,290,1,1442500476631,1442500477194,881,414,0,0,0,5,1,4,51,0005-00-0008-60.png,0001-00-0006-29.png
00000014,291,1,1442500478319,1442500478888,901,397,0,0,0,4,1,3,41,0004-00-0000-37.png,0001-00-0008-72.png
00000014,292,1,1442500480019,1442500480661,901,383,0,0,0,3,2,1,32,0003-00-0004-21.png,0002-00-0009-88.png
00000014,293,1,1442500481808,1442500482311,876,409,0,0,0,4,3,1,43,0004-00-0008-09.png,0003-00-0001-07.png
00000014,294,0,1442500483787,1442500484308,901,409,0,0,0,1,3,2,13,0001-00-0009-52.png,0003-00-0002-12.png
00000014,295,0,1442500485574,1442500486139,930,401,0,0,0,1,5,4,15,0001-00-0000-73.png,0005-00-0004-20.png
00000014,296,0,1442500487313,1442500487799,901,397,0,0,0,3,4,1,34,0003-00-0007-78.png,0004-00-0006-01.png
00000014,297,0,1442500488983,1442500489521,904,501,0,0,0,2,3,1,23,0002-00-0008-60.png,0003-00-0009-52.png
00000014,298,1,1442500492047,1442500492578,875,436,0,0,0,4,2,2,42,0004-00-0005-44.png,0002-00-0005-25.png
00000014,299,1,1442500493677,1442500494210,874,501,0,0,0,5,4,1,54,0005-00-0004-79.png,0004-00-0005-86.png
00000014,300,1,1442500495344,1442500495890,886,398,0,0,0,3,1,2,31,0003-00-0002-11.png,0001-00-0007-91.png
00000014,301,1,1442500497186,1442500497697,879,401,0,0,0,4,3,1,43,0004-00-0007-61.png,0003-00-0001-29.png
00000014,302,1,1442500499174,1442500499636,323,420,0,0,0,1,5,4,15,0001-00-0007-40.png,0005-00-0007-31.png
00000014,303,1,1442500500875,1442500501439,875,397,0,0,0,5,4,1,54,0005-00-0008-99.png,0004-00-0004-26.png
00000014,304,1,1442500502748,1442500503278,882,395,0,0,0,3,1,2,31,0003-00-0002-59.png,0001-00-0006-67.png
00000014,305,1,1442500504740,1442500505258,900,413,0,0,0,5,3,2,53,0005-00-0008-12.png,0003-00-0000-62.png
00000014,306,0,1442500506598,1442500507100,866,485,0,0,0,2,4,2,24,0002-00-0007-32.png,0004-00-0006-56.png
00000014,307,1,1442500508765,1442500509329,880,414,0,0,0,5,2,3,52,0005-00-0001-65.png,0002-00-0003-40.png
00000014,308,0,1442500510534,1442500511083,376,423,0,0,0,3,2,1,32,0003-00-0004-87.png,0002-00-0005-85.png
00000014,309,1,1442500512266,1442500512768,901,449,0,0,0,2,1,1,21,0002-00-0004-05.png,0001-00-0004-48.png
00000014,310,0,1442500513943,1442500514473,874,411,0,0,0,3,4,1,34,0003-00-0000-36.png,0004-00-0004-38.png
00000014,311,1,1442500515645,1442500516106,885,399,0,0,0,5,1,4,51,0005-00-0003-51.png,0001-00-0001-12.png
00000014,312,1,1442500517283,1442500517809,248,488,0,0,0,1,3,2,13,0001-00-0007-46.png,0003-00-0003-40.png
00000014,313,1,1442500519080,1442500519597,358,415,0,0,0,1,4,3,14,0001-00-0001-17.png,0004-00-0005-10.png
00000014,314,1,1442500520777,1442500521307,401,462,0,0,0,2,5,3,25,0002-00-0005-15.png,0005-00-0006-24.png
00000014,315,1,1442500522591,1442500523085,341,429,0,0,0,3,5,2,35,0003-00-0003-77.png,0005-00-0001-91.png
00000014,316,1,1442500524293,1442500524809,330,408,0,0,0,2,3,1,23,0002-00-0006-53.png,0003-00-0005-84.png
00000014,317,1,1442500526082,1442500526615,371,436,0,0,0,4,5,1,45,0004-00-0006-88.png,0005-00-0001-10.png
00000014,318,0,1442500528320,1442500528788,398,416,0,0,0,4,1,3,41,0004-00-0006-78.png,0001-00-0009-21.png
00000014,319,1,1442500530397,1442500530891,877,416,0,0,0,4,2,2,42,0004-00-0009-27.png,0002-00-0003-85.png
00000014,320,1,1442500532344,1442500532858,395,514,0,0,0,1,2,1,12,0001-00-0002-84.png,0002-00-0009-81.png
00000014,321,1,1442500534251,1442500535303,343,425,0,0,0,2,5,3,25,0002-00-0002-26.png,0005-00-0007-78.png
00000014,322,1,1442500536398,1442500536925,343,469,0,0,0,3,5,2,35,0003-00-0000-13.png,0005-00-0009-85.png
00000014,323,1,1442500538168,1442500538664,394,419,0,0,0,1,2,1,12,0001-00-0002-54.png,0002-00-0009-19.png
00000014,324,0,1442500539866,1442500540440,861,508,0,0,0,3,4,1,34,0003-00-0006-34.png,0004-00-0002-59.png
00000014,325,0,1442500542540,1442500543040,903,413,0,0,0,2,3,1,23,0002-00-0003-12.png,0003-00-0004-35.png
00000014,326,1,1442500544461,1442500544977,365,439,0,0,0,1,4,3,14,0001-00-0000-54.png,0004-00-0005-27.png
00000014,327,1,1442500546069,1442500546604,873,404,0,0,0,2,1,1,21,0002-00-0002-61.png,0001-00-0002-78.png
00000014,328,0,1442500547799,1442500548353,303,408,0,0,0,5,4,1,54,0005-00-0004-55.png,0004-00-0006-93.png
00000014,329,1,1442500549737,1442500550172,401,410,0,0,0,4,5,1,45,0004-00-0005-41.png,0005-00-0008-00.png
00000014,330,0,1442500551338,1442500551828,392,534,0,0,0,4,2,2,42,0004-00-0005-94.png,0002-00-0002-39.png
00000014,331,1,1442500553048,1442500553619,324,467,0,0,0,2,4,2,24,0002-00-0000-41.png,0004-00-0008-66.png
00000014,332,1,1442500554769,1442500555325,859,517,0,0,0,5,3,2,53,0005-00-0000-16.png,0003-00-0001-72.png
00000014,333,1,1442500556618,1442500557118,376,450,0,0,0,1,3,2,13,0001-00-0002-02.png,0003-00-0009-66.png
00000014,334,0,1442500558335,1442500558888,427,397,0,0,0,5,1,4,51,0005-00-0006-82.png,0001-00-0006-50.png
00000014,335,1,1442500560197,1442500560637,905,428,0,0,0,3,2,1,32,0003-00-0001-29.png,0002-00-0005-83.png
00000014,336,1,1442500561796,1442500562385,339,463,0,0,0,1,5,4,15,0001-00-0006-36.png,0005-00-0008-53.png
00000014,337,1,1442500563553,1442500564078,900,422,0,0,0,4,1,3,41,0004-00-0003-10.png,0001-00-0004-27.png
00000014,338,1,1442500565463,1442500565977,878,417,0,0,0,3,1,2,31,0003-00-0002-93.png,0001-00-0000-10.png
00000014,339,0,1442500567498,1442500568370,337,450,0,0,0,5,2,3,52,0005-00-0008-77.png,0002-00-0001-72.png
00000014,340,1,1442500569467,1442500569932,887,398,0,0,0,4,3,1,43,0004-00-0006-86.png,0003-00-0003-80.png
00000014,341,1,1442500571158,1442500571693,877,441,0,0,0,3,2,1,32,0003-00-0009-83.png,0002-00-0003-51.png
00000014,342,1,1442500572916,1442500573881,340,444,0,0,0,2,4,2,24,0002-00-0000-68.png,0004-00-0002-45.png
00000014,343,0,1442500574974,1442500575543,427,436,0,0,0,2,1,1,21,0002-00-0003-16.png,0001-00-0003-63.png
00000014,344,0,1442500576756,1442500577275,392,522,0,0,0,5,4,1,54,0005-00-0008-03.png,0004-00-0006-16.png
00000014,345,1,1442500578425,1442500578928,410,522,0,0,0,1,4,3,14,0001-00-0002-42.png,0004-00-0003-60.png
00000014,346,1,1442500580040,1442500580600,376,410,0,0,0,2,3,1,23,0002-00-0005-16.png,0003-00-0007-52.png
00000014,347,1,1442500581829,1442500582391,332,471,0,0,0,1,5,4,15,0001-00-0007-04.png,0005-00-0003-84.png
00000014,348,1,1442500583660,1442500584198,875,410,0,0,0,5,2,3,52,0005-00-0000-79.png,0002-00-0006-49.png
00000014,349,0,1442500585569,1442500586130,415,528,0,0,0,4,2,2,42,0004-00-0001-51.png,0002-00-0005-21.png
00000014,350,1,1442500587339,1442500587920,865,536,0,0,0,4,1,3,41,0004-00-0005-65.png,0001-00-0003-57.png
00000014,351,1,1442500589168,1442500589712,317,390,0,0,0,2,5,3,25,0002-00-0000-96.png,0005-00-0002-16.png
00000014,352,1,1442500590949,1442500591404,376,450,0,0,0,4,5,1,45,0004-00-0000-25.png,0005-00-0004-08.png
00000014,353,1,1442500592668,1442500593500,345,447,0,0,0,3,5,2,35,0003-00-0000-04.png,0005-00-0005-37.png
00000014,354,1,1442500594864,1442500595419,874,439,0,0,0,5,1,4,51,0005-00-0006-27.png,0001-00-0005-17.png
00000014,355,1,1442500596755,1442500597262,291,445,0,0,0,1,3,2,13,0001-00-0000-58.png,0003-00-0003-12.png
00000014,356,1,1442500598782,1442500599272,877,415,0,0,0,4,3,1,43,0004-00-0003-93.png,0003-00-0006-43.png
00000014,357,1,1442500600709,1442500601211,878,427,0,0,0,5,3,2,53,0005-00-0006-92.png,0003-00-0003-88.png
00000014,358,1,1442500602458,1442500602944,879,427,0,0,0,3,1,2,31,0003-00-0003-15.png,0001-00-0006-09.png
00000014,359,0,1442500604438,1442500605220,876,389,0,0,0,1,2,1,12,0001-00-0002-12.png,0002-00-0008-42.png
00000014,360,1,1442500606669,1442500607170,413,533,0,0,0,3,4,1,34,0003-00-0006-56.png,0004-00-0000-60.png
00000014,361,1,1442500608244,1442500608766,347,463,0,0,0,2,4,2,24,0002-00-0008-62.png,0004-00-0000-84.png
00000014,362,0,1442500610113,1442500610712,339,441,0,0,0,5,2,3,52,0005-00-0003-55.png,0002-00-0004-87.png
00000014,363,1,1442500611836,1442500611848,504,464,0,0,0,2,3,1,23,0002-00-0005-69.png,0003-00-0006-88.png
00000014,364,1,1442500613234,1442500613762,369,452,0,0,0,1,3,2,13,0001-00-0001-08.png,0003-00-0000-74.png
00000014,365,1,1442500614973,1442500615455,886,398,0,0,0,4,2,2,42,0004-00-0002-68.png,0002-00-0006-44.png
00000014,366,1,1442500616724,1442500617229,364,425,0,0,0,4,5,1,45,0004-00-0009-69.png,0005-00-0003-41.png
00000014,367,1,1442500618453,1442500619462,862,548,0,0,0,3,2,1,32,0003-00-0004-95.png,0002-00-0008-48.png
00000014,368,0,1442500620638,1442500621697,932,431,0,0,0,3,4,1,34,0003-00-0003-22.png,0004-00-0009-10.png
00000014,369,1,1442500622830,1442500623329,388,398,0,0,0,1,5,4,15,0001-00-0008-57.png,0005-00-0009-34.png
00000014,370,1,1442500624416,1442500624942,901,435,0,0,0,5,1,4,51,0005-00-0005-15.png,0001-00-0009-08.png
00000014,371,0,1442500626196,1442500627176,392,428,0,0,0,2,1,1,21,0002-00-0009-08.png,0001-00-0005-46.png
00000014,372,1,1442500628885,1442500629360,343,425,0,0,0,1,2,1,12,0001-00-0008-41.png,0002-00-0007-51.png
00000014,373,1,1442500630486,1442500631044,350,448,0,0,0,2,5,3,25,0002-00-0005-80.png,0005-00-0001-90.png
00000014,374,1,1442500632195,1442500632695,876,448,0,0,0,3,1,2,31,0003-00-0000-72.png,0001-00-0008-74.png
00000014,375,1,1442500633821,1442500634323,326,449,0,0,0,3,5,2,35,0003-00-0003-51.png,0005-00-0009-50.png
00000014,376,0,1442500635490,1442500636450,436,418,0,0,0,5,3,2,53,0005-00-0001-61.png,0003-00-0001-68.png
00000014,377,1,1442500637887,1442500638370,248,488,0,0,0,1,4,3,14,0001-00-0005-60.png,0004-00-0003-45.png
00000014,378,0,1442500639417,1442500640324,348,439,0,0,0,5,4,1,54,0005-00-0004-56.png,0004-00-0000-33.png
00000014,379,0,1442500641450,1442500641470,495,499,0,0,0,4,3,1,43,0004-00-0008-64.png,0003-00-0007-78.png
00000014,380,0,1442500642655,1442500643660,270,427,0,0,0,4,1,3,41,0004-00-0008-81.png,0001-00-0005-26.png
00000014,381,1,1442500644924,1442500645412,888,422,0,0,0,2,1,1,21,0002-00-0000-01.png,0001-00-0007-69.png
00000014,382,1,1442500646493,1442500647100,301,377,0,0,0,1,3,2,13,0001-00-0005-83.png,0003-00-0000-06.png
00000014,383,0,1442500648333,1442500648797,409,454,0,0,0,3,2,1,32,0003-00-0007-53.png,0002-00-0004-32.png
00000014,384,1,1442500649898,1442500650384,858,531,0,0,0,5,3,2,53,0005-00-0005-68.png,0003-00-0002-49.png
00000014,385,1,1442500651780,1442500652297,870,446,0,0,0,3,1,2,31,0003-00-0007-20.png,0001-00-0003-83.png
00000014,386,0,1442500653699,1442500654260,325,491,0,0,0,5,2,3,52,0005-00-0001-18.png,0002-00-0001-10.png
00000014,387,0,1442500655299,1442500655880,389,427,0,0,0,4,2,2,42,0004-00-0000-83.png,0002-00-0009-52.png
00000014,388,0,1442500658226,1442500658685,873,536,0,0,0,2,5,3,25,0002-00-0002-70.png,0005-00-0000-69.png
00000014,389,0,1442500660059,1442500660570,879,443,0,0,0,2,3,1,23,0002-00-0006-54.png,0003-00-0004-11.png
00000014,390,1,1442500661958,1442500662401,427,436,0,0,0,1,2,1,12,0001-00-0000-15.png,0002-00-0002-86.png
00000014,391,1,1442500663470,1442500664356,427,398,0,0,0,4,5,1,45,0004-00-0002-16.png,0005-00-0006-35.png
00000014,392,0,1442500665536,1442500665999,898,430,0,0,0,2,4,2,24,0002-00-0001-58.png,0004-00-0003-40.png
00000014,393,1,1442500667007,1442500667615,394,448,0,0,0,3,5,2,35,0003-00-0008-86.png,0005-00-0000-50.png
00000014,394,1,1442500668806,1442500669339,363,443,0,0,0,1,5,4,15,0001-00-0007-81.png,0005-00-0002-88.png
00000014,395,0,1442500670504,1442500670978,388,462,0,0,0,4,3,1,43,0004-00-0008-97.png,0003-00-0009-54.png
00000014,396,1,1442500672132,1442500672740,902,415,0,0,0,5,4,1,54,0005-00-0009-75.png,0004-00-0004-16.png
00000014,397,1,1442500674282,1442500674811,375,461,0,0,0,1,4,3,14,0001-00-0001-83.png,0004-00-0008-45.png
00000014,398,1,1442500676306,1442500676860,337,462,0,0,0,3,4,1,34,0003-00-0004-34.png,0004-00-0001-58.png
00000014,399,1,1442500678096,1442500678615,875,423,0,0,0,5,1,4,51,0005-00-0009-41.png,0001-00-0002-94.png
00000014,400,1,1442500680297,1442500680812,880,417,0,0,0,4,1,3,41,0004-00-0002-85.png,0001-00-0006-89.png
00000014,401,0,1442500682642,1442500683194,401,436,0,0,0,3,2,1,32,0003-00-0000-22.png,0002-00-0004-11.png
00000014,402,1,1442500684325,1442500684842,880,429,0,0,0,5,2,3,52,0005-00-0009-13.png,0002-00-0006-35.png
00000014,403,0,1442500686334,1442500687289,922,456,0,0,0,1,2,1,12,0001-00-0003-43.png,0002-00-0001-84.png
00000014,404,0,1442500688396,1442500688902,386,423,0,0,0,5,1,4,51,0005-00-0001-99.png,0001-00-0007-09.png
00000014,405,0,1442500690125,1442500690149,522,483,0,0,0,2,1,1,21,0002-00-0001-71.png,0001-00-0001-33.png
00000014,406,1,1442500692461,1442500692941,416,521,0,0,0,3,4,1,34,0003-00-0005-13.png,0004-00-0001-96.png
00000014,407,1,1442500694252,1442500694772,893,418,0,0,0,5,4,1,54,0005-00-0001-79.png,0004-00-0003-14.png
00000014,408,1,1442500696189,1442500696665,349,449,0,0,0,1,3,2,13,0001-00-0006-02.png,0003-00-0001-71.png
00000014,409,0,1442500698037,1442500698669,874,464,0,0,0,3,5,2,35,0003-00-0006-96.png,0005-00-0009-72.png
00000014,410,1,1442500700063,1442500700547,876,519,0,0,0,4,1,3,41,0004-00-0009-14.png,0001-00-0002-76.png
00000014,411,1,1442500701923,1442500702425,344,452,0,0,0,1,5,4,15,0001-00-0005-93.png,0005-00-0008-47.png
00000014,412,0,1442500703684,1442500704278,378,373,0,0,0,4,2,2,42,0004-00-0003-30.png,0002-00-0007-43.png
00000014,413,0,1442500705441,1442500705477,517,482,0,0,0,5,3,2,53,0005-00-0009-28.png,0003-00-0004-51.png
00000014,414,0,1442500707766,1442500708274,927,450,0,0,0,1,4,3,14,0001-00-0002-77.png,0004-00-0002-12.png
00000014,415,1,1442500709318,1442500709812,894,451,0,0,0,3,1,2,31,0003-00-0005-07.png,0001-00-0005-39.png
00000014,416,0,1442500710966,1442500711473,899,413,0,0,0,2,4,2,24,0002-00-0005-15.png,0004-00-0001-99.png
00000014,417,0,1442500712648,1442500712664,519,462,0,0,0,4,3,1,43,0004-00-0005-65.png,0003-00-0001-98.png
00000014,418,1,1442500714765,1442500715269,388,437,0,0,0,4,5,1,45,0004-00-0004-62.png,0005-00-0002-31.png
00000014,419,0,1442500716693,1442500717261,869,485,0,0,0,2,3,1,23,0002-00-0000-27.png,0003-00-0000-34.png
00000014,420,1,1442500718253,1442500718273,511,455,0,0,0,2,5,3,25,0002-00-0007-87.png,0005-00-0002-71.png
00000014,421,1,1442500719750,1442500720229,864,396,0,0,0,4,3,1,43,0004-00-0009-53.png,0003-00-0002-17.png
00000014,422,1,1442500722068,1442500722597,327,475,0,0,0,1,2,1,12,0001-00-0003-35.png,0002-00-0006-12.png
00000014,423,1,1442500723820,1442500724321,325,460,0,0,0,1,3,2,13,0001-00-0001-53.png,0003-00-0003-67.png
00000014,424,0,1442500725617,1442500726174,864,424,0,0,0,4,5,1,45,0004-00-0009-72.png,0005-00-0005-35.png
00000014,425,0,1442500727387,1442500727415,522,440,0,0,0,4,1,3,41,0004-00-0005-43.png,0001-00-0004-16.png
00000014,426,1,1442500728740,1442500729206,336,448,0,0,0,2,3,1,23,0002-00-0004-31.png,0003-00-0003-44.png
00000014,427,1,1442500730249,1442500730818,367,452,0,0,0,3,5,2,35,0003-00-0009-03.png,0005-00-0006-68.png
00000014,428,0,1442500732071,1442500732614,339,445,0,0,0,2,1,1,21,0002-00-0000-44.png,0001-00-0003-29.png
00000014,429,1,1442500733826,1442500734847,893,485,0,0,0,5,1,4,51,0005-00-0005-30.png,0001-00-0001-01.png
00000014,430,1,1442500735945,1442500736966,371,417,0,0,0,2,4,2,24,0002-00-0000-96.png,0004-00-0005-02.png
00000014,431,1,1442500738101,1442500738676,876,437,0,0,0,4,2,2,42,0004-00-0003-34.png,0002-00-0005-43.png
00000014,432,1,1442500739911,1442500740425,376,436,0,0,0,1,4,3,14,0001-00-0003-09.png,0004-00-0002-90.png
00000014,433,1,1442500741570,1442500742116,870,498,0,0,0,5,4,1,54,0005-00-0008-46.png,0004-00-0004-30.png
00000014,434,1,1442500743428,1442500743970,874,412,0,0,0,3,2,1,32,0003-00-0003-98.png,0002-00-0001-76.png
00000014,435,1,1442500745466,1442500746022,415,554,0,0,0,2,5,3,25,0002-00-0002-46.png,0005-00-0002-01.png
00000014,436,0,1442500747356,1442500747863,380,455,0,0,0,5,2,3,52,0005-00-0005-70.png,0002-00-0000-39.png
00000014,437,1,1442500748875,1442500749854,878,402,0,0,0,5,3,2,53,0005-00-0000-85.png,0003-00-0000-26.png
00000014,438,1,1442500750992,1442500751020,504,462,0,0,0,3,4,1,34,0003-00-0000-67.png,0004-00-0004-06.png
00000014,439,1,1442500752764,1442500753247,376,462,0,0,0,1,5,4,15,0001-00-0006-38.png,0005-00-0006-52.png
00000014,440,1,1442500754692,1442500755180,874,412,0,0,0,3,1,2,31,0003-00-0002-21.png,0001-00-0000-66.png
00000014,441,1,1442500756539,1442500757022,359,430,0,0,0,1,3,2,13,0001-00-0000-91.png,0003-00-0008-01.png
00000014,442,1,1442500758093,1442500758726,882,365,0,0,0,5,4,1,54,0005-00-0001-07.png,0004-00-0000-30.png
00000014,443,1,1442500759988,1442500760497,873,512,0,0,0,3,1,2,31,0003-00-0000-04.png,0001-00-0008-17.png
00000014,444,1,1442500762075,1442500762551,376,462,0,0,0,1,5,4,15,0001-00-0009-02.png,0005-00-0000-57.png
00000014,445,1,1442500764154,1442500764710,900,398,0,0,0,5,3,2,53,0005-00-0001-17.png,0003-00-0004-93.png
00000014,446,1,1442500766182,1442500766692,377,446,0,0,0,2,3,1,23,0002-00-0009-79.png,0003-00-0001-92.png
00000014,447,0,1442500767840,1442500768476,899,501,0,0,0,1,4,3,14,0001-00-0001-52.png,0004-00-0005-81.png
00000014,448,1,1442500769957,1442500769993,445,477,0,0,0,2,4,2,24,0002-00-0004-79.png,0004-00-0008-56.png
00000014,449,1,1442500771300,1442500771805,900,423,0,0,0,4,1,3,41,0004-00-0000-72.png,0001-00-0007-88.png
00000014,450,1,1442500773802,1442500774355,875,411,0,0,0,4,3,1,43,0004-00-0009-89.png,0003-00-0006-93.png
00000014,451,0,1442500775851,1442500776418,370,452,0,0,0,5,2,3,52,0005-00-0000-09.png,0002-00-0009-86.png
00000014,452,1,1442500777573,1442500778123,248,504,0,0,0,3,5,2,35,0003-00-0001-92.png,0005-00-0003-47.png
00000014,453,1,1442500779282,1442500780192,385,509,0,0,0,2,5,3,25,0002-00-0002-85.png,0005-00-0003-00.png
00000014,454,1,1442500781734,1442500782723,325,435,0,0,0,3,4,1,34,0003-00-0001-66.png,0004-00-0008-39.png
00000014,455,1,1442500783968,1442500784533,401,437,0,0,0,1,2,1,12,0001-00-0002-00.png,0002-00-0005-01.png
00000014,456,0,1442500785659,1442500786220,317,469,0,0,0,2,1,1,21,0002-00-0000-99.png,0001-00-0002-39.png
00000014,457,0,1442500787845,1442500787866,502,459,0,0,0,3,2,1,32,0003-00-0007-92.png,0002-00-0000-61.png
00000014,458,0,1442500790080,1442500790550,888,410,0,0,0,4,5,1,45,0004-00-0004-88.png,0005-00-0002-43.png
00000014,459,1,1442500791734,1442500792299,876,414,0,0,0,5,1,4,51,0005-00-0001-95.png,0001-00-0004-03.png
00000014,460,0,1442500793434,1442500794243,337,449,0,0,0,4,2,2,42,0004-00-0000-60.png,0002-00-0009-35.png
00000014,461,0,1442500795355,1442500795359,504,462,0,0,0,4,2,2,42,0004-00-0000-19.png,0002-00-0009-80.png
00000014,462,1,1442500797857,1442500798385,366,493,0,0,0,2,5,3,25,0002-00-0000-25.png,0005-00-0006-31.png
00000014,463,1,1442500799595,1442500800098,874,516,0,0,0,4,3,1,43,0004-00-0000-39.png,0003-00-0009-56.png
00000014,464,1,1442500801525,1442500802036,880,402,0,0,0,3,1,2,31,0003-00-0009-36.png,0001-00-0004-20.png
00000014,465,0,1442500803474,1442500804060,925,360,0,0,0,2,3,1,23,0002-00-0000-25.png,0003-00-0004-51.png
00000014,466,1,1442500805300,1442500805336,504,471,0,0,0,1,5,4,15,0001-00-0002-96.png,0005-00-0008-73.png
00000014,467,0,1442500806624,1442500807179,325,452,0,0,0,5,3,2,53,0005-00-0008-26.png,0003-00-0002-07.png
00000014,468,0,1442500808322,1442500808799,362,446,0,0,0,3,2,1,32,0003-00-0003-97.png,0002-00-0008-88.png
00000014,469,1,1442500810092,1442500810583,877,416,0,0,0,5,2,3,52,0005-00-0002-92.png,0002-00-0000-63.png
00000014,470,1,1442500811670,1442500812274,348,530,0,0,0,1,4,3,14,0001-00-0009-78.png,0004-00-0008-70.png
00000014,471,0,1442500813431,1442500814018,316,472,0,0,0,2,1,1,21,0002-00-0001-94.png,0001-00-0001-87.png
00000014,472,1,1442500815150,1442500815747,930,402,0,0,0,5,4,1,54,0005-00-0005-44.png,0004-00-0000-86.png
00000014,473,1,1442500816961,1442500817436,364,455,0,0,0,3,5,2,35,0003-00-0002-95.png,0005-00-0002-88.png
00000014,474,1,1442500818701,1442500819255,382,462,0,0,0,3,4,1,34,0003-00-0007-76.png,0004-00-0008-69.png
00000014,475,0,1442500820479,1442500821046,877,390,0,0,0,1,3,2,13,0001-00-0008-68.png,0003-00-0005-00.png
00000014,476,0,1442500822546,1442500822571,504,500,0,0,0,4,1,3,41,0004-00-0006-14.png,0001-00-0003-80.png
00000014,477,0,1442500824948,1442500825438,401,410,0,0,0,5,1,4,51,0005-00-0002-06.png,0001-00-0004-32.png
00000014,478,1,1442500826949,1442500827366,401,410,0,0,0,1,2,1,12,0001-00-0003-23.png,0002-00-0004-87.png
00000014,479,0,1442500828650,1442500829224,876,384,0,0,0,4,5,1,45,0004-00-0006-77.png,0005-00-0008-53.png
00000014,480,1,1442500830431,1442500830942,350,434,0,0,0,2,4,2,24,0002-00-0006-33.png,0004-00-0008-35.png
00000014,481,0,1442500832280,1442500833267,358,445,0,0,0,4,2,2,42,0004-00-0009-51.png,0002-00-0009-39.png
00000014,482,0,1442500834357,1442500834934,401,410,0,0,0,3,2,1,32,0003-00-0004-15.png,0002-00-0006-19.png
00000014,483,0,1442500836045,1442500836558,879,454,0,0,0,2,4,2,24,0002-00-0003-42.png,0004-00-0005-13.png
00000014,484,1,1442500839217,1442500839688,872,535,0,0,0,5,2,3,52,0005-00-0006-47.png,0002-00-0003-43.png
00000014,485,1,1442500840817,1442500841368,901,410,0,0,0,5,4,1,54,0005-00-0002-29.png,0004-00-0007-27.png
00000014,486,1,1442500842697,1442500843179,336,468,0,0,0,4,5,1,45,0004-00-0004-18.png,0005-00-0004-79.png
00000014,487,0,1442500844505,1442500845051,866,415,0,0,0,2,5,3,25,0002-00-0007-45.png,0005-00-0009-55.png
00000014,488,0,1442500846156,1442500846606,427,410,0,0,0,4,3,1,43,0004-00-0000-49.png,0003-00-0004-63.png
00000014,489,1,1442500848152,1442500848180,478,488,0,0,0,3,5,2,35,0003-00-0006-78.png,0005-00-0008-45.png
00000014,490,1,1442500849296,1442500849762,324,456,0,0,0,1,2,1,12,0001-00-0003-91.png,0002-00-0001-61.png
00000014,491,0,1442500850867,1442500851390,881,417,0,0,0,2,3,1,23,0002-00-0001-26.png,0003-00-0005-26.png
00000014,492,1,1442500852676,1442500853138,887,424,0,0,0,4,1,3,41,0004-00-0009-56.png,0001-00-0000-48.png
00000014,493,1,1442500854335,1442500854871,874,541,0,0,0,2,1,1,21,0002-00-0005-67.png,0001-00-0007-23.png
00000014,494,0,1442500856168,1442500856712,860,455,0,0,0,1,5,4,15,0001-00-0002-29.png,0005-00-0009-04.png
00000014,495,1,1442500857963,1442500857983,497,483,0,0,0,3,4,1,34,0003-00-0007-89.png,0004-00-0003-15.png
00000014,496,1,1442500859197,1442500859630,388,450,0,0,0,1,4,3,14,0001-00-0001-82.png,0004-00-0001-45.png
00000014,497,0,1442500860838,1442500861418,401,452,0,0,0,5,1,4,51,0005-00-0008-03.png,0001-00-0000-31.png
00000014,498,1,1442500862537,1442500863028,907,436,0,0,0,5,3,2,53,0005-00-0008-46.png,0003-00-0009-76.png
00000014,499,0,1442500864004,1442500864538,879,428,0,0,0,1,3,2,13,0001-00-0004-79.png,0003-00-0009-91.png
00000014,500,0,1442500865903,1442500866443,414,450,0,0,0,3,1,2,31,0003-00-0007-33.png,0001-00-0009-45.png
00000014,501,0,1442500869594,1442500870037,376,462,0,0,0,3,2,1,32,0003-00-0007-50.png,0002-00-0005-04.png
00000014,502,1,1442500871132,1442500871699,310,462,0,0,0,1,5,4,15,0001-00-0001-45.png,0005-00-0005-78.png
00000014,503,1,1442500872674,1442500873259,860,516,0,0,0,5,2,3,52,0005-00-0008-17.png,0002-00-0003-18.png
00000014,504,1,1442500874348,1442500874887,344,443,0,0,0,2,5,3,25,0002-00-0008-89.png,0005-00-0005-84.png
00000014,505,1,1442500875992,1442500876534,889,492,0,0,0,5,3,2,53,0005-00-0001-61.png,0003-00-0004-41.png
00000014,506,0,1442500877942,1442500878393,410,471,0,0,0,5,4,1,54,0005-00-0008-33.png,0004-00-0002-53.png
00000014,507,0,1442500879480,1442500880010,866,510,0,0,0,3,5,2,35,0003-00-0003-58.png,0005-00-0007-88.png
00000014,508,1,1442500881060,1442500881072,510,446,0,0,0,1,2,1,12,0001-00-0006-18.png,0002-00-0004-79.png
00000014,509,1,1442500882148,1442500882724,877,442,0,0,0,2,1,1,21,0002-00-0009-43.png,0001-00-0005-49.png
00000014,510,0,1442500884119,1442500884580,393,453,0,0,0,4,1,3,41,0004-00-0007-57.png,0001-00-0001-11.png
00000014,511,1,1442500885526,1442500886099,405,446,0,0,0,2,4,2,24,0002-00-0004-71.png,0004-00-0008-61.png
00000014,512,1,1442500887217,1442500887793,357,463,0,0,0,3,4,1,34,0003-00-0004-33.png,0004-00-0008-90.png
00000014,513,0,1442500888927,1442500889469,875,435,0,0,0,2,3,1,23,0002-00-0008-08.png,0003-00-0006-90.png
00000014,514,1,1442500890597,1442500891215,886,424,0,0,0,4,3,1,43,0004-00-0007-39.png,0003-00-0009-55.png
00000014,515,1,1442500892288,1442500892840,415,528,0,0,0,1,3,2,13,0001-00-0003-11.png,0003-00-0002-82.png
00000014,516,1,1442500893975,1442500894530,875,422,0,0,0,5,1,4,51,0005-00-0006-78.png,0001-00-0000-39.png
00000014,517,1,1442500895836,1442500896320,875,436,0,0,0,4,2,2,42,0004-00-0002-20.png,0002-00-0005-98.png
00000014,518,0,1442500897415,1442500897968,874,438,0,0,0,4,5,1,45,0004-00-0006-99.png,0005-00-0002-48.png
00000014,519,0,1442500898956,1442500898984,513,459,0,0,0,3,1,2,31,0003-00-0002-42.png,0001-00-0008-75.png
00000014,520,0,1442500900303,1442500900862,914,416,0,0,0,1,4,3,14,0001-00-0009-28.png,0004-00-0006-87.png
00000014,521,1,1442500903623,1442500904141,401,464,0,0,0,3,5,2,35,0003-00-0007-21.png,0005-00-0008-61.png
00000014,522,0,1442500905287,1442500905841,873,491,0,0,0,4,5,1,45,0004-00-0006-75.png,0005-00-0004-87.png
00000014,523,1,1442500906902,1442500907361,376,384,0,0,0,1,2,1,12,0001-00-0001-89.png,0002-00-0001-43.png
00000014,524,1,1442500908439,1442500909000,882,420,0,0,0,4,3,1,43,0004-00-0001-89.png,0003-00-0009-05.png
00000014,525,1,1442500910085,1442500910678,860,461,0,0,0,2,1,1,21,0002-00-0003-93.png,0001-00-0002-65.png
00000014,526,1,1442500912282,1442500912769,383,428,0,0,0,1,4,3,14,0001-00-0001-74.png,0004-00-0008-32.png
00000014,527,0,1442500913806,1442500914646,332,419,0,0,0,4,1,3,41,0004-00-0007-40.png,0001-00-0008-21.png
00000014,528,1,1442500915903,1442500916399,348,449,0,0,0,1,5,4,15,0001-00-0000-88.png,0005-00-0007-08.png
00000014,529,1,1442500917457,1442500918017,888,398,0,0,0,5,3,2,53,0005-00-0004-67.png,0003-00-0000-82.png
00000014,530,0,1442500919182,1442500919742,875,437,0,0,0,3,4,1,34,0003-00-0000-10.png,0004-00-0008-16.png
00000014,531,1,1442500920693,1442500921196,862,410,0,0,0,3,1,2,31,0003-00-0009-48.png,0001-00-0000-83.png
00000014,532,0,1442500922314,1442500922888,355,416,0,0,0,4,2,2,42,0004-00-0002-38.png,0002-00-0002-04.png
00000014,533,1,1442500923859,1442500924342,347,423,0,0,0,1,3,2,13,0001-00-0008-04.png,0003-00-0002-27.png
00000014,534,0,1442500925474,1442500926470,900,411,0,0,0,2,4,2,24,0002-00-0000-65.png,0004-00-0005-39.png
00000014,535,0,1442500927621,1442500928093,333,455,0,0,0,5,2,3,52,0005-00-0008-40.png,0002-00-0008-43.png
00000014,536,0,1442500929133,1442500929205,504,532,0,0,0,3,2,1,32,0003-00-0001-90.png,0002-00-0005-18.png
00000014,537,1,1442500930406,1442500930939,413,542,0,0,0,2,5,3,25,0002-00-0002-37.png,0005-00-0002-00.png
00000014,538,1,1442500932005,1442500932580,875,436,0,0,0,5,1,4,51,0005-00-0008-65.png,0001-00-0002-14.png
00000014,539,0,1442500933755,1442500934245,897,401,0,0,0,2,3,1,23,0002-00-0009-80.png,0003-00-0000-39.png
00000014,540,0,1442500935473,1442500935947,384,428,0,0,0,5,4,1,54,0005-00-0004-27.png,0004-00-0001-73.png
00000014,541,1,1442500936944,1442500936980,517,488,0,0,0,4,5,1,45,0004-00-0006-56.png,0005-00-0002-13.png
00000014,542,1,1442500938067,1442500938600,273,541,0,0,0,1,3,2,13,0001-00-0007-10.png,0003-00-0005-64.png
00000014,543,1,1442500939700,1442500940240,876,415,0,0,0,4,2,2,42,0004-00-0001-24.png,0002-00-0007-21.png
00000014,544,1,1442500941393,1442500942419,389,423,0,0,0,2,4,2,24,0002-00-0008-30.png,0004-00-0003-99.png
00000014,545,1,1442500943486,1442500944018,874,437,0,0,0,3,2,1,32,0003-00-0003-91.png,0002-00-0001-50.png
00000014,546,1,1442500945188,1442500945712,875,436,0,0,0,4,1,3,41,0004-00-0008-66.png,0001-00-0006-40.png
00000014,547,1,1442500947133,1442500948172,883,470,0,0,0,3,1,2,31,0003-00-0004-22.png,0001-00-0009-14.png
00000014,548,0,1442500949310,1442500950386,364,469,0,0,0,5,2,3,52,0005-00-0008-36.png,0002-00-0009-31.png
00000014,549,0,1442500952750,1442500953264,339,437,0,0,0,2,1,1,21,0002-00-0009-60.png,0001-00-0002-54.png
00000014,550,0,1442500954359,1442500954858,404,451,0,0,0,5,3,2,53,0005-00-0002-25.png,0003-00-0007-22.png
00000014,551,1,1442500955851,1442500956452,388,450,0,0,0,1,4,3,14,0001-00-0005-26.png,0004-00-0008-26.png
00000014,552,0,1442500957480,1442500958097,862,397,0,0,0,2,5,3,25,0002-00-0009-14.png,0005-00-0002-33.png
00000014,553,1,1442500959208,1442500959244,512,489,0,0,0,2,3,1,23,0002-00-0003-75.png,0003-00-0003-15.png
00000014,554,0,1442500960327,1442500960842,876,435,0,0,0,3,4,1,34,0003-00-0005-33.png,0004-00-0001-44.png
00000014,555,0,1442500962081,1442500963093,879,427,0,0,0,1,2,1,12,0001-00-0007-53.png,0002-00-0007-56.png
00000014,556,1,1442500963998,1442500964014,518,444,0,0,0,1,5,4,15,0001-00-0000-61.png,0005-00-0003-41.png
00000014,557,0,1442500965219,1442500965855,411,548,0,0,0,4,3,1,43,0004-00-0008-73.png,0003-00-0006-27.png
00000014,558,1,1442500966953,1442500967487,341,434,0,0,0,3,5,2,35,0003-00-0003-61.png,0005-00-0000-76.png
00000014,559,1,1442500968557,1442500969112,888,436,0,0,0,5,4,1,54,0005-00-0004-48.png,0004-00-0006-20.png
00000014,560,0,1442500970131,1442500970650,401,475,0,0,0,5,1,4,51,0005-00-0006-51.png,0001-00-0006-32.png
00000014,561,1,1442500971568,1442500972068,876,512,0,0,0,3,1,2,31,0003-00-0001-19.png,0001-00-0004-92.png
00000014,562,0,1442500973298,1442500973838,377,449,0,0,0,5,3,2,53,0005-00-0007-42.png,0003-00-0008-15.png
00000014,563,1,1442500974872,1442500974880,509,470,0,0,0,1,4,3,14,0001-00-0002-49.png,0004-00-0005-30.png
00000014,564,1,1442500976304,1442500976806,401,523,0,0,0,2,3,1,23,0002-00-0001-24.png,0003-00-0006-68.png
00000014,565,1,1442500977863,1442500978934,911,399,0,0,0,5,4,1,54,0005-00-0001-53.png,0004-00-0004-05.png
00000014,566,1,1442500980062,1442500980584,374,449,0,0,0,3,5,2,35,0003-00-0006-37.png,0005-00-0001-09.png
00000014,567,1,1442500981690,1442500982322,393,536,0,0,0,2,4,2,24,0002-00-0007-05.png,0004-00-0006-44.png
00000014,568,1,1442500983358,1442500983840,222,488,0,0,0,1,3,2,13,0001-00-0006-38.png,0003-00-0002-85.png
00000014,569,1,1442500985386,1442500985920,359,410,0,0,0,2,5,3,25,0002-00-0004-90.png,0005-00-0007-03.png
00000014,570,0,1442500987286,1442500988271,427,410,0,0,0,4,1,3,41,0004-00-0007-28.png,0001-00-0006-71.png
00000014,571,1,1442500989263,1442500989279,503,466,0,0,0,1,5,4,15,0001-00-0003-44.png,0005-00-0002-68.png
00000014,572,0,1442500990545,1442500991094,888,436,0,0,0,3,4,1,34,0003-00-0008-47.png,0004-00-0004-72.png
00000014,573,0,1442500992127,1442500992151,502,446,0,0,0,2,1,1,21,0002-00-0005-37.png,0001-00-0004-28.png
00000014,574,1,1442500993616,1442500993640,503,435,0,0,0,1,2,1,12,0001-00-0002-38.png,0002-00-0005-29.png
00000014,575,0,1442500994770,1442500995284,351,447,0,0,0,5,2,3,52,0005-00-0002-28.png,0002-00-0001-61.png
00000014,576,0,1442500996298,1442500996872,376,410,0,0,0,3,2,1,32,0003-00-0008-01.png,0002-00-0005-14.png
00000014,577,1,1442500997853,1442500998366,875,424,0,0,0,5,1,4,51,0005-00-0001-08.png,0001-00-0006-62.png
00000014,578,0,1442500999409,1442500999924,376,462,0,0,0,4,3,1,43,0004-00-0009-58.png,0003-00-0000-74.png
00000014,579,0,1442501000948,1442501001533,875,449,0,0,0,4,5,1,45,0004-00-0006-07.png,0005-00-0001-81.png
00000014,580,1,1442501002517,1442501003173,896,426,0,0,0,4,2,2,42,0004-00-0006-61.png,0002-00-0000-78.png
00000014,581,1,1442501004239,1442501004772,869,423,0,0,0,3,2,1,32,0003-00-0004-95.png,0002-00-0004-00.png
00000014,582,0,1442501005851,1442501006357,337,457,0,0,0,5,2,3,52,0005-00-0001-37.png,0002-00-0006-67.png
00000014,583,0,1442501007480,1442501007488,465,488,0,0,0,4,1,3,41,0004-00-0000-85.png,0001-00-0003-00.png
00000014,584,1,1442501008623,1442501009162,882,419,0,0,0,5,4,1,54,0005-00-0000-45.png,0004-00-0000-13.png
00000014,585,0,1442501010244,1442501011227,372,446,0,0,0,4,2,2,42,0004-00-0004-85.png,0002-00-0002-93.png
00000014,586,1,1442501012631,1442501013138,401,462,0,0,0,1,4,3,14,0001-00-0002-77.png,0004-00-0002-12.png
00000014,587,0,1442501014130,1442501014725,865,455,0,0,0,2,4,2,24,0002-00-0003-54.png,0004-00-0007-29.png
00000014,588,1,1442501015600,1442501015620,515,448,0,0,0,3,4,1,34,0003-00-0006-24.png,0004-00-0009-24.png
00000014,589,0,1442501016784,1442501017746,376,410,0,0,0,3,1,2,31,0003-00-0000-49.png,0001-00-0002-54.png
00000014,590,1,1442501018721,1442501019275,901,408,0,0,0,2,1,1,21,0002-00-0007-43.png,0001-00-0000-44.png
00000014,591,1,1442501020391,1442501020888,376,436,0,0,0,1,5,4,15,0001-00-0000-57.png,0005-00-0007-42.png
00000014,592,1,1442501022031,1442501022631,273,514,0,0,0,3,5,2,35,0003-00-0005-37.png,0005-00-0003-08.png
00000014,593,0,1442501023870,1442501024354,400,541,0,0,0,4,3,1,43,0004-00-0003-32.png,0003-00-0007-06.png
00000014,594,1,1442501025279,1442501025315,494,441,0,0,0,1,2,1,12,0001-00-0002-10.png,0002-00-0008-43.png
00000014,595,0,1442501026584,1442501027130,879,441,0,0,0,2,3,1,23,0002-00-0009-12.png,0003-00-0002-06.png
00000014,596,1,1442501028106,1442501028785,875,409,0,0,0,5,3,2,53,0005-00-0001-91.png,0003-00-0008-46.png
00000014,597,0,1442501029863,1442501030561,857,361,0,0,0,1,3,2,13,0001-00-0005-06.png,0003-00-0007-27.png
00000014,598,1,1442501031677,1442501031689,478,450,0,0,0,2,5,3,25,0002-00-0004-33.png,0005-00-0007-96.png
00000014,599,1,1442501032786,1442501033354,874,501,0,0,0,5,1,4,51,0005-00-0009-51.png,0001-00-0007-99.png
00000014,600,1,1442501034544,1442501035051,369,479,0,0,0,4,5,1,45,0004-00-0009-83.png,0005-00-0009-27.png
00000014,601,1,1442501036186,1442501036691,376,424,0,0,0,3,5,2,35,0003-00-0006-00.png,0005-00-0004-68.png
00000014,602,1,1442501037935,1442501038562,874,413,0,0,0,5,3,2,53,0005-00-0009-37.png,0003-00-0009-33.png
00000014,603,1,1442501040044,1442501040630,401,449,0,0,0,2,5,3,25,0002-00-0005-04.png,0005-00-0009-63.png
00000014,604,1,1442501041834,1442501042358,879,428,0,0,0,3,2,1,32,0003-00-0000-55.png,0002-00-0000-93.png
00000014,605,0,1442501043791,1442501044276,376,449,0,0,0,5,2,3,52,0005-00-0003-38.png,0002-00-0001-46.png
00000014,606,0,1442501045233,1442501045305,490,532,0,0,0,4,3,1,43,0004-00-0003-98.png,0003-00-0001-06.png
00000014,607,1,1442501046389,1442501046874,361,450,0,0,0,1,2,1,12,0001-00-0006-34.png,0002-00-0002-40.png
00000014,608,1,1442501047974,1442501048555,349,446,0,0,0,1,5,4,15,0001-00-0009-91.png,0005-00-0006-72.png
00000014,609,1,1442501049964,1442501050932,342,453,0,0,0,4,5,1,45,0004-00-0001-66.png,0005-00-0008-93.png
00000014,610,1,1442501051989,1442501052596,875,449,0,0,0,3,1,2,31,0003-00-0007-51.png,0001-00-0009-43.png
00000014,611,0,1442501053967,1442501054498,875,437,0,0,0,2,3,1,23,0002-00-0007-43.png,0003-00-0005-71.png
00000014,612,1,1442501055600,1442501055604,513,454,0,0,0,2,4,2,24,0002-00-0000-14.png,0004-00-0000-46.png
00000014,613,1,1442501056960,1442501057455,871,509,0,0,0,4,1,3,41,0004-00-0004-76.png,0001-00-0008-05.png
00000014,614,0,1442501059024,1442501059596,340,448,0,0,0,5,4,1,54,0005-00-0001-68.png,0004-00-0002-01.png
00000014,615,1,1442501060536,1442501061082,324,430,0,0,0,1,4,3,14,0001-00-0003-27.png,0004-00-0005-33.png
00000014,616,0,1442501062190,1442501062757,892,426,0,0,0,1,3,2,13,0001-00-0007-89.png,0003-00-0002-86.png
00000014,617,0,1442501063747,1442501063771,505,472,0,0,0,2,1,1,21,0002-00-0005-61.png,0001-00-0007-80.png
00000014,618,0,1442501067515,1442501068040,376,435,0,0,0,4,2,2,42,0004-00-0006-79.png,0002-00-0008-61.png
00000014,619,1,1442501069103,1442501070200,896,550,0,0,0,5,1,4,51,0005-00-0001-63.png,0001-00-0000-38.png
00000014,620,1,1442501071390,1442501071888,343,462,0,0,0,3,4,1,34,0003-00-0001-45.png,0004-00-0003-82.png
00000014,621,1,1442501073101,1442501073661,877,443,0,0,0,3,1,2,31,0003-00-0001-17.png,0001-00-0000-86.png
00000014,622,0,1442501074820,1442501075914,904,454,0,0,0,4,5,1,45,0004-00-0001-12.png,0005-00-0006-43.png
00000014,623,1,1442501077685,1442501078165,411,411,0,0,0,2,5,3,25,0002-00-0004-56.png,0005-00-0001-23.png
00000014,624,0,1442501079242,1442501079807,880,427,0,0,0,1,4,3,14,0001-00-0001-10.png,0004-00-0004-06.png
00000014,625,1,1442501081041,1442501081568,875,514,0,0,0,5,1,4,51,0005-00-0009-75.png,0001-00-0002-17.png
00000014,626,0,1442501082689,1442501083225,880,418,0,0,0,3,4,1,34,0003-00-0004-66.png,0004-00-0007-23.png
00000014,627,0,1442501084188,1442501084676,901,449,0,0,0,2,4,2,24,0002-00-0002-70.png,0004-00-0000-66.png
00000014,628,1,1442501085812,1442501086301,872,535,0,0,0,5,3,2,53,0005-00-0005-31.png,0003-00-0004-03.png
00000014,629,1,1442501087462,1442501088542,900,410,0,0,0,5,2,3,52,0005-00-0004-06.png,0002-00-0001-60.png
00000014,630,1,1442501089734,1442501090271,875,410,0,0,0,2,1,1,21,0002-00-0008-45.png,0001-00-0009-58.png
00000014,631,0,1442501091394,1442501091969,393,522,0,0,0,4,1,3,41,0004-00-0000-49.png,0001-00-0005-77.png
00000014,632,0,1442501093118,1442501093621,891,495,0,0,0,2,3,1,23,0002-00-0001-91.png,0003-00-0002-59.png
00000014,633,0,1442501094519,1442501094575,504,510,0,0,0,4,3,1,43,0004-00-0001-27.png,0003-00-0001-21.png
00000014,634,1,1442501096695,1442501097199,401,410,0,0,0,1,3,2,13,0001-00-0005-96.png,0003-00-0003-39.png
00000014,635,0,1442501098297,1442501098838,872,492,0,0,0,1,5,4,15,0001-00-0000-43.png,0005-00-0004-96.png
00000014,636,1,1442501099856,1442501099884,514,468,0,0,0,3,5,2,35,0003-00-0007-27.png,0005-00-0002-27.png
00000014,637,1,1442501101119,1442501101610,887,424,0,0,0,3,2,1,32,0003-00-0006-69.png,0002-00-0002-85.png
00000014,638,1,1442501102781,1442501107493,931,472,0,0,0,4,2,2,42,0004-00-0004-34.png,0002-00-0007-14.png
00000014,639,1,1442501108644,1442501109166,901,439,0,0,0,5,4,1,54,0005-00-0009-58.png,0004-00-0009-55.png
00000014,640,1,1442501110344,1442501110889,336,453,0,0,0,1,2,1,12,0001-00-0009-72.png,0002-00-0002-60.png
00000014,641,1,1442501112022,1442501112535,416,555,0,0,0,1,2,1,12,0001-00-0005-90.png,0002-00-0004-78.png
00000014,642,1,1442501113652,1442501114612,427,436,0,0,0,2,4,2,24,0002-00-0007-52.png,0004-00-0003-66.png
00000014,643,0,1442501115650,1442501116227,378,452,0,0,0,3,1,2,31,0003-00-0002-14.png,0001-00-0009-36.png
00000014,644,1,1442501118791,1442501119261,357,410,0,0,0,2,5,3,25,0002-00-0000-32.png,0005-00-0004-15.png
00000014,645,1,1442501120371,1442501120906,318,489,0,0,0,4,5,1,45,0004-00-0002-19.png,0005-00-0002-99.png
00000014,646,0,1442501121921,1442501123075,913,410,0,0,0,3,4,1,34,0003-00-0000-99.png,0004-00-0002-48.png
00000014,647,1,1442501124030,1442501124557,885,439,0,0,0,5,1,4,51,0005-00-0007-34.png,0001-00-0001-90.png
00000014,648,1,1442501125708,1442501126211,394,531,0,0,0,1,3,2,13,0001-00-0009-85.png,0003-00-0000-23.png
00000014,649,1,1442501127329,1442501127888,865,430,0,0,0,5,2,3,52,0005-00-0007-79.png,0002-00-0005-24.png
00000014,650,0,1442501129260,1442501129713,392,454,0,0,0,3,2,1,32,0003-00-0005-39.png,0002-00-0009-81.png
00000014,651,1,1442501131374,1442501131921,877,414,0,0,0,2,1,1,21,0002-00-0001-45.png,0001-00-0000-82.png
00000014,652,0,1442501132985,1442501133614,327,376,0,0,0,4,1,3,41,0004-00-0008-60.png,0001-00-0009-62.png
00000014,653,1,1442501135830,1442501136364,902,443,0,0,0,4,2,2,42,0004-00-0008-82.png,0002-00-0009-81.png
00000014,654,0,1442501137477,1442501138420,299,398,0,0,0,5,3,2,53,0005-00-0005-31.png,0003-00-0001-10.png
00000014,655,1,1442501139411,1442501140187,416,522,0,0,0,2,3,1,23,0002-00-0009-44.png,0003-00-0003-27.png
00000014,656,1,1442501141223,1442501142128,388,525,0,0,0,3,5,2,35,0003-00-0008-56.png,0005-00-0005-62.png
00000014,657,0,1442501143231,1442501143745,363,482,0,0,0,4,3,1,43,0004-00-0000-70.png,0003-00-0001-20.png
00000014,658,1,1442501147077,1442501147577,406,441,0,0,0,1,4,3,14,0001-00-0004-37.png,0004-00-0003-47.png
00000014,659,1,1442501148669,1442501149116,342,468,0,0,0,1,5,4,15,0001-00-0006-62.png,0005-00-0002-46.png
00000014,660,0,1442501150350,1442501151209,376,488,0,0,0,5,4,1,54,0005-00-0004-60.png,0004-00-0006-05.png
00000014,661,0,1442501154324,1442501154798,385,474,0,0,0,4,2,2,42,0004-00-0005-39.png,0002-00-0003-64.png
00000014,662,1,1442501155786,1442501155790,510,446,0,0,0,2,4,2,24,0002-00-0005-26.png,0004-00-0003-68.png
00000014,663,1,1442501156849,1442501157353,401,410,0,0,0,1,2,1,12,0001-00-0002-36.png,0002-00-0005-69.png
00000014,664,0,1442501158407,1442501159348,367,402,0,0,0,2,1,1,21,0002-00-0005-03.png,0001-00-0005-63.png
00000014,665,0,1442501161496,1442501161993,416,522,0,0,0,3,2,1,32,0003-00-0007-74.png,0002-00-0001-77.png
00000014,666,1,1442501163008,1442501163532,890,442,0,0,0,4,3,1,43,0004-00-0000-86.png,0003-00-0009-94.png
00000014,667,1,1442501164580,1442501165035,376,410,0,0,0,1,3,2,13,0001-00-0002-85.png,0003-00-0008-53.png
00000014,668,0,1442501166171,1442501166723,342,462,0,0,0,5,2,3,52,0005-00-0006-57.png,0002-00-0000-59.png
00000014,669,0,1442501167741,1442501168300,299,383,0,0,0,4,1,3,41,0004-00-0009-27.png,0001-00-0007-86.png
00000014,670,1,1442501170578,1442501171006,900,449,0,0,0,3,1,2,31,0003-00-0007-80.png,0001-00-0004-98.png
00000014,671,1,1442501172072,1442501172551,383,456,0,0,0,2,5,3,25,0002-00-0007-67.png,0005-00-0008-57.png
00000014,672,1,1442501173683,1442501174196,879,427,0,0,0,5,1,4,51,0005-00-0000-45.png,0001-00-0001-51.png
00000014,673,0,1442501175375,1442501175889,880,446,0,0,0,2,3,1,23,0002-00-0003-19.png,0003-00-0007-00.png
00000014,674,1,1442501177239,1442501177702,411,549,0,0,0,1,5,4,15,0001-00-0005-48.png,0005-00-0006-82.png
00000014,675,1,1442501179298,1442501180158,427,491,0,0,0,3,5,2,35,0003-00-0000-10.png,0005-00-0009-99.png
00000014,676,0,1442501181290,1442501181790,369,460,0,0,0,5,3,2,53,0005-00-0001-13.png,0003-00-0008-00.png
00000014,677,0,1442501184418,1442501184876,858,553,0,0,0,3,4,1,34,0003-00-0008-86.png,0004-00-0005-37.png
00000014,678,1,1442501185797,1442501185817,494,415,0,0,0,1,4,3,14,0001-00-0009-41.png,0004-00-0003-47.png
00000014,679,1,1442501187231,1442501187714,424,445,0,0,0,4,5,1,45,0004-00-0007-33.png,0005-00-0001-23.png
00000014,680,0,1442501188800,1442501189660,362,449,0,0,0,5,4,1,54,0005-00-0005-48.png,0004-00-0002-67.png
00000014,681,0,1442501192089,1442501192512,876,548,0,0,0,2,4,2,24,0002-00-0009-42.png,0004-00-0002-48.png
00000014,682,1,1442501193571,1442501194035,374,475,0,0,0,2,5,3,25,0002-00-0002-86.png,0005-00-0004-92.png
00000014,683,1,1442501195044,1442501195619,867,405,0,0,0,4,1,3,41,0004-00-0004-79.png,0001-00-0006-07.png
00000014,684,1,1442501196653,1442501197132,384,446,0,0,0,1,3,2,13,0001-00-0003-26.png,0003-00-0009-14.png
00000014,685,1,1442501198392,1442501198938,395,435,0,0,0,2,3,1,23,0002-00-0008-52.png,0003-00-0004-81.png
00000014,686,1,1442501200320,1442501200826,401,462,0,0,0,1,2,1,12,0001-00-0005-12.png,0002-00-0002-55.png
00000014,687,0,1442501202038,1442501203066,434,443,0,0,0,5,4,1,54,0005-00-0003-96.png,0004-00-0006-31.png
00000014,688,1,1442501204084,1442501204160,504,541,0,0,0,3,4,1,34,0003-00-0002-93.png,0004-00-0001-47.png
00000014,689,0,1442501205271,1442501206127,401,410,0,0,0,5,3,2,53,0005-00-0009-67.png,0003-00-0006-34.png
00000014,690,1,1442501207793,1442501208237,888,410,0,0,0,3,1,2,31,0003-00-0008-63.png,0001-00-0005-85.png
00000014,691,0,1442501209256,1442501210285,467,473,0,0,0,4,2,2,42,0004-00-0004-76.png,0002-00-0003-96.png
00000014,692,0,1442501211428,1442501211929,319,446,0,0,0,3,2,1,32,0003-00-0009-30.png,0002-00-0001-82.png
00000014,693,1,1442501212961,1442501213449,367,446,0,0,0,3,5,2,35,0003-00-0008-27.png,0005-00-0007-13.png
00000014,694,1,1442501214502,1442501215061,339,494,0,0,0,1,4,3,14,0001-00-0005-04.png,0004-00-0004-28.png
00000014,695,1,1442501216139,1442501217141,901,522,0,0,0,4,3,1,43,0004-00-0008-33.png,0003-00-0005-32.png
00000014,696,0,1442501218391,1442501219369,401,461,0,0,0,5,1,4,51,0005-00-0000-72.png,0001-00-0004-23.png
00000014,697,1,1442501220340,1442501220344,486,444,0,0,0,1,5,4,15,0001-00-0005-18.png,0005-00-0000-32.png
00000014,698,1,1442501221422,1442501222449,875,437,0,0,0,5,2,3,52,0005-00-0004-81.png,0002-00-0008-12.png
00000014,699,1,1442501223467,1442501224013,857,417,0,0,0,2,1,1,21,0002-00-0006-04.png,0001-00-0004-63.png
00000014,700,1,1442501225119,1442501225680,336,453,0,0,0,4,5,1,45,0004-00-0005-21.png,0005-00-0002-24.png
00000014,701,0,1442501226759,1442501227370,345,447,0,0,0,5,1,4,51,0005-00-0006-42.png,0001-00-0001-68.png
00000014,702,0,1442501228718,1442501228742,517,478,0,0,0,4,2,2,42,0004-00-0004-18.png,0002-00-0008-90.png
00000014,703,1,1442501229925,1442501230453,325,476,0,0,0,3,4,1,34,0003-00-0007-82.png,0004-00-0001-78.png
00000014,704,0,1442501231460,1442501232385,360,397,0,0,0,5,2,3,52,0005-00-0002-27.png,0002-00-0009-45.png
00000014,705,1,1442501233409,1442501233968,878,464,0,0,0,3,1,2,31,0003-00-0006-61.png,0001-00-0004-95.png
00000014,706,1,1442501234998,1442501235544,319,473,0,0,0,1,3,2,13,0001-00-0006-31.png,0003-00-0003-95.png
00000014,707,0,1442501236589,1442501237467,401,384,0,0,0,4,3,1,43,0004-00-0000-30.png,0003-00-0006-87.png
00000014,708,1,1442501238518,1442501238522,516,471,0,0,0,1,4,3,14,0001-00-0005-32.png,0004-00-0000-43.png
00000014,709,0,1442501239670,1442501240132,325,476,0,0,0,2,1,1,21,0002-00-0000-25.png,0001-00-0009-99.png
00000014,710,1,1442501241140,1442501241667,865,508,0,0,0,5,3,2,53,0005-00-0002-54.png,0003-00-0001-26.png
00000014,711,0,1442501242720,1442501243303,325,462,0,0,0,5,4,1,54,0005-00-0007-49.png,0004-00-0008-11.png
00000014,712,1,1442501244241,1442501244253,481,456,0,0,0,2,4,2,24,0002-00-0005-68.png,0004-00-0000-08.png
00000014,713,1,1442501245354,1442501245838,353,453,0,0,0,2,5,3,25,0002-00-0006-08.png,0005-00-0007-39.png
00000014,714,0,1442501247025,1442501248004,401,410,0,0,0,3,2,1,32,0003-00-0006-31.png,0002-00-0004-45.png
00000014,715,1,1442501249040,1442501249597,378,442,0,0,0,1,2,1,12,0001-00-0001-77.png,0002-00-0006-48.png
00000014,716,1,1442501250880,1442501251853,401,423,0,0,0,3,5,2,35,0003-00-0005-51.png,0005-00-0000-13.png
00000014,717,1,1442501252946,1442501253469,360,471,0,0,0,2,3,1,23,0002-00-0008-75.png,0003-00-0005-33.png
00000014,718,1,1442501254587,1442501255070,391,528,0,0,0,1,5,4,15,0001-00-0009-08.png,0005-00-0009-19.png
00000014,719,1,1442501256251,1442501256743,866,510,0,0,0,4,1,3,41,0004-00-0009-86.png,0001-00-0003-47.png
00000014,720,1,1442501258123,1442501258595,347,447,0,0,0,4,5,1,45,0004-00-0008-87.png,0005-00-0008-69.png
00000014,721,1,1442501259786,1442501260324,376,453,0,0,0,1,4,3,14,0001-00-0003-30.png,0004-00-0004-19.png
00000014,722,0,1442501261834,1442501262622,394,453,0,0,0,5,1,4,51,0005-00-0003-65.png,0001-00-0003-78.png
00000014,723,1,1442501263642,1442501263678,503,513,0,0,0,1,5,4,15,0001-00-0005-95.png,0005-00-0008-71.png
00000014,724,1,1442501265025,1442501266398,873,436,0,0,0,3,1,2,31,0003-00-0009-62.png,0001-00-0005-19.png
00000014,725,0,1442501267535,1442501268498,401,410,0,0,0,5,4,1,54,0005-00-0004-10.png,0004-00-0000-73.png
00000014,726,1,1442501269532,1442501269987,397,446,0,0,0,3,5,2,35,0003-00-0005-07.png,0005-00-0000-37.png
00000014,727,1,1442501271017,1442501271614,361,453,0,0,0,2,4,2,24,0002-00-0002-66.png,0004-00-0000-92.png
00000014,728,0,1442501272787,1442501273309,414,449,0,0,0,4,1,3,41,0004-00-0004-60.png,0001-00-0003-75.png
00000014,729,1,1442501274397,1442501274413,495,459,0,0,0,2,5,3,25,0002-00-0007-91.png,0005-00-0003-58.png
00000014,730,1,1442501276062,1442501277099,925,404,0,0,0,5,2,3,52,0005-00-0001-01.png,0002-00-0000-09.png
00000014,731,0,1442501278649,1442501279176,867,427,0,0,0,3,4,1,34,0003-00-0002-19.png,0004-00-0004-73.png
00000014,732,1,1442501280172,1442501280828,914,443,0,0,0,4,2,2,42,0004-00-0002-84.png,0002-00-0006-78.png
00000014,733,1,1442501281863,1442501282506,865,429,0,0,0,4,3,1,43,0004-00-0001-36.png,0003-00-0000-32.png
00000014,734,1,1442501283602,1442501284145,900,515,0,0,0,5,3,2,53,0005-00-0002-68.png,0003-00-0008-18.png
00000014,735,1,1442501285550,1442501286064,337,457,0,0,0,1,3,2,13,0001-00-0000-49.png,0003-00-0005-50.png
00000014,736,0,1442501287278,1442501287809,887,454,0,0,0,2,3,1,23,0002-00-0003-51.png,0003-00-0008-60.png
00000014,737,1,1442501288797,1442501288833,463,488,0,0,0,1,2,1,12,0001-00-0002-13.png,0002-00-0005-34.png
00000014,738,1,1442501290052,1442501291029,913,398,0,0,0,2,1,1,21,0002-00-0001-44.png,0001-00-0003-66.png
00000014,739,1,1442501292326,1442501292871,344,447,0,0,0,4,5,1,45,0004-00-0004-92.png,0005-00-0008-27.png
00000014,740,1,1442501294097,1442501294695,879,401,0,0,0,3,2,1,32,0003-00-0001-41.png,0002-00-0000-68.png
00000014,741,0,1442501296037,1442501297046,410,539,0,0,0,4,2,2,42,0004-00-0006-58.png,0002-00-0002-37.png
00000014,742,1,1442501298093,1442501298121,504,474,0,0,0,1,2,1,12,0001-00-0009-06.png,0002-00-0005-29.png
00000014,743,0,1442501299346,1442501299902,391,456,0,0,0,5,4,1,54,0005-00-0003-42.png,0004-00-0002-43.png
00000014,744,1,1442501300836,1442501301340,376,450,0,0,0,2,4,2,24,0002-00-0004-65.png,0004-00-0002-25.png
00000014,745,1,1442501302565,1442501303110,878,428,0,0,0,4,3,1,43,0004-00-0006-13.png,0003-00-0006-49.png
00000014,746,1,1442501304477,1442501305566,903,429,0,0,0,4,1,3,41,0004-00-0000-57.png,0001-00-0004-24.png
00000014,747,1,1442501306760,1442501307355,421,540,0,0,0,3,5,2,35,0003-00-0007-48.png,0005-00-0009-42.png
00000014,748,0,1442501308649,1442501309730,383,446,0,0,0,5,2,3,52,0005-00-0001-53.png,0002-00-0007-76.png
00000014,749,1,1442501310632,1442501311248,859,428,0,0,0,3,1,2,31,0003-00-0002-69.png,0001-00-0009-60.png
00000014,750,1,1442501312328,1442501312808,406,565,0,0,0,1,4,3,14,0001-00-0002-94.png,0004-00-0005-25.png
00000014,751,1,1442501314033,1442501314661,401,449,0,0,0,4,5,1,45,0004-00-0008-77.png,0005-00-0007-11.png
00000014,752,1,1442501315791,1442501316369,412,560,0,0,0,1,5,4,15,0001-00-0001-39.png,0005-00-0001-44.png
00000014,753,0,1442501317956,1442501318839,419,545,0,0,0,3,2,1,32,0003-00-0004-00.png,0002-00-0002-09.png
00000014,754,1,1442501319928,1442501319944,507,462,0,0,0,3,4,1,34,0003-00-0006-05.png,0004-00-0005-13.png
00000014,755,0,1442501321065,1442501322035,435,445,0,0,0,5,1,4,51,0005-00-0000-87.png,0001-00-0000-21.png
00000014,756,1,1442501323071,1442501323575,346,466,0,0,0,2,5,3,25,0002-00-0008-87.png,0005-00-0005-52.png
00000014,757,0,1442501324661,1442501325269,872,482,0,0,0,2,3,1,23,0002-00-0004-01.png,0003-00-0001-57.png
00000014,758,1,1442501326260,1442501327250,877,431,0,0,0,5,3,2,53,0005-00-0006-79.png,0003-00-0001-05.png
00000014,759,1,1442501328291,1442501328825,859,394,0,0,0,2,1,1,21,0002-00-0007-06.png,0001-00-0000-15.png
00000014,760,1,1442501330039,1442501330487,318,448,0,0,0,1,3,2,13,0001-00-0004-69.png,0003-00-0006-00.png
00000014,761,1,1442501331580,1442501332627,407,437,0,0,0,1,3,2,13,0001-00-0004-22.png,0003-00-0009-88.png
00000014,762,1,1442501333737,1442501335271,927,540,0,0,0,5,1,4,51,0005-00-0000-91.png,0001-00-0003-04.png
00000014,763,0,1442501336274,1442501336857,862,436,0,0,0,1,2,1,12,0001-00-0005-65.png,0002-00-0004-82.png
00000014,764,0,1442501338343,1442501339288,912,425,0,0,0,4,5,1,45,0004-00-0002-93.png,0005-00-0004-71.png
00000014,765,0,1442501340222,1442501340759,333,467,0,0,0,5,3,2,53,0005-00-0004-87.png,0003-00-0009-68.png
00000014,766,0,1442501342135,1442501342240,476,566,0,0,0,4,3,1,43,0004-00-0008-39.png,0003-00-0004-33.png
00000014,767,1,1442501344778,1442501345691,946,397,0,0,0,5,2,3,52,0005-00-0005-50.png,0002-00-0007-10.png
00000014,768,1,1442501346776,1442501347276,345,464,0,0,0,3,5,2,35,0003-00-0001-15.png,0005-00-0007-81.png
00000014,769,1,1442501348304,1442501349306,427,410,0,0,0,1,4,3,14,0001-00-0002-27.png,0004-00-0007-97.png
00000014,770,1,1442501350306,1442501351205,373,412,0,0,0,1,5,4,15,0001-00-0005-71.png,0005-00-0007-80.png
00000014,771,0,1442501352492,1442501353016,873,438,0,0,0,2,5,3,25,0002-00-0006-28.png,0005-00-0003-05.png
00000014,772,1,1442501354095,1442501354614,401,450,0,0,0,2,4,2,24,0002-00-0000-20.png,0004-00-0003-68.png
00000014,773,0,1442501355620,1442501356611,332,419,0,0,0,4,2,2,42,0004-00-0005-44.png,0002-00-0003-06.png
00000014,774,1,1442501357949,1442501358459,879,453,0,0,0,3,1,2,31,0003-00-0002-71.png,0001-00-0009-23.png
00000014,775,1,1442501359788,1442501360234,879,426,0,0,0,4,1,3,41,0004-00-0009-10.png,0001-00-0002-09.png
00000014,776,0,1442501361337,1442501361808,376,450,0,0,0,3,2,1,32,0003-00-0001-64.png,0002-00-0004-45.png
00000014,777,1,1442501362777,1442501363292,325,398,0,0,0,3,4,1,34,0003-00-0004-55.png,0004-00-0006-87.png
00000014,778,0,1442501364488,1442501365337,370,436,0,0,0,5,4,1,54,0005-00-0007-61.png,0004-00-0005-52.png
00000014,779,0,1442501366476,1442501366970,417,546,0,0,0,2,1,1,21,0002-00-0003-22.png,0001-00-0006-48.png
00000014,780,1,1442501368397,1442501368920,401,410,0,0,0,2,3,1,23,0002-00-0001-84.png,0003-00-0002-14.png
00000014,781,0,1442501370013,1442501370965,401,449,0,0,0,4,3,1,43,0004-00-0007-90.png,0003-00-0000-09.png
00000014,782,1,1442501371910,1442501372531,919,530,0,0,0,3,2,1,32,0003-00-0005-66.png,0002-00-0009-38.png
00000014,783,1,1442501373623,1442501374688,858,529,0,0,0,4,2,2,42,0004-00-0002-98.png,0002-00-0000-23.png
00000014,784,0,1442501375799,1442501376726,401,410,0,0,0,5,1,4,51,0005-00-0006-75.png,0001-00-0000-92.png
00000014,785,1,1442501377678,1442501378153,339,447,0,0,0,1,5,4,15,0001-00-0006-39.png,0005-00-0004-84.png
00000014,786,0,1442501379268,1442501380161,395,417,0,0,0,2,1,1,21,0002-00-0002-01.png,0001-00-0005-39.png
00000014,787,0,1442501381334,1442501381786,401,528,0,0,0,4,1,3,41,0004-00-0005-17.png,0001-00-0000-36.png
00000014,788,0,1442501384007,1442501384853,290,428,0,0,0,5,2,3,52,0005-00-0003-62.png,0002-00-0001-84.png
00000014,789,1,1442501385799,1442501385803,509,434,0,0,0,3,5,2,35,0003-00-0000-68.png,0005-00-0006-71.png
00000014,790,1,1442501386918,1442501387452,315,418,0,0,0,2,5,3,25,0002-00-0002-78.png,0005-00-0006-63.png
00000014,791,1,1442501388542,1442501389064,293,463,0,0,0,1,2,1,12,0001-00-0002-14.png,0002-00-0003-40.png
00000014,792,1,1442501390242,1442501390756,319,484,0,0,0,2,3,1,23,0002-00-0003-83.png,0003-00-0001-83.png
00000014,793,1,1442501391961,1442501392498,344,473,0,0,0,2,4,2,24,0002-00-0007-19.png,0004-00-0002-85.png
00000014,794,1,1442501394116,1442501394564,364,421,0,0,0,1,3,2,13,0001-00-0000-29.png,0003-00-0002-55.png
00000014,795,1,1442501396321,1442501396894,899,359,0,0,0,5,3,2,53,0005-00-0006-42.png,0003-00-0000-26.png
00000014,796,1,1442501398420,1442501398980,860,429,0,0,0,5,4,1,54,0005-00-0001-03.png,0004-00-0002-55.png
00000014,797,1,1442501400039,1442501400076,504,474,0,0,0,1,4,3,14,0001-00-0004-78.png,0004-00-0004-84.png
00000014,798,1,1442501401454,1442501401948,343,468,0,0,0,4,5,1,45,0004-00-0000-68.png,0005-00-0007-48.png
00000014,799,1,1442501403299,1442501404334,874,410,0,0,0,3,1,2,31,0003-00-0003-09.png,0001-00-0000-55.png
00000014,800,1,1442501405667,1442501406564,401,423,0,0,0,3,4,1,34,0003-00-0001-93.png,0004-00-0008-36.png
00000014,801,1,1442501407644,1442501408178,367,443,0,0,0,4,5,1,45,0004-00-0000-38.png,0005-00-0005-03.png
00000014,802,1,1442501409406,1442501409968,376,449,0,0,0,2,5,3,25,0002-00-0003-29.png,0005-00-0007-91.png
00000014,803,0,1442501411200,1442501412125,383,419,0,0,0,3,2,1,32,0003-00-0007-22.png,0002-00-0009-32.png
00000014,804,1,1442501413092,1442501413563,326,446,0,0,0,2,4,2,24,0002-00-0002-70.png,0004-00-0006-45.png
00000014,805,1,1442501414580,1442501415594,895,420,0,0,0,4,1,3,41,0004-00-0007-78.png,0001-00-0006-37.png
00000014,806,0,1442501416847,1442501417468,406,461,0,0,0,5,4,1,54,0005-00-0000-52.png,0004-00-0006-95.png
00000014,807,1,1442501418567,1442501419042,413,554,0,0,0,1,2,1,12,0001-00-0008-77.png,0002-00-0002-92.png
00000014,808,1,1442501420168,1442501420683,375,462,0,0,0,3,4,1,34,0003-00-0002-48.png,0004-00-0009-56.png
00000014,809,1,1442501421818,1442501422837,440,538,0,0,0,1,3,2,13,0001-00-0006-86.png,0003-00-0002-97.png
00000014,810,1,1442501423895,1442501424490,371,473,0,0,0,1,5,4,15,0001-00-0007-31.png,0005-00-0006-87.png
00000014,811,0,1442501425782,1442501426643,342,427,0,0,0,5,3,2,53,0005-00-0002-36.png,0003-00-0003-48.png
00000014,812,0,1442501427721,1442501427729,484,465,0,0,0,4,3,1,43,0004-00-0009-20.png,0003-00-0008-71.png
00000014,813,0,1442501429927,1442501430453,387,466,0,0,0,2,1,1,21,0002-00-0002-28.png,0001-00-0009-93.png
00000014,814,1,1442501431496,1442501431962,335,452,0,0,0,2,3,1,23,0002-00-0005-37.png,0003-00-0002-72.png
00000014,815,1,1442501432975,1442501433469,333,471,0,0,0,1,4,3,14,0001-00-0004-40.png,0004-00-0006-97.png
00000014,816,0,1442501434709,1442501435548,350,436,0,0,0,5,1,4,51,0005-00-0005-86.png,0001-00-0008-43.png
00000014,817,1,1442501436990,1442501437522,903,394,0,0,0,4,2,2,42,0004-00-0009-70.png,0002-00-0004-02.png
00000014,818,0,1442501438980,1442501439016,504,558,0,0,0,5,2,3,52,0005-00-0005-93.png,0002-00-0006-26.png
00000014,819,0,1442501440117,1442501440161,504,514,0,0,0,3,1,2,31,0003-00-0002-36.png,0001-00-0004-59.png
00000014,820,1,1442501442301,1442501442735,350,462,0,0,0,3,5,2,35,0003-00-0008-33.png,0005-00-0000-51.png
00000014,821,1,1442501443763,1442501444305,875,502,0,0,0,5,1,4,51,0005-00-0005-44.png,0001-00-0006-62.png
00000014,822,1,1442501445412,1442501445891,333,451,0,0,0,1,2,1,12,0001-00-0003-15.png,0002-00-0003-30.png
00000014,823,1,1442501447103,1442501447711,395,480,0,0,0,2,4,2,24,0002-00-0007-25.png,0004-00-0009-96.png
00000014,824,0,1442501448838,1442501449314,364,476,0,0,0,2,1,1,21,0002-00-0000-41.png,0001-00-0007-96.png
00000014,825,1,1442501451138,1442501451572,350,437,0,0,0,2,5,3,25,0002-00-0006-99.png,0005-00-0008-87.png
00000014,826,0,1442501452578,1442501453594,337,464,0,0,0,4,2,2,42,0004-00-0004-73.png,0002-00-0000-03.png
00000014,827,1,1442501454525,1442501455017,325,449,0,0,0,4,5,1,45,0004-00-0000-83.png,0005-00-0001-69.png
00000014,828,1,1442501456471,1442501456986,427,449,0,0,0,2,3,1,23,0002-00-0004-34.png,0003-00-0004-32.png
00000014,829,1,1442501458141,1442501458680,404,440,0,0,0,1,5,4,15,0001-00-0009-67.png,0005-00-0007-52.png
00000014,830,1,1442501459883,1442501460934,896,401,0,0,0,4,1,3,41,0004-00-0004-24.png,0001-00-0008-84.png
00000014,831,1,1442501462068,1442501462645,380,446,0,0,0,1,4,3,14,0001-00-0002-23.png,0004-00-0008-85.png
00000014,832,1,1442501463741,1442501464780,894,417,0,0,0,3,1,2,31,0003-00-0005-98.png,0001-00-0005-07.png
00000014,833,1,1442501465906,1442501466483,862,410,0,0,0,5,2,3,52,0005-00-0004-90.png,0002-00-0004-44.png
00000014,834,0,1442501467655,1442501468155,341,464,0,0,0,5,3,2,53,0005-00-0001-35.png,0003-00-0007-81.png
00000014,835,1,1442501469215,1442501469235,495,456,0,0,0,1,3,2,13,0001-00-0004-46.png,0003-00-0009-69.png
00000014,836,0,1442501470389,1442501470874,338,457,0,0,0,4,3,1,43,0004-00-0005-29.png,0003-00-0007-21.png
00000014,837,0,1442501472445,1442501472987,861,515,0,0,0,3,5,2,35,0003-00-0006-98.png,0005-00-0008-36.png
00000014,838,0,1442501474076,1442501474086,498,443,0,0,0,5,4,1,54,0005-00-0000-36.png,0004-00-0007-83.png
00000014,839,0,1442501475617,1442501476090,864,484,0,0,0,3,4,1,34,0003-00-0009-36.png,0004-00-0005-19.png
00000014,840,1,1442501477068,1442501477684,898,485,0,0,0,3,2,1,32,0003-00-0008-78.png,0002-00-0002-68.png
00000014,841,1,1442501478689,1442501478725,494,462,0,0,0,1,4,3,14,0001-00-0003-62.png,0004-00-0007-29.png
00000014,842,0,1442501480081,1442501480563,361,451,0,0,0,5,1,4,51,0005-00-0004-52.png,0001-00-0000-90.png
00000014,843,1,1442501481539,1442501481551,484,483,0,0,0,4,5,1,45,0004-00-0001-94.png,0005-00-0005-82.png
00000014,844,1,1442501482591,1442501483164,421,444,0,0,0,2,5,3,25,0002-00-0004-67.png,0005-00-0006-50.png
00000014,845,1,1442501484425,1442501484920,862,502,0,0,0,2,1,1,21,0002-00-0003-59.png,0001-00-0003-91.png
00000014,846,1,1442501486131,1442501486617,337,443,0,0,0,1,2,1,12,0001-00-0006-39.png,0002-00-0005-32.png
00000014,847,1,1442501487744,1442501489254,896,453,0,0,0,5,2,3,52,0005-00-0006-02.png,0002-00-0009-01.png
00000014,848,0,1442501490308,1442501490779,427,436,0,0,0,3,1,2,31,0003-00-0007-56.png,0001-00-0009-86.png
00000014,849,1,1442501491908,1442501491932,502,508,0,0,0,1,5,4,15,0001-00-0001-42.png,0005-00-0003-02.png
00000014,850,0,1442501493210,1442501493725,388,473,0,0,0,5,4,1,54,0005-00-0003-17.png,0004-00-0004-65.png
00000014,851,1,1442501494662,1442501495220,893,496,0,0,0,4,3,1,43,0004-00-0000-80.png,0003-00-0007-72.png
00000014,852,1,1442501496290,1442501496886,398,439,0,0,0,3,4,1,34,0003-00-0004-57.png,0004-00-0004-98.png
00000014,853,1,1442501498020,1442501498565,248,504,0,0,0,3,5,2,35,0003-00-0008-12.png,0005-00-0001-85.png
00000014,854,1,1442501499678,1442501500586,443,519,0,0,0,2,3,1,23,0002-00-0007-04.png,0003-00-0009-45.png
00000014,855,1,1442501502265,1442501502749,876,494,0,0,0,5,3,2,53,0005-00-0003-40.png,0003-00-0006-75.png
00000014,856,0,1442501503905,1442501504407,388,439,0,0,0,4,1,3,41,0004-00-0003-36.png,0001-00-0008-07.png
00000014,857,0,1442501505386,1442501506017,942,430,0,0,0,2,4,2,24,0002-00-0005-91.png,0004-00-0006-78.png
00000014,858,0,1442501506997,1442501507013,513,447,0,0,0,4,2,2,42,0004-00-0002-62.png,0002-00-0003-67.png
00000014,859,0,1442501509693,1442501510148,397,514,0,0,0,3,2,1,32,0003-00-0000-78.png,0002-00-0008-85.png
00000014,860,1,1442501511119,1442501511135,472,450,0,0,0,1,3,2,13,0001-00-0000-05.png,0003-00-0001-40.png
00000014,861,0,1442501512202,1442501512726,358,460,0,0,0,2,1,1,21,0002-00-0003-94.png,0001-00-0006-94.png
00000014,862,1,1442501513594,1442501513614,478,449,0,0,0,2,4,2,24,0002-00-0002-31.png,0004-00-0001-55.png
00000014,863,0,1442501514817,1442501515306,361,480,0,0,0,5,2,3,52,0005-00-0004-06.png,0002-00-0003-03.png
00000014,864,1,1442501516259,1442501516793,394,446,0,0,0,2,3,1,23,0002-00-0003-39.png,0003-00-0008-33.png
00000014,865,1,1442501517859,1442501518387,350,462,0,0,0,1,4,3,14,0001-00-0006-32.png,0004-00-0006-54.png
00000014,866,1,1442501519504,1442501520002,344,450,0,0,0,1,5,4,15,0001-00-0005-03.png,0005-00-0008-82.png
00000014,867,1,1442501521572,1442501521612,478,476,0,0,0,3,5,2,35,0003-00-0003-35.png,0005-00-0008-69.png
00000014,868,0,1442501522848,1442501523852,403,515,0,0,0,5,3,2,53,0005-00-0007-13.png,0003-00-0006-58.png
00000014,869,0,1442501527209,1442501527705,325,439,0,0,0,4,1,3,41,0004-00-0006-36.png,0001-00-0003-71.png
00000014,870,1,1442501528529,1442501528978,368,433,0,0,0,2,5,3,25,0002-00-0005-30.png,0005-00-0000-04.png
00000014,871,0,1442501530399,1442501531289,427,410,0,0,0,3,1,2,31,0003-00-0002-01.png,0001-00-0007-54.png
00000014,872,0,1442501532198,1442501532657,339,462,0,0,0,5,1,4,51,0005-00-0003-13.png,0001-00-0009-45.png
00000014,873,1,1442501533628,1442501534103,408,514,0,0,0,1,3,2,13,0001-00-0007-70.png,0003-00-0002-65.png
00000014,874,1,1442501535477,1442501535501,504,436,0,0,0,4,5,1,45,0004-00-0004-21.png,0005-00-0004-69.png
00000014,875,0,1442501536771,1442501537643,400,411,0,0,0,5,4,1,54,0005-00-0006-96.png,0004-00-0004-42.png
00000014,876,0,1442501538589,1442501539041,342,455,0,0,0,4,2,2,42,0004-00-0008-90.png,0002-00-0009-76.png
00000014,877,0,1442501540073,1442501540461,343,443,0,0,0,4,3,1,43,0004-00-0002-28.png,0003-00-0009-89.png
00000014,878,0,1442501541526,1442501542003,348,502,0,0,0,3,2,1,32,0003-00-0003-88.png,0002-00-0002-26.png
00000014,879,1,1442501542850,1442501543450,362,384,0,0,0,1,2,1,12,0001-00-0007-74.png,0002-00-0004-72.png
00000014,880,1,1442501544484,1442501544955,350,476,0,0,0,3,4,1,34,0003-00-0004-35.png,0004-00-0009-21.png
00000014,881,1,1442501546022,1442501546982,378,452,0,0,0,2,5,3,25,0002-00-0008-93.png,0005-00-0006-04.png
00000014,882,0,1442501547960,1442501547984,504,462,0,0,0,5,3,2,53,0005-00-0001-27.png,0003-00-0006-74.png
00000014,883,1,1442501549219,1442501549779,874,502,0,0,0,5,1,4,51,0005-00-0003-55.png,0001-00-0003-21.png
00000014,884,0,1442501550850,1442501551882,885,492,0,0,0,1,5,4,15,0001-00-0009-36.png,0005-00-0003-05.png
00000014,885,1,1442501552780,1442501553895,921,445,0,0,0,4,1,3,41,0004-00-0005-18.png,0001-00-0001-81.png
00000014,886,0,1442501554913,1442501555480,520,443,0,0,0,3,1,2,31,0003-00-0008-44.png,0001-00-0008-54.png
00000014,888,1,1442501559957,1442501560339,376,462,0,0,0,3,5,2,35,0003-00-0005-95.png,0005-00-0001-06.png
00000014,887,0,1442501556598,1442501557059,248,527,0,0,0,4,3,1,43,0004-00-0002-68.png,0003-00-0007-28.png
00000014,889,1,1442501561762,1442501562206,881,488,0,0,0,3,2,1,32,0003-00-0005-36.png,0002-00-0006-08.png
00000014,890,1,1442501563214,1442501568568,466,421,0,0,0,2,3,1,23,0002-00-0001-09.png,0003-00-0006-25.png
00000014,891,1,1442501569705,1442501570101,385,410,0,0,0,1,3,2,13,0001-00-0004-59.png,0003-00-0000-24.png
00000014,892,0,1442501571375,1442501571387,490,447,0,0,0,5,2,3,52,0005-00-0001-36.png,0002-00-0000-58.png
00000014,893,1,1442501574775,1442501575187,387,410,0,0,0,3,4,1,34,0003-00-0006-37.png,0004-00-0003-62.png
00000014,894,0,1442501576423,1442501576846,920,535,0,0,0,1,2,1,12,0001-00-0008-15.png,0002-00-0000-13.png
00000014,895,1,1442501579744,1442501580216,926,449,0,0,0,4,2,2,42,0004-00-0005-27.png,0002-00-0000-93.png
00000014,896,1,1442501581364,1442501581388,505,427,0,0,0,1,4,3,14,0001-00-0004-11.png,0004-00-0006-22.png
00000014,897,1,1442501584695,1442501585200,416,565,0,0,0,2,4,2,24,0002-00-0003-45.png,0004-00-0005-98.png
00000014,898,0,1442501587308,1442501587760,351,491,0,0,0,5,4,1,54,0005-00-0003-56.png,0004-00-0006-44.png
00000014,899,1,1442501589237,1442501589671,427,476,0,0,0,4,5,1,45,0004-00-0005-10.png,0005-00-0007-65.png
00000014,900,0,1442501591057,1442501591480,401,450,0,0,0,2,1,1,21,0002-00-0008-29.png,0001-00-0009-67.png
00000014,901,0,1442501597983,1442501598423,350,464,0,0,0,5,1,4,51,0005-00-0003-78.png,0001-00-0001-15.png
00000014,902,0,1442501599385,1442501599425,498,454,0,0,0,5,4,1,54,0005-00-0005-22.png,0004-00-0006-40.png
00000014,903,1,1442501603404,1442501603909,920,493,0,0,0,5,2,3,52,0005-00-0003-07.png,0002-00-0005-67.png
00000014,904,1,1442501605234,1442501605714,367,444,0,0,0,1,4,3,14,0001-00-0004-47.png,0004-00-0004-75.png
00000014,905,1,1442501607458,1442501607920,902,416,0,0,0,3,2,1,32,0003-00-0002-94.png,0002-00-0002-09.png
00000014,906,1,1442501609407,1442501609890,376,436,0,0,0,1,3,2,13,0001-00-0008-70.png,0003-00-0009-42.png
00000014,907,0,1442501611107,1442501611681,879,418,0,0,0,2,4,2,24,0002-00-0005-01.png,0004-00-0002-51.png
00000014,908,1,1442501615161,1442501615572,350,457,0,0,0,2,5,3,25,0002-00-0002-00.png,0005-00-0006-82.png
00000014,909,0,1442501616979,1442501617381,376,474,0,0,0,4,1,3,41,0004-00-0004-42.png,0001-00-0008-99.png
00000014,910,0,1442501618701,1442501619195,926,427,0,0,0,2,3,1,23,0002-00-0009-51.png,0003-00-0007-72.png
00000014,911,1,1442501624552,1442501625078,327,454,0,0,0,4,5,1,45,0004-00-0008-98.png,0005-00-0009-92.png
00000014,912,1,1442501626839,1442501627254,381,541,0,0,0,1,5,4,15,0001-00-0006-37.png,0005-00-0000-30.png
00000014,913,1,1442501628630,1442501631210,432,478,0,0,0,3,4,1,34,0003-00-0001-47.png,0004-00-0005-49.png
00000014,914,1,1442501633142,1442501633677,862,429,0,0,0,3,1,2,31,0003-00-0001-83.png,0001-00-0009-04.png
00000014,915,0,1442501635112,1442501635612,299,462,0,0,0,4,3,1,43,0004-00-0006-27.png,0003-00-0009-15.png
00000014,916,1,1442501639651,1442501640069,359,406,0,0,0,1,2,1,12,0001-00-0002-82.png,0002-00-0004-05.png
00000014,917,1,1442501641280,1442501641804,869,431,0,0,0,2,1,1,21,0002-00-0002-49.png,0001-00-0002-53.png
00000014,918,0,1442501643131,1442501643640,350,482,0,0,0,4,2,2,42,0004-00-0001-34.png,0002-00-0000-58.png
00000014,919,0,1442501645507,1442501646006,376,490,0,0,0,5,3,2,53,0005-00-0007-58.png,0003-00-0006-92.png
00000014,920,1,1442501649847,1442501650380,336,497,0,0,0,3,5,2,35,0003-00-0008-26.png,0005-00-0000-02.png
00000014,921,0,1442501651638,1442501652121,337,474,0,0,0,4,3,1,43,0004-00-0000-74.png,0003-00-0005-69.png
00000014,922,0,1442501653148,1442501654207,383,518,0,0,0,5,3,2,53,0005-00-0001-61.png,0003-00-0000-59.png
00000014,923,0,1442501655535,1442501656002,339,461,0,0,0,2,1,1,21,0002-00-0007-28.png,0001-00-0009-23.png
00000014,924,1,1442501657092,1442501657582,874,437,0,0,0,3,1,2,31,0003-00-0001-20.png,0001-00-0001-38.png
00000014,925,0,1442501659043,1442501659968,900,435,0,0,0,1,2,1,12,0001-00-0008-84.png,0002-00-0004-24.png
00000014,926,1,1442501661026,1442501661038,441,422,0,0,0,2,3,1,23,0002-00-0001-88.png,0003-00-0008-72.png
00000014,927,1,1442501662626,1442501663008,391,549,0,0,0,2,5,3,25,0002-00-0006-62.png,0005-00-0002-94.png
00000014,928,0,1442501664389,1442501664868,878,429,0,0,0,1,3,2,13,0001-00-0000-26.png,0003-00-0009-03.png
00000014,929,1,1442501666030,1442501666538,867,520,0,0,0,4,2,2,42,0004-00-0006-12.png,0002-00-0003-49.png
00000014,930,1,1442501668405,1442501668846,273,538,0,0,0,2,4,2,24,0002-00-0001-88.png,0004-00-0004-67.png
00000014,931,0,1442501670649,1442501671119,334,496,0,0,0,5,4,1,54,0005-00-0009-99.png,0004-00-0003-82.png
00000014,932,1,1442501676246,1442501676719,343,468,0,0,0,3,5,2,35,0003-00-0009-57.png,0005-00-0009-51.png
00000014,933,0,1442501677936,1442501678445,360,410,0,0,0,3,2,1,32,0003-00-0004-16.png,0002-00-0000-73.png
00000014,934,1,1442501680480,1442501681006,864,542,0,0,0,5,2,3,52,0005-00-0008-31.png,0002-00-0006-89.png
00000014,935,1,1442501682388,1442501682436,504,472,0,0,0,3,4,1,34,0003-00-0005-58.png,0004-00-0002-73.png
00000014,936,1,1442501683809,1442501684332,870,429,0,0,0,5,1,4,51,0005-00-0009-21.png,0001-00-0005-86.png
00000014,937,1,1442501685677,1442501686163,350,410,0,0,0,1,5,4,15,0001-00-0005-23.png,0005-00-0000-47.png
00000014,938,1,1442501687457,1442501687960,388,451,0,0,0,1,4,3,14,0001-00-0006-49.png,0004-00-0000-65.png
00000014,939,0,1442501689227,1442501689790,376,448,0,0,0,4,1,3,41,0004-00-0006-25.png,0001-00-0000-68.png
00000014,940,1,1442501690826,1442501690838,502,425,0,0,0,4,5,1,45,0004-00-0002-18.png,0005-00-0002-53.png
00000014,941,1,1442501691965,1442501692853,429,542,0,0,0,3,4,1,34,0003-00-0009-98.png,0004-00-0001-60.png
00000014,942,1,1442501694187,1442501695078,369,446,0,0,0,2,3,1,23,0002-00-0006-78.png,0003-00-0004-59.png
