subject_id,trial,correct_response,stim_time,response_time,x_coord,y_coord,trial_timeout,timeout_time,interTrial_timeout,left_rank,right_rank,distance,joint_rank,left_image,right_image
00000014,1,0,1442934021364,1442934021892,887,466,0,0,0,3,4,1,34,0003-00-0004-12.png,0004-00-0004-43.png
00000014,2,1,1442934025212,1442934025755,927,424,0,0,0,4,3,1,43,0004-00-0009-24.png,0003-00-0008-63.png
00000014,3,1,1442934028084,1442934028476,379,360,0,0,0,2,4,2,24,0002-00-0003-40.png,0004-00-0005-05.png
00000014,4,1,1442934030211,1442934030710,900,502,0,0,0,3,2,1,32,0003-00-0009-94.png,0002-00-0007-68.png
00000014,5,1,1442934031773,1442934032668,386,415,0,0,0,3,5,2,35,0003-00-0001-05.png,0005-00-0005-47.png
00000014,6,1,1442934033640,1442934034151,334,378,0,0,0,1,4,3,14,0001-00-0006-11.png,0004-00-0009-14.png
00000014,7,1,1442934035523,1442934035971,875,489,0,0,0,5,3,2,53,0005-00-0005-17.png,0003-00-0002-22.png
00000014,8,1,1442934037203,1442934037710,894,509,0,0,0,5,4,1,54,0005-00-0000-62.png,0004-00-0006-57.png
00000014,9,1,1442934039157,1442934039599,900,411,0,0,0,4,2,2,42,0004-00-0009-19.png,0002-00-0006-99.png
00000014,10,0,1442934041254,1442934041726,860,508,0,0,0,2,3,1,23,0002-00-0003-50.png,0003-00-0000-06.png
00000014,11,0,1442934044711,1442934044739,495,480,0,0,0,5,2,3,52,0005-00-0006-89.png,0002-00-0008-75.png
00000014,12,1,1442934047582,1442934047610,520,381,0,0,0,1,2,1,12,0001-00-0002-14.png,0002-00-0008-08.png
00000014,13,1,1442934049068,1442934049495,321,385,0,0,0,4,5,1,45,0004-00-0002-07.png,0005-00-0008-65.png
00000014,14,1,1442934051224,1442934051726,904,401,0,0,0,5,1,4,51,0005-00-0002-42.png,0001-00-0007-76.png
00000014,15,1,1442934053259,1442934053854,391,403,0,0,0,1,5,4,15,0001-00-0004-55.png,0005-00-0002-11.png
00000014,16,1,1442934055588,1442934056022,912,398,0,0,0,4,1,3,41,0004-00-0003-90.png,0001-00-0002-76.png
00000014,17,1,1442934057352,1442934057841,901,383,0,0,0,3,1,2,31,0003-00-0004-98.png,0001-00-0003-28.png
00000014,18,1,1442934059065,1442934059568,302,361,0,0,0,1,3,2,13,0001-00-0003-87.png,0003-00-0006-30.png
00000014,19,1,1442934060745,1442934061260,322,402,0,0,0,2,5,3,25,0002-00-0005-15.png,0005-00-0001-88.png
00000014,20,1,1442934062479,1442934062989,913,398,0,0,0,2,1,1,21,0002-00-0004-82.png,0001-00-0006-96.png
00000014,21,0,1442934064094,1442934064673,898,354,0,0,0,3,4,1,34,0003-00-0000-00.png,0004-00-0003-28.png
00000014,22,1,1442934067810,1442934068277,363,422,0,0,0,1,2,1,12,0001-00-0002-81.png,0002-00-0009-70.png
00000014,23,1,1442934069427,1442934069969,875,486,0,0,0,3,2,1,32,0003-00-0000-57.png,0002-00-0006-05.png
00000014,24,1,1442934071101,1442934071642,862,502,0,0,0,4,3,1,43,0004-00-0003-05.png,0003-00-0004-16.png
00000014,25,1,1442934073021,1442934073504,862,384,0,0,0,2,1,1,21,0002-00-0003-21.png,0001-00-0007-25.png
00000014,26,1,1442934074592,1442934075120,917,390,0,0,0,5,1,4,51,0005-00-0005-90.png,0001-00-0005-96.png
00000014,27,0,1442934076162,1442934076698,880,403,0,0,0,3,5,2,35,0003-00-0000-02.png,0005-00-0004-52.png
00000014,28,1,1442934079897,1442934080374,877,545,0,0,0,5,3,2,53,0005-00-0004-38.png,0003-00-0005-57.png
00000014,29,1,1442934081420,1442934082032,329,439,0,0,0,4,5,1,45,0004-00-0002-96.png,0005-00-0000-53.png
00000014,30,1,1442934083236,1442934083707,391,534,0,0,0,1,3,2,13,0001-00-0006-39.png,0003-00-0001-92.png
00000014,31,1,1442934084939,1442934085433,327,396,0,0,0,1,5,4,15,0001-00-0005-25.png,0005-00-0000-97.png
00000014,32,0,1442934086568,1442934087079,879,401,0,0,0,2,4,2,24,0002-00-0009-49.png,0004-00-0008-05.png
00000014,33,0,1442934090134,1442934090571,392,528,0,0,0,5,4,1,54,0005-00-0000-82.png,0004-00-0003-00.png
00000014,34,0,1442934093604,1442934094102,913,423,0,0,0,2,5,3,25,0002-00-0005-17.png,0005-00-0001-62.png
00000014,35,1,1442934097133,1442934097586,980,404,0,0,0,4,1,3,41,0004-00-0003-80.png,0001-00-0006-42.png
00000014,36,1,1442934098634,1442934099213,913,428,0,0,0,4,2,2,42,0004-00-0003-29.png,0002-00-0004-25.png
00000014,37,1,1442934100265,1442934100725,330,423,0,0,0,1,4,3,14,0001-00-0003-62.png,0004-00-0005-70.png
00000014,38,0,1442934101904,1442934102899,439,424,0,0,0,5,2,3,52,0005-00-0003-61.png,0002-00-0003-32.png
00000014,39,0,1442934106156,1442934106581,875,462,0,0,0,2,3,1,23,0002-00-0004-20.png,0003-00-0005-03.png
00000014,40,0,1442934109964,1442934110517,357,490,0,0,0,3,1,2,31,0003-00-0009-26.png,0001-00-0006-36.png
00000014,41,1,1442934113414,1442934113869,401,501,0,0,0,1,3,2,13,0001-00-0000-50.png,0003-00-0004-38.png
00000014,42,1,1442934114958,1442934115496,869,482,0,0,0,5,1,4,51,0005-00-0009-51.png,0001-00-0003-18.png
00000014,43,1,1442934116679,1442934117153,362,415,0,0,0,1,2,1,12,0001-00-0001-54.png,0002-00-0002-76.png
00000014,44,0,1442934118334,1442934118942,897,413,0,0,0,2,3,1,23,0002-00-0004-97.png,0003-00-0004-43.png
00000014,45,0,1442934121850,1442934121898,443,374,0,0,0,2,1,1,21,0002-00-0003-55.png,0001-00-0009-71.png
00000014,46,0,1442934124791,1442934125296,386,407,0,0,0,5,4,1,54,0005-00-0003-12.png,0004-00-0009-96.png
00000014,47,1,1442934128301,1442934128358,478,410,0,0,0,2,5,3,25,0002-00-0004-59.png,0005-00-0006-93.png
00000014,48,0,1442934129533,1442934130063,876,384,0,0,0,3,5,2,35,0003-00-0001-83.png,0005-00-0004-30.png
00000014,49,0,1442934133444,1442934133934,338,410,0,0,0,4,2,2,42,0004-00-0009-45.png,0002-00-0004-98.png
00000014,50,1,1442934137385,1442934137878,918,415,0,0,0,4,1,3,41,0004-00-0008-58.png,0001-00-0007-75.png
00000014,51,1,1442934138956,1442934139459,317,401,0,0,0,2,4,2,24,0002-00-0003-38.png,0004-00-0002-23.png
00000014,52,0,1442934140521,1442934141115,868,384,0,0,0,1,5,4,15,0001-00-0008-72.png,0005-00-0006-96.png
00000014,53,0,1442934144162,1442934144683,427,410,0,0,0,3,2,1,32,0003-00-0006-92.png,0002-00-0000-90.png
00000014,54,1,1442934147789,1442934148272,901,494,0,0,0,3,1,2,31,0003-00-0002-75.png,0001-00-0002-20.png
00000014,55,0,1442934149417,1442934149915,896,394,0,0,0,3,4,1,34,0003-00-0001-52.png,0004-00-0006-44.png
00000014,56,1,1442934153079,1442934153552,927,384,0,0,0,5,2,3,52,0005-00-0004-90.png,0002-00-0002-62.png
00000014,57,1,1442934154648,1442934155158,317,403,0,0,0,1,4,3,14,0001-00-0005-23.png,0004-00-0001-81.png
00000014,58,1,1442934156281,1442934156829,385,501,0,0,0,4,5,1,45,0004-00-0008-57.png,0005-00-0001-34.png
00000014,59,1,1442934157911,1442934158524,879,401,0,0,0,5,3,2,53,0005-00-0002-84.png,0003-00-0000-52.png
00000014,60,1,1442934159679,1442934160246,877,467,0,0,0,4,3,1,43,0004-00-0008-86.png,0003-00-0003-83.png
00000014,61,1,1442934161415,1442934161983,876,493,0,0,0,5,1,4,51,0005-00-0000-85.png,0001-00-0004-39.png
00000014,62,1,1442934163139,1442934163673,329,395,0,0,0,2,5,3,25,0002-00-0004-86.png,0005-00-0000-93.png
00000014,63,0,1442934164748,1442934165235,879,402,0,0,0,2,3,1,23,0002-00-0008-03.png,0003-00-0001-09.png
00000014,64,1,1442934168376,1442934168879,401,444,0,0,0,1,3,2,13,0001-00-0000-98.png,0003-00-0007-04.png
00000014,65,0,1442934169897,1442934170431,878,389,0,0,0,3,4,1,34,0003-00-0009-75.png,0004-00-0000-64.png
00000014,66,0,1442934174099,1442934174600,953,388,0,0,0,1,4,3,14,0001-00-0007-07.png,0004-00-0000-06.png
00000014,67,0,1442934177629,1442934178131,350,371,0,0,0,5,4,1,54,0005-00-0007-52.png,0004-00-0008-26.png
00000014,68,1,1442934188950,1442934189922,297,387,0,0,0,3,5,2,35,0003-00-0002-81.png,0005-00-0003-62.png
00000014,69,0,1442934191097,1442934191619,461,503,0,0,0,2,1,1,21,0002-00-0006-54.png,0001-00-0005-23.png
00000014,70,1,1442934194624,1442934195193,963,398,0,0,0,3,2,1,32,0003-00-0004-86.png,0002-00-0000-00.png
00000014,71,1,1442934196346,1442934196861,930,375,0,0,0,5,2,3,52,0005-00-0003-33.png,0002-00-0005-62.png
00000014,72,0,1442934197897,1442934198385,336,398,0,0,0,5,3,2,53,0005-00-0002-35.png,0003-00-0005-84.png
00000014,73,1,1442934201305,1442934201349,477,422,0,0,0,1,2,1,12,0001-00-0009-95.png,0002-00-0006-55.png
00000014,74,1,1442934202369,1442934202901,879,402,0,0,0,4,3,1,43,0004-00-0005-95.png,0003-00-0001-37.png
00000014,75,0,1442934204069,1442934204603,901,364,0,0,0,4,5,1,45,0004-00-0002-90.png,0005-00-0005-57.png
00000014,76,1,1442934207763,1442934208271,951,449,0,0,0,4,1,3,41,0004-00-0006-20.png,0001-00-0005-82.png
00000014,77,1,1442934209308,1442934209790,902,383,0,0,0,3,1,2,31,0003-00-0007-45.png,0001-00-0004-43.png
00000014,78,0,1442934210935,1442934211461,879,376,0,0,0,1,5,4,15,0001-00-0003-12.png,0005-00-0003-38.png
00000014,79,0,1442934214281,1442934214305,511,365,0,0,0,4,2,2,42,0004-00-0004-51.png,0002-00-0008-62.png
00000014,80,1,1442934217194,1442934217214,516,360,0,0,0,2,4,2,24,0002-00-0003-77.png,0004-00-0003-45.png
00000014,81,1,1442934218300,1442934218850,899,385,0,0,0,5,1,4,51,0005-00-0006-36.png,0001-00-0002-17.png
00000014,82,1,1442934219942,1442934220491,910,394,0,0,0,4,1,3,41,0004-00-0008-52.png,0001-00-0001-83.png
00000014,83,1,1442934221676,1442934222247,926,476,0,0,0,2,1,1,21,0002-00-0000-79.png,0001-00-0000-39.png
00000014,84,1,1442934223427,1442934223931,386,509,0,0,0,1,3,2,13,0001-00-0006-52.png,0003-00-0004-39.png
00000014,85,0,1442934225387,1442934225870,879,402,0,0,0,3,4,1,34,0003-00-0008-69.png,0004-00-0004-41.png
00000014,86,1,1442934229373,1442934229873,376,332,0,0,0,2,3,1,23,0002-00-0008-63.png,0003-00-0006-08.png
00000014,87,1,1442934231050,1442934231612,884,474,0,0,0,3,1,2,31,0003-00-0009-73.png,0001-00-0008-12.png
00000014,88,0,1442934232871,1442934233375,376,384,0,0,0,5,2,3,52,0005-00-0007-27.png,0002-00-0009-37.png
00000014,89,1,1442934236470,1442934236494,507,453,0,0,0,2,5,3,25,0002-00-0004-16.png,0005-00-0003-53.png
00000014,90,1,1442934237692,1442934238559,415,370,0,0,0,4,5,1,45,0004-00-0006-66.png,0005-00-0001-93.png
00000014,91,0,1442934239929,1442934240459,369,400,0,0,0,3,2,1,32,0003-00-0001-74.png,0002-00-0008-65.png
00000014,92,1,1442934243682,1442934244244,354,463,0,0,0,3,5,2,35,0003-00-0002-73.png,0005-00-0002-85.png
00000014,93,1,1442934245354,1442934245850,861,513,0,0,0,5,4,1,54,0005-00-0002-35.png,0004-00-0009-90.png
00000014,94,1,1442934247044,1442934247666,298,408,0,0,0,2,4,2,24,0002-00-0001-38.png,0004-00-0002-40.png
00000014,95,1,1442934249178,1442934249710,879,402,0,0,0,4,3,1,43,0004-00-0009-56.png,0003-00-0005-30.png
00000014,96,1,1442934251049,1442934251563,325,417,0,0,0,1,4,3,14,0001-00-0007-72.png,0004-00-0009-06.png
00000014,97,1,1442934252720,1442934253238,348,431,0,0,0,1,2,1,12,0001-00-0002-28.png,0002-00-0004-74.png
00000014,98,1,1442934254400,1442934254902,366,522,0,0,0,1,5,4,15,0001-00-0009-16.png,0005-00-0006-86.png
00000014,99,0,1442934256049,1442934256563,369,453,0,0,0,4,2,2,42,0004-00-0001-14.png,0002-00-0001-41.png
00000014,100,1,1442934259763,1442934260275,890,493,0,0,0,5,3,2,53,0005-00-0009-10.png,0003-00-0000-65.png
00000014,101,1,1442934261456,1442934261919,389,462,0,0,0,1,5,4,15,0001-00-0000-51.png,0005-00-0002-20.png
00000014,102,1,1442934263135,1442934263683,886,399,0,0,0,2,1,1,21,0002-00-0000-73.png,0001-00-0007-87.png
00000014,103,0,1442934264775,1442934265368,879,401,0,0,0,3,5,2,35,0003-00-0003-04.png,0005-00-0003-03.png
00000014,104,0,1442934268221,1442934268619,912,424,0,0,0,1,4,3,14,0001-00-0008-09.png,0004-00-0007-34.png
00000014,105,0,1442934271500,1442934271987,330,435,0,0,0,4,2,2,42,0004-00-0002-22.png,0002-00-0008-93.png
00000014,106,0,1442934274859,1442934274879,506,338,0,0,0,5,3,2,53,0005-00-0000-58.png,0003-00-0008-22.png
00000014,107,1,1442934277941,1442934278437,882,374,0,0,0,5,4,1,54,0005-00-0005-65.png,0004-00-0004-93.png
00000014,108,0,1442934279617,1442934280168,897,383,0,0,0,3,4,1,34,0003-00-0000-09.png,0004-00-0006-14.png
00000014,109,1,1442934283216,1442934283650,394,402,0,0,0,2,4,2,24,0002-00-0009-30.png,0004-00-0004-15.png
00000014,110,1,1442934284773,1442934285285,879,374,0,0,0,4,3,1,43,0004-00-0005-50.png,0003-00-0000-16.png
00000014,111,1,1442934286423,1442934286953,872,483,0,0,0,5,1,4,51,0005-00-0009-89.png,0001-00-0008-40.png
00000014,112,0,1442934288019,1442934288591,879,480,0,0,0,2,3,1,23,0002-00-0007-41.png,0003-00-0008-11.png
00000014,113,1,1442934291539,1442934292022,899,386,0,0,0,3,1,2,31,0003-00-0002-25.png,0001-00-0000-08.png
00000014,114,0,1442934293250,1442934293776,875,397,0,0,0,4,5,1,45,0004-00-0003-98.png,0005-00-0002-64.png
00000014,115,1,1442934297603,1442934298097,887,475,0,0,0,5,2,3,52,0005-00-0001-45.png,0002-00-0004-53.png
00000014,116,0,1442934299228,1442934299771,888,398,0,0,0,1,3,2,13,0001-00-0009-21.png,0003-00-0005-80.png
00000014,117,1,1442934302618,1442934303100,346,373,0,0,0,1,2,1,12,0001-00-0003-97.png,0002-00-0002-90.png
00000014,118,0,1442934304124,1442934304673,417,531,0,0,0,3,2,1,32,0003-00-0003-06.png,0002-00-0004-38.png
00000014,119,1,1442934307889,1442934308436,423,392,0,0,0,2,5,3,25,0002-00-0008-91.png,0005-00-0004-41.png
00000014,120,1,1442934309467,1442934310044,913,476,0,0,0,4,1,3,41,0004-00-0003-83.png,0001-00-0006-78.png
00000014,121,1,1442934311465,1442934312040,896,484,0,0,0,3,1,2,31,0003-00-0004-94.png,0001-00-0006-27.png
00000014,122,1,1442934313226,1442934313734,299,410,0,0,0,1,4,3,14,0001-00-0000-83.png,0004-00-0000-75.png
00000014,123,1,1442934314933,1442934315478,886,465,0,0,0,3,2,1,32,0003-00-0002-58.png,0002-00-0003-31.png
00000014,124,0,1442934316687,1442934317238,907,362,0,0,0,1,3,2,13,0001-00-0002-56.png,0003-00-0007-40.png
00000014,125,0,1442934320304,1442934320857,927,423,0,0,0,3,5,2,35,0003-00-0005-70.png,0005-00-0001-57.png
00000014,126,1,1442934323751,1442934323767,518,387,0,0,0,2,5,3,25,0002-00-0001-54.png,0005-00-0000-19.png
00000014,127,1,1442934324893,1442934325459,879,454,0,0,0,4,1,3,41,0004-00-0006-65.png,0001-00-0005-65.png
00000014,128,1,1442934326646,1442934327206,905,402,0,0,0,5,1,4,51,0005-00-0009-67.png,0001-00-0005-33.png
00000014,129,1,1442934328512,1442934329044,899,388,0,0,0,5,4,1,54,0005-00-0008-80.png,0004-00-0000-32.png
00000014,130,0,1442934330110,1442934330675,376,384,0,0,0,2,1,1,21,0002-00-0007-05.png,0001-00-0008-25.png
00000014,131,1,1442934333817,1442934334355,957,405,0,0,0,4,3,1,43,0004-00-0005-73.png,0003-00-0007-05.png
00000014,132,1,1442934335520,1442934336014,331,410,0,0,0,2,3,1,23,0002-00-0003-94.png,0003-00-0002-81.png
00000014,133,0,1442934337171,1442934337714,903,388,0,0,0,4,5,1,45,0004-00-0009-55.png,0005-00-0004-18.png
00000014,134,1,1442934340875,1442934341379,958,410,0,0,0,5,2,3,52,0005-00-0009-02.png,0002-00-0001-05.png
00000014,135,0,1442934342676,1442934343234,892,391,0,0,0,3,4,1,34,0003-00-0002-78.png,0004-00-0005-78.png
00000014,136,1,1442934346214,1442934346266,504,415,0,0,0,1,5,4,15,0001-00-0000-77.png,0005-00-0008-80.png
00000014,137,1,1442934347419,1442934347912,318,399,0,0,0,1,2,1,12,0001-00-0000-09.png,0002-00-0009-78.png
00000014,138,1,1442934349017,1442934349559,875,397,0,0,0,4,2,2,42,0004-00-0006-84.png,0002-00-0000-20.png
00000014,139,0,1442934350767,1442934351411,876,373,0,0,0,2,4,2,24,0002-00-0009-77.png,0004-00-0004-61.png
00000014,140,1,1442934354352,1442934354909,949,392,0,0,0,5,3,2,53,0005-00-0003-34.png,0003-00-0006-98.png
00000014,141,0,1442934356014,1442934356543,360,502,0,0,0,5,3,2,53,0005-00-0004-99.png,0003-00-0005-30.png
00000014,142,1,1442934359604,1442934359620,494,393,0,0,0,3,5,2,35,0003-00-0006-83.png,0005-00-0002-79.png
00000014,143,0,1442934360777,1442934361291,862,474,0,0,0,2,4,2,24,0002-00-0004-20.png,0004-00-0001-61.png
00000014,144,0,1442934364319,1442934364841,930,478,0,0,0,1,3,2,13,0001-00-0005-54.png,0003-00-0001-81.png
00000014,145,1,1442934367970,1442934368471,919,414,0,0,0,3,1,2,31,0003-00-0008-37.png,0001-00-0003-52.png
00000014,146,0,1442934369712,1442934370779,924,483,0,0,0,4,5,1,45,0004-00-0008-17.png,0005-00-0000-99.png
00000014,147,0,1442934373883,1442934374402,890,423,0,0,0,2,3,1,23,0002-00-0001-55.png,0003-00-0003-92.png
00000014,148,1,1442934377761,1442934377777,505,403,0,0,0,2,5,3,25,0002-00-0005-42.png,0005-00-0008-54.png
00000014,149,1,1442934378875,1442934379379,952,371,0,0,0,3,2,1,32,0003-00-0009-67.png,0002-00-0001-05.png
00000014,150,1,1442934380652,1442934381201,897,429,0,0,0,5,2,3,52,0005-00-0008-35.png,0002-00-0000-33.png
00000014,151,1,1442934382434,1442934383023,869,394,0,0,0,4,2,2,42,0004-00-0007-48.png,0002-00-0000-97.png
00000014,152,1,1442934384222,1442934384766,893,485,0,0,0,5,1,4,51,0005-00-0005-35.png,0001-00-0006-17.png
00000014,153,0,1442934386081,1442934386607,291,427,0,0,0,2,1,1,21,0002-00-0003-13.png,0001-00-0008-26.png
00000014,154,1,1442934390067,1442934390636,350,397,0,0,0,1,5,4,15,0001-00-0004-57.png,0005-00-0006-47.png
00000014,155,1,1442934391832,1442934392378,886,398,0,0,0,5,4,1,54,0005-00-0007-30.png,0004-00-0001-32.png
00000014,156,0,1442934393721,1442934394282,878,402,0,0,0,3,4,1,34,0003-00-0001-04.png,0004-00-0007-40.png
00000014,157,1,1442934397141,1442934397708,863,487,0,0,0,4,3,1,43,0004-00-0006-07.png,0003-00-0000-46.png
00000014,158,1,1442934399379,1442934399971,393,543,0,0,0,1,2,1,12,0001-00-0003-30.png,0002-00-0008-79.png
00000014,159,1,1442934401207,1442934401752,919,389,0,0,0,4,1,3,41,0004-00-0005-88.png,0001-00-0003-41.png
00000014,160,0,1442934403181,1442934403664,888,396,0,0,0,1,4,3,14,0001-00-0009-86.png,0004-00-0009-55.png
00000014,161,0,1442934406601,1442934407167,938,397,0,0,0,2,3,1,23,0002-00-0008-34.png,0003-00-0005-45.png
00000014,162,1,1442934410184,1442934410765,315,413,0,0,0,1,4,3,14,0001-00-0002-88.png,0004-00-0004-73.png
00000014,163,1,1442934411851,1442934412396,325,422,0,0,0,1,5,4,15,0001-00-0001-62.png,0005-00-0001-81.png
00000014,164,0,1442934413581,1442934414140,374,410,0,0,0,5,3,2,53,0005-00-0007-78.png,0003-00-0002-79.png
00000014,165,1,1442934417409,1442934417941,309,421,0,0,0,1,2,1,12,0001-00-0002-13.png,0002-00-0009-04.png
00000014,166,1,1442934419046,1442934419592,916,412,0,0,0,5,4,1,54,0005-00-0003-91.png,0004-00-0003-86.png
00000014,167,0,1442934420756,1442934421302,329,418,0,0,0,4,2,2,42,0004-00-0003-82.png,0002-00-0008-44.png
00000014,168,1,1442934424163,1442934424701,902,494,0,0,0,2,1,1,21,0002-00-0008-47.png,0001-00-0008-08.png
00000014,169,1,1442934425745,1442934426298,876,414,0,0,0,3,1,2,31,0003-00-0003-86.png,0001-00-0003-68.png
00000014,170,1,1442934427455,1442934427949,376,423,0,0,0,4,5,1,45,0004-00-0002-08.png,0005-00-0001-84.png
00000014,171,0,1442934429224,1442934430298,401,493,0,0,0,5,2,3,52,0005-00-0001-01.png,0002-00-0007-16.png
00000014,172,1,1442934433218,1442934433725,311,409,0,0,0,2,5,3,25,0002-00-0001-66.png,0005-00-0005-08.png
00000014,173,0,1442934434959,1442934435465,339,413,0,0,0,4,3,1,43,0004-00-0004-41.png,0003-00-0009-65.png
00000014,174,0,1442934438355,1442934438955,870,522,0,0,0,1,3,2,13,0001-00-0006-68.png,0003-00-0002-19.png
00000014,175,1,1442934441796,1442934442262,379,371,0,0,0,3,5,2,35,0003-00-0002-41.png,0005-00-0009-83.png
00000014,176,1,1442934443409,1442934444450,900,488,0,0,0,3,2,1,32,0003-00-0003-59.png,0002-00-0002-87.png
00000014,177,0,1442934445595,1442934446156,871,463,0,0,0,2,4,2,24,0002-00-0008-62.png,0004-00-0002-01.png
00000014,178,1,1442934449441,1442934449952,873,507,0,0,0,4,1,3,41,0004-00-0007-90.png,0001-00-0005-32.png
00000014,179,0,1442934451077,1442934451881,341,422,0,0,0,5,1,4,51,0005-00-0001-72.png,0001-00-0008-56.png
00000014,180,1,1442934454804,1442934455286,394,401,0,0,0,3,4,1,34,0003-00-0008-06.png,0004-00-0008-48.png
00000014,181,1,1442934456538,1442934457666,315,380,0,0,0,1,3,2,13,0001-00-0000-46.png,0003-00-0001-62.png
00000014,182,0,1442934458959,1442934459544,331,430,0,0,0,4,2,2,42,0004-00-0001-79.png,0002-00-0009-72.png
00000014,183,0,1442934462428,1442934463103,960,385,0,0,0,2,4,2,24,0002-00-0003-30.png,0004-00-0002-54.png
00000014,184,0,1442934466531,1442934467040,398,415,0,0,0,5,1,4,51,0005-00-0007-31.png,0001-00-0004-03.png
00000014,185,0,1442934470061,1442934470586,894,458,0,0,0,1,4,3,14,0001-00-0001-93.png,0004-00-0003-65.png
00000014,186,1,1442934473627,1442934474135,941,414,0,0,0,5,2,3,52,0005-00-0006-09.png,0002-00-0007-42.png
00000014,187,0,1442934475341,1442934475883,338,442,0,0,0,2,1,1,21,0002-00-0002-08.png,0001-00-0004-68.png
00000014,188,0,1442934478755,1442934479280,926,450,0,0,0,2,3,1,23,0002-00-0003-98.png,0003-00-0007-24.png
00000014,189,1,1442934482386,1442934482920,928,415,0,0,0,4,3,1,43,0004-00-0002-17.png,0003-00-0006-52.png
00000014,190,0,1442934484098,1442934484644,874,461,0,0,0,3,4,1,34,0003-00-0005-82.png,0004-00-0001-29.png
00000014,191,1,1442934487791,1442934488289,376,384,0,0,0,2,5,3,25,0002-00-0005-93.png,0005-00-0002-13.png
00000014,192,1,1442934489439,1442934490055,874,490,0,0,0,3,1,2,31,0003-00-0005-05.png,0001-00-0000-15.png
00000014,193,1,1442934491283,1442934491805,349,393,0,0,0,3,5,2,35,0003-00-0007-01.png,0005-00-0007-39.png
00000014,194,0,1442934493103,1442934493620,858,510,0,0,0,1,2,1,12,0001-00-0001-78.png,0002-00-0005-74.png
00000014,195,0,1442934496741,1442934496809,495,479,0,0,0,5,3,2,53,0005-00-0007-46.png,0003-00-0005-49.png
00000014,196,0,1442934499680,1442934500181,890,441,0,0,0,1,5,4,15,0001-00-0005-47.png,0005-00-0003-21.png
00000014,197,1,1442934503352,1442934503930,902,388,0,0,0,3,2,1,32,0003-00-0006-58.png,0002-00-0008-06.png
00000014,198,1,1442934505248,1442934505781,892,447,0,0,0,4,1,3,41,0004-00-0006-52.png,0001-00-0003-65.png
00000014,199,1,1442934507167,1442934507672,888,431,0,0,0,5,4,1,54,0005-00-0001-45.png,0004-00-0008-37.png
00000014,200,1,1442934508856,1442934508900,478,449,0,0,0,4,5,1,45,0004-00-0003-48.png,0005-00-0000-44.png
00000014,201,1,1442934510494,1442934511427,332,392,0,0,0,3,5,2,35,0003-00-0002-43.png,0005-00-0007-83.png
00000014,202,0,1442934512701,1442934513238,340,407,0,0,0,5,4,1,54,0005-00-0003-84.png,0004-00-0009-37.png
00000014,203,1,1442934516248,1442934516739,363,398,0,0,0,2,3,1,23,0002-00-0008-86.png,0003-00-0002-18.png
00000014,204,1,1442934518009,1442934518491,875,398,0,0,0,5,1,4,51,0005-00-0001-62.png,0001-00-0004-06.png
00000014,205,1,1442934519785,1442934520356,865,449,0,0,0,4,2,2,42,0004-00-0002-88.png,0002-00-0003-75.png
00000014,206,1,1442934521598,1442934522095,376,437,0,0,0,1,4,3,14,0001-00-0004-96.png,0004-00-0000-01.png
00000014,207,1,1442934523223,1442934523700,380,406,0,0,0,1,2,1,12,0001-00-0006-06.png,0002-00-0009-15.png
00000014,208,0,1442934525222,1442934525740,369,505,0,0,0,2,1,1,21,0002-00-0004-73.png,0001-00-0008-69.png
00000014,209,1,1442934528813,1442934529257,419,427,0,0,0,1,3,2,13,0001-00-0006-37.png,0003-00-0005-13.png
00000014,210,1,1442934530415,1442934530949,873,488,0,0,0,3,1,2,31,0003-00-0007-23.png,0001-00-0000-01.png
00000014,211,0,1442934532035,1442934532561,874,410,0,0,0,4,5,1,45,0004-00-0004-41.png,0005-00-0002-33.png
00000014,212,0,1442934535407,1442934535431,510,316,0,0,0,4,1,3,41,0004-00-0004-86.png,0001-00-0005-96.png
00000014,213,1,1442934538416,1442934538948,916,502,0,0,0,4,3,1,43,0004-00-0006-14.png,0003-00-0002-40.png
00000014,214,1,1442934540109,1442934540558,365,424,0,0,0,2,5,3,25,0002-00-0007-68.png,0005-00-0007-95.png
00000014,215,1,1442934541667,1442934542202,385,512,0,0,0,1,5,4,15,0001-00-0002-22.png,0005-00-0000-17.png
00000014,216,1,1442934543866,1442934544365,886,398,0,0,0,5,3,2,53,0005-00-0005-41.png,0003-00-0004-55.png
00000014,217,0,1442934545611,1442934546083,382,523,0,0,0,3,2,1,32,0003-00-0007-93.png,0002-00-0005-02.png
00000014,218,0,1442934550084,1442934550665,883,512,0,0,0,3,4,1,34,0003-00-0000-83.png,0004-00-0004-27.png
00000014,219,1,1442934553908,1442934554462,340,438,0,0,0,2,4,2,24,0002-00-0000-40.png,0004-00-0000-58.png
00000014,220,0,1442934555587,1442934556217,388,411,0,0,0,5,2,3,52,0005-00-0006-58.png,0002-00-0003-19.png
00000014,221,0,1442934559254,1442934559782,312,371,0,0,0,4,2,2,42,0004-00-0006-09.png,0002-00-0009-15.png
00000014,222,1,1442934562813,1442934563328,327,413,0,0,0,1,5,4,15,0001-00-0006-85.png,0005-00-0009-16.png
00000014,223,0,1442934564454,1442934565058,863,462,0,0,0,2,3,1,23,0002-00-0006-98.png,0003-00-0009-65.png
00000014,224,1,1442934568044,1442934568496,376,398,0,0,0,2,4,2,24,0002-00-0009-08.png,0004-00-0002-96.png
00000014,225,1,1442934569565,1442934570123,875,481,0,0,0,3,2,1,32,0003-00-0009-09.png,0002-00-0003-02.png
00000014,226,1,1442934571183,1442934571702,389,450,0,0,0,1,4,3,14,0001-00-0002-38.png,0004-00-0005-27.png
00000014,227,1,1442934572865,1442934573411,912,398,0,0,0,3,1,2,31,0003-00-0006-42.png,0001-00-0009-26.png
00000014,228,1,1442934574670,1442934575209,876,442,0,0,0,2,1,1,21,0002-00-0008-00.png,0001-00-0005-63.png
00000014,229,0,1442934576492,1442934577094,875,408,0,0,0,3,5,2,35,0003-00-0009-96.png,0005-00-0003-14.png
00000014,230,0,1442934579998,1442934580023,513,384,0,0,0,5,2,3,52,0005-00-0007-36.png,0002-00-0007-67.png
00000014,231,1,1442934584115,1442934584601,900,553,0,0,0,4,1,3,41,0004-00-0009-70.png,0001-00-0002-02.png
00000014,232,1,1442934586094,1442934586719,376,487,0,0,0,2,5,3,25,0002-00-0001-88.png,0005-00-0009-21.png
00000014,233,0,1442934587972,1442934588494,314,422,0,0,0,4,3,1,43,0004-00-0003-56.png,0003-00-0000-80.png
00000014,234,0,1442934595679,1442934596181,870,498,0,0,0,4,5,1,45,0004-00-0003-25.png,0005-00-0003-96.png
00000014,235,0,1442934599554,1442934600147,339,370,0,0,0,5,4,1,54,0005-00-0007-71.png,0004-00-0007-38.png
00000014,236,1,1442934604483,1442934605018,381,413,0,0,0,3,4,1,34,0003-00-0009-53.png,0004-00-0007-22.png
00000014,237,1,1442934606212,1442934606688,391,522,0,0,0,1,3,2,13,0001-00-0001-65.png,0003-00-0005-41.png
00000014,238,1,1442934607832,1442934608383,875,410,0,0,0,5,1,4,51,0005-00-0007-62.png,0001-00-0006-91.png
00000014,239,1,1442934609781,1442934610382,879,430,0,0,0,5,3,2,53,0005-00-0002-15.png,0003-00-0005-45.png
00000014,240,1,1442934611519,1442934612008,325,421,0,0,0,1,2,1,12,0001-00-0001-77.png,0002-00-0004-42.png
00000014,241,1,1442934613121,1442934613677,876,423,0,0,0,3,1,2,31,0003-00-0006-22.png,0001-00-0002-27.png
00000014,242,0,1442934614940,1442934616117,439,400,0,0,0,4,3,1,43,0004-00-0001-46.png,0003-00-0006-06.png
00000014,243,1,1442934619001,1442934619495,393,376,0,0,0,4,5,1,45,0004-00-0008-27.png,0005-00-0003-18.png
00000014,244,0,1442934620564,1442934621108,901,398,0,0,0,2,4,2,24,0002-00-0008-02.png,0004-00-0009-55.png
00000014,245,0,1442934624061,1442934624073,498,403,0,0,0,5,3,2,53,0005-00-0000-56.png,0003-00-0004-97.png
00000014,246,1,1442934626963,1442934627409,310,396,0,0,0,2,3,1,23,0002-00-0009-14.png,0003-00-0005-86.png
00000014,247,1,1442934628383,1442934628991,405,443,0,0,0,1,3,2,13,0001-00-0008-74.png,0003-00-0007-35.png
00000014,248,1,1442934630006,1442934630653,875,397,0,0,0,2,1,1,21,0002-00-0003-51.png,0001-00-0006-19.png
00000014,249,1,1442934631794,1442934632351,917,399,0,0,0,5,2,3,52,0005-00-0000-63.png,0002-00-0003-56.png
00000014,250,1,1442934633590,1442934634124,875,488,0,0,0,5,1,4,51,0005-00-0002-22.png,0001-00-0005-85.png
00000014,251,1,1442934635293,1442934635819,366,428,0,0,0,3,5,2,35,0003-00-0006-09.png,0005-00-0004-85.png
00000014,252,1,1442934637124,1442934637704,871,420,0,0,0,3,2,1,32,0003-00-0009-40.png,0002-00-0000-08.png
00000014,253,1,1442934638831,1442934639785,419,506,0,0,0,3,4,1,34,0003-00-0005-68.png,0004-00-0009-85.png
00000014,254,1,1442934640996,1442934641526,312,423,0,0,0,2,5,3,25,0002-00-0000-41.png,0005-00-0002-41.png
00000014,255,1,1442934643185,1442934643685,889,423,0,0,0,4,2,2,42,0004-00-0008-58.png,0002-00-0002-20.png
00000014,256,1,1442934645074,1442934645685,901,410,0,0,0,4,1,3,41,0004-00-0007-07.png,0001-00-0006-51.png
00000014,257,1,1442934647010,1442934647539,387,527,0,0,0,1,4,3,14,0001-00-0001-05.png,0004-00-0005-83.png
00000014,258,0,1442934648932,1442934649527,375,405,0,0,0,5,4,1,54,0005-00-0008-67.png,0004-00-0005-53.png
00000014,259,0,1442934652362,1442934652838,887,425,0,0,0,1,2,1,12,0001-00-0002-95.png,0002-00-0004-17.png
00000014,260,0,1442934655696,1442934656329,897,389,0,0,0,1,5,4,15,0001-00-0003-14.png,0005-00-0001-63.png
00000014,261,0,1442934659257,1442934659273,480,400,0,0,0,4,3,1,43,0004-00-0009-50.png,0003-00-0002-10.png
00000014,262,1,1442934662275,1442934663235,414,449,0,0,0,2,3,1,23,0002-00-0006-65.png,0003-00-0000-79.png
00000014,263,0,1442934664392,1442934665425,439,412,0,0,0,5,4,1,54,0005-00-0001-53.png,0004-00-0000-94.png
00000014,264,1,1442934668395,1442934668931,398,392,0,0,0,2,5,3,25,0002-00-0004-47.png,0005-00-0008-32.png
00000014,265,1,1442934670118,1442934670578,387,517,0,0,0,1,4,3,14,0001-00-0003-59.png,0004-00-0001-78.png
00000014,266,1,1442934671789,1442934672288,380,510,0,0,0,1,5,4,15,0001-00-0004-53.png,0005-00-0009-81.png
00000014,267,1,1442934673517,1442934674104,862,436,0,0,0,5,2,3,52,0005-00-0007-02.png,0002-00-0008-52.png
00000014,268,1,1442934675247,1442934675805,380,409,0,0,0,3,5,2,35,0003-00-0009-70.png,0005-00-0000-41.png
00000014,269,1,1442934676967,1442934677576,862,424,0,0,0,4,2,2,42,0004-00-0002-33.png,0002-00-0007-45.png
00000014,270,1,1442934678866,1442934679443,862,476,0,0,0,4,1,3,41,0004-00-0003-58.png,0001-00-0006-38.png
00000014,271,1,1442934680825,1442934681352,873,413,0,0,0,5,3,2,53,0005-00-0002-88.png,0003-00-0000-79.png
00000014,272,1,1442934682753,1442934683272,359,410,0,0,0,1,3,2,13,0001-00-0000-40.png,0003-00-0000-95.png
00000014,273,1,1442934684664,1442934685222,332,433,0,0,0,2,4,2,24,0002-00-0009-44.png,0004-00-0007-32.png
00000014,274,0,1442934686619,1442934687657,439,438,0,0,0,5,1,4,51,0005-00-0009-57.png,0001-00-0006-45.png
00000014,275,1,1442934690681,1442934691232,316,428,0,0,0,1,2,1,12,0001-00-0001-34.png,0002-00-0000-78.png
00000014,276,1,1442934692489,1442934693009,376,438,0,0,0,3,4,1,34,0003-00-0008-65.png,0004-00-0006-40.png
00000014,277,0,1442934694618,1442934695125,364,424,0,0,0,3,2,1,32,0003-00-0009-47.png,0002-00-0009-04.png
00000014,278,1,1442934698389,1442934698977,865,390,0,0,0,2,1,1,21,0002-00-0001-39.png,0001-00-0009-67.png
00000014,279,0,1442934700156,1442934700718,880,427,0,0,0,4,5,1,45,0004-00-0006-68.png,0005-00-0009-43.png
00000014,280,1,1442934704272,1442934704856,911,413,0,0,0,3,1,2,31,0003-00-0006-63.png,0001-00-0000-59.png
00000014,281,0,1442934706032,1442934706541,337,437,0,0,0,5,2,3,52,0005-00-0009-55.png,0002-00-0004-52.png
00000014,282,1,1442934709867,1442934710391,908,456,0,0,0,2,1,1,21,0002-00-0009-25.png,0001-00-0009-37.png
00000014,283,0,1442934711586,1442934712099,427,449,0,0,0,4,3,1,43,0004-00-0000-04.png,0003-00-0007-35.png
00000014,284,1,1442934714916,1442934715450,293,410,0,0,0,2,3,1,23,0002-00-0006-01.png,0003-00-0004-23.png
00000014,285,1,1442934716951,1442934717471,353,398,0,0,0,2,4,2,24,0002-00-0001-90.png,0004-00-0004-06.png
00000014,286,1,1442934718703,1442934719284,345,437,0,0,0,3,5,2,35,0003-00-0006-21.png,0005-00-0007-73.png
00000014,287,0,1442934720388,1442934720962,875,410,0,0,0,1,4,3,14,0001-00-0004-58.png,0004-00-0004-48.png
00000014,288,1,1442934724586,1442934724601,521,411,0,0,0,1,5,4,15,0001-00-0008-89.png,0005-00-0003-52.png
00000014,289,1,1442934725840,1442934726397,861,502,0,0,0,4,1,3,41,0004-00-0006-37.png,0001-00-0003-76.png
00000014,290,1,1442934727549,1442934728075,363,403,0,0,0,4,5,1,45,0004-00-0006-69.png,0005-00-0003-57.png
00000014,291,1,1442934729309,1442934729863,912,424,0,0,0,3,1,2,31,0003-00-0009-79.png,0001-00-0006-55.png
00000014,292,1,1442934731094,1442934731613,310,430,0,0,0,1,3,2,13,0001-00-0008-28.png,0003-00-0007-88.png
00000014,293,0,1442934732937,1442934733463,350,450,0,0,0,4,2,2,42,0004-00-0002-41.png,0002-00-0007-09.png
00000014,294,1,1442934736504,1442934737088,376,525,0,0,0,3,4,1,34,0003-00-0008-41.png,0004-00-0009-16.png
00000014,295,0,1442934738217,1442934738739,396,511,0,0,0,3,2,1,32,0003-00-0005-49.png,0002-00-0004-29.png
00000014,296,0,1442934741605,1442934742069,325,423,0,0,0,5,4,1,54,0005-00-0009-04.png,0004-00-0004-27.png
00000014,297,0,1442934745149,1442934745173,509,368,0,0,0,5,1,4,51,0005-00-0009-63.png,0001-00-0004-69.png
00000014,298,1,1442934749754,1442934750327,366,465,0,0,0,2,5,3,25,0002-00-0002-97.png,0005-00-0008-17.png
00000014,299,1,1442934751494,1442934752028,376,553,0,0,0,1,2,1,12,0001-00-0005-53.png,0002-00-0009-06.png
00000014,300,1,1442934753174,1442934753735,878,416,0,0,0,5,3,2,53,0005-00-0006-46.png,0003-00-0000-52.png
00000014,301,1,1442934755039,1442934755688,892,399,0,0,0,2,1,1,21,0002-00-0009-63.png,0001-00-0007-29.png
00000014,302,1,1442934756720,1442934757284,874,411,0,0,0,5,3,2,53,0005-00-0005-66.png,0003-00-0005-78.png
00000014,303,1,1442934758482,1442934759072,879,412,0,0,0,4,3,1,43,0004-00-0000-60.png,0003-00-0007-62.png
00000014,304,1,1442934760171,1442934760768,404,442,0,0,0,2,3,1,23,0002-00-0002-82.png,0003-00-0007-30.png
00000014,305,0,1442934762072,1442934762607,866,466,0,0,0,2,4,2,24,0002-00-0002-25.png,0004-00-0004-75.png
00000014,306,1,1442934766043,1442934766566,926,435,0,0,0,3,1,2,31,0003-00-0006-41.png,0001-00-0007-61.png
00000014,307,1,1442934767745,1442934768203,384,445,0,0,0,3,5,2,35,0003-00-0009-26.png,0005-00-0004-82.png
00000014,308,0,1442934769256,1442934769911,393,519,0,0,0,3,2,1,32,0003-00-0003-13.png,0002-00-0005-41.png
00000014,309,1,1442934772953,1442934773491,863,516,0,0,0,5,4,1,54,0005-00-0007-33.png,0004-00-0006-59.png
00000014,310,1,1442934774731,1442934775271,897,420,0,0,0,5,1,4,51,0005-00-0002-94.png,0001-00-0000-77.png
00000014,311,1,1442934776458,1442934776965,376,410,0,0,0,4,5,1,45,0004-00-0004-50.png,0005-00-0005-99.png
00000014,312,0,1442934778023,1442934778719,875,417,0,0,0,1,2,1,12,0001-00-0003-32.png,0002-00-0004-90.png
00000014,313,0,1442934781701,1442934781726,478,410,0,0,0,5,2,3,52,0005-00-0002-88.png,0002-00-0001-91.png
00000014,314,1,1442934785315,1442934785766,890,422,0,0,0,4,1,3,41,0004-00-0008-39.png,0001-00-0000-95.png
00000014,315,1,1442934786835,1442934787353,341,428,0,0,0,2,5,3,25,0002-00-0008-09.png,0005-00-0002-50.png
00000014,316,1,1442934788523,1442934789123,360,442,0,0,0,3,4,1,34,0003-00-0006-79.png,0004-00-0009-15.png
00000014,317,0,1442934790257,1442934791124,429,468,0,0,0,4,2,2,42,0004-00-0008-82.png,0002-00-0003-35.png
00000014,318,1,1442934794468,1442934794496,496,455,0,0,0,1,5,4,15,0001-00-0009-41.png,0005-00-0005-22.png
00000014,319,1,1442934795666,1442934796153,312,443,0,0,0,1,3,2,13,0001-00-0006-28.png,0003-00-0009-89.png
00000014,320,1,1442934797273,1442934797714,363,529,0,0,0,1,4,3,14,0001-00-0007-76.png,0004-00-0007-50.png
00000014,321,1,1442934798942,1442934799488,317,417,0,0,0,2,4,2,24,0002-00-0006-00.png,0004-00-0002-10.png
00000014,322,0,1442934800972,1442934802074,386,501,0,0,0,4,3,1,43,0004-00-0003-73.png,0003-00-0004-64.png
00000014,323,0,1442934805164,1442934805670,340,414,0,0,0,4,2,2,42,0004-00-0005-01.png,0002-00-0003-64.png
00000014,324,1,1442934808720,1442934809176,914,398,0,0,0,5,2,3,52,0005-00-0005-10.png,0002-00-0006-87.png
00000014,325,1,1442934810432,1442934810884,350,438,0,0,0,1,5,4,15,0001-00-0007-09.png,0005-00-0005-17.png
00000014,326,1,1442934812053,1442934812560,392,523,0,0,0,1,3,2,13,0001-00-0001-51.png,0003-00-0004-29.png
00000014,327,1,1442934813853,1442934814388,395,539,0,0,0,3,4,1,34,0003-00-0008-47.png,0004-00-0002-66.png
00000014,328,1,1442934815492,1442934816014,389,528,0,0,0,2,3,1,23,0002-00-0001-29.png,0003-00-0003-78.png
00000014,329,0,1442934817234,1442934817796,875,444,0,0,0,4,5,1,45,0004-00-0001-40.png,0005-00-0000-50.png
00000014,330,1,1442934821605,1442934822137,924,433,0,0,0,3,1,2,31,0003-00-0004-78.png,0001-00-0007-18.png
00000014,331,1,1442934823275,1442934823818,873,430,0,0,0,2,1,1,21,0002-00-0008-46.png,0001-00-0009-23.png
00000014,332,1,1442934825452,1442934826091,389,516,0,0,0,3,5,2,35,0003-00-0005-81.png,0005-00-0007-66.png
00000014,333,0,1442934827208,1442934828175,453,422,0,0,0,5,3,2,53,0005-00-0001-18.png,0003-00-0005-80.png
00000014,334,0,1442934831244,1442934831691,338,432,0,0,0,5,4,1,54,0005-00-0004-21.png,0004-00-0000-28.png
00000014,335,1,1442934835807,1442934836318,366,429,0,0,0,1,4,3,14,0001-00-0003-81.png,0004-00-0005-67.png
00000014,336,1,1442934837774,1442934838348,867,557,0,0,0,4,1,3,41,0004-00-0003-67.png,0001-00-0000-45.png
00000014,337,1,1442934839802,1442934840347,386,560,0,0,0,1,2,1,12,0001-00-0002-42.png,0002-00-0009-19.png
00000014,338,1,1442934841572,1442934842111,863,423,0,0,0,5,1,4,51,0005-00-0006-39.png,0001-00-0007-19.png
00000014,339,0,1442934843253,1442934843834,401,462,0,0,0,3,2,1,32,0003-00-0002-94.png,0002-00-0009-45.png
00000014,340,0,1442934846914,1442934847444,869,413,0,0,0,2,5,3,25,0002-00-0006-32.png,0005-00-0003-75.png
00000014,341,0,1442934850766,1442934851228,919,416,0,0,0,1,2,1,12,0001-00-0005-10.png,0002-00-0007-23.png
00000014,342,1,1442934854396,1442934854870,455,458,0,0,0,3,4,1,34,0003-00-0001-09.png,0004-00-0009-98.png
00000014,343,1,1442934856026,1442934856605,877,410,0,0,0,3,2,1,32,0003-00-0007-98.png,0002-00-0001-06.png
00000014,344,1,1442934857772,1442934858334,907,414,0,0,0,4,2,2,42,0004-00-0002-41.png,0002-00-0002-86.png
00000014,345,1,1442934859520,1442934860014,419,414,0,0,0,1,4,3,14,0001-00-0002-03.png,0004-00-0003-25.png
00000014,346,1,1442934861211,1442934861816,318,447,0,0,0,2,3,1,23,0002-00-0002-29.png,0003-00-0002-83.png
00000014,347,1,1442934862950,1442934863768,382,420,0,0,0,4,5,1,45,0004-00-0001-45.png,0005-00-0003-95.png
00000014,348,0,1442934864927,1442934865929,375,429,0,0,0,5,1,4,51,0005-00-0005-19.png,0001-00-0001-74.png
00000014,349,1,1442934868824,1442934869338,927,410,0,0,0,5,2,3,52,0005-00-0006-38.png,0002-00-0004-14.png
00000014,350,0,1442934870384,1442934870928,398,551,0,0,0,4,1,3,41,0004-00-0007-72.png,0001-00-0005-36.png
00000014,351,1,1442934873941,1442934873949,503,444,0,0,0,2,4,2,24,0002-00-0005-26.png,0004-00-0007-85.png
00000014,352,0,1442934875065,1442934875625,889,407,0,0,0,1,3,2,13,0001-00-0007-15.png,0003-00-0006-26.png
00000014,353,1,1442934878791,1442934879339,863,476,0,0,0,5,4,1,54,0005-00-0001-00.png,0004-00-0003-07.png
00000014,354,1,1442934880466,1442934880948,328,454,0,0,0,1,5,4,15,0001-00-0003-27.png,0005-00-0001-18.png
00000014,355,1,1442934882021,1442934882623,878,441,0,0,0,3,1,2,31,0003-00-0003-93.png,0001-00-0007-73.png
00000014,356,1,1442934883741,1442934884749,448,430,0,0,0,3,5,2,35,0003-00-0003-91.png,0005-00-0004-22.png
00000014,357,0,1442934885736,1442934886736,197,450,0,0,0,5,3,2,53,0005-00-0000-46.png,0003-00-0008-30.png
00000014,358,0,1442934890135,1442934890611,376,436,0,0,0,2,1,1,21,0002-00-0004-49.png,0001-00-0008-10.png
00000014,359,1,1442934893537,1442934893553,497,374,0,0,0,2,5,3,25,0002-00-0007-88.png,0005-00-0002-44.png
00000014,360,0,1442934894616,1442934895658,441,396,0,0,0,4,3,1,43,0004-00-0006-57.png,0003-00-0000-27.png
00000014,361,1,1442934899831,1442934900326,900,489,0,0,0,5,4,1,54,0005-00-0004-64.png,0004-00-0006-20.png
00000014,362,1,1442934901396,1442934901989,880,402,0,0,0,5,2,3,52,0005-00-0006-15.png,0002-00-0005-00.png
00000014,363,1,1442934903141,1442934903149,505,441,0,0,0,3,5,2,35,0003-00-0001-71.png,0005-00-0004-73.png
00000014,364,1,1442934904251,1442934904815,876,439,0,0,0,3,1,2,31,0003-00-0008-37.png,0001-00-0000-84.png
00000014,365,1,1442934905913,1442934906589,871,459,0,0,0,4,2,2,42,0004-00-0009-10.png,0002-00-0009-97.png
00000014,366,1,1442934907572,1442934908611,357,393,0,0,0,4,5,1,45,0004-00-0006-09.png,0005-00-0004-13.png
00000014,367,1,1442934909637,1442934910175,338,423,0,0,0,2,3,1,23,0002-00-0001-25.png,0003-00-0001-02.png
00000014,368,1,1442934911287,1442934912237,441,424,0,0,0,1,4,3,14,0001-00-0000-02.png,0004-00-0004-64.png
00000014,369,0,1442934913405,1442934913956,364,424,0,0,0,3,2,1,32,0003-00-0001-85.png,0002-00-0005-42.png
00000014,370,1,1442934916943,1442934917410,315,414,0,0,0,2,4,2,24,0002-00-0006-06.png,0004-00-0004-86.png
00000014,371,1,1442934918686,1442934919217,869,454,0,0,0,5,1,4,51,0005-00-0008-56.png,0001-00-0000-41.png
00000014,372,1,1442934920311,1442934920817,375,539,0,0,0,1,3,2,13,0001-00-0006-70.png,0003-00-0005-22.png
00000014,373,1,1442934921996,1442934922589,878,465,0,0,0,4,3,1,43,0004-00-0006-93.png,0003-00-0003-69.png
00000014,374,0,1442934923726,1442934924314,869,454,0,0,0,3,4,1,34,0003-00-0003-82.png,0004-00-0005-37.png
00000014,375,1,1442934927706,1442934928184,917,461,0,0,0,2,1,1,21,0002-00-0008-29.png,0001-00-0007-81.png
00000014,376,1,1442934929291,1442934929739,369,441,0,0,0,1,5,4,15,0001-00-0003-94.png,0005-00-0004-04.png
00000014,377,0,1442934930908,1442934931897,376,412,0,0,0,4,1,3,41,0004-00-0000-91.png,0001-00-0002-27.png
00000014,378,1,1442934934791,1442934935309,894,415,0,0,0,5,3,2,53,0005-00-0000-00.png,0003-00-0000-96.png
00000014,379,1,1442934936405,1442934937071,374,471,0,0,0,1,2,1,12,0001-00-0005-88.png,0002-00-0007-85.png
00000014,380,1,1442934938175,1442934938657,411,469,0,0,0,2,5,3,25,0002-00-0003-55.png,0005-00-0007-09.png
00000014,381,1,1442934939766,1442934940425,882,415,0,0,0,5,3,2,53,0005-00-0001-97.png,0003-00-0002-98.png
00000014,382,1,1442934941525,1442934942121,344,436,0,0,0,2,4,2,24,0002-00-0001-10.png,0004-00-0005-18.png
00000014,383,1,1442934943213,1442934943755,337,449,0,0,0,3,5,2,35,0003-00-0004-82.png,0005-00-0008-32.png
00000014,384,1,1442934944839,1442934945332,384,465,0,0,0,4,5,1,45,0004-00-0004-49.png,0005-00-0002-50.png
00000014,385,0,1442934946594,1442934947221,381,397,0,0,0,3,1,2,31,0003-00-0004-26.png,0001-00-0007-01.png
00000014,386,0,1442934950257,1442934950732,421,442,0,0,0,5,1,4,51,0005-00-0006-84.png,0001-00-0001-75.png
00000014,387,0,1442934953666,1442934953694,490,446,0,0,0,4,1,3,41,0004-00-0002-08.png,0001-00-0007-12.png
00000014,388,1,1442934956667,1442934957196,393,420,0,0,0,3,4,1,34,0003-00-0006-17.png,0004-00-0000-40.png
00000014,389,1,1442934958320,1442934959101,453,385,0,0,0,1,3,2,13,0001-00-0006-41.png,0003-00-0005-15.png
00000014,390,0,1442934960175,1442934961136,440,423,0,0,0,5,2,3,52,0005-00-0008-61.png,0002-00-0009-22.png
00000014,391,0,1442934964162,1442934964174,472,321,0,0,0,2,1,1,21,0002-00-0000-43.png,0001-00-0005-87.png
00000014,392,1,1442934967637,1442934968101,901,438,0,0,0,4,3,1,43,0004-00-0003-66.png,0003-00-0001-59.png
00000014,393,1,1442934969132,1442934969659,332,427,0,0,0,2,3,1,23,0002-00-0003-58.png,0003-00-0001-02.png
00000014,394,1,1442934970690,1442934971204,376,514,0,0,0,1,2,1,12,0001-00-0009-78.png,0002-00-0000-17.png
00000014,395,0,1442934972727,1442934973233,894,415,0,0,0,1,4,3,14,0001-00-0008-69.png,0004-00-0008-42.png
00000014,396,1,1442934976115,1442934976642,912,494,0,0,0,4,2,2,42,0004-00-0007-35.png,0002-00-0004-07.png
00000014,397,1,1442934977689,1442934978251,875,501,0,0,0,3,2,1,32,0003-00-0004-73.png,0002-00-0000-63.png
00000014,398,1,1442934979380,1442934979878,363,436,0,0,0,2,5,3,25,0002-00-0005-45.png,0005-00-0002-10.png
00000014,399,1,1442934980907,1442934981522,869,455,0,0,0,5,4,1,54,0005-00-0000-29.png,0004-00-0001-77.png
00000014,400,1,1442934982630,1442934983489,460,507,0,0,0,1,5,4,15,0001-00-0003-08.png,0005-00-0006-53.png
00000014,401,1,1442934984548,1442934985154,888,452,0,0,0,2,1,1,21,0002-00-0002-95.png,0001-00-0007-76.png
00000014,402,1,1442934986206,1442934987136,416,410,0,0,0,2,4,2,24,0002-00-0003-28.png,0004-00-0006-48.png
00000014,403,0,1442934988227,1442934989089,453,398,0,0,0,5,2,3,52,0005-00-0007-08.png,0002-00-0006-68.png
00000014,404,0,1442934992140,1442934992703,872,535,0,0,0,2,3,1,23,0002-00-0009-99.png,0003-00-0000-35.png
00000014,405,1,1442934995933,1442934996423,898,510,0,0,0,5,4,1,54,0005-00-0007-47.png,0004-00-0000-69.png
00000014,406,0,1442934997496,1442934998020,888,423,0,0,0,1,4,3,14,0001-00-0001-75.png,0004-00-0004-71.png
00000014,407,1,1442935000853,1442935001360,908,453,0,0,0,5,1,4,51,0005-00-0000-97.png,0001-00-0002-20.png
00000014,408,0,1442935002325,1442935002819,325,410,0,0,0,4,1,3,41,0004-00-0006-07.png,0001-00-0004-45.png
00000014,409,1,1442935005870,1442935006427,879,442,0,0,0,4,2,2,42,0004-00-0004-39.png,0002-00-0008-13.png
00000014,410,1,1442935007504,1442935008008,332,446,0,0,0,4,5,1,45,0004-00-0009-14.png,0005-00-0004-87.png
00000014,411,0,1442935009135,1442935009747,872,410,0,0,0,3,4,1,34,0003-00-0000-28.png,0004-00-0000-13.png
00000014,412,0,1442935012681,1442935013258,257,478,0,0,0,3,1,2,31,0003-00-0002-08.png,0001-00-0007-14.png
00000014,413,0,1442935016425,1442935016910,436,420,0,0,0,3,2,1,32,0003-00-0003-87.png,0002-00-0007-18.png
00000014,414,1,1442935019846,1442935020362,294,417,0,0,0,2,5,3,25,0002-00-0001-88.png,0005-00-0008-50.png
00000014,415,1,1442935021364,1442935021912,326,456,0,0,0,1,5,4,15,0001-00-0000-13.png,0005-00-0000-73.png
00000014,416,1,1442935022924,1442935023511,874,515,0,0,0,4,3,1,43,0004-00-0003-18.png,0003-00-0001-59.png
00000014,417,1,1442935024556,1442935025025,360,417,0,0,0,1,2,1,12,0001-00-0003-24.png,0002-00-0002-83.png
00000014,418,1,1442935026128,1442935026628,338,423,0,0,0,3,5,2,35,0003-00-0009-05.png,0005-00-0004-36.png
00000014,419,1,1442935027710,1442935028300,893,417,0,0,0,5,3,2,53,0005-00-0005-04.png,0003-00-0004-89.png
00000014,420,1,1442935029329,1442935029816,363,435,0,0,0,1,3,2,13,0001-00-0004-58.png,0003-00-0009-60.png
00000014,421,1,1442935031019,1442935031624,401,444,0,0,0,1,3,2,13,0001-00-0006-72.png,0003-00-0002-60.png
00000014,422,0,1442935032610,1442935033211,861,424,0,0,0,1,2,1,12,0001-00-0001-46.png,0002-00-0003-49.png
00000014,423,1,1442935036387,1442935036892,881,446,0,0,0,5,2,3,52,0005-00-0003-80.png,0002-00-0002-89.png
00000014,424,1,1442935037964,1442935038540,376,481,0,0,0,2,5,3,25,0002-00-0003-80.png,0005-00-0000-69.png
00000014,425,1,1442935039676,1442935040251,870,459,0,0,0,4,2,2,42,0004-00-0007-11.png,0002-00-0009-89.png
00000014,426,0,1442935041336,1442935041928,376,448,0,0,0,5,4,1,54,0005-00-0000-55.png,0004-00-0004-42.png
00000014,427,0,1442935044980,1442935045527,901,396,0,0,0,3,5,2,35,0003-00-0006-27.png,0005-00-0009-56.png
00000014,428,1,1442935049090,1442935049639,924,434,0,0,0,5,3,2,53,0005-00-0000-45.png,0003-00-0007-84.png
00000014,429,1,1442935050705,1442935051768,939,424,0,0,0,3,1,2,31,0003-00-0003-64.png,0001-00-0003-76.png
00000014,430,0,1442935053113,1442935053623,874,412,0,0,0,1,5,4,15,0001-00-0002-79.png,0005-00-0000-43.png
00000014,431,1,1442935056649,1442935057113,887,372,0,0,0,5,1,4,51,0005-00-0005-60.png,0001-00-0008-12.png
00000014,432,1,1442935058381,1442935059012,930,398,0,0,0,4,1,3,41,0004-00-0005-15.png,0001-00-0007-94.png
00000014,433,1,1442935060024,1442935061071,465,423,0,0,0,2,3,1,23,0002-00-0007-01.png,0003-00-0009-77.png
00000014,434,0,1442935062139,1442935063311,857,514,0,0,0,2,4,2,24,0002-00-0009-58.png,0004-00-0006-99.png
00000014,435,1,1442935066381,1442935067331,415,436,0,0,0,4,5,1,45,0004-00-0006-19.png,0005-00-0009-09.png
00000014,436,1,1442935068412,1442935069040,891,392,0,0,0,4,3,1,43,0004-00-0006-37.png,0003-00-0008-96.png
00000014,437,1,1442935070037,1442935070992,427,462,0,0,0,1,4,3,14,0001-00-0009-28.png,0004-00-0009-17.png
00000014,438,1,1442935072015,1442935072573,363,426,0,0,0,3,4,1,34,0003-00-0004-63.png,0004-00-0005-46.png
00000014,439,0,1442935073536,1442935074217,365,463,0,0,0,2,1,1,21,0002-00-0004-30.png,0001-00-0004-56.png
00000014,440,1,1442935077140,1442935077641,870,524,0,0,0,3,2,1,32,0003-00-0004-38.png,0002-00-0003-86.png
00000014,441,1,1442935078673,1442935079205,335,436,0,0,0,1,2,1,12,0001-00-0000-54.png,0002-00-0008-74.png
00000014,442,1,1442935080284,1442935080878,371,433,0,0,0,2,3,1,23,0002-00-0008-87.png,0003-00-0006-03.png
00000014,443,1,1442935081993,1442935082575,891,458,0,0,0,5,2,3,52,0005-00-0009-63.png,0002-00-0006-28.png
00000014,444,0,1442935083650,1442935084267,387,419,0,0,0,2,1,1,21,0002-00-0006-42.png,0001-00-0007-53.png
00000014,445,0,1442935087241,1442935087309,516,463,0,0,0,3,1,2,31,0003-00-0003-90.png,0001-00-0007-59.png
00000014,446,1,1442935090342,1442935090896,425,415,0,0,0,3,5,2,35,0003-00-0007-55.png,0005-00-0004-30.png
00000014,447,0,1442935092052,1442935092554,341,454,0,0,0,5,3,2,53,0005-00-0000-55.png,0003-00-0005-15.png
00000014,448,0,1442935095708,1442935096247,376,410,0,0,0,4,2,2,42,0004-00-0007-21.png,0002-00-0009-59.png
00000014,449,1,1442935099113,1442935099138,504,421,0,0,0,1,5,4,15,0001-00-0004-08.png,0005-00-0005-87.png
00000014,450,1,1442935100280,1442935100829,332,449,0,0,0,2,4,2,24,0002-00-0003-41.png,0004-00-0000-09.png
00000014,451,1,1442935101980,1442935102527,369,427,0,0,0,3,4,1,34,0003-00-0004-93.png,0004-00-0003-24.png
00000014,452,1,1442935103630,1442935104670,358,419,0,0,0,4,5,1,45,0004-00-0007-24.png,0005-00-0000-10.png
00000014,453,0,1442935105837,1442935106349,350,419,0,0,0,4,3,1,43,0004-00-0005-00.png,0003-00-0008-06.png
00000014,454,1,1442935109375,1442935109397,489,405,0,0,0,1,3,2,13,0001-00-0007-62.png,0003-00-0009-55.png
00000014,455,1,1442935110459,1442935110981,388,528,0,0,0,1,4,3,14,0001-00-0005-26.png,0004-00-0003-89.png
00000014,456,1,1442935112038,1442935112607,870,446,0,0,0,5,1,4,51,0005-00-0007-29.png,0001-00-0006-18.png
00000014,457,0,1442935113733,1442935114619,367,402,0,0,0,3,2,1,32,0003-00-0006-76.png,0002-00-0004-95.png
00000014,458,0,1442935117444,1442935117472,472,426,0,0,0,4,1,3,41,0004-00-0000-17.png,0001-00-0002-15.png
00000014,459,1,1442935120563,1442935121065,881,412,0,0,0,5,4,1,54,0005-00-0006-96.png,0004-00-0002-19.png
00000014,460,1,1442935122963,1442935123460,387,543,0,0,0,2,5,3,25,0002-00-0005-79.png,0005-00-0006-16.png
00000014,461,1,1442935124577,1442935125121,886,450,0,0,0,5,1,4,51,0005-00-0005-86.png,0001-00-0005-99.png
00000014,462,1,1442935126303,1442935126783,401,436,0,0,0,2,5,3,25,0002-00-0002-84.png,0005-00-0003-85.png
00000014,463,0,1442935127893,1442935128879,440,449,0,0,0,3,2,1,32,0003-00-0005-16.png,0002-00-0002-96.png
00000014,464,1,1442935132159,1442935132647,925,438,0,0,0,2,1,1,21,0002-00-0000-58.png,0001-00-0009-78.png
00000014,465,1,1442935133790,1442935134329,888,410,0,0,0,5,3,2,53,0005-00-0004-57.png,0003-00-0003-47.png
00000014,466,1,1442935135455,1442935136177,875,438,0,0,0,4,3,1,43,0004-00-0003-48.png,0003-00-0001-00.png
00000014,467,0,1442935137265,1442935138375,365,455,0,0,0,3,1,2,31,0003-00-0000-56.png,0001-00-0006-50.png
00000014,468,1,1442935143313,1442935143762,336,455,0,0,0,1,2,1,12,0001-00-0003-44.png,0002-00-0008-45.png
00000014,469,0,1442935144799,1442935145716,458,412,0,0,0,4,1,3,41,0004-00-0004-43.png,0001-00-0009-05.png
00000014,470,1,1442935150553,1442935151044,373,479,0,0,0,1,4,3,14,0001-00-0002-58.png,0004-00-0001-52.png
00000014,471,1,1442935151943,1442935152586,361,522,0,0,0,2,4,2,24,0002-00-0004-13.png,0004-00-0003-31.png
00000014,472,1,1442935153576,1442935154201,346,463,0,0,0,4,5,1,45,0004-00-0000-47.png,0005-00-0005-84.png
00000014,473,1,1442935155232,1442935155798,882,430,0,0,0,5,2,3,52,0005-00-0001-72.png,0002-00-0004-51.png
00000014,474,0,1442935156742,1442935157441,429,390,0,0,0,4,2,2,42,0004-00-0001-93.png,0002-00-0008-97.png
00000014,475,1,1442935160828,1442935161295,310,402,0,0,0,2,3,1,23,0002-00-0005-63.png,0003-00-0005-98.png
00000014,476,1,1442935162434,1442935162968,875,462,0,0,0,5,4,1,54,0005-00-0003-09.png,0004-00-0005-66.png
00000014,477,1,1442935164048,1442935164512,264,440,0,0,0,1,3,2,13,0001-00-0002-76.png,0003-00-0002-44.png
00000014,478,1,1442935165456,1442935165943,414,475,0,0,0,3,5,2,35,0003-00-0002-49.png,0005-00-0004-39.png
00000014,479,1,1442935166918,1442935167958,383,439,0,0,0,3,4,1,34,0003-00-0005-24.png,0004-00-0004-61.png
00000014,480,0,1442935168917,1442935169506,858,440,0,0,0,1,5,4,15,0001-00-0005-36.png,0005-00-0003-49.png
00000014,481,1,1442935174213,1442935175153,951,437,0,0,0,3,1,2,31,0003-00-0008-60.png,0001-00-0001-65.png
00000014,482,1,1442935176047,1442935176685,325,449,0,0,0,4,5,1,45,0004-00-0002-38.png,0005-00-0008-35.png
00000014,483,0,1442935177553,1442935178618,273,506,0,0,0,4,1,3,41,0004-00-0006-70.png,0001-00-0007-97.png
00000014,484,1,1442935183860,1442935183928,494,514,0,0,0,2,4,2,24,0002-00-0004-92.png,0004-00-0007-40.png
00000014,485,1,1442935185135,1442935185602,887,474,0,0,0,5,1,4,51,0005-00-0006-80.png,0001-00-0001-62.png
00000014,486,1,1442935186742,1442935187342,912,541,0,0,0,4,2,2,42,0004-00-0007-59.png,0002-00-0000-44.png
00000014,487,1,1442935188258,1442935188975,873,462,0,0,0,5,2,3,52,0005-00-0001-79.png,0002-00-0000-38.png
00000014,488,0,1442935189944,1442935190620,370,462,0,0,0,2,1,1,21,0002-00-0007-40.png,0001-00-0006-39.png
00000014,489,1,1442935195282,1442935195895,420,397,0,0,0,1,2,1,12,0001-00-0003-48.png,0002-00-0007-72.png
00000014,490,1,1442935197150,1442935197676,376,436,0,0,0,1,3,2,13,0001-00-0009-13.png,0003-00-0007-19.png
00000014,491,0,1442935198670,1442935199251,862,486,0,0,0,2,3,1,23,0002-00-0009-77.png,0003-00-0000-22.png
00000014,492,1,1442935202993,1442935203467,338,446,0,0,0,3,4,1,34,0003-00-0009-76.png,0004-00-0000-61.png
00000014,493,1,1442935204612,1442935205249,373,493,0,0,0,1,4,3,14,0001-00-0000-43.png,0004-00-0004-53.png
00000014,494,1,1442935206535,1442935207073,900,463,0,0,0,5,4,1,54,0005-00-0005-47.png,0004-00-0006-19.png
00000014,495,0,1442935208163,1442935208768,389,503,0,0,0,3,2,1,32,0003-00-0006-10.png,0002-00-0001-51.png
00000014,496,1,1442935212197,1442935212645,342,390,0,0,0,1,5,4,15,0001-00-0003-73.png,0005-00-0008-66.png
00000014,497,1,1442935214099,1442935214622,901,471,0,0,0,4,3,1,43,0004-00-0005-66.png,0003-00-0005-69.png
00000014,498,1,1442935215874,1442935216367,325,473,0,0,0,3,5,2,35,0003-00-0009-97.png,0005-00-0000-21.png
00000014,499,1,1442935217347,1442935217899,369,468,0,0,0,2,5,3,25,0002-00-0002-24.png,0005-00-0006-59.png
00000014,500,0,1442935218846,1442935218862,451,416,0,0,0,5,3,2,53,0005-00-0001-08.png,0003-00-0007-59.png
00000014,501,0,1442935228713,1442935229777,489,447,0,0,0,4,2,2,42,0004-00-0009-95.png,0002-00-0004-72.png
00000014,502,0,1442935236410,1442935236854,893,521,0,0,0,1,3,2,13,0001-00-0001-22.png,0003-00-0003-17.png
00000014,503,1,1442935241246,1442935242311,922,419,0,0,0,5,2,3,52,0005-00-0000-76.png,0002-00-0007-50.png
00000014,504,1,1442935243536,1442935244146,331,389,0,0,0,1,2,1,12,0001-00-0003-29.png,0002-00-0003-66.png
00000014,505,1,1442935245396,1442935245910,911,449,0,0,0,3,1,2,31,0003-00-0001-05.png,0001-00-0006-65.png
00000014,506,1,1442935246909,1442935247403,401,476,0,0,0,2,3,1,23,0002-00-0002-58.png,0003-00-0001-11.png
00000014,507,0,1442935248596,1442935249122,888,448,0,0,0,2,4,2,24,0002-00-0006-74.png,0004-00-0000-13.png
00000014,508,1,1442935252718,1442935253213,337,426,0,0,0,2,5,3,25,0002-00-0003-16.png,0005-00-0002-54.png
00000014,509,1,1442935254330,1442935255435,900,463,0,0,0,5,4,1,54,0005-00-0006-25.png,0004-00-0009-54.png
00000014,510,0,1442935256580,1442935257067,401,462,0,0,0,3,2,1,32,0003-00-0008-28.png,0002-00-0000-77.png
00000014,511,1,1442935260174,1442935260656,366,427,0,0,0,3,4,1,34,0003-00-0003-90.png,0004-00-0007-46.png
00000014,512,1,1442935261780,1442935262318,868,480,0,0,0,4,3,1,43,0004-00-0003-18.png,0003-00-0008-40.png
00000014,513,1,1442935263250,1442935263818,364,446,0,0,0,1,5,4,15,0001-00-0008-97.png,0005-00-0003-10.png
00000014,514,0,1442935265202,1442935265782,874,416,0,0,0,4,5,1,45,0004-00-0008-35.png,0005-00-0004-66.png
00000014,515,1,1442935277142,1442935277644,931,423,0,0,0,5,1,4,51,0005-00-0002-21.png,0001-00-0005-15.png
00000014,516,0,1442935278771,1442935279369,369,498,0,0,0,2,1,1,21,0002-00-0007-22.png,0001-00-0009-43.png
00000014,517,1,1442935283802,1442935284261,876,435,0,0,0,5,3,2,53,0005-00-0007-48.png,0003-00-0002-90.png
00000014,518,1,1442935285335,1442935285865,359,423,0,0,0,1,4,3,14,0001-00-0006-71.png,0004-00-0002-40.png
00000014,519,1,1442935287056,1442935287607,414,539,0,0,0,3,5,2,35,0003-00-0000-95.png,0005-00-0008-95.png
00000014,520,1,1442935288712,1442935289230,888,410,0,0,0,4,1,3,41,0004-00-0001-78.png,0001-00-0009-29.png
00000014,521,1,1442935290263,1442935290761,325,436,0,0,0,2,5,3,25,0002-00-0003-44.png,0005-00-0009-88.png
00000014,522,0,1442935291660,1442935292682,453,472,0,0,0,4,3,1,43,0004-00-0003-44.png,0003-00-0005-17.png
00000014,523,0,1442935296214,1442935296726,401,431,0,0,0,3,1,2,31,0003-00-0007-12.png,0001-00-0006-33.png
00000014,524,0,1442935299842,1442935300275,361,408,0,0,0,5,1,4,51,0005-00-0009-33.png,0001-00-0005-38.png
00000014,525,1,1442935303737,1442935304305,901,409,0,0,0,2,1,1,21,0002-00-0006-78.png,0001-00-0006-94.png
00000014,526,0,1442935305588,1442935306130,878,443,0,0,0,3,4,1,34,0003-00-0009-90.png,0004-00-0001-83.png
00000014,527,0,1442935309272,1442935309749,875,423,0,0,0,4,5,1,45,0004-00-0009-83.png,0005-00-0009-56.png
00000014,528,1,1442935313688,1442935314164,880,427,0,0,0,5,2,3,52,0005-00-0007-05.png,0002-00-0005-53.png
00000014,529,0,1442935315516,1442935316042,376,410,0,0,0,5,4,1,54,0005-00-0004-34.png,0004-00-0006-95.png
00000014,530,1,1442935324254,1442935324737,898,490,0,0,0,3,2,1,32,0003-00-0001-33.png,0002-00-0000-99.png
00000014,531,0,1442935326276,1442935326787,331,419,0,0,0,4,2,2,42,0004-00-0005-19.png,0002-00-0003-40.png
00000014,532,1,1442935329624,1442935330084,338,412,0,0,0,1,5,4,15,0001-00-0000-87.png,0005-00-0001-58.png
00000014,533,1,1442935331203,1442935331709,349,528,0,0,0,1,4,3,14,0001-00-0006-30.png,0004-00-0001-46.png
00000014,534,1,1442935332947,1442935334113,363,462,0,0,0,2,4,2,24,0002-00-0008-87.png,0004-00-0002-53.png
00000014,535,1,1442935335084,1442935335607,341,495,0,0,0,1,2,1,12,0001-00-0007-44.png,0002-00-0003-30.png
00000014,536,0,1442935336934,1442935338070,292,451,0,0,0,4,1,3,41,0004-00-0002-54.png,0001-00-0002-07.png
00000014,537,1,1442935344756,1442935345241,925,541,0,0,0,5,3,2,53,0005-00-0002-89.png,0003-00-0008-95.png
00000014,538,0,1442935346714,1442935347267,861,533,0,0,0,2,3,1,23,0002-00-0001-41.png,0003-00-0001-95.png
00000014,539,1,1442935350602,1442935351016,383,449,0,0,0,1,3,2,13,0001-00-0000-26.png,0003-00-0006-03.png
00000014,540,1,1442935352075,1442935352622,375,439,0,0,0,3,5,2,35,0003-00-0007-69.png,0005-00-0004-19.png
00000014,541,1,1442935353811,1442935354398,350,455,0,0,0,2,5,3,25,0002-00-0005-08.png,0005-00-0005-52.png
00000014,542,1,1442935355420,1442935355976,867,445,0,0,0,3,1,2,31,0003-00-0001-37.png,0001-00-0006-85.png
00000014,543,1,1442935357459,1442935358389,953,410,0,0,0,4,1,3,41,0004-00-0003-83.png,0001-00-0000-08.png
00000014,544,1,1442935359299,1442935359831,363,449,0,0,0,3,4,1,34,0003-00-0008-61.png,0004-00-0002-06.png
00000014,545,1,1442935360727,1442935361265,875,438,0,0,0,5,2,3,52,0005-00-0001-88.png,0002-00-0005-88.png
00000014,546,1,1442935362207,1442935362766,905,445,0,0,0,5,4,1,54,0005-00-0004-40.png,0004-00-0008-19.png
00000014,547,0,1442935363747,1442935364362,905,415,0,0,0,3,5,2,35,0003-00-0009-18.png,0005-00-0007-13.png
00000014,548,1,1442935368217,1442935368663,324,424,0,0,0,2,3,1,23,0002-00-0003-49.png,0003-00-0009-32.png
00000014,549,1,1442935369771,1442935370782,911,424,0,0,0,5,1,4,51,0005-00-0001-49.png,0001-00-0000-25.png
00000014,550,1,1442935371867,1442935372357,418,453,0,0,0,1,3,2,13,0001-00-0001-16.png,0003-00-0000-54.png
00000014,551,0,1442935373366,1442935373991,403,450,0,0,0,5,3,2,53,0005-00-0008-51.png,0003-00-0006-82.png
00000014,552,0,1442935378018,1442935378471,376,384,0,0,0,2,1,1,21,0002-00-0000-69.png,0001-00-0003-90.png
00000014,553,0,1442935381583,1442935382098,876,450,0,0,0,4,5,1,45,0004-00-0003-40.png,0005-00-0002-34.png
00000014,554,0,1442935384970,1442935385434,361,424,0,0,0,4,3,1,43,0004-00-0002-11.png,0003-00-0003-20.png
00000014,555,0,1442935388563,1442935389027,870,524,0,0,0,1,5,4,15,0001-00-0005-83.png,0005-00-0001-18.png
00000014,556,1,1442935392216,1442935392764,960,427,0,0,0,3,2,1,32,0003-00-0000-42.png,0002-00-0006-48.png
00000014,557,1,1442935393696,1442935394342,934,411,0,0,0,4,2,2,42,0004-00-0000-83.png,0002-00-0007-62.png
00000014,558,1,1442935395314,1442935395813,325,436,0,0,0,1,4,3,14,0001-00-0008-23.png,0004-00-0008-26.png
00000014,559,0,1442935396731,1442935397781,873,440,0,0,0,2,4,2,24,0002-00-0004-46.png,0004-00-0009-45.png
00000014,560,1,1442935401479,1442935401939,337,399,0,0,0,1,2,1,12,0001-00-0007-76.png,0002-00-0004-77.png
00000014,561,1,1442935403072,1442935403612,889,447,0,0,0,5,2,3,52,0005-00-0004-87.png,0002-00-0000-69.png
00000014,562,0,1442935404682,1442935406040,436,435,0,0,0,5,3,2,53,0005-00-0007-36.png,0003-00-0002-69.png
00000014,563,1,1442935409102,1442935409570,337,440,0,0,0,1,3,2,13,0001-00-0007-83.png,0003-00-0001-84.png
00000014,564,0,1442935411439,1442935411911,325,437,0,0,0,2,1,1,21,0002-00-0002-09.png,0001-00-0004-98.png
00000014,565,1,1442935415445,1442935415941,913,424,0,0,0,4,2,2,42,0004-00-0006-87.png,0002-00-0003-24.png
00000014,566,0,1442935417360,1442935417825,328,455,0,0,0,4,3,1,43,0004-00-0009-32.png,0003-00-0004-60.png
00000014,567,0,1442935420779,1442935421247,927,436,0,0,0,1,4,3,14,0001-00-0008-23.png,0004-00-0005-49.png
00000014,568,1,1442935425689,1442935426114,923,410,0,0,0,3,1,2,31,0003-00-0009-46.png,0001-00-0006-27.png
00000014,569,1,1442935427746,1442935428623,369,452,0,0,0,1,5,4,15,0001-00-0002-29.png,0005-00-0005-67.png
00000014,570,1,1442935429686,1442935430202,370,472,0,0,0,2,4,2,24,0002-00-0008-84.png,0004-00-0002-91.png
00000014,571,1,1442935431185,1442935431750,872,538,0,0,0,5,4,1,54,0005-00-0007-86.png,0004-00-0003-65.png
00000014,572,1,1442935432754,1442935432785,504,454,0,0,0,3,5,2,35,0003-00-0005-03.png,0005-00-0001-96.png
00000014,573,1,1442935433898,1442935434462,343,471,0,0,0,1,2,1,12,0001-00-0009-15.png,0002-00-0004-68.png
00000014,574,1,1442935435458,1442935436050,401,448,0,0,0,3,4,1,34,0003-00-0009-62.png,0004-00-0008-92.png
00000014,575,0,1442935437056,1442935437625,904,456,0,0,0,2,3,1,23,0002-00-0000-98.png,0003-00-0002-92.png
00000014,576,1,1442935442287,1442935442782,358,416,0,0,0,4,5,1,45,0004-00-0008-33.png,0005-00-0007-16.png
00000014,577,1,1442935444066,1442935444618,865,537,0,0,0,4,1,3,41,0004-00-0006-90.png,0001-00-0002-62.png
00000014,578,1,1442935445683,1442935446222,441,545,0,0,0,2,5,3,25,0002-00-0009-83.png,0005-00-0001-84.png
00000014,579,0,1442935447265,1442935448096,356,436,0,0,0,3,2,1,32,0003-00-0005-59.png,0002-00-0003-00.png
00000014,580,1,1442935451857,1442935452322,919,467,0,0,0,5,1,4,51,0005-00-0003-95.png,0001-00-0004-97.png
00000014,581,1,1442935453469,1442935454519,888,424,0,0,0,4,3,1,43,0004-00-0005-12.png,0003-00-0009-57.png
00000014,582,1,1442935455572,1442935456087,879,455,0,0,0,4,1,3,41,0004-00-0004-24.png,0001-00-0005-75.png
00000014,583,0,1442935457075,1442935457654,413,424,0,0,0,3,1,2,31,0003-00-0008-44.png,0001-00-0000-89.png
00000014,584,1,1442935461526,1442935462345,320,436,0,0,0,3,4,1,34,0003-00-0006-05.png,0004-00-0009-26.png
00000014,585,1,1442935463528,1442935464092,401,480,0,0,0,1,4,3,14,0001-00-0002-35.png,0004-00-0008-18.png
00000014,586,0,1442935465744,1442935466275,863,448,0,0,0,2,3,1,23,0002-00-0009-66.png,0003-00-0002-39.png
00000014,587,0,1442935470016,1442935470562,359,462,0,0,0,2,1,1,21,0002-00-0006-37.png,0001-00-0000-79.png
00000014,588,1,1442935474938,1442935475441,376,449,0,0,0,1,3,2,13,0001-00-0005-36.png,0003-00-0000-18.png
00000014,589,1,1442935476949,1442935477566,359,429,0,0,0,1,2,1,12,0001-00-0006-32.png,0002-00-0004-55.png
00000014,590,1,1442935481148,1442935481660,370,417,0,0,0,3,5,2,35,0003-00-0004-93.png,0005-00-0007-20.png
00000014,591,1,1442935483050,1442935484073,879,377,0,0,0,5,3,2,53,0005-00-0004-55.png,0003-00-0001-67.png
00000014,592,0,1442935485378,1442935486400,390,449,0,0,0,4,2,2,42,0004-00-0009-79.png,0002-00-0008-80.png
00000014,593,1,1442935490982,1442935491406,401,435,0,0,0,1,5,4,15,0001-00-0003-19.png,0005-00-0000-35.png
00000014,594,1,1442935492646,1442935493265,362,501,0,0,0,4,5,1,45,0004-00-0005-26.png,0005-00-0002-40.png
00000014,595,1,1442935494474,1442935495046,921,468,0,0,0,5,2,3,52,0005-00-0007-55.png,0002-00-0003-56.png
00000014,596,1,1442935496096,1442935496764,385,543,0,0,0,2,5,3,25,0002-00-0002-18.png,0005-00-0006-41.png
00000014,597,1,1442935497901,1442935498462,401,474,0,0,0,2,4,2,24,0002-00-0000-77.png,0004-00-0008-81.png
00000014,598,0,1442935499539,1442935500294,417,533,0,0,0,5,4,1,54,0005-00-0008-80.png,0004-00-0001-32.png
00000014,599,1,1442935505347,1442935505985,888,424,0,0,0,3,2,1,32,0003-00-0002-17.png,0002-00-0000-91.png
00000014,600,1,1442935507156,1442935507703,894,435,0,0,0,5,1,4,51,0005-00-0006-30.png,0001-00-0002-94.png
00000014,601,1,1442935508766,1442935509797,383,438,0,0,0,2,4,2,24,0002-00-0004-47.png,0004-00-0007-29.png
00000014,602,1,1442935510973,1442935511538,876,443,0,0,0,2,1,1,21,0002-00-0009-73.png,0001-00-0000-30.png
00000014,603,1,1442935512591,1442935513088,350,474,0,0,0,2,3,1,23,0002-00-0002-49.png,0003-00-0009-68.png
00000014,604,1,1442935514224,1442935515151,401,429,0,0,0,4,5,1,45,0004-00-0008-86.png,0005-00-0002-03.png
00000014,605,0,1442935516210,1442935517164,383,427,0,0,0,5,2,3,52,0005-00-0003-42.png,0002-00-0003-27.png
00000014,606,1,1442935520512,1442935520963,401,410,0,0,0,1,2,1,12,0001-00-0002-09.png,0002-00-0006-30.png
00000014,607,1,1442935522124,1442935522656,874,449,0,0,0,5,4,1,54,0005-00-0007-98.png,0004-00-0003-06.png
00000014,608,1,1442935523719,1442935524220,342,454,0,0,0,1,4,3,14,0001-00-0007-72.png,0004-00-0003-81.png
00000014,609,1,1442935525302,1442935525879,896,415,0,0,0,3,1,2,31,0003-00-0006-60.png,0001-00-0004-27.png
00000014,610,1,1442935527322,1442935527911,875,476,0,0,0,4,2,2,42,0004-00-0002-87.png,0002-00-0003-51.png
00000014,611,0,1442935529018,1442935529632,880,442,0,0,0,3,4,1,34,0003-00-0001-34.png,0004-00-0005-92.png
00000014,612,0,1442935532967,1442935533528,948,442,0,0,0,2,5,3,25,0002-00-0004-18.png,0005-00-0005-18.png
00000014,613,1,1442935536442,1442935536967,896,524,0,0,0,5,3,2,53,0005-00-0002-69.png,0003-00-0000-05.png
00000014,614,0,1442935538045,1442935538589,342,483,0,0,0,4,3,1,43,0004-00-0008-99.png,0003-00-0005-82.png
00000014,615,1,1442935541860,1442935542373,902,452,0,0,0,5,1,4,51,0005-00-0000-79.png,0001-00-0005-85.png
00000014,616,0,1442935543569,1442935544584,414,462,0,0,0,3,2,1,32,0003-00-0005-55.png,0002-00-0002-27.png
00000014,617,1,1442935548093,1442935548558,293,434,0,0,0,3,5,2,35,0003-00-0004-08.png,0005-00-0002-64.png
00000014,618,1,1442935549720,1442935550306,371,480,0,0,0,1,5,4,15,0001-00-0002-39.png,0005-00-0007-30.png
00000014,619,1,1442935551362,1442935552037,916,446,0,0,0,4,1,3,41,0004-00-0007-04.png,0001-00-0002-55.png
00000014,620,1,1442935553161,1442935554635,401,424,0,0,0,1,3,2,13,0001-00-0009-51.png,0003-00-0001-64.png
00000014,621,0,1442935555612,1442935556474,360,554,0,0,0,3,2,1,32,0003-00-0009-76.png,0002-00-0001-51.png
00000014,622,0,1442935561061,1442935561736,897,490,0,0,0,2,5,3,25,0002-00-0002-17.png,0005-00-0009-72.png
00000014,623,0,1442935564698,1442935565221,388,543,0,0,0,3,1,2,31,0003-00-0002-92.png,0001-00-0003-69.png
00000014,624,1,1442935568123,1442935568631,375,426,0,0,0,3,5,2,35,0003-00-0007-62.png,0005-00-0009-26.png
00000014,625,0,1442935569628,1442935570604,315,416,0,0,0,4,3,1,43,0004-00-0004-72.png,0003-00-0005-80.png
00000014,626,1,1442935574502,1442935575063,901,542,0,0,0,5,4,1,54,0005-00-0004-83.png,0004-00-0009-58.png
00000014,627,0,1442935576085,1442935576817,928,501,0,0,0,2,3,1,23,0002-00-0000-27.png,0003-00-0003-03.png
00000014,628,1,1442935580780,1442935581275,369,400,0,0,0,4,5,1,45,0004-00-0002-15.png,0005-00-0001-92.png
00000014,629,1,1442935582653,1442935583189,869,524,0,0,0,4,1,3,41,0004-00-0000-66.png,0001-00-0009-46.png
00000014,630,1,1442935584766,1442935585267,311,410,0,0,0,1,4,3,14,0001-00-0005-17.png,0004-00-0008-28.png
00000014,631,1,1442935586475,1442935586991,319,411,0,0,0,1,3,2,13,0001-00-0004-34.png,0003-00-0004-03.png
00000014,632,1,1442935588014,1442935588558,896,453,0,0,0,2,1,1,21,0002-00-0004-09.png,0001-00-0001-62.png
00000014,633,1,1442935589713,1442935590315,897,433,0,0,0,5,2,3,52,0005-00-0006-66.png,0002-00-0002-78.png
00000014,634,1,1442935591320,1442935592312,435,419,0,0,0,3,4,1,34,0003-00-0008-08.png,0004-00-0008-30.png
00000014,635,1,1442935593362,1442935593849,341,521,0,0,0,1,5,4,15,0001-00-0001-27.png,0005-00-0007-05.png
00000014,636,1,1442935594888,1442935595335,388,423,0,0,0,1,2,1,12,0001-00-0002-53.png,0002-00-0009-14.png
00000014,637,1,1442935596323,1442935596898,389,462,0,0,0,2,4,2,24,0002-00-0009-94.png,0004-00-0009-53.png
00000014,638,1,1442935597854,1442935598490,916,473,0,0,0,5,1,4,51,0005-00-0008-27.png,0001-00-0000-37.png
00000014,639,1,1442935599371,1442935600036,896,466,0,0,0,4,2,2,42,0004-00-0002-77.png,0002-00-0005-92.png
00000014,640,1,1442935601020,1442935601602,867,408,0,0,0,5,3,2,53,0005-00-0006-26.png,0003-00-0008-07.png
00000014,641,1,1442935602450,1442935603132,376,466,0,0,0,4,5,1,45,0004-00-0004-81.png,0005-00-0002-87.png
00000014,642,0,1442935604119,1442935605058,361,421,0,0,0,5,2,3,52,0005-00-0003-35.png,0002-00-0004-82.png
00000014,643,0,1442935608049,1442935608538,357,446,0,0,0,4,1,3,41,0004-00-0004-03.png,0001-00-0000-21.png
00000014,644,0,1442935612074,1442935612953,393,427,0,0,0,4,2,2,42,0004-00-0001-50.png,0002-00-0001-90.png
00000014,645,0,1442935616725,1442935617158,882,526,0,0,0,2,4,2,24,0002-00-0001-54.png,0004-00-0004-11.png
00000014,646,1,1442935620343,1442935620842,869,538,0,0,0,4,3,1,43,0004-00-0000-56.png,0003-00-0003-15.png
00000014,647,1,1442935622597,1442935623049,367,402,0,0,0,1,5,4,15,0001-00-0000-98.png,0005-00-0005-73.png
00000014,648,1,1442935624491,1442935625024,865,527,0,0,0,2,1,1,21,0002-00-0003-21.png,0001-00-0004-77.png
00000014,649,1,1442935626312,1442935626976,391,480,0,0,0,2,3,1,23,0002-00-0007-65.png,0003-00-0001-63.png
00000014,650,0,1442935628632,1442935629095,905,454,0,0,0,3,5,2,35,0003-00-0002-33.png,0005-00-0007-72.png
00000014,651,1,1442935632338,1442935632780,408,420,0,0,0,1,3,2,13,0001-00-0009-70.png,0003-00-0003-98.png
00000014,652,1,1442935633820,1442935634388,876,437,0,0,0,5,4,1,54,0005-00-0008-76.png,0004-00-0000-93.png
00000014,653,0,1442935635370,1442935635895,363,418,0,0,0,3,2,1,32,0003-00-0004-03.png,0002-00-0009-76.png
00000014,654,0,1442935638855,1442935639297,427,423,0,0,0,5,3,2,53,0005-00-0004-63.png,0003-00-0007-13.png
00000014,655,0,1442935643599,1442935644140,871,471,0,0,0,1,4,3,14,0001-00-0001-31.png,0004-00-0009-69.png
00000014,656,0,1442935647106,1442935647174,510,470,0,0,0,3,1,2,31,0003-00-0009-14.png,0001-00-0007-53.png
00000014,657,1,1442935650646,1442935651139,390,539,0,0,0,3,4,1,34,0003-00-0002-45.png,0004-00-0004-57.png
00000014,658,1,1442935652265,1442935652828,874,515,0,0,0,5,1,4,51,0005-00-0005-31.png,0001-00-0004-71.png
00000014,659,1,1442935653815,1442935654364,325,458,0,0,0,1,2,1,12,0001-00-0006-33.png,0002-00-0006-83.png
00000014,660,1,1442935655335,1442935655881,363,438,0,0,0,2,5,3,25,0002-00-0005-67.png,0005-00-0007-15.png
00000014,661,1,1442935656763,1442935656791,494,410,0,0,0,1,2,1,12,0001-00-0001-14.png,0002-00-0005-32.png
00000014,662,1,1442935657901,1442935658440,860,458,0,0,0,2,1,1,21,0002-00-0004-11.png,0001-00-0001-57.png
00000014,663,1,1442935659391,1442935659943,863,502,0,0,0,4,1,3,41,0004-00-0008-26.png,0001-00-0003-24.png
00000014,664,0,1442935660899,1442935660951,505,448,0,0,0,5,3,2,53,0005-00-0003-61.png,0003-00-0005-08.png
00000014,665,0,1442935664848,1442935665353,888,449,0,0,0,2,4,2,24,0002-00-0004-07.png,0004-00-0008-05.png
00000014,666,1,1442935669444,1442935670089,406,301,0,0,0,2,3,1,23,0002-00-0004-73.png,0003-00-0008-99.png
00000014,667,0,1442935671950,1442935672436,418,469,0,0,0,4,3,1,43,0004-00-0003-32.png,0003-00-0001-22.png
00000014,668,0,1442935675296,1442935675328,500,399,0,0,0,5,2,3,52,0005-00-0001-31.png,0002-00-0009-46.png
00000014,669,1,1442935678223,1442935679262,920,509,0,0,0,3,2,1,32,0003-00-0000-54.png,0002-00-0000-12.png
00000014,670,1,1442935680366,1442935680912,904,451,0,0,0,5,1,4,51,0005-00-0003-43.png,0001-00-0008-59.png
00000014,671,1,1442935682249,1442935682808,222,558,0,0,0,3,5,2,35,0003-00-0009-13.png,0005-00-0006-92.png
00000014,672,1,1442935683870,1442935683886,504,462,0,0,0,3,4,1,34,0003-00-0007-63.png,0004-00-0008-01.png
00000014,673,1,1442935684911,1442935685411,379,467,0,0,0,4,5,1,45,0004-00-0001-43.png,0005-00-0000-88.png
00000014,674,1,1442935686453,1442935686979,410,562,0,0,0,1,5,4,15,0001-00-0003-03.png,0005-00-0001-11.png
00000014,675,0,1442935688020,1442935688557,312,437,0,0,0,3,1,2,31,0003-00-0003-72.png,0001-00-0000-29.png
00000014,676,0,1442935691827,1442935692333,876,462,0,0,0,1,4,3,14,0001-00-0006-43.png,0004-00-0005-07.png
00000014,677,1,1442935696826,1442935697316,885,439,0,0,0,5,4,1,54,0005-00-0008-07.png,0004-00-0005-37.png
00000014,678,0,1442935698805,1442935699412,859,492,0,0,0,2,5,3,25,0002-00-0002-81.png,0005-00-0002-70.png
00000014,679,1,1442935704243,1442935705860,414,468,0,0,0,1,3,2,13,0001-00-0006-92.png,0003-00-0009-29.png
00000014,680,0,1442935707263,1442935707849,348,501,0,0,0,4,2,2,42,0004-00-0008-81.png,0002-00-0002-41.png
00000014,681,1,1442935712032,1442935712578,906,467,0,0,0,5,1,4,51,0005-00-0006-48.png,0001-00-0009-79.png
00000014,682,1,1442935720163,1442935720706,937,472,0,0,0,5,3,2,53,0005-00-0000-17.png,0003-00-0008-32.png
00000014,683,1,1442935722112,1442935722910,309,423,0,0,0,2,5,3,25,0002-00-0006-39.png,0005-00-0004-19.png
00000014,684,0,1442935723894,1442935724440,390,414,0,0,0,4,3,1,43,0004-00-0003-41.png,0003-00-0000-68.png
00000014,685,1,1442935729376,1442935729888,932,442,0,0,0,2,1,1,21,0002-00-0006-84.png,0001-00-0006-01.png
00000014,686,1,1442935730846,1442935731402,362,450,0,0,0,1,4,3,14,0001-00-0002-06.png,0004-00-0004-55.png
00000014,687,0,1442935732580,1442935733189,350,462,0,0,0,3,2,1,32,0003-00-0003-58.png,0002-00-0005-14.png
00000014,688,1,1442935736660,1442935737161,338,554,0,0,0,4,5,1,45,0004-00-0002-51.png,0005-00-0009-48.png
00000014,689,1,1442935738169,1442935738828,873,493,0,0,0,5,2,3,52,0005-00-0008-27.png,0002-00-0003-28.png
00000014,690,1,1442935740745,1442935741302,376,410,0,0,0,2,3,1,23,0002-00-0003-81.png,0003-00-0002-50.png
00000014,691,1,1442935742612,1442935743138,376,449,0,0,0,3,5,2,35,0003-00-0003-58.png,0005-00-0002-47.png
00000014,692,1,1442935744571,1442935745128,366,485,0,0,0,1,2,1,12,0001-00-0005-78.png,0002-00-0001-15.png
00000014,693,1,1442935746319,1442935747358,926,418,0,0,0,4,2,2,42,0004-00-0002-46.png,0002-00-0003-96.png
00000014,694,0,1442935748397,1442935749018,356,426,0,0,0,5,4,1,54,0005-00-0007-56.png,0004-00-0000-78.png
00000014,695,0,1442935751955,1442935752003,516,461,0,0,0,3,1,2,31,0003-00-0002-02.png,0001-00-0000-04.png
00000014,696,1,1442935755660,1442935756147,420,427,0,0,0,1,3,2,13,0001-00-0004-47.png,0003-00-0006-43.png
00000014,697,1,1442935760511,1442935761079,926,463,0,0,0,4,1,3,41,0004-00-0007-51.png,0001-00-0001-19.png
00000014,698,1,1442935762237,1442935762743,319,417,0,0,0,2,4,2,24,0002-00-0009-50.png,0004-00-0005-07.png
00000014,699,1,1442935763965,1442935764416,309,425,0,0,0,1,5,4,15,0001-00-0004-51.png,0005-00-0009-26.png
00000014,700,1,1442935765542,1442935766123,344,494,0,0,0,3,4,1,34,0003-00-0003-86.png,0004-00-0007-87.png
00000014,701,1,1442935767432,1442935767957,301,418,0,0,0,2,4,2,24,0002-00-0006-07.png,0004-00-0002-62.png
00000014,702,1,1442935769121,1442935769702,876,410,0,0,0,4,2,2,42,0004-00-0003-71.png,0002-00-0004-04.png
00000014,703,1,1442935771160,1442935771612,390,546,0,0,0,2,5,3,25,0002-00-0009-63.png,0005-00-0001-95.png
00000014,704,1,1442935772952,1442935773522,876,461,0,0,0,5,4,1,54,0005-00-0003-74.png,0004-00-0003-72.png
00000014,705,0,1442935774488,1442935775150,902,467,0,0,0,1,4,3,14,0001-00-0002-09.png,0004-00-0004-33.png
00000014,706,1,1442935779765,1442935780288,902,435,0,0,0,3,2,1,32,0003-00-0009-60.png,0002-00-0002-23.png
00000014,707,1,1442935781469,1442935782585,938,423,0,0,0,5,1,4,51,0005-00-0007-12.png,0001-00-0006-27.png
00000014,708,1,1442935783731,1442935784330,876,476,0,0,0,5,3,2,53,0005-00-0005-84.png,0003-00-0006-55.png
00000014,709,0,1442935786005,1442935786488,909,403,0,0,0,1,3,2,13,0001-00-0006-56.png,0003-00-0001-59.png
00000014,710,1,1442935789601,1442935790081,333,444,0,0,0,1,2,1,12,0001-00-0001-73.png,0002-00-0001-88.png
00000014,711,1,1442935791360,1442935791847,401,423,0,0,0,3,5,2,35,0003-00-0004-72.png,0005-00-0002-09.png
00000014,712,1,1442935792796,1442935793301,409,445,0,0,0,4,5,1,45,0004-00-0000-73.png,0005-00-0006-14.png
00000014,713,0,1442935794256,1442935794797,381,435,0,0,0,4,1,3,41,0004-00-0000-13.png,0001-00-0005-72.png
00000014,714,1,1442935798877,1442935799390,875,508,0,0,0,2,1,1,21,0002-00-0003-19.png,0001-00-0009-80.png
00000014,715,0,1442935800438,1442935801043,401,411,0,0,0,4,3,1,43,0004-00-0002-68.png,0003-00-0009-40.png
00000014,716,1,1442935804409,1442935804955,913,410,0,0,0,5,2,3,52,0005-00-0001-87.png,0002-00-0007-18.png
00000014,717,0,1442935806004,1442935806539,388,528,0,0,0,3,1,2,31,0003-00-0008-02.png,0001-00-0006-99.png
00000014,718,1,1442935810396,1442935810827,368,453,0,0,0,3,4,1,34,0003-00-0005-61.png,0004-00-0006-73.png
00000014,719,1,1442935811957,1442935812448,350,424,0,0,0,1,5,4,15,0001-00-0001-94.png,0005-00-0009-82.png
00000014,720,1,1442935813426,1442935813910,294,409,0,0,0,2,3,1,23,0002-00-0005-33.png,0003-00-0000-89.png
00000014,721,0,1442935814862,1442935815427,334,449,0,0,0,2,1,1,21,0002-00-0009-10.png,0001-00-0000-65.png
00000014,722,1,1442935818693,1442935819204,895,493,0,0,0,4,1,3,41,0004-00-0009-18.png,0001-00-0004-65.png
00000014,723,1,1442935820191,1442935820714,453,476,0,0,0,1,5,4,15,0001-00-0007-97.png,0005-00-0001-84.png
00000014,724,1,1442935821566,1442935822968,900,542,0,0,0,5,1,4,51,0005-00-0002-35.png,0001-00-0007-10.png
00000014,725,1,1442935823818,1442935824492,429,471,0,0,0,2,4,2,24,0002-00-0007-69.png,0004-00-0000-39.png
00000014,726,1,1442935825393,1442935826403,439,501,0,0,0,3,5,2,35,0003-00-0000-55.png,0005-00-0005-97.png
00000014,727,0,1442935827419,1442935828522,463,429,0,0,0,3,2,1,32,0003-00-0007-72.png,0002-00-0009-64.png
00000014,728,1,1442935844350,1442935844827,888,410,0,0,0,3,1,2,31,0003-00-0009-44.png,0001-00-0009-87.png
00000014,729,0,1442935845857,1442935846415,903,442,0,0,0,3,4,1,34,0003-00-0002-86.png,0004-00-0007-88.png
00000014,730,1,1442935852658,1442935853147,923,457,0,0,0,5,4,1,54,0005-00-0008-62.png,0004-00-0007-63.png
00000014,731,1,1442935854341,1442935854895,877,460,0,0,0,4,3,1,43,0004-00-0004-30.png,0003-00-0008-11.png
00000014,732,1,1442935855903,1442935856382,317,447,0,0,0,1,4,3,14,0001-00-0005-94.png,0004-00-0000-57.png
00000014,733,1,1442935857392,1442935858023,879,532,0,0,0,5,2,3,52,0005-00-0005-16.png,0002-00-0002-64.png
00000014,734,1,1442935858949,1442935859553,413,555,0,0,0,2,3,1,23,0002-00-0002-76.png,0003-00-0008-89.png
00000014,735,1,1442935860542,1442935861120,900,513,0,0,0,4,2,2,42,0004-00-0009-99.png,0002-00-0007-50.png
00000014,736,0,1442935862025,1442935862681,879,479,0,0,0,1,2,1,12,0001-00-0008-66.png,0002-00-0007-91.png
00000014,737,0,1442935881735,1442935882269,902,495,0,0,0,1,3,2,13,0001-00-0002-72.png,0003-00-0001-95.png
00000014,738,1,1442935889329,1442935889865,407,452,0,0,0,2,5,3,25,0002-00-0008-19.png,0005-00-0003-06.png
00000014,739,1,1442935891446,1442935891921,358,402,0,0,0,4,5,1,45,0004-00-0006-57.png,0005-00-0009-63.png
00000014,740,0,1442935893126,1442935893703,310,472,0,0,0,5,3,2,53,0005-00-0009-47.png,0003-00-0001-27.png
00000014,741,1,1442935896810,1442935897310,862,437,0,0,0,5,4,1,54,0005-00-0001-22.png,0004-00-0004-42.png
00000014,742,1,1442935899111,1442935899543,342,402,0,0,0,1,5,4,15,0001-00-0004-06.png,0005-00-0005-30.png
00000014,743,0,1442935900502,1442935901055,350,438,0,0,0,4,1,3,41,0004-00-0004-61.png,0001-00-0003-00.png
00000014,744,1,1442935906676,1442935907145,900,502,0,0,0,5,2,3,52,0005-00-0003-67.png,0002-00-0008-00.png
00000014,745,1,1442935909315,1442935909810,362,410,0,0,0,2,3,1,23,0002-00-0008-50.png,0003-00-0009-41.png
00000014,746,1,1442935910849,1442935911398,880,401,0,0,0,2,1,1,21,0002-00-0004-18.png,0001-00-0006-03.png
00000014,747,1,1442935912410,1442935913009,887,478,0,0,0,5,1,4,51,0005-00-0002-81.png,0001-00-0002-27.png
00000014,748,0,1442935914119,1442935914747,877,440,0,0,0,1,4,3,14,0001-00-0007-15.png,0004-00-0007-20.png
00000014,749,1,1442935918898,1442935919437,895,408,0,0,0,5,3,2,53,0005-00-0008-44.png,0003-00-0004-34.png
00000014,750,1,1442935921483,1442935921930,419,453,0,0,0,3,5,2,35,0003-00-0009-46.png,0005-00-0000-07.png
00000014,751,1,1442935923232,1442935923749,440,449,0,0,0,1,3,2,13,0001-00-0005-83.png,0003-00-0004-51.png
00000014,752,1,1442935924772,1442935925254,418,454,0,0,0,2,4,2,24,0002-00-0004-13.png,0004-00-0000-94.png
00000014,753,0,1442935926331,1442935926908,886,476,0,0,0,1,2,1,12,0001-00-0002-57.png,0002-00-0008-00.png
00000014,754,0,1442935929930,1442935929966,493,428,0,0,0,3,1,2,31,0003-00-0005-93.png,0001-00-0001-55.png
00000014,755,0,1442935933102,1442935933562,325,410,0,0,0,4,2,2,42,0004-00-0009-19.png,0002-00-0008-72.png
00000014,756,1,1442935936708,1442935937133,427,397,0,0,0,4,5,1,45,0004-00-0009-03.png,0005-00-0009-83.png
00000014,757,1,1442935938337,1442935938912,901,440,0,0,0,4,3,1,43,0004-00-0006-14.png,0003-00-0000-57.png
00000014,758,1,1442935940011,1442935940510,396,539,0,0,0,3,4,1,34,0003-00-0006-60.png,0004-00-0003-21.png
00000014,759,1,1442935941620,1442935942232,897,441,0,0,0,3,2,1,32,0003-00-0000-81.png,0002-00-0008-98.png
00000014,760,1,1442935943371,1442935943865,390,433,0,0,0,2,5,3,25,0002-00-0007-79.png,0005-00-0003-10.png
00000014,761,0,1442935945148,1442935946000,419,427,0,0,0,5,2,3,52,0005-00-0008-44.png,0002-00-0006-56.png
00000014,762,0,1442935949674,1442935950196,401,410,0,0,0,2,1,1,21,0002-00-0006-63.png,0001-00-0003-14.png
00000014,763,1,1442935954784,1442935955263,308,471,0,0,0,3,4,1,34,0003-00-0005-26.png,0004-00-0002-46.png
00000014,764,1,1442935956568,1442935957121,331,485,0,0,0,2,4,2,24,0002-00-0001-98.png,0004-00-0004-06.png
00000014,765,0,1442935957996,1442935958613,878,477,0,0,0,1,2,1,12,0001-00-0009-28.png,0002-00-0000-55.png
00000014,766,1,1442935966606,1442935967762,946,416,0,0,0,4,2,2,42,0004-00-0007-13.png,0002-00-0006-34.png
00000014,767,1,1442935968855,1442935969345,913,410,0,0,0,5,1,4,51,0005-00-0004-39.png,0001-00-0004-74.png
00000014,768,1,1442935970334,1442935970959,900,449,0,0,0,4,1,3,41,0004-00-0004-07.png,0001-00-0004-86.png
00000014,769,0,1442935971951,1442935972492,888,449,0,0,0,3,5,2,35,0003-00-0008-40.png,0005-00-0003-75.png
00000014,770,1,1442935978872,1442935979397,926,438,0,0,0,4,3,1,43,0004-00-0009-02.png,0003-00-0008-82.png
00000014,771,0,1442935980401,1442935980930,354,483,0,0,0,5,4,1,54,0005-00-0009-45.png,0004-00-0000-16.png
00000014,772,1,1442935984837,1442935985369,411,435,0,0,0,1,3,2,13,0001-00-0000-49.png,0003-00-0006-01.png
00000014,773,1,1442935986374,1442935986990,888,423,0,0,0,5,3,2,53,0005-00-0007-23.png,0003-00-0005-25.png
00000014,774,1,1442935988560,1442935989035,381,535,0,0,0,2,3,1,23,0002-00-0000-14.png,0003-00-0000-64.png
00000014,775,1,1442935989943,1442935990477,340,478,0,0,0,4,5,1,45,0004-00-0005-70.png,0005-00-0003-87.png
00000014,776,1,1442935991452,1442935992026,410,444,0,0,0,2,5,3,25,0002-00-0001-46.png,0005-00-0006-63.png
00000014,777,1,1442935993024,1442935993588,893,435,0,0,0,3,1,2,31,0003-00-0004-89.png,0001-00-0008-63.png
00000014,778,1,1442935994543,1442935995102,422,495,0,0,0,1,4,3,14,0001-00-0004-32.png,0004-00-0002-89.png
00000014,779,0,1442935995991,1442935997193,445,426,0,0,0,3,2,1,32,0003-00-0006-19.png,0002-00-0002-07.png
00000014,780,1,1442936021335,1442936021780,353,371,0,0,0,1,5,4,15,0001-00-0003-38.png,0005-00-0006-39.png
00000014,781,0,1442936023093,1442936023599,900,436,0,0,0,1,2,1,12,0001-00-0003-43.png,0002-00-0005-96.png
00000014,782,1,1442936027989,1442936028471,352,431,0,0,0,1,3,2,13,0001-00-0003-66.png,0003-00-0000-35.png
00000014,783,0,1442936029354,1442936029877,350,444,0,0,0,5,2,3,52,0005-00-0004-60.png,0002-00-0004-45.png
00000014,784,1,1442936034470,1442936035036,371,541,0,0,0,3,5,2,35,0003-00-0001-87.png,0005-00-0002-23.png
00000014,785,1,1442936036038,1442936036557,315,437,0,0,0,2,4,2,24,0002-00-0000-35.png,0004-00-0007-18.png
00000014,786,0,1442936037460,1442936038035,385,550,0,0,0,3,2,1,32,0003-00-0004-15.png,0002-00-0004-80.png
00000014,787,1,1442936046714,1442936047212,902,442,0,0,0,5,4,1,54,0005-00-0005-40.png,0004-00-0001-54.png
00000014,788,1,1442936048135,1442936049367,437,526,0,0,0,2,3,1,23,0002-00-0008-87.png,0003-00-0008-12.png
00000014,789,0,1442936050236,1442936051172,405,463,0,0,0,3,1,2,31,0003-00-0000-53.png,0001-00-0009-67.png
00000014,790,0,1442936057907,1442936058313,376,476,0,0,0,4,3,1,43,0004-00-0009-69.png,0003-00-0003-39.png
00000014,791,1,1442936077467,1442936077927,389,397,0,0,0,1,5,4,15,0001-00-0007-44.png,0005-00-0005-07.png
00000014,792,0,1442936078818,1442936079502,882,445,0,0,0,2,5,3,25,0002-00-0000-81.png,0005-00-0003-78.png
00000014,793,1,1442936083471,1442936084427,970,465,0,0,0,4,2,2,42,0004-00-0001-22.png,0002-00-0001-07.png
00000014,794,1,1442936085406,1442936085918,901,449,0,0,0,5,1,4,51,0005-00-0003-52.png,0001-00-0005-92.png
00000014,795,1,1442936086764,1442936087360,939,436,0,0,0,5,3,2,53,0005-00-0009-86.png,0003-00-0002-47.png
00000014,796,1,1442936088362,1442936088864,376,423,0,0,0,3,4,1,34,0003-00-0004-35.png,0004-00-0000-30.png
00000014,797,1,1442936089770,1442936090374,878,443,0,0,0,2,1,1,21,0002-00-0009-75.png,0001-00-0009-14.png
00000014,798,1,1442936091376,1442936091866,376,446,0,0,0,1,4,3,14,0001-00-0009-65.png,0004-00-0007-63.png
00000014,799,1,1442936093055,1442936093557,874,449,0,0,0,4,1,3,41,0004-00-0000-78.png,0001-00-0000-95.png
00000014,800,1,1442936094572,1442936095798,379,494,0,0,0,4,5,1,45,0004-00-0009-18.png,0005-00-0008-10.png
00000014,801,1,1442936097163,1442936097654,464,476,0,0,0,2,5,3,25,0002-00-0004-83.png,0005-00-0001-17.png
00000014,802,1,1442936098501,1442936099004,427,424,0,0,0,3,4,1,34,0003-00-0008-89.png,0004-00-0004-67.png
00000014,803,0,1442936100206,1442936102276,410,468,0,0,0,5,3,2,53,0005-00-0006-91.png,0003-00-0002-98.png
00000014,804,0,1442936105581,1442936106095,925,410,0,0,0,2,4,2,24,0002-00-0009-60.png,0004-00-0000-54.png
00000014,805,0,1442936109913,1442936110476,440,475,0,0,0,5,1,4,51,0005-00-0009-63.png,0001-00-0003-77.png
00000014,806,0,1442936119252,1442936119754,361,441,0,0,0,5,2,3,52,0005-00-0007-26.png,0002-00-0008-11.png
00000014,807,0,1442936122952,1442936123495,911,451,0,0,0,1,4,3,14,0001-00-0006-18.png,0004-00-0007-28.png
00000014,808,1,1442936127325,1442936127828,899,440,0,0,0,3,1,2,31,0003-00-0002-02.png,0001-00-0009-95.png
00000014,809,1,1442936128965,1442936129504,904,454,0,0,0,5,4,1,54,0005-00-0009-78.png,0004-00-0007-17.png
00000014,810,1,1442936130695,1442936131247,913,427,0,0,0,4,2,2,42,0004-00-0008-17.png,0002-00-0006-05.png
00000014,811,1,1442936132345,1442936132978,862,526,0,0,0,4,1,3,41,0004-00-0003-41.png,0001-00-0007-35.png
00000014,812,1,1442936133931,1442936134544,360,426,0,0,0,3,5,2,35,0003-00-0007-78.png,0005-00-0007-25.png
00000014,813,1,1442936135504,1442936135992,325,437,0,0,0,1,3,2,13,0001-00-0003-66.png,0003-00-0006-34.png
00000014,814,0,1442936137004,1442936137570,869,446,0,0,0,4,5,1,45,0004-00-0009-45.png,0005-00-0002-09.png
00000014,815,1,1442936141595,1442936142103,299,461,0,0,0,1,5,4,15,0001-00-0001-47.png,0005-00-0004-77.png
00000014,816,1,1442936143035,1442936143634,875,513,0,0,0,4,3,1,43,0004-00-0003-53.png,0003-00-0006-41.png
00000014,817,1,1442936144628,1442936145231,898,455,0,0,0,2,1,1,21,0002-00-0003-07.png,0001-00-0003-20.png
00000014,818,0,1442936146157,1442936146806,877,398,0,0,0,1,2,1,12,0001-00-0005-07.png,0002-00-0008-10.png
00000014,819,0,1442936151415,1442936151957,412,542,0,0,0,3,2,1,32,0003-00-0005-30.png,0002-00-0005-08.png
00000014,820,1,1442936155839,1442936156349,325,410,0,0,0,2,3,1,23,0002-00-0003-66.png,0003-00-0006-62.png
00000014,821,1,1442936157636,1442936158173,377,471,0,0,0,2,5,3,25,0002-00-0000-20.png,0005-00-0006-23.png
00000014,822,1,1442936159068,1442936159699,391,461,0,0,0,3,5,2,35,0003-00-0001-18.png,0005-00-0007-25.png
00000014,823,0,1442936160746,1442936161315,873,438,0,0,0,2,4,2,24,0002-00-0006-97.png,0004-00-0003-72.png
00000014,824,1,1442936166807,1442936167248,383,484,0,0,0,1,2,1,12,0001-00-0003-26.png,0002-00-0006-99.png
00000014,825,0,1442936168219,1442936168710,359,457,0,0,0,3,2,1,32,0003-00-0009-50.png,0002-00-0009-94.png
00000014,826,1,1442936171726,1442936172214,389,410,0,0,0,1,4,3,14,0001-00-0002-54.png,0004-00-0002-31.png
00000014,827,1,1442936173279,1442936173818,875,449,0,0,0,5,2,3,52,0005-00-0009-20.png,0002-00-0005-71.png
00000014,828,1,1442936174797,1442936175363,879,506,0,0,0,4,3,1,43,0004-00-0007-55.png,0003-00-0004-41.png
00000014,829,0,1442936176327,1442936176928,411,546,0,0,0,5,3,2,53,0005-00-0004-37.png,0003-00-0006-51.png
00000014,830,1,1442936181565,1442936182070,376,384,0,0,0,4,5,1,45,0004-00-0001-47.png,0005-00-0007-94.png
00000014,831,1,1442936183160,1442936183749,899,474,0,0,0,4,2,2,42,0004-00-0001-19.png,0002-00-0001-19.png
00000014,832,1,1442936184783,1442936185364,363,475,0,0,0,1,3,2,13,0001-00-0004-57.png,0003-00-0000-17.png
00000014,833,1,1442936186264,1442936186938,401,384,0,0,0,3,4,1,34,0003-00-0004-14.png,0004-00-0002-80.png
00000014,834,0,1442936187898,1442936188444,380,473,0,0,0,4,1,3,41,0004-00-0005-17.png,0001-00-0003-32.png
00000014,835,1,1442936192408,1442936192934,874,489,0,0,0,5,1,4,51,0005-00-0000-29.png,0001-00-0006-16.png
00000014,836,1,1442936194048,1442936194601,887,475,0,0,0,3,1,2,31,0003-00-0006-28.png,0001-00-0009-38.png
00000014,837,0,1442936195663,1442936196154,357,472,0,0,0,2,1,1,21,0002-00-0004-93.png,0001-00-0000-92.png
00000014,838,0,1442936199273,1442936199854,916,453,0,0,0,2,3,1,23,0002-00-0007-63.png,0003-00-0009-39.png
00000014,839,1,1442936202922,1442936203362,421,447,0,0,0,1,5,4,15,0001-00-0009-32.png,0005-00-0009-81.png
00000014,840,1,1442936204272,1442936204815,889,423,0,0,0,5,4,1,54,0005-00-0008-26.png,0004-00-0002-17.png
00000014,841,1,1442936205923,1442936206406,438,446,0,0,0,2,4,2,24,0002-00-0000-30.png,0004-00-0007-81.png
00000014,842,0,1442936207366,1442936207889,391,560,0,0,0,4,2,2,42,0004-00-0009-41.png,0002-00-0004-74.png
00000014,843,0,1442936212476,1442936213042,912,398,0,0,0,1,2,1,12,0001-00-0000-91.png,0002-00-0009-98.png
00000014,844,0,1442936216656,1442936217202,898,516,0,0,0,1,5,4,15,0001-00-0004-32.png,0005-00-0000-83.png
00000014,845,1,1442936221114,1442936221623,868,535,0,0,0,4,3,1,43,0004-00-0006-80.png,0003-00-0008-74.png
00000014,846,1,1442936222779,1442936223351,897,471,0,0,0,3,1,2,31,0003-00-0004-10.png,0001-00-0001-61.png
00000014,847,1,1442936224468,1442936224956,333,545,0,0,0,2,5,3,25,0002-00-0008-16.png,0005-00-0005-49.png
00000014,848,0,1442936225996,1442936226571,453,436,0,0,0,5,4,1,54,0005-00-0006-37.png,0004-00-0000-96.png
00000014,849,1,1442936229628,1442936230099,382,394,0,0,0,4,5,1,45,0004-00-0005-77.png,0005-00-0003-15.png
00000014,850,0,1442936231456,1442936232365,407,450,0,0,0,5,3,2,53,0005-00-0005-28.png,0003-00-0001-19.png
00000014,851,0,1442936235778,1442936236241,913,410,0,0,0,1,3,2,13,0001-00-0006-29.png,0003-00-0006-05.png
00000014,852,1,1442936249689,1442936250159,901,436,0,0,0,5,1,4,51,0005-00-0001-82.png,0001-00-0008-38.png
00000014,853,1,1442936251523,1442936252039,888,436,0,0,0,3,2,1,32,0003-00-0005-68.png,0002-00-0003-47.png
00000014,854,0,1442936253040,1442936253650,892,520,0,0,0,2,3,1,23,0002-00-0006-69.png,0003-00-0009-23.png
00000014,855,1,1442936258772,1442936259226,313,420,0,0,0,3,4,1,34,0003-00-0003-60.png,0004-00-0006-07.png
00000014,856,0,1442936260255,1442936260843,867,516,0,0,0,1,4,3,14,0001-00-0005-83.png,0004-00-0009-02.png
00000014,857,0,1442936297563,1442936298020,907,553,0,0,0,3,5,2,35,0003-00-0007-61.png,0005-00-0003-06.png
00000014,858,1,1442936301906,1442936302429,1033,453,0,0,0,4,1,3,41,0004-00-0001-69.png,0001-00-0004-18.png
00000014,859,1,1442936303985,1442936304496,900,475,0,0,0,5,2,3,52,0005-00-0003-66.png,0002-00-0001-70.png
00000014,860,0,1442936312528,1442936313027,278,393,0,0,0,2,1,1,21,0002-00-0005-87.png,0001-00-0007-56.png
00000014,861,0,1442936320066,1442936320626,898,513,0,0,0,1,2,1,12,0001-00-0000-57.png,0002-00-0006-33.png
00000014,862,1,1442936324014,1442936324545,884,439,0,0,0,5,1,4,51,0005-00-0002-72.png,0001-00-0001-15.png
00000014,863,1,1442936325911,1442936326391,408,447,0,0,0,4,5,1,45,0004-00-0004-33.png,0005-00-0005-07.png
00000014,864,0,1442936327375,1442936328522,411,523,0,0,0,3,1,2,31,0003-00-0009-92.png,0001-00-0007-93.png
00000014,865,0,1442936332029,1442936332681,392,527,0,0,0,3,2,1,32,0003-00-0007-97.png,0002-00-0007-51.png
00000014,866,1,1442936335510,1442936335947,382,384,0,0,0,1,3,2,13,0001-00-0004-09.png,0003-00-0000-15.png
00000014,867,0,1442936336872,1442936337358,366,457,0,0,0,4,3,1,43,0004-00-0009-74.png,0003-00-0004-60.png
00000014,868,1,1442936342773,1442936343196,915,449,0,0,0,5,3,2,53,0005-00-0003-35.png,0003-00-0003-09.png
00000014,869,1,1442936344340,1442936344873,914,449,0,0,0,4,2,2,42,0004-00-0004-29.png,0002-00-0001-71.png
00000014,870,1,1442936346434,1442936346953,325,449,0,0,0,1,4,3,14,0001-00-0002-67.png,0004-00-0009-81.png
00000014,871,0,1442936347921,1442936348507,360,475,0,0,0,4,1,3,41,0004-00-0001-30.png,0001-00-0008-49.png
00000014,872,0,1442936351682,1442936352196,874,515,0,0,0,2,5,3,25,0002-00-0002-09.png,0005-00-0005-83.png
00000014,873,1,1442936363526,1442936364011,939,439,0,0,0,5,4,1,54,0005-00-0004-83.png,0004-00-0007-36.png
00000014,874,1,1442936365244,1442936365756,875,417,0,0,0,2,1,1,21,0002-00-0000-22.png,0001-00-0005-50.png
00000014,875,1,1442936366699,1442936367280,381,467,0,0,0,1,5,4,15,0001-00-0005-66.png,0005-00-0000-06.png
00000014,876,0,1442936368253,1442936368909,862,476,0,0,0,3,4,1,34,0003-00-0006-40.png,0004-00-0002-04.png
00000014,877,1,1442936371985,1442936372466,434,488,0,0,0,2,3,1,23,0002-00-0005-78.png,0003-00-0004-09.png
00000014,878,1,1442936373448,1442936373964,439,462,0,0,0,3,5,2,35,0003-00-0002-69.png,0005-00-0005-20.png
00000014,879,1,1442936374857,1442936375400,379,502,0,0,0,2,4,2,24,0002-00-0006-36.png,0004-00-0006-50.png
00000014,880,1,1442936376342,1442936376957,888,478,0,0,0,5,2,3,52,0005-00-0003-09.png,0002-00-0004-94.png
00000014,881,1,1442936377938,1442936378570,888,436,0,0,0,4,3,1,43,0004-00-0005-69.png,0003-00-0000-99.png
00000014,882,0,1442936379612,1442936380182,892,455,0,0,0,1,3,2,13,0001-00-0001-22.png,0003-00-0007-88.png
00000014,883,1,1442936383477,1442936383951,325,398,0,0,0,2,4,2,24,0002-00-0001-17.png,0004-00-0008-87.png
00000014,884,1,1442936385045,1442936385748,868,440,0,0,0,5,4,1,54,0005-00-0000-64.png,0004-00-0006-68.png
00000014,885,1,1442936386806,1442936387388,892,449,0,0,0,3,1,2,31,0003-00-0002-37.png,0001-00-0001-33.png
00000014,886,1,1442936388361,1442936388898,879,479,0,0,0,4,1,3,41,0004-00-0006-61.png,0001-00-0007-56.png
00000014,887,0,1442936390420,1442936390917,860,544,0,0,0,1,2,1,12,0001-00-0003-99.png,0002-00-0007-61.png
00000014,888,1,1442936393876,1442936394316,400,410,0,0,0,4,5,1,45,0004-00-0007-52.png,0005-00-0005-90.png
00000014,889,1,1442936395264,1442936395815,886,450,0,0,0,5,1,4,51,0005-00-0006-29.png,0001-00-0007-52.png
00000014,890,1,1442936396944,1442936397409,350,423,0,0,0,2,5,3,25,0002-00-0000-14.png,0005-00-0000-75.png
00000014,891,1,1442936398392,1442936398990,873,457,0,0,0,4,2,2,42,0004-00-0005-43.png,0002-00-0005-27.png
00000014,892,1,1442936400222,1442936400767,859,448,0,0,0,5,2,3,52,0005-00-0004-87.png,0002-00-0007-55.png
00000014,893,0,1442936401724,1442936402265,416,547,0,0,0,3,2,1,32,0003-00-0007-35.png,0002-00-0008-32.png
00000014,894,1,1442936405593,1442936406065,393,454,0,0,0,1,5,4,15,0001-00-0009-99.png,0005-00-0002-88.png
00000014,895,1,1442936407070,1442936407684,453,453,0,0,0,2,3,1,23,0002-00-0006-26.png,0003-00-0008-37.png
00000014,896,1,1442936408660,1442936409251,426,539,0,0,0,3,4,1,34,0003-00-0008-14.png,0004-00-0001-11.png
00000014,897,1,1442936410260,1442936410889,876,444,0,0,0,5,3,2,53,0005-00-0006-31.png,0003-00-0007-14.png
00000014,898,1,1442936411859,1442936412474,900,410,0,0,0,2,1,1,21,0002-00-0005-16.png,0001-00-0004-40.png
00000014,899,0,1442936413559,1442936414091,900,449,0,0,0,3,5,2,35,0003-00-0007-42.png,0005-00-0001-95.png
00000014,900,1,1442936418051,1442936418506,401,450,0,0,0,1,4,3,14,0001-00-0001-57.png,0004-00-0001-89.png
00000014,901,1,1442936419499,1442936420106,225,539,0,0,0,1,5,4,15,0001-00-0006-36.png,0005-00-0005-07.png
00000014,902,1,1442936421096,1442936421693,412,499,0,0,0,2,3,1,23,0002-00-0000-92.png,0003-00-0006-48.png
00000014,903,1,1442936422652,1442936423249,887,450,0,0,0,4,1,3,41,0004-00-0008-07.png,0001-00-0001-91.png
00000014,904,0,1442936424243,1442936424316,427,541,0,0,0,5,3,2,53,0005-00-0005-08.png,0003-00-0005-33.png
00000014,905,1,1442936428016,1442936428494,901,460,0,0,0,4,3,1,43,0004-00-0004-67.png,0003-00-0002-40.png
00000014,906,0,1442936429540,1442936430102,887,450,0,0,0,1,3,2,13,0001-00-0005-01.png,0003-00-0000-91.png
00000014,907,0,1442936433795,1442936433883,522,532,0,0,0,5,1,4,51,0005-00-0001-29.png,0001-00-0007-37.png
00000014,908,0,1442936438277,1442936438849,927,436,0,0,0,2,4,2,24,0002-00-0004-40.png,0004-00-0003-89.png
00000014,909,0,1442936442083,1442936442566,435,420,0,0,0,2,1,1,21,0002-00-0006-96.png,0001-00-0004-46.png
00000014,910,1,1442936445563,1442936446066,348,406,0,0,0,1,4,3,14,0001-00-0008-51.png,0004-00-0006-48.png
00000014,911,0,1442936447041,1442936447697,347,428,0,0,0,3,1,2,31,0003-00-0008-89.png,0001-00-0001-81.png
00000014,912,1,1442936452857,1442936453392,882,508,0,0,0,5,4,1,54,0005-00-0004-56.png,0004-00-0008-35.png
00000014,913,1,1442936454336,1442936454909,862,451,0,0,0,3,2,1,32,0003-00-0006-05.png,0002-00-0009-36.png
00000014,914,1,1442936455906,1442936456424,394,454,0,0,0,4,5,1,45,0004-00-0004-35.png,0005-00-0006-99.png
00000014,915,0,1442936457438,1442936458164,920,450,0,0,0,3,4,1,34,0003-00-0008-06.png,0004-00-0008-31.png
00000014,916,1,1442936467089,1442936467529,952,452,0,0,0,4,2,2,42,0004-00-0009-23.png,0002-00-0009-63.png
00000014,917,1,1442936468593,1442936469075,325,424,0,0,0,3,5,2,35,0003-00-0008-79.png,0005-00-0000-51.png
00000014,918,1,1442936470080,1442936470604,358,423,0,0,0,1,2,1,12,0001-00-0000-73.png,0002-00-0004-89.png
00000014,919,1,1442936471600,1442936472201,881,453,0,0,0,5,2,3,52,0005-00-0001-15.png,0002-00-0002-83.png
00000014,920,1,1442936473212,1442936473704,409,521,0,0,0,2,5,3,25,0002-00-0004-77.png,0005-00-0007-11.png
00000014,921,1,1442936474622,1442936475214,494,455,0,0,0,3,5,2,35,0003-00-0004-13.png,0005-00-0007-36.png
00000014,922,1,1442936476264,1442936476794,376,430,0,0,0,2,4,2,24,0002-00-0001-77.png,0004-00-0004-16.png
00000014,923,1,1442936477781,1442936478279,383,427,0,0,0,1,4,3,14,0001-00-0003-76.png,0004-00-0007-45.png
00000014,924,1,1442936479281,1442936479910,878,453,0,0,0,5,4,1,54,0005-00-0001-34.png,0004-00-0005-03.png
00000014,925,1,1442936480952,1442936481537,892,453,0,0,0,4,1,3,41,0004-00-0002-10.png,0001-00-0003-99.png
00000014,926,1,1442936482501,1442936482992,387,410,0,0,0,1,5,4,15,0001-00-0000-61.png,0005-00-0006-09.png
00000014,927,0,1442936484004,1442936484618,875,475,0,0,0,3,4,1,34,0003-00-0006-68.png,0004-00-0003-29.png
00000014,928,1,1442936488314,1442936488838,441,487,0,0,0,4,5,1,45,0004-00-0000-64.png,0005-00-0004-47.png
00000014,929,1,1442936489803,1442936490360,862,476,0,0,0,4,2,2,42,0004-00-0008-26.png,0002-00-0008-25.png
00000014,930,1,1442936491405,1442936491959,363,465,0,0,0,2,3,1,23,0002-00-0008-07.png,0003-00-0003-42.png
00000014,931,1,1442936492956,1442936493550,872,512,0,0,0,4,3,1,43,0004-00-0007-74.png,0003-00-0006-49.png
00000014,932,1,1442936494545,1442936495068,364,462,0,0,0,1,3,2,13,0001-00-0004-23.png,0003-00-0006-00.png
00000014,933,1,1442936496066,1442936496716,875,449,0,0,0,3,1,2,31,0003-00-0003-74.png,0001-00-0002-72.png
00000014,934,1,1442936497728,1442936498360,905,428,0,0,0,5,3,2,53,0005-00-0009-75.png,0003-00-0006-99.png
00000014,935,1,1442936499376,1442936499988,877,468,0,0,0,5,2,3,52,0005-00-0005-64.png,0002-00-0008-02.png
00000014,936,1,1442936501002,1442936501666,905,467,0,0,0,3,2,1,32,0003-00-0001-77.png,0002-00-0008-74.png
00000014,937,1,1442936502654,1442936503588,375,542,0,0,0,2,5,3,25,0002-00-0002-53.png,0005-00-0005-00.png
00000014,938,1,1442936504661,1442936505263,906,415,0,0,0,5,1,4,51,0005-00-0000-87.png,0001-00-0003-70.png
00000014,939,1,1442936506182,1442936506764,366,465,0,0,0,1,2,1,12,0001-00-0001-57.png,0002-00-0007-30.png
00000014,940,1,1442936507851,1442936508473,906,467,0,0,0,2,1,1,21,0002-00-0005-00.png,0001-00-0004-62.png
00000014,941,1,1442936509409,1442936509972,346,473,0,0,0,4,5,1,45,0004-00-0008-13.png,0005-00-0008-97.png
00000014,942,1,1442936511050,1442936511601,332,454,0,0,0,1,5,4,15,0001-00-0001-50.png,0005-00-0008-79.png
