subject_id,trial,correct_response,stim_time,response_time,x_coord,y_coord,trial_timeout,timeout_time,interTrial_timeout,left_rank,right_rank,distance,joint_rank,left_image,right_image
00000014,1,0,1442603345428,1442603346179,376,371,0,0,0,5,2,3,52,0005-00-0002-63.png,0002-00-0003-78.png
00000014,2,0,1442603349031,1442603349067,504,451,0,0,0,2,1,1,21,0002-00-0001-54.png,0001-00-0003-12.png
00000014,3,0,1442603353097,1442603353526,431,563,0,0,0,5,4,1,54,0005-00-0009-63.png,0004-00-0005-93.png
00000014,4,1,1442603356675,1442603357168,964,374,0,0,0,3,1,2,31,0003-00-0005-70.png,0001-00-0005-42.png
00000014,5,1,1442603358194,1442603358683,342,403,0,0,0,1,4,3,14,0001-00-0005-82.png,0004-00-0009-70.png
00000014,6,1,1442603360085,1442603360683,337,385,0,0,0,4,5,1,45,0004-00-0006-99.png,0005-00-0002-57.png
00000014,7,1,1442603363086,1442603363571,416,528,0,0,0,2,5,3,25,0002-00-0006-43.png,0005-00-0003-83.png
00000014,8,0,1442603365025,1442603365586,924,507,0,0,0,3,5,2,35,0003-00-0001-03.png,0005-00-0003-46.png
00000014,9,1,1442603369724,1442603370140,428,495,0,0,0,1,3,2,13,0001-00-0008-05.png,0003-00-0007-74.png
00000014,10,0,1442603371495,1442603372085,917,511,0,0,0,3,4,1,34,0003-00-0001-51.png,0004-00-0005-83.png
00000014,11,1,1442603375589,1442603376148,903,543,0,0,0,4,1,3,41,0004-00-0002-35.png,0001-00-0005-17.png
00000014,12,1,1442603377179,1442603377623,373,436,0,0,0,1,5,4,15,0001-00-0008-25.png,0005-00-0009-25.png
00000014,13,0,1442603378887,1442603379505,935,426,0,0,0,1,2,1,12,0001-00-0000-83.png,0002-00-0001-18.png
00000014,14,0,1442603383561,1442603383992,388,397,0,0,0,3,2,1,32,0003-00-0007-70.png,0002-00-0003-88.png
00000014,15,0,1442603387488,1442603388037,920,498,0,0,0,2,4,2,24,0002-00-0005-77.png,0004-00-0004-18.png
00000014,16,1,1442603390891,1442603391409,972,429,0,0,0,5,3,2,53,0005-00-0007-61.png,0003-00-0005-15.png
00000014,17,1,1442603393003,1442603393547,974,437,0,0,0,5,1,4,51,0005-00-0000-04.png,0001-00-0004-31.png
00000014,18,1,1442603399006,1442603399443,382,443,0,0,0,2,3,1,23,0002-00-0004-39.png,0003-00-0006-48.png
00000014,19,0,1442603401242,1442603401663,377,419,0,0,0,4,3,1,43,0004-00-0001-25.png,0003-00-0009-34.png
00000014,20,1,1442603404938,1442603405374,871,418,0,0,0,4,2,2,42,0004-00-0004-93.png,0002-00-0001-86.png
00000014,21,1,1442603407166,1442603407633,895,498,0,0,0,5,1,4,51,0005-00-0009-35.png,0001-00-0006-91.png
00000014,22,1,1442603408919,1442603409394,373,433,0,0,0,2,3,1,23,0002-00-0006-73.png,0003-00-0005-89.png
00000014,23,1,1442603410533,1442603410978,373,414,0,0,0,1,4,3,14,0001-00-0008-94.png,0004-00-0003-41.png
00000014,24,1,1442603412302,1442603412750,350,412,0,0,0,1,3,2,13,0001-00-0001-34.png,0003-00-0004-15.png
00000014,25,1,1442603414053,1442603414528,956,427,0,0,0,3,2,1,32,0003-00-0003-89.png,0002-00-0002-89.png
00000014,26,1,1442603415771,1442603416387,900,410,0,0,0,5,2,3,52,0005-00-0003-79.png,0002-00-0000-89.png
00000014,27,0,1442603417770,1442603418153,376,441,0,0,0,4,3,1,43,0004-00-0002-92.png,0003-00-0006-93.png
00000014,28,0,1442603421587,1442603422007,956,402,0,0,0,3,4,1,34,0003-00-0007-37.png,0004-00-0006-86.png
00000014,29,1,1442603427032,1442603427489,374,512,0,0,0,1,5,4,15,0001-00-0005-11.png,0005-00-0005-22.png
00000014,30,1,1442603428563,1442603429183,918,428,0,0,0,3,1,2,31,0003-00-0006-53.png,0001-00-0001-53.png
00000014,31,1,1442603430262,1442603430745,338,446,0,0,0,2,4,2,24,0002-00-0000-35.png,0004-00-0003-83.png
00000014,32,1,1442603431873,1442603432387,910,411,0,0,0,5,4,1,54,0005-00-0001-91.png,0004-00-0004-60.png
00000014,33,0,1442603433621,1442603434181,887,396,0,0,0,3,5,2,35,0003-00-0008-64.png,0005-00-0006-20.png
00000014,34,1,1442603437220,1442603437714,927,410,0,0,0,2,1,1,21,0002-00-0007-93.png,0001-00-0009-72.png
00000014,35,0,1442603438978,1442603439484,348,420,0,0,0,4,2,2,42,0004-00-0008-77.png,0002-00-0001-04.png
00000014,36,0,1442603442725,1442603443170,927,408,0,0,0,1,2,1,12,0001-00-0002-68.png,0002-00-0008-96.png
00000014,37,1,1442603446183,1442603446631,376,436,0,0,0,2,5,3,25,0002-00-0001-42.png,0005-00-0009-77.png
00000014,38,1,1442603447705,1442603448289,876,477,0,0,0,4,1,3,41,0004-00-0004-35.png,0001-00-0006-86.png
00000014,39,1,1442603449325,1442603449870,325,436,0,0,0,4,5,1,45,0004-00-0002-31.png,0005-00-0000-32.png
00000014,40,1,1442603450997,1442603451481,926,410,0,0,0,5,3,2,53,0005-00-0008-80.png,0003-00-0000-26.png
00000014,41,1,1442603452675,1442603453183,903,416,0,0,0,4,1,3,41,0004-00-0004-57.png,0001-00-0001-38.png
00000014,42,0,1442603454314,1442603454330,517,410,0,0,0,3,2,1,32,0003-00-0002-89.png,0002-00-0004-23.png
00000014,43,1,1442603457918,1442603458344,375,405,0,0,0,1,2,1,12,0001-00-0004-84.png,0002-00-0005-28.png
00000014,44,1,1442603459510,1442603460056,913,398,0,0,0,3,1,2,31,0003-00-0005-44.png,0001-00-0005-16.png
00000014,45,1,1442603461203,1442603461758,902,417,0,0,0,5,2,3,52,0005-00-0005-61.png,0002-00-0004-92.png
00000014,46,1,1442603462823,1442603463394,874,489,0,0,0,5,3,2,53,0005-00-0006-98.png,0003-00-0005-93.png
00000014,47,1,1442603464535,1442603465040,299,449,0,0,0,2,4,2,24,0002-00-0005-33.png,0004-00-0005-65.png
00000014,48,0,1442603466154,1442603466709,892,464,0,0,0,4,5,1,45,0004-00-0006-17.png,0005-00-0007-55.png
00000014,49,1,1442603469681,1442603469709,467,388,0,0,0,2,5,3,25,0002-00-0007-58.png,0005-00-0002-94.png
00000014,50,1,1442603470904,1442603471418,336,413,0,0,0,2,3,1,23,0002-00-0005-86.png,0003-00-0006-75.png
00000014,51,1,1442603472556,1442603473066,364,443,0,0,0,3,5,2,35,0003-00-0007-53.png,0005-00-0006-69.png
00000014,52,1,1442603474217,1442603475217,392,402,0,0,0,1,3,2,13,0001-00-0004-23.png,0003-00-0009-34.png
00000014,53,1,1442603476333,1442603476795,396,438,0,0,0,1,4,3,14,0001-00-0005-00.png,0004-00-0007-21.png
00000014,54,1,1442603477952,1442603478416,323,421,0,0,0,1,5,4,15,0001-00-0005-61.png,0005-00-0008-31.png
00000014,55,1,1442603479634,1442603480211,901,398,0,0,0,5,4,1,54,0005-00-0003-92.png,0004-00-0002-41.png
00000014,56,0,1442603481301,1442603481838,889,414,0,0,0,3,4,1,34,0003-00-0005-39.png,0004-00-0003-68.png
00000014,57,0,1442603484687,1442603484755,522,421,0,0,0,2,1,1,21,0002-00-0007-47.png,0001-00-0004-75.png
00000014,58,0,1442603487902,1442603488357,330,410,0,0,0,4,3,1,43,0004-00-0009-26.png,0003-00-0007-69.png
00000014,59,1,1442603491326,1442603491885,888,449,0,0,0,5,1,4,51,0005-00-0007-33.png,0001-00-0007-40.png
00000014,60,0,1442603492861,1442603493328,335,458,0,0,0,4,2,2,42,0004-00-0006-71.png,0002-00-0005-66.png
00000014,61,1,1442603496429,1442603496896,938,423,0,0,0,3,1,2,31,0003-00-0003-10.png,0001-00-0006-04.png
00000014,62,0,1442603497991,1442603498485,391,442,0,0,0,3,2,1,32,0003-00-0001-80.png,0002-00-0005-35.png
00000014,63,1,1442603501608,1442603501998,369,427,0,0,0,1,4,3,14,0001-00-0006-11.png,0004-00-0003-49.png
00000014,64,1,1442603503028,1442603503515,289,415,0,0,0,2,5,3,25,0002-00-0005-79.png,0005-00-0009-86.png
00000014,65,0,1442603504759,1442603505257,309,384,0,0,0,4,3,1,43,0004-00-0005-95.png,0003-00-0001-34.png
00000014,66,0,1442603508226,1442603508741,427,436,0,0,0,5,3,2,53,0005-00-0008-33.png,0003-00-0002-07.png
00000014,67,1,1442603512796,1442603513371,899,475,0,0,0,5,1,4,51,0005-00-0001-24.png,0001-00-0001-48.png
00000014,68,0,1442603514568,1442603515093,875,487,0,0,0,2,4,2,24,0002-00-0005-99.png,0004-00-0004-48.png
00000014,69,1,1442603520312,1442603520800,875,528,0,0,0,5,4,1,54,0005-00-0003-05.png,0004-00-0005-92.png
00000014,70,0,1442603521894,1442603522507,894,472,0,0,0,1,3,2,13,0001-00-0008-68.png,0003-00-0003-83.png
00000014,71,0,1442603525450,1442603525494,494,410,0,0,0,5,2,3,52,0005-00-0006-66.png,0002-00-0001-36.png
00000014,72,1,1442603528731,1442603529186,336,389,0,0,0,4,5,1,45,0004-00-0003-82.png,0005-00-0006-34.png
00000014,73,0,1442603530199,1442603530791,895,376,0,0,0,3,4,1,34,0003-00-0001-28.png,0004-00-0006-00.png
00000014,74,0,1442603533858,1442603534283,290,413,0,0,0,4,1,3,41,0004-00-0005-96.png,0001-00-0002-18.png
00000014,75,1,1442603538062,1442603538478,376,384,0,0,0,1,5,4,15,0001-00-0008-35.png,0005-00-0000-80.png
00000014,76,1,1442603539503,1442603540048,338,394,0,0,0,3,5,2,35,0003-00-0002-89.png,0005-00-0005-72.png
00000014,77,1,1442603541124,1442603541626,924,412,0,0,0,2,1,1,21,0002-00-0007-40.png,0001-00-0005-82.png
00000014,78,1,1442603542783,1442603543299,901,383,0,0,0,4,2,2,42,0004-00-0004-81.png,0002-00-0000-25.png
00000014,79,1,1442603544405,1442603544922,376,410,0,0,0,1,2,1,12,0001-00-0006-96.png,0002-00-0008-16.png
00000014,80,1,1442603546014,1442603546557,370,513,0,0,0,2,3,1,23,0002-00-0001-81.png,0003-00-0006-54.png
00000014,81,1,1442603547654,1442603548202,894,416,0,0,0,5,4,1,54,0005-00-0003-14.png,0004-00-0002-09.png
00000014,82,1,1442603549344,1442603549835,877,389,0,0,0,4,2,2,42,0004-00-0009-48.png,0002-00-0005-77.png
00000014,83,1,1442603550924,1442603551450,325,423,0,0,0,2,4,2,24,0002-00-0002-67.png,0004-00-0000-28.png
00000014,84,1,1442603552531,1442603553029,365,416,0,0,0,1,3,2,13,0001-00-0008-08.png,0003-00-0006-88.png
00000014,85,1,1442603554304,1442603554835,876,486,0,0,0,3,1,2,31,0003-00-0004-83.png,0001-00-0003-32.png
00000014,86,1,1442603556004,1442603556550,861,424,0,0,0,3,2,1,32,0003-00-0003-37.png,0002-00-0004-75.png
00000014,87,1,1442603557683,1442603558240,887,398,0,0,0,5,3,2,53,0005-00-0004-54.png,0003-00-0003-47.png
00000014,88,1,1442603559355,1442603559877,894,390,0,0,0,5,1,4,51,0005-00-0009-58.png,0001-00-0009-41.png
00000014,89,1,1442603561044,1442603561580,337,435,0,0,0,3,4,1,34,0003-00-0004-04.png,0004-00-0008-48.png
00000014,90,0,1442603562703,1442603563274,875,397,0,0,0,2,5,3,25,0002-00-0008-36.png,0005-00-0002-42.png
00000014,91,1,1442603566548,1442603566970,389,445,0,0,0,1,5,4,15,0001-00-0005-94.png,0005-00-0003-54.png
00000014,92,1,1442603568120,1442603568661,876,410,0,0,0,2,1,1,21,0002-00-0007-51.png,0001-00-0002-59.png
00000014,93,1,1442603569829,1442603570402,406,515,0,0,0,2,3,1,23,0002-00-0001-79.png,0003-00-0000-91.png
00000014,94,1,1442603571460,1442603571918,360,509,0,0,0,1,4,3,14,0001-00-0005-07.png,0004-00-0004-17.png
00000014,95,0,1442603573100,1442603573564,388,438,0,0,0,4,3,1,43,0004-00-0002-68.png,0003-00-0006-02.png
00000014,96,1,1442603576597,1442603577045,410,443,0,0,0,1,2,1,12,0001-00-0008-81.png,0002-00-0009-28.png
00000014,97,1,1442603578038,1442603578502,299,424,0,0,0,4,5,1,45,0004-00-0004-97.png,0005-00-0009-71.png
00000014,98,0,1442603579606,1442603580181,371,404,0,0,0,4,1,3,41,0004-00-0001-16.png,0001-00-0006-45.png
00000014,99,1,1442603583248,1442603583720,342,466,0,0,0,3,5,2,35,0003-00-0003-22.png,0005-00-0003-80.png
00000014,100,0,1442603584819,1442603585278,376,436,0,0,0,5,2,3,52,0005-00-0004-00.png,0002-00-0007-91.png
00000014,101,1,1442603588135,1442603588155,489,369,0,0,0,1,4,3,14,0001-00-0005-41.png,0004-00-0005-78.png
00000014,102,1,1442603589200,1442603589673,285,430,0,0,0,1,3,2,13,0001-00-0004-20.png,0003-00-0004-02.png
00000014,103,1,1442603590871,1442603591325,389,425,0,0,0,1,5,4,15,0001-00-0002-60.png,0005-00-0000-91.png
00000014,104,1,1442603592503,1442603593463,376,358,0,0,0,3,4,1,34,0003-00-0007-57.png,0004-00-0000-18.png
00000014,105,1,1442603594601,1442603595053,350,422,0,0,0,3,5,2,35,0003-00-0003-21.png,0005-00-0002-37.png
00000014,106,0,1442603596101,1442603596596,325,435,0,0,0,3,2,1,32,0003-00-0000-82.png,0002-00-0000-36.png
00000014,107,1,1442603599459,1442603599949,326,423,0,0,0,4,5,1,45,0004-00-0003-99.png,0005-00-0008-97.png
00000014,108,0,1442603601008,1442603601440,376,423,0,0,0,3,1,2,31,0003-00-0006-35.png,0001-00-0008-83.png
00000014,109,1,1442603604488,1442603604951,376,410,0,0,0,1,2,1,12,0001-00-0003-48.png,0002-00-0008-16.png
00000014,110,1,1442603605950,1442603606566,877,408,0,0,0,5,3,2,53,0005-00-0002-43.png,0003-00-0009-61.png
00000014,111,0,1442603607569,1442603608030,312,410,0,0,0,4,1,3,41,0004-00-0003-13.png,0001-00-0005-01.png
00000014,112,1,1442603611423,1442603611914,883,420,0,0,0,5,1,4,51,0005-00-0008-55.png,0001-00-0005-68.png
00000014,113,0,1442603612883,1442603613417,299,437,0,0,0,4,2,2,42,0004-00-0007-44.png,0002-00-0007-02.png
00000014,114,0,1442603616544,1442603616973,400,463,0,0,0,4,3,1,43,0004-00-0003-78.png,0003-00-0002-93.png
00000014,115,1,1442603620509,1442603620954,332,440,0,0,0,2,3,1,23,0002-00-0005-60.png,0003-00-0008-41.png
00000014,116,0,1442603622027,1442603622596,418,402,0,0,0,2,1,1,21,0002-00-0005-44.png,0001-00-0005-18.png
00000014,117,1,1442603625528,1442603625973,288,397,0,0,0,2,5,3,25,0002-00-0008-33.png,0005-00-0004-90.png
00000014,118,0,1442603626929,1442603627548,891,402,0,0,0,2,4,2,24,0002-00-0007-27.png,0004-00-0000-40.png
00000014,119,0,1442603630380,1442603630765,401,410,0,0,0,5,4,1,54,0005-00-0009-57.png,0004-00-0004-16.png
00000014,120,1,1442603634195,1442603634685,883,448,0,0,0,5,2,3,52,0005-00-0004-93.png,0002-00-0000-54.png
00000014,121,0,1442603635775,1442603636287,870,394,0,0,0,1,2,1,12,0001-00-0009-27.png,0002-00-0008-16.png
00000014,122,1,1442603639285,1442603639341,521,400,0,0,0,1,5,4,15,0001-00-0003-84.png,0005-00-0004-26.png
00000014,123,1,1442603640409,1442603640926,875,487,0,0,0,4,1,3,41,0004-00-0009-68.png,0001-00-0007-43.png
00000014,124,1,1442603642009,1442603642513,376,409,0,0,0,1,3,2,13,0001-00-0001-96.png,0003-00-0001-15.png
00000014,125,1,1442603643639,1442603644311,325,410,0,0,0,4,5,1,45,0004-00-0002-49.png,0005-00-0003-23.png
00000014,126,1,1442603645468,1442603645988,395,513,0,0,0,1,4,3,14,0001-00-0007-99.png,0004-00-0000-72.png
00000014,127,1,1442603647158,1442603647711,875,384,0,0,0,3,1,2,31,0003-00-0000-91.png,0001-00-0000-77.png
00000014,128,0,1442603648926,1442603649389,369,477,0,0,0,4,3,1,43,0004-00-0008-09.png,0003-00-0000-20.png
00000014,129,0,1442603652514,1442603652927,289,422,0,0,0,5,2,3,52,0005-00-0008-97.png,0002-00-0007-37.png
00000014,130,1,1442603656029,1442603656445,919,417,0,0,0,5,1,4,51,0005-00-0007-15.png,0001-00-0000-66.png
00000014,131,1,1442603657449,1442603657968,350,424,0,0,0,2,5,3,25,0002-00-0007-34.png,0005-00-0001-07.png
00000014,132,0,1442603659005,1442603659464,373,418,0,0,0,4,2,2,42,0004-00-0002-92.png,0002-00-0008-01.png
00000014,133,1,1442603662602,1442603663007,365,414,0,0,0,2,4,2,24,0002-00-0005-92.png,0004-00-0007-64.png
00000014,134,0,1442603663993,1442603664465,360,432,0,0,0,3,2,1,32,0003-00-0008-77.png,0002-00-0008-92.png
00000014,135,1,1442603667562,1442603668022,310,422,0,0,0,3,5,2,35,0003-00-0003-57.png,0005-00-0002-59.png
00000014,136,1,1442603668993,1442603669528,875,493,0,0,0,2,1,1,21,0002-00-0004-66.png,0001-00-0009-59.png
00000014,137,1,1442603670712,1442603671211,350,422,0,0,0,2,3,1,23,0002-00-0004-30.png,0003-00-0008-88.png
00000014,138,0,1442603672213,1442603672708,370,530,0,0,0,5,4,1,54,0005-00-0004-83.png,0004-00-0005-29.png
00000014,139,0,1442603675851,1442603676294,398,416,0,0,0,5,3,2,53,0005-00-0003-04.png,0003-00-0004-76.png
00000014,140,1,1442603679292,1442603679798,396,393,0,0,0,3,4,1,34,0003-00-0008-35.png,0004-00-0006-64.png
00000014,141,0,1442603680781,1442603681385,401,460,0,0,0,5,3,2,53,0005-00-0006-96.png,0003-00-0007-94.png
00000014,142,1,1442603684226,1442603684763,909,513,0,0,0,4,2,2,42,0004-00-0008-50.png,0002-00-0005-56.png
00000014,143,0,1442603685841,1442603686339,313,440,0,0,0,3,2,1,32,0003-00-0003-54.png,0002-00-0002-14.png
00000014,144,1,1442603689489,1442603689943,311,416,0,0,0,1,3,2,13,0001-00-0009-59.png,0003-00-0006-55.png
00000014,145,0,1442603690957,1442603691408,319,437,0,0,0,2,1,1,21,0002-00-0001-19.png,0001-00-0008-33.png
00000014,146,1,1442603694613,1442603694993,389,449,0,0,0,1,2,1,12,0001-00-0000-87.png,0002-00-0002-41.png
00000014,147,1,1442603695958,1442603696532,877,416,0,0,0,5,4,1,54,0005-00-0006-16.png,0004-00-0002-87.png
00000014,148,1,1442603697599,1442603698142,873,475,0,0,0,4,3,1,43,0004-00-0006-05.png,0003-00-0007-42.png
00000014,149,1,1442603699201,1442603699684,342,417,0,0,0,3,5,2,35,0003-00-0008-66.png,0005-00-0008-16.png
00000014,150,1,1442603700771,1442603701284,862,436,0,0,0,5,2,3,52,0005-00-0002-59.png,0002-00-0006-88.png
00000014,151,1,1442603702341,1442603702822,350,436,0,0,0,2,5,3,25,0002-00-0007-69.png,0005-00-0005-64.png
00000014,152,0,1442603703861,1442603704338,389,423,0,0,0,4,1,3,41,0004-00-0000-53.png,0001-00-0008-33.png
00000014,153,0,1442603707355,1442603707885,913,398,0,0,0,3,4,1,34,0003-00-0005-13.png,0004-00-0006-04.png
00000014,154,0,1442603711236,1442603711718,889,494,0,0,0,4,5,1,45,0004-00-0002-11.png,0005-00-0005-63.png
00000014,155,1,1442603714632,1442603715099,913,410,0,0,0,5,1,4,51,0005-00-0001-18.png,0001-00-0003-47.png
00000014,156,1,1442603716064,1442603716546,376,423,0,0,0,1,4,3,14,0001-00-0002-69.png,0004-00-0001-32.png
00000014,157,0,1442603717676,1442603718192,927,398,0,0,0,2,3,1,23,0002-00-0004-95.png,0003-00-0008-60.png
00000014,158,1,1442603721189,1442603721617,926,423,0,0,0,3,1,2,31,0003-00-0004-71.png,0001-00-0005-27.png
00000014,159,1,1442603722675,1442603723114,362,423,0,0,0,2,4,2,24,0002-00-0007-40.png,0004-00-0007-01.png
00000014,160,1,1442603724175,1442603724611,314,405,0,0,0,1,5,4,15,0001-00-0008-51.png,0005-00-0006-91.png
00000014,161,1,1442603725667,1442603726192,875,450,0,0,0,3,2,1,32,0003-00-0008-94.png,0002-00-0002-35.png
00000014,162,1,1442603727328,1442603727775,362,410,0,0,0,1,4,3,14,0001-00-0004-17.png,0004-00-0002-11.png
00000014,163,1,1442603728838,1442603729852,410,393,0,0,0,1,2,1,12,0001-00-0004-93.png,0002-00-0006-22.png
00000014,164,0,1442603730986,1442603731512,888,397,0,0,0,4,5,1,45,0004-00-0003-75.png,0005-00-0007-75.png
00000014,165,0,1442603734453,1442603734908,414,397,0,0,0,2,1,1,21,0002-00-0007-22.png,0001-00-0003-05.png
00000014,166,0,1442603737859,1442603737859,435,391,0,0,0,5,4,1,54,0005-00-0009-87.png,0004-00-0002-42.png
00000014,167,1,1442603741761,1442603742221,878,443,0,0,0,5,2,3,52,0005-00-0003-23.png,0002-00-0002-79.png
00000014,168,1,1442603743189,1442603743651,388,423,0,0,0,2,3,1,23,0002-00-0008-85.png,0003-00-0005-27.png
00000014,169,1,1442603744730,1442603745193,363,410,0,0,0,1,5,4,15,0001-00-0007-20.png,0005-00-0000-11.png
00000014,170,0,1442603746279,1442603746822,401,384,0,0,0,4,3,1,43,0004-00-0006-15.png,0003-00-0006-28.png
00000014,171,1,1442603749938,1442603750367,324,402,0,0,0,3,5,2,35,0003-00-0003-42.png,0005-00-0004-34.png
00000014,172,0,1442603751428,1442603751909,401,462,0,0,0,3,1,2,31,0003-00-0007-54.png,0001-00-0002-10.png
00000014,173,0,1442603755026,1442603755490,423,535,0,0,0,5,3,2,53,0005-00-0006-78.png,0003-00-0002-09.png
00000014,174,1,1442603758404,1442603758424,508,412,0,0,0,3,4,1,34,0003-00-0003-55.png,0004-00-0009-87.png
00000014,175,0,1442603759416,1442603759901,303,402,0,0,0,4,1,3,41,0004-00-0006-32.png,0001-00-0000-21.png
00000014,176,1,1442603763097,1442603763562,290,427,0,0,0,1,3,2,13,0001-00-0000-22.png,0003-00-0002-80.png
00000014,177,0,1442603764587,1442603765112,406,401,0,0,0,4,2,2,42,0004-00-0000-39.png,0002-00-0002-54.png
00000014,178,1,1442603768244,1442603768713,426,448,0,0,0,2,5,3,25,0002-00-0007-54.png,0005-00-0002-46.png
00000014,179,1,1442603769755,1442603770272,904,416,0,0,0,5,1,4,51,0005-00-0009-76.png,0001-00-0004-42.png
00000014,180,0,1442603771375,1442603771899,900,390,0,0,0,2,4,2,24,0002-00-0003-19.png,0004-00-0003-05.png
00000014,181,1,1442603774852,1442603775339,904,427,0,0,0,5,2,3,52,0005-00-0005-44.png,0002-00-0003-69.png
00000014,182,1,1442603776295,1442603776809,376,384,0,0,0,1,5,4,15,0001-00-0009-03.png,0005-00-0001-05.png
00000014,183,0,1442603777816,1442603778338,390,522,0,0,0,2,1,1,21,0002-00-0007-33.png,0001-00-0002-95.png
00000014,184,0,1442603781373,1442603781806,395,437,0,0,0,5,4,1,54,0005-00-0006-53.png,0004-00-0003-65.png
00000014,185,1,1442603784833,1442603785285,926,371,0,0,0,5,1,4,51,0005-00-0006-05.png,0001-00-0003-27.png
00000014,186,0,1442603786223,1442603787312,394,418,0,0,0,4,1,3,41,0004-00-0009-44.png,0001-00-0001-01.png
00000014,187,0,1442603790337,1442603790831,931,406,0,0,0,3,4,1,34,0003-00-0001-38.png,0004-00-0003-71.png
00000014,188,0,1442603793906,1442603793914,502,445,0,0,0,3,2,1,32,0003-00-0004-32.png,0002-00-0003-77.png
00000014,189,0,1442603796807,1442603796819,510,357,0,0,0,3,1,2,31,0003-00-0002-13.png,0001-00-0002-17.png
00000014,190,1,1442603800232,1442603800712,908,394,0,0,0,5,3,2,53,0005-00-0001-72.png,0003-00-0008-50.png
00000014,191,0,1442603801658,1442603802227,901,411,0,0,0,2,3,1,23,0002-00-0001-25.png,0003-00-0002-21.png
00000014,192,1,1442603805582,1442603806027,345,419,0,0,0,2,4,2,24,0002-00-0007-79.png,0004-00-0003-65.png
00000014,193,1,1442603807002,1442603807672,258,360,0,0,0,1,2,1,12,0001-00-0001-79.png,0002-00-0009-36.png
00000014,194,1,1442603808805,1442603809271,384,419,0,0,0,4,5,1,45,0004-00-0000-80.png,0005-00-0003-68.png
00000014,195,1,1442603810345,1442603810745,384,419,0,0,0,1,3,2,13,0001-00-0005-18.png,0003-00-0005-80.png
00000014,196,0,1442603811924,1442603812454,901,410,0,0,0,1,4,3,14,0001-00-0004-70.png,0004-00-0002-12.png
00000014,197,1,1442603815414,1442603815859,368,480,0,0,0,2,5,3,25,0002-00-0004-42.png,0005-00-0007-65.png
00000014,198,0,1442603816835,1442603817320,321,428,0,0,0,4,2,2,42,0004-00-0000-34.png,0002-00-0002-44.png
00000014,199,0,1442603821187,1442603821615,391,495,0,0,0,4,3,1,43,0004-00-0003-29.png,0003-00-0005-44.png
00000014,200,1,1442603824543,1442603824963,383,395,0,0,0,3,5,2,35,0003-00-0002-86.png,0005-00-0005-00.png
00000014,201,1,1442603825996,1442603826579,311,423,0,0,0,3,4,1,34,0003-00-0007-52.png,0004-00-0006-79.png
00000014,202,0,1442603827657,1442603828180,876,416,0,0,0,2,5,3,25,0002-00-0004-11.png,0005-00-0001-05.png
00000014,203,1,1442603831144,1442603831632,405,532,0,0,0,1,3,2,13,0001-00-0009-08.png,0003-00-0001-87.png
00000014,204,1,1442603832587,1442603833161,875,410,0,0,0,4,2,2,42,0004-00-0009-60.png,0002-00-0000-25.png
00000014,205,0,1442603834312,1442603834819,389,429,0,0,0,5,4,1,54,0005-00-0008-07.png,0004-00-0006-81.png
00000014,206,0,1442603837675,1442603838088,325,423,0,0,0,3,2,1,32,0003-00-0008-70.png,0002-00-0008-34.png
00000014,207,1,1442603841274,1442603841765,874,412,0,0,0,5,2,3,52,0005-00-0009-57.png,0002-00-0004-37.png
00000014,208,1,1442603842835,1442603843275,325,449,0,0,0,2,3,1,23,0002-00-0000-29.png,0003-00-0003-71.png
00000014,209,1,1442603844367,1442603844996,325,345,0,0,0,1,4,3,14,0001-00-0003-72.png,0004-00-0009-33.png
00000014,210,0,1442603846094,1442603846563,339,438,0,0,0,2,1,1,21,0002-00-0004-88.png,0001-00-0004-33.png
00000014,211,0,1442603849662,1442603850076,359,400,0,0,0,5,1,4,51,0005-00-0002-83.png,0001-00-0000-25.png
00000014,212,0,1442603853249,1442603853728,877,414,0,0,0,2,4,2,24,0002-00-0008-13.png,0004-00-0003-01.png
00000014,213,1,1442603856627,1442603857051,383,423,0,0,0,1,5,4,15,0001-00-0009-92.png,0005-00-0008-38.png
00000014,214,1,1442603858009,1442603858594,857,420,0,0,0,5,3,2,53,0005-00-0008-19.png,0003-00-0005-85.png
00000014,215,0,1442603859667,1442603860222,299,423,0,0,0,4,3,1,43,0004-00-0008-83.png,0003-00-0008-58.png
00000014,216,1,1442603863208,1442603863733,926,412,0,0,0,3,1,2,31,0003-00-0002-32.png,0001-00-0000-00.png
00000014,217,0,1442603864678,1442603865159,342,401,0,0,0,4,1,3,41,0004-00-0002-81.png,0001-00-0006-22.png
00000014,218,1,1442603868020,1442603868459,427,384,0,0,0,4,5,1,45,0004-00-0000-08.png,0005-00-0009-39.png
00000014,219,1,1442603869418,1442603870014,311,397,0,0,0,3,5,2,35,0003-00-0004-52.png,0005-00-0009-97.png
00000014,220,1,1442603871042,1442603871514,379,429,0,0,0,1,2,1,12,0001-00-0009-33.png,0002-00-0004-79.png
00000014,221,0,1442603872599,1442603873070,388,425,0,0,0,4,2,2,42,0004-00-0008-75.png,0002-00-0005-47.png
00000014,222,1,1442603875935,1442603875955,478,395,0,0,0,2,5,3,25,0002-00-0007-33.png,0005-00-0004-83.png
00000014,223,0,1442603876981,1442603877447,350,422,0,0,0,5,1,4,51,0005-00-0008-36.png,0001-00-0009-13.png
00000014,224,1,1442603880420,1442603880929,910,413,0,0,0,5,3,2,53,0005-00-0002-28.png,0003-00-0002-15.png
00000014,225,1,1442603881864,1442603882354,291,427,0,0,0,1,4,3,14,0001-00-0008-95.png,0004-00-0006-47.png
00000014,226,0,1442603883492,1442603884029,875,409,0,0,0,3,5,2,35,0003-00-0007-46.png,0005-00-0009-43.png
00000014,227,0,1442603886941,1442603886961,471,425,0,0,0,2,1,1,21,0002-00-0006-15.png,0001-00-0004-23.png
00000014,228,1,1442603890350,1442603890846,915,442,0,0,0,3,2,1,32,0003-00-0005-73.png,0002-00-0005-60.png
00000014,229,1,1442603891862,1442603892332,389,423,0,0,0,4,5,1,45,0004-00-0000-70.png,0005-00-0002-90.png
00000014,230,1,1442603893372,1442603893948,878,401,0,0,0,3,1,2,31,0003-00-0006-04.png,0001-00-0008-29.png
00000014,231,0,1442603895082,1442603895755,877,400,0,0,0,2,3,1,23,0002-00-0006-59.png,0003-00-0008-21.png
00000014,232,1,1442603898883,1442603899320,401,397,0,0,0,1,2,1,12,0001-00-0004-14.png,0002-00-0000-24.png
00000014,233,0,1442603900358,1442603900919,341,469,0,0,0,5,2,3,52,0005-00-0003-72.png,0002-00-0003-57.png
00000014,234,1,1442603907588,1442603908193,340,453,0,0,0,2,4,2,24,0002-00-0003-70.png,0004-00-0000-45.png
00000014,235,1,1442603909214,1442603909682,288,417,0,0,0,1,5,4,15,0001-00-0002-62.png,0005-00-0005-55.png
00000014,236,1,1442603910829,1442603911323,879,428,0,0,0,4,1,3,41,0004-00-0008-77.png,0001-00-0005-25.png
00000014,237,1,1442603912530,1442603913114,895,420,0,0,0,4,3,1,43,0004-00-0000-02.png,0003-00-0004-32.png
00000014,238,1,1442603914204,1442603914805,879,428,0,0,0,5,4,1,54,0005-00-0005-50.png,0004-00-0000-04.png
00000014,239,1,1442603915861,1442603916352,350,423,0,0,0,1,3,2,13,0001-00-0008-43.png,0003-00-0000-57.png
00000014,240,1,1442603917499,1442603918076,393,406,0,0,0,3,4,1,34,0003-00-0004-56.png,0004-00-0003-87.png
00000014,241,1,1442603919130,1442603919609,315,441,0,0,0,1,2,1,12,0001-00-0004-75.png,0002-00-0009-71.png
00000014,242,1,1442603920630,1442603921179,861,489,0,0,0,3,1,2,31,0003-00-0005-06.png,0001-00-0004-06.png
00000014,243,0,1442603922367,1442603922801,389,429,0,0,0,5,2,3,52,0005-00-0008-36.png,0002-00-0006-79.png
00000014,244,0,1442603925848,1442603926308,900,423,0,0,0,1,3,2,13,0001-00-0005-91.png,0003-00-0003-56.png
00000014,245,1,1442603930391,1442603930812,384,432,0,0,0,2,4,2,24,0002-00-0005-91.png,0004-00-0008-72.png
00000014,246,1,1442603931780,1442603932297,341,439,0,0,0,4,5,1,45,0004-00-0007-83.png,0005-00-0007-49.png
00000014,247,0,1442603933291,1442603933315,478,436,0,0,0,3,2,1,32,0003-00-0004-37.png,0002-00-0005-19.png
00000014,248,1,1442603936262,1442603936705,343,399,0,0,0,1,4,3,14,0001-00-0000-32.png,0004-00-0009-48.png
00000014,249,1,1442603937703,1442603938350,874,463,0,0,0,5,1,4,51,0005-00-0002-16.png,0001-00-0002-06.png
00000014,250,1,1442603939333,1442603939855,314,439,0,0,0,2,5,3,25,0002-00-0005-57.png,0005-00-0008-81.png
00000014,251,0,1442603940955,1442603941465,376,410,0,0,0,4,2,2,42,0004-00-0009-16.png,0002-00-0000-67.png
00000014,252,1,1442603944689,1442603945620,907,405,0,0,0,2,1,1,21,0002-00-0002-55.png,0001-00-0005-75.png
00000014,253,1,1442603946647,1442603947467,410,418,0,0,0,3,5,2,35,0003-00-0000-43.png,0005-00-0008-76.png
00000014,254,1,1442603948626,1442603949301,294,402,0,0,0,2,3,1,23,0002-00-0003-44.png,0003-00-0009-35.png
00000014,255,1,1442603950386,1442603950918,197,488,0,0,0,3,4,1,34,0003-00-0001-21.png,0004-00-0000-60.png
00000014,256,0,1442603951926,1442603952754,427,398,0,0,0,5,3,2,53,0005-00-0001-68.png,0003-00-0002-91.png
00000014,257,0,1442603955690,1442603955690,475,401,0,0,0,4,1,3,41,0004-00-0001-79.png,0001-00-0002-65.png
00000014,258,0,1442603959012,1442603959426,309,410,0,0,0,4,3,1,43,0004-00-0007-65.png,0003-00-0005-18.png
00000014,259,0,1442603962441,1442603962465,498,393,0,0,0,5,4,1,54,0005-00-0004-11.png,0004-00-0007-39.png
00000014,260,1,1442603965301,1442603965325,521,404,0,0,0,1,5,4,15,0001-00-0002-70.png,0005-00-0006-62.png
00000014,261,0,1442603966318,1442603966824,369,421,0,0,0,5,3,2,53,0005-00-0002-71.png,0003-00-0002-03.png
00000014,262,1,1442603969896,1442603970350,900,423,0,0,0,2,1,1,21,0002-00-0009-64.png,0001-00-0003-33.png
00000014,263,1,1442603971370,1442603971951,887,454,0,0,0,3,1,2,31,0003-00-0003-39.png,0001-00-0009-73.png
00000014,264,1,1442603973223,1442603973730,350,423,0,0,0,2,4,2,24,0002-00-0004-25.png,0004-00-0008-91.png
00000014,265,1,1442603974995,1442603975483,335,430,0,0,0,4,5,1,45,0004-00-0006-70.png,0005-00-0009-58.png
00000014,266,1,1442603976545,1442603977046,356,411,0,0,0,1,3,2,13,0001-00-0008-33.png,0003-00-0005-82.png
00000014,267,1,1442603978146,1442603978725,878,401,0,0,0,5,1,4,51,0005-00-0005-89.png,0001-00-0001-29.png
00000014,268,1,1442603979936,1442603980483,887,424,0,0,0,4,1,3,41,0004-00-0000-85.png,0001-00-0003-95.png
00000014,269,1,1442603981821,1442603982339,312,409,0,0,0,2,5,3,25,0002-00-0005-19.png,0005-00-0008-02.png
00000014,270,1,1442603983534,1442603984077,900,411,0,0,0,5,2,3,52,0005-00-0005-75.png,0002-00-0007-50.png
00000014,271,1,1442603985443,1442603985984,394,388,0,0,0,2,3,1,23,0002-00-0000-65.png,0003-00-0008-12.png
00000014,272,1,1442603987290,1442603987820,916,419,0,0,0,4,2,2,42,0004-00-0008-61.png,0002-00-0003-90.png
00000014,273,0,1442603989389,1442603989981,899,435,0,0,0,3,4,1,34,0003-00-0005-34.png,0004-00-0001-72.png
00000014,274,0,1442603993007,1442603993011,461,416,0,0,0,4,3,1,43,0004-00-0002-84.png,0003-00-0004-01.png
00000014,275,1,1442603995864,1442603996333,370,426,0,0,0,3,5,2,35,0003-00-0000-12.png,0005-00-0004-45.png
00000014,276,1,1442603997290,1442603997834,881,516,0,0,0,3,2,1,32,0003-00-0001-88.png,0002-00-0005-26.png
00000014,277,1,1442603999187,1442603999744,904,401,0,0,0,5,4,1,54,0005-00-0007-88.png,0004-00-0007-85.png
00000014,278,0,1442604000907,1442604001451,870,394,0,0,0,1,2,1,12,0001-00-0007-15.png,0002-00-0005-56.png
00000014,279,1,1442604004395,1442604004868,357,394,0,0,0,1,5,4,15,0001-00-0002-98.png,0005-00-0006-83.png
00000014,280,1,1442604005945,1442604006473,298,436,0,0,0,1,4,3,14,0001-00-0001-60.png,0004-00-0008-57.png
00000014,281,0,1442604007565,1442604008188,875,491,0,0,0,2,3,1,23,0002-00-0009-13.png,0003-00-0004-75.png
00000014,282,1,1442604011302,1442604011809,918,509,0,0,0,2,1,1,21,0002-00-0008-70.png,0001-00-0006-62.png
00000014,283,1,1442604012812,1442604013415,882,488,0,0,0,4,3,1,43,0004-00-0000-08.png,0003-00-0003-09.png
00000014,284,1,1442604014553,1442604015024,299,450,0,0,0,1,3,2,13,0001-00-0004-02.png,0003-00-0008-94.png
00000014,285,0,1442604016233,1442604016703,362,424,0,0,0,5,4,1,54,0005-00-0009-04.png,0004-00-0008-39.png
00000014,286,0,1442604019760,1442604020269,286,397,0,0,0,4,1,3,41,0004-00-0004-34.png,0001-00-0006-56.png
00000014,287,1,1442604023519,1442604024400,942,392,0,0,0,3,2,1,32,0003-00-0005-89.png,0002-00-0001-92.png
00000014,288,0,1442604025416,1442604025950,384,523,0,0,0,5,2,3,52,0005-00-0007-42.png,0002-00-0003-20.png
00000014,289,1,1442604028954,1442604028974,484,389,0,0,0,4,5,1,45,0004-00-0005-75.png,0005-00-0001-17.png
00000014,290,1,1442604029978,1442604030493,892,390,0,0,0,4,2,2,42,0004-00-0006-82.png,0002-00-0000-71.png
00000014,291,1,1442604031538,1442604032070,363,420,0,0,0,2,4,2,24,0002-00-0003-30.png,0004-00-0005-76.png
00000014,292,1,1442604033118,1442604033594,366,417,0,0,0,1,5,4,15,0001-00-0003-02.png,0005-00-0003-45.png
00000014,293,1,1442604034799,1442604035323,381,435,0,0,0,3,5,2,35,0003-00-0005-70.png,0005-00-0008-55.png
00000014,294,1,1442604036387,1442604036957,291,427,0,0,0,2,5,3,25,0002-00-0004-80.png,0005-00-0006-30.png
00000014,295,1,1442604038039,1442604038718,376,345,0,0,0,1,4,3,14,0001-00-0007-36.png,0004-00-0000-09.png
00000014,296,0,1442604039757,1442604040305,875,411,0,0,0,1,2,1,12,0001-00-0001-87.png,0002-00-0003-09.png
00000014,297,1,1442604043195,1442604043671,930,417,0,0,0,5,1,4,51,0005-00-0001-23.png,0001-00-0002-69.png
00000014,298,0,1442604044688,1442604045144,334,455,0,0,0,5,3,2,53,0005-00-0004-99.png,0003-00-0004-71.png
00000014,299,0,1442604048056,1442604048076,453,450,0,0,0,3,1,2,31,0003-00-0002-06.png,0001-00-0000-18.png
00000014,300,0,1442604051258,1442604051722,945,416,0,0,0,3,4,1,34,0003-00-0004-87.png,0004-00-0003-49.png
00000014,301,0,1442604054613,1442604055133,894,436,0,0,0,1,4,3,14,0001-00-0002-32.png,0004-00-0004-32.png
00000014,302,1,1442604057970,1442604058364,377,404,0,0,0,2,4,2,24,0002-00-0001-75.png,0004-00-0002-61.png
00000014,303,1,1442604059347,1442604059920,875,476,0,0,0,5,4,1,54,0005-00-0000-91.png,0004-00-0000-38.png
00000014,304,1,1442604060977,1442604061489,325,384,0,0,0,3,5,2,35,0003-00-0003-36.png,0005-00-0003-50.png
00000014,305,0,1442604062608,1442604063083,341,439,0,0,0,4,1,3,41,0004-00-0006-01.png,0001-00-0001-75.png
00000014,306,0,1442604066206,1442604066744,300,369,0,0,0,4,3,1,43,0004-00-0009-30.png,0003-00-0000-92.png
00000014,307,1,1442604070100,1442604070528,925,411,0,0,0,2,1,1,21,0002-00-0002-69.png,0001-00-0003-26.png
00000014,308,0,1442604071513,1442604072003,401,410,0,0,0,5,1,4,51,0005-00-0002-33.png,0001-00-0004-23.png
00000014,309,1,1442604074997,1442604075508,902,414,0,0,0,5,2,3,52,0005-00-0007-87.png,0002-00-0002-88.png
00000014,310,1,1442604076511,1442604076981,888,398,0,0,0,3,2,1,32,0003-00-0005-70.png,0002-00-0007-37.png
00000014,311,0,1442604078270,1442604078824,864,475,0,0,0,1,5,4,15,0001-00-0002-68.png,0005-00-0006-73.png
00000014,312,0,1442604081958,1442604082452,901,440,0,0,0,2,5,3,25,0002-00-0006-06.png,0005-00-0005-18.png
00000014,313,1,1442604085456,1442604085952,401,358,0,0,0,1,3,2,13,0001-00-0007-23.png,0003-00-0000-36.png
00000014,314,0,1442604087016,1442604087566,875,388,0,0,0,4,5,1,45,0004-00-0001-99.png,0005-00-0001-75.png
00000014,315,1,1442604090472,1442604090488,493,381,0,0,0,3,4,1,34,0003-00-0005-52.png,0004-00-0006-87.png
00000014,316,0,1442604091468,1442604091926,312,450,0,0,0,3,1,2,31,0003-00-0008-82.png,0001-00-0009-99.png
00000014,317,1,1442604094896,1442604094924,514,409,0,0,0,1,2,1,12,0001-00-0008-36.png,0002-00-0005-73.png
00000014,318,0,1442604095960,1442604097043,363,397,0,0,0,4,2,2,42,0004-00-0000-99.png,0002-00-0004-97.png
00000014,319,1,1442604099972,1442604100472,331,455,0,0,0,2,3,1,23,0002-00-0004-03.png,0003-00-0002-68.png
00000014,320,1,1442604101376,1442604101903,902,416,0,0,0,5,3,2,53,0005-00-0008-58.png,0003-00-0003-89.png
00000014,321,1,1442604103037,1442604103466,287,423,0,0,0,4,5,1,45,0004-00-0009-84.png,0005-00-0003-34.png
00000014,322,1,1442604104628,1442604105159,874,463,0,0,0,4,1,3,41,0004-00-0008-06.png,0001-00-0002-52.png
00000014,323,0,1442604106237,1442604106697,387,503,0,0,0,4,3,1,43,0004-00-0009-95.png,0003-00-0009-80.png
00000014,324,0,1442604109676,1442604109696,519,416,0,0,0,3,1,2,31,0003-00-0004-67.png,0001-00-0009-77.png
00000014,325,1,1442604112557,1442604112569,500,434,0,0,0,2,5,3,25,0002-00-0000-75.png,0005-00-0007-71.png
00000014,326,1,1442604113541,1442604114076,222,514,0,0,0,1,2,1,12,0001-00-0008-70.png,0002-00-0007-04.png
00000014,327,1,1442604115074,1442604115595,875,410,0,0,0,5,4,1,54,0005-00-0001-14.png,0004-00-0009-51.png
00000014,328,1,1442604116634,1442604117126,290,431,0,0,0,2,4,2,24,0002-00-0007-28.png,0004-00-0006-08.png
00000014,329,1,1442604118284,1442604118774,357,394,0,0,0,1,4,3,14,0001-00-0004-54.png,0004-00-0006-87.png
00000014,330,1,1442604119855,1442604120379,913,398,0,0,0,5,2,3,52,0005-00-0009-58.png,0002-00-0007-15.png
00000014,331,1,1442604121445,1442604121998,897,418,0,0,0,5,1,4,51,0005-00-0001-26.png,0001-00-0002-21.png
00000014,332,0,1442604123092,1442604123610,332,403,0,0,0,2,1,1,21,0002-00-0007-23.png,0001-00-0004-76.png
00000014,333,1,1442604126452,1442604126955,368,400,0,0,0,3,5,2,35,0003-00-0005-91.png,0005-00-0002-11.png
00000014,334,0,1442604127955,1442604128530,857,368,0,0,0,1,3,2,13,0001-00-0008-58.png,0003-00-0003-16.png
00000014,335,1,1442604131551,1442604132013,394,505,0,0,0,2,3,1,23,0002-00-0004-51.png,0003-00-0007-64.png
00000014,336,1,1442604133013,1442604133514,401,502,0,0,0,1,5,4,15,0001-00-0001-22.png,0005-00-0008-85.png
00000014,337,0,1442604134852,1442604135301,390,410,0,0,0,5,3,2,53,0005-00-0008-94.png,0003-00-0005-03.png
00000014,338,1,1442604138410,1442604138875,860,517,0,0,0,3,2,1,32,0003-00-0001-05.png,0002-00-0006-23.png
00000014,339,0,1442604139776,1442604140316,875,403,0,0,0,3,4,1,34,0003-00-0004-88.png,0004-00-0001-12.png
00000014,340,1,1442604143449,1442604143916,874,515,0,0,0,4,2,2,42,0004-00-0005-51.png,0002-00-0000-61.png
00000014,341,1,1442604144860,1442604145404,399,386,0,0,0,1,2,1,12,0001-00-0007-28.png,0002-00-0008-44.png
00000014,342,1,1442604146461,1442604146985,901,410,0,0,0,5,1,4,51,0005-00-0003-31.png,0001-00-0003-42.png
00000014,343,1,1442604148021,1442604148532,339,406,0,0,0,1,5,4,15,0001-00-0003-98.png,0005-00-0006-29.png
00000014,344,1,1442604149752,1442604150293,877,415,0,0,0,5,4,1,54,0005-00-0009-06.png,0004-00-0001-67.png
00000014,345,1,1442604151370,1442604151930,871,472,0,0,0,3,2,1,32,0003-00-0004-93.png,0002-00-0007-78.png
00000014,346,0,1442604153011,1442604153532,388,520,0,0,0,4,3,1,43,0004-00-0001-18.png,0003-00-0009-87.png
00000014,347,1,1442604156370,1442604156871,358,471,0,0,0,1,4,3,14,0001-00-0006-01.png,0004-00-0002-55.png
00000014,348,1,1442604157822,1442604158469,897,387,0,0,0,2,1,1,21,0002-00-0009-14.png,0001-00-0000-17.png
00000014,349,1,1442604159461,1442604160108,343,417,0,0,0,2,5,3,25,0002-00-0006-43.png,0005-00-0004-07.png
00000014,350,1,1442604161276,1442604161818,869,491,0,0,0,3,1,2,31,0003-00-0007-44.png,0001-00-0005-28.png
00000014,351,0,1442604162887,1442604163368,376,410,0,0,0,5,2,3,52,0005-00-0008-09.png,0002-00-0009-02.png
00000014,352,0,1442604166347,1442604166375,519,472,0,0,0,5,3,2,53,0005-00-0002-91.png,0003-00-0009-56.png
00000014,353,1,1442604169349,1442604170288,376,412,0,0,0,3,4,1,34,0003-00-0005-52.png,0004-00-0004-29.png
00000014,354,0,1442604171338,1442604171852,880,401,0,0,0,2,4,2,24,0002-00-0003-29.png,0004-00-0004-63.png
00000014,355,1,1442604174965,1442604175357,371,408,0,0,0,3,5,2,35,0003-00-0005-23.png,0005-00-0007-55.png
00000014,356,1,1442604176276,1442604176899,875,383,0,0,0,4,2,2,42,0004-00-0002-15.png,0002-00-0001-89.png
00000014,357,1,1442604177977,1442604178435,401,410,0,0,0,2,3,1,23,0002-00-0007-69.png,0003-00-0001-58.png
00000014,358,1,1442604179527,1442604180048,350,421,0,0,0,4,5,1,45,0004-00-0005-64.png,0005-00-0000-72.png
00000014,359,1,1442604181177,1442604181644,364,429,0,0,0,1,3,2,13,0001-00-0009-77.png,0003-00-0008-03.png
00000014,360,1,1442604182676,1442604183303,873,482,0,0,0,4,1,3,41,0004-00-0002-67.png,0001-00-0006-12.png
00000014,361,1,1442604184406,1442604185822,888,424,0,0,0,4,1,3,41,0004-00-0007-08.png,0001-00-0000-06.png
00000014,362,1,1442604186902,1442604187414,900,409,0,0,0,5,1,4,51,0005-00-0008-69.png,0001-00-0007-81.png
00000014,363,1,1442604188472,1442604188998,887,398,0,0,0,4,2,2,42,0004-00-0005-79.png,0002-00-0003-61.png
00000014,364,0,1442604190062,1442604191028,418,428,0,0,0,5,3,2,53,0005-00-0001-88.png,0003-00-0004-50.png
00000014,365,1,1442604194096,1442604194573,248,465,0,0,0,2,5,3,25,0002-00-0002-84.png,0005-00-0002-71.png
00000014,366,0,1442604195508,1442604196081,376,424,0,0,0,3,2,1,32,0003-00-0003-19.png,0002-00-0008-79.png
00000014,367,1,1442604199075,1442604199095,474,368,0,0,0,1,4,3,14,0001-00-0005-15.png,0004-00-0007-18.png
00000014,368,1,1442604200089,1442604200690,867,404,0,0,0,5,2,3,52,0005-00-0005-38.png,0002-00-0002-10.png
00000014,369,1,1442604201720,1442604202180,286,423,0,0,0,1,5,4,15,0001-00-0005-59.png,0005-00-0009-30.png
00000014,370,1,1442604203519,1442604204003,876,397,0,0,0,3,1,2,31,0003-00-0004-26.png,0001-00-0001-51.png
00000014,371,1,1442604205049,1442604205562,375,385,0,0,0,2,4,2,24,0002-00-0002-68.png,0004-00-0001-67.png
00000014,372,1,1442604206580,1442604207096,376,437,0,0,0,1,2,1,12,0001-00-0005-89.png,0002-00-0005-63.png
00000014,373,1,1442604208201,1442604208708,875,410,0,0,0,5,4,1,54,0005-00-0007-80.png,0004-00-0008-10.png
00000014,374,1,1442604209900,1442604210483,901,383,0,0,0,2,1,1,21,0002-00-0001-27.png,0001-00-0008-42.png
00000014,375,0,1442604211596,1442604212132,864,433,0,0,0,1,3,2,13,0001-00-0004-08.png,0003-00-0005-27.png
00000014,376,0,1442604215004,1442604215024,489,369,0,0,0,4,3,1,43,0004-00-0002-07.png,0003-00-0008-72.png
00000014,377,1,1442604217919,1442604217947,514,373,0,0,0,2,3,1,23,0002-00-0009-15.png,0003-00-0007-65.png
00000014,378,1,1442604218935,1442604219484,330,403,0,0,0,3,5,2,35,0003-00-0000-46.png,0005-00-0001-53.png
00000014,379,1,1442604220634,1442604221148,291,453,0,0,0,3,4,1,34,0003-00-0004-75.png,0004-00-0008-28.png
00000014,380,0,1442604222155,1442604222706,877,415,0,0,0,4,5,1,45,0004-00-0003-40.png,0005-00-0005-19.png
00000014,381,1,1442604225700,1442604226131,350,410,0,0,0,1,3,2,13,0001-00-0001-10.png,0003-00-0003-63.png
00000014,382,0,1442604227155,1442604227630,392,416,0,0,0,5,1,4,51,0005-00-0008-50.png,0001-00-0007-94.png
00000014,383,1,1442604230493,1442604230517,510,408,0,0,0,2,3,1,23,0002-00-0000-71.png,0003-00-0002-84.png
00000014,384,1,1442604231608,1442604232077,375,417,0,0,0,1,2,1,12,0001-00-0006-78.png,0002-00-0006-63.png
00000014,385,1,1442604233167,1442604233684,350,409,0,0,0,2,5,3,25,0002-00-0005-70.png,0005-00-0000-00.png
00000014,386,1,1442604234777,1442604235352,865,460,0,0,0,5,4,1,54,0005-00-0000-14.png,0004-00-0008-78.png
00000014,387,0,1442604236407,1442604236905,317,427,0,0,0,3,1,2,31,0003-00-0002-65.png,0001-00-0004-46.png
00000014,388,1,1442604239956,1442604240348,376,398,0,0,0,4,5,1,45,0004-00-0009-88.png,0005-00-0002-46.png
00000014,389,0,1442604241349,1442604241869,860,483,0,0,0,3,4,1,34,0003-00-0005-94.png,0004-00-0009-92.png
00000014,390,1,1442604244844,1442604245271,331,375,0,0,0,1,4,3,14,0001-00-0009-71.png,0004-00-0001-63.png
00000014,391,0,1442604246267,1442604246783,410,534,0,0,0,4,1,3,41,0004-00-0008-85.png,0001-00-0009-91.png
00000014,392,0,1442604249884,1442604250284,384,419,0,0,0,4,2,2,42,0004-00-0002-81.png,0002-00-0008-37.png
00000014,393,0,1442604253402,1442604253414,508,444,0,0,0,4,3,1,43,0004-00-0006-44.png,0003-00-0007-18.png
00000014,394,1,1442604256541,1442604256561,489,424,0,0,0,1,5,4,15,0001-00-0009-25.png,0005-00-0002-77.png
00000014,395,1,1442604257677,1442604258524,315,417,0,0,0,3,5,2,35,0003-00-0007-43.png,0005-00-0001-95.png
00000014,396,0,1442604259619,1442604260046,350,423,0,0,0,5,3,2,53,0005-00-0002-83.png,0003-00-0009-08.png
00000014,397,0,1442604263023,1442604263043,512,411,0,0,0,5,2,3,52,0005-00-0009-04.png,0002-00-0007-32.png
00000014,398,1,1442604266053,1442604266583,904,441,0,0,0,2,1,1,21,0002-00-0009-87.png,0001-00-0002-90.png
00000014,399,0,1442604267594,1442604268516,356,398,0,0,0,3,2,1,32,0003-00-0005-36.png,0002-00-0009-17.png
00000014,400,1,1442604271600,1442604272059,376,410,0,0,0,2,4,2,24,0002-00-0000-75.png,0004-00-0002-14.png
00000014,401,0,1442604273161,1442604273690,906,389,0,0,0,2,4,2,24,0002-00-0002-77.png,0004-00-0005-05.png
00000014,402,1,1442604276758,1442604277284,865,483,0,0,0,5,2,3,52,0005-00-0009-38.png,0002-00-0001-74.png
00000014,403,0,1442604278261,1442604278794,316,437,0,0,0,4,3,1,43,0004-00-0005-98.png,0003-00-0006-64.png
00000014,404,0,1442604281803,1442604282274,319,399,0,0,0,2,1,1,21,0002-00-0008-56.png,0001-00-0001-79.png
00000014,405,1,1442604285350,1442604285747,344,452,0,0,0,2,5,3,25,0002-00-0000-41.png,0005-00-0008-09.png
00000014,406,0,1442604286745,1442604287240,338,462,0,0,0,5,4,1,54,0005-00-0004-53.png,0004-00-0008-40.png
00000014,407,0,1442604290334,1442604290950,938,398,0,0,0,1,2,1,12,0001-00-0009-04.png,0002-00-0005-95.png
00000014,408,1,1442604294032,1442604294472,211,462,0,0,0,1,3,2,13,0001-00-0003-72.png,0003-00-0000-80.png
00000014,409,1,1442604295495,1442604296013,879,402,0,0,0,4,1,3,41,0004-00-0004-36.png,0001-00-0007-33.png
00000014,410,0,1442604297014,1442604297546,881,363,0,0,0,4,5,1,45,0004-00-0000-77.png,0005-00-0003-88.png
00000014,411,1,1442604300677,1442604301144,342,401,0,0,0,3,4,1,34,0003-00-0002-91.png,0004-00-0002-87.png
00000014,412,1,1442604302270,1442604302793,902,414,0,0,0,5,1,4,51,0005-00-0000-86.png,0001-00-0005-00.png
00000014,413,1,1442604303940,1442604304397,401,384,0,0,0,3,5,2,35,0003-00-0001-02.png,0005-00-0002-49.png
00000014,414,1,1442604305620,1442604306132,875,410,0,0,0,5,3,2,53,0005-00-0006-45.png,0003-00-0005-81.png
00000014,415,0,1442604307334,1442604307836,294,401,0,0,0,3,2,1,32,0003-00-0002-77.png,0002-00-0003-15.png
00000014,416,0,1442604310947,1442604311469,248,436,0,0,0,3,1,2,31,0003-00-0002-92.png,0001-00-0003-15.png
00000014,417,0,1442604314326,1442604314334,515,411,0,0,0,4,2,2,42,0004-00-0008-74.png,0002-00-0005-45.png
00000014,418,1,1442604317467,1442604317861,361,468,0,0,0,1,4,3,14,0001-00-0004-31.png,0004-00-0003-95.png
00000014,419,1,1442604318857,1442604319354,342,415,0,0,0,1,5,4,15,0001-00-0002-98.png,0005-00-0008-11.png
00000014,420,1,1442604320378,1442604320844,312,449,0,0,0,2,3,1,23,0002-00-0000-76.png,0003-00-0009-44.png
00000014,421,1,1442604321937,1442604322482,316,403,0,0,0,3,5,2,35,0003-00-0002-33.png,0005-00-0009-94.png
00000014,422,1,1442604323577,1442604324095,376,436,0,0,0,4,5,1,45,0004-00-0008-54.png,0005-00-0001-19.png
00000014,423,0,1442604325179,1442604325709,894,397,0,0,0,3,4,1,34,0003-00-0007-78.png,0004-00-0005-37.png
00000014,424,1,1442604328666,1442604329132,311,430,0,0,0,2,3,1,23,0002-00-0000-44.png,0003-00-0001-78.png
00000014,425,1,1442604330097,1442604330628,876,387,0,0,0,3,2,1,32,0003-00-0002-47.png,0002-00-0000-35.png
00000014,426,0,1442604331669,1442604332658,292,417,0,0,0,5,3,2,53,0005-00-0004-83.png,0003-00-0008-71.png
00000014,427,0,1442604335699,1442604336163,470,333,0,0,0,5,4,1,54,0005-00-0006-69.png,0004-00-0005-58.png
00000014,428,0,1442604339089,1442604339604,313,475,0,0,0,5,2,3,52,0005-00-0003-36.png,0002-00-0000-76.png
00000014,429,1,1442604342898,1442604343348,222,505,0,0,0,1,5,4,15,0001-00-0003-59.png,0005-00-0001-40.png
00000014,430,1,1442604344328,1442604344867,882,499,0,0,0,4,3,1,43,0004-00-0006-25.png,0003-00-0001-44.png
00000014,431,1,1442604345858,1442604346412,903,426,0,0,0,3,1,2,31,0003-00-0001-88.png,0001-00-0008-70.png
00000014,432,1,1442604347557,1442604347983,376,410,0,0,0,1,3,2,13,0001-00-0006-86.png,0003-00-0003-64.png
00000014,433,1,1442604348999,1442604349550,882,513,0,0,0,5,1,4,51,0005-00-0001-87.png,0001-00-0005-28.png
00000014,434,0,1442604350630,1442604351112,877,492,0,0,0,2,4,2,24,0002-00-0007-73.png,0004-00-0009-30.png
00000014,435,1,1442604354196,1442604354644,337,419,0,0,0,1,4,3,14,0001-00-0000-66.png,0004-00-0004-63.png
00000014,436,1,1442604355591,1442604356090,338,427,0,0,0,1,2,1,12,0001-00-0002-60.png,0002-00-0001-65.png
00000014,437,1,1442604357106,1442604358110,906,457,0,0,0,4,1,3,41,0004-00-0000-73.png,0001-00-0005-21.png
00000014,438,0,1442604359294,1442604359729,319,461,0,0,0,4,2,2,42,0004-00-0009-30.png,0002-00-0005-70.png
00000014,439,1,1442604363798,1442604364252,347,438,0,0,0,2,5,3,25,0002-00-0005-31.png,0005-00-0002-36.png
00000014,440,1,1442604365339,1442604365892,887,424,0,0,0,2,1,1,21,0002-00-0006-10.png,0001-00-0008-97.png
00000014,441,0,1442604366969,1442604367525,874,489,0,0,0,2,3,1,23,0002-00-0002-59.png,0003-00-0007-93.png
00000014,442,1,1442604371601,1442604372087,875,502,0,0,0,5,1,4,51,0005-00-0002-88.png,0001-00-0003-17.png
00000014,443,1,1442604373031,1442604373852,363,384,0,0,0,4,5,1,45,0004-00-0006-56.png,0005-00-0000-40.png
00000014,444,1,1442604374930,1442604375389,376,410,0,0,0,1,2,1,12,0001-00-0008-12.png,0002-00-0003-11.png
00000014,445,1,1442604376505,1442604377041,901,502,0,0,0,4,1,3,41,0004-00-0009-52.png,0001-00-0005-94.png
00000014,446,1,1442604378250,1442604378718,325,424,0,0,0,2,5,3,25,0002-00-0000-62.png,0005-00-0004-92.png
00000014,447,0,1442604379740,1442604380289,350,384,0,0,0,5,4,1,54,0005-00-0005-96.png,0004-00-0006-90.png
00000014,448,0,1442604383436,1442604384191,396,363,0,0,0,3,2,1,32,0003-00-0008-10.png,0002-00-0008-80.png
00000014,449,1,1442604387262,1442604387828,889,543,0,0,0,3,1,2,31,0003-00-0008-45.png,0001-00-0008-17.png
00000014,450,1,1442604388772,1442604389231,401,384,0,0,0,1,3,2,13,0001-00-0004-14.png,0003-00-0001-39.png
00000014,451,1,1442604390292,1442604390819,900,437,0,0,0,5,3,2,53,0005-00-0002-56.png,0003-00-0002-59.png
00000014,452,1,1442604391803,1442604392349,878,413,0,0,0,2,1,1,21,0002-00-0009-97.png,0001-00-0007-93.png
00000014,453,1,1442604393425,1442604393935,880,401,0,0,0,5,2,3,52,0005-00-0000-37.png,0002-00-0006-07.png
00000014,454,1,1442604395065,1442604395581,326,403,0,0,0,1,4,3,14,0001-00-0006-14.png,0004-00-0002-66.png
00000014,455,1,1442604396864,1442604397368,875,422,0,0,0,4,3,1,43,0004-00-0008-79.png,0003-00-0005-21.png
00000014,456,0,1442604398473,1442604399027,880,419,0,0,0,3,4,1,34,0003-00-0006-67.png,0004-00-0001-76.png
00000014,457,0,1442604401963,1442604402517,865,407,0,0,0,3,5,2,35,0003-00-0006-97.png,0005-00-0009-67.png
00000014,458,1,1442604405619,1442604406082,362,422,0,0,0,2,4,2,24,0002-00-0000-93.png,0004-00-0006-18.png
00000014,459,0,1442604407071,1442604407615,875,397,0,0,0,1,5,4,15,0001-00-0001-22.png,0005-00-0007-91.png
00000014,460,0,1442604410539,1442604410559,512,444,0,0,0,4,2,2,42,0004-00-0002-75.png,0002-00-0002-03.png
00000014,461,0,1442604413480,1442604413500,468,388,0,0,0,5,4,1,54,0005-00-0006-35.png,0004-00-0007-49.png
00000014,462,1,1442604416603,1442604417093,370,387,0,0,0,1,5,4,15,0001-00-0001-45.png,0005-00-0008-70.png
00000014,463,1,1442604418030,1442604418994,367,502,0,0,0,1,4,3,14,0001-00-0005-66.png,0004-00-0004-58.png
00000014,464,1,1442604420080,1442604420561,342,444,0,0,0,1,3,2,13,0001-00-0004-97.png,0003-00-0008-38.png
00000014,465,0,1442604421608,1442604422479,343,439,0,0,0,5,2,3,52,0005-00-0003-46.png,0002-00-0008-86.png
00000014,466,1,1442604426004,1442604426487,878,419,0,0,0,3,1,2,31,0003-00-0005-49.png,0001-00-0003-78.png
00000014,467,1,1442604427555,1442604428602,899,387,0,0,0,4,1,3,41,0004-00-0007-22.png,0001-00-0008-46.png
00000014,468,0,1442604429642,1442604430181,863,423,0,0,0,2,4,2,24,0002-00-0004-08.png,0004-00-0003-39.png
00000014,469,0,1442604433067,1442604433578,908,473,0,0,0,1,2,1,12,0001-00-0006-19.png,0002-00-0007-10.png
00000014,470,1,1442604436635,1442604437140,313,423,0,0,0,2,5,3,25,0002-00-0003-02.png,0005-00-0006-13.png
00000014,471,1,1442604438103,1442604438119,504,451,0,0,0,2,3,1,23,0002-00-0009-56.png,0003-00-0003-54.png
00000014,472,1,1442604439446,1442604439933,866,493,0,0,0,5,1,4,51,0005-00-0000-27.png,0001-00-0004-73.png
00000014,473,1,1442604440992,1442604441533,875,397,0,0,0,4,2,2,42,0004-00-0005-23.png,0002-00-0003-02.png
00000014,474,1,1442604442710,1442604443210,358,436,0,0,0,3,4,1,34,0003-00-0003-31.png,0004-00-0005-96.png
00000014,475,1,1442604444391,1442604445200,401,396,0,0,0,4,5,1,45,0004-00-0003-36.png,0005-00-0002-50.png
00000014,476,1,1442604446340,1442604446868,881,430,0,0,0,3,2,1,32,0003-00-0002-01.png,0002-00-0004-54.png
00000014,477,0,1442604447969,1442604448499,401,410,0,0,0,5,3,2,53,0005-00-0005-18.png,0003-00-0000-67.png
00000014,478,0,1442604451417,1442604451888,417,507,0,0,0,2,1,1,21,0002-00-0001-61.png,0001-00-0001-09.png
00000014,479,1,1442604454774,1442604455278,299,358,0,0,0,3,5,2,35,0003-00-0002-52.png,0005-00-0003-76.png
00000014,480,1,1442604456315,1442604456865,880,490,0,0,0,4,3,1,43,0004-00-0001-29.png,0003-00-0001-56.png
00000014,481,1,1442604457908,1442604458723,406,486,0,0,0,2,5,3,25,0002-00-0008-52.png,0005-00-0003-07.png
00000014,482,1,1442604459776,1442604460225,376,436,0,0,0,1,3,2,13,0001-00-0000-16.png,0003-00-0008-64.png
00000014,483,1,1442604461316,1442604461759,369,406,0,0,0,1,5,4,15,0001-00-0005-00.png,0005-00-0006-90.png
00000014,484,0,1442604462928,1442604463401,401,410,0,0,0,3,1,2,31,0003-00-0002-56.png,0001-00-0007-71.png
00000014,485,0,1442604466242,1442604466697,351,460,0,0,0,3,2,1,32,0003-00-0003-41.png,0002-00-0005-78.png
00000014,486,1,1442604469635,1442604470060,325,398,0,0,0,4,5,1,45,0004-00-0004-59.png,0005-00-0000-52.png
00000014,487,1,1442604471148,1442604471608,879,427,0,0,0,4,2,2,42,0004-00-0008-40.png,0002-00-0008-93.png
00000014,488,1,1442604472679,1442604473203,883,390,0,0,0,5,4,1,54,0005-00-0004-90.png,0004-00-0005-00.png
00000014,489,0,1442604474308,1442604474850,414,528,0,0,0,5,2,3,52,0005-00-0005-30.png,0002-00-0002-15.png
00000014,490,1,1442604477736,1442604477744,519,415,0,0,0,2,4,2,24,0002-00-0009-44.png,0004-00-0008-12.png
00000014,491,1,1442604478689,1442604479252,878,428,0,0,0,4,1,3,41,0004-00-0002-66.png,0001-00-0003-22.png
00000014,492,0,1442604480280,1442604480737,359,428,0,0,0,4,3,1,43,0004-00-0009-40.png,0003-00-0000-74.png
00000014,493,1,1442604483688,1442604483708,492,398,0,0,0,2,3,1,23,0002-00-0003-59.png,0003-00-0008-87.png
00000014,494,1,1442604484692,1442604485220,890,399,0,0,0,5,3,2,53,0005-00-0004-86.png,0003-00-0006-87.png
00000014,495,1,1442604486252,1442604486702,376,384,0,0,0,3,5,2,35,0003-00-0004-38.png,0005-00-0003-46.png
00000014,496,1,1442604487815,1442604488784,392,543,0,0,0,1,2,1,12,0001-00-0000-24.png,0002-00-0003-38.png
00000014,497,1,1442604489838,1442604490807,350,384,0,0,0,3,4,1,34,0003-00-0005-09.png,0004-00-0008-02.png
00000014,498,1,1442604492048,1442604492498,305,456,0,0,0,1,4,3,14,0001-00-0003-38.png,0004-00-0000-77.png
00000014,499,1,1442604493628,1442604494109,878,428,0,0,0,2,1,1,21,0002-00-0007-22.png,0001-00-0001-49.png
00000014,500,0,1442604495269,1442604495742,364,458,0,0,0,5,1,4,51,0005-00-0003-87.png,0001-00-0007-96.png
00000014,501,0,1442604498777,1442604499268,255,518,0,0,0,5,2,3,52,0005-00-0001-75.png,0002-00-0008-79.png
00000014,502,1,1442604502363,1442604502821,419,417,0,0,0,4,5,1,45,0004-00-0002-04.png,0005-00-0000-11.png
00000014,503,1,1442604503770,1442604504340,915,433,0,0,0,5,4,1,54,0005-00-0003-67.png,0004-00-0006-92.png
00000014,504,0,1442604505347,1442604506271,284,405,0,0,0,4,2,2,42,0004-00-0009-42.png,0002-00-0008-77.png
00000014,505,0,1442604509100,1442604509123,510,446,0,0,0,3,1,2,31,0003-00-0002-58.png,0001-00-0002-76.png
00000014,506,1,1442604512251,1442604512820,874,502,0,0,0,4,3,1,43,0004-00-0000-88.png,0003-00-0009-43.png
00000014,507,1,1442604513782,1442604514305,882,436,0,0,0,5,1,4,51,0005-00-0006-45.png,0001-00-0009-35.png
00000014,508,1,1442604515315,1442604515793,325,424,0,0,0,1,3,2,13,0001-00-0002-38.png,0003-00-0000-18.png
00000014,509,0,1442604516866,1442604517366,879,426,0,0,0,2,3,1,23,0002-00-0007-83.png,0003-00-0009-95.png
00000014,510,1,1442604520373,1442604520825,411,407,0,0,0,1,4,3,14,0001-00-0009-47.png,0004-00-0009-47.png
00000014,511,1,1442604521854,1442604522366,299,450,0,0,0,1,2,1,12,0001-00-0006-68.png,0002-00-0006-96.png
00000014,512,1,1442604523484,1442604524066,875,502,0,0,0,2,1,1,21,0002-00-0007-76.png,0001-00-0005-28.png
00000014,513,1,1442604525074,1442604525607,401,384,0,0,0,3,5,2,35,0003-00-0003-75.png,0005-00-0007-62.png
00000014,514,1,1442604526703,1442604527219,900,423,0,0,0,4,1,3,41,0004-00-0005-21.png,0001-00-0003-98.png
00000014,515,1,1442604528275,1442604528786,344,447,0,0,0,2,4,2,24,0002-00-0006-39.png,0004-00-0006-98.png
00000014,516,0,1442604530036,1442604530965,406,561,0,0,0,3,2,1,32,0003-00-0009-46.png,0002-00-0008-47.png
00000014,517,1,1442604534020,1442604534439,369,427,0,0,0,3,4,1,34,0003-00-0006-96.png,0004-00-0007-39.png
00000014,518,1,1442604535889,1442604536381,879,428,0,0,0,5,3,2,53,0005-00-0007-16.png,0003-00-0009-69.png
00000014,519,1,1442604537449,1442604537899,336,422,0,0,0,1,5,4,15,0001-00-0001-19.png,0005-00-0001-07.png
00000014,520,1,1442604538981,1442604539079,457,558,0,0,0,2,5,3,25,0002-00-0008-30.png,0005-00-0002-66.png
00000014,521,1,1442604540580,1442604541060,373,412,0,0,0,1,5,4,15,0001-00-0008-44.png,0005-00-0008-80.png
00000014,522,1,1442604542617,1442604543120,892,426,0,0,0,3,1,2,31,0003-00-0007-52.png,0001-00-0007-20.png
00000014,523,1,1442604544554,1442604545063,870,498,0,0,0,3,2,1,32,0003-00-0000-79.png,0002-00-0006-85.png
00000014,524,0,1442604547118,1442604547545,401,449,0,0,0,4,1,3,41,0004-00-0009-71.png,0001-00-0009-13.png
00000014,525,0,1442604550537,1442604550565,511,472,0,0,0,5,3,2,53,0005-00-0004-01.png,0003-00-0004-24.png
00000014,526,1,1442604553550,1442604553574,523,454,0,0,0,2,3,1,23,0002-00-0007-80.png,0003-00-0007-59.png
00000014,527,0,1442604554662,1442604555129,382,446,0,0,0,4,2,2,42,0004-00-0002-82.png,0002-00-0004-51.png
00000014,528,1,1442604558281,1442604558697,352,404,0,0,0,4,5,1,45,0004-00-0004-17.png,0005-00-0009-86.png
00000014,529,1,1442604559642,1442604560145,339,441,0,0,0,1,2,1,12,0001-00-0003-76.png,0002-00-0004-76.png
00000014,530,1,1442604561333,1442604561869,287,449,0,0,0,3,5,2,35,0003-00-0000-89.png,0005-00-0007-69.png
00000014,531,1,1442604562942,1442604563421,350,450,0,0,0,2,4,2,24,0002-00-0004-23.png,0004-00-0004-05.png
00000014,532,0,1442604564519,1442604565051,876,438,0,0,0,3,4,1,34,0003-00-0000-82.png,0004-00-0000-19.png
00000014,533,1,1442604568151,1442604568614,927,408,0,0,0,5,2,3,52,0005-00-0000-50.png,0002-00-0005-37.png
00000014,534,1,1442604569592,1442604570067,341,435,0,0,0,1,3,2,13,0001-00-0008-41.png,0003-00-0004-02.png
00000014,535,0,1442604571192,1442604571675,401,436,0,0,0,5,4,1,54,0005-00-0000-44.png,0004-00-0005-76.png
00000014,536,0,1442604574820,1442604575289,404,511,0,0,0,2,1,1,21,0002-00-0004-21.png,0001-00-0004-52.png
00000014,537,0,1442604578295,1442604578315,518,389,0,0,0,5,1,4,51,0005-00-0008-19.png,0001-00-0005-18.png
00000014,538,1,1442604581181,1442604581637,376,409,0,0,0,2,5,3,25,0002-00-0006-35.png,0005-00-0003-17.png
00000014,539,1,1442604582762,1442604583260,314,428,0,0,0,1,4,3,14,0001-00-0006-13.png,0004-00-0008-33.png
00000014,540,0,1442604584502,1442604584942,376,450,0,0,0,4,3,1,43,0004-00-0008-31.png,0003-00-0009-36.png
00000014,541,1,1442604587928,1442604588414,930,349,0,0,0,5,2,3,52,0005-00-0006-47.png,0002-00-0002-12.png
00000014,542,1,1442604589440,1442604589879,341,437,0,0,0,1,2,1,12,0001-00-0003-24.png,0002-00-0008-44.png
00000014,543,1,1442604591002,1442604591901,325,384,0,0,0,2,5,3,25,0002-00-0004-94.png,0005-00-0004-93.png
00000014,544,0,1442604593098,1442604593624,402,431,0,0,0,3,2,1,32,0003-00-0004-28.png,0002-00-0009-22.png
00000014,545,1,1442604597033,1442604597491,353,399,0,0,0,1,4,3,14,0001-00-0002-88.png,0004-00-0001-02.png
00000014,546,1,1442604598536,1442604598988,401,410,0,0,0,4,5,1,45,0004-00-0002-78.png,0005-00-0007-53.png
00000014,547,1,1442604600117,1442604600549,388,424,0,0,0,1,5,4,15,0001-00-0009-92.png,0005-00-0004-80.png
00000014,548,0,1442604601636,1442604602176,875,411,0,0,0,2,4,2,24,0002-00-0003-72.png,0004-00-0002-55.png
00000014,549,1,1442604605221,1442604605685,338,442,0,0,0,3,5,2,35,0003-00-0004-96.png,0005-00-0008-15.png
00000014,550,1,1442604606667,1442604607190,861,398,0,0,0,5,1,4,51,0005-00-0008-16.png,0001-00-0001-32.png
00000014,551,1,1442604608184,1442604608725,868,511,0,0,0,2,1,1,21,0002-00-0005-65.png,0001-00-0000-02.png
00000014,552,0,1442604609796,1442604610768,363,397,0,0,0,3,1,2,31,0003-00-0001-68.png,0001-00-0009-14.png
00000014,553,1,1442604613905,1442604614364,900,424,0,0,0,5,3,2,53,0005-00-0002-42.png,0003-00-0005-69.png
00000014,554,0,1442604615431,1442604615934,357,405,0,0,0,4,3,1,43,0004-00-0005-96.png,0003-00-0004-50.png
00000014,555,1,1442604618969,1442604618981,521,446,0,0,0,1,3,2,13,0001-00-0004-77.png,0003-00-0006-36.png
00000014,556,1,1442604620002,1442604620526,356,428,0,0,0,3,4,1,34,0003-00-0000-34.png,0004-00-0005-35.png
00000014,557,1,1442604621642,1442604622189,890,463,0,0,0,4,2,2,42,0004-00-0002-15.png,0002-00-0009-44.png
00000014,558,1,1442604623669,1442604624182,865,508,0,0,0,4,1,3,41,0004-00-0002-31.png,0001-00-0001-90.png
00000014,559,1,1442604625219,1442604625758,905,401,0,0,0,5,4,1,54,0005-00-0007-75.png,0004-00-0007-20.png
00000014,560,1,1442604626859,1442604627357,344,414,0,0,0,2,3,1,23,0002-00-0005-22.png,0003-00-0000-49.png
00000014,561,1,1442604628512,1442604629044,879,428,0,0,0,4,1,3,41,0004-00-0002-76.png,0001-00-0009-52.png
00000014,562,0,1442604630140,1442604630708,360,423,0,0,0,5,4,1,54,0005-00-0008-40.png,0004-00-0008-43.png
00000014,563,0,1442604633720,1442604634171,374,423,0,0,0,3,1,2,31,0003-00-0005-31.png,0001-00-0000-69.png
00000014,564,0,1442604637226,1442604637681,414,529,0,0,0,4,2,2,42,0004-00-0006-77.png,0002-00-0006-41.png
00000014,565,1,1442604640646,1442604640674,496,447,0,0,0,1,4,3,14,0001-00-0006-36.png,0004-00-0006-99.png
00000014,566,0,1442604641729,1442604642223,376,410,0,0,0,2,1,1,21,0002-00-0001-05.png,0001-00-0008-09.png
00000014,567,1,1442604645396,1442604645828,910,522,0,0,0,5,1,4,51,0005-00-0009-69.png,0001-00-0006-62.png
00000014,568,1,1442604646839,1442604647385,401,440,0,0,0,2,5,3,25,0002-00-0001-73.png,0005-00-0005-64.png
00000014,569,0,1442604648373,1442604648979,873,508,0,0,0,3,5,2,35,0003-00-0001-86.png,0005-00-0003-29.png
00000014,570,1,1442604651917,1442604652346,408,394,0,0,0,2,3,1,23,0002-00-0006-65.png,0003-00-0001-09.png
00000014,571,1,1442604653328,1442604653944,358,420,0,0,0,1,3,2,13,0001-00-0009-05.png,0003-00-0009-29.png
00000014,572,1,1442604654938,1442604655795,394,420,0,0,0,3,4,1,34,0003-00-0009-86.png,0004-00-0001-70.png
00000014,573,1,1442604656878,1442604657322,333,429,0,0,0,4,5,1,45,0004-00-0007-08.png,0005-00-0006-98.png
00000014,574,0,1442604658381,1442604658887,398,456,0,0,0,5,2,3,52,0005-00-0005-48.png,0002-00-0002-47.png
00000014,575,0,1442604662523,1442604663085,356,420,0,0,0,3,2,1,32,0003-00-0005-10.png,0002-00-0002-60.png
00000014,576,1,1442604666158,1442604666567,343,435,0,0,0,2,4,2,24,0002-00-0000-24.png,0004-00-0001-83.png
00000014,577,1,1442604667532,1442604668063,405,411,0,0,0,1,5,4,15,0001-00-0002-70.png,0005-00-0000-97.png
00000014,578,0,1442604669070,1442604669628,230,510,0,0,0,4,3,1,43,0004-00-0008-58.png,0003-00-0008-13.png
00000014,579,1,1442604672496,1442604672941,350,410,0,0,0,1,2,1,12,0001-00-0000-42.png,0002-00-0002-33.png
00000014,580,0,1442604673929,1442604674419,401,410,0,0,0,5,3,2,53,0005-00-0001-62.png,0003-00-0002-32.png
00000014,581,1,1442604677429,1442604677904,955,429,0,0,0,5,4,1,54,0005-00-0001-89.png,0004-00-0003-53.png
00000014,582,0,1442604678909,1442604679417,877,391,0,0,0,1,4,3,14,0001-00-0007-01.png,0004-00-0003-04.png
00000014,583,1,1442604682468,1442604682943,906,500,0,0,0,3,1,2,31,0003-00-0002-55.png,0001-00-0002-46.png
00000014,584,1,1442604683919,1442604684933,911,452,0,0,0,5,1,4,51,0005-00-0005-91.png,0001-00-0005-81.png
00000014,585,0,1442604685906,1442604686741,417,490,0,0,0,4,2,2,42,0004-00-0000-91.png,0002-00-0009-40.png
00000014,586,0,1442604689601,1442604690108,389,429,0,0,0,5,2,3,52,0005-00-0007-03.png,0002-00-0009-76.png
00000014,587,1,1442604693241,1442604693718,901,410,0,0,0,2,1,1,21,0002-00-0005-29.png,0001-00-0001-06.png
00000014,588,1,1442604694800,1442604695354,882,413,0,0,0,3,2,1,32,0003-00-0005-44.png,0002-00-0002-28.png
00000014,589,0,1442604696545,1442604697082,873,561,0,0,0,3,5,2,35,0003-00-0008-90.png,0005-00-0008-83.png
00000014,590,0,1442604700481,1442604700989,392,544,0,0,0,5,3,2,53,0005-00-0000-78.png,0003-00-0003-92.png
00000014,591,1,1442604704122,1442604704613,332,341,0,0,0,1,2,1,12,0001-00-0008-47.png,0002-00-0000-64.png
00000014,592,0,1442604705693,1442604706288,926,410,0,0,0,3,4,1,34,0003-00-0007-82.png,0004-00-0004-57.png
00000014,593,1,1442604709165,1442604709177,504,422,0,0,0,2,4,2,24,0002-00-0008-54.png,0004-00-0008-33.png
00000014,594,0,1442604710455,1442604710978,869,404,0,0,0,4,5,1,45,0004-00-0003-50.png,0005-00-0007-59.png
00000014,595,1,1442604713871,1442604714369,956,401,0,0,0,4,3,1,43,0004-00-0007-58.png,0003-00-0001-88.png
00000014,596,0,1442604715325,1442604715834,881,419,0,0,0,2,3,1,23,0002-00-0006-32.png,0003-00-0007-96.png
00000014,597,1,1442604718801,1442604719211,376,384,0,0,0,1,5,4,15,0001-00-0004-94.png,0005-00-0008-01.png
00000014,598,0,1442604720210,1442604720686,345,447,0,0,0,4,1,3,41,0004-00-0000-14.png,0001-00-0006-33.png
00000014,599,0,1442604723551,1442604724070,906,517,0,0,0,1,3,2,13,0001-00-0009-13.png,0003-00-0007-60.png
00000014,600,1,1442604727469,1442604727967,287,435,0,0,0,2,5,3,25,0002-00-0006-62.png,0005-00-0006-28.png
00000014,601,1,1442604729035,1442604729567,875,390,0,0,0,5,3,2,53,0005-00-0001-56.png,0003-00-0003-92.png
00000014,602,0,1442604730801,1442604731384,906,389,0,0,0,3,4,1,34,0003-00-0000-28.png,0004-00-0003-76.png
00000014,603,0,1442604734305,1442604734329,513,392,0,0,0,4,2,2,42,0004-00-0007-32.png,0002-00-0005-12.png
00000014,604,1,1442604737207,1442604737784,908,429,0,0,0,4,1,3,41,0004-00-0001-60.png,0001-00-0000-08.png
00000014,605,1,1442604738759,1442604739255,867,485,0,0,0,5,2,3,52,0005-00-0005-61.png,0002-00-0001-17.png
00000014,606,1,1442604740311,1442604740865,355,538,0,0,0,2,4,2,24,0002-00-0002-53.png,0004-00-0005-89.png
00000014,607,0,1442604742100,1442604742661,313,449,0,0,0,5,4,1,54,0005-00-0008-00.png,0004-00-0008-86.png
00000014,608,0,1442604745656,1442604746132,313,442,0,0,0,4,3,1,43,0004-00-0003-16.png,0003-00-0008-13.png
00000014,609,1,1442604749132,1442604749577,927,409,0,0,0,3,1,2,31,0003-00-0004-54.png,0001-00-0003-41.png
00000014,610,1,1442604750548,1442604751091,886,424,0,0,0,3,2,1,32,0003-00-0005-77.png,0002-00-0003-08.png
00000014,611,1,1442604752177,1442604752658,875,410,0,0,0,5,1,4,51,0005-00-0007-02.png,0001-00-0003-20.png
00000014,612,0,1442604753677,1442604754273,876,435,0,0,0,1,2,1,12,0001-00-0009-13.png,0002-00-0003-71.png
00000014,613,1,1442604757125,1442604757687,878,480,0,0,0,2,1,1,21,0002-00-0004-59.png,0001-00-0004-35.png
00000014,614,0,1442604758548,1442604759107,875,416,0,0,0,1,4,3,14,0001-00-0002-87.png,0004-00-0003-63.png
00000014,615,1,1442604761946,1442604762411,401,399,0,0,0,2,3,1,23,0002-00-0002-37.png,0003-00-0008-41.png
00000014,616,1,1442604763528,1442604763989,388,410,0,0,0,1,5,4,15,0001-00-0007-58.png,0005-00-0007-86.png
00000014,617,1,1442604765091,1442604766078,294,406,0,0,0,4,5,1,45,0004-00-0002-22.png,0005-00-0004-60.png
00000014,618,1,1442604767167,1442604767657,339,440,0,0,0,3,5,2,35,0003-00-0004-52.png,0005-00-0004-56.png
00000014,619,0,1442604768797,1442604769349,865,456,0,0,0,1,3,2,13,0001-00-0009-58.png,0003-00-0001-64.png
00000014,620,1,1442604772395,1442604772891,394,416,0,0,0,2,5,3,25,0002-00-0004-11.png,0005-00-0008-71.png
00000014,621,0,1442604773756,1442604774655,401,396,0,0,0,2,1,1,21,0002-00-0002-80.png,0001-00-0000-26.png
00000014,622,1,1442604777494,1442604777981,417,546,0,0,0,1,3,2,13,0001-00-0009-17.png,0003-00-0004-10.png
00000014,623,1,1442604778973,1442604779501,888,425,0,0,0,5,1,4,51,0005-00-0003-21.png,0001-00-0008-94.png
00000014,624,1,1442604780563,1442604781107,362,398,0,0,0,4,5,1,45,0004-00-0009-23.png,0005-00-0000-74.png
00000014,625,0,1442604782194,1442604782724,319,421,0,0,0,3,1,2,31,0003-00-0008-80.png,0001-00-0007-51.png
00000014,626,1,1442604785702,1442604785738,487,515,0,0,0,1,5,4,15,0001-00-0001-06.png,0005-00-0009-38.png
00000014,627,1,1442604786926,1442604787389,401,410,0,0,0,2,5,3,25,0002-00-0005-67.png,0005-00-0003-13.png
00000014,628,1,1442604788535,1442604789062,883,420,0,0,0,3,2,1,32,0003-00-0002-38.png,0002-00-0008-27.png
00000014,629,1,1442604790270,1442604790804,862,516,0,0,0,4,2,2,42,0004-00-0001-96.png,0002-00-0005-60.png
00000014,630,0,1442604791994,1442604792560,902,416,0,0,0,1,4,3,14,0001-00-0008-54.png,0004-00-0005-81.png
00000014,631,1,1442604795800,1442604796228,900,437,0,0,0,5,4,1,54,0005-00-0006-98.png,0004-00-0008-57.png
00000014,632,1,1442604797271,1442604797817,888,436,0,0,0,5,2,3,52,0005-00-0003-37.png,0002-00-0004-72.png
00000014,633,1,1442604798842,1442604799390,878,402,0,0,0,4,3,1,43,0004-00-0004-70.png,0003-00-0000-95.png
00000014,634,0,1442604800480,1442604801017,390,444,0,0,0,4,1,3,41,0004-00-0000-70.png,0001-00-0007-91.png
00000014,635,0,1442604804025,1442604804560,375,413,0,0,0,5,3,2,53,0005-00-0007-29.png,0003-00-0003-69.png
00000014,636,0,1442604807596,1442604808146,959,429,0,0,0,3,4,1,34,0003-00-0004-78.png,0004-00-0008-35.png
00000014,637,1,1442604811083,1442604811538,418,509,0,0,0,2,4,2,24,0002-00-0009-21.png,0004-00-0006-08.png
00000014,638,1,1442604812489,1442604812505,504,447,0,0,0,3,5,2,35,0003-00-0004-35.png,0005-00-0004-21.png
00000014,639,1,1442604813710,1442604814479,312,424,0,0,0,2,3,1,23,0002-00-0005-12.png,0003-00-0002-08.png
00000014,640,1,1442604815608,1442604816067,353,406,0,0,0,1,2,1,12,0001-00-0001-25.png,0002-00-0001-44.png
00000014,641,1,1442604817133,1442604817642,355,463,0,0,0,2,5,3,25,0002-00-0000-81.png,0005-00-0009-75.png
00000014,642,1,1442604818859,1442604819382,409,426,0,0,0,1,2,1,12,0001-00-0005-69.png,0002-00-0004-62.png
00000014,643,0,1442604820478,1442604821044,312,423,0,0,0,4,1,3,41,0004-00-0007-92.png,0001-00-0007-92.png
00000014,644,0,1442604824045,1442604824518,936,428,0,0,0,1,4,3,14,0001-00-0005-56.png,0004-00-0009-90.png
00000014,645,1,1442604827703,1442604828099,401,384,0,0,0,3,4,1,34,0003-00-0001-72.png,0004-00-0008-43.png
00000014,646,1,1442604829094,1442604829564,342,443,0,0,0,3,5,2,35,0003-00-0003-67.png,0005-00-0006-26.png
00000014,647,1,1442604830622,1442604831158,867,510,0,0,0,5,1,4,51,0005-00-0004-37.png,0001-00-0002-15.png
00000014,648,1,1442604832372,1442604832897,900,410,0,0,0,3,1,2,31,0003-00-0008-15.png,0001-00-0000-82.png
00000014,649,0,1442604834035,1442604834865,321,428,0,0,0,5,2,3,52,0005-00-0009-37.png,0002-00-0006-33.png
00000014,650,1,1442604837857,1442604838339,925,410,0,0,0,2,1,1,21,0002-00-0003-63.png,0001-00-0004-26.png
00000014,651,0,1442604839311,1442604839807,319,421,0,0,0,3,2,1,32,0003-00-0002-49.png,0002-00-0009-03.png
00000014,652,1,1442604842656,1442604843156,875,422,0,0,0,4,3,1,43,0004-00-0000-08.png,0003-00-0009-96.png
00000014,653,1,1442604844211,1442604844705,376,410,0,0,0,2,3,1,23,0002-00-0007-93.png,0003-00-0003-35.png
00000014,654,1,1442604845790,1442604846343,875,449,0,0,0,4,2,2,42,0004-00-0002-25.png,0002-00-0007-01.png
00000014,655,0,1442604847531,1442604848042,376,411,0,0,0,5,4,1,54,0005-00-0000-43.png,0004-00-0000-40.png
00000014,656,1,1442604851126,1442604851142,496,480,0,0,0,4,5,1,45,0004-00-0005-72.png,0005-00-0003-42.png
00000014,657,0,1442604852143,1442604852683,900,437,0,0,0,2,4,2,24,0002-00-0004-05.png,0004-00-0008-80.png
00000014,658,0,1442604855797,1442604856253,867,437,0,0,0,1,3,2,13,0001-00-0003-70.png,0003-00-0009-00.png
00000014,659,0,1442604859722,1442604860217,893,417,0,0,0,1,5,4,15,0001-00-0002-10.png,0005-00-0006-73.png
00000014,660,0,1442604863214,1442604863635,401,358,0,0,0,5,3,2,53,0005-00-0004-27.png,0003-00-0003-31.png
00000014,661,0,1442604866693,1442604866709,492,445,0,0,0,4,1,3,41,0004-00-0006-93.png,0001-00-0007-38.png
00000014,662,0,1442604869833,1442604870304,900,397,0,0,0,1,5,4,15,0001-00-0003-85.png,0005-00-0008-86.png
00000014,663,0,1442604873193,1442604873724,222,472,0,0,0,3,2,1,32,0003-00-0008-39.png,0002-00-0008-58.png
00000014,664,0,1442604876582,1442604877652,902,376,0,0,0,1,3,2,13,0001-00-0006-21.png,0003-00-0007-59.png
00000014,665,0,1442604880959,1442604881798,342,411,0,0,0,4,3,1,43,0004-00-0005-49.png,0003-00-0006-87.png
00000014,666,0,1442604884777,1442604885224,297,423,0,0,0,4,2,2,42,0004-00-0003-76.png,0002-00-0009-64.png
00000014,667,1,1442604888505,1442604888517,521,403,0,0,0,3,5,2,35,0003-00-0003-84.png,0005-00-0003-40.png
00000014,668,0,1442604889631,1442604890035,376,410,0,0,0,5,2,3,52,0005-00-0003-36.png,0002-00-0005-93.png
00000014,669,1,1442604893218,1442604893246,504,419,0,0,0,4,5,1,45,0004-00-0003-63.png,0005-00-0009-26.png
00000014,670,1,1442604894481,1442604895074,402,429,0,0,0,3,4,1,34,0003-00-0001-42.png,0004-00-0003-73.png
00000014,671,1,1442604896380,1442604896792,413,436,0,0,0,2,5,3,25,0002-00-0002-16.png,0005-00-0008-38.png
00000014,672,1,1442604898018,1442604898543,875,436,0,0,0,3,1,2,31,0003-00-0006-15.png,0001-00-0009-06.png
00000014,673,0,1442604899848,1442604900324,376,423,0,0,0,5,1,4,51,0005-00-0003-48.png,0001-00-0005-58.png
00000014,674,0,1442604903314,1442604903736,896,472,0,0,0,2,3,1,23,0002-00-0008-11.png,0003-00-0005-69.png
00000014,675,1,1442604906745,1442604907242,876,502,0,0,0,5,3,2,53,0005-00-0005-09.png,0003-00-0009-06.png
00000014,676,1,1442604908296,1442604909207,331,387,0,0,0,1,2,1,12,0001-00-0003-57.png,0002-00-0004-80.png
00000014,677,0,1442604910475,1442604910948,875,417,0,0,0,2,4,2,24,0002-00-0008-65.png,0004-00-0008-11.png
00000014,678,0,1442604913861,1442604913901,521,443,0,0,0,2,1,1,21,0002-00-0005-31.png,0001-00-0002-49.png
00000014,679,1,1442604916884,1442604917395,901,430,0,0,0,5,4,1,54,0005-00-0003-01.png,0004-00-0005-71.png
00000014,680,1,1442604918584,1442604919049,427,410,0,0,0,1,4,3,14,0001-00-0007-93.png,0004-00-0001-90.png
00000014,681,0,1442604920234,1442604920744,875,423,0,0,0,3,4,1,34,0003-00-0007-35.png,0004-00-0007-64.png
00000014,682,0,1442604923660,1442604923684,482,411,0,0,0,5,4,1,54,0005-00-0001-44.png,0004-00-0002-58.png
00000014,683,1,1442604926784,1442604927258,376,358,0,0,0,3,5,2,35,0003-00-0005-19.png,0005-00-0005-57.png
00000014,684,1,1442604928319,1442604929651,901,450,0,0,0,5,3,2,53,0005-00-0000-06.png,0003-00-0009-47.png
00000014,685,1,1442604931139,1442604931623,888,397,0,0,0,2,1,1,21,0002-00-0006-30.png,0001-00-0008-75.png
00000014,686,0,1442604932644,1442604933203,888,435,0,0,0,2,3,1,23,0002-00-0008-80.png,0003-00-0008-65.png
00000014,687,1,1442604936042,1442604936592,875,512,0,0,0,5,2,3,52,0005-00-0005-73.png,0002-00-0003-69.png
00000014,688,1,1442604937516,1442604937996,427,436,0,0,0,1,4,3,14,0001-00-0005-30.png,0004-00-0001-40.png
00000014,689,1,1442604939108,1442604939623,350,410,0,0,0,4,5,1,45,0004-00-0004-73.png,0005-00-0006-07.png
00000014,690,1,1442604940677,1442604941228,875,397,0,0,0,3,1,2,31,0003-00-0000-97.png,0001-00-0006-29.png
00000014,691,1,1442604942479,1442604942993,875,423,0,0,0,4,1,3,41,0004-00-0003-72.png,0001-00-0008-08.png
00000014,692,1,1442604944376,1442604944811,392,402,0,0,0,1,5,4,15,0001-00-0005-09.png,0005-00-0006-69.png
00000014,693,1,1442604946187,1442604946662,359,452,0,0,0,2,4,2,24,0002-00-0002-10.png,0004-00-0003-48.png
00000014,694,0,1442604947904,1442604948817,320,433,0,0,0,4,3,1,43,0004-00-0003-84.png,0003-00-0005-86.png
00000014,695,0,1442604951740,1442604951760,515,396,0,0,0,3,2,1,32,0003-00-0000-72.png,0002-00-0009-22.png
00000014,696,1,1442604954662,1442604955108,418,520,0,0,0,2,5,3,25,0002-00-0009-80.png,0005-00-0004-25.png
00000014,697,1,1442604956094,1442604956623,405,546,0,0,0,1,2,1,12,0001-00-0006-85.png,0002-00-0004-93.png
00000014,698,1,1442604957696,1442604958319,934,421,0,0,0,4,2,2,42,0004-00-0002-76.png,0002-00-0006-77.png
00000014,699,0,1442604959346,1442604960332,424,391,0,0,0,5,1,4,51,0005-00-0006-85.png,0001-00-0008-61.png
00000014,700,1,1442604963440,1442604963932,356,410,0,0,0,1,3,2,13,0001-00-0005-37.png,0003-00-0002-53.png
00000014,701,1,1442604964959,1442604965454,407,525,0,0,0,2,5,3,25,0002-00-0008-62.png,0005-00-0008-84.png
00000014,702,1,1442604966571,1442604967095,904,402,0,0,0,5,3,2,53,0005-00-0004-90.png,0003-00-0002-71.png
00000014,703,1,1442604968110,1442604968624,411,547,0,0,0,1,3,2,13,0001-00-0009-40.png,0003-00-0007-77.png
00000014,704,1,1442604969651,1442604970220,865,425,0,0,0,2,1,1,21,0002-00-0004-32.png,0001-00-0004-12.png
00000014,705,1,1442604971291,1442604971339,504,488,0,0,0,3,4,1,34,0003-00-0008-20.png,0004-00-0009-76.png
00000014,706,1,1442604972614,1442604973129,900,423,0,0,0,5,1,4,51,0005-00-0006-12.png,0001-00-0008-44.png
00000014,707,1,1442604974394,1442604974921,875,437,0,0,0,4,1,3,41,0004-00-0009-38.png,0001-00-0006-31.png
00000014,708,1,1442604976096,1442604976598,884,412,0,0,0,3,2,1,32,0003-00-0008-74.png,0002-00-0002-55.png
00000014,709,1,1442604977825,1442604978345,865,428,0,0,0,3,1,2,31,0003-00-0006-59.png,0001-00-0001-36.png
00000014,710,0,1442604979493,1442604979985,414,530,0,0,0,5,4,1,54,0005-00-0008-70.png,0004-00-0004-05.png
00000014,711,1,1442604982969,1442604983431,339,392,0,0,0,1,5,4,15,0001-00-0000-19.png,0005-00-0005-63.png
00000014,712,1,1442604984523,1442604985124,874,501,0,0,0,5,2,3,52,0005-00-0008-34.png,0002-00-0000-77.png
00000014,713,1,1442604986182,1442604986720,344,447,0,0,0,1,4,3,14,0001-00-0001-56.png,0004-00-0000-27.png
00000014,714,0,1442604987790,1442604988799,360,406,0,0,0,4,2,2,42,0004-00-0003-47.png,0002-00-0008-60.png
00000014,715,1,1442604991836,1442604992406,325,358,0,0,0,2,3,1,23,0002-00-0008-44.png,0003-00-0008-78.png
00000014,716,0,1442604993543,1442604994144,874,464,0,0,0,1,2,1,12,0001-00-0005-92.png,0002-00-0005-63.png
00000014,717,1,1442604997102,1442604997570,366,432,0,0,0,2,4,2,24,0002-00-0006-62.png,0004-00-0002-55.png
00000014,718,0,1442604998567,1442604999109,873,490,0,0,0,3,5,2,35,0003-00-0005-88.png,0005-00-0006-51.png
00000014,719,1,1442605002169,1442605002719,927,391,0,0,0,4,3,1,43,0004-00-0002-74.png,0003-00-0003-12.png
00000014,720,1,1442605003696,1442605004545,349,434,0,0,0,4,5,1,45,0004-00-0008-07.png,0005-00-0004-06.png
00000014,721,1,1442605005634,1442605006093,376,410,0,0,0,3,4,1,34,0003-00-0002-13.png,0004-00-0005-27.png
00000014,722,0,1442605007271,1442605007848,401,410,0,0,0,4,2,2,42,0004-00-0000-05.png,0002-00-0005-32.png
00000014,723,1,1442605010940,1442605011391,401,410,0,0,0,1,3,2,13,0001-00-0004-11.png,0003-00-0006-31.png
00000014,724,1,1442605012337,1442605012856,874,436,0,0,0,3,1,2,31,0003-00-0007-54.png,0001-00-0002-22.png
00000014,725,1,1442605013962,1442605014469,390,522,0,0,0,1,2,1,12,0001-00-0008-27.png,0002-00-0001-98.png
00000014,726,1,1442605015601,1442605016415,380,427,0,0,0,2,5,3,25,0002-00-0003-30.png,0005-00-0006-35.png
00000014,727,0,1442605017598,1442605018114,363,462,0,0,0,3,2,1,32,0003-00-0001-59.png,0002-00-0002-77.png
00000014,728,1,1442605021127,1442605021705,890,432,0,0,0,4,3,1,43,0004-00-0006-01.png,0003-00-0006-16.png
00000014,729,1,1442605022718,1442605023259,860,516,0,0,0,2,1,1,21,0002-00-0009-46.png,0001-00-0000-02.png
00000014,730,0,1442605024298,1442605024804,401,436,0,0,0,5,4,1,54,0005-00-0006-80.png,0004-00-0007-81.png
00000014,731,1,1442605027718,1442605028124,344,400,0,0,0,1,5,4,15,0001-00-0002-17.png,0005-00-0001-87.png
00000014,732,1,1442605029087,1442605029107,515,444,0,0,0,2,4,2,24,0002-00-0006-71.png,0004-00-0009-14.png
00000014,733,0,1442605030319,1442605030816,401,427,0,0,0,4,1,3,41,0004-00-0004-63.png,0001-00-0008-19.png
00000014,734,1,1442605033993,1442605034435,901,435,0,0,0,5,3,2,53,0005-00-0001-97.png,0003-00-0001-88.png
00000014,735,1,1442605035491,1442605036011,878,390,0,0,0,5,2,3,52,0005-00-0004-94.png,0002-00-0005-09.png
00000014,736,1,1442605037042,1442605037657,366,437,0,0,0,3,5,2,35,0003-00-0006-78.png,0005-00-0007-37.png
00000014,737,1,1442605038652,1442605039621,367,426,0,0,0,1,4,3,14,0001-00-0001-00.png,0004-00-0009-92.png
00000014,738,1,1442605040635,1442605040716,478,488,0,0,0,4,5,1,45,0004-00-0005-09.png,0005-00-0009-55.png
00000014,739,0,1442605042160,1442605042707,908,390,0,0,0,2,3,1,23,0002-00-0001-21.png,0003-00-0002-40.png
00000014,740,1,1442605045657,1442605046114,870,340,0,0,0,5,1,4,51,0005-00-0002-37.png,0001-00-0006-89.png
00000014,741,0,1442605047160,1442605048090,442,407,0,0,0,3,2,1,32,0003-00-0006-57.png,0002-00-0004-25.png
00000014,742,1,1442605051203,1442605051640,861,514,0,0,0,3,1,2,31,0003-00-0003-59.png,0001-00-0003-55.png
00000014,743,0,1442605052687,1442605053217,318,447,0,0,0,4,3,1,43,0004-00-0000-34.png,0003-00-0005-64.png
00000014,744,1,1442605056321,1442605056766,933,429,0,0,0,5,3,2,53,0005-00-0002-63.png,0003-00-0008-65.png
00000014,745,1,1442605057826,1442605058320,383,409,0,0,0,1,3,2,13,0001-00-0002-61.png,0003-00-0005-72.png
00000014,746,1,1442605059346,1442605059898,402,435,0,0,0,2,5,3,25,0002-00-0009-27.png,0005-00-0003-03.png
00000014,747,1,1442605060865,1442605061403,376,424,0,0,0,3,5,2,35,0003-00-0007-04.png,0005-00-0009-82.png
00000014,748,1,1442605062537,1442605062557,504,462,0,0,0,1,2,1,12,0001-00-0003-91.png,0002-00-0009-96.png
00000014,749,0,1442605063876,1442605064833,391,438,0,0,0,5,2,3,52,0005-00-0009-14.png,0002-00-0009-29.png
00000014,750,1,1442605067902,1442605068381,938,398,0,0,0,2,1,1,21,0002-00-0001-47.png,0001-00-0006-77.png
00000014,751,0,1442605069345,1442605069946,874,490,0,0,0,3,4,1,34,0003-00-0008-18.png,0004-00-0009-67.png
00000014,752,0,1442605072922,1442605073618,419,521,0,0,0,5,4,1,54,0005-00-0008-73.png,0004-00-0009-64.png
00000014,753,1,1442605076539,1442605077055,899,501,0,0,0,5,1,4,51,0005-00-0003-21.png,0001-00-0006-84.png
00000014,754,1,1442605077971,1442605078883,344,435,0,0,0,4,5,1,45,0004-00-0003-64.png,0005-00-0000-51.png
00000014,755,1,1442605079898,1442605080787,350,397,0,0,0,1,4,3,14,0001-00-0005-77.png,0004-00-0005-82.png
00000014,756,1,1442605081876,1442605082675,358,420,0,0,0,2,4,2,24,0002-00-0003-69.png,0004-00-0004-04.png
00000014,757,0,1442605083752,1442605084302,299,449,0,0,0,4,2,2,42,0004-00-0003-06.png,0002-00-0000-80.png
00000014,758,1,1442605087532,1442605087957,429,537,0,0,0,2,3,1,23,0002-00-0007-93.png,0003-00-0003-48.png
00000014,759,0,1442605088968,1442605089511,383,445,0,0,0,4,1,3,41,0004-00-0004-06.png,0001-00-0006-79.png
00000014,760,1,1442605092904,1442605093371,376,384,0,0,0,1,5,4,15,0001-00-0001-24.png,0005-00-0004-58.png
00000014,761,1,1442605094399,1442605094935,875,397,0,0,0,3,2,1,32,0003-00-0002-34.png,0002-00-0007-80.png
00000014,762,1,1442605096039,1442605096546,401,410,0,0,0,1,2,1,12,0001-00-0008-99.png,0002-00-0003-43.png
00000014,763,1,1442605097541,1442605098045,880,417,0,0,0,5,1,4,51,0005-00-0000-75.png,0001-00-0007-93.png
00000014,764,1,1442605099149,1442605099691,344,396,0,0,0,2,4,2,24,0002-00-0009-97.png,0004-00-0006-00.png
00000014,765,1,1442605100701,1442605101225,417,548,0,0,0,1,5,4,15,0001-00-0007-54.png,0005-00-0003-48.png
00000014,766,1,1442605102316,1442605102781,383,420,0,0,0,4,5,1,45,0004-00-0005-36.png,0005-00-0001-86.png
00000014,767,1,1442605103951,1442605104424,327,426,0,0,0,1,4,3,14,0001-00-0005-86.png,0004-00-0009-08.png
00000014,768,0,1442605105561,1442605106144,401,422,0,0,0,5,4,1,54,0005-00-0002-06.png,0004-00-0008-84.png
00000014,769,1,1442605109106,1442605109586,403,511,0,0,0,2,3,1,23,0002-00-0007-31.png,0003-00-0001-27.png
00000014,770,1,1442605110539,1442605111064,350,410,0,0,0,1,3,2,13,0001-00-0007-12.png,0003-00-0006-94.png
00000014,771,0,1442605112200,1442605112735,878,428,0,0,0,2,5,3,25,0002-00-0009-83.png,0005-00-0009-43.png
00000014,772,1,1442605115627,1442605116114,929,427,0,0,0,5,2,3,52,0005-00-0006-04.png,0002-00-0005-24.png
00000014,773,0,1442605116967,1442605117495,414,475,0,0,0,4,1,3,41,0004-00-0009-30.png,0001-00-0005-87.png
00000014,774,1,1442605120539,1442605120948,376,384,0,0,0,3,5,2,35,0003-00-0001-30.png,0005-00-0009-71.png
00000014,775,0,1442605121900,1442605122400,368,518,0,0,0,2,1,1,21,0002-00-0001-38.png,0001-00-0007-51.png
00000014,776,1,1442605125388,1442605125845,930,453,0,0,0,3,1,2,31,0003-00-0004-01.png,0001-00-0000-46.png
00000014,777,0,1442605127275,1442605128064,350,410,0,0,0,4,3,1,43,0004-00-0004-71.png,0003-00-0006-09.png
00000014,778,0,1442605131461,1442605131910,874,515,0,0,0,3,4,1,34,0003-00-0002-54.png,0004-00-0007-01.png
00000014,779,0,1442605134909,1442605135292,401,436,0,0,0,4,2,2,42,0004-00-0003-41.png,0002-00-0004-20.png
00000014,780,0,1442605138173,1442605138202,500,394,0,0,0,5,3,2,53,0005-00-0009-12.png,0003-00-0005-08.png
00000014,781,0,1442605141308,1442605141827,341,405,0,0,0,3,2,1,32,0003-00-0002-99.png,0002-00-0008-71.png
00000014,782,1,1442605144805,1442605145205,350,436,0,0,0,3,5,2,35,0003-00-0005-77.png,0005-00-0005-43.png
00000014,783,1,1442605146199,1442605146658,286,436,0,0,0,1,2,1,12,0001-00-0006-87.png,0002-00-0001-88.png
00000014,784,0,1442605147889,1442605147933,504,436,0,0,0,2,1,1,21,0002-00-0008-63.png,0001-00-0004-82.png
00000014,785,0,1442605150952,1442605151442,875,397,0,0,0,2,4,2,24,0002-00-0005-44.png,0004-00-0006-85.png
00000014,786,0,1442605154317,1442605154329,451,365,0,0,0,5,1,4,51,0005-00-0001-83.png,0001-00-0008-14.png
00000014,787,1,1442605157428,1442605157841,350,424,0,0,0,1,5,4,15,0001-00-0002-19.png,0005-00-0003-25.png
00000014,788,1,1442605158851,1442605159310,376,384,0,0,0,4,5,1,45,0004-00-0003-60.png,0005-00-0001-24.png
00000014,789,0,1442605160371,1442605160867,878,402,0,0,0,2,3,1,23,0002-00-0009-28.png,0003-00-0009-12.png
00000014,790,1,1442605163820,1442605164560,350,404,0,0,0,3,4,1,34,0003-00-0001-20.png,0004-00-0007-43.png
00000014,791,1,1442605165568,1442605166156,875,423,0,0,0,5,2,3,52,0005-00-0003-35.png,0002-00-0000-02.png
00000014,792,0,1442605167508,1442605167982,401,358,0,0,0,4,2,2,42,0004-00-0000-38.png,0002-00-0008-27.png
00000014,793,1,1442605170925,1442605171396,903,427,0,0,0,4,1,3,41,0004-00-0004-47.png,0001-00-0004-49.png
00000014,794,1,1442605172316,1442605172352,504,462,0,0,0,1,3,2,13,0001-00-0004-94.png,0003-00-0009-15.png
00000014,795,0,1442605173659,1442605174140,338,438,0,0,0,3,1,2,31,0003-00-0000-98.png,0001-00-0003-50.png
00000014,796,1,1442605177043,1442605177556,900,437,0,0,0,4,3,1,43,0004-00-0008-02.png,0003-00-0002-39.png
00000014,797,0,1442605178721,1442605179272,880,387,0,0,0,2,5,3,25,0002-00-0008-21.png,0005-00-0008-93.png
00000014,798,1,1442605182363,1442605182801,361,416,0,0,0,1,4,3,14,0001-00-0005-05.png,0004-00-0003-04.png
00000014,799,1,1442605183778,1442605184322,867,483,0,0,0,5,3,2,53,0005-00-0009-56.png,0003-00-0008-91.png
00000014,800,1,1442605185445,1442605185961,877,413,0,0,0,5,4,1,54,0005-00-0009-07.png,0004-00-0000-78.png
00000014,801,0,1442605187236,1442605187785,340,410,0,0,0,5,2,3,52,0005-00-0002-14.png,0002-00-0001-09.png
00000014,802,1,1442605190680,1442605191068,461,493,0,0,0,3,4,1,34,0003-00-0001-55.png,0004-00-0006-98.png
00000014,803,0,1442605192167,1442605192671,878,402,0,0,0,2,4,2,24,0002-00-0009-76.png,0004-00-0005-19.png
00000014,804,0,1442605195790,1442605196175,414,502,0,0,0,4,2,2,42,0004-00-0002-73.png,0002-00-0009-83.png
00000014,805,0,1442605199033,1442605199475,376,358,0,0,0,2,1,1,21,0002-00-0005-70.png,0001-00-0004-93.png
00000014,806,0,1442605202751,1442605203200,918,433,0,0,0,1,4,3,14,0001-00-0007-50.png,0004-00-0007-68.png
00000014,807,1,1442605206197,1442605206673,924,409,0,0,0,4,1,3,41,0004-00-0001-24.png,0001-00-0009-79.png
00000014,808,0,1442605207764,1442605208475,387,555,0,0,0,5,1,4,51,0005-00-0007-23.png,0001-00-0007-68.png
00000014,809,0,1442605211443,1442605211924,391,503,0,0,0,3,2,1,32,0003-00-0006-86.png,0002-00-0000-96.png
00000014,810,0,1442605214872,1442605214892,478,447,0,0,0,5,4,1,54,0005-00-0001-47.png,0004-00-0003-73.png
00000014,811,1,1442605217953,1442605218391,296,412,0,0,0,1,5,4,15,0001-00-0000-81.png,0005-00-0003-41.png
00000014,812,1,1442605219437,1442605219929,888,397,0,0,0,3,1,2,31,0003-00-0006-54.png,0001-00-0007-10.png
00000014,813,1,1442605221037,1442605221451,389,423,0,0,0,3,5,2,35,0003-00-0000-92.png,0005-00-0005-48.png
00000014,814,0,1442605222588,1442605223091,339,456,0,0,0,5,3,2,53,0005-00-0004-71.png,0003-00-0005-59.png
00000014,815,1,1442605226234,1442605226646,237,462,0,0,0,2,5,3,25,0002-00-0007-48.png,0005-00-0008-55.png
00000014,816,1,1442605227607,1442605228078,401,384,0,0,0,4,5,1,45,0004-00-0004-77.png,0005-00-0005-33.png
00000014,817,1,1442605229039,1442605229591,376,384,0,0,0,2,3,1,23,0002-00-0001-97.png,0003-00-0004-40.png
00000014,818,1,1442605230589,1442605231049,401,462,0,0,0,1,2,1,12,0001-00-0007-09.png,0002-00-0007-08.png
00000014,819,1,1442605232107,1442605232530,319,421,0,0,0,1,3,2,13,0001-00-0008-94.png,0003-00-0004-40.png
00000014,820,1,1442605233599,1442605234139,888,419,0,0,0,4,3,1,43,0004-00-0007-56.png,0003-00-0003-04.png
00000014,821,1,1442605235327,1442605236331,911,425,0,0,0,4,2,2,42,0004-00-0001-84.png,0002-00-0004-99.png
00000014,822,1,1442605237272,1442605238110,322,410,0,0,0,4,5,1,45,0004-00-0007-94.png,0005-00-0000-54.png
00000014,823,0,1442605239262,1442605239752,446,441,0,0,0,3,1,2,31,0003-00-0003-90.png,0001-00-0006-51.png
00000014,824,1,1442605242918,1442605243404,877,390,0,0,0,5,4,1,54,0005-00-0009-13.png,0004-00-0008-37.png
00000014,825,1,1442605244400,1442605244839,418,427,0,0,0,1,5,4,15,0001-00-0005-66.png,0005-00-0001-88.png
00000014,826,1,1442605245849,1442605246591,376,386,0,0,0,2,5,3,25,0002-00-0009-80.png,0005-00-0003-51.png
00000014,827,1,1442605247609,1442605248655,378,417,0,0,0,1,3,2,13,0001-00-0007-51.png,0003-00-0006-73.png
00000014,828,1,1442605249707,1442605250236,868,452,0,0,0,3,2,1,32,0003-00-0004-38.png,0002-00-0007-40.png
00000014,829,1,1442605251197,1442605251766,345,451,0,0,0,1,4,3,14,0001-00-0000-21.png,0004-00-0000-34.png
00000014,830,0,1442605252838,1442605253349,338,451,0,0,0,5,3,2,53,0005-00-0009-95.png,0003-00-0005-46.png
00000014,831,1,1442605258075,1442605258562,904,440,0,0,0,4,1,3,41,0004-00-0002-80.png,0001-00-0002-21.png
00000014,832,0,1442605259505,1442605260012,376,441,0,0,0,2,1,1,21,0002-00-0002-72.png,0001-00-0001-03.png
00000014,833,0,1442605262932,1442605263418,951,438,0,0,0,3,4,1,34,0003-00-0009-54.png,0004-00-0000-63.png
00000014,834,1,1442605266419,1442605266894,365,466,0,0,0,1,2,1,12,0001-00-0001-07.png,0002-00-0009-26.png
00000014,835,1,1442605267931,1442605268623,440,501,0,0,0,3,5,2,35,0003-00-0007-61.png,0005-00-0004-14.png
00000014,836,1,1442605269650,1442605270659,900,415,0,0,0,5,2,3,52,0005-00-0004-86.png,0002-00-0007-84.png
00000014,837,1,1442605271639,1442605272107,337,462,0,0,0,2,4,2,24,0002-00-0001-73.png,0004-00-0002-85.png
00000014,838,0,1442605273099,1442605274058,325,397,0,0,0,4,3,1,43,0004-00-0008-36.png,0003-00-0002-36.png
00000014,839,0,1442605277189,1442605277619,367,427,0,0,0,5,1,4,51,0005-00-0003-94.png,0001-00-0009-60.png
00000014,840,1,1442605283174,1442605283600,359,442,0,0,0,2,3,1,23,0002-00-0000-80.png,0003-00-0006-80.png
00000014,841,1,1442605284578,1442605285156,363,450,0,0,0,3,5,2,35,0003-00-0003-69.png,0005-00-0008-46.png
00000014,842,1,1442605286238,1442605286742,413,476,0,0,0,2,5,3,25,0002-00-0007-27.png,0005-00-0004-35.png
00000014,843,1,1442605287580,1442605288136,401,565,0,0,0,2,3,1,23,0002-00-0006-06.png,0003-00-0005-86.png
00000014,844,1,1442605289179,1442605290190,401,462,0,0,0,3,4,1,34,0003-00-0004-07.png,0004-00-0007-64.png
00000014,845,1,1442605291096,1442605291595,368,453,0,0,0,1,5,4,15,0001-00-0005-63.png,0005-00-0004-28.png
00000014,846,1,1442605292538,1442605293077,364,446,0,0,0,1,3,2,13,0001-00-0007-17.png,0003-00-0002-89.png
00000014,847,1,1442605294066,1442605294637,893,427,0,0,0,5,1,4,51,0005-00-0000-16.png,0001-00-0002-66.png
00000014,848,1,1442605295579,1442605296103,876,434,0,0,0,4,1,3,41,0004-00-0008-11.png,0001-00-0008-22.png
00000014,849,1,1442605297119,1442605297642,342,458,0,0,0,1,2,1,12,0001-00-0004-47.png,0002-00-0001-08.png
00000014,850,1,1442605298619,1442605299149,401,436,0,0,0,1,4,3,14,0001-00-0004-43.png,0004-00-0006-80.png
00000014,851,1,1442605300109,1442605300656,340,469,0,0,0,4,5,1,45,0004-00-0003-47.png,0005-00-0007-46.png
00000014,852,0,1442605301588,1442605301608,503,428,0,0,0,5,3,2,53,0005-00-0004-86.png,0003-00-0001-86.png
00000014,853,1,1442605307907,1442605308406,893,428,0,0,0,3,1,2,31,0003-00-0000-50.png,0001-00-0001-99.png
00000014,854,0,1442605309557,1442605310051,376,453,0,0,0,4,2,2,42,0004-00-0000-52.png,0002-00-0003-02.png
00000014,855,1,1442605313058,1442605313533,888,432,0,0,0,4,3,1,43,0004-00-0005-79.png,0003-00-0005-57.png
00000014,856,0,1442605314662,1442605315049,350,435,0,0,0,3,2,1,32,0003-00-0002-88.png,0002-00-0001-42.png
00000014,857,1,1442605318522,1442605318954,875,444,0,0,0,5,4,1,54,0005-00-0008-69.png,0004-00-0007-09.png
00000014,858,1,1442605320098,1442605320532,875,411,0,0,0,5,2,3,52,0005-00-0006-19.png,0002-00-0003-43.png
00000014,859,1,1442605321589,1442605322365,408,408,0,0,0,2,4,2,24,0002-00-0009-33.png,0004-00-0002-40.png
00000014,860,0,1442605323278,1442605323786,312,449,0,0,0,2,1,1,21,0002-00-0008-64.png,0001-00-0000-34.png
00000014,861,1,1442605329707,1442605330261,930,428,0,0,0,5,4,1,54,0005-00-0004-89.png,0004-00-0002-21.png
00000014,862,1,1442605331340,1442605331828,311,436,0,0,0,3,5,2,35,0003-00-0000-92.png,0005-00-0007-71.png
00000014,863,1,1442605332845,1442605333353,900,462,0,0,0,4,1,3,41,0004-00-0009-81.png,0001-00-0005-75.png
00000014,864,0,1442605334250,1442605334754,338,491,0,0,0,5,2,3,52,0005-00-0006-17.png,0002-00-0008-31.png
00000014,865,1,1442605338728,1442605339166,232,514,0,0,0,1,5,4,15,0001-00-0009-46.png,0005-00-0008-69.png
00000014,866,1,1442605340294,1442605340754,288,453,0,0,0,1,3,2,13,0001-00-0004-25.png,0003-00-0004-44.png
00000014,867,1,1442605342143,1442605342991,369,461,0,0,0,2,4,2,24,0002-00-0009-65.png,0004-00-0009-51.png
00000014,868,0,1442605343957,1442605344982,403,455,0,0,0,5,1,4,51,0005-00-0006-33.png,0001-00-0001-54.png
00000014,869,1,1442605348930,1442605349431,881,496,0,0,0,5,3,2,53,0005-00-0007-63.png,0003-00-0002-04.png
00000014,870,1,1442605350580,1442605351073,339,415,0,0,0,4,5,1,45,0004-00-0004-75.png,0005-00-0001-80.png
00000014,871,1,1442605352716,1442605353223,878,429,0,0,0,2,1,1,21,0002-00-0002-26.png,0001-00-0007-14.png
00000014,872,0,1442605354517,1442605355363,376,449,0,0,0,3,1,2,31,0003-00-0008-49.png,0001-00-0002-41.png
00000014,873,0,1442605358444,1442605358934,387,497,0,0,0,3,2,1,32,0003-00-0003-46.png,0002-00-0000-54.png
00000014,874,0,1442605363060,1442605363629,959,447,0,0,0,2,5,3,25,0002-00-0000-71.png,0005-00-0004-99.png
00000014,875,1,1442605366530,1442605367039,364,441,0,0,0,2,3,1,23,0002-00-0002-66.png,0003-00-0008-26.png
00000014,876,0,1442605368237,1442605368688,389,451,0,0,0,4,2,2,42,0004-00-0003-35.png,0002-00-0006-69.png
00000014,877,1,1442605379620,1442605380073,412,423,0,0,0,1,2,1,12,0001-00-0009-93.png,0002-00-0008-88.png
00000014,878,1,1442605381149,1442605381707,885,440,0,0,0,4,3,1,43,0004-00-0001-02.png,0003-00-0009-10.png
00000014,879,0,1442605382933,1442605383444,900,437,0,0,0,3,4,1,34,0003-00-0004-81.png,0004-00-0000-12.png
00000014,880,1,1442605386475,1442605386921,376,384,0,0,0,1,4,3,14,0001-00-0009-85.png,0004-00-0003-11.png
00000014,881,1,1442605388069,1442605388630,883,413,0,0,0,5,3,2,53,0005-00-0002-54.png,0003-00-0003-53.png
00000014,882,1,1442605389575,1442605390041,325,469,0,0,0,1,3,2,13,0001-00-0001-64.png,0003-00-0008-64.png
00000014,883,0,1442605390935,1442605391455,318,462,0,0,0,4,2,2,42,0004-00-0006-46.png,0002-00-0009-85.png
00000014,884,0,1442605400700,1442605401139,902,446,0,0,0,3,5,2,35,0003-00-0002-04.png,0005-00-0009-03.png
00000014,885,1,1442605404291,1442605404729,877,418,0,0,0,3,1,2,31,0003-00-0006-59.png,0001-00-0006-17.png
00000014,886,0,1442605405862,1442605406295,369,400,0,0,0,2,1,1,21,0002-00-0008-63.png,0001-00-0004-79.png
00000014,887,1,1442605409211,1442605409646,876,502,0,0,0,5,1,4,51,0005-00-0008-00.png,0001-00-0007-23.png
00000014,888,1,1442605410642,1442605411105,340,445,0,0,0,4,5,1,45,0004-00-0004-15.png,0005-00-0004-80.png
00000014,889,1,1442605412102,1442605412608,905,428,0,0,0,5,2,3,52,0005-00-0007-84.png,0002-00-0006-39.png
00000014,890,1,1442605413471,1442605413994,340,417,0,0,0,2,5,3,25,0002-00-0008-79.png,0005-00-0003-92.png
00000014,891,1,1442605414885,1442605415459,867,454,0,0,0,3,2,1,32,0003-00-0004-74.png,0002-00-0005-55.png
00000014,892,0,1442605416538,1442605417475,453,409,0,0,0,5,4,1,54,0005-00-0002-94.png,0004-00-0009-32.png
00000014,893,0,1442605421922,1442605422378,880,427,0,0,0,3,4,1,34,0003-00-0009-72.png,0004-00-0004-73.png
00000014,894,1,1442605425697,1442605426100,352,431,0,0,0,1,4,3,14,0001-00-0007-96.png,0004-00-0000-31.png
00000014,895,1,1442605427261,1442605427760,310,450,0,0,0,2,3,1,23,0002-00-0005-85.png,0003-00-0007-39.png
00000014,896,1,1442605428895,1442605429350,335,449,0,0,0,2,4,2,24,0002-00-0004-28.png,0004-00-0007-59.png
00000014,897,1,1442605430401,1442605430949,867,429,0,0,0,4,1,3,41,0004-00-0009-95.png,0001-00-0000-50.png
00000014,898,1,1442605431950,1442605432477,875,462,0,0,0,4,3,1,43,0004-00-0008-48.png,0003-00-0002-60.png
00000014,899,1,1442605433569,1442605434093,372,426,0,0,0,1,2,1,12,0001-00-0000-02.png,0002-00-0002-78.png
00000014,900,1,1442605435043,1442605435578,427,436,0,0,0,1,5,4,15,0001-00-0001-07.png,0005-00-0005-59.png
00000014,901,0,1442605436540,1442605437575,333,492,0,0,0,2,1,1,21,0002-00-0001-78.png,0001-00-0008-51.png
00000014,902,1,1442605441609,1442605442095,880,453,0,0,0,5,4,1,54,0005-00-0002-56.png,0004-00-0000-79.png
00000014,903,0,1442605443431,1442605443886,319,473,0,0,0,3,2,1,32,0003-00-0008-88.png,0002-00-0008-95.png
00000014,904,0,1442605447606,1442605448510,365,442,0,0,0,5,2,3,52,0005-00-0004-79.png,0002-00-0000-15.png
00000014,905,0,1442605451747,1442605452239,330,469,0,0,0,3,1,2,31,0003-00-0006-60.png,0001-00-0008-49.png
00000014,906,1,1442605455463,1442605455942,408,447,0,0,0,4,5,1,45,0004-00-0009-17.png,0005-00-0009-12.png
00000014,907,0,1442605456846,1442605457400,350,461,0,0,0,4,1,3,41,0004-00-0007-72.png,0001-00-0001-96.png
00000014,908,0,1442605461468,1442605461870,376,384,0,0,0,4,2,2,42,0004-00-0003-05.png,0002-00-0008-34.png
00000014,909,1,1442605464723,1442605465210,440,467,0,0,0,3,4,1,34,0003-00-0001-96.png,0004-00-0004-74.png
00000014,910,1,1442605466270,1442605466740,317,470,0,0,0,1,4,3,14,0001-00-0000-95.png,0004-00-0008-94.png
00000014,911,1,1442605468016,1442605468464,401,436,0,0,0,2,5,3,25,0002-00-0008-23.png,0005-00-0007-30.png
00000014,912,0,1442605469397,1442605469930,858,514,0,0,0,1,2,1,12,0001-00-0004-39.png,0002-00-0003-91.png
00000014,913,0,1442605473135,1442605473556,338,422,0,0,0,5,1,4,51,0005-00-0006-94.png,0001-00-0009-48.png
00000014,914,0,1442605476822,1442605477319,900,514,0,0,0,2,3,1,23,0002-00-0007-95.png,0003-00-0001-96.png
00000014,915,1,1442605480278,1442605480715,412,524,0,0,0,2,4,2,24,0002-00-0004-80.png,0004-00-0004-07.png
00000014,916,1,1442605481578,1442605482096,367,465,0,0,0,3,5,2,35,0003-00-0005-15.png,0005-00-0009-50.png
00000014,917,1,1442605483082,1442605483595,401,470,0,0,0,1,3,2,13,0001-00-0009-08.png,0003-00-0005-27.png
00000014,918,1,1442605484515,1442605485058,363,433,0,0,0,1,5,4,15,0001-00-0008-79.png,0005-00-0000-01.png
00000014,919,0,1442605485993,1442605486017,498,462,0,0,0,5,3,2,53,0005-00-0008-26.png,0003-00-0002-17.png
00000014,920,0,1442605489240,1442605489280,519,436,0,0,0,4,3,1,43,0004-00-0007-97.png,0003-00-0002-22.png
00000014,921,1,1442605492212,1442605492721,319,437,0,0,0,1,3,2,13,0001-00-0007-97.png,0003-00-0001-41.png
00000014,922,0,1442605493890,1442605494336,401,435,0,0,0,2,1,1,21,0002-00-0003-23.png,0001-00-0005-13.png
00000014,923,1,1442605509258,1442605509632,286,445,0,0,0,1,2,1,12,0001-00-0008-35.png,0002-00-0001-41.png
00000014,924,1,1442605510513,1442605511042,377,437,0,0,0,4,5,1,45,0004-00-0006-31.png,0005-00-0009-74.png
00000014,925,0,1442605512234,1442605512262,496,493,0,0,0,5,3,2,53,0005-00-0004-81.png,0003-00-0009-66.png
00000014,926,0,1442605515989,1442605516421,376,515,0,0,0,4,1,3,41,0004-00-0007-64.png,0001-00-0004-18.png
00000014,927,1,1442605519721,1442605520193,409,446,0,0,0,3,5,2,35,0003-00-0005-50.png,0005-00-0007-26.png
00000014,928,1,1442605521158,1442605521693,873,506,0,0,0,3,2,1,32,0003-00-0005-31.png,0002-00-0007-63.png
00000014,929,0,1442605523029,1442605523546,864,458,0,0,0,1,4,3,14,0001-00-0000-90.png,0004-00-0009-15.png
00000014,930,1,1442605527669,1442605528055,341,401,0,0,0,2,4,2,24,0002-00-0005-16.png,0004-00-0004-15.png
00000014,931,1,1442605529049,1442605529513,319,463,0,0,0,3,4,1,34,0003-00-0008-85.png,0004-00-0009-60.png
00000014,932,1,1442605530496,1442605531094,881,401,0,0,0,5,2,3,52,0005-00-0004-36.png,0002-00-0002-38.png
00000014,933,1,1442605532182,1442605532740,862,449,0,0,0,4,2,2,42,0004-00-0004-40.png,0002-00-0000-94.png
00000014,934,1,1442605533859,1442605534321,401,410,0,0,0,1,5,4,15,0001-00-0002-42.png,0005-00-0000-32.png
00000014,935,1,1442605535212,1442605535726,873,517,0,0,0,3,1,2,31,0003-00-0007-28.png,0001-00-0004-94.png
00000014,936,0,1442605536670,1442605537177,453,436,0,0,0,4,3,1,43,0004-00-0006-39.png,0003-00-0002-81.png
00000014,937,1,1442605542874,1442605543397,859,394,0,0,0,5,1,4,51,0005-00-0001-02.png,0001-00-0001-09.png
00000014,938,1,1442605544352,1442605544919,329,480,0,0,0,2,3,1,23,0002-00-0001-38.png,0003-00-0009-19.png
00000014,939,1,1442605545806,1442605546639,317,466,0,0,0,2,5,3,25,0002-00-0005-13.png,0005-00-0003-94.png
00000014,940,0,1442605547574,1442605548365,401,436,0,0,0,5,4,1,54,0005-00-0008-39.png,0004-00-0004-80.png
00000014,941,0,1442605562671,1442605563178,386,495,0,0,0,4,3,1,43,0004-00-0000-53.png,0003-00-0003-51.png
00000014,942,1,1442605566562,1442605567023,876,407,0,0,0,2,1,1,21,0002-00-0004-63.png,0001-00-0008-06.png
