subject_id,trial,correct_response,stim_time,response_time,x_coord,y_coord,trial_timeout,timeout_time,interTrial_timeout,left_rank,right_rank,distance,joint_rank,left_image,right_image
00000009,1,1,1442848063944,1442848064817,1070,302,0,0,0,3,1,2,31,0003-00-0006-29.png,0001-00-0001-73.png
00000009,2,1,1442848066132,1442848066160,922,277,0,0,0,5,2,3,52,0005-00-0005-44.png,0002-00-0008-84.png
00000009,3,0,1442848068070,1442848068086,882,262,0,0,0,1,5,4,15,0001-00-0009-95.png,0005-00-0003-93.png
00000009,4,1,1442848071283,1442848071925,909,427,0,0,0,5,4,1,54,0005-00-0003-13.png,0004-00-0007-43.png
00000009,5,0,1442848073187,1442848074187,1020,279,0,0,0,2,3,1,23,0002-00-0005-51.png,0003-00-0005-31.png
00000009,6,1,1442848077032,1442848077944,442,253,0,0,0,3,5,2,35,0003-00-0002-26.png,0005-00-0009-73.png
00000009,7,0,1442848079027,1442848079126,862,384,0,0,0,2,4,2,24,0002-00-0008-35.png,0004-00-0007-36.png
00000009,8,1,1442848082331,1442848082949,369,354,0,0,0,1,2,1,12,0001-00-0002-77.png,0002-00-0006-54.png
00000009,9,1,1442848084021,1442848084085,882,444,0,0,0,2,1,1,21,0002-00-0001-04.png,0001-00-0009-45.png
00000009,10,1,1442848085431,1442848086405,1067,279,0,0,0,3,2,1,32,0003-00-0003-40.png,0002-00-0006-07.png
00000009,11,1,1442848087409,1442848088506,941,343,0,0,0,4,2,2,42,0004-00-0005-12.png,0002-00-0009-54.png
00000009,12,0,1442848089645,1442848089713,915,490,0,0,0,4,5,1,45,0004-00-0008-78.png,0005-00-0005-65.png
00000009,13,1,1442848093189,1442848093201,862,332,0,0,0,4,3,1,43,0004-00-0006-12.png,0003-00-0001-39.png
00000009,14,1,1442848094266,1442848094322,872,410,0,0,0,5,1,4,51,0005-00-0004-31.png,0001-00-0004-92.png
00000009,15,1,1442848095765,1442848096873,451,246,0,0,0,1,4,3,14,0001-00-0004-52.png,0004-00-0006-40.png
00000009,16,1,1442848097994,1442848098038,887,479,0,0,0,5,3,2,53,0005-00-0006-07.png,0003-00-0005-74.png
00000009,17,0,1442848099271,1442848099375,888,514,0,0,0,2,5,3,25,0002-00-0008-96.png,0005-00-0003-19.png
00000009,18,0,1442848102644,1442848102660,896,317,0,0,0,1,3,2,13,0001-00-0000-43.png,0003-00-0007-49.png
00000009,19,1,1442848105703,1442848106300,957,347,0,0,0,4,1,3,41,0004-00-0007-04.png,0001-00-0000-83.png
00000009,20,0,1442848107344,1442848107380,858,465,0,0,0,3,4,1,34,0003-00-0004-07.png,0004-00-0006-10.png
00000009,21,1,1442848110433,1442848111187,1039,285,0,0,0,5,4,1,54,0005-00-0009-57.png,0004-00-0008-34.png
00000009,22,0,1442848112232,1442848112297,977,449,0,0,0,2,5,3,25,0002-00-0003-32.png,0005-00-0003-38.png
00000009,23,0,1442848115469,1442848116095,358,373,0,0,0,5,2,3,52,0005-00-0009-81.png,0002-00-0009-58.png
00000009,24,1,1442848119635,1442848119675,939,358,0,0,0,4,1,3,41,0004-00-0007-58.png,0001-00-0002-62.png
00000009,25,1,1442848120706,1442848120738,877,432,0,0,0,4,3,1,43,0004-00-0006-14.png,0003-00-0008-47.png
00000009,26,1,1442848122286,1442848123501,919,351,0,0,0,5,3,2,53,0005-00-0002-94.png,0003-00-0004-30.png
00000009,27,1,1442848124554,1442848124626,894,452,0,0,0,3,2,1,32,0003-00-0008-81.png,0002-00-0006-59.png
00000009,28,0,1442848125881,1442848125949,862,448,0,0,0,2,3,1,23,0002-00-0005-45.png,0003-00-0008-27.png
00000009,29,0,1442848129103,1442848129723,922,357,0,0,0,3,4,1,34,0003-00-0009-27.png,0004-00-0001-08.png
00000009,30,1,1442848132882,1442848133545,357,398,0,0,0,3,5,2,35,0003-00-0006-89.png,0005-00-0004-80.png
00000009,31,1,1442848134489,1442848135565,948,346,0,0,0,2,1,1,21,0002-00-0004-80.png,0001-00-0001-98.png
00000009,32,1,1442848136569,1442848136650,881,455,0,0,0,4,2,2,42,0004-00-0002-98.png,0002-00-0002-13.png
00000009,33,1,1442848138016,1442848139307,457,225,0,0,0,2,4,2,24,0002-00-0005-78.png,0004-00-0001-90.png
00000009,34,1,1442848140322,1442848141252,460,258,0,0,0,1,3,2,13,0001-00-0004-38.png,0003-00-0003-12.png
00000009,35,1,1442848142389,1442848143375,474,261,0,0,0,1,4,3,14,0001-00-0004-15.png,0004-00-0001-11.png
00000009,36,0,1442848144394,1442848145263,489,217,0,0,0,3,1,2,31,0003-00-0008-41.png,0001-00-0009-45.png
00000009,37,0,1442848148482,1442848148648,865,458,0,0,0,1,2,1,12,0001-00-0008-67.png,0002-00-0005-52.png
00000009,38,1,1442848151722,1442848152353,961,329,0,0,0,5,1,4,51,0005-00-0001-73.png,0001-00-0000-61.png
00000009,39,0,1442848153381,1442848153441,888,397,0,0,0,4,5,1,45,0004-00-0003-18.png,0005-00-0000-30.png
00000009,40,1,1442848156269,1442848156824,382,353,0,0,0,1,5,4,15,0001-00-0004-42.png,0005-00-0008-30.png
00000009,41,1,1442848157714,1442848158662,1050,275,0,0,0,3,1,2,31,0003-00-0003-48.png,0001-00-0009-06.png
00000009,42,1,1442848159690,1442848159726,870,428,0,0,0,5,1,4,51,0005-00-0004-08.png,0001-00-0003-36.png
00000009,43,1,1442848160953,1442848162012,939,366,0,0,0,5,2,3,52,0005-00-0002-21.png,0002-00-0004-94.png
00000009,44,0,1442848163040,1442848163100,870,429,0,0,0,3,5,2,35,0003-00-0008-07.png,0005-00-0008-53.png
00000009,45,1,1442848166240,1442848166818,935,354,0,0,0,4,1,3,41,0004-00-0002-92.png,0001-00-0004-18.png
00000009,46,1,1442848167710,1442848168206,913,541,0,0,0,5,4,1,54,0005-00-0003-11.png,0004-00-0009-84.png
00000009,47,1,1442848169369,1442848171107,356,402,0,0,0,1,5,4,15,0001-00-0006-88.png,0005-00-0000-34.png
00000009,48,0,1442848172091,1442848173223,918,344,0,0,0,2,3,1,23,0002-00-0003-57.png,0003-00-0006-52.png
00000009,49,1,1442848177229,1442848177799,455,280,0,0,0,1,3,2,13,0001-00-0002-46.png,0003-00-0002-72.png
00000009,50,1,1442848178860,1442848180106,447,229,0,0,0,2,4,2,24,0002-00-0007-63.png,0004-00-0004-31.png
00000009,51,0,1442848181128,1442848182320,1045,310,0,0,0,2,5,3,25,0002-00-0009-78.png,0005-00-0008-85.png
00000009,52,0,1442848186317,1442848186582,931,282,0,0,0,1,4,3,14,0001-00-0002-31.png,0004-00-0007-62.png
00000009,53,1,1442848189782,1442848190356,1091,287,0,0,0,3,2,1,32,0003-00-0006-33.png,0002-00-0006-31.png
00000009,54,0,1442848191355,1442848192311,924,342,0,0,0,4,5,1,45,0004-00-0005-93.png,0005-00-0009-28.png
00000009,55,1,1442848201530,1442848201551,932,302,0,0,0,4,3,1,43,0004-00-0008-40.png,0003-00-0005-89.png
00000009,56,1,1442848203108,1442848203247,964,558,0,0,0,4,2,2,42,0004-00-0006-53.png,0002-00-0009-96.png
00000009,57,0,1442848204478,1442848205520,906,404,0,0,0,1,2,1,12,0001-00-0005-42.png,0002-00-0002-83.png
00000009,58,0,1442848208982,1442848208990,898,301,0,0,0,3,4,1,34,0003-00-0007-72.png,0004-00-0001-74.png
00000009,59,1,1442848211962,1442848213087,1067,304,0,0,0,5,3,2,53,0005-00-0009-75.png,0003-00-0004-81.png
00000009,60,1,1442848214179,1442848214327,875,436,0,0,0,2,1,1,21,0002-00-0007-18.png,0001-00-0008-88.png
00000009,61,0,1442848215481,1442848216551,1046,252,0,0,0,3,5,2,35,0003-00-0004-77.png,0005-00-0003-17.png
00000009,62,1,1442848219546,1442848220149,1068,301,0,0,0,5,1,4,51,0005-00-0009-46.png,0001-00-0004-14.png
00000009,63,0,1442848221073,1442848221161,862,436,0,0,0,1,4,3,14,0001-00-0003-82.png,0004-00-0002-77.png
00000009,64,1,1442848224168,1442848225051,1068,302,0,0,0,5,4,1,54,0005-00-0007-86.png,0004-00-0002-79.png
00000009,65,0,1442848226088,1442848227082,934,346,0,0,0,1,2,1,12,0001-00-0000-98.png,0002-00-0002-41.png
00000009,66,1,1442848231589,1442848231688,926,273,0,0,0,5,2,3,52,0005-00-0007-71.png,0002-00-0004-59.png
00000009,67,1,1442848233009,1442848234749,407,261,0,0,0,2,5,3,25,0002-00-0002-30.png,0005-00-0002-67.png
00000009,68,0,1442848236369,1442848236614,908,383,0,0,0,1,5,4,15,0001-00-0008-49.png,0005-00-0003-24.png
00000009,69,1,1442848239719,1442848240494,381,401,0,0,0,2,3,1,23,0002-00-0007-70.png,0003-00-0005-24.png
00000009,70,0,1442848241538,1442848242577,1067,271,0,0,0,1,3,2,13,0001-00-0008-62.png,0003-00-0003-58.png
00000009,71,1,1442848247550,1442848248115,1045,305,0,0,0,4,1,3,41,0004-00-0008-31.png,0001-00-0003-86.png
00000009,72,1,1442848249159,1442848250307,342,375,0,0,0,3,4,1,34,0003-00-0006-02.png,0004-00-0005-66.png
00000009,73,1,1442848251405,1442848252788,940,358,0,0,0,4,2,2,42,0004-00-0003-16.png,0002-00-0004-06.png
00000009,74,1,1442848253839,1442848253899,913,449,0,0,0,5,3,2,53,0005-00-0007-39.png,0003-00-0008-37.png
00000009,75,0,1442848255011,1442848256005,441,285,0,0,0,4,3,1,43,0004-00-0001-97.png,0003-00-0006-29.png
00000009,76,1,1442848262188,1442848263034,354,406,0,0,0,2,4,2,24,0002-00-0000-94.png,0004-00-0001-32.png
00000009,77,1,1442848264077,1442848264173,888,405,0,0,0,3,2,1,32,0003-00-0000-16.png,0002-00-0005-84.png
00000009,78,1,1442848265277,1442848266148,934,394,0,0,0,3,1,2,31,0003-00-0008-57.png,0001-00-0001-79.png
00000009,79,0,1442848267156,1442848268473,916,347,0,0,0,4,5,1,45,0004-00-0004-98.png,0005-00-0000-34.png
00000009,80,1,1442848271598,1442848271614,911,308,0,0,0,2,1,1,21,0002-00-0005-46.png,0001-00-0003-80.png
00000009,81,1,1442848273082,1442848273375,928,410,0,0,0,3,1,2,31,0003-00-0006-03.png,0001-00-0003-53.png
00000009,82,1,1442848274621,1442848275500,928,358,0,0,0,5,2,3,52,0005-00-0004-05.png,0002-00-0004-54.png
00000009,83,1,1442848276537,1442848277747,415,244,0,0,0,2,4,2,24,0002-00-0001-82.png,0004-00-0008-61.png
00000009,84,1,1442848278812,1442848280111,398,259,0,0,0,4,5,1,45,0004-00-0001-67.png,0005-00-0002-92.png
00000009,85,0,1442848281199,1442848281378,865,434,0,0,0,1,3,2,13,0001-00-0007-32.png,0003-00-0004-95.png
00000009,86,0,1442848284606,1442848284618,866,330,0,0,0,3,4,1,34,0003-00-0005-39.png,0004-00-0000-04.png
00000009,87,1,1442848287788,1442848287824,939,301,0,0,0,4,3,1,43,0004-00-0005-32.png,0003-00-0001-02.png
00000009,88,1,1442848288869,1442848289947,461,240,0,0,0,1,4,3,14,0001-00-0005-13.png,0004-00-0003-38.png
00000009,89,1,1442848291106,1442848291955,417,277,0,0,0,2,5,3,25,0002-00-0000-79.png,0005-00-0008-21.png
00000009,90,1,1442848292970,1442848294103,1052,253,0,0,0,2,1,1,21,0002-00-0009-72.png,0001-00-0009-35.png
00000009,91,1,1442848295195,1442848296166,334,380,0,0,0,3,5,2,35,0003-00-0000-59.png,0005-00-0001-38.png
00000009,92,1,1442848297213,1442848298374,1038,275,0,0,0,5,4,1,54,0005-00-0006-38.png,0004-00-0005-34.png
00000009,93,1,1442848299663,1442848299738,862,486,0,0,0,5,1,4,51,0005-00-0007-82.png,0001-00-0007-43.png
00000009,94,0,1442848301060,1442848302329,305,398,0,0,0,4,2,2,42,0004-00-0002-53.png,0002-00-0005-07.png
00000009,95,1,1442848310632,1442848310640,874,348,0,0,0,5,3,2,53,0005-00-0005-11.png,0003-00-0007-34.png
00000009,96,1,1442848312111,1442848313373,395,273,0,0,0,2,3,1,23,0002-00-0008-65.png,0003-00-0004-46.png
00000009,97,1,1442848314358,1442848315341,367,393,0,0,0,1,5,4,15,0001-00-0006-72.png,0005-00-0002-54.png
00000009,98,0,1442848316465,1442848316600,872,488,0,0,0,1,2,1,12,0001-00-0008-36.png,0002-00-0009-58.png
00000009,99,1,1442848319823,1442848319843,915,297,0,0,0,4,1,3,41,0004-00-0008-84.png,0001-00-0003-98.png
00000009,100,1,1442848320875,1442848321809,1015,281,0,0,0,3,2,1,32,0003-00-0003-58.png,0002-00-0005-57.png
00000009,101,0,1442848323468,1442848323587,899,410,0,0,0,1,4,3,14,0001-00-0001-82.png,0004-00-0006-66.png
00000009,102,0,1442848326571,1442848326607,939,370,0,0,0,1,5,4,15,0001-00-0009-89.png,0005-00-0000-39.png
00000009,103,0,1442848329642,1442848330618,946,353,0,0,0,3,5,2,35,0003-00-0009-11.png,0005-00-0003-75.png
00000009,104,1,1442848333537,1442848334318,430,265,0,0,0,1,3,2,13,0001-00-0000-34.png,0003-00-0000-16.png
00000009,105,1,1442848335296,1442848336361,1067,267,0,0,0,5,2,3,52,0005-00-0007-38.png,0002-00-0001-39.png
00000009,106,0,1442848337366,1442848338293,430,276,0,0,0,5,3,2,53,0005-00-0008-67.png,0003-00-0001-20.png
00000009,107,1,1442848341389,1442848341425,911,342,0,0,0,4,3,1,43,0004-00-0007-45.png,0003-00-0009-62.png
00000009,108,1,1442848342501,1442848343026,925,553,0,0,0,5,1,4,51,0005-00-0001-61.png,0001-00-0005-76.png
00000009,109,0,1442848344102,1442848345416,371,368,0,0,0,5,4,1,54,0005-00-0004-40.png,0004-00-0006-97.png
00000009,110,1,1442848348612,1442848349266,964,352,0,0,0,2,1,1,21,0002-00-0007-92.png,0001-00-0005-68.png
00000009,111,1,1442848350191,1442848350219,868,439,0,0,0,3,1,2,31,0003-00-0004-81.png,0001-00-0004-18.png
00000009,112,1,1442848351165,1442848352517,379,359,0,0,0,1,2,1,12,0001-00-0007-00.png,0002-00-0009-78.png
00000009,113,1,1442848353541,1442848354583,353,373,0,0,0,2,3,1,23,0002-00-0009-12.png,0003-00-0003-43.png
00000009,114,1,1442848355810,1442848357160,431,240,0,0,0,3,4,1,34,0003-00-0000-10.png,0004-00-0009-20.png
00000009,115,1,1442848358262,1442848359200,438,267,0,0,0,2,4,2,24,0002-00-0001-81.png,0004-00-0001-88.png
00000009,116,1,1442848360278,1442848361246,477,273,0,0,0,4,5,1,45,0004-00-0003-10.png,0005-00-0002-44.png
00000009,117,0,1442848362334,1442848363671,454,237,0,0,0,4,1,3,41,0004-00-0007-35.png,0001-00-0002-50.png
00000009,118,1,1442848367126,1442848367730,938,379,0,0,0,3,2,1,32,0003-00-0009-16.png,0002-00-0000-07.png
00000009,119,0,1442848368731,1442848369145,892,528,0,0,0,2,5,3,25,0002-00-0008-92.png,0005-00-0001-41.png
00000009,120,1,1442848372382,1442848372946,940,353,0,0,0,4,2,2,42,0004-00-0006-59.png,0002-00-0004-06.png
00000009,121,1,1442848373829,1442848374822,1078,273,0,0,0,2,1,1,21,0002-00-0004-21.png,0001-00-0002-62.png
00000009,122,1,1442848375781,1442848376782,437,257,0,0,0,4,5,1,45,0004-00-0008-27.png,0005-00-0004-12.png
00000009,123,1,1442848377810,1442848377871,858,400,0,0,0,5,3,2,53,0005-00-0008-34.png,0003-00-0004-92.png
00000009,124,1,1442848379089,1442848380211,434,230,0,0,0,2,5,3,25,0002-00-0002-65.png,0005-00-0006-10.png
00000009,125,1,1442848381356,1442848382542,1044,277,0,0,0,4,2,2,42,0004-00-0001-55.png,0002-00-0005-22.png
00000009,126,1,1442848383552,1442848384684,361,372,0,0,0,3,5,2,35,0003-00-0008-74.png,0005-00-0007-97.png
00000009,127,1,1442848385747,1442848385797,996,566,0,0,0,3,2,1,32,0003-00-0005-72.png,0002-00-0004-18.png
00000009,128,1,1442848387042,1442848388685,1016,275,0,0,0,5,4,1,54,0005-00-0000-93.png,0004-00-0004-43.png
00000009,129,0,1442848390202,1442848391018,344,412,0,0,0,4,3,1,43,0004-00-0009-11.png,0003-00-0002-28.png
00000009,130,1,1442848394051,1442848394614,449,297,0,0,0,1,4,3,14,0001-00-0007-84.png,0004-00-0004-65.png
00000009,131,1,1442848395602,1442848396635,411,259,0,0,0,1,2,1,12,0001-00-0009-41.png,0002-00-0004-39.png
00000009,132,1,1442848397713,1442848397910,862,476,0,0,0,3,1,2,31,0003-00-0009-53.png,0001-00-0005-28.png
00000009,133,1,1442848399064,1442848400085,937,351,0,0,0,5,1,4,51,0005-00-0003-92.png,0001-00-0009-07.png
00000009,134,1,1442848401112,1442848402245,478,240,0,0,0,3,4,1,34,0003-00-0004-06.png,0004-00-0006-31.png
00000009,135,1,1442848403248,1442848404156,925,328,0,0,0,4,1,3,41,0004-00-0003-33.png,0001-00-0005-97.png
00000009,136,0,1442848405233,1442848405281,919,469,0,0,0,2,4,2,24,0002-00-0006-39.png,0004-00-0000-91.png
00000009,137,1,1442848408435,1442848408983,401,387,0,0,0,2,3,1,23,0002-00-0007-90.png,0003-00-0006-79.png
00000009,138,1,1442848409917,1442848411015,961,425,0,0,0,5,2,3,52,0005-00-0008-03.png,0002-00-0009-62.png
00000009,139,1,1442848412018,1442848413285,446,240,0,0,0,1,5,4,15,0001-00-0004-54.png,0005-00-0008-43.png
00000009,140,1,1442848414464,1442848415517,451,221,0,0,0,1,3,2,13,0001-00-0008-47.png,0003-00-0005-00.png
00000009,141,1,1442848416562,1442848417568,1045,268,0,0,0,5,1,4,51,0005-00-0009-74.png,0001-00-0005-85.png
00000009,142,1,1442848418489,1442848418519,888,465,0,0,0,5,3,2,53,0005-00-0003-55.png,0003-00-0003-86.png
00000009,143,1,1442848419750,1442848420187,901,529,0,0,0,3,2,1,32,0003-00-0005-51.png,0002-00-0005-61.png
00000009,144,0,1442848421310,1442848421369,862,448,0,0,0,1,3,2,13,0001-00-0000-32.png,0003-00-0004-67.png
00000009,145,0,1442848424432,1442848424472,935,353,0,0,0,2,3,1,23,0002-00-0005-17.png,0003-00-0006-00.png
00000009,146,1,1442848427591,1442848427627,965,331,0,0,0,2,1,1,21,0002-00-0005-72.png,0001-00-0006-17.png
00000009,147,1,1442848428655,1442848428691,862,462,0,0,0,4,3,1,43,0004-00-0008-93.png,0003-00-0000-46.png
00000009,148,1,1442848429837,1442848430949,451,229,0,0,0,1,2,1,12,0001-00-0009-62.png,0002-00-0000-39.png
00000009,149,1,1442848431915,1442848432994,1059,252,0,0,0,4,1,3,41,0004-00-0007-19.png,0001-00-0001-54.png
00000009,150,0,1442848434063,1442848434159,888,436,0,0,0,2,5,3,25,0002-00-0008-15.png,0005-00-0004-33.png
00000009,151,1,1442848437330,1442848437350,940,329,0,0,0,5,4,1,54,0005-00-0008-14.png,0004-00-0000-81.png
00000009,152,0,1442848438281,1442848439223,1044,277,0,0,0,3,4,1,34,0003-00-0007-07.png,0004-00-0008-85.png
00000009,153,1,1442848442310,1442848442862,1088,278,0,0,0,4,2,2,42,0004-00-0006-09.png,0002-00-0006-88.png
00000009,154,1,1442848443731,1442848444801,471,237,0,0,0,2,4,2,24,0002-00-0001-91.png,0004-00-0009-95.png
00000009,155,1,1442848445905,1442848447385,330,364,0,0,0,4,5,1,45,0004-00-0004-87.png,0005-00-0001-96.png
00000009,156,1,1442848448420,1442848449465,448,265,0,0,0,1,5,4,15,0001-00-0007-77.png,0005-00-0005-61.png
00000009,157,1,1442848450715,1442848451670,1049,312,0,0,0,3,1,2,31,0003-00-0005-03.png,0001-00-0004-47.png
00000009,158,1,1442848452714,1442848452814,871,428,0,0,0,5,2,3,52,0005-00-0005-02.png,0002-00-0009-25.png
00000009,159,1,1442848453885,1442848454906,461,265,0,0,0,1,4,3,14,0001-00-0005-74.png,0004-00-0002-41.png
00000009,160,0,1442848455904,1442848456023,888,488,0,0,0,3,5,2,35,0003-00-0001-88.png,0005-00-0009-06.png
00000009,161,1,1442848458871,1442848458911,915,384,0,0,0,2,1,1,21,0002-00-0005-43.png,0001-00-0006-95.png
00000009,162,1,1442848459977,1442848461077,932,353,0,0,0,5,4,1,54,0005-00-0003-18.png,0004-00-0004-80.png
00000009,163,1,1442848462004,1442848462063,882,421,0,0,0,4,3,1,43,0004-00-0006-57.png,0003-00-0001-94.png
00000009,164,1,1442848463269,1442848464134,357,363,0,0,0,1,3,2,13,0001-00-0009-04.png,0003-00-0006-58.png
00000009,165,1,1442848465181,1442848466306,352,383,0,0,0,2,3,1,23,0002-00-0001-52.png,0003-00-0001-59.png
00000009,166,1,1442848467247,1442848468277,930,351,0,0,0,3,1,2,31,0003-00-0001-19.png,0001-00-0005-63.png
00000009,167,0,1442848469190,1442848469218,868,424,0,0,0,3,5,2,35,0003-00-0003-99.png,0005-00-0009-64.png
00000009,168,1,1442848472361,1442848472503,868,390,0,0,0,5,1,4,51,0005-00-0008-52.png,0001-00-0002-40.png
00000009,169,1,1442848473531,1442848473579,875,488,0,0,0,4,2,2,42,0004-00-0007-27.png,0002-00-0001-10.png
00000009,170,1,1442848474554,1442848475506,1023,282,0,0,0,4,1,3,41,0004-00-0002-55.png,0001-00-0003-79.png
00000009,171,0,1442848476484,1442848476520,913,444,0,0,0,2,4,2,24,0002-00-0005-90.png,0004-00-0002-10.png
00000009,172,1,1442848479673,1442848480228,489,244,0,0,0,2,5,3,25,0002-00-0001-66.png,0005-00-0004-28.png
00000009,173,1,1442848481408,1442848482246,357,365,0,0,0,1,2,1,12,0001-00-0000-22.png,0002-00-0000-96.png
00000009,174,1,1442848483258,1442848484236,343,409,0,0,0,1,5,4,15,0001-00-0002-17.png,0005-00-0009-80.png
00000009,175,1,1442848485255,1442848485275,878,426,0,0,0,5,2,3,52,0005-00-0004-10.png,0002-00-0007-99.png
00000009,176,1,1442848487339,1442848488045,362,392,0,0,0,3,4,1,34,0003-00-0009-68.png,0004-00-0007-48.png
00000009,177,1,1442848488980,1442848489982,446,243,0,0,0,4,5,1,45,0004-00-0006-31.png,0005-00-0009-46.png
00000009,178,1,1442848490928,1442848490979,892,382,0,0,0,3,2,1,32,0003-00-0000-09.png,0002-00-0002-05.png
00000009,179,0,1442848492230,1442848492596,939,541,0,0,0,1,4,3,14,0001-00-0003-60.png,0004-00-0009-99.png
00000009,180,1,1442848495777,1442848495802,914,298,0,0,0,5,3,2,53,0005-00-0009-01.png,0003-00-0004-53.png
00000009,181,1,1442848496795,1442848496881,895,429,0,0,0,5,2,3,52,0005-00-0006-31.png,0002-00-0009-85.png
00000009,182,1,1442848498017,1442848499550,481,238,0,0,0,3,5,2,35,0003-00-0009-90.png,0005-00-0000-97.png
00000009,183,1,1442848500551,1442848501451,1052,295,0,0,0,4,1,3,41,0004-00-0008-19.png,0001-00-0002-49.png
00000009,184,1,1442848502379,1442848502428,957,419,0,0,0,3,2,1,32,0003-00-0005-87.png,0002-00-0001-39.png
00000009,185,0,1442848503266,1442848503301,865,421,0,0,0,1,5,4,15,0001-00-0004-39.png,0005-00-0001-12.png
00000009,186,1,1442848506205,1442848507090,444,236,0,0,0,2,3,1,23,0002-00-0006-51.png,0003-00-0002-25.png
00000009,187,1,1442848508073,1442848509059,462,250,0,0,0,2,5,3,25,0002-00-0008-28.png,0005-00-0008-03.png
00000009,188,0,1442848510139,1442848510179,906,426,0,0,0,1,2,1,12,0001-00-0002-10.png,0002-00-0004-86.png
00000009,189,0,1442848513160,1442848513325,862,410,0,0,0,3,4,1,34,0003-00-0002-72.png,0004-00-0008-78.png
00000009,190,1,1442848516521,1442848517190,495,281,0,0,0,1,3,2,13,0001-00-0008-43.png,0003-00-0006-16.png
00000009,191,1,1442848518188,1442848518738,901,476,0,0,0,5,1,4,51,0005-00-0001-14.png,0001-00-0002-26.png
00000009,192,1,1442848519799,1442848519895,929,442,0,0,0,3,1,2,31,0003-00-0002-32.png,0001-00-0009-40.png
00000009,193,1,1442848521115,1442848521195,886,438,0,0,0,5,3,2,53,0005-00-0006-89.png,0003-00-0002-62.png
00000009,194,1,1442848522650,1442848522722,888,451,0,0,0,4,3,1,43,0004-00-0006-81.png,0003-00-0008-21.png
00000009,195,1,1442848523972,1442848524076,877,448,0,0,0,2,1,1,21,0002-00-0005-08.png,0001-00-0004-52.png
00000009,196,0,1442848525371,1442848525419,862,420,0,0,0,2,4,2,24,0002-00-0006-54.png,0004-00-0003-50.png
00000009,197,1,1442848528563,1442848528591,890,314,0,0,0,5,4,1,54,0005-00-0000-47.png,0004-00-0007-37.png
00000009,198,1,1442848529636,1442848529708,899,436,0,0,0,4,2,2,42,0004-00-0000-79.png,0002-00-0008-24.png
00000009,199,0,1442848530817,1442848531253,862,475,0,0,0,4,5,1,45,0004-00-0008-94.png,0005-00-0009-99.png
00000009,200,0,1442848534414,1442848534422,910,367,0,0,0,1,4,3,14,0001-00-0003-98.png,0004-00-0001-39.png
00000009,201,0,1442848537536,1442848537701,862,384,0,0,0,1,5,4,15,0001-00-0008-49.png,0005-00-0002-23.png
00000009,202,1,1442848540903,1442848541500,390,405,0,0,0,2,4,2,24,0002-00-0001-98.png,0004-00-0000-77.png
00000009,203,1,1442848542403,1442848542952,913,541,0,0,0,4,2,2,42,0004-00-0008-42.png,0002-00-0002-10.png
00000009,204,1,1442848543955,1442848543975,878,408,0,0,0,3,1,2,31,0003-00-0006-50.png,0001-00-0003-74.png
00000009,205,0,1442848545010,1442848545620,870,503,0,0,0,3,4,1,34,0003-00-0002-08.png,0004-00-0002-62.png
00000009,206,1,1442848548638,1442848549264,930,360,0,0,0,5,4,1,54,0005-00-0006-44.png,0004-00-0001-48.png
00000009,207,0,1442848550117,1442848550173,869,448,0,0,0,2,3,1,23,0002-00-0005-35.png,0003-00-0003-37.png
00000009,208,1,1442848553347,1442848553359,907,351,0,0,0,5,1,4,51,0005-00-0006-02.png,0001-00-0009-94.png
00000009,209,0,1442848554300,1442848554360,862,410,0,0,0,1,2,1,12,0001-00-0003-54.png,0002-00-0001-81.png
00000009,210,1,1442848557491,1442848558116,1118,265,0,0,0,5,2,3,52,0005-00-0001-11.png,0002-00-0004-26.png
00000009,211,0,1442848558937,1442848559400,995,544,0,0,0,2,5,3,25,0002-00-0009-18.png,0005-00-0008-40.png
00000009,212,1,1442848562615,1442848562649,957,343,0,0,0,5,3,2,53,0005-00-0000-34.png,0003-00-0005-37.png
00000009,213,1,1442848563629,1442848563670,862,476,0,0,0,4,3,1,43,0004-00-0002-21.png,0003-00-0000-60.png
00000009,214,1,1442848564797,1442848565666,455,234,0,0,0,1,4,3,14,0001-00-0002-83.png,0004-00-0006-29.png
00000009,215,1,1442848566682,1442848567993,447,258,0,0,0,4,5,1,45,0004-00-0003-22.png,0005-00-0003-17.png
00000009,216,0,1442848569553,1442848569621,874,384,0,0,0,3,5,2,35,0003-00-0009-28.png,0005-00-0001-74.png
00000009,217,0,1442848572674,1442848573357,388,402,0,0,0,2,1,1,21,0002-00-0003-28.png,0001-00-0004-43.png
00000009,218,0,1442848576430,1442848576458,859,398,0,0,0,1,3,2,13,0001-00-0005-02.png,0003-00-0000-99.png
00000009,219,1,1442848579579,1442848580110,942,354,0,0,0,3,2,1,32,0003-00-0003-64.png,0002-00-0007-30.png
00000009,220,1,1442848580949,1442848581178,903,514,0,0,0,4,1,3,41,0004-00-0006-05.png,0001-00-0002-71.png
00000009,221,0,1442848582307,1442848582906,879,496,0,0,0,3,5,2,35,0003-00-0006-98.png,0005-00-0005-79.png
00000009,222,1,1442848586078,1442848587212,409,279,0,0,0,1,4,3,14,0001-00-0001-80.png,0004-00-0007-00.png
00000009,223,1,1442848588136,1442848589035,371,365,0,0,0,2,4,2,24,0002-00-0007-90.png,0004-00-0004-76.png
00000009,224,0,1442848589961,1442848591172,930,352,0,0,0,1,3,2,13,0001-00-0002-16.png,0003-00-0003-09.png
00000009,225,0,1442848594702,1442848595323,453,290,0,0,0,4,3,1,43,0004-00-0005-60.png,0003-00-0001-89.png
00000009,226,1,1442848599148,1442848599739,456,290,0,0,0,1,5,4,15,0001-00-0005-24.png,0005-00-0006-83.png
00000009,227,1,1442848600950,1442848601839,940,356,0,0,0,5,4,1,54,0005-00-0006-57.png,0004-00-0006-48.png
00000009,228,1,1442848602757,1442848602813,869,481,0,0,0,4,2,2,42,0004-00-0003-80.png,0002-00-0001-95.png
00000009,229,1,1442848603739,1442848604272,913,541,0,0,0,5,1,4,51,0005-00-0001-48.png,0001-00-0000-66.png
00000009,230,0,1442848605398,1442848606280,485,237,0,0,0,2,1,1,21,0002-00-0009-73.png,0001-00-0003-15.png
00000009,231,1,1442848610398,1442848611048,480,282,0,0,0,2,5,3,25,0002-00-0005-39.png,0005-00-0002-28.png
00000009,232,0,1442848612018,1442848612888,1043,303,0,0,0,2,3,1,23,0002-00-0000-22.png,0003-00-0007-95.png
00000009,233,0,1442848616061,1442848616109,970,307,0,0,0,3,4,1,34,0003-00-0002-69.png,0004-00-0004-85.png
00000009,234,1,1442848619572,1442848620309,481,281,0,0,0,4,5,1,45,0004-00-0008-50.png,0005-00-0002-38.png
00000009,235,0,1442848621190,1442848621262,860,412,0,0,0,1,2,1,12,0001-00-0001-68.png,0002-00-0001-55.png
00000009,236,1,1442848624400,1442848624965,989,313,0,0,0,3,2,1,32,0003-00-0001-30.png,0002-00-0000-23.png
00000009,237,1,1442848625829,1442848625937,913,447,0,0,0,5,3,2,53,0005-00-0005-14.png,0003-00-0004-03.png
00000009,238,0,1442848626894,1442848628147,481,252,0,0,0,3,1,2,31,0003-00-0007-82.png,0001-00-0006-96.png
00000009,239,1,1442848631368,1442848632185,967,390,0,0,0,4,1,3,41,0004-00-0006-92.png,0001-00-0001-70.png
00000009,240,1,1442848633026,1442848633884,1069,258,0,0,0,5,2,3,52,0005-00-0003-27.png,0002-00-0002-24.png
00000009,241,0,1442848634894,1442848634922,866,446,0,0,0,3,4,1,34,0003-00-0003-82.png,0004-00-0005-44.png
00000009,242,1,1442848637785,1442848638833,460,265,0,0,0,4,5,1,45,0004-00-0007-34.png,0005-00-0005-20.png
00000009,243,1,1442848639730,1442848641491,426,217,0,0,0,2,4,2,24,0002-00-0006-36.png,0004-00-0003-72.png
00000009,244,0,1442848642675,1442848643161,862,514,0,0,0,1,2,1,12,0001-00-0007-51.png,0002-00-0006-68.png
00000009,245,0,1442848646350,1442848646398,937,333,0,0,0,2,3,1,23,0002-00-0002-55.png,0003-00-0003-88.png
00000009,246,1,1442848649551,1442848649575,925,350,0,0,0,5,1,4,51,0005-00-0003-53.png,0001-00-0000-43.png
00000009,247,1,1442848650605,1442848650645,876,466,0,0,0,2,1,1,21,0002-00-0001-38.png,0001-00-0009-68.png
00000009,248,1,1442848651766,1442848652937,941,354,0,0,0,3,2,1,32,0003-00-0006-94.png,0002-00-0006-98.png
00000009,249,0,1442848653877,1442848653926,900,452,0,0,0,1,3,2,13,0001-00-0005-34.png,0003-00-0008-44.png
00000009,250,1,1442848656756,1442848657544,432,272,0,0,0,3,5,2,35,0003-00-0002-76.png,0005-00-0001-25.png
00000009,251,1,1442848658476,1442848659717,1064,242,0,0,0,4,1,3,41,0004-00-0007-96.png,0001-00-0008-52.png
00000009,252,1,1442848660642,1442848660690,888,384,0,0,0,3,1,2,31,0003-00-0007-81.png,0001-00-0005-26.png
00000009,253,0,1442848661812,1442848661908,862,476,0,0,0,2,5,3,25,0002-00-0000-78.png,0005-00-0005-81.png
00000009,254,0,1442848665400,1442848666348,458,267,0,0,0,5,4,1,54,0005-00-0009-04.png,0004-00-0004-76.png
00000009,255,1,1442848669377,1442848669951,1096,302,0,0,0,5,2,3,52,0005-00-0008-84.png,0002-00-0008-22.png
00000009,256,1,1442848670858,1442848670910,874,436,0,0,0,4,2,2,42,0004-00-0002-84.png,0002-00-0003-35.png
00000009,257,1,1442848671944,1442848672993,461,257,0,0,0,1,4,3,14,0001-00-0008-90.png,0004-00-0008-15.png
00000009,258,1,1442848673989,1442848674045,879,419,0,0,0,5,3,2,53,0005-00-0009-45.png,0003-00-0000-86.png
00000009,259,0,1442848675452,1442848675504,885,434,0,0,0,1,5,4,15,0001-00-0003-82.png,0005-00-0002-82.png
00000009,260,1,1442848678445,1442848679326,976,333,0,0,0,4,3,1,43,0004-00-0008-98.png,0003-00-0004-51.png
00000009,261,1,1442848680636,1442848680684,892,399,0,0,0,5,3,2,53,0005-00-0009-51.png,0003-00-0005-58.png
00000009,262,0,1442848681826,1442848682958,462,279,0,0,0,4,3,1,43,0004-00-0009-85.png,0003-00-0006-76.png
00000009,263,1,1442848686130,1442848686150,947,342,0,0,0,5,1,4,51,0005-00-0006-01.png,0001-00-0001-41.png
00000009,264,0,1442848687144,1442848687184,902,410,0,0,0,2,5,3,25,0002-00-0003-22.png,0005-00-0005-28.png
00000009,265,0,1442848690096,1442848690132,862,410,0,0,0,3,5,2,35,0003-00-0007-63.png,0005-00-0006-62.png
00000009,266,1,1442848693157,1442848693185,899,391,0,0,0,5,4,1,54,0005-00-0000-72.png,0004-00-0000-74.png
00000009,267,1,1442848694150,1442848694190,879,433,0,0,0,4,2,2,42,0004-00-0005-79.png,0002-00-0009-63.png
00000009,268,0,1442848695093,1442848696364,1088,250,0,0,0,1,3,2,13,0001-00-0004-57.png,0003-00-0002-47.png
00000009,269,0,1442848699386,1442848699426,964,332,0,0,0,1,5,4,15,0001-00-0009-83.png,0005-00-0007-50.png
00000009,270,1,1442848702538,1442848702546,931,323,0,0,0,3,1,2,31,0003-00-0006-24.png,0001-00-0005-48.png
00000009,271,0,1442848703929,1442848704101,913,424,0,0,0,1,2,1,12,0001-00-0006-19.png,0002-00-0005-49.png
00000009,272,1,1442848707296,1442848707324,972,301,0,0,0,3,2,1,32,0003-00-0008-87.png,0002-00-0005-82.png
00000009,273,0,1442848708351,1442848708399,889,461,0,0,0,1,4,3,14,0001-00-0000-41.png,0004-00-0001-79.png
00000009,274,0,1442848711322,1442848712409,924,353,0,0,0,4,5,1,45,0004-00-0000-17.png,0005-00-0006-94.png
00000009,275,1,1442848715607,1442848716290,1096,276,0,0,0,2,1,1,21,0002-00-0001-10.png,0001-00-0000-10.png
00000009,276,0,1442848717111,1442848717215,913,488,0,0,0,2,4,2,24,0002-00-0004-30.png,0004-00-0007-63.png
00000009,277,0,1442848720394,1442848720647,1006,301,0,0,0,3,4,1,34,0003-00-0002-29.png,0004-00-0004-97.png
00000009,278,1,1442848723514,1442848724147,959,351,0,0,0,5,2,3,52,0005-00-0007-54.png,0002-00-0002-64.png
00000009,279,1,1442848725004,1442848725119,915,475,0,0,0,4,1,3,41,0004-00-0007-16.png,0001-00-0008-35.png
00000009,280,0,1442848726269,1442848726347,862,436,0,0,0,2,3,1,23,0002-00-0002-35.png,0003-00-0007-91.png
00000009,281,1,1442848729339,1442848730091,393,404,0,0,0,3,4,1,34,0003-00-0007-00.png,0004-00-0002-60.png
00000009,282,1,1442848730935,1442848732109,480,245,0,0,0,2,4,2,24,0002-00-0005-89.png,0004-00-0001-28.png
00000009,283,1,1442848733105,1442848733907,457,241,0,0,0,1,3,2,13,0001-00-0008-93.png,0003-00-0002-28.png
00000009,284,1,1442848735142,1442848736211,917,336,0,0,0,4,2,2,42,0004-00-0003-63.png,0002-00-0007-08.png
00000009,285,1,1442848737219,1442848737255,864,415,0,0,0,5,4,1,54,0005-00-0007-22.png,0004-00-0009-45.png
00000009,286,1,1442848738450,1442848739650,1045,268,0,0,0,4,1,3,41,0004-00-0000-45.png,0001-00-0005-27.png
00000009,287,1,1442848740648,1442848740676,858,450,0,0,0,4,3,1,43,0004-00-0008-80.png,0003-00-0006-04.png
00000009,288,1,1442848742083,1442848742989,1032,285,0,0,0,5,1,4,51,0005-00-0003-22.png,0001-00-0008-53.png
00000009,289,0,1442848743876,1442848743904,890,405,0,0,0,2,3,1,23,0002-00-0002-43.png,0003-00-0000-70.png
00000009,290,1,1442848746888,1442848747443,948,367,0,0,0,3,2,1,32,0003-00-0005-55.png,0002-00-0002-65.png
00000009,291,1,1442848748706,1442848748782,874,442,0,0,0,2,1,1,21,0002-00-0006-87.png,0001-00-0008-28.png
00000009,292,0,1442848749908,1442848749945,872,411,0,0,0,1,4,3,14,0001-00-0008-40.png,0004-00-0001-14.png
00000009,293,1,1442848753108,1442848753136,923,316,0,0,0,5,3,2,53,0005-00-0002-01.png,0003-00-0003-61.png
00000009,294,0,1442848754150,1442848754198,898,475,0,0,0,2,5,3,25,0002-00-0002-25.png,0005-00-0007-69.png
00000009,295,1,1442848757342,1442848757382,937,352,0,0,0,3,1,2,31,0003-00-0004-27.png,0001-00-0004-41.png
00000009,296,1,1442848758376,1442848758420,888,451,0,0,0,5,2,3,52,0005-00-0003-39.png,0002-00-0002-76.png
00000009,297,1,1442848759484,1442848760575,401,359,0,0,0,1,5,4,15,0001-00-0006-72.png,0005-00-0004-38.png
00000009,298,1,1442848761503,1442848761511,521,538,0,0,0,1,2,1,12,0001-00-0008-69.png,0002-00-0007-86.png
00000009,299,1,1442848762740,1442848763709,490,240,0,0,0,4,5,1,45,0004-00-0005-62.png,0005-00-0006-81.png
00000009,300,0,1442848764683,1442848765279,900,553,0,0,0,3,5,2,35,0003-00-0005-39.png,0005-00-0000-79.png
00000009,301,0,1442848768382,1442848768409,920,367,0,0,0,1,2,1,12,0001-00-0008-21.png,0002-00-0004-75.png
00000009,302,0,1442848771569,1442848771609,956,336,0,0,0,2,5,3,25,0002-00-0003-40.png,0005-00-0001-16.png
00000009,303,1,1442848774722,1442848774738,959,348,0,0,0,5,2,3,52,0005-00-0004-46.png,0002-00-0007-97.png
00000009,304,0,1442848775747,1442848775803,862,454,0,0,0,3,4,1,34,0003-00-0001-80.png,0004-00-0004-78.png
00000009,305,0,1442848778982,1442848779022,921,349,0,0,0,2,4,2,24,0002-00-0009-97.png,0004-00-0003-93.png
00000009,306,1,1442848781966,1442848782559,501,219,0,0,0,1,5,4,15,0001-00-0007-08.png,0005-00-0003-22.png
00000009,307,0,1442848783444,1442848783504,862,410,0,0,0,4,5,1,45,0004-00-0009-42.png,0005-00-0000-40.png
00000009,308,0,1442848786664,1442848787476,372,401,0,0,0,4,3,1,43,0004-00-0004-90.png,0003-00-0003-17.png
00000009,309,1,1442848790800,1442848791376,958,381,0,0,0,5,1,4,51,0005-00-0009-85.png,0001-00-0003-29.png
00000009,310,0,1442848792266,1442848793710,907,345,0,0,0,3,5,2,35,0003-00-0004-18.png,0005-00-0009-88.png
00000009,311,1,1442848796832,1442848796860,979,333,0,0,0,3,1,2,31,0003-00-0004-57.png,0001-00-0001-23.png
00000009,312,0,1442848797836,1442848797896,888,473,0,0,0,1,3,2,13,0001-00-0000-19.png,0003-00-0007-43.png
00000009,313,1,1442848801067,1442848801087,961,344,0,0,0,4,2,2,42,0004-00-0006-47.png,0002-00-0005-05.png
00000009,314,1,1442848802081,1442848802141,865,477,0,0,0,5,4,1,54,0005-00-0009-09.png,0004-00-0003-24.png
00000009,315,1,1442848803121,1442848803717,868,480,0,0,0,3,2,1,32,0003-00-0008-24.png,0002-00-0002-70.png
00000009,316,1,1442848804813,1442848806151,458,237,0,0,0,1,4,3,14,0001-00-0000-59.png,0004-00-0001-19.png
00000009,317,1,1442848807426,1442848808706,1078,253,0,0,0,4,1,3,41,0004-00-0008-16.png,0001-00-0004-17.png
00000009,318,1,1442848809531,1442848809591,895,426,0,0,0,2,1,1,21,0002-00-0004-24.png,0001-00-0000-98.png
00000009,319,1,1442848810783,1442848811491,876,529,0,0,0,5,3,2,53,0005-00-0003-31.png,0003-00-0008-87.png
00000009,320,0,1442848812531,1442848812603,894,451,0,0,0,2,3,1,23,0002-00-0001-95.png,0003-00-0004-49.png
00000009,321,1,1442848815486,1442848816175,925,344,0,0,0,3,1,2,31,0003-00-0001-21.png,0001-00-0002-93.png
00000009,322,0,1442848817456,1442848817531,887,433,0,0,0,2,3,1,23,0002-00-0009-75.png,0003-00-0009-07.png
00000009,323,1,1442848820680,1442848820712,916,354,0,0,0,5,4,1,54,0005-00-0007-09.png,0004-00-0008-73.png
00000009,324,1,1442848821757,1442848822683,903,377,0,0,0,4,1,3,41,0004-00-0001-31.png,0001-00-0003-87.png
00000009,325,1,1442848823622,1442848824903,964,313,0,0,0,5,1,4,51,0005-00-0003-14.png,0001-00-0007-92.png
00000009,326,1,1442848825909,1442848825937,879,462,0,0,0,2,1,1,21,0002-00-0007-84.png,0001-00-0000-69.png
00000009,327,1,1442848826990,1442848827073,864,416,0,0,0,3,2,1,32,0003-00-0005-43.png,0002-00-0004-53.png
00000009,328,0,1442848828352,1442848828394,860,435,0,0,0,3,4,1,34,0003-00-0001-25.png,0004-00-0002-36.png
00000009,329,1,1442848831282,1442848832075,478,252,0,0,0,1,5,4,15,0001-00-0006-46.png,0005-00-0001-69.png
00000009,330,1,1442848832900,1442848832972,870,488,0,0,0,4,2,2,42,0004-00-0009-16.png,0002-00-0008-49.png
00000009,331,1,1442848834005,1442848835166,390,355,0,0,0,2,5,3,25,0002-00-0005-65.png,0005-00-0008-25.png
00000009,332,1,1442848836175,1442848836672,939,541,0,0,0,4,3,1,43,0004-00-0002-43.png,0003-00-0000-71.png
00000009,333,0,1442848837824,1442848837864,903,473,0,0,0,1,3,2,13,0001-00-0007-57.png,0003-00-0003-08.png
00000009,334,1,1442848841051,1442848841234,888,436,0,0,0,5,2,3,52,0005-00-0006-84.png,0002-00-0004-16.png
00000009,335,0,1442848842278,1442848842355,879,443,0,0,0,1,2,1,12,0001-00-0009-47.png,0002-00-0006-10.png
00000009,336,0,1442848845487,1442848845507,914,336,0,0,0,3,5,2,35,0003-00-0006-12.png,0005-00-0008-38.png
00000009,337,1,1442848848410,1442848848959,484,295,0,0,0,1,4,3,14,0001-00-0005-99.png,0004-00-0006-84.png
00000009,338,0,1442848849919,1442848849995,925,426,0,0,0,4,5,1,45,0004-00-0000-12.png,0005-00-0003-45.png
00000009,339,0,1442848853168,1442848853204,975,319,0,0,0,2,4,2,24,0002-00-0005-20.png,0004-00-0005-28.png
00000009,340,1,1442848856356,1442848856372,896,319,0,0,0,5,3,2,53,0005-00-0008-80.png,0003-00-0001-48.png
00000009,341,1,1442848857560,1442848858519,1029,269,0,0,0,4,2,2,42,0004-00-0009-30.png,0002-00-0005-36.png
00000009,342,0,1442848859445,1442848859485,921,456,0,0,0,2,4,2,24,0002-00-0003-19.png,0004-00-0006-47.png
00000009,343,1,1442848862597,1442848862657,956,341,0,0,0,5,3,2,53,0005-00-0006-28.png,0003-00-0004-26.png
00000009,344,0,1442848863610,1442848863702,913,479,0,0,0,1,4,3,14,0001-00-0002-72.png,0004-00-0008-61.png
00000009,345,0,1442848866631,1442848867255,963,331,0,0,0,4,5,1,45,0004-00-0006-50.png,0005-00-0008-96.png
00000009,346,1,1442848870380,1442848871037,1092,279,0,0,0,4,1,3,41,0004-00-0005-30.png,0001-00-0001-67.png
00000009,347,0,1442848872395,1442848872507,937,410,0,0,0,1,5,4,15,0001-00-0002-95.png,0005-00-0007-98.png
00000009,348,1,1442848875766,1442848876495,1073,301,0,0,0,5,4,1,54,0005-00-0004-90.png,0004-00-0008-13.png
00000009,349,1,1442848877433,1442848877513,888,514,0,0,0,5,2,3,52,0005-00-0005-84.png,0002-00-0003-74.png
00000009,350,1,1442848878528,1442848878584,862,425,0,0,0,4,3,1,43,0004-00-0001-57.png,0003-00-0008-71.png
00000009,351,0,1442848879856,1442848879888,884,417,0,0,0,2,5,3,25,0002-00-0005-51.png,0005-00-0000-39.png
00000009,352,0,1442848883038,1442848883058,888,358,0,0,0,1,2,1,12,0001-00-0009-52.png,0002-00-0002-51.png
00000009,353,1,1442848885912,1442848885948,933,386,0,0,0,2,1,1,21,0002-00-0000-88.png,0001-00-0009-28.png
00000009,354,1,1442848886942,1442848887030,913,446,0,0,0,5,1,4,51,0005-00-0005-06.png,0001-00-0003-20.png
00000009,355,0,1442848888243,1442848888283,866,447,0,0,0,1,3,2,13,0001-00-0009-09.png,0003-00-0005-06.png
00000009,356,1,1442848891403,1442848891433,950,331,0,0,0,3,1,2,31,0003-00-0001-95.png,0001-00-0006-88.png
00000009,357,1,1442848892459,1442848892505,885,480,0,0,0,3,2,1,32,0003-00-0003-03.png,0002-00-0008-61.png
00000009,358,1,1442848893533,1442848894760,477,228,0,0,0,3,5,2,35,0003-00-0009-09.png,0005-00-0005-33.png
00000009,359,0,1442848895768,1442848895824,863,439,0,0,0,3,4,1,34,0003-00-0003-39.png,0004-00-0009-52.png
00000009,360,1,1442848898796,1442848899415,497,253,0,0,0,2,3,1,23,0002-00-0007-22.png,0003-00-0002-23.png
00000009,361,1,1442848900854,1442848900974,929,410,0,0,0,5,2,3,52,0005-00-0002-55.png,0002-00-0000-38.png
00000009,362,1,1442848902016,1442848902064,862,395,0,0,0,4,2,2,42,0004-00-0004-96.png,0002-00-0002-34.png
00000009,363,0,1442848903229,1442848903300,862,461,0,0,0,3,4,1,34,0003-00-0009-19.png,0004-00-0006-02.png
00000009,364,1,1442848906320,1442848906933,482,262,0,0,0,2,3,1,23,0002-00-0001-28.png,0003-00-0007-47.png
00000009,365,1,1442848907801,1442848908795,462,261,0,0,0,1,4,3,14,0001-00-0008-09.png,0004-00-0008-61.png
00000009,366,1,1442848909759,1442848911481,1074,277,0,0,0,5,4,1,54,0005-00-0000-00.png,0004-00-0008-02.png
00000009,367,1,1442848912391,1442848912491,862,515,0,0,0,4,1,3,41,0004-00-0004-94.png,0001-00-0002-23.png
00000009,368,1,1442848913924,1442848915044,487,261,0,0,0,3,5,2,35,0003-00-0000-78.png,0005-00-0005-90.png
00000009,369,0,1442848916524,1442848916604,888,436,0,0,0,1,3,2,13,0001-00-0006-52.png,0003-00-0002-84.png
00000009,370,1,1442848919805,1442848920581,473,270,0,0,0,2,5,3,25,0002-00-0000-59.png,0005-00-0005-14.png
00000009,371,0,1442848921463,1442848921514,862,410,0,0,0,2,4,2,24,0002-00-0004-96.png,0004-00-0006-92.png
00000009,372,1,1442848924595,1442848925255,959,349,0,0,0,5,1,4,51,0005-00-0008-88.png,0001-00-0002-60.png
00000009,373,1,1442848926181,1442848926221,913,451,0,0,0,3,1,2,31,0003-00-0008-39.png,0001-00-0006-14.png
00000009,374,1,1442848927167,1442848928331,477,244,0,0,0,1,5,4,15,0001-00-0007-53.png,0005-00-0009-74.png
00000009,375,0,1442848929234,1442848929529,888,474,0,0,0,4,5,1,45,0004-00-0008-54.png,0005-00-0008-13.png
00000009,376,1,1442848933068,1442848933088,914,332,0,0,0,3,2,1,32,0003-00-0008-41.png,0002-00-0000-17.png
00000009,377,1,1442848934106,1442848934939,468,256,0,0,0,1,2,1,12,0001-00-0008-89.png,0002-00-0009-94.png
00000009,378,0,1442848935771,1442848936924,456,250,0,0,0,2,1,1,21,0002-00-0007-72.png,0001-00-0006-19.png
00000009,379,1,1442848939786,1442848939838,961,368,0,0,0,4,3,1,43,0004-00-0000-77.png,0003-00-0007-39.png
00000009,380,1,1442848940838,1442848940901,925,464,0,0,0,5,3,2,53,0005-00-0005-44.png,0003-00-0003-73.png
00000009,381,1,1442848941961,1442848942524,862,488,0,0,0,3,1,2,31,0003-00-0009-33.png,0001-00-0009-89.png
00000009,382,0,1442848943593,1442848943633,932,366,0,0,0,2,4,2,24,0002-00-0008-74.png,0004-00-0000-54.png
00000009,383,1,1442848947148,1442848947167,894,300,0,0,0,5,4,1,54,0005-00-0000-71.png,0004-00-0008-12.png
00000009,384,1,1442848948145,1442848949062,456,244,0,0,0,3,4,1,34,0003-00-0000-97.png,0004-00-0004-01.png
00000009,385,1,1442848949943,1442848951104,460,262,0,0,0,2,5,3,25,0002-00-0002-94.png,0005-00-0000-12.png
00000009,386,1,1442848952179,1442848952970,455,234,0,0,0,1,5,4,15,0001-00-0006-42.png,0005-00-0005-08.png
00000009,387,0,1442848953846,1442848954800,475,228,0,0,0,5,3,2,53,0005-00-0000-40.png,0003-00-0001-86.png
00000009,388,0,1442848957937,1442848957957,867,356,0,0,0,1,4,3,14,0001-00-0006-67.png,0004-00-0003-14.png
00000009,389,0,1442848961112,1442848961128,898,358,0,0,0,3,5,2,35,0003-00-0002-60.png,0005-00-0005-26.png
00000009,390,1,1442848964313,1442848964337,924,318,0,0,0,5,2,3,52,0005-00-0009-61.png,0002-00-0008-87.png
00000009,391,1,1442848965277,1442848965325,913,423,0,0,0,4,1,3,41,0004-00-0007-94.png,0001-00-0003-18.png
00000009,392,1,1442848966245,1442848966287,862,410,0,0,0,4,2,2,42,0004-00-0007-37.png,0002-00-0000-90.png
00000009,393,0,1442848967444,1442848967480,867,442,0,0,0,1,3,2,13,0001-00-0000-91.png,0003-00-0005-43.png
00000009,394,0,1442848970782,1442848970802,904,332,0,0,0,2,3,1,23,0002-00-0007-77.png,0003-00-0000-37.png
00000009,395,1,1442848973734,1442848974667,950,329,0,0,0,4,3,1,43,0004-00-0000-62.png,0003-00-0004-62.png
00000009,396,1,1442848975552,1442848975650,939,462,0,0,0,3,2,1,32,0003-00-0009-40.png,0002-00-0008-46.png
00000009,397,1,1442848976593,1442848978053,461,226,0,0,0,4,5,1,45,0004-00-0001-88.png,0005-00-0001-40.png
00000009,398,1,1442848979019,1442848979087,870,428,0,0,0,2,1,1,21,0002-00-0004-17.png,0001-00-0008-67.png
00000009,399,1,1442848980082,1442848980311,860,481,0,0,0,5,1,4,51,0005-00-0005-92.png,0001-00-0005-45.png
00000009,400,0,1442848981732,1442848981791,862,423,0,0,0,1,2,1,12,0001-00-0008-36.png,0002-00-0004-02.png
00000009,401,0,1442848984943,1442848984963,894,377,0,0,0,1,3,2,13,0001-00-0007-21.png,0003-00-0007-58.png
00000009,402,0,1442848988184,1442848988192,932,335,0,0,0,3,5,2,35,0003-00-0007-32.png,0005-00-0000-91.png
00000009,403,1,1442848991090,1442848992071,1113,302,0,0,0,5,3,2,53,0005-00-0001-27.png,0003-00-0008-01.png
00000009,404,1,1442848992943,1442848993039,913,462,0,0,0,2,1,1,21,0002-00-0009-37.png,0001-00-0007-02.png
00000009,405,1,1442848994015,1442848994055,862,423,0,0,0,3,1,2,31,0003-00-0007-86.png,0001-00-0008-76.png
00000009,406,1,1442848995246,1442848995326,891,472,0,0,0,3,2,1,32,0003-00-0001-25.png,0002-00-0006-46.png
00000009,407,1,1442848996407,1442848996450,901,388,0,0,0,4,3,1,43,0004-00-0006-38.png,0003-00-0001-52.png
00000009,408,0,1442848997687,1442848997794,895,482,0,0,0,3,4,1,34,0003-00-0000-74.png,0004-00-0004-31.png
00000009,409,1,1442849000714,1442849001422,492,262,0,0,0,1,4,3,14,0001-00-0007-09.png,0004-00-0000-04.png
00000009,410,0,1442849002282,1442849002294,864,473,0,0,0,1,2,1,12,0001-00-0001-05.png,0002-00-0002-71.png
00000009,411,1,1442849005490,1442849005502,915,326,0,0,0,4,1,3,41,0004-00-0009-13.png,0001-00-0007-53.png
00000009,412,0,1442849006467,1442849006495,860,385,0,0,0,2,4,2,24,0002-00-0009-03.png,0004-00-0001-26.png
00000009,413,1,1442849009695,1442849010440,990,425,0,0,0,5,1,4,51,0005-00-0001-73.png,0001-00-0008-37.png
00000009,414,1,1442849011366,1442849011402,873,436,0,0,0,5,4,1,54,0005-00-0003-82.png,0004-00-0004-78.png
00000009,415,1,1442849012349,1442849013350,476,235,0,0,0,2,3,1,23,0002-00-0002-95.png,0003-00-0007-42.png
00000009,416,1,1442849014457,1442849015674,451,246,0,0,0,4,5,1,45,0004-00-0009-74.png,0005-00-0007-36.png
00000009,417,0,1442849016692,1442849016740,862,436,0,0,0,2,5,3,25,0002-00-0007-19.png,0005-00-0001-29.png
00000009,418,1,1442849019932,1442849019952,950,333,0,0,0,5,2,3,52,0005-00-0002-71.png,0002-00-0005-35.png
00000009,419,1,1442849020874,1442849021896,949,307,0,0,0,4,2,2,42,0004-00-0007-13.png,0002-00-0000-53.png
00000009,420,0,1442849022771,1442849022831,899,441,0,0,0,1,5,4,15,0001-00-0006-56.png,0005-00-0007-84.png
00000009,421,1,1442849026003,1442849026043,899,351,0,0,0,4,2,2,42,0004-00-0001-10.png,0002-00-0006-41.png
00000009,422,0,1442849026997,1442849027045,893,428,0,0,0,1,5,4,15,0001-00-0002-76.png,0005-00-0000-44.png
00000009,423,1,1442849030196,1442849030228,962,330,0,0,0,5,2,3,52,0005-00-0001-70.png,0002-00-0002-85.png
00000009,424,0,1442849031222,1442849031266,906,470,0,0,0,1,2,1,12,0001-00-0008-65.png,0002-00-0009-69.png
00000009,425,1,1442849034419,1442849034491,993,325,0,0,0,4,1,3,41,0004-00-0001-62.png,0001-00-0005-27.png
00000009,426,1,1442849035440,1442849035520,895,480,0,0,0,2,1,1,21,0002-00-0000-01.png,0001-00-0005-96.png
00000009,427,0,1442849036471,1442849036975,906,549,0,0,0,2,4,2,24,0002-00-0005-18.png,0004-00-0004-58.png
00000009,428,1,1442849039853,1442849040807,1098,292,0,0,0,5,4,1,54,0005-00-0003-81.png,0004-00-0009-03.png
00000009,429,1,1442849041702,1442849041730,862,410,0,0,0,3,2,1,32,0003-00-0008-85.png,0002-00-0000-70.png
00000009,430,1,1442849042747,1442849043858,489,268,0,0,0,3,5,2,35,0003-00-0000-04.png,0005-00-0006-85.png
00000009,431,1,1442849044833,1442849045731,484,282,0,0,0,1,3,2,13,0001-00-0008-99.png,0003-00-0005-68.png
00000009,432,0,1442849046962,1442849047859,937,307,0,0,0,2,3,1,23,0002-00-0004-88.png,0003-00-0003-36.png
00000009,433,1,1442849051064,1442849051737,496,258,0,0,0,4,5,1,45,0004-00-0002-41.png,0005-00-0003-87.png
00000009,434,0,1442849052681,1442849053855,464,260,0,0,0,4,3,1,43,0004-00-0008-07.png,0003-00-0000-93.png
00000009,435,0,1442849057034,1442849057063,959,327,0,0,0,2,5,3,25,0002-00-0000-82.png,0005-00-0001-44.png
00000009,436,1,1442849060141,1442849060176,918,358,0,0,0,5,3,2,53,0005-00-0006-61.png,0003-00-0001-43.png
00000009,437,0,1442849061108,1442849061160,888,423,0,0,0,3,4,1,34,0003-00-0006-82.png,0004-00-0004-33.png
00000009,438,1,1442849064737,1442849065312,940,368,0,0,0,3,1,2,31,0003-00-0006-42.png,0001-00-0001-54.png
00000009,439,0,1442849066153,1442849066221,913,402,0,0,0,1,4,3,14,0001-00-0007-98.png,0004-00-0000-88.png
00000009,440,1,1442849069442,1442849069488,954,339,0,0,0,5,1,4,51,0005-00-0006-68.png,0001-00-0007-34.png
00000009,441,1,1442849070458,1442849070469,872,453,0,0,0,4,2,2,42,0004-00-0008-17.png,0002-00-0001-75.png
00000009,442,1,1442849071561,1442849072672,922,325,0,0,0,5,4,1,54,0005-00-0002-14.png,0004-00-0004-61.png
00000009,443,1,1442849073585,1442849073639,933,368,0,0,0,5,1,4,51,0005-00-0001-97.png,0001-00-0000-73.png
00000009,444,1,1442849074576,1442849075584,482,258,0,0,0,1,3,2,13,0001-00-0005-49.png,0003-00-0007-07.png
00000009,445,1,1442849076613,1442849077431,462,263,0,0,0,1,4,3,14,0001-00-0009-44.png,0004-00-0009-15.png
00000009,446,0,1442849078732,1442849079621,486,260,0,0,0,4,3,1,43,0004-00-0006-04.png,0003-00-0000-55.png
00000009,447,0,1442849082792,1442849082833,913,332,0,0,0,2,3,1,23,0002-00-0004-83.png,0003-00-0003-05.png
00000009,448,0,1442849086858,1442849087550,442,292,0,0,0,2,1,1,21,0002-00-0006-45.png,0001-00-0001-29.png
00000009,449,0,1442849090732,1442849090760,920,332,0,0,0,1,5,4,15,0001-00-0007-49.png,0005-00-0005-38.png
00000009,450,0,1442849093835,1442849094606,1148,275,0,0,0,1,2,1,12,0001-00-0000-02.png,0002-00-0002-41.png
00000009,451,0,1442849097467,1442849097580,956,277,0,0,0,3,4,1,34,0003-00-0007-98.png,0004-00-0009-29.png
00000009,452,0,1442849100779,1442849100799,913,341,0,0,0,3,5,2,35,0003-00-0004-35.png,0005-00-0000-03.png
00000009,453,1,1442849104031,1442849104067,993,304,0,0,0,3,2,1,32,0003-00-0007-23.png,0002-00-0009-16.png
00000009,454,0,1442849105123,1442849105151,885,387,0,0,0,2,5,3,25,0002-00-0002-07.png,0005-00-0007-11.png
00000009,455,1,1442849108019,1442849109130,976,410,0,0,0,3,1,2,31,0003-00-0007-43.png,0001-00-0006-93.png
00000009,456,1,1442849109970,1442849110093,935,437,0,0,0,4,1,3,41,0004-00-0000-76.png,0001-00-0009-38.png
00000009,457,1,1442849111046,1442849111126,888,462,0,0,0,5,3,2,53,0005-00-0005-18.png,0003-00-0002-56.png
00000009,458,0,1442849112210,1442849112270,862,453,0,0,0,2,4,2,24,0002-00-0007-88.png,0004-00-0001-75.png
00000009,459,0,1442849115436,1442849115476,918,330,0,0,0,4,5,1,45,0004-00-0007-47.png,0005-00-0009-25.png
00000009,460,1,1442849118540,1442849119292,945,355,0,0,0,5,2,3,52,0005-00-0005-00.png,0002-00-0008-29.png
00000009,461,0,1442849120716,1442849120804,888,423,0,0,0,1,4,3,14,0001-00-0000-43.png,0004-00-0008-88.png
00000009,462,1,1442849123955,1442849123983,890,333,0,0,0,3,2,1,32,0003-00-0006-82.png,0002-00-0009-74.png
00000009,463,1,1442849124870,1442849125901,398,354,0,0,0,2,4,2,24,0002-00-0009-81.png,0004-00-0006-23.png
00000009,464,0,1442849126916,1442849128664,892,341,0,0,0,4,5,1,45,0004-00-0006-14.png,0005-00-0007-18.png
00000009,465,0,1442849131587,1442849132296,381,380,0,0,0,3,1,2,31,0003-00-0001-15.png,0001-00-0008-96.png
00000009,466,0,1442849135441,1442849135473,892,353,0,0,0,1,3,2,13,0001-00-0008-65.png,0003-00-0001-38.png
00000009,467,1,1442849138674,1442849139527,468,241,0,0,0,1,5,4,15,0001-00-0008-27.png,0005-00-0002-33.png
00000009,468,1,1442849140452,1442849140480,863,413,0,0,0,5,2,3,52,0005-00-0008-43.png,0002-00-0001-08.png
00000009,469,1,1442849141586,1442849141642,866,459,0,0,0,2,1,1,21,0002-00-0000-28.png,0001-00-0009-90.png
00000009,470,1,1442849142817,1442849143973,911,352,0,0,0,4,2,2,42,0004-00-0005-32.png,0002-00-0006-43.png
00000009,471,1,1442849144829,1442849144905,930,463,0,0,0,5,3,2,53,0005-00-0003-60.png,0003-00-0005-36.png
00000009,472,1,1442849145824,1442849146939,433,403,0,0,0,3,4,1,34,0003-00-0001-09.png,0004-00-0002-09.png
00000009,473,0,1442849148024,1442849148064,862,462,0,0,0,2,5,3,25,0002-00-0003-92.png,0005-00-0002-87.png
00000009,474,1,1442849151213,1442849151233,875,337,0,0,0,4,1,3,41,0004-00-0002-36.png,0001-00-0000-68.png
00000009,475,0,1442849152181,1442849152248,916,437,0,0,0,1,2,1,12,0001-00-0006-72.png,0002-00-0004-64.png
00000009,476,0,1442849155446,1442849155494,962,327,0,0,0,2,3,1,23,0002-00-0002-41.png,0003-00-0009-95.png
00000009,477,1,1442849158658,1442849158678,924,322,0,0,0,5,4,1,54,0005-00-0004-52.png,0004-00-0006-85.png
00000009,478,1,1442849159560,1442849159603,862,474,0,0,0,5,1,4,51,0005-00-0002-46.png,0001-00-0006-78.png
00000009,479,1,1442849160594,1442849162049,944,358,0,0,0,4,3,1,43,0004-00-0003-93.png,0003-00-0000-78.png
00000009,480,0,1442849162919,1442849163069,931,444,0,0,0,3,5,2,35,0003-00-0007-82.png,0005-00-0002-96.png
00000009,481,1,1442849166300,1442849166941,1094,280,0,0,0,4,1,3,41,0004-00-0007-18.png,0001-00-0001-91.png
00000009,482,0,1442849168343,1442849168376,883,426,0,0,0,1,5,4,15,0001-00-0002-64.png,0005-00-0005-76.png
00000009,483,1,1442849171517,1442849171541,913,332,0,0,0,4,3,1,43,0004-00-0008-33.png,0003-00-0008-52.png
00000009,484,0,1442849172540,1442849172588,888,471,0,0,0,1,2,1,12,0001-00-0001-55.png,0002-00-0005-40.png
00000009,485,1,1442849175521,1442849176205,939,361,0,0,0,3,2,1,32,0003-00-0005-12.png,0002-00-0007-20.png
00000009,486,0,1442849177046,1442849177160,964,462,0,0,0,4,5,1,45,0004-00-0004-82.png,0005-00-0005-94.png
00000009,487,0,1442849180348,1442849180360,901,358,0,0,0,1,4,3,14,0001-00-0007-20.png,0004-00-0006-91.png
00000009,488,0,1442849183490,1442849183526,972,327,0,0,0,2,3,1,23,0002-00-0003-08.png,0003-00-0001-99.png
00000009,489,1,1442849186407,1442849186450,910,426,0,0,0,5,4,1,54,0005-00-0001-96.png,0004-00-0004-76.png
00000009,490,1,1442849187446,1442849187538,913,454,0,0,0,5,1,4,51,0005-00-0007-76.png,0001-00-0002-00.png
00000009,491,1,1442849188602,1442849188658,862,488,0,0,0,5,3,2,53,0005-00-0004-85.png,0003-00-0000-89.png
00000009,492,0,1442849189731,1442849190403,871,507,0,0,0,3,5,2,35,0003-00-0004-27.png,0005-00-0007-30.png
00000009,493,1,1442849193992,1442849194024,922,301,0,0,0,5,2,3,52,0005-00-0001-46.png,0002-00-0008-14.png
00000009,494,1,1442849194934,1442849196101,465,262,0,0,0,1,3,2,13,0001-00-0009-15.png,0003-00-0004-42.png
00000009,495,1,1442849197064,1442849197112,882,446,0,0,0,4,2,2,42,0004-00-0008-13.png,0002-00-0009-11.png
00000009,496,1,1442849198066,1442849198774,862,504,0,0,0,3,1,2,31,0003-00-0001-07.png,0001-00-0007-74.png
00000009,497,0,1442849199966,1442849200034,947,436,0,0,0,2,4,2,24,0002-00-0004-03.png,0004-00-0009-55.png
00000009,498,1,1442849203186,1442849203206,896,342,0,0,0,2,1,1,21,0002-00-0000-42.png,0001-00-0009-58.png
00000009,499,1,1442849204078,1442849205033,481,217,0,0,0,2,5,3,25,0002-00-0008-01.png,0005-00-0006-37.png
00000009,500,0,1442849206068,1442849206136,888,462,0,0,0,3,4,1,34,0003-00-0004-57.png,0004-00-0007-39.png
00000009,501,1,1442849209045,1442849209946,938,336,0,0,0,5,4,1,54,0005-00-0000-34.png,0004-00-0009-58.png
00000009,502,0,1442849211461,1442849211521,884,410,0,0,0,3,4,1,34,0003-00-0004-75.png,0004-00-0006-49.png
00000009,503,0,1442849214684,1442849214705,891,355,0,0,0,2,5,3,25,0002-00-0008-01.png,0005-00-0002-65.png
00000009,504,0,1442849217617,1442849217657,867,458,0,0,0,4,5,1,45,0004-00-0009-34.png,0005-00-0002-14.png
00000009,505,1,1442849220854,1442849220862,913,358,0,0,0,5,3,2,53,0005-00-0002-47.png,0003-00-0008-43.png
00000009,506,0,1442849221849,1442849221881,904,421,0,0,0,1,2,1,12,0001-00-0008-55.png,0002-00-0009-34.png
00000009,507,1,1442849225115,1442849225770,502,258,0,0,0,1,5,4,15,0001-00-0000-15.png,0005-00-0008-62.png
00000009,508,1,1442849226636,1442849226700,912,366,0,0,0,2,1,1,21,0002-00-0006-56.png,0001-00-0005-28.png
00000009,509,1,1442849227681,1442849228250,913,541,0,0,0,3,2,1,32,0003-00-0009-96.png,0002-00-0003-39.png
00000009,510,0,1442849229320,1442849229356,888,358,0,0,0,2,4,2,24,0002-00-0009-95.png,0004-00-0006-99.png
00000009,511,1,1442849232548,1442849232588,928,305,0,0,0,4,2,2,42,0004-00-0007-71.png,0002-00-0009-55.png
00000009,512,1,1442849233452,1442849233550,888,478,0,0,0,5,2,3,52,0005-00-0002-14.png,0002-00-0004-23.png
00000009,513,1,1442849234595,1442849235791,914,340,0,0,0,3,1,2,31,0003-00-0009-27.png,0001-00-0002-93.png
00000009,514,0,1442849236744,1442849236800,927,403,0,0,0,2,3,1,23,0002-00-0002-42.png,0003-00-0003-36.png
00000009,515,1,1442849239961,1442849240014,913,332,0,0,0,4,3,1,43,0004-00-0005-18.png,0003-00-0001-39.png
00000009,516,0,1442849240909,1442849241008,888,479,0,0,0,3,5,2,35,0003-00-0002-13.png,0005-00-0005-65.png
00000009,517,1,1442849244146,1442849244186,917,330,0,0,0,5,1,4,51,0005-00-0001-69.png,0001-00-0004-91.png
00000009,518,1,1442849245120,1442849246244,408,334,0,0,0,1,4,3,14,0001-00-0003-36.png,0004-00-0003-04.png
00000009,519,0,1442849247263,1442849247315,875,462,0,0,0,1,3,2,13,0001-00-0004-25.png,0003-00-0006-90.png
00000009,520,1,1442849250475,1442849251158,966,356,0,0,0,4,1,3,41,0004-00-0006-61.png,0001-00-0001-17.png
00000009,521,0,1442849252573,1442849252697,929,435,0,0,0,3,4,1,34,0003-00-0008-80.png,0004-00-0008-48.png
00000009,522,1,1442849255870,1442849256544,398,385,0,0,0,1,2,1,12,0001-00-0006-92.png,0002-00-0002-75.png
00000009,523,0,1442849257389,1442849257441,892,440,0,0,0,1,4,3,14,0001-00-0000-99.png,0004-00-0006-29.png
00000009,524,1,1442849262398,1442849262454,939,316,0,0,0,3,2,1,32,0003-00-0008-89.png,0002-00-0003-12.png
00000009,525,0,1442849263512,1442849263552,866,431,0,0,0,2,4,2,24,0002-00-0008-30.png,0004-00-0000-45.png
00000009,526,0,1442849266682,1442849267278,494,268,0,0,0,4,1,3,41,0004-00-0005-32.png,0001-00-0009-51.png
00000009,527,1,1442849270171,1442849270239,877,384,0,0,0,5,2,3,52,0005-00-0004-81.png,0002-00-0003-16.png
00000009,528,1,1442849271227,1442849271388,939,479,0,0,0,5,4,1,54,0005-00-0006-14.png,0004-00-0003-93.png
00000009,529,0,1442849272570,1442849272634,908,497,0,0,0,3,5,2,35,0003-00-0009-02.png,0005-00-0006-73.png
00000009,530,1,1442849275746,1442849276325,1121,280,0,0,0,4,2,2,42,0004-00-0009-64.png,0002-00-0007-85.png
00000009,531,0,1442849277158,1442849277385,938,487,0,0,0,2,3,1,23,0002-00-0009-25.png,0003-00-0002-81.png
00000009,532,1,1442849280558,1442849281262,480,256,0,0,0,2,5,3,25,0002-00-0007-50.png,0005-00-0004-05.png
00000009,533,1,1442849282197,1442849282558,903,487,0,0,0,3,1,2,31,0003-00-0006-52.png,0001-00-0006-92.png
00000009,534,0,1442849283746,1442849283766,888,462,0,0,0,1,3,2,13,0001-00-0009-57.png,0003-00-0007-53.png
00000009,535,1,1442849287035,1442849287055,901,301,0,0,0,4,3,1,43,0004-00-0000-09.png,0003-00-0003-91.png
00000009,536,1,1442849288031,1442849288083,896,456,0,0,0,5,3,2,53,0005-00-0001-11.png,0003-00-0006-34.png
00000009,537,1,1442849289082,1442849289273,862,473,0,0,0,2,1,1,21,0002-00-0005-10.png,0001-00-0005-41.png
00000009,538,1,1442849290524,1442849290572,875,439,0,0,0,5,1,4,51,0005-00-0001-79.png,0001-00-0004-60.png
00000009,539,0,1442849291885,1442849291925,871,463,0,0,0,1,5,4,15,0001-00-0007-25.png,0005-00-0003-85.png
00000009,540,1,1442849294858,1442849295709,472,267,0,0,0,4,5,1,45,0004-00-0002-90.png,0005-00-0001-14.png
00000009,541,1,1442849296666,1442849296718,895,455,0,0,0,4,1,3,41,0004-00-0006-33.png,0001-00-0001-46.png
00000009,542,0,1442849297906,1442849297966,860,465,0,0,0,1,3,2,13,0001-00-0000-03.png,0003-00-0009-47.png
00000009,543,1,1442849301262,1442849301274,933,305,0,0,0,3,1,2,31,0003-00-0003-00.png,0001-00-0008-97.png
00000009,544,0,1442849302263,1442849302319,869,482,0,0,0,3,4,1,34,0003-00-0002-38.png,0004-00-0006-71.png
00000009,545,1,1442849305529,1442849306163,949,355,0,0,0,4,2,2,42,0004-00-0006-36.png,0002-00-0001-38.png
00000009,546,1,1442849307487,1442849307629,927,436,0,0,0,5,2,3,52,0005-00-0000-71.png,0002-00-0002-60.png
00000009,547,1,1442849308696,1442849309715,385,339,0,0,0,2,4,2,24,0002-00-0007-41.png,0004-00-0002-32.png
00000009,548,0,1442849310725,1442849310828,906,495,0,0,0,2,3,1,23,0002-00-0004-30.png,0003-00-0001-14.png
00000009,549,1,1442849313764,1442849314424,454,286,0,0,0,1,4,3,14,0001-00-0007-93.png,0004-00-0008-88.png
00000009,550,1,1442849315802,1442849316822,457,240,0,0,0,4,5,1,45,0004-00-0009-77.png,0005-00-0002-16.png
00000009,551,1,1442849317812,1442849319152,374,376,0,0,0,3,5,2,35,0003-00-0009-64.png,0005-00-0004-41.png
00000009,552,1,1442849320067,1442849321001,437,279,0,0,0,1,2,1,12,0001-00-0005-03.png,0002-00-0003-58.png
00000009,553,0,1442849322038,1442849323050,478,217,0,0,0,2,1,1,21,0002-00-0002-34.png,0001-00-0008-15.png
00000009,554,1,1442849326238,1442849326266,930,347,0,0,0,5,4,1,54,0005-00-0007-70.png,0004-00-0008-75.png
00000009,555,1,1442849327946,1442849327954,893,394,0,0,0,3,2,1,32,0003-00-0002-29.png,0002-00-0007-93.png
00000009,556,1,1442849329118,1442849329158,881,419,0,0,0,5,3,2,53,0005-00-0006-44.png,0003-00-0009-11.png
00000009,557,1,1442849330252,1442849330344,913,541,0,0,0,5,1,4,51,0005-00-0006-81.png,0001-00-0003-72.png
00000009,558,1,1442849331488,1442849332006,901,554,0,0,0,4,3,1,43,0004-00-0006-95.png,0003-00-0006-03.png
00000009,559,0,1442849333246,1442849333286,907,422,0,0,0,2,5,3,25,0002-00-0008-94.png,0005-00-0003-29.png
00000009,560,1,1442849336493,1442849337125,478,254,0,0,0,1,5,4,15,0001-00-0001-53.png,0005-00-0000-23.png
00000009,561,0,1442849338488,1442849338528,861,411,0,0,0,2,3,1,23,0002-00-0009-51.png,0003-00-0007-92.png
00000009,562,0,1442849341601,1442849341625,898,387,0,0,0,3,5,2,35,0003-00-0000-09.png,0005-00-0006-55.png
00000009,563,1,1442849344868,1442849344884,918,325,0,0,0,3,2,1,32,0003-00-0001-01.png,0002-00-0009-15.png
00000009,564,1,1442849345815,1442849345835,888,422,0,0,0,4,2,2,42,0004-00-0003-53.png,0002-00-0004-70.png
00000009,565,1,1442849346766,1442849348482,365,373,0,0,0,1,3,2,13,0001-00-0006-48.png,0003-00-0002-40.png
00000009,566,1,1442849349491,1442849349527,862,440,0,0,0,3,1,2,31,0003-00-0009-45.png,0001-00-0009-26.png
00000009,567,0,1442849350741,1442849350769,864,446,0,0,0,1,5,4,15,0001-00-0002-37.png,0005-00-0008-12.png
00000009,568,0,1442849353775,1442849354431,504,278,0,0,0,5,2,3,52,0005-00-0002-68.png,0002-00-0009-59.png
00000009,569,0,1442849357614,1442849358515,483,288,0,0,0,5,4,1,54,0005-00-0007-41.png,0004-00-0005-41.png
00000009,570,0,1442849361685,1442849361709,939,332,0,0,0,1,4,3,14,0001-00-0007-70.png,0004-00-0006-77.png
00000009,571,0,1442849364886,1442849364910,888,332,0,0,0,1,2,1,12,0001-00-0008-77.png,0002-00-0002-70.png
00000009,572,1,1442849367805,1442849368659,504,241,0,0,0,3,4,1,34,0003-00-0007-50.png,0004-00-0003-69.png
00000009,573,1,1442849369615,1442849369679,905,419,0,0,0,4,1,3,41,0004-00-0007-26.png,0001-00-0003-93.png
00000009,574,1,1442849370706,1442849371341,913,541,0,0,0,5,1,4,51,0005-00-0008-46.png,0001-00-0007-34.png
00000009,575,0,1442849372376,1442849372396,898,426,0,0,0,2,5,3,25,0002-00-0002-17.png,0005-00-0008-58.png
00000009,576,0,1442849375557,1442849375605,955,332,0,0,0,4,5,1,45,0004-00-0008-25.png,0005-00-0004-23.png
00000009,577,1,1442849379181,1442849379201,914,342,0,0,0,4,3,1,43,0004-00-0003-50.png,0003-00-0004-16.png
00000009,578,0,1442849380228,1442849380276,869,426,0,0,0,2,4,2,24,0002-00-0003-32.png,0004-00-0009-40.png
00000009,579,0,1442849383386,1442849384201,478,267,0,0,0,2,1,1,21,0002-00-0005-75.png,0001-00-0007-42.png
00000009,580,1,1442849387193,1442849387935,949,393,0,0,0,5,3,2,53,0005-00-0000-03.png,0003-00-0007-21.png
00000009,581,0,1442849388852,1442849388916,887,471,0,0,0,1,5,4,15,0001-00-0008-32.png,0005-00-0001-36.png
00000009,582,1,1442849392114,1442849392839,935,346,0,0,0,5,1,4,51,0005-00-0009-46.png,0001-00-0005-55.png
00000009,583,0,1442849394346,1442849394434,894,452,0,0,0,1,2,1,12,0001-00-0004-74.png,0002-00-0000-08.png
00000009,584,1,1442849397599,1442849397635,903,348,0,0,0,4,2,2,42,0004-00-0000-08.png,0002-00-0007-74.png
00000009,585,1,1442849398613,1442849398687,939,514,0,0,0,2,1,1,21,0002-00-0004-35.png,0001-00-0005-00.png
00000009,586,0,1442849400310,1442849400473,899,541,0,0,0,2,5,3,25,0002-00-0004-22.png,0005-00-0000-51.png
00000009,587,1,1442849403611,1442849404348,481,284,0,0,0,1,3,2,13,0001-00-0002-59.png,0003-00-0006-32.png
00000009,588,1,1442849405270,1442849405468,877,448,0,0,0,5,2,3,52,0005-00-0004-90.png,0002-00-0005-62.png
00000009,589,1,1442849406759,1442849406807,877,439,0,0,0,5,4,1,54,0005-00-0007-64.png,0004-00-0001-68.png
00000009,590,1,1442849408071,1442849408123,873,436,0,0,0,3,1,2,31,0003-00-0000-90.png,0001-00-0008-32.png
00000009,591,0,1442849409459,1442849409511,894,447,0,0,0,3,4,1,34,0003-00-0000-25.png,0004-00-0001-46.png
00000009,592,1,1442849412340,1442849413096,389,367,0,0,0,1,4,3,14,0001-00-0006-28.png,0004-00-0009-35.png
00000009,593,1,1442849413962,1442849414985,469,243,0,0,0,2,4,2,24,0002-00-0009-79.png,0004-00-0004-24.png
00000009,594,1,1442849415959,1442849415983,860,466,0,0,0,4,1,3,41,0004-00-0004-06.png,0001-00-0006-89.png
00000009,595,0,1442849417668,1442849417811,862,473,0,0,0,4,5,1,45,0004-00-0009-77.png,0005-00-0008-60.png
00000009,596,0,1442849420772,1442849421711,954,382,0,0,0,2,3,1,23,0002-00-0008-42.png,0003-00-0008-43.png
00000009,597,0,1442849424897,1442849424925,931,329,0,0,0,3,5,2,35,0003-00-0004-79.png,0005-00-0009-52.png
00000009,598,1,1442849428107,1442849428817,964,349,0,0,0,3,2,1,32,0003-00-0003-27.png,0002-00-0002-00.png
00000009,599,1,1442849429641,1442849429713,892,487,0,0,0,5,3,2,53,0005-00-0007-54.png,0003-00-0008-27.png
00000009,600,1,1442849430709,1442849431887,1064,278,0,0,0,4,3,1,43,0004-00-0006-37.png,0003-00-0006-89.png
00000009,601,0,1442849432754,1442849432782,887,440,0,0,0,3,5,2,35,0003-00-0006-89.png,0005-00-0000-27.png
00000009,602,1,1442849435686,1442849435714,478,500,0,0,0,1,3,2,13,0001-00-0004-42.png,0003-00-0008-83.png
00000009,603,0,1442849436653,1442849436729,862,452,0,0,0,1,2,1,12,0001-00-0004-15.png,0002-00-0000-91.png
00000009,604,1,1442849439871,1442849440570,950,355,0,0,0,2,1,1,21,0002-00-0005-54.png,0001-00-0005-50.png
00000009,605,1,1442849442028,1442849442100,888,410,0,0,0,5,3,2,53,0005-00-0003-87.png,0003-00-0003-53.png
00000009,606,0,1442849443248,1442849443280,890,411,0,0,0,2,5,3,25,0002-00-0008-29.png,0005-00-0001-82.png
00000009,607,0,1442849446420,1442849446436,870,349,0,0,0,2,4,2,24,0002-00-0003-92.png,0004-00-0005-97.png
00000009,608,0,1442849449568,1442849450232,1089,304,0,0,0,1,5,4,15,0001-00-0003-52.png,0005-00-0004-59.png
00000009,609,1,1442849453415,1442849453443,918,334,0,0,0,4,2,2,42,0004-00-0003-94.png,0002-00-0006-07.png
00000009,610,1,1442849454508,1442849454552,885,497,0,0,0,5,1,4,51,0005-00-0007-74.png,0001-00-0002-06.png
00000009,611,1,1442849455648,1442849456278,939,541,0,0,0,4,1,3,41,0004-00-0008-09.png,0001-00-0004-61.png
00000009,612,0,1442849457260,1442849457288,886,447,0,0,0,2,3,1,23,0002-00-0005-78.png,0003-00-0008-48.png
00000009,613,0,1442849460210,1442849461303,465,252,0,0,0,5,4,1,54,0005-00-0009-04.png,0004-00-0006-83.png
00000009,614,1,1442849464541,1442849465265,466,272,0,0,0,1,4,3,14,0001-00-0001-72.png,0004-00-0008-11.png
00000009,615,0,1442849466218,1442849466404,878,497,0,0,0,3,4,1,34,0003-00-0003-71.png,0004-00-0003-99.png
00000009,616,1,1442849469524,1442849469819,893,337,0,0,0,4,3,1,43,0004-00-0008-03.png,0003-00-0002-53.png
00000009,617,1,1442849471152,1442849471220,900,416,0,0,0,3,2,1,32,0003-00-0007-08.png,0002-00-0003-66.png
00000009,618,1,1442849472442,1442849472534,885,436,0,0,0,3,1,2,31,0003-00-0004-53.png,0001-00-0003-00.png
00000009,619,0,1442849473671,1442849473734,882,476,0,0,0,4,5,1,45,0004-00-0008-17.png,0005-00-0006-34.png
00000009,620,1,1442849476637,1442849477230,1095,309,0,0,0,5,2,3,52,0005-00-0004-70.png,0002-00-0001-82.png
00000009,621,1,1442849478626,1442849478658,873,392,0,0,0,2,1,1,21,0002-00-0001-88.png,0001-00-0004-71.png
00000009,622,0,1442849479927,1442849479979,862,436,0,0,0,1,3,2,13,0001-00-0008-78.png,0003-00-0004-79.png
00000009,623,1,1442849483049,1442849483807,970,387,0,0,0,5,2,3,52,0005-00-0003-18.png,0002-00-0001-36.png
00000009,624,1,1442849484728,1442849485872,1067,280,0,0,0,4,1,3,41,0004-00-0002-23.png,0001-00-0006-37.png
00000009,625,0,1442849486834,1442849486870,862,410,0,0,0,2,4,2,24,0002-00-0008-36.png,0004-00-0003-47.png
00000009,626,1,1442849489915,1442849489983,939,384,0,0,0,3,1,2,31,0003-00-0009-35.png,0001-00-0004-49.png
00000009,627,0,1442849490895,1442849491002,869,478,0,0,0,3,4,1,34,0003-00-0007-07.png,0004-00-0001-27.png
00000009,628,1,1442849494175,1442849494793,435,246,0,0,0,2,5,3,25,0002-00-0002-32.png,0005-00-0009-46.png
00000009,629,0,1442849495905,1442849495965,873,462,0,0,0,1,4,3,14,0001-00-0004-09.png,0004-00-0006-43.png
00000009,630,0,1442849499095,1442849499111,888,384,0,0,0,3,5,2,35,0003-00-0004-15.png,0005-00-0004-41.png
00000009,631,1,1442849501949,1442849502061,865,490,0,0,0,5,4,1,54,0005-00-0001-98.png,0004-00-0005-77.png
00000009,632,1,1442849503048,1442849504222,1091,277,0,0,0,5,3,2,53,0005-00-0001-67.png,0003-00-0006-79.png
00000009,633,1,1442849505146,1442849505161,917,406,0,0,0,3,2,1,32,0003-00-0002-88.png,0002-00-0007-81.png
00000009,634,1,1442849506307,1442849507309,471,249,0,0,0,4,5,1,45,0004-00-0000-71.png,0005-00-0000-00.png
00000009,635,1,1442849508296,1442849508320,915,437,0,0,0,4,2,2,42,0004-00-0009-60.png,0002-00-0002-14.png
00000009,636,1,1442849509409,1442849509433,886,394,0,0,0,4,3,1,43,0004-00-0001-62.png,0003-00-0003-23.png
00000009,637,0,1442849510749,1442849510800,880,469,0,0,0,1,5,4,15,0001-00-0005-28.png,0005-00-0007-91.png
00000009,638,0,1442849513961,1442849514021,921,344,0,0,0,2,3,1,23,0002-00-0001-27.png,0003-00-0003-44.png
00000009,639,1,1442849517200,1442849517836,965,347,0,0,0,5,1,4,51,0005-00-0007-14.png,0001-00-0008-45.png
00000009,640,0,1442849518689,1442849518796,923,443,0,0,0,1,2,1,12,0001-00-0008-06.png,0002-00-0008-88.png
00000009,641,1,1442849521774,1442849522457,1088,295,0,0,0,4,1,3,41,0004-00-0005-65.png,0001-00-0004-95.png
00000009,642,1,1442849523340,1442849523470,913,499,0,0,0,5,1,4,51,0005-00-0009-75.png,0001-00-0001-80.png
00000009,643,1,1442849524495,1442849524543,864,406,0,0,0,2,1,1,21,0002-00-0009-11.png,0001-00-0004-23.png
00000009,644,0,1442849525865,1442849525885,888,410,0,0,0,1,2,1,12,0001-00-0006-03.png,0002-00-0002-60.png
00000009,645,1,1442849529066,1442849529683,974,356,0,0,0,3,1,2,31,0003-00-0006-90.png,0001-00-0003-06.png
00000009,646,0,1442849531001,1442849531084,913,436,0,0,0,4,5,1,45,0004-00-0005-72.png,0005-00-0005-00.png
00000009,647,0,1442849534265,1442849534293,888,368,0,0,0,1,4,3,14,0001-00-0000-36.png,0004-00-0009-83.png
00000009,648,1,1442849537474,1442849538487,453,289,0,0,0,2,3,1,23,0002-00-0003-66.png,0003-00-0000-99.png
00000009,649,1,1442849539432,1442849539911,926,554,0,0,0,4,3,1,43,0004-00-0003-18.png,0003-00-0006-38.png
00000009,650,0,1442849540988,1442849541019,867,437,0,0,0,3,5,2,35,0003-00-0008-82.png,0005-00-0008-51.png
00000009,651,1,1442849543845,1442849544843,940,335,0,0,0,5,4,1,54,0005-00-0004-86.png,0004-00-0009-41.png
00000009,652,0,1442849545699,1442849545749,888,410,0,0,0,2,4,2,24,0002-00-0007-54.png,0004-00-0003-55.png
00000009,653,0,1442849549349,1442849549377,910,358,0,0,0,3,4,1,34,0003-00-0003-80.png,0004-00-0009-15.png
00000009,654,0,1442849552539,1442849552559,941,338,0,0,0,1,5,4,15,0001-00-0001-62.png,0005-00-0009-55.png
00000009,655,1,1442849555730,1442849555746,888,332,0,0,0,3,2,1,32,0003-00-0002-59.png,0002-00-0000-03.png
00000009,656,1,1442849557445,1442849558434,1066,253,0,0,0,5,2,3,52,0005-00-0002-71.png,0002-00-0000-52.png
00000009,657,1,1442849560199,1442849560914,934,376,0,0,0,5,3,2,53,0005-00-0005-34.png,0003-00-0008-77.png
00000009,658,0,1442849561888,1442849562908,370,374,0,0,0,4,2,2,42,0004-00-0005-25.png,0002-00-0000-51.png
00000009,659,0,1442849566073,1442849566101,889,333,0,0,0,1,3,2,13,0001-00-0007-00.png,0003-00-0001-68.png
00000009,660,1,1442849569264,1442849569832,493,253,0,0,0,2,5,3,25,0002-00-0005-35.png,0005-00-0000-85.png
00000009,661,1,1442849570733,1442849570793,913,514,0,0,0,4,1,3,41,0004-00-0005-86.png,0001-00-0009-58.png
00000009,662,0,1442849571937,1442849571969,868,479,0,0,0,1,4,3,14,0001-00-0001-45.png,0004-00-0007-20.png
00000009,663,1,1442849575118,1442849575770,933,368,0,0,0,3,2,1,32,0003-00-0000-91.png,0002-00-0009-05.png
00000009,664,0,1442849577001,1442849577891,460,247,0,0,0,2,1,1,21,0002-00-0009-32.png,0001-00-0007-07.png
00000009,665,1,1442849580722,1442849581479,494,240,0,0,0,2,5,3,25,0002-00-0002-92.png,0005-00-0009-02.png
00000009,666,0,1442849582391,1442849582447,871,436,0,0,0,2,3,1,23,0002-00-0005-84.png,0003-00-0002-32.png
00000009,667,0,1442849585571,1442849586277,1116,272,0,0,0,1,5,4,15,0001-00-0001-24.png,0005-00-0007-59.png
00000009,668,0,1442849589474,1442849589534,919,306,0,0,0,3,5,2,35,0003-00-0005-88.png,0005-00-0007-86.png
00000009,669,1,1442849592677,1442849592725,938,332,0,0,0,4,2,2,42,0004-00-0002-34.png,0002-00-0001-55.png
00000009,670,0,1442849593765,1442849593809,913,421,0,0,0,1,3,2,13,0001-00-0006-92.png,0003-00-0005-36.png
00000009,671,0,1442849596986,1442849597666,495,246,0,0,0,5,2,3,52,0005-00-0009-90.png,0002-00-0002-72.png
00000009,672,0,1442849600852,1442849600860,897,358,0,0,0,1,2,1,12,0001-00-0009-46.png,0002-00-0001-18.png
00000009,673,1,1442849604013,1442849604053,917,332,0,0,0,5,4,1,54,0005-00-0005-20.png,0004-00-0009-36.png
00000009,674,1,1442849605102,1442849606128,463,251,0,0,0,2,4,2,24,0002-00-0001-69.png,0004-00-0006-59.png
00000009,675,0,1442849607125,1442849607145,864,421,0,0,0,3,4,1,34,0003-00-0005-59.png,0004-00-0004-76.png
00000009,676,1,1442849610345,1442849611521,457,259,0,0,0,4,5,1,45,0004-00-0003-62.png,0005-00-0008-90.png
00000009,677,1,1442849612440,1442849612492,862,436,0,0,0,5,1,4,51,0005-00-0006-84.png,0001-00-0001-25.png
00000009,678,0,1442849613600,1442849614548,491,276,0,0,0,5,3,2,53,0005-00-0000-96.png,0003-00-0005-53.png
00000009,679,1,1442849617689,1442849618339,1095,293,0,0,0,3,1,2,31,0003-00-0008-20.png,0001-00-0000-50.png
00000009,680,1,1442849619741,1442849619804,885,414,0,0,0,4,3,1,43,0004-00-0005-07.png,0003-00-0007-77.png
00000009,681,1,1442849620887,1442849620935,875,462,0,0,0,3,2,1,32,0003-00-0004-38.png,0002-00-0006-68.png
00000009,682,0,1442849622116,1442849622168,858,472,0,0,0,1,4,3,14,0001-00-0009-61.png,0004-00-0008-66.png
00000009,683,1,1442849627903,1442849628537,926,374,0,0,0,5,4,1,54,0005-00-0002-23.png,0004-00-0005-02.png
00000009,684,1,1442849629502,1442849630546,955,443,0,0,0,4,2,2,42,0004-00-0005-31.png,0002-00-0007-12.png
00000009,685,1,1442849631498,1442849631538,917,438,0,0,0,4,1,3,41,0004-00-0009-78.png,0001-00-0002-40.png
00000009,686,0,1442849632729,1442849632809,880,462,0,0,0,3,4,1,34,0003-00-0006-83.png,0004-00-0001-60.png
00000009,687,1,1442849635988,1442849636012,918,321,0,0,0,5,1,4,51,0005-00-0008-89.png,0001-00-0004-17.png
00000009,688,1,1442849636944,1442849637035,882,498,0,0,0,5,2,3,52,0005-00-0004-40.png,0002-00-0000-62.png
00000009,689,1,1442849637967,1442849638255,858,505,0,0,0,3,1,2,31,0003-00-0001-62.png,0001-00-0001-05.png
00000009,690,1,1442849639467,1442849639495,877,435,0,0,0,5,3,2,53,0005-00-0003-21.png,0003-00-0006-63.png
00000009,691,1,1442849640730,1442849641613,460,253,0,0,0,2,3,1,23,0002-00-0000-69.png,0003-00-0005-16.png
00000009,692,1,1442849642540,1442849643255,872,514,0,0,0,4,3,1,43,0004-00-0004-01.png,0003-00-0002-59.png
00000009,693,0,1442849644180,1442849644220,882,443,0,0,0,1,5,4,15,0001-00-0004-84.png,0005-00-0007-03.png
00000009,694,1,1442849647569,1442849647577,862,332,0,0,0,2,1,1,21,0002-00-0000-31.png,0001-00-0005-09.png
00000009,695,1,1442849648502,1442849649416,463,249,0,0,0,2,4,2,24,0002-00-0001-36.png,0004-00-0009-04.png
00000009,696,0,1442849650351,1442849650367,862,492,0,0,0,2,5,3,25,0002-00-0001-89.png,0005-00-0004-51.png
00000009,697,0,1442849653501,1442849653525,900,376,0,0,0,4,5,1,45,0004-00-0005-23.png,0005-00-0005-65.png
00000009,698,0,1442849656669,1442849656697,907,342,0,0,0,1,3,2,13,0001-00-0006-36.png,0003-00-0007-44.png
00000009,699,1,1442849659791,1442849660486,499,264,0,0,0,1,2,1,12,0001-00-0002-32.png,0002-00-0009-51.png
00000009,700,0,1442849661388,1442849661428,862,449,0,0,0,3,5,2,35,0003-00-0002-32.png,0005-00-0005-63.png
00000009,701,0,1442849664517,1442849664586,932,353,0,0,0,2,3,1,23,0002-00-0001-28.png,0003-00-0002-96.png
00000009,702,0,1442849667486,1442849667504,932,429,0,0,0,2,5,3,25,0002-00-0000-62.png,0005-00-0002-52.png
00000009,703,1,1442849670512,1442849671197,931,380,0,0,0,5,2,3,52,0005-00-0005-59.png,0002-00-0009-95.png
00000009,704,0,1442849672031,1442849672095,913,519,0,0,0,2,4,2,24,0002-00-0003-52.png,0004-00-0002-07.png
00000009,705,1,1442849675273,1442849675933,932,359,0,0,0,4,3,1,43,0004-00-0007-86.png,0003-00-0007-93.png
00000009,706,1,1442849677327,1442849677427,913,425,0,0,0,5,1,4,51,0005-00-0008-16.png,0001-00-0002-21.png
00000009,707,0,1442849678640,1442849678700,878,436,0,0,0,1,2,1,12,0001-00-0000-13.png,0002-00-0002-65.png
00000009,708,1,1442849681625,1442849682276,960,351,0,0,0,3,1,2,31,0003-00-0008-27.png,0001-00-0008-01.png
00000009,709,1,1442849683101,1442849684146,921,330,0,0,0,2,1,1,21,0002-00-0000-82.png,0001-00-0009-40.png
00000009,710,0,1442849685089,1442849685129,917,372,0,0,0,3,5,2,35,0003-00-0005-24.png,0005-00-0009-70.png
00000009,711,0,1442849688259,1442849688952,490,234,0,0,0,4,2,2,42,0004-00-0002-13.png,0002-00-0008-46.png
00000009,712,1,1442849692168,1442849692172,924,338,0,0,0,4,1,3,41,0004-00-0004-39.png,0001-00-0007-85.png
00000009,713,0,1442849693057,1442849693121,868,482,0,0,0,4,5,1,45,0004-00-0002-53.png,0005-00-0008-31.png
00000009,714,1,1442849696209,1442849696530,929,305,0,0,0,3,2,1,32,0003-00-0004-69.png,0002-00-0006-45.png
00000009,715,0,1442849697378,1442849697472,888,514,0,0,0,1,5,4,15,0001-00-0006-35.png,0005-00-0009-48.png
00000009,716,1,1442849700654,1442849700662,902,359,0,0,0,5,3,2,53,0005-00-0009-35.png,0003-00-0004-53.png
00000009,717,0,1442849701556,1442849701604,885,447,0,0,0,1,3,2,13,0001-00-0006-09.png,0003-00-0001-78.png
00000009,718,0,1442849704926,1442849705644,476,265,0,0,0,5,4,1,54,0005-00-0001-31.png,0004-00-0007-96.png
00000009,719,0,1442849708857,1442849708889,939,316,0,0,0,3,4,1,34,0003-00-0003-07.png,0004-00-0005-38.png
00000009,720,1,1442849711780,1442849712425,492,252,0,0,0,1,4,3,14,0001-00-0007-35.png,0004-00-0009-03.png
00000009,721,0,1442849713331,1442849713343,915,391,0,0,0,3,4,1,34,0003-00-0000-42.png,0004-00-0009-19.png
00000009,722,1,1442849716579,1442849717163,504,263,0,0,0,1,5,4,15,0001-00-0002-63.png,0005-00-0005-92.png
00000009,723,0,1442849718093,1442849718508,876,488,0,0,0,1,3,2,13,0001-00-0008-01.png,0003-00-0001-67.png
00000009,724,0,1442849722533,1442849722561,881,340,0,0,0,3,5,2,35,0003-00-0005-12.png,0005-00-0000-30.png
00000009,725,1,1442849725733,1442849725761,944,345,0,0,0,2,1,1,21,0002-00-0008-97.png,0001-00-0004-39.png
00000009,726,1,1442849726790,1442849726824,941,399,0,0,0,3,2,1,32,0003-00-0008-94.png,0002-00-0005-50.png
00000009,727,1,1442849727797,1442849728842,377,384,0,0,0,2,3,1,23,0002-00-0001-10.png,0003-00-0001-87.png
00000009,728,1,1442849730225,1442849730311,920,400,0,0,0,5,2,3,52,0005-00-0000-59.png,0002-00-0004-85.png
00000009,729,1,1442849731431,1442849732469,490,239,0,0,0,1,4,3,14,0001-00-0007-34.png,0004-00-0003-87.png
00000009,730,1,1442849733441,1442849734404,925,311,0,0,0,3,1,2,31,0003-00-0000-02.png,0001-00-0001-38.png
00000009,731,0,1442849735311,1442849735391,913,421,0,0,0,2,4,2,24,0002-00-0009-57.png,0004-00-0009-20.png
00000009,732,1,1442849738549,1442849738577,888,332,0,0,0,5,4,1,54,0005-00-0000-85.png,0004-00-0003-97.png
00000009,733,1,1442849739644,1442849740454,453,244,0,0,0,1,2,1,12,0001-00-0002-09.png,0002-00-0002-99.png
00000009,734,1,1442849741435,1442849742286,938,318,0,0,0,5,1,4,51,0005-00-0005-80.png,0001-00-0001-16.png
00000009,735,0,1442849743169,1442849744272,956,347,0,0,0,4,5,1,45,0004-00-0001-32.png,0005-00-0002-67.png
00000009,736,1,1442849747225,1442849747947,935,374,0,0,0,5,3,2,53,0005-00-0008-85.png,0003-00-0006-18.png
00000009,737,1,1442849749290,1442849749797,928,529,0,0,0,4,1,3,41,0004-00-0007-98.png,0001-00-0000-87.png
00000009,738,0,1442849750883,1442849750911,884,459,0,0,0,2,5,3,25,0002-00-0009-74.png,0005-00-0000-53.png
00000009,739,0,1442849753842,1442849754816,452,251,0,0,0,4,3,1,43,0004-00-0000-83.png,0003-00-0001-89.png
00000009,740,1,1442849759222,1442849759821,1021,297,0,0,0,4,2,2,42,0004-00-0007-78.png,0002-00-0006-00.png
00000009,741,0,1442849760904,1442849762113,1067,283,0,0,0,3,4,1,34,0003-00-0005-76.png,0004-00-0003-88.png
00000009,742,1,1442849765035,1442849765631,1057,306,0,0,0,3,1,2,31,0003-00-0003-10.png,0001-00-0000-00.png
00000009,743,1,1442849766922,1442849767855,947,345,0,0,0,5,1,4,51,0005-00-0007-25.png,0001-00-0009-04.png
00000009,744,0,1442849768718,1442849768754,888,433,0,0,0,2,4,2,24,0002-00-0004-26.png,0004-00-0009-61.png
00000009,745,0,1442849771900,1442849771932,917,327,0,0,0,1,3,2,13,0001-00-0005-91.png,0003-00-0004-29.png
00000009,746,1,1442849774912,1442849775548,929,351,0,0,0,4,3,1,43,0004-00-0005-97.png,0003-00-0006-55.png
00000009,747,1,1442849776798,1442849776877,913,473,0,0,0,4,1,3,41,0004-00-0001-14.png,0001-00-0003-41.png
00000009,748,0,1442849778050,1442849778078,884,411,0,0,0,2,5,3,25,0002-00-0003-51.png,0005-00-0008-95.png
00000009,749,1,1442849781220,1442849781232,866,364,0,0,0,5,3,2,53,0005-00-0002-65.png,0003-00-0001-74.png
00000009,750,1,1442849782205,1442849782233,862,436,0,0,0,5,2,3,52,0005-00-0005-92.png,0002-00-0001-26.png
00000009,751,0,1442849783356,1442849783891,862,500,0,0,0,1,4,3,14,0001-00-0008-41.png,0004-00-0008-18.png
00000009,752,1,1442849786722,1442849787359,932,351,0,0,0,2,1,1,21,0002-00-0004-87.png,0001-00-0002-46.png
00000009,753,0,1442849788188,1442849788236,939,436,0,0,0,4,5,1,45,0004-00-0003-77.png,0005-00-0006-30.png
00000009,754,1,1442849791199,1442849791787,478,265,0,0,0,2,3,1,23,0002-00-0004-99.png,0003-00-0009-87.png
00000009,755,1,1442849792729,1442849792797,910,449,0,0,0,5,4,1,54,0005-00-0001-12.png,0004-00-0007-45.png
00000009,756,0,1442849793722,1442849794630,464,246,0,0,0,4,2,2,42,0004-00-0003-20.png,0002-00-0003-32.png
00000009,757,0,1442849797776,1442849797816,895,331,0,0,0,1,2,1,12,0001-00-0005-45.png,0002-00-0006-90.png
00000009,758,0,1442849800898,1442849800947,898,423,0,0,0,1,5,4,15,0001-00-0007-53.png,0005-00-0005-49.png
00000009,759,1,1442849804123,1442849804753,1076,297,0,0,0,3,2,1,32,0003-00-0005-87.png,0002-00-0003-37.png
00000009,760,0,1442849805584,1442849805636,888,475,0,0,0,3,5,2,35,0003-00-0001-81.png,0005-00-0001-21.png
00000009,761,1,1442849808468,1442849809364,460,267,0,0,0,1,3,2,13,0001-00-0000-52.png,0003-00-0002-57.png
00000009,762,1,1442849810196,1442849811145,429,261,0,0,0,3,5,2,35,0003-00-0008-63.png,0005-00-0001-59.png
00000009,763,1,1442849812126,1442849812138,862,448,0,0,0,5,4,1,54,0005-00-0006-76.png,0004-00-0007-96.png
00000009,764,0,1442849813298,1442849814424,937,332,0,0,0,2,3,1,23,0002-00-0005-94.png,0003-00-0009-43.png
00000009,765,1,1442849817472,1442849818416,1088,307,0,0,0,5,3,2,53,0005-00-0000-25.png,0003-00-0008-56.png
00000009,766,0,1442849819295,1442849819360,862,436,0,0,0,2,5,3,25,0002-00-0000-18.png,0005-00-0008-04.png
00000009,767,0,1442849822232,1442849822248,886,456,0,0,0,1,5,4,15,0001-00-0002-13.png,0005-00-0001-00.png
00000009,768,0,1442849825431,1442849825471,935,344,0,0,0,1,2,1,12,0001-00-0005-86.png,0002-00-0009-62.png
00000009,769,1,1442849828564,1442849828592,884,373,0,0,0,5,2,3,52,0005-00-0006-25.png,0002-00-0007-52.png
00000009,770,1,1442849829594,1442849829674,906,443,0,0,0,4,1,3,41,0004-00-0006-86.png,0001-00-0008-14.png
00000009,771,1,1442849830793,1442849831368,905,471,0,0,0,2,1,1,21,0002-00-0008-87.png,0001-00-0006-91.png
00000009,772,1,1442849832403,1442849832447,879,442,0,0,0,4,3,1,43,0004-00-0006-86.png,0003-00-0002-63.png
00000009,773,0,1442849833530,1442849833570,927,428,0,0,0,4,5,1,45,0004-00-0006-29.png,0005-00-0001-20.png
00000009,774,1,1442849836801,1442849837497,1092,286,0,0,0,5,1,4,51,0005-00-0001-87.png,0001-00-0003-25.png
00000009,775,1,1442849838847,1442849838953,905,417,0,0,0,3,1,2,31,0003-00-0005-41.png,0001-00-0001-10.png
00000009,776,1,1442849839997,1442849841265,481,245,0,0,0,2,4,2,24,0002-00-0009-71.png,0004-00-0002-82.png
00000009,777,1,1442849842229,1442849843096,1046,276,0,0,0,3,2,1,32,0003-00-0006-67.png,0002-00-0005-00.png
00000009,778,1,1442849843994,1442849844319,888,472,0,0,0,4,2,2,42,0004-00-0003-98.png,0002-00-0009-65.png
00000009,779,0,1442849845723,1442849845826,885,481,0,0,0,3,4,1,34,0003-00-0005-79.png,0004-00-0001-47.png
00000009,780,0,1442849848796,1442849848886,910,370,0,0,0,1,4,3,14,0001-00-0005-79.png,0004-00-0001-35.png
00000009,781,1,1442849852107,1442849852740,372,383,0,0,0,1,3,2,13,0001-00-0004-40.png,0003-00-0000-42.png
00000009,782,1,1442849853650,1442849853706,875,410,0,0,0,2,1,1,21,0002-00-0001-52.png,0001-00-0008-59.png
00000009,783,1,1442849854817,1442849855886,912,367,0,0,0,5,2,3,52,0005-00-0000-78.png,0002-00-0000-24.png
00000009,784,0,1442849856774,1442849856842,927,459,0,0,0,2,3,1,23,0002-00-0006-61.png,0003-00-0001-83.png
00000009,785,1,1442849859994,1442849860705,971,345,0,0,0,4,1,3,41,0004-00-0003-33.png,0001-00-0008-42.png
00000009,786,1,1442849861975,1442849862098,862,497,0,0,0,5,4,1,54,0005-00-0006-12.png,0004-00-0009-85.png
00000009,787,0,1442849863304,1442849864024,867,519,0,0,0,1,5,4,15,0001-00-0009-45.png,0005-00-0005-69.png
00000009,788,0,1442849866999,1442849867019,881,452,0,0,0,3,4,1,34,0003-00-0008-06.png,0004-00-0008-17.png
00000009,789,1,1442849870121,1442849870818,964,363,0,0,0,5,1,4,51,0005-00-0007-62.png,0001-00-0001-81.png
00000009,790,0,1442849871669,1442849871721,883,489,0,0,0,1,4,3,14,0001-00-0001-33.png,0004-00-0003-95.png
00000009,791,1,1442849874900,1442849874940,919,366,0,0,0,5,3,2,53,0005-00-0009-94.png,0003-00-0006-32.png
00000009,792,0,1442849875917,1442849875933,882,463,0,0,0,2,5,3,25,0002-00-0006-79.png,0005-00-0000-53.png
00000009,793,0,1442849879151,1442849879187,913,343,0,0,0,1,2,1,12,0001-00-0007-08.png,0002-00-0009-28.png
00000009,794,1,1442849882315,1442849882339,865,367,0,0,0,4,3,1,43,0004-00-0006-87.png,0003-00-0009-78.png
00000009,795,1,1442849883309,1442849883349,892,446,0,0,0,4,2,2,42,0004-00-0005-65.png,0002-00-0006-78.png
00000009,796,0,1442849884364,1442849885448,1059,293,0,0,0,4,5,1,45,0004-00-0005-24.png,0005-00-0009-25.png
00000009,797,1,1442849888584,1442849889285,494,265,0,0,0,3,5,2,35,0003-00-0003-35.png,0005-00-0007-67.png
00000009,798,0,1442849890223,1442849890271,862,410,0,0,0,2,4,2,24,0002-00-0005-18.png,0004-00-0004-42.png
00000009,799,1,1442849893541,1442849894279,1101,274,0,0,0,3,2,1,32,0003-00-0000-77.png,0002-00-0001-62.png
00000009,800,1,1442849895708,1442849895740,863,383,0,0,0,3,1,2,31,0003-00-0005-39.png,0001-00-0006-58.png
00000009,801,0,1442849896958,1442849896991,874,433,0,0,0,3,4,1,34,0003-00-0003-90.png,0004-00-0005-20.png
00000009,802,1,1442849900195,1442849900895,1071,302,0,0,0,5,4,1,54,0005-00-0009-64.png,0004-00-0004-95.png
00000009,803,1,1442849902206,1442849902242,862,419,0,0,0,5,1,4,51,0005-00-0007-78.png,0001-00-0009-15.png
00000009,804,1,1442849903279,1442849904340,459,261,0,0,0,1,2,1,12,0001-00-0004-45.png,0002-00-0007-95.png
00000009,805,1,1442849905259,1442849906449,1092,291,0,0,0,4,1,3,41,0004-00-0003-21.png,0001-00-0006-11.png
00000009,806,1,1442849907475,1442849908327,391,365,0,0,0,2,4,2,24,0002-00-0005-46.png,0004-00-0007-18.png
00000009,807,0,1442849909251,1442849910560,462,274,0,0,0,3,2,1,32,0003-00-0009-44.png,0002-00-0004-41.png
00000009,808,0,1442849913745,1442849913765,958,325,0,0,0,2,5,3,25,0002-00-0005-40.png,0005-00-0004-76.png
00000009,809,1,1442849916766,1442849916774,513,518,0,0,0,1,4,3,14,0001-00-0004-24.png,0004-00-0005-58.png
00000009,810,0,1442849917792,1442849917820,873,427,0,0,0,2,3,1,23,0002-00-0003-54.png,0003-00-0006-60.png
00000009,811,1,1442849920799,1442849920985,925,299,0,0,0,3,1,2,31,0003-00-0002-66.png,0001-00-0002-34.png
00000009,812,0,1442849921894,1442849921922,866,464,0,0,0,3,5,2,35,0003-00-0003-67.png,0005-00-0003-36.png
00000009,813,1,1442849925044,1442849925084,870,387,0,0,0,2,1,1,21,0002-00-0009-73.png,0001-00-0002-88.png
00000009,814,1,1442849926047,1442849927034,976,327,0,0,0,5,3,2,53,0005-00-0004-33.png,0003-00-0007-04.png
00000009,815,0,1442849928017,1442849928065,910,402,0,0,0,1,5,4,15,0001-00-0009-61.png,0005-00-0009-00.png
00000009,816,1,1442849931553,1442849931581,931,315,0,0,0,4,3,1,43,0004-00-0008-32.png,0003-00-0003-25.png
00000009,817,0,1442849932606,1442849932646,908,408,0,0,0,4,5,1,45,0004-00-0001-67.png,0005-00-0000-03.png
00000009,818,1,1442849935817,1442849935865,915,320,0,0,0,4,2,2,42,0004-00-0002-42.png,0002-00-0000-18.png
00000009,819,0,1442849936811,1442849936819,893,410,0,0,0,1,3,2,13,0001-00-0002-94.png,0003-00-0009-50.png
00000009,820,1,1442849939911,1442849939939,861,367,0,0,0,5,2,3,52,0005-00-0001-46.png,0002-00-0002-31.png
00000009,821,1,1442849940892,1442849941902,1041,292,0,0,0,5,3,2,53,0005-00-0000-17.png,0003-00-0008-82.png
00000009,822,1,1442849942794,1442849943889,459,238,0,0,0,1,5,4,15,0001-00-0004-25.png,0005-00-0005-38.png
00000009,823,0,1442849944859,1442849944887,863,461,0,0,0,3,5,2,35,0003-00-0008-19.png,0005-00-0006-77.png
00000009,824,1,1442849947848,1442849947900,939,406,0,0,0,4,1,3,41,0004-00-0003-52.png,0001-00-0007-85.png
00000009,825,1,1442849948801,1442849949801,1067,256,0,0,0,5,1,4,51,0005-00-0006-65.png,0001-00-0000-19.png
00000009,826,1,1442849950743,1442849950830,947,445,0,0,0,5,4,1,54,0005-00-0000-64.png,0004-00-0007-39.png
00000009,827,1,1442849951985,1442849952903,908,346,0,0,0,3,1,2,31,0003-00-0008-17.png,0001-00-0002-89.png
00000009,828,1,1442849953770,1442849953814,896,459,0,0,0,3,2,1,32,0003-00-0006-03.png,0002-00-0001-86.png
00000009,829,0,1442849955122,1442849955154,887,464,0,0,0,2,5,3,25,0002-00-0004-03.png,0005-00-0005-75.png
00000009,830,1,1442849958394,1442849959018,934,356,0,0,0,2,1,1,21,0002-00-0003-53.png,0001-00-0008-65.png
00000009,831,0,1442849960455,1442849960498,888,433,0,0,0,2,3,1,23,0002-00-0002-90.png,0003-00-0008-72.png
00000009,832,1,1442849963423,1442849963439,496,445,0,0,0,3,4,1,34,0003-00-0009-11.png,0004-00-0001-15.png
00000009,833,0,1442849964445,1442849964477,921,426,0,0,0,1,3,2,13,0001-00-0003-86.png,0003-00-0006-41.png
00000009,834,1,1442849967346,1442849968099,467,271,0,0,0,4,5,1,45,0004-00-0002-71.png,0005-00-0006-31.png
00000009,835,1,1442849968995,1442849970159,1083,289,0,0,0,4,2,2,42,0004-00-0001-86.png,0002-00-0007-08.png
00000009,836,0,1442849971082,1442849971119,888,410,0,0,0,1,2,1,12,0001-00-0004-91.png,0002-00-0004-46.png
00000009,837,1,1442849974064,1442849975024,1120,278,0,0,0,4,3,1,43,0004-00-0003-73.png,0003-00-0003-76.png
00000009,838,0,1442849975925,1442849975989,891,502,0,0,0,2,4,2,24,0002-00-0008-94.png,0004-00-0003-54.png
00000009,839,0,1442849979172,1442849979180,888,332,0,0,0,1,4,3,14,0001-00-0008-19.png,0004-00-0000-26.png
00000009,840,1,1442849982380,1442849982431,988,309,0,0,0,5,2,3,52,0005-00-0001-50.png,0002-00-0009-73.png
00000009,841,0,1442849983323,1442849983363,881,445,0,0,0,1,2,1,12,0001-00-0000-45.png,0002-00-0009-23.png
00000009,842,0,1442849986582,1442849986606,921,307,0,0,0,1,4,3,14,0001-00-0004-97.png,0004-00-0009-32.png
00000009,843,0,1442849989794,1442849989822,897,356,0,0,0,4,5,1,45,0004-00-0004-74.png,0005-00-0008-42.png
00000009,844,1,1442849992665,1442849992733,969,420,0,0,0,5,1,4,51,0005-00-0004-35.png,0001-00-0002-74.png
00000009,845,1,1442849993710,1442849994574,462,220,0,0,0,1,5,4,15,0001-00-0002-49.png,0005-00-0005-26.png
00000009,846,1,1442849995554,1442849995932,862,475,0,0,0,5,3,2,53,0005-00-0007-89.png,0003-00-0009-87.png
00000009,847,0,1442849997273,1442849997317,863,461,0,0,0,1,3,2,13,0001-00-0001-27.png,0003-00-0003-78.png
00000009,848,1,1442850000527,1442850001131,499,251,0,0,0,2,4,2,24,0002-00-0000-46.png,0004-00-0000-55.png
00000009,849,1,1442850002065,1442850002101,867,447,0,0,0,4,3,1,43,0004-00-0006-31.png,0003-00-0005-18.png
00000009,850,1,1442850003210,1442850004181,521,260,0,0,0,2,5,3,25,0002-00-0004-22.png,0005-00-0004-57.png
00000009,851,1,1442850005106,1442850005126,890,397,0,0,0,4,2,2,42,0004-00-0009-66.png,0002-00-0007-32.png
00000009,852,1,1442850006188,1442850006224,870,436,0,0,0,3,2,1,32,0003-00-0009-16.png,0002-00-0001-24.png
00000009,853,1,1442850007500,1442850007989,881,514,0,0,0,5,4,1,54,0005-00-0000-40.png,0004-00-0004-64.png
00000009,854,0,1442850008990,1442850009022,884,398,0,0,0,3,5,2,35,0003-00-0006-21.png,0005-00-0003-63.png
00000009,855,1,1442850012135,1442850012688,478,266,0,0,0,2,3,1,23,0002-00-0000-94.png,0003-00-0005-49.png
00000009,856,1,1442850013592,1442850013624,875,385,0,0,0,4,1,3,41,0004-00-0001-12.png,0001-00-0009-05.png
00000009,857,0,1442850014804,1442850015697,484,231,0,0,0,5,2,3,52,0005-00-0002-17.png,0002-00-0003-28.png
00000009,858,1,1442850018870,1442850018898,913,332,0,0,0,2,1,1,21,0002-00-0001-42.png,0001-00-0002-95.png
00000009,859,1,1442850019822,1442850019874,888,436,0,0,0,3,1,2,31,0003-00-0006-38.png,0001-00-0003-82.png
00000009,860,0,1442850020854,1442850021549,888,541,0,0,0,3,4,1,34,0003-00-0001-43.png,0004-00-0009-35.png
00000009,861,1,1442850024652,1442850025357,500,253,0,0,0,4,5,1,45,0004-00-0003-86.png,0005-00-0007-91.png
00000009,862,1,1442850026200,1442850027208,946,350,0,0,0,4,1,3,41,0004-00-0005-90.png,0001-00-0007-31.png
00000009,863,1,1442850028110,1442850028134,862,412,0,0,0,5,2,3,52,0005-00-0008-93.png,0002-00-0005-46.png
00000009,864,1,1442850029232,1442850029264,876,448,0,0,0,5,1,4,51,0005-00-0008-84.png,0001-00-0004-69.png
00000009,865,1,1442850030490,1442850031564,917,343,0,0,0,3,1,2,31,0003-00-0009-26.png,0001-00-0002-83.png
00000009,866,1,1442850032595,1442850032635,902,488,0,0,0,4,2,2,42,0004-00-0003-59.png,0002-00-0004-20.png
00000009,867,0,1442850033664,1442850033704,900,444,0,0,0,1,5,4,15,0001-00-0003-46.png,0005-00-0008-98.png
00000009,868,0,1442850037313,1442850037369,909,301,0,0,0,1,2,1,12,0001-00-0008-77.png,0002-00-0008-49.png
00000009,869,1,1442850040401,1442850041169,476,270,0,0,0,1,4,3,14,0001-00-0001-45.png,0004-00-0000-71.png
00000009,870,0,1442850042093,1442850042319,881,472,0,0,0,2,5,3,25,0002-00-0005-49.png,0005-00-0007-06.png
00000009,871,1,1442850045509,1442850045533,888,358,0,0,0,5,3,2,53,0005-00-0003-55.png,0003-00-0005-75.png
00000009,872,0,1442850046455,1442850047636,963,313,0,0,0,1,3,2,13,0001-00-0004-41.png,0003-00-0006-72.png
00000009,873,1,1442850050530,1442850051221,963,383,0,0,0,2,1,1,21,0002-00-0008-72.png,0001-00-0005-61.png
00000009,874,1,1442850052663,1442850052707,860,391,0,0,0,3,2,1,32,0003-00-0001-80.png,0002-00-0001-79.png
00000009,875,1,1442850053806,1442850055043,484,273,0,0,0,3,4,1,34,0003-00-0009-62.png,0004-00-0003-49.png
00000009,876,1,1442850055983,1442850056239,878,488,0,0,0,4,3,1,43,0004-00-0004-61.png,0003-00-0005-83.png
00000009,877,1,1442850057349,1442850057400,872,446,0,0,0,5,4,1,54,0005-00-0003-30.png,0004-00-0001-17.png
00000009,878,1,1442850058614,1442850059460,402,332,0,0,0,3,5,2,35,0003-00-0006-41.png,0005-00-0007-23.png
00000009,879,0,1442850060557,1442850060612,862,443,0,0,0,2,3,1,23,0002-00-0008-62.png,0003-00-0003-28.png
00000009,880,0,1442850063675,1442850063695,874,391,0,0,0,2,4,2,24,0002-00-0002-69.png,0004-00-0004-11.png
00000009,881,0,1442850066856,1442850066884,873,336,0,0,0,2,4,2,24,0002-00-0003-54.png,0004-00-0002-88.png
00000009,882,1,1442850069966,1442850070593,503,265,0,0,0,2,3,1,23,0002-00-0006-93.png,0003-00-0008-47.png
00000009,883,0,1442850071443,1442850071507,888,410,0,0,0,3,4,1,34,0003-00-0004-16.png,0004-00-0001-04.png
00000009,884,0,1442850074726,1442850074734,913,332,0,0,0,1,5,4,15,0001-00-0002-43.png,0005-00-0009-19.png
00000009,885,1,1442850077572,1442850078227,955,356,0,0,0,2,1,1,21,0002-00-0003-00.png,0001-00-0000-14.png
00000009,886,1,1442850079601,1442850080895,968,356,0,0,0,5,3,2,53,0005-00-0001-73.png,0003-00-0004-86.png
00000009,887,1,1442850081749,1442850082851,960,340,0,0,0,5,1,4,51,0005-00-0005-84.png,0001-00-0003-10.png
00000009,888,1,1442850083759,1442850083825,928,425,0,0,0,5,4,1,54,0005-00-0003-48.png,0004-00-0001-15.png
00000009,889,1,1442850084990,1442850086129,956,288,0,0,0,5,2,3,52,0005-00-0004-67.png,0002-00-0002-86.png
00000009,890,0,1442850087144,1442850087163,915,400,0,0,0,3,5,2,35,0003-00-0006-44.png,0005-00-0003-47.png
00000009,891,0,1442850090763,1442850090783,885,340,0,0,0,1,4,3,14,0001-00-0009-59.png,0004-00-0004-41.png
00000009,892,1,1442850093935,1442850093955,862,358,0,0,0,4,3,1,43,0004-00-0000-02.png,0003-00-0002-89.png
00000009,893,1,1442850094879,1442850094915,888,462,0,0,0,3,2,1,32,0003-00-0009-62.png,0002-00-0005-43.png
00000009,894,0,1442850095890,1442850097513,306,383,0,0,0,4,2,2,42,0004-00-0001-08.png,0002-00-0002-87.png
00000009,895,1,1442850100716,1442850101622,455,263,0,0,0,1,2,1,12,0001-00-0007-85.png,0002-00-0007-96.png
00000009,896,0,1442850102520,1442850102564,909,445,0,0,0,2,5,3,25,0002-00-0009-90.png,0005-00-0009-18.png
00000009,897,0,1442850105719,1442850105752,885,381,0,0,0,4,5,1,45,0004-00-0005-84.png,0005-00-0001-08.png
00000009,898,0,1442850108902,1442850108930,872,375,0,0,0,1,3,2,13,0001-00-0001-40.png,0003-00-0003-10.png
00000009,899,1,1442850112101,1442850112775,955,358,0,0,0,4,1,3,41,0004-00-0008-32.png,0001-00-0006-06.png
00000009,900,1,1442850113648,1442850113680,887,468,0,0,0,3,1,2,31,0003-00-0005-39.png,0001-00-0000-69.png
00000009,901,1,1442850115145,1442850115180,913,417,0,0,0,4,3,1,43,0004-00-0003-26.png,0003-00-0004-88.png
00000009,902,1,1442850116195,1442850116985,466,217,0,0,0,2,3,1,23,0002-00-0001-89.png,0003-00-0009-62.png
00000009,903,0,1442850117931,1442850117979,888,471,0,0,0,3,5,2,35,0003-00-0009-61.png,0005-00-0002-11.png
00000009,904,1,1442850121221,1442850121249,888,313,0,0,0,4,2,2,42,0004-00-0007-01.png,0002-00-0006-78.png
00000009,905,0,1442850122296,1442850122316,862,425,0,0,0,1,2,1,12,0001-00-0006-92.png,0002-00-0004-91.png
00000009,906,1,1442850125452,1442850125476,867,357,0,0,0,2,1,1,21,0002-00-0005-30.png,0001-00-0008-57.png
00000009,907,1,1442850126436,1442850126476,900,436,0,0,0,5,2,3,52,0005-00-0006-49.png,0002-00-0005-01.png
00000009,908,1,1442850127340,1442850128284,464,242,0,0,0,2,4,2,24,0002-00-0003-72.png,0004-00-0008-89.png
00000009,909,0,1442850129183,1442850130130,465,285,0,0,0,3,2,1,32,0003-00-0007-02.png,0002-00-0007-63.png
00000009,910,1,1442850133626,1442850134178,1067,273,0,0,0,3,1,2,31,0003-00-0005-46.png,0001-00-0001-13.png
00000009,911,0,1442850135012,1442850135081,886,489,0,0,0,4,5,1,45,0004-00-0000-58.png,0005-00-0003-90.png
00000009,912,1,1442850138136,1442850138700,463,274,0,0,0,1,3,2,13,0001-00-0001-53.png,0003-00-0007-40.png
00000009,913,1,1442850139686,1442850139698,934,415,0,0,0,5,3,2,53,0005-00-0008-46.png,0003-00-0000-12.png
00000009,914,1,1442850140748,1442850141703,497,270,0,0,0,3,4,1,34,0003-00-0006-39.png,0004-00-0002-05.png
00000009,915,0,1442850142675,1442850142886,880,469,0,0,0,1,5,4,15,0001-00-0002-36.png,0005-00-0003-18.png
00000009,916,0,1442850146056,1442850146096,885,337,0,0,0,1,4,3,14,0001-00-0004-00.png,0004-00-0004-21.png
00000009,917,1,1442850149384,1442850149416,903,320,0,0,0,5,1,4,51,0005-00-0003-71.png,0001-00-0001-53.png
00000009,918,0,1442850150435,1442850150487,901,451,0,0,0,2,5,3,25,0002-00-0002-08.png,0005-00-0001-64.png
00000009,919,1,1442850153399,1442850154967,1050,279,0,0,0,5,4,1,54,0005-00-0004-49.png,0004-00-0009-89.png
00000009,920,1,1442850155820,1442850157008,926,372,0,0,0,4,1,3,41,0004-00-0006-31.png,0001-00-0000-88.png
00000009,921,1,1442850157929,1442850157961,858,383,0,0,0,4,3,1,43,0004-00-0006-74.png,0003-00-0009-13.png
00000009,922,1,1442850159136,1442850160352,476,243,0,0,0,3,4,1,34,0003-00-0009-39.png,0004-00-0000-53.png
00000009,923,1,1442850161586,1442850162340,461,251,0,0,0,1,2,1,12,0001-00-0000-69.png,0002-00-0009-83.png
00000009,924,1,1442850163401,1442850164353,478,231,0,0,0,4,5,1,45,0004-00-0001-28.png,0005-00-0005-39.png
00000009,925,1,1442850165300,1442850166233,481,257,0,0,0,3,5,2,35,0003-00-0001-49.png,0005-00-0006-99.png
00000009,926,1,1442850167241,1442850168214,495,252,0,0,0,1,5,4,15,0001-00-0008-09.png,0005-00-0005-25.png
00000009,927,0,1442850169199,1442850170296,485,252,0,0,0,5,2,3,52,0005-00-0001-24.png,0002-00-0002-16.png
00000009,928,1,1442850173401,1442850173982,982,354,0,0,0,2,1,1,21,0002-00-0006-87.png,0001-00-0001-79.png
00000009,929,0,1442850175508,1442850175592,913,436,0,0,0,2,5,3,25,0002-00-0003-41.png,0005-00-0003-79.png
00000009,930,1,1442850178700,1442850179319,464,258,0,0,0,1,4,3,14,0001-00-0006-90.png,0004-00-0005-12.png
00000009,931,1,1442850180249,1442850180716,880,472,0,0,0,4,1,3,41,0004-00-0008-69.png,0001-00-0007-01.png
00000009,932,1,1442850181690,1442850181805,862,473,0,0,0,5,4,1,54,0005-00-0007-25.png,0004-00-0001-86.png
00000009,933,1,1442850182761,1442850182935,902,529,0,0,0,3,1,2,31,0003-00-0005-03.png,0001-00-0009-07.png
00000009,934,1,1442850184107,1442850185057,509,275,0,0,0,2,4,2,24,0002-00-0007-57.png,0004-00-0008-71.png
00000009,935,1,1442850186064,1442850187119,1067,271,0,0,0,3,2,1,32,0003-00-0006-41.png,0002-00-0004-46.png
00000009,936,0,1442850188051,1442850188990,485,272,0,0,0,5,3,2,53,0005-00-0007-97.png,0003-00-0008-74.png
00000009,937,0,1442850192162,1442850192222,916,308,0,0,0,2,3,1,23,0002-00-0008-70.png,0003-00-0005-23.png
00000009,938,1,1442850195364,1442850196107,1118,294,0,0,0,4,2,2,42,0004-00-0004-14.png,0002-00-0009-84.png
00000009,939,0,1442850196962,1442850197006,888,384,0,0,0,1,3,2,13,0001-00-0008-92.png,0003-00-0003-46.png
00000009,940,1,1442850200215,1442850200243,932,351,0,0,0,5,1,4,51,0005-00-0002-36.png,0001-00-0005-66.png
00000009,941,0,1442850201169,1442850201666,901,554,0,0,0,2,3,1,23,0002-00-0007-25.png,0003-00-0001-26.png
