subject_id,trial,correct_response,stim_time,response_time,x_coord,y_coord,trial_timeout,timeout_time,interTrial_timeout,left_rank,right_rank,distance,joint_rank,left_image,right_image
00000014,1,1,1443205431869,1443205432384,422,451,0,0,0,2,4,2,24,0002-00-0002-59.png,0004-00-0008-30.png
00000014,2,1,1443205433619,1443205434050,931,427,0,0,0,4,2,2,42,0004-00-0005-03.png,0002-00-0003-30.png
00000014,3,1,1443205435335,1443205435854,950,517,0,0,0,5,4,1,54,0005-00-0007-99.png,0004-00-0000-42.png
00000014,4,1,1443205436912,1443205437373,921,524,0,0,0,2,1,1,21,0002-00-0002-54.png,0001-00-0005-80.png
00000014,5,0,1443205438376,1443205438932,921,493,0,0,0,1,3,2,13,0001-00-0004-80.png,0003-00-0003-33.png
00000014,6,1,1443205441925,1443205442421,926,488,0,0,0,3,2,1,32,0003-00-0006-97.png,0002-00-0001-65.png
00000014,7,1,1443205443348,1443205443855,903,520,0,0,0,5,2,3,52,0005-00-0009-37.png,0002-00-0004-00.png
00000014,8,1,1443205444749,1443205445309,273,514,0,0,0,2,5,3,25,0002-00-0009-09.png,0005-00-0009-39.png
00000014,9,1,1443205446197,1443205446699,417,507,0,0,0,3,5,2,35,0003-00-0005-35.png,0005-00-0001-13.png
00000014,10,1,1443205447677,1443205448210,874,516,0,0,0,5,3,2,53,0005-00-0002-90.png,0003-00-0000-83.png
00000014,11,1,1443205449160,1443205449695,395,436,0,0,0,3,4,1,34,0003-00-0006-80.png,0004-00-0009-83.png
00000014,12,0,1443205450660,1443205451213,880,402,0,0,0,4,5,1,45,0004-00-0004-29.png,0005-00-0004-86.png
00000014,13,1,1443205454356,1443205454743,306,402,0,0,0,1,4,3,14,0001-00-0001-64.png,0004-00-0001-38.png
00000014,14,0,1443205455709,1443205456301,345,421,0,0,0,5,1,4,51,0005-00-0005-56.png,0001-00-0006-34.png
00000014,15,0,1443205459218,1443205459662,925,397,0,0,0,1,5,4,15,0001-00-0000-23.png,0005-00-0005-49.png
00000014,16,1,1443205462728,1443205463179,325,475,0,0,0,1,2,1,12,0001-00-0008-02.png,0002-00-0005-14.png
00000014,17,1,1443205464171,1443205464722,901,463,0,0,0,4,3,1,43,0004-00-0006-39.png,0003-00-0009-85.png
00000014,18,0,1443205465829,1443205466313,348,406,0,0,0,4,1,3,41,0004-00-0001-11.png,0001-00-0009-62.png
00000014,19,0,1443205469234,1443205469702,928,391,0,0,0,2,3,1,23,0002-00-0009-75.png,0003-00-0002-55.png
00000014,20,1,1443205472594,1443205473080,893,482,0,0,0,3,1,2,31,0003-00-0004-38.png,0001-00-0001-31.png
00000014,21,0,1443205474059,1443205474799,900,409,0,0,0,1,5,4,15,0001-00-0005-55.png,0005-00-0004-32.png
00000014,22,1,1443205477974,1443205478415,406,509,0,0,0,2,4,2,24,0002-00-0006-77.png,0004-00-0008-98.png
00000014,23,1,1443205479406,1443205479965,900,346,0,0,0,4,1,3,41,0004-00-0006-92.png,0001-00-0005-43.png
00000014,24,1,1443205480975,1443205487184,401,384,0,0,0,2,3,1,23,0002-00-0000-03.png,0003-00-0005-43.png
00000014,25,1,1443205488173,1443205488728,880,375,0,0,0,5,3,2,53,0005-00-0007-19.png,0003-00-0001-30.png
00000014,26,1,1443205489691,1443205490192,393,535,0,0,0,2,5,3,25,0002-00-0007-37.png,0005-00-0004-16.png
00000014,27,1,1443205491165,1443205492136,401,424,0,0,0,4,5,1,45,0004-00-0006-73.png,0005-00-0002-01.png
00000014,28,1,1443205493071,1443205493607,864,475,0,0,0,3,1,2,31,0003-00-0003-94.png,0001-00-0009-35.png
00000014,29,1,1443205494534,1443205495110,874,387,0,0,0,5,4,1,54,0005-00-0007-94.png,0004-00-0005-11.png
00000014,30,1,1443205495941,1443205496495,337,384,0,0,0,1,2,1,12,0001-00-0008-31.png,0002-00-0003-85.png
00000014,31,1,1443205497373,1443205497883,362,513,0,0,0,3,5,2,35,0003-00-0009-04.png,0005-00-0003-59.png
00000014,32,0,1443205498828,1443205499688,464,433,0,0,0,5,2,3,52,0005-00-0001-36.png,0002-00-0001-82.png
00000014,33,1,1443205502602,1443205503019,930,375,0,0,0,5,1,4,51,0005-00-0002-24.png,0001-00-0003-06.png
00000014,34,0,1443205503964,1443205504445,334,446,0,0,0,2,1,1,21,0002-00-0004-79.png,0001-00-0006-79.png
00000014,35,0,1443205507403,1443205507419,497,349,0,0,0,3,2,1,32,0003-00-0006-71.png,0002-00-0003-85.png
00000014,36,0,1443205510525,1443205511032,909,395,0,0,0,3,4,1,34,0003-00-0008-32.png,0004-00-0003-70.png
00000014,37,1,1443205515525,1443205516003,373,502,0,0,0,1,4,3,14,0001-00-0006-46.png,0004-00-0005-65.png
00000014,38,1,1443205516966,1443205517545,863,397,0,0,0,4,2,2,42,0004-00-0000-02.png,0002-00-0002-32.png
00000014,39,1,1443205518475,1443205518998,919,431,0,0,0,4,3,1,43,0004-00-0008-16.png,0003-00-0002-36.png
00000014,40,1,1443205519999,1443205520512,360,415,0,0,0,1,3,2,13,0001-00-0003-48.png,0003-00-0006-33.png
00000014,41,1,1443205521478,1443205521934,360,452,0,0,0,3,5,2,35,0003-00-0001-86.png,0005-00-0003-08.png
00000014,42,1,1443205522914,1443205523450,955,427,0,0,0,4,1,3,41,0004-00-0002-85.png,0001-00-0004-41.png
00000014,43,0,1443205524418,1443205524901,344,444,0,0,0,3,1,2,31,0003-00-0007-11.png,0001-00-0005-19.png
00000014,44,1,1443205527916,1443205528340,354,421,0,0,0,1,3,2,13,0001-00-0002-75.png,0003-00-0006-85.png
00000014,45,0,1443205529288,1443205529834,901,384,0,0,0,4,5,1,45,0004-00-0002-40.png,0005-00-0001-10.png
00000014,46,1,1443205541554,1443205541998,309,369,0,0,0,1,5,4,15,0001-00-0009-04.png,0005-00-0006-08.png
00000014,47,1,1443205543107,1443205543642,894,460,0,0,0,5,2,3,52,0005-00-0006-86.png,0002-00-0008-74.png
00000014,48,0,1443205544696,1443205545163,376,559,0,0,0,5,3,2,53,0005-00-0001-16.png,0003-00-0008-30.png
00000014,49,1,1443205549696,1443205550202,891,503,0,0,0,4,3,1,43,0004-00-0006-80.png,0003-00-0002-39.png
00000014,50,1,1443205551317,1443205551767,326,450,0,0,0,1,4,3,14,0001-00-0004-14.png,0004-00-0007-79.png
00000014,51,1,1443205552816,1443205553398,878,479,0,0,0,5,4,1,54,0005-00-0006-48.png,0004-00-0006-87.png
00000014,52,1,1443205554387,1443205554901,386,552,0,0,0,3,4,1,34,0003-00-0007-88.png,0004-00-0006-10.png
00000014,53,1,1443205555917,1443205556450,905,401,0,0,0,5,1,4,51,0005-00-0000-08.png,0001-00-0003-33.png
00000014,54,0,1443205557408,1443205557994,862,480,0,0,0,2,5,3,25,0002-00-0004-74.png,0005-00-0006-96.png
00000014,55,1,1443205561117,1443205561509,392,429,0,0,0,1,2,1,12,0001-00-0004-09.png,0002-00-0008-17.png
00000014,56,1,1443205562476,1443205563003,387,439,0,0,0,2,4,2,24,0002-00-0002-82.png,0004-00-0004-70.png
00000014,57,1,1443205563969,1443205564559,862,399,0,0,0,3,2,1,32,0003-00-0009-52.png,0002-00-0004-52.png
00000014,58,1,1443205565537,1443205566014,392,545,0,0,0,2,3,1,23,0002-00-0000-49.png,0003-00-0007-52.png
00000014,59,0,1443205567113,1443205567641,389,503,0,0,0,2,1,1,21,0002-00-0009-89.png,0001-00-0008-60.png
00000014,60,1,1443205570776,1443205571227,901,450,0,0,0,4,2,2,42,0004-00-0002-68.png,0002-00-0004-44.png
00000014,61,1,1443205572188,1443205572765,862,368,0,0,0,4,2,2,42,0004-00-0009-07.png,0002-00-0000-20.png
00000014,62,1,1443205573848,1443205574335,370,447,0,0,0,3,4,1,34,0003-00-0008-41.png,0004-00-0006-09.png
00000014,63,1,1443205575365,1443205575883,384,446,0,0,0,1,4,3,14,0001-00-0005-06.png,0004-00-0002-37.png
00000014,64,1,1443205576882,1443205577397,419,453,0,0,0,1,3,2,13,0001-00-0000-92.png,0003-00-0008-84.png
00000014,65,0,1443205578442,1443205578912,427,436,0,0,0,4,3,1,43,0004-00-0003-46.png,0003-00-0003-10.png
00000014,66,0,1443205581828,1443205582345,899,507,0,0,0,2,3,1,23,0002-00-0009-90.png,0003-00-0002-08.png
00000014,67,0,1443205585284,1443205585732,861,502,0,0,0,1,2,1,12,0001-00-0003-72.png,0002-00-0009-63.png
00000014,68,1,1443205588826,1443205589271,899,411,0,0,0,5,2,3,52,0005-00-0007-67.png,0002-00-0001-96.png
00000014,69,1,1443205590237,1443205590810,887,476,0,0,0,2,1,1,21,0002-00-0008-83.png,0001-00-0008-46.png
00000014,70,0,1443205591782,1443205592372,880,418,0,0,0,3,5,2,35,0003-00-0009-16.png,0005-00-0004-39.png
00000014,71,0,1443205595263,1443205595728,388,461,0,0,0,5,4,1,54,0005-00-0009-02.png,0004-00-0004-45.png
00000014,72,1,1443205598633,1443205599096,299,423,0,0,0,2,5,3,25,0002-00-0003-03.png,0005-00-0008-00.png
00000014,73,1,1443205600015,1443205600612,874,476,0,0,0,3,1,2,31,0003-00-0007-86.png,0001-00-0000-06.png
00000014,74,1,1443205601644,1443205602130,361,424,0,0,0,2,4,2,24,0002-00-0003-64.png,0004-00-0001-91.png
00000014,75,1,1443205603185,1443205604187,389,450,0,0,0,4,5,1,45,0004-00-0009-76.png,0005-00-0001-48.png
00000014,76,1,1443205605153,1443205605738,875,475,0,0,0,5,1,4,51,0005-00-0008-01.png,0001-00-0005-28.png
00000014,77,1,1443205606803,1443205607267,323,410,0,0,0,1,5,4,15,0001-00-0005-93.png,0005-00-0003-64.png
00000014,78,0,1443205608284,1443205608814,360,432,0,0,0,3,2,1,32,0003-00-0000-49.png,0002-00-0008-46.png
00000014,79,1,1443205611971,1443205612423,930,401,0,0,0,5,3,2,53,0005-00-0004-25.png,0003-00-0008-99.png
00000014,80,0,1443205613435,1443205613979,396,531,0,0,0,4,1,3,41,0004-00-0002-05.png,0001-00-0009-31.png
00000014,81,1,1443205617287,1443205617774,913,475,0,0,0,4,3,1,43,0004-00-0001-09.png,0003-00-0003-77.png
00000014,82,1,1443205618737,1443205619220,363,439,0,0,0,4,5,1,45,0004-00-0003-71.png,0005-00-0002-24.png
00000014,83,1,1443205620750,1443205621227,409,418,0,0,0,1,3,2,13,0001-00-0008-70.png,0003-00-0000-38.png
00000014,84,1,1443205622422,1443205622963,390,423,0,0,0,3,4,1,34,0003-00-0002-11.png,0004-00-0006-32.png
00000014,85,0,1443205624036,1443205624561,346,456,0,0,0,2,1,1,21,0002-00-0001-02.png,0001-00-0002-32.png
00000014,86,0,1443205627401,1443205627421,518,452,0,0,0,4,1,3,41,0004-00-0000-13.png,0001-00-0004-07.png
00000014,87,1,1443205630485,1443205630980,901,438,0,0,0,5,1,4,51,0005-00-0009-06.png,0001-00-0007-84.png
00000014,88,1,1443205631950,1443205632497,877,466,0,0,0,3,1,2,31,0003-00-0003-63.png,0001-00-0004-07.png
00000014,89,0,1443205633605,1443205634207,885,468,0,0,0,1,4,3,14,0001-00-0003-14.png,0004-00-0005-05.png
00000014,90,1,1443205637057,1443205637081,479,385,0,0,0,2,3,1,23,0002-00-0001-08.png,0003-00-0008-55.png
00000014,91,1,1443205638120,1443205638673,878,479,0,0,0,5,3,2,53,0005-00-0001-94.png,0003-00-0005-69.png
00000014,92,1,1443205639989,1443205640484,906,479,0,0,0,4,2,2,42,0004-00-0006-74.png,0002-00-0006-61.png
00000014,93,1,1443205641529,1443205642063,340,433,0,0,0,1,5,4,15,0001-00-0000-73.png,0005-00-0003-98.png
00000014,94,1,1443205643095,1443205644105,939,396,0,0,0,5,2,3,52,0005-00-0006-47.png,0002-00-0008-12.png
00000014,95,1,1443205645185,1443205645755,875,385,0,0,0,5,4,1,54,0005-00-0006-41.png,0004-00-0004-28.png
00000014,96,1,1443205646758,1443205647288,340,420,0,0,0,2,4,2,24,0002-00-0009-82.png,0004-00-0006-36.png
00000014,97,1,1443205648393,1443205648943,945,449,0,0,0,3,2,1,32,0003-00-0004-09.png,0002-00-0005-62.png
00000014,98,1,1443205650157,1443205650657,388,410,0,0,0,3,5,2,35,0003-00-0009-21.png,0005-00-0006-61.png
00000014,99,1,1443205651904,1443205652398,350,501,0,0,0,2,5,3,25,0002-00-0006-53.png,0005-00-0005-00.png
00000014,100,1,1443205653396,1443205653934,389,502,0,0,0,1,2,1,12,0001-00-0004-03.png,0002-00-0008-35.png
00000014,101,1,1443205654895,1443205655430,343,454,0,0,0,3,5,2,35,0003-00-0006-45.png,0005-00-0006-59.png
00000014,102,0,1443205656475,1443205657092,319,422,0,0,0,3,1,2,31,0003-00-0001-76.png,0001-00-0005-62.png
00000014,103,0,1443205660948,1443205661454,875,502,0,0,0,1,4,3,14,0001-00-0002-99.png,0004-00-0004-97.png
00000014,104,1,1443205667043,1443205667483,287,438,0,0,0,3,4,1,34,0003-00-0001-26.png,0004-00-0008-29.png
00000014,105,1,1443205668511,1443205669059,862,492,0,0,0,3,2,1,32,0003-00-0004-29.png,0002-00-0004-50.png
00000014,106,0,1443205670065,1443205670702,876,483,0,0,0,2,4,2,24,0002-00-0006-02.png,0004-00-0000-59.png
00000014,107,0,1443205674379,1443205674934,277,397,0,0,0,5,4,1,54,0005-00-0007-68.png,0004-00-0001-16.png
00000014,108,1,1443205677794,1443205678248,299,424,0,0,0,1,2,1,12,0001-00-0006-66.png,0002-00-0007-25.png
00000014,109,1,1443205679196,1443205679815,376,440,0,0,0,2,3,1,23,0002-00-0003-87.png,0003-00-0007-86.png
00000014,110,1,1443205680887,1443205681370,401,424,0,0,0,2,5,3,25,0002-00-0000-45.png,0005-00-0001-20.png
00000014,111,1,1443205682506,1443205683058,902,430,0,0,0,4,2,2,42,0004-00-0006-32.png,0002-00-0002-51.png
00000014,112,0,1443205684070,1443205684653,926,371,0,0,0,1,3,2,13,0001-00-0000-48.png,0003-00-0003-74.png
00000014,113,1,1443205687856,1443205688371,887,490,0,0,0,5,2,3,52,0005-00-0004-42.png,0002-00-0000-73.png
00000014,114,0,1443205689311,1443205689898,355,450,0,0,0,2,1,1,21,0002-00-0001-99.png,0001-00-0002-40.png
00000014,115,1,1443205692792,1443205692832,515,397,0,0,0,1,5,4,15,0001-00-0003-03.png,0005-00-0008-58.png
00000014,116,0,1443205693926,1443205694521,888,481,0,0,0,4,5,1,45,0004-00-0003-10.png,0005-00-0008-06.png
00000014,117,0,1443205697594,1443205698048,288,418,0,0,0,4,1,3,41,0004-00-0001-43.png,0001-00-0000-02.png
00000014,118,1,1443205701004,1443205701497,939,397,0,0,0,4,3,1,43,0004-00-0007-28.png,0003-00-0008-60.png
00000014,119,1,1443205702432,1443205703038,875,426,0,0,0,5,3,2,53,0005-00-0007-78.png,0003-00-0007-40.png
00000014,120,1,1443205704053,1443205704623,902,411,0,0,0,5,1,4,51,0005-00-0007-56.png,0001-00-0002-82.png
00000014,121,1,1443205705694,1443205706186,343,439,0,0,0,2,4,2,24,0002-00-0009-31.png,0004-00-0004-28.png
00000014,122,0,1443205707299,1443205707854,900,489,0,0,0,1,2,1,12,0001-00-0001-07.png,0002-00-0000-26.png
00000014,123,0,1443205710842,1443205711315,311,394,0,0,0,4,1,3,41,0004-00-0004-00.png,0001-00-0005-11.png
00000014,124,1,1443205714230,1443205714266,504,395,0,0,0,2,5,3,25,0002-00-0002-80.png,0005-00-0005-99.png
00000014,125,0,1443205715276,1443205715739,401,437,0,0,0,5,4,1,54,0005-00-0007-90.png,0004-00-0002-60.png
00000014,126,1,1443205718732,1443205719288,905,389,0,0,0,3,1,2,31,0003-00-0005-51.png,0001-00-0006-60.png
00000014,127,0,1443205720254,1443205720847,888,503,0,0,0,2,3,1,23,0002-00-0004-12.png,0003-00-0006-02.png
00000014,128,1,1443205723954,1443205724473,909,423,0,0,0,4,2,2,42,0004-00-0000-29.png,0002-00-0000-78.png
00000014,129,1,1443205725472,1443205726051,878,505,0,0,0,3,2,1,32,0003-00-0000-88.png,0002-00-0004-89.png
00000014,130,0,1443205727065,1443205727607,894,404,0,0,0,3,4,1,34,0003-00-0003-84.png,0004-00-0003-97.png
00000014,131,0,1443205730610,1443205730634,517,370,0,0,0,5,1,4,51,0005-00-0003-85.png,0001-00-0002-05.png
00000014,132,0,1443205733729,1443205734199,347,415,0,0,0,2,1,1,21,0002-00-0006-25.png,0001-00-0006-07.png
00000014,133,1,1443205737130,1443205737138,518,408,0,0,0,1,3,2,13,0001-00-0001-99.png,0003-00-0004-42.png
00000014,134,0,1443205738174,1443205738769,880,415,0,0,0,4,5,1,45,0004-00-0001-76.png,0005-00-0006-40.png
00000014,135,1,1443205741940,1443205742387,896,417,0,0,0,5,3,2,53,0005-00-0005-51.png,0003-00-0001-81.png
00000014,136,1,1443205743342,1443205743839,414,462,0,0,0,1,5,4,15,0001-00-0008-48.png,0005-00-0009-95.png
00000014,137,1,1443205744833,1443205745346,392,502,0,0,0,3,5,2,35,0003-00-0005-96.png,0005-00-0009-94.png
00000014,138,1,1443205746323,1443205746885,879,479,0,0,0,4,3,1,43,0004-00-0002-91.png,0003-00-0008-87.png
00000014,139,1,1443205747875,1443205748523,859,486,0,0,0,5,2,3,52,0005-00-0009-65.png,0002-00-0004-46.png
00000014,140,0,1443205749505,1443205750059,900,462,0,0,0,1,4,3,14,0001-00-0009-35.png,0004-00-0001-29.png
00000014,141,0,1443205753081,1443205753515,389,462,0,0,0,3,1,2,31,0003-00-0006-14.png,0001-00-0008-10.png
00000014,142,1,1443205756410,1443205756422,466,451,0,0,0,1,5,4,15,0001-00-0002-54.png,0005-00-0005-77.png
00000014,143,1,1443205757411,1443205757919,359,410,0,0,0,2,3,1,23,0002-00-0001-78.png,0003-00-0008-78.png
00000014,144,1,1443205758858,1443205759412,877,480,0,0,0,5,4,1,54,0005-00-0003-54.png,0004-00-0002-50.png
00000014,145,1,1443205760345,1443205760914,900,502,0,0,0,4,2,2,42,0004-00-0004-24.png,0002-00-0002-94.png
00000014,146,1,1443205761833,1443205762386,891,414,0,0,0,4,1,3,41,0004-00-0006-32.png,0001-00-0004-82.png
00000014,147,0,1443205763337,1443205763898,879,412,0,0,0,1,3,2,13,0001-00-0001-31.png,0003-00-0004-78.png
00000014,148,1,1443205766743,1443205767187,389,422,0,0,0,3,5,2,35,0003-00-0001-06.png,0005-00-0009-73.png
00000014,149,0,1443205768187,1443205768754,903,416,0,0,0,1,2,1,12,0001-00-0001-72.png,0002-00-0007-88.png
00000014,150,0,1443205771665,1443205771709,476,404,0,0,0,3,2,1,32,0003-00-0005-58.png,0002-00-0007-76.png
00000014,151,1,1443205774592,1443205775175,903,465,0,0,0,2,1,1,21,0002-00-0005-48.png,0001-00-0007-74.png
00000014,152,1,1443205776176,1443205776616,393,454,0,0,0,2,5,3,25,0002-00-0005-37.png,0005-00-0006-53.png
00000014,153,1,1443205777551,1443205778068,902,519,0,0,0,5,3,2,53,0005-00-0009-06.png,0003-00-0001-62.png
00000014,154,1,1443205779078,1443205779604,874,488,0,0,0,5,1,4,51,0005-00-0002-35.png,0001-00-0004-97.png
00000014,155,1,1443205780608,1443205781094,347,428,0,0,0,1,4,3,14,0001-00-0002-13.png,0004-00-0008-48.png
00000014,156,1,1443205782159,1443205782731,351,446,0,0,0,4,5,1,45,0004-00-0007-21.png,0005-00-0005-08.png
00000014,157,1,1443205783761,1443205784318,875,487,0,0,0,4,3,1,43,0004-00-0001-95.png,0003-00-0000-32.png
00000014,158,1,1443205785320,1443205785863,895,472,0,0,0,5,2,3,52,0005-00-0001-06.png,0002-00-0005-94.png
00000014,159,1,1443205786909,1443205787431,395,453,0,0,0,2,4,2,24,0002-00-0005-47.png,0004-00-0006-19.png
00000014,160,1,1443205788487,1443205788997,337,449,0,0,0,3,4,1,34,0003-00-0007-54.png,0004-00-0001-99.png
00000014,161,0,1443205790441,1443205790904,905,427,0,0,0,2,3,1,23,0002-00-0008-44.png,0003-00-0008-80.png
00000014,162,1,1443205794135,1443205794567,369,435,0,0,0,3,4,1,34,0003-00-0005-05.png,0004-00-0003-93.png
00000014,163,1,1443205795554,1443205796103,915,433,0,0,0,5,2,3,52,0005-00-0008-14.png,0002-00-0009-56.png
00000014,164,1,1443205797109,1443205797609,401,422,0,0,0,1,4,3,14,0001-00-0008-14.png,0004-00-0002-10.png
00000014,165,0,1443205798649,1443205799140,363,436,0,0,0,2,1,1,21,0002-00-0002-38.png,0001-00-0001-86.png
00000014,166,0,1443205802208,1443205802650,283,433,0,0,0,4,3,1,43,0004-00-0007-60.png,0003-00-0001-98.png
00000014,167,0,1443205805527,1443205805946,294,400,0,0,0,4,2,2,42,0004-00-0008-47.png,0002-00-0008-32.png
00000014,168,1,1443205808915,1443205809403,391,441,0,0,0,1,3,2,13,0001-00-0001-47.png,0003-00-0003-32.png
00000014,169,1,1443205810455,1443205811016,370,447,0,0,0,4,5,1,45,0004-00-0009-89.png,0005-00-0005-62.png
00000014,170,1,1443205812026,1443205812636,874,408,0,0,0,5,3,2,53,0005-00-0006-21.png,0003-00-0002-23.png
00000014,171,1,1443205813674,1443205814224,887,398,0,0,0,3,2,1,32,0003-00-0001-84.png,0002-00-0007-23.png
00000014,172,1,1443205815288,1443205815811,926,397,0,0,0,3,1,2,31,0003-00-0005-59.png,0001-00-0000-86.png
00000014,173,1,1443205816887,1443205817381,384,410,0,0,0,2,4,2,24,0002-00-0009-81.png,0004-00-0003-02.png
00000014,174,1,1443205818379,1443205818864,365,416,0,0,0,3,5,2,35,0003-00-0004-03.png,0005-00-0000-16.png
00000014,175,1,1443205819847,1443205820507,875,371,0,0,0,5,1,4,51,0005-00-0003-95.png,0001-00-0007-89.png
00000014,176,1,1443205821539,1443205822124,873,464,0,0,0,5,4,1,54,0005-00-0007-38.png,0004-00-0006-39.png
00000014,177,1,1443205823234,1443205823776,427,448,0,0,0,1,5,4,15,0001-00-0004-49.png,0005-00-0000-60.png
00000014,178,1,1443205824758,1443205825240,341,451,0,0,0,2,5,3,25,0002-00-0001-40.png,0005-00-0005-84.png
00000014,179,1,1443205826259,1443205826766,317,455,0,0,0,1,2,1,12,0001-00-0004-77.png,0002-00-0008-77.png
00000014,180,1,1443205827791,1443205828383,876,462,0,0,0,4,1,3,41,0004-00-0006-62.png,0001-00-0009-81.png
00000014,181,1,1443205829473,1443205830010,902,546,0,0,0,4,1,3,41,0004-00-0005-71.png,0001-00-0003-81.png
00000014,182,0,1443205831300,1443205831891,907,461,0,0,0,1,3,2,13,0001-00-0007-54.png,0003-00-0004-89.png
00000014,183,1,1443205840713,1443205841145,914,426,0,0,0,5,1,4,51,0005-00-0000-52.png,0001-00-0007-56.png
00000014,184,1,1443205842113,1443205842736,901,417,0,0,0,5,3,2,53,0005-00-0007-72.png,0003-00-0001-92.png
00000014,185,0,1443205843753,1443205844297,325,437,0,0,0,3,2,1,32,0003-00-0005-06.png,0002-00-0000-22.png
00000014,186,1,1443205847468,1443205847935,919,416,0,0,0,2,1,1,21,0002-00-0009-17.png,0001-00-0005-70.png
00000014,187,1,1443205848922,1443205849443,319,420,0,0,0,1,4,3,14,0001-00-0000-69.png,0004-00-0006-85.png
00000014,188,1,1443205850433,1443205851011,428,539,0,0,0,3,4,1,34,0003-00-0005-60.png,0004-00-0005-73.png
00000014,189,1,1443205852014,1443205852609,363,462,0,0,0,4,5,1,45,0004-00-0008-06.png,0005-00-0003-46.png
00000014,190,1,1443205853585,1443205854100,913,358,0,0,0,4,3,1,43,0004-00-0002-10.png,0003-00-0009-72.png
00000014,191,1,1443205855120,1443205855672,416,410,0,0,0,3,5,2,35,0003-00-0002-45.png,0005-00-0002-97.png
00000014,192,1,1443205856725,1443205857208,410,445,0,0,0,1,5,4,15,0001-00-0009-59.png,0005-00-0001-25.png
00000014,193,1,1443205858433,1443205858966,875,423,0,0,0,5,4,1,54,0005-00-0002-18.png,0004-00-0009-93.png
00000014,194,0,1443205860024,1443205860576,363,437,0,0,0,4,2,2,42,0004-00-0004-57.png,0002-00-0008-26.png
00000014,195,0,1443205863530,1443205863570,504,448,0,0,0,3,1,2,31,0003-00-0002-99.png,0001-00-0007-95.png
00000014,196,1,1443205866482,1443205866530,483,467,0,0,0,2,3,1,23,0002-00-0002-75.png,0003-00-0006-36.png
00000014,197,0,1443205867509,1443205868041,417,429,0,0,0,5,2,3,52,0005-00-0007-93.png,0002-00-0004-74.png
00000014,198,1,1443205871067,1443205871071,478,410,0,0,0,2,4,2,24,0002-00-0004-29.png,0004-00-0008-68.png
00000014,199,1,1443205872051,1443205872613,359,410,0,0,0,2,5,3,25,0002-00-0001-19.png,0005-00-0003-56.png
00000014,200,1,1443205873560,1443205874187,427,384,0,0,0,1,2,1,12,0001-00-0000-68.png,0002-00-0007-99.png
00000014,201,1,1443205875141,1443205875658,350,419,0,0,0,1,3,2,13,0001-00-0006-76.png,0003-00-0000-54.png
00000014,202,1,1443205876722,1443205877256,401,423,0,0,0,3,5,2,35,0003-00-0004-36.png,0005-00-0007-39.png
00000014,203,0,1443205878309,1443205878898,875,501,0,0,0,2,3,1,23,0002-00-0000-73.png,0003-00-0009-37.png
00000014,204,1,1443205882049,1443205882077,521,429,0,0,0,1,4,3,14,0001-00-0008-03.png,0004-00-0000-82.png
00000014,205,1,1443205883142,1443205883609,323,423,0,0,0,1,5,4,15,0001-00-0003-76.png,0005-00-0000-87.png
00000014,206,1,1443205884649,1443205885248,888,514,0,0,0,5,3,2,53,0005-00-0001-63.png,0003-00-0000-07.png
00000014,207,0,1443205886151,1443205886654,414,436,0,0,0,2,1,1,21,0002-00-0001-67.png,0001-00-0000-80.png
00000014,208,0,1443205889519,1443205890007,401,541,0,0,0,4,1,3,41,0004-00-0001-79.png,0001-00-0002-73.png
00000014,209,1,1443205892970,1443205893457,266,427,0,0,0,2,4,2,24,0002-00-0007-52.png,0004-00-0003-09.png
00000014,210,1,1443205894420,1443205895024,896,472,0,0,0,3,1,2,31,0003-00-0007-37.png,0001-00-0002-07.png
00000014,211,1,1443205896000,1443205896573,926,502,0,0,0,5,2,3,52,0005-00-0005-95.png,0002-00-0009-08.png
00000014,212,0,1443205897540,1443205898105,900,489,0,0,0,3,4,1,34,0003-00-0002-93.png,0004-00-0002-79.png
00000014,213,1,1443205901169,1443205901660,383,549,0,0,0,2,5,3,25,0002-00-0004-64.png,0005-00-0005-48.png
00000014,214,1,1443205902671,1443205903172,930,427,0,0,0,5,1,4,51,0005-00-0003-40.png,0001-00-0003-81.png
00000014,215,1,1443205904349,1443205904911,902,418,0,0,0,4,2,2,42,0004-00-0009-99.png,0002-00-0002-19.png
00000014,216,0,1443205906028,1443205906572,887,424,0,0,0,4,5,1,45,0004-00-0004-74.png,0005-00-0003-14.png
00000014,217,1,1443205909645,1443205910099,869,417,0,0,0,3,2,1,32,0003-00-0003-54.png,0002-00-0005-38.png
00000014,218,0,1443205911087,1443205912009,416,443,0,0,0,5,4,1,54,0005-00-0001-52.png,0004-00-0005-56.png
00000014,219,0,1443205915144,1443205916117,427,358,0,0,0,4,3,1,43,0004-00-0005-83.png,0003-00-0006-95.png
00000014,220,1,1443205919194,1443205919630,317,426,0,0,0,1,2,1,12,0001-00-0003-23.png,0002-00-0005-19.png
00000014,221,1,1443205920555,1443205921142,861,481,0,0,0,5,3,2,53,0005-00-0008-39.png,0003-00-0009-88.png
00000014,222,0,1443205922106,1443205923170,484,455,0,0,0,4,3,1,43,0004-00-0001-47.png,0003-00-0002-82.png
00000014,223,0,1443205926252,1443205926698,887,491,0,0,0,2,3,1,23,0002-00-0001-24.png,0003-00-0008-93.png
00000014,224,1,1443205929890,1443205930296,904,402,0,0,0,5,2,3,52,0005-00-0005-84.png,0002-00-0005-35.png
00000014,225,0,1443205931292,1443205931847,365,443,0,0,0,4,2,2,42,0004-00-0007-56.png,0002-00-0007-73.png
00000014,226,1,1443205934869,1443205935304,208,541,0,0,0,1,2,1,12,0001-00-0005-20.png,0002-00-0007-72.png
00000014,227,1,1443205936200,1443205936753,874,515,0,0,0,2,1,1,21,0002-00-0005-53.png,0001-00-0007-25.png
00000014,228,0,1443205937814,1443205938379,351,478,0,0,0,3,2,1,32,0003-00-0009-92.png,0002-00-0008-21.png
00000014,229,0,1443205941529,1443205941970,876,441,0,0,0,1,3,2,13,0001-00-0000-44.png,0003-00-0000-42.png
00000014,230,1,1443205945041,1443205945548,869,493,0,0,0,3,1,2,31,0003-00-0008-02.png,0001-00-0009-41.png
00000014,231,0,1443205946558,1443205947171,966,449,0,0,0,1,4,3,14,0001-00-0001-21.png,0004-00-0001-07.png
00000014,232,0,1443205950224,1443205950252,492,384,0,0,0,5,4,1,54,0005-00-0003-77.png,0004-00-0008-65.png
00000014,233,1,1443205953266,1443205953302,522,452,0,0,0,4,5,1,45,0004-00-0006-14.png,0005-00-0002-78.png
00000014,234,0,1443205954384,1443205954914,900,488,0,0,0,2,4,2,24,0002-00-0008-27.png,0004-00-0000-09.png
00000014,235,0,1443205957776,1443205958322,909,496,0,0,0,2,5,3,25,0002-00-0004-33.png,0005-00-0000-35.png
00000014,236,1,1443205961234,1443205961760,932,500,0,0,0,4,1,3,41,0004-00-0002-86.png,0001-00-0005-32.png
00000014,237,0,1443205962787,1443205963754,900,385,0,0,0,3,4,1,34,0003-00-0005-84.png,0004-00-0008-99.png
00000014,238,1,1443205966647,1443205967091,401,448,0,0,0,3,5,2,35,0003-00-0005-61.png,0005-00-0009-39.png
00000014,239,1,1443205968075,1443205968712,401,384,0,0,0,1,5,4,15,0001-00-0003-69.png,0005-00-0005-72.png
00000014,240,1,1443205969783,1443205970306,886,476,0,0,0,5,1,4,51,0005-00-0003-85.png,0001-00-0003-22.png
00000014,241,1,1443205971321,1443205971861,862,506,0,0,0,5,1,4,51,0005-00-0009-70.png,0001-00-0003-44.png
00000014,242,0,1443205972883,1443205973448,860,476,0,0,0,4,5,1,45,0004-00-0002-27.png,0005-00-0003-38.png
00000014,243,1,1443205976431,1443205976877,925,411,0,0,0,4,2,2,42,0004-00-0005-27.png,0002-00-0000-69.png
00000014,244,1,1443205977882,1443205978473,878,479,0,0,0,4,3,1,43,0004-00-0001-23.png,0003-00-0007-78.png
00000014,245,1,1443205979424,1443205979962,931,488,0,0,0,3,2,1,32,0003-00-0006-87.png,0002-00-0002-34.png
00000014,246,0,1443205981062,1443205981607,862,492,0,0,0,3,5,2,35,0003-00-0003-90.png,0005-00-0008-06.png
00000014,247,1,1443205984669,1443205985084,341,430,0,0,0,1,3,2,13,0001-00-0001-16.png,0003-00-0001-30.png
00000014,248,1,1443205985960,1443205986586,900,391,0,0,0,2,1,1,21,0002-00-0004-71.png,0001-00-0003-20.png
00000014,249,1,1443205987571,1443205988114,390,472,0,0,0,2,4,2,24,0002-00-0005-83.png,0004-00-0005-90.png
00000014,250,1,1443205989231,1443205989723,344,474,0,0,0,1,5,4,15,0001-00-0002-26.png,0005-00-0001-21.png
00000014,251,0,1443205990808,1443205991439,879,429,0,0,0,2,5,3,25,0002-00-0001-46.png,0005-00-0008-05.png
00000014,252,1,1443205994349,1443205994925,929,402,0,0,0,5,2,3,52,0005-00-0008-61.png,0002-00-0001-68.png
00000014,253,0,1443205995899,1443205996446,875,443,0,0,0,1,4,3,14,0001-00-0000-61.png,0004-00-0001-03.png
00000014,254,1,1443205999487,1443206000030,358,471,0,0,0,3,4,1,34,0003-00-0002-14.png,0004-00-0004-98.png
00000014,255,1,1443206001084,1443206001633,868,510,0,0,0,5,3,2,53,0005-00-0007-18.png,0003-00-0002-41.png
00000014,256,1,1443206002687,1443206003251,896,498,0,0,0,4,1,3,41,0004-00-0002-51.png,0001-00-0002-80.png
00000014,257,0,1443206004257,1443206005121,376,500,0,0,0,5,4,1,54,0005-00-0009-18.png,0004-00-0002-45.png
00000014,258,1,1443206008182,1443206008595,330,471,0,0,0,1,2,1,12,0001-00-0008-44.png,0002-00-0001-64.png
00000014,259,1,1443206009633,1443206010218,880,427,0,0,0,3,1,2,31,0003-00-0008-26.png,0001-00-0001-28.png
00000014,260,0,1443206011383,1443206011905,888,461,0,0,0,2,3,1,23,0002-00-0004-74.png,0003-00-0004-72.png
00000014,261,1,1443206014861,1443206015399,875,476,0,0,0,4,3,1,43,0004-00-0004-34.png,0003-00-0002-05.png
00000014,262,0,1443206016361,1443206016874,376,410,0,0,0,3,2,1,32,0003-00-0003-25.png,0002-00-0006-09.png
00000014,263,1,1443206019890,1443206020344,888,447,0,0,0,5,1,4,51,0005-00-0002-97.png,0001-00-0008-47.png
00000014,264,1,1443206021292,1443206021911,356,463,0,0,0,3,4,1,34,0003-00-0009-00.png,0004-00-0009-38.png
00000014,265,0,1443206023042,1443206023602,888,398,0,0,0,1,2,1,12,0001-00-0009-20.png,0002-00-0000-36.png
00000014,266,1,1443206026591,1443206026607,504,385,0,0,0,1,5,4,15,0001-00-0006-17.png,0005-00-0006-65.png
00000014,267,1,1443206027625,1443206028171,337,475,0,0,0,4,5,1,45,0004-00-0002-64.png,0005-00-0001-12.png
00000014,268,1,1443206029329,1443206029864,881,430,0,0,0,3,1,2,31,0003-00-0007-32.png,0001-00-0003-01.png
00000014,269,1,1443206030892,1443206031446,902,441,0,0,0,4,2,2,42,0004-00-0000-77.png,0002-00-0001-93.png
00000014,270,0,1443206032473,1443206033396,385,419,0,0,0,5,2,3,52,0005-00-0006-05.png,0002-00-0009-38.png
00000014,271,0,1443206036239,1443206036710,376,370,0,0,0,5,4,1,54,0005-00-0005-83.png,0004-00-0007-74.png
00000014,272,1,1443206039560,1443206040041,882,506,0,0,0,5,3,2,53,0005-00-0007-98.png,0003-00-0000-19.png
00000014,273,1,1443206041030,1443206041641,900,449,0,0,0,4,1,3,41,0004-00-0006-81.png,0001-00-0008-96.png
00000014,274,1,1443206042691,1443206043248,875,513,0,0,0,2,1,1,21,0002-00-0002-55.png,0001-00-0000-74.png
00000014,275,1,1443206044252,1443206044768,427,410,0,0,0,3,5,2,35,0003-00-0009-44.png,0005-00-0008-44.png
00000014,276,1,1443206045851,1443206046394,325,476,0,0,0,2,5,3,25,0002-00-0007-19.png,0005-00-0006-85.png
00000014,277,1,1443206047430,1443206047992,392,507,0,0,0,2,4,2,24,0002-00-0002-01.png,0004-00-0008-25.png
00000014,278,0,1443206049307,1443206050313,916,483,0,0,0,2,3,1,23,0002-00-0003-72.png,0003-00-0006-26.png
00000014,279,1,1443206053182,1443206053600,376,358,0,0,0,1,3,2,13,0001-00-0003-41.png,0003-00-0009-59.png
00000014,280,0,1443206054580,1443206055109,876,493,0,0,0,1,4,3,14,0001-00-0001-31.png,0004-00-0005-37.png
00000014,281,0,1443206057953,1443206058459,913,477,0,0,0,4,5,1,45,0004-00-0006-26.png,0005-00-0009-90.png
00000014,282,0,1443206061584,1443206062050,267,461,0,0,0,3,1,2,31,0003-00-0004-97.png,0001-00-0007-54.png
00000014,283,1,1443206065463,1443206065903,389,566,0,0,0,1,3,2,13,0001-00-0000-30.png,0003-00-0004-63.png
00000014,284,1,1443206066922,1443206068009,385,456,0,0,0,1,2,1,12,0001-00-0001-09.png,0002-00-0006-48.png
00000014,285,0,1443206069060,1443206069569,348,449,0,0,0,3,2,1,32,0003-00-0007-39.png,0002-00-0005-44.png
00000014,286,0,1443206072435,1443206072915,899,462,0,0,0,3,4,1,34,0003-00-0005-40.png,0004-00-0004-71.png
00000014,287,1,1443206075952,1443206076866,427,399,0,0,0,1,4,3,14,0001-00-0007-73.png,0004-00-0003-11.png
00000014,288,0,1443206077955,1443206078450,365,446,0,0,0,4,3,1,43,0004-00-0006-45.png,0003-00-0005-09.png
00000014,289,0,1443206081468,1443206081480,405,440,0,0,0,2,1,1,21,0002-00-0005-20.png,0001-00-0008-95.png
00000014,290,0,1443206084504,1443206084948,301,415,0,0,0,5,4,1,54,0005-00-0008-66.png,0004-00-0001-30.png
00000014,291,0,1443206087905,1443206088009,519,511,0,0,0,5,2,3,52,0005-00-0009-89.png,0002-00-0000-53.png
00000014,292,0,1443206090864,1443206090872,504,420,0,0,0,5,3,2,53,0005-00-0008-70.png,0003-00-0005-80.png
00000014,293,1,1443206093945,1443206094418,909,417,0,0,0,5,1,4,51,0005-00-0009-18.png,0001-00-0000-16.png
00000014,294,1,1443206095422,1443206096441,908,474,0,0,0,4,1,3,41,0004-00-0000-06.png,0001-00-0002-80.png
00000014,295,1,1443206097369,1443206097913,363,463,0,0,0,1,5,4,15,0001-00-0009-04.png,0005-00-0002-77.png
00000014,296,1,1443206099164,1443206099579,401,436,0,0,0,2,4,2,24,0002-00-0006-48.png,0004-00-0004-74.png
00000014,297,1,1443206100617,1443206101131,874,515,0,0,0,4,2,2,42,0004-00-0006-71.png,0002-00-0002-32.png
00000014,298,1,1443206102146,1443206102704,401,410,0,0,0,2,5,3,25,0002-00-0008-61.png,0005-00-0001-07.png
00000014,299,1,1443206103730,1443206104253,382,440,0,0,0,3,5,2,35,0003-00-0007-51.png,0005-00-0005-39.png
00000014,300,1,1443206105333,1443206105833,368,453,0,0,0,2,3,1,23,0002-00-0000-21.png,0003-00-0002-55.png
00000014,301,1,1443206106934,1443206107432,349,450,0,0,0,1,3,2,13,0001-00-0000-00.png,0003-00-0003-13.png
00000014,302,0,1443206108485,1443206108988,401,448,0,0,0,2,1,1,21,0002-00-0002-12.png,0001-00-0008-99.png
00000014,303,1,1443206112106,1443206112577,870,420,0,0,0,3,2,1,32,0003-00-0004-95.png,0002-00-0003-32.png
00000014,304,1,1443206113716,1443206114285,857,518,0,0,0,5,2,3,52,0005-00-0008-24.png,0002-00-0009-11.png
00000014,305,1,1443206115235,1443206115784,902,417,0,0,0,4,2,2,42,0004-00-0007-92.png,0002-00-0000-13.png
00000014,306,1,1443206116802,1443206117364,900,489,0,0,0,5,1,4,51,0005-00-0002-10.png,0001-00-0007-67.png
00000014,307,1,1443206118413,1443206118978,877,418,0,0,0,4,3,1,43,0004-00-0009-20.png,0003-00-0006-52.png
00000014,308,1,1443206120027,1443206120589,377,471,0,0,0,2,3,1,23,0002-00-0007-01.png,0003-00-0009-73.png
00000014,309,0,1443206121614,1443206122124,387,484,0,0,0,3,1,2,31,0003-00-0007-65.png,0001-00-0000-01.png
00000014,310,1,1443206125249,1443206125712,875,423,0,0,0,4,1,3,41,0004-00-0007-36.png,0001-00-0003-62.png
00000014,311,1,1443206126742,1443206127286,414,553,0,0,0,2,4,2,24,0002-00-0000-91.png,0004-00-0005-63.png
00000014,312,0,1443206128294,1443206128848,858,526,0,0,0,1,5,4,15,0001-00-0001-24.png,0005-00-0000-99.png
00000014,313,1,1443206131772,1443206131780,513,417,0,0,0,1,2,1,12,0001-00-0006-63.png,0002-00-0000-81.png
00000014,314,1,1443206132861,1443206133332,273,448,0,0,0,1,4,3,14,0001-00-0003-81.png,0004-00-0008-72.png
00000014,315,0,1443206134612,1443206135098,341,445,0,0,0,5,4,1,54,0005-00-0001-87.png,0004-00-0000-01.png
00000014,316,1,1443206138129,1443206138586,325,410,0,0,0,2,5,3,25,0002-00-0002-52.png,0005-00-0004-20.png
00000014,317,1,1443206139543,1443206140066,325,443,0,0,0,3,4,1,34,0003-00-0006-71.png,0004-00-0002-04.png
00000014,318,1,1443206141132,1443206141658,376,449,0,0,0,3,5,2,35,0003-00-0003-36.png,0005-00-0003-00.png
00000014,319,0,1443206142712,1443206143720,375,423,0,0,0,5,3,2,53,0005-00-0007-75.png,0003-00-0009-66.png
00000014,320,1,1443206146617,1443206146657,478,397,0,0,0,4,5,1,45,0004-00-0005-82.png,0005-00-0001-45.png
00000014,321,0,1443206147803,1443206148285,367,520,0,0,0,2,1,1,21,0002-00-0005-68.png,0001-00-0003-99.png
00000014,322,1,1443206151185,1443206151268,498,453,0,0,0,1,3,2,13,0001-00-0000-23.png,0003-00-0001-38.png
00000014,323,0,1443206152285,1443206152879,879,418,0,0,0,1,4,3,14,0001-00-0009-34.png,0004-00-0002-29.png
00000014,324,0,1443206155990,1443206156450,453,554,0,0,0,3,1,2,31,0003-00-0009-41.png,0001-00-0009-08.png
00000014,325,1,1443206159461,1443206159926,875,410,0,0,0,5,1,4,51,0005-00-0009-26.png,0001-00-0003-17.png
00000014,326,1,1443206160861,1443206161444,898,511,0,0,0,4,2,2,42,0004-00-0007-18.png,0002-00-0005-79.png
00000014,327,1,1443206162530,1443206163044,401,410,0,0,0,2,5,3,25,0002-00-0000-99.png,0005-00-0000-23.png
00000014,328,1,1443206164421,1443206164916,858,430,0,0,0,4,3,1,43,0004-00-0002-51.png,0003-00-0005-83.png
00000014,329,1,1443206166039,1443206166511,376,449,0,0,0,1,5,4,15,0001-00-0007-09.png,0005-00-0008-80.png
00000014,330,1,1443206167602,1443206168109,356,464,0,0,0,4,5,1,45,0004-00-0009-48.png,0005-00-0001-49.png
00000014,331,0,1443206169172,1443206170169,408,446,0,0,0,5,2,3,52,0005-00-0007-41.png,0002-00-0003-19.png
00000014,332,1,1443206173218,1443206173660,293,461,0,0,0,1,2,1,12,0001-00-0001-64.png,0002-00-0008-56.png
00000014,333,0,1443206174689,1443206175241,868,455,0,0,0,3,4,1,34,0003-00-0003-18.png,0004-00-0003-92.png
00000014,334,1,1443206178203,1443206178687,311,422,0,0,0,2,4,2,24,0002-00-0007-78.png,0004-00-0000-04.png
00000014,335,1,1443206179746,1443206180315,389,423,0,0,0,3,5,2,35,0003-00-0002-93.png,0005-00-0002-53.png
00000014,336,1,1443206181346,1443206181887,333,469,0,0,0,2,3,1,23,0002-00-0008-09.png,0003-00-0007-56.png
00000014,337,0,1443206182906,1443206183460,345,473,0,0,0,5,3,2,53,0005-00-0001-54.png,0003-00-0008-42.png
00000014,338,0,1443206186601,1443206187082,340,510,0,0,0,5,4,1,54,0005-00-0003-05.png,0004-00-0009-59.png
00000014,339,0,1443206190059,1443206190087,476,519,0,0,0,4,1,3,41,0004-00-0005-07.png,0001-00-0008-24.png
00000014,340,1,1443206193472,1443206193978,868,510,0,0,0,3,2,1,32,0003-00-0005-42.png,0002-00-0004-20.png
00000014,341,1,1443206194962,1443206195508,882,422,0,0,0,5,1,4,51,0005-00-0001-53.png,0001-00-0009-00.png
00000014,342,1,1443206196522,1443206197073,884,486,0,0,0,5,3,2,53,0005-00-0006-24.png,0003-00-0005-69.png
00000014,343,1,1443206198030,1443206198862,337,450,0,0,0,2,3,1,23,0002-00-0009-80.png,0003-00-0009-11.png
00000014,344,1,1443206199920,1443206200524,427,410,0,0,0,2,4,2,24,0002-00-0001-91.png,0004-00-0000-68.png
00000014,345,0,1443206201510,1443206202290,458,499,0,0,0,5,4,1,54,0005-00-0006-95.png,0004-00-0004-29.png
00000014,346,1,1443206205296,1443206205731,325,422,0,0,0,1,2,1,12,0001-00-0009-71.png,0002-00-0004-46.png
00000014,347,1,1443206207032,1443206207459,376,450,0,0,0,1,3,2,13,0001-00-0006-04.png,0003-00-0000-07.png
00000014,348,0,1443206208436,1443206209394,352,468,0,0,0,4,2,2,42,0004-00-0000-27.png,0002-00-0000-42.png
00000014,349,0,1443206212736,1443206213162,401,464,0,0,0,3,2,1,32,0003-00-0004-35.png,0002-00-0003-97.png
00000014,350,1,1443206216146,1443206216649,897,437,0,0,0,4,1,3,41,0004-00-0007-83.png,0001-00-0007-80.png
00000014,351,1,1443206217628,1443206218185,904,433,0,0,0,2,1,1,21,0002-00-0006-37.png,0001-00-0002-33.png
00000014,352,1,1443206219159,1443206219704,366,470,0,0,0,3,4,1,34,0003-00-0002-24.png,0004-00-0007-84.png
00000014,353,0,1443206220719,1443206221309,875,397,0,0,0,3,5,2,35,0003-00-0009-31.png,0005-00-0003-37.png
00000014,354,1,1443206224455,1443206225345,901,517,0,0,0,5,2,3,52,0005-00-0001-35.png,0002-00-0000-62.png
00000014,355,1,1443206226347,1443206226877,872,508,0,0,0,4,3,1,43,0004-00-0008-63.png,0003-00-0008-27.png
00000014,356,1,1443206227848,1443206228304,376,423,0,0,0,2,5,3,25,0002-00-0004-03.png,0005-00-0000-37.png
00000014,357,1,1443206229356,1443206229943,393,416,0,0,0,4,5,1,45,0004-00-0004-40.png,0005-00-0001-44.png
00000014,358,1,1443206230991,1443206231526,299,475,0,0,0,1,4,3,14,0001-00-0006-09.png,0004-00-0006-89.png
00000014,359,1,1443206232575,1443206233122,379,444,0,0,0,1,5,4,15,0001-00-0003-65.png,0005-00-0000-76.png
00000014,360,1,1443206234204,1443206235314,869,403,0,0,0,3,1,2,31,0003-00-0004-00.png,0001-00-0001-05.png
00000014,361,1,1443206236311,1443206237023,464,397,0,0,0,3,5,2,35,0003-00-0008-13.png,0005-00-0007-50.png
00000014,362,0,1443206238140,1443206239216,861,501,0,0,0,2,4,2,24,0002-00-0009-75.png,0004-00-0008-65.png
00000014,363,0,1443206242088,1443206242112,509,395,0,0,0,4,3,1,43,0004-00-0001-56.png,0003-00-0009-95.png
00000014,364,0,1443206245003,1443206245463,341,447,0,0,0,5,3,2,53,0005-00-0006-86.png,0003-00-0004-21.png
00000014,365,1,1443206248594,1443206249050,866,509,0,0,0,4,2,2,42,0004-00-0005-85.png,0002-00-0004-13.png
00000014,366,1,1443206250011,1443206250603,353,454,0,0,0,1,3,2,13,0001-00-0004-69.png,0003-00-0008-94.png
00000014,367,0,1443206251627,1443206252201,401,436,0,0,0,2,1,1,21,0002-00-0003-54.png,0001-00-0001-95.png
00000014,368,0,1443206255074,1443206255549,916,475,0,0,0,2,3,1,23,0002-00-0005-29.png,0003-00-0007-62.png
00000014,369,1,1443206258592,1443206259080,291,454,0,0,0,1,5,4,15,0001-00-0005-13.png,0005-00-0003-27.png
00000014,370,1,1443206259993,1443206260588,338,476,0,0,0,3,4,1,34,0003-00-0002-10.png,0004-00-0002-37.png
00000014,371,1,1443206261535,1443206262121,401,436,0,0,0,2,5,3,25,0002-00-0005-99.png,0005-00-0006-43.png
00000014,372,0,1443206263291,1443206263803,376,449,0,0,0,5,4,1,54,0005-00-0004-44.png,0004-00-0003-18.png
00000014,373,0,1443206266662,1443206266698,504,452,0,0,0,4,1,3,41,0004-00-0006-18.png,0001-00-0009-72.png
00000014,374,0,1443206269653,1443206270150,880,406,0,0,0,4,5,1,45,0004-00-0009-05.png,0005-00-0004-75.png
00000014,375,0,1443206273104,1443206273570,305,452,0,0,0,5,2,3,52,0005-00-0001-20.png,0002-00-0008-99.png
00000014,376,0,1443206276520,1443206276524,511,419,0,0,0,5,1,4,51,0005-00-0005-75.png,0001-00-0007-61.png
00000014,377,1,1443206279651,1443206280095,900,410,0,0,0,3,1,2,31,0003-00-0003-51.png,0001-00-0007-24.png
00000014,378,1,1443206281084,1443206281652,912,476,0,0,0,3,2,1,32,0003-00-0004-07.png,0002-00-0000-04.png
00000014,379,1,1443206282584,1443206283168,401,442,0,0,0,1,2,1,12,0001-00-0008-59.png,0002-00-0001-58.png
00000014,380,1,1443206284183,1443206284861,407,488,0,0,0,1,4,3,14,0001-00-0002-96.png,0004-00-0009-08.png
00000014,381,0,1443206285873,1443206286378,356,462,0,0,0,4,3,1,43,0004-00-0003-25.png,0003-00-0007-61.png
00000014,382,0,1443206289261,1443206289888,906,475,0,0,0,2,3,1,23,0002-00-0005-01.png,0003-00-0003-81.png
00000014,383,1,1443206293157,1443206293614,359,430,0,0,0,3,5,2,35,0003-00-0000-59.png,0005-00-0006-00.png
00000014,384,1,1443206294619,1443206295188,861,435,0,0,0,5,1,4,51,0005-00-0004-59.png,0001-00-0007-16.png
00000014,385,1,1443206296274,1443206296831,861,513,0,0,0,5,3,2,53,0005-00-0007-16.png,0003-00-0006-09.png
00000014,386,0,1443206297839,1443206298365,360,457,0,0,0,3,2,1,32,0003-00-0009-19.png,0002-00-0001-57.png
00000014,387,0,1443206301289,1443206301293,504,400,0,0,0,4,1,3,41,0004-00-0009-31.png,0001-00-0006-33.png
00000014,388,1,1443206304148,1443206304626,875,501,0,0,0,4,2,2,42,0004-00-0002-86.png,0002-00-0004-01.png
00000014,389,1,1443206305640,1443206306141,338,458,0,0,0,2,4,2,24,0002-00-0000-46.png,0004-00-0000-52.png
00000014,390,1,1443206307216,1443206307833,875,502,0,0,0,2,1,1,21,0002-00-0006-51.png,0001-00-0001-54.png
00000014,391,1,1443206308860,1443206309357,358,472,0,0,0,1,2,1,12,0001-00-0002-13.png,0002-00-0003-81.png
00000014,392,1,1443206310411,1443206310935,401,462,0,0,0,4,5,1,45,0004-00-0001-08.png,0005-00-0005-63.png
00000014,393,0,1443206312061,1443206312633,448,440,0,0,0,5,4,1,54,0005-00-0006-34.png,0004-00-0005-80.png
00000014,394,1,1443206315776,1443206316243,423,470,0,0,0,3,4,1,34,0003-00-0000-77.png,0004-00-0003-90.png
00000014,395,1,1443206317923,1443206318376,312,450,0,0,0,1,4,3,14,0001-00-0001-12.png,0004-00-0002-96.png
00000014,396,0,1443206319376,1443206319882,372,473,0,0,0,3,1,2,31,0003-00-0003-55.png,0001-00-0002-47.png
00000014,397,1,1443206323001,1443206323465,317,433,0,0,0,1,5,4,15,0001-00-0009-22.png,0005-00-0000-50.png
00000014,398,1,1443206324503,1443206324994,387,553,0,0,0,2,5,3,25,0002-00-0003-12.png,0005-00-0003-74.png
00000014,399,0,1443206326044,1443206326626,879,428,0,0,0,1,3,2,13,0001-00-0003-65.png,0003-00-0002-67.png
00000014,400,1,1443206329614,1443206330109,900,423,0,0,0,5,2,3,52,0005-00-0004-30.png,0002-00-0003-76.png
00000014,401,1,1443206331164,1443206331626,345,469,0,0,0,1,4,3,14,0001-00-0000-78.png,0004-00-0004-57.png
00000014,402,0,1443206332705,1443206333329,859,550,0,0,0,1,2,1,12,0001-00-0005-05.png,0002-00-0004-72.png
00000014,403,1,1443206336729,1443206337163,384,436,0,0,0,1,5,4,15,0001-00-0004-78.png,0005-00-0004-69.png
00000014,404,1,1443206338167,1443206339167,905,429,0,0,0,5,2,3,52,0005-00-0005-38.png,0002-00-0006-90.png
00000014,405,1,1443206340228,1443206340957,384,418,0,0,0,3,5,2,35,0003-00-0003-90.png,0005-00-0002-74.png
00000014,406,1,1443206342037,1443206342603,350,441,0,0,0,2,3,1,23,0002-00-0000-88.png,0003-00-0006-38.png
00000014,407,1,1443206343708,1443206344190,367,475,0,0,0,4,5,1,45,0004-00-0006-92.png,0005-00-0001-52.png
00000014,408,0,1443206345234,1443206345848,857,443,0,0,0,2,4,2,24,0002-00-0009-09.png,0004-00-0000-12.png
00000014,409,0,1443206348955,1443206348971,501,400,0,0,0,4,1,3,41,0004-00-0007-86.png,0001-00-0007-96.png
00000014,410,1,1443206352084,1443206352517,325,410,0,0,0,3,4,1,34,0003-00-0006-65.png,0004-00-0005-73.png
00000014,411,1,1443206353606,1443206354169,875,461,0,0,0,5,1,4,51,0005-00-0005-85.png,0001-00-0005-90.png
00000014,412,0,1443206355224,1443206355721,375,482,0,0,0,3,2,1,32,0003-00-0006-37.png,0002-00-0005-35.png
00000014,413,1,1443206358772,1443206358796,490,436,0,0,0,1,3,2,13,0001-00-0007-07.png,0003-00-0006-80.png
00000014,414,0,1443206359895,1443206360398,323,462,0,0,0,5,4,1,54,0005-00-0002-70.png,0004-00-0000-05.png
00000014,415,0,1443206363664,1443206364144,299,501,0,0,0,4,2,2,42,0004-00-0004-25.png,0002-00-0001-63.png
00000014,416,1,1443206367241,1443206367719,879,454,0,0,0,3,1,2,31,0003-00-0000-40.png,0001-00-0003-47.png
00000014,417,1,1443206368762,1443206369802,910,406,0,0,0,4,3,1,43,0004-00-0005-15.png,0003-00-0006-52.png
00000014,418,1,1443206370838,1443206371386,377,452,0,0,0,2,5,3,25,0002-00-0007-85.png,0005-00-0009-91.png
00000014,419,1,1443206372658,1443206373178,879,428,0,0,0,5,3,2,53,0005-00-0000-70.png,0003-00-0001-61.png
00000014,420,0,1443206374208,1443206374735,401,410,0,0,0,2,1,1,21,0002-00-0007-04.png,0001-00-0008-20.png
00000014,421,1,1443206377625,1443206378082,350,436,0,0,0,3,5,2,35,0003-00-0003-46.png,0005-00-0008-07.png
00000014,422,1,1443206379008,1443206379652,865,454,0,0,0,5,3,2,53,0005-00-0003-12.png,0003-00-0008-24.png
00000014,423,1,1443206381135,1443206381626,406,535,0,0,0,2,3,1,23,0002-00-0001-11.png,0003-00-0005-94.png
00000014,424,1,1443206382588,1443206383186,377,452,0,0,0,2,5,3,25,0002-00-0005-12.png,0005-00-0008-21.png
00000014,425,1,1443206384346,1443206385602,927,492,0,0,0,3,2,1,32,0003-00-0008-95.png,0002-00-0003-88.png
00000014,426,1,1443206386641,1443206387652,379,398,0,0,0,1,2,1,12,0001-00-0005-13.png,0002-00-0000-17.png
00000014,427,1,1443206388686,1443206389220,332,468,0,0,0,1,4,3,14,0001-00-0004-44.png,0004-00-0003-38.png
00000014,428,1,1443206390229,1443206390814,396,541,0,0,0,2,4,2,24,0002-00-0003-11.png,0004-00-0005-31.png
00000014,429,1,1443206392008,1443206393054,900,397,0,0,0,4,1,3,41,0004-00-0004-93.png,0001-00-0007-60.png
00000014,430,1,1443206394284,1443206394783,293,487,0,0,0,1,5,4,15,0001-00-0008-17.png,0005-00-0001-28.png
00000014,431,0,1443206395790,1443206396379,364,448,0,0,0,5,2,3,52,0005-00-0008-41.png,0002-00-0008-26.png
00000014,432,1,1443206399682,1443206400118,312,475,0,0,0,4,5,1,45,0004-00-0000-68.png,0005-00-0004-77.png
00000014,433,1,1443206401410,1443206401954,863,515,0,0,0,5,4,1,54,0005-00-0004-10.png,0004-00-0001-44.png
00000014,434,0,1443206403003,1443206403943,352,425,0,0,0,2,1,1,21,0002-00-0006-80.png,0001-00-0003-14.png
00000014,435,1,1443206406914,1443206406934,507,453,0,0,0,3,4,1,34,0003-00-0000-90.png,0004-00-0009-50.png
00000014,436,1,1443206408011,1443206408607,880,412,0,0,0,4,2,2,42,0004-00-0006-14.png,0002-00-0004-25.png
00000014,437,1,1443206409621,1443206410200,874,463,0,0,0,4,3,1,43,0004-00-0007-22.png,0003-00-0004-93.png
00000014,438,1,1443206411330,1443206411880,875,436,0,0,0,5,1,4,51,0005-00-0009-35.png,0001-00-0005-06.png
00000014,439,1,1443206412970,1443206413987,446,507,0,0,0,1,3,2,13,0001-00-0004-15.png,0003-00-0004-30.png
00000014,440,1,1443206415470,1443206415987,899,510,0,0,0,3,1,2,31,0003-00-0004-48.png,0001-00-0009-87.png
00000014,441,0,1443206417051,1443206417609,879,429,0,0,0,2,3,1,23,0002-00-0006-87.png,0003-00-0005-74.png
00000014,442,0,1443206420581,1443206421118,376,436,0,0,0,3,2,1,32,0003-00-0008-37.png,0002-00-0000-50.png
00000014,443,1,1443206423999,1443206424011,498,428,0,0,0,1,3,2,13,0001-00-0008-88.png,0003-00-0007-32.png
00000014,444,1,1443206424985,1443206425524,413,556,0,0,0,3,5,2,35,0003-00-0009-33.png,0005-00-0002-25.png
00000014,445,1,1443206426495,1443206427538,931,413,0,0,0,5,4,1,54,0005-00-0000-97.png,0004-00-0004-92.png
00000014,446,1,1443206428514,1443206429231,869,464,0,0,0,5,3,2,53,0005-00-0003-84.png,0003-00-0007-39.png
00000014,447,1,1443206430302,1443206430848,410,562,0,0,0,1,4,3,14,0001-00-0009-56.png,0004-00-0003-62.png
00000014,448,1,1443206431942,1443206432460,348,449,0,0,0,1,5,4,15,0001-00-0003-93.png,0005-00-0002-80.png
00000014,449,1,1443206433553,1443206434123,369,451,0,0,0,3,4,1,34,0003-00-0000-83.png,0004-00-0004-19.png
00000014,450,0,1443206435606,1443206436141,339,475,0,0,0,4,3,1,43,0004-00-0009-50.png,0003-00-0002-73.png
00000014,451,1,1443206439135,1443206439720,926,410,0,0,0,4,2,2,42,0004-00-0001-17.png,0002-00-0009-42.png
00000014,452,1,1443206440768,1443206441239,368,442,0,0,0,1,2,1,12,0001-00-0008-24.png,0002-00-0007-16.png
00000014,453,1,1443206442298,1443206442882,877,519,0,0,0,5,1,4,51,0005-00-0006-91.png,0001-00-0004-48.png
00000014,454,1,1443206443973,1443206444524,376,449,0,0,0,2,4,2,24,0002-00-0007-03.png,0004-00-0007-86.png
00000014,455,1,1443206446015,1443206446958,862,400,0,0,0,2,1,1,21,0002-00-0006-86.png,0001-00-0007-05.png
00000014,456,1,1443206447923,1443206448557,871,538,0,0,0,3,1,2,31,0003-00-0003-49.png,0001-00-0001-31.png
00000014,457,1,1443206449573,1443206450191,393,563,0,0,0,4,5,1,45,0004-00-0003-81.png,0005-00-0000-74.png
00000014,458,1,1443206451222,1443206451800,870,420,0,0,0,5,2,3,52,0005-00-0004-23.png,0002-00-0004-14.png
00000014,459,1,1443206453267,1443206453723,376,462,0,0,0,2,5,3,25,0002-00-0004-10.png,0005-00-0007-64.png
00000014,460,1,1443206454712,1443206455794,901,494,0,0,0,4,1,3,41,0004-00-0006-77.png,0001-00-0005-07.png
00000014,461,0,1443206456879,1443206457434,401,436,0,0,0,2,1,1,21,0002-00-0001-69.png,0001-00-0001-96.png
00000014,462,0,1443206460441,1443206460461,487,495,0,0,0,5,2,3,52,0005-00-0004-48.png,0002-00-0006-20.png
00000014,463,0,1443206463637,1443206464526,355,434,0,0,0,3,2,1,32,0003-00-0003-35.png,0002-00-0002-63.png
00000014,464,1,1443206467591,1443206467607,441,446,0,0,0,1,5,4,15,0001-00-0001-24.png,0005-00-0006-70.png
00000014,465,0,1443206468595,1443206469237,900,411,0,0,0,3,4,1,34,0003-00-0009-96.png,0004-00-0006-19.png
00000014,466,1,1443206472269,1443206472725,319,439,0,0,0,2,4,2,24,0002-00-0009-42.png,0004-00-0002-99.png
00000014,467,0,1443206473706,1443206474379,875,488,0,0,0,4,5,1,45,0004-00-0008-24.png,0005-00-0002-90.png
00000014,468,1,1443206477270,1443206477800,874,516,0,0,0,5,1,4,51,0005-00-0008-40.png,0001-00-0007-69.png
00000014,469,1,1443206478782,1443206479282,329,457,0,0,0,1,3,2,13,0001-00-0009-92.png,0003-00-0000-28.png
00000014,470,0,1443206480302,1443206480910,408,433,0,0,0,3,1,2,31,0003-00-0007-84.png,0001-00-0005-73.png
00000014,471,0,1443206483818,1443206484348,905,428,0,0,0,1,2,1,12,0001-00-0005-20.png,0002-00-0003-38.png
00000014,472,1,1443206487238,1443206487727,930,389,0,0,0,5,3,2,53,0005-00-0006-97.png,0003-00-0007-59.png
00000014,473,0,1443206488693,1443206489169,380,451,0,0,0,4,3,1,43,0004-00-0004-54.png,0003-00-0001-37.png
00000014,474,1,1443206492288,1443206492770,863,489,0,0,0,4,2,2,42,0004-00-0004-68.png,0002-00-0000-27.png
00000014,475,1,1443206493667,1443206494298,880,391,0,0,0,5,4,1,54,0005-00-0001-99.png,0004-00-0003-80.png
00000014,476,0,1443206495379,1443206495929,875,437,0,0,0,3,5,2,35,0003-00-0004-74.png,0005-00-0009-94.png
00000014,477,0,1443206498972,1443206499493,349,438,0,0,0,4,1,3,41,0004-00-0003-60.png,0001-00-0009-23.png
00000014,478,1,1443206502339,1443206502869,208,526,0,0,0,2,5,3,25,0002-00-0001-98.png,0005-00-0005-06.png
00000014,479,1,1443206504304,1443206504758,324,409,0,0,0,1,4,3,14,0001-00-0004-40.png,0004-00-0004-62.png
00000014,480,1,1443206505771,1443206506764,440,516,0,0,0,2,3,1,23,0002-00-0006-93.png,0003-00-0007-74.png
00000014,481,0,1443206507812,1443206508365,876,503,0,0,0,1,3,2,13,0001-00-0001-61.png,0003-00-0005-86.png
00000014,482,1,1443206511477,1443206511935,878,427,0,0,0,3,1,2,31,0003-00-0003-48.png,0001-00-0002-02.png
00000014,483,1,1443206512968,1443206513462,380,454,0,0,0,3,4,1,34,0003-00-0002-76.png,0004-00-0002-89.png
00000014,484,1,1443206514904,1443206515410,401,449,0,0,0,2,4,2,24,0002-00-0006-16.png,0004-00-0005-75.png
00000014,485,0,1443206516367,1443206517523,438,508,0,0,0,4,1,3,41,0004-00-0000-74.png,0001-00-0000-92.png
00000014,486,0,1443206520666,1443206521100,415,553,0,0,0,4,3,1,43,0004-00-0000-34.png,0003-00-0000-49.png
00000014,487,1,1443206524186,1443206524613,350,410,0,0,0,2,3,1,23,0002-00-0000-03.png,0003-00-0004-60.png
00000014,488,0,1443206525529,1443206526089,344,474,0,0,0,5,4,1,54,0005-00-0009-15.png,0004-00-0000-51.png
00000014,489,1,1443206529007,1443206529027,470,452,0,0,0,1,2,1,12,0001-00-0004-72.png,0002-00-0006-13.png
00000014,490,1,1443206530200,1443206530715,370,420,0,0,0,1,4,3,14,0001-00-0003-48.png,0004-00-0004-96.png
00000014,491,1,1443206531792,1443206532327,877,544,0,0,0,4,2,2,42,0004-00-0004-56.png,0002-00-0005-69.png
00000014,492,1,1443206533402,1443206533988,414,449,0,0,0,1,5,4,15,0001-00-0009-30.png,0005-00-0009-95.png
00000014,493,1,1443206534963,1443206535972,866,507,0,0,0,5,2,3,52,0005-00-0001-79.png,0002-00-0002-98.png
00000014,494,0,1443206537388,1443206537961,893,415,0,0,0,3,5,2,35,0003-00-0008-31.png,0005-00-0006-18.png
00000014,495,0,1443206540874,1443206540910,510,418,0,0,0,5,1,4,51,0005-00-0005-76.png,0001-00-0004-89.png
00000014,496,1,1443206543827,1443206543847,493,404,0,0,0,2,5,3,25,0002-00-0000-54.png,0005-00-0009-46.png
00000014,497,0,1443206544900,1443206545912,393,401,0,0,0,5,3,2,53,0005-00-0000-19.png,0003-00-0001-30.png
00000014,498,1,1443206549066,1443206549532,883,437,0,0,0,2,1,1,21,0002-00-0006-15.png,0001-00-0002-71.png
00000014,499,1,1443206550487,1443206551041,865,428,0,0,0,3,2,1,32,0003-00-0007-08.png,0002-00-0004-70.png
00000014,500,1,1443206552008,1443206552480,380,466,0,0,0,4,5,1,45,0004-00-0004-63.png,0005-00-0007-26.png
00000014,501,1,1443206553499,1443206554056,866,453,0,0,0,5,1,4,51,0005-00-0003-36.png,0001-00-0006-61.png
00000014,502,1,1443206555514,1443206555990,369,472,0,0,0,4,5,1,45,0004-00-0001-41.png,0005-00-0003-41.png
00000014,503,1,1443206556975,1443206557466,358,456,0,0,0,1,2,1,12,0001-00-0003-24.png,0002-00-0003-87.png
00000014,504,1,1443206558485,1443206559986,360,439,0,0,0,3,5,2,35,0003-00-0004-52.png,0005-00-0007-13.png
00000014,505,1,1443206560919,1443206561457,359,455,0,0,0,2,4,2,24,0002-00-0006-69.png,0004-00-0005-13.png
00000014,506,0,1443206562421,1443206563102,401,370,0,0,0,5,2,3,52,0005-00-0001-47.png,0002-00-0008-78.png
00000014,507,0,1443206566169,1443206566640,302,471,0,0,0,4,1,3,41,0004-00-0003-38.png,0001-00-0002-97.png
00000014,508,1,1443206569785,1443206570246,875,410,0,0,0,3,1,2,31,0003-00-0009-60.png,0001-00-0007-40.png
00000014,509,0,1443206571663,1443206572126,427,462,0,0,0,5,3,2,53,0005-00-0007-24.png,0003-00-0000-74.png
00000014,510,0,1443206575062,1443206575549,383,429,0,0,0,2,1,1,21,0002-00-0000-84.png,0001-00-0009-50.png
00000014,511,1,1443206578957,1443206579369,316,427,0,0,0,1,3,2,13,0001-00-0007-41.png,0003-00-0008-95.png
00000014,512,0,1443206580757,1443206581299,882,445,0,0,0,1,4,3,14,0001-00-0003-36.png,0004-00-0009-64.png
00000014,513,0,1443206584285,1443206584818,899,542,0,0,0,2,3,1,23,0002-00-0001-07.png,0003-00-0004-36.png
00000014,514,1,1443206587860,1443206588304,350,426,0,0,0,3,4,1,34,0003-00-0001-78.png,0004-00-0004-77.png
00000014,515,0,1443206589294,1443206589959,394,409,0,0,0,4,2,2,42,0004-00-0004-94.png,0002-00-0007-92.png
00000014,516,1,1443206592910,1443206593356,401,410,0,0,0,1,5,4,15,0001-00-0006-97.png,0005-00-0006-81.png
00000014,517,1,1443206594531,1443206595006,913,410,0,0,0,3,2,1,32,0003-00-0003-33.png,0002-00-0006-17.png
00000014,518,1,1443206596043,1443206596542,325,436,0,0,0,2,5,3,25,0002-00-0002-72.png,0005-00-0004-21.png
00000014,519,0,1443206597544,1443206598136,345,448,0,0,0,5,4,1,54,0005-00-0004-19.png,0004-00-0000-73.png
00000014,520,1,1443206601112,1443206601552,901,383,0,0,0,4,3,1,43,0004-00-0009-84.png,0003-00-0000-41.png
00000014,521,1,1443206602551,1443206603029,411,455,0,0,0,3,5,2,35,0003-00-0003-38.png,0005-00-0007-63.png
00000014,522,1,1443206603993,1443206604560,875,410,0,0,0,5,2,3,52,0005-00-0002-64.png,0002-00-0003-46.png
00000014,523,0,1443206605563,1443206606588,458,439,0,0,0,4,2,2,42,0004-00-0001-43.png,0002-00-0002-09.png
00000014,524,1,1443206609456,1443206609953,414,555,0,0,0,1,3,2,13,0001-00-0000-45.png,0003-00-0006-35.png
00000014,525,1,1443206610814,1443206611395,329,460,0,0,0,1,5,4,15,0001-00-0008-95.png,0005-00-0008-57.png
00000014,526,1,1443206612370,1443206612959,864,474,0,0,0,5,1,4,51,0005-00-0008-60.png,0001-00-0003-75.png
00000014,527,0,1443206613931,1443206615001,912,490,0,0,0,2,3,1,23,0002-00-0003-93.png,0003-00-0009-57.png
00000014,528,1,1443206617885,1443206618788,931,457,0,0,0,3,1,2,31,0003-00-0007-54.png,0001-00-0001-49.png
00000014,529,1,1443206619793,1443206620298,361,439,0,0,0,3,4,1,34,0003-00-0001-56.png,0004-00-0005-46.png
00000014,530,0,1443206621235,1443206621734,360,463,0,0,0,2,1,1,21,0002-00-0000-58.png,0001-00-0004-00.png
00000014,531,1,1443206624702,1443206625766,901,494,0,0,0,5,4,1,54,0005-00-0003-28.png,0004-00-0000-90.png
00000014,532,0,1443206626688,1443206627249,875,417,0,0,0,1,2,1,12,0001-00-0004-93.png,0002-00-0007-98.png
00000014,533,1,1443206631360,1443206631772,383,423,0,0,0,1,4,3,14,0001-00-0005-62.png,0004-00-0008-24.png
00000014,534,0,1443206632834,1443206633443,916,430,0,0,0,2,5,3,25,0002-00-0003-69.png,0005-00-0002-30.png
00000014,535,1,1443206636499,1443206636956,887,425,0,0,0,5,3,2,53,0005-00-0006-34.png,0003-00-0002-18.png
00000014,536,1,1443206638029,1443206638594,875,480,0,0,0,4,3,1,43,0004-00-0003-95.png,0003-00-0001-04.png
00000014,537,1,1443206639590,1443206640125,427,384,0,0,0,4,5,1,45,0004-00-0001-79.png,0005-00-0003-76.png
00000014,538,1,1443206641190,1443206641782,870,498,0,0,0,4,1,3,41,0004-00-0005-72.png,0001-00-0000-41.png
00000014,539,1,1443206642827,1443206643325,376,449,0,0,0,2,4,2,24,0002-00-0001-01.png,0004-00-0001-35.png
00000014,540,0,1443206644411,1443206645430,427,423,0,0,0,3,2,1,32,0003-00-0007-12.png,0002-00-0005-26.png
00000014,541,1,1443206648374,1443206648822,339,446,0,0,0,1,4,3,14,0001-00-0000-21.png,0004-00-0001-32.png
00000014,542,0,1443206649897,1443206650415,892,428,0,0,0,3,4,1,34,0003-00-0003-20.png,0004-00-0005-14.png
00000014,543,1,1443206653557,1443206654008,293,460,0,0,0,1,2,1,12,0001-00-0002-98.png,0002-00-0006-41.png
00000014,544,1,1443206654975,1443206655464,376,410,0,0,0,1,3,2,13,0001-00-0009-59.png,0003-00-0006-06.png
00000014,545,1,1443206656556,1443206657101,876,444,0,0,0,2,1,1,21,0002-00-0009-68.png,0001-00-0001-52.png
00000014,546,1,1443206658162,1443206658719,412,548,0,0,0,1,5,4,15,0001-00-0000-56.png,0005-00-0000-90.png
00000014,547,1,1443206659737,1443206660333,875,423,0,0,0,5,2,3,52,0005-00-0000-61.png,0002-00-0001-98.png
00000014,548,1,1443206661345,1443206661941,875,514,0,0,0,4,3,1,43,0004-00-0007-35.png,0003-00-0004-41.png
00000014,549,1,1443206663543,1443206664006,860,503,0,0,0,3,2,1,32,0003-00-0005-98.png,0002-00-0007-33.png
00000014,550,0,1443206665173,1443206667133,906,491,0,0,0,4,5,1,45,0004-00-0002-84.png,0005-00-0006-58.png
00000014,551,0,1443206670159,1443206670615,388,565,0,0,0,4,2,2,42,0004-00-0006-82.png,0002-00-0007-38.png
00000014,552,1,1443206673449,1443206674472,197,502,0,0,0,2,3,1,23,0002-00-0005-03.png,0003-00-0002-11.png
00000014,553,1,1443206675478,1443206676013,318,462,0,0,0,2,5,3,25,0002-00-0001-43.png,0005-00-0008-40.png
00000014,554,0,1443206677041,1443206678347,350,449,0,0,0,4,1,3,41,0004-00-0004-28.png,0001-00-0001-15.png
00000014,555,0,1443206681428,1443206681859,394,453,0,0,0,5,3,2,53,0005-00-0003-56.png,0003-00-0005-87.png
00000014,556,1,1443206685537,1443206686097,888,369,0,0,0,5,1,4,51,0005-00-0006-88.png,0001-00-0008-33.png
00000014,557,0,1443206687132,1443206687673,338,474,0,0,0,5,4,1,54,0005-00-0006-92.png,0004-00-0000-40.png
00000014,558,1,1443206690711,1443206691111,342,430,0,0,0,2,4,2,24,0002-00-0009-31.png,0004-00-0004-51.png
00000014,559,0,1443206692156,1443206692624,401,462,0,0,0,3,1,2,31,0003-00-0003-66.png,0001-00-0009-77.png
00000014,560,0,1443206695930,1443206696356,913,424,0,0,0,3,5,2,35,0003-00-0008-11.png,0005-00-0003-37.png
00000014,561,0,1443206699877,1443206700385,292,420,0,0,0,5,3,2,53,0005-00-0000-02.png,0003-00-0003-66.png
00000014,562,0,1443206703273,1443206703756,299,434,0,0,0,5,4,1,54,0005-00-0009-68.png,0004-00-0001-25.png
00000014,563,1,1443206706681,1443206706693,521,367,0,0,0,2,3,1,23,0002-00-0000-08.png,0003-00-0001-09.png
00000014,564,1,1443206707685,1443206708116,337,475,0,0,0,1,2,1,12,0001-00-0000-86.png,0002-00-0009-50.png
00000014,565,1,1443206709160,1443206709642,336,476,0,0,0,1,5,4,15,0001-00-0000-42.png,0005-00-0003-08.png
00000014,566,1,1443206710665,1443206711759,919,390,0,0,0,5,1,4,51,0005-00-0003-59.png,0001-00-0009-88.png
00000014,567,0,1443206712728,1443206713730,902,468,0,0,0,4,5,1,45,0004-00-0002-55.png,0005-00-0004-95.png
00000014,568,1,1443206717140,1443206717615,926,467,0,0,0,3,1,2,31,0003-00-0008-72.png,0001-00-0001-95.png
00000014,569,0,1443206719006,1443206719532,876,476,0,0,0,3,4,1,34,0003-00-0009-47.png,0004-00-0004-43.png
00000014,570,0,1443206722816,1443206723304,349,431,0,0,0,2,1,1,21,0002-00-0005-52.png,0001-00-0000-15.png
00000014,571,0,1443206727686,1443206728206,890,536,0,0,0,1,3,2,13,0001-00-0007-92.png,0003-00-0008-67.png
00000014,572,1,1443206731314,1443206731805,887,535,0,0,0,4,1,3,41,0004-00-0000-96.png,0001-00-0000-03.png
00000014,573,1,1443206733787,1443206734245,360,449,0,0,0,2,5,3,25,0002-00-0002-80.png,0005-00-0002-77.png
00000014,574,1,1443206735875,1443206736460,266,464,0,0,0,3,5,2,35,0003-00-0004-85.png,0005-00-0006-23.png
00000014,575,1,1443206737974,1443206738464,892,508,0,0,0,4,3,1,43,0004-00-0003-93.png,0003-00-0009-49.png
00000014,576,1,1443206740128,1443206740631,862,449,0,0,0,4,2,2,42,0004-00-0008-41.png,0002-00-0005-61.png
00000014,577,0,1443206741918,1443206742460,376,448,0,0,0,3,2,1,32,0003-00-0002-36.png,0002-00-0000-50.png
00000014,578,0,1443206746053,1443206746518,859,549,0,0,0,1,4,3,14,0001-00-0009-69.png,0004-00-0009-11.png
00000014,579,0,1443206749891,1443206750403,919,417,0,0,0,2,4,2,24,0002-00-0001-47.png,0004-00-0008-61.png
00000014,580,1,1443206755684,1443206756210,916,444,0,0,0,5,2,3,52,0005-00-0008-86.png,0002-00-0000-49.png
00000014,581,0,1443206757333,1443206757864,875,436,0,0,0,1,5,4,15,0001-00-0000-67.png,0005-00-0009-75.png
00000014,582,0,1443206761011,1443206761514,344,374,0,0,0,3,1,2,31,0003-00-0000-19.png,0001-00-0009-82.png
00000014,583,1,1443206764519,1443206764543,416,436,0,0,0,1,3,2,13,0001-00-0009-73.png,0003-00-0000-56.png
00000014,584,1,1443206765851,1443206766329,350,449,0,0,0,2,4,2,24,0002-00-0001-49.png,0004-00-0003-01.png
00000014,585,0,1443206767556,1443206768076,893,479,0,0,0,4,5,1,45,0004-00-0007-14.png,0005-00-0003-05.png
00000014,586,0,1443206771006,1443206771066,464,493,0,0,0,2,1,1,21,0002-00-0000-31.png,0001-00-0003-29.png
00000014,587,1,1443206774000,1443206774498,929,419,0,0,0,5,2,3,52,0005-00-0003-59.png,0002-00-0002-82.png
00000014,588,1,1443206775513,1443206775987,401,436,0,0,0,1,2,1,12,0001-00-0009-02.png,0002-00-0004-93.png
00000014,589,0,1443206776902,1443206776950,478,488,0,0,0,5,3,2,53,0005-00-0001-07.png,0003-00-0009-84.png
00000014,590,1,1443206781992,1443206782533,337,462,0,0,0,1,4,3,14,0001-00-0006-96.png,0004-00-0007-71.png
00000014,591,1,1443206783672,1443206784266,880,477,0,0,0,5,4,1,54,0005-00-0007-88.png,0004-00-0009-95.png
00000014,592,1,1443206785411,1443206785926,325,474,0,0,0,3,4,1,34,0003-00-0005-48.png,0004-00-0000-82.png
00000014,593,1,1443206787130,1443206787630,323,488,0,0,0,2,5,3,25,0002-00-0003-16.png,0005-00-0004-49.png
00000014,594,1,1443206788821,1443206789323,879,452,0,0,0,4,2,2,42,0004-00-0005-56.png,0002-00-0003-82.png
00000014,595,1,1443206791341,1443206791853,862,450,0,0,0,4,3,1,43,0004-00-0002-62.png,0003-00-0003-72.png
00000014,596,1,1443206793156,1443206793685,900,435,0,0,0,4,1,3,41,0004-00-0002-26.png,0001-00-0002-05.png
00000014,597,1,1443206794853,1443206795297,363,469,0,0,0,2,3,1,23,0002-00-0000-91.png,0003-00-0002-29.png
00000014,598,1,1443206796591,1443206797101,880,427,0,0,0,5,1,4,51,0005-00-0001-33.png,0001-00-0000-50.png
00000014,599,1,1443206798261,1443206798847,359,440,0,0,0,3,5,2,35,0003-00-0008-53.png,0005-00-0003-43.png
00000014,600,0,1443206799939,1443206800476,335,486,0,0,0,3,2,1,32,0003-00-0008-55.png,0002-00-0009-09.png
00000014,601,0,1443206803609,1443206805271,400,444,0,0,0,4,2,2,42,0004-00-0007-90.png,0002-00-0008-45.png
00000014,602,1,1443206809381,1443206809869,889,433,0,0,0,4,3,1,43,0004-00-0003-22.png,0003-00-0002-45.png
00000014,603,0,1443206810894,1443206811490,334,459,0,0,0,5,3,2,53,0005-00-0000-71.png,0003-00-0003-61.png
00000014,604,1,1443206814829,1443206815269,350,424,0,0,0,1,5,4,15,0001-00-0000-14.png,0005-00-0009-65.png
00000014,605,1,1443206816229,1443206818706,332,427,0,0,0,2,5,3,25,0002-00-0005-79.png,0005-00-0006-12.png
00000014,606,1,1443206820058,1443206820605,315,441,0,0,0,1,2,1,12,0001-00-0002-68.png,0002-00-0008-72.png
00000014,607,0,1443206821756,1443206822262,309,429,0,0,0,3,1,2,31,0003-00-0000-78.png,0001-00-0000-20.png
00000014,608,0,1443206825404,1443206825890,339,462,0,0,0,5,4,1,54,0005-00-0001-84.png,0004-00-0008-78.png
00000014,609,0,1443206830948,1443206831415,401,449,0,0,0,5,2,3,52,0005-00-0006-86.png,0002-00-0006-15.png
00000014,610,1,1443206834347,1443206834789,401,462,0,0,0,2,3,1,23,0002-00-0009-81.png,0003-00-0000-39.png
00000014,611,1,1443206835739,1443206836271,401,438,0,0,0,3,4,1,34,0003-00-0003-67.png,0004-00-0000-89.png
00000014,612,1,1443206837777,1443206838317,869,442,0,0,0,3,2,1,32,0003-00-0007-18.png,0002-00-0000-56.png
00000014,613,0,1443206839456,1443206839950,373,481,0,0,0,2,1,1,21,0002-00-0005-59.png,0001-00-0007-60.png
00000014,614,0,1443206843123,1443206843646,314,393,0,0,0,4,1,3,41,0004-00-0003-21.png,0001-00-0005-71.png
00000014,615,1,1443206847467,1443206847914,318,494,0,0,0,1,3,2,13,0001-00-0005-75.png,0003-00-0003-51.png
00000014,616,1,1443206848929,1443206849639,318,490,0,0,0,4,5,1,45,0004-00-0008-48.png,0005-00-0003-00.png
00000014,617,0,1443206851487,1443206851983,888,502,0,0,0,3,5,2,35,0003-00-0008-02.png,0005-00-0003-65.png
00000014,618,1,1443206855228,1443206855710,892,465,0,0,0,5,1,4,51,0005-00-0000-01.png,0001-00-0006-82.png
00000014,619,0,1443206856997,1443206857989,906,426,0,0,0,1,4,3,14,0001-00-0009-24.png,0004-00-0006-81.png
00000014,620,1,1443206861000,1443206861020,505,496,0,0,0,2,4,2,24,0002-00-0005-52.png,0004-00-0007-41.png
00000014,621,1,1443206862397,1443206862863,358,445,0,0,0,2,4,2,24,0002-00-0003-54.png,0004-00-0009-62.png
00000014,622,0,1443206864064,1443206864615,340,480,0,0,0,5,4,1,54,0005-00-0003-20.png,0004-00-0000-84.png
00000014,623,1,1443206867453,1443206867933,904,452,0,0,0,5,3,2,53,0005-00-0009-90.png,0003-00-0008-72.png
00000014,624,0,1443206869096,1443206869637,414,566,0,0,0,2,1,1,21,0002-00-0006-88.png,0001-00-0000-65.png
00000014,625,1,1443206873376,1443206873760,376,410,0,0,0,1,4,3,14,0001-00-0001-66.png,0004-00-0009-81.png
00000014,626,0,1443206874787,1443206875331,325,449,0,0,0,4,1,3,41,0004-00-0000-59.png,0001-00-0003-24.png
00000014,627,1,1443206879271,1443206879736,376,450,0,0,0,3,5,2,35,0003-00-0005-60.png,0005-00-0005-15.png
00000014,628,1,1443206881866,1443206882371,301,478,0,0,0,2,5,3,25,0002-00-0007-38.png,0005-00-0002-28.png
00000014,629,0,1443206883424,1443206884384,420,445,0,0,0,4,2,2,42,0004-00-0000-40.png,0002-00-0008-51.png
00000014,630,0,1443206889089,1443206889501,401,462,0,0,0,4,3,1,43,0004-00-0000-50.png,0003-00-0002-18.png
00000014,631,1,1443206892607,1443206893002,349,450,0,0,0,4,5,1,45,0004-00-0007-09.png,0005-00-0008-67.png
00000014,632,0,1443206894097,1443206894638,905,419,0,0,0,3,4,1,34,0003-00-0004-93.png,0004-00-0001-31.png
00000014,633,0,1443206898232,1443206898727,376,410,0,0,0,3,2,1,32,0003-00-0003-20.png,0002-00-0009-02.png
00000014,634,1,1443206901639,1443206902034,342,403,0,0,0,2,3,1,23,0002-00-0003-93.png,0003-00-0004-38.png
00000014,635,1,1443206903060,1443206903605,879,400,0,0,0,5,2,3,52,0005-00-0003-88.png,0002-00-0004-38.png
00000014,636,1,1443206904623,1443206905764,874,401,0,0,0,5,1,4,51,0005-00-0006-15.png,0001-00-0002-15.png
00000014,637,0,1443206906729,1443206907263,345,472,0,0,0,3,1,2,31,0003-00-0006-91.png,0001-00-0000-43.png
00000014,638,1,1443206911030,1443206911502,428,566,0,0,0,1,5,4,15,0001-00-0003-14.png,0005-00-0002-54.png
00000014,639,1,1443206912939,1443206913389,381,461,0,0,0,1,3,2,13,0001-00-0008-92.png,0003-00-0006-41.png
00000014,640,1,1443206914293,1443206914784,409,471,0,0,0,1,2,1,12,0001-00-0004-65.png,0002-00-0009-15.png
00000014,641,1,1443206915765,1443206916235,401,436,0,0,0,1,4,3,14,0001-00-0001-54.png,0004-00-0007-06.png
00000014,642,1,1443206917153,1443206917626,353,451,0,0,0,2,4,2,24,0002-00-0000-59.png,0004-00-0001-17.png
00000014,643,1,1443206918634,1443206919218,876,494,0,0,0,5,4,1,54,0005-00-0004-18.png,0004-00-0001-91.png
00000014,644,1,1443206920383,1443206920973,882,468,0,0,0,4,1,3,41,0004-00-0000-39.png,0001-00-0000-77.png
00000014,645,0,1443206921993,1443206922469,377,499,0,0,0,3,2,1,32,0003-00-0008-31.png,0002-00-0005-70.png
00000014,646,1,1443206925621,1443206926161,921,454,0,0,0,5,2,3,52,0005-00-0004-74.png,0002-00-0006-04.png
00000014,647,1,1443206927282,1443206927799,345,470,0,0,0,1,3,2,13,0001-00-0008-11.png,0003-00-0003-72.png
00000014,648,0,1443206928804,1443206929254,345,479,0,0,0,5,3,2,53,0005-00-0006-88.png,0003-00-0002-02.png
00000014,649,1,1443206932619,1443206933035,326,416,0,0,0,1,5,4,15,0001-00-0002-98.png,0005-00-0002-37.png
00000014,650,1,1443206934030,1443206934808,894,522,0,0,0,5,1,4,51,0005-00-0003-45.png,0001-00-0003-63.png
00000014,651,0,1443206935730,1443206936683,367,407,0,0,0,4,3,1,43,0004-00-0007-98.png,0003-00-0008-25.png
00000014,652,0,1443206941789,1443206942244,401,475,0,0,0,4,2,2,42,0004-00-0007-47.png,0002-00-0006-61.png
00000014,653,1,1443206946652,1443206947328,902,471,0,0,0,3,1,2,31,0003-00-0009-01.png,0001-00-0002-40.png
00000014,654,1,1443206948342,1443206948864,414,462,0,0,0,2,5,3,25,0002-00-0007-91.png,0005-00-0005-06.png
00000014,655,1,1443206949881,1443206950425,395,498,0,0,0,3,5,2,35,0003-00-0006-68.png,0005-00-0008-90.png
00000014,656,0,1443206951431,1443206952394,876,410,0,0,0,2,3,1,23,0002-00-0002-50.png,0003-00-0006-11.png
00000014,657,0,1443206958187,1443206958593,928,410,0,0,0,1,2,1,12,0001-00-0003-56.png,0002-00-0007-31.png
00000014,658,0,1443206961585,1443206962047,365,453,0,0,0,2,1,1,21,0002-00-0001-48.png,0001-00-0009-39.png
00000014,659,0,1443206967899,1443206968290,913,408,0,0,0,4,5,1,45,0004-00-0003-95.png,0005-00-0003-76.png
00000014,660,1,1443206972163,1443206972631,338,438,0,0,0,3,4,1,34,0003-00-0005-46.png,0004-00-0000-86.png
00000014,661,1,1443206979385,1443206979889,880,415,0,0,0,3,1,2,31,0003-00-0006-24.png,0001-00-0007-34.png
00000014,662,1,1443206981109,1443206981590,903,416,0,0,0,5,1,4,51,0005-00-0004-48.png,0001-00-0004-11.png
00000014,663,1,1443206982827,1443206983517,877,478,0,0,0,4,3,1,43,0004-00-0003-81.png,0003-00-0002-65.png
00000014,664,0,1443206984883,1443206985409,867,455,0,0,0,4,5,1,45,0004-00-0009-93.png,0005-00-0000-34.png
00000014,665,0,1443206990825,1443206991368,928,389,0,0,0,1,4,3,14,0001-00-0005-90.png,0004-00-0007-85.png
00000014,666,1,1443206994989,1443206995484,885,543,0,0,0,5,2,3,52,0005-00-0007-89.png,0002-00-0001-49.png
00000014,667,1,1443206996588,1443206997140,339,435,0,0,0,1,3,2,13,0001-00-0009-92.png,0003-00-0007-05.png
00000014,668,1,1443206998120,1443206998732,356,514,0,0,0,2,4,2,24,0002-00-0008-95.png,0004-00-0007-78.png
00000014,669,1,1443206999968,1443207000445,350,462,0,0,0,2,5,3,25,0002-00-0005-67.png,0005-00-0009-41.png
00000014,670,1,1443207001509,1443207002079,401,529,0,0,0,3,5,2,35,0003-00-0000-72.png,0005-00-0001-30.png
00000014,671,1,1443207003050,1443207004566,919,470,0,0,0,5,3,2,53,0005-00-0005-01.png,0003-00-0001-46.png
00000014,672,0,1443207005824,1443207006554,875,528,0,0,0,1,5,4,15,0001-00-0002-43.png,0005-00-0006-63.png
00000014,673,1,1443207009396,1443207009761,379,393,0,0,0,1,2,1,12,0001-00-0007-93.png,0002-00-0007-66.png
00000014,674,0,1443207010984,1443207011464,320,472,0,0,0,4,2,2,42,0004-00-0005-48.png,0002-00-0008-24.png
00000014,675,1,1443207016198,1443207016717,905,536,0,0,0,4,1,3,41,0004-00-0005-86.png,0001-00-0005-13.png
00000014,676,1,1443207017728,1443207018298,365,474,0,0,0,3,4,1,34,0003-00-0001-96.png,0004-00-0008-96.png
00000014,677,1,1443207019598,1443207020115,878,480,0,0,0,3,2,1,32,0003-00-0004-08.png,0002-00-0000-18.png
00000014,678,0,1443207021188,1443207022030,373,473,0,0,0,5,4,1,54,0005-00-0000-51.png,0004-00-0000-11.png
00000014,679,0,1443207025293,1443207025763,372,445,0,0,0,2,1,1,21,0002-00-0005-11.png,0001-00-0003-45.png
00000014,680,0,1443207029529,1443207030080,879,401,0,0,0,2,3,1,23,0002-00-0009-92.png,0003-00-0000-79.png
00000014,681,1,1443207033487,1443207034090,317,415,0,0,0,4,5,1,45,0004-00-0003-42.png,0005-00-0004-79.png
00000014,682,1,1443207035195,1443207035668,401,449,0,0,0,3,5,2,35,0003-00-0001-23.png,0005-00-0004-07.png
00000014,683,1,1443207036604,1443207037228,862,436,0,0,0,5,2,3,52,0005-00-0001-51.png,0002-00-0009-20.png
00000014,684,1,1443207038246,1443207038829,874,413,0,0,0,4,2,2,42,0004-00-0004-94.png,0002-00-0006-09.png
00000014,685,0,1443207039874,1443207040905,945,424,0,0,0,1,3,2,13,0001-00-0003-82.png,0003-00-0005-53.png
00000014,686,0,1443207048769,1443207049271,370,540,0,0,0,5,4,1,54,0005-00-0006-03.png,0004-00-0000-55.png
00000014,687,1,1443207052435,1443207053423,913,512,0,0,0,3,1,2,31,0003-00-0005-05.png,0001-00-0009-40.png
00000014,688,0,1443207054769,1443207055299,382,554,0,0,0,4,1,3,41,0004-00-0001-54.png,0001-00-0003-11.png
00000014,689,0,1443207058220,1443207058581,401,435,0,0,0,5,1,4,51,0005-00-0001-37.png,0001-00-0000-73.png
00000014,690,1,1443207061924,1443207062371,356,449,0,0,0,2,5,3,25,0002-00-0000-10.png,0005-00-0000-86.png
00000014,691,1,1443207063587,1443207064142,900,514,0,0,0,5,3,2,53,0005-00-0001-66.png,0003-00-0000-64.png
00000014,692,0,1443207065272,1443207065829,313,472,0,0,0,2,1,1,21,0002-00-0007-77.png,0001-00-0006-41.png
00000014,693,1,1443207069228,1443207069706,325,448,0,0,0,1,4,3,14,0001-00-0000-70.png,0004-00-0008-39.png
00000014,694,0,1443207070711,1443207071195,387,449,0,0,0,3,2,1,32,0003-00-0000-41.png,0002-00-0002-77.png
00000014,695,0,1443207074228,1443207074727,860,491,0,0,0,2,3,1,23,0002-00-0009-03.png,0003-00-0007-88.png
00000014,696,1,1443207077767,1443207078224,382,473,0,0,0,1,5,4,15,0001-00-0003-90.png,0005-00-0000-93.png
00000014,697,0,1443207079316,1443207079895,881,418,0,0,0,3,4,1,34,0003-00-0009-60.png,0004-00-0005-76.png
00000014,698,1,1443207084307,1443207084784,325,396,0,0,0,2,4,2,24,0002-00-0003-86.png,0004-00-0000-93.png
00000014,699,1,1443207085809,1443207086332,334,455,0,0,0,1,2,1,12,0001-00-0000-32.png,0002-00-0004-44.png
00000014,700,1,1443207087308,1443207087845,879,453,0,0,0,4,3,1,43,0004-00-0003-44.png,0003-00-0006-35.png
00000014,701,0,1443207088890,1443207089436,864,449,0,0,0,2,4,2,24,0002-00-0004-41.png,0004-00-0002-63.png
00000014,702,0,1443207092458,1443207092466,452,423,0,0,0,5,4,1,54,0005-00-0009-38.png,0004-00-0000-43.png
00000014,703,1,1443207095306,1443207095724,880,506,0,0,0,5,1,4,51,0005-00-0001-97.png,0001-00-0007-70.png
00000014,704,0,1443207096871,1443207097384,886,450,0,0,0,1,3,2,13,0001-00-0000-05.png,0003-00-0003-89.png
00000014,705,0,1443207100707,1443207101292,906,477,0,0,0,4,5,1,45,0004-00-0000-74.png,0005-00-0006-12.png
00000014,706,1,1443207104726,1443207105206,339,446,0,0,0,2,5,3,25,0002-00-0000-19.png,0005-00-0003-95.png
00000014,707,1,1443207107347,1443207107781,889,397,0,0,0,5,3,2,53,0005-00-0003-85.png,0003-00-0004-48.png
00000014,708,1,1443207109197,1443207109651,339,480,0,0,0,1,5,4,15,0001-00-0000-48.png,0005-00-0002-51.png
00000014,709,1,1443207110999,1443207111479,382,456,0,0,0,3,4,1,34,0003-00-0007-03.png,0004-00-0002-85.png
00000014,710,1,1443207112823,1443207113308,299,462,0,0,0,2,3,1,23,0002-00-0003-08.png,0003-00-0000-48.png
00000014,711,1,1443207114322,1443207114867,877,443,0,0,0,4,2,2,42,0004-00-0009-39.png,0002-00-0000-28.png
00000014,712,1,1443207115892,1443207116466,381,517,0,0,0,3,5,2,35,0003-00-0008-56.png,0005-00-0002-98.png
00000014,713,1,1443207117683,1443207118190,879,453,0,0,0,4,1,3,41,0004-00-0008-92.png,0001-00-0005-13.png
00000014,714,0,1443207119339,1443207119875,875,449,0,0,0,1,4,3,14,0001-00-0002-27.png,0004-00-0009-17.png
00000014,715,1,1443207123806,1443207124310,902,462,0,0,0,4,3,1,43,0004-00-0009-41.png,0003-00-0004-82.png
00000014,716,1,1443207125634,1443207126174,887,449,0,0,0,3,1,2,31,0003-00-0006-78.png,0001-00-0003-33.png
00000014,717,1,1443207127236,1443207127708,350,462,0,0,0,1,2,1,12,0001-00-0008-24.png,0002-00-0003-49.png
00000014,718,1,1443207128779,1443207129310,893,442,0,0,0,5,2,3,52,0005-00-0001-18.png,0002-00-0002-60.png
00000014,719,0,1443207130645,1443207131189,396,528,0,0,0,3,2,1,32,0003-00-0000-54.png,0002-00-0008-23.png
00000014,720,0,1443207134084,1443207134532,345,383,0,0,0,2,1,1,21,0002-00-0003-33.png,0001-00-0006-27.png
00000014,721,1,1443207137931,1443207138388,904,428,0,0,0,5,1,4,51,0005-00-0008-46.png,0001-00-0004-51.png
00000014,722,1,1443207139403,1443207139917,879,402,0,0,0,2,1,1,21,0002-00-0009-70.png,0001-00-0005-42.png
00000014,723,1,1443207141033,1443207141544,401,475,0,0,0,2,5,3,25,0002-00-0006-59.png,0005-00-0007-58.png
00000014,724,1,1443207142525,1443207143059,380,478,0,0,0,4,5,1,45,0004-00-0002-02.png,0005-00-0007-61.png
00000014,725,1,1443207144244,1443207144792,871,431,0,0,0,4,1,3,41,0004-00-0000-31.png,0001-00-0002-95.png
00000014,726,1,1443207145832,1443207146401,870,524,0,0,0,3,2,1,32,0003-00-0005-93.png,0002-00-0006-75.png
00000014,727,0,1443207147423,1443207147916,374,475,0,0,0,4,3,1,43,0004-00-0003-90.png,0003-00-0003-14.png
00000014,728,1,1443207158073,1443207158594,914,416,0,0,0,3,1,2,31,0003-00-0003-16.png,0001-00-0002-28.png
00000014,729,1,1443207159904,1443207160338,350,475,0,0,0,1,2,1,12,0001-00-0000-86.png,0002-00-0008-71.png
00000014,730,0,1443207161381,1443207162009,362,488,0,0,0,5,4,1,54,0005-00-0002-42.png,0004-00-0009-27.png
00000014,731,1,1443207166581,1443207167129,427,526,0,0,0,2,4,2,24,0002-00-0001-09.png,0004-00-0000-35.png
00000014,732,1,1443207168158,1443207168643,397,471,0,0,0,2,3,1,23,0002-00-0000-54.png,0003-00-0005-93.png
00000014,733,1,1443207170218,1443207170678,395,479,0,0,0,1,3,2,13,0001-00-0000-67.png,0003-00-0007-61.png
00000014,734,1,1443207172261,1443207172736,334,468,0,0,0,3,5,2,35,0003-00-0006-71.png,0005-00-0009-20.png
00000014,735,1,1443207173712,1443207174302,862,474,0,0,0,5,2,3,52,0005-00-0008-84.png,0002-00-0003-89.png
00000014,736,1,1443207175466,1443207175999,868,457,0,0,0,4,2,2,42,0004-00-0005-38.png,0002-00-0005-23.png
00000014,737,1,1443207177720,1443207178237,386,453,0,0,0,3,4,1,34,0003-00-0005-28.png,0004-00-0003-54.png
00000014,738,0,1443207179579,1443207179992,388,476,0,0,0,5,3,2,53,0005-00-0002-77.png,0003-00-0002-02.png
00000014,739,1,1443207183396,1443207183824,337,425,0,0,0,1,5,4,15,0001-00-0003-31.png,0005-00-0002-31.png
00000014,740,1,1443207185086,1443207185578,376,448,0,0,0,1,4,3,14,0001-00-0009-08.png,0004-00-0006-06.png
00000014,741,0,1443207186615,1443207187120,325,462,0,0,0,4,3,1,43,0004-00-0005-64.png,0003-00-0006-60.png
00000014,742,1,1443207191235,1443207191751,391,459,0,0,0,4,5,1,45,0004-00-0002-61.png,0005-00-0009-56.png
00000014,743,1,1443207193285,1443207193746,899,438,0,0,0,5,2,3,52,0005-00-0000-70.png,0002-00-0005-78.png
00000014,744,1,1443207194807,1443207195307,376,410,0,0,0,1,3,2,13,0001-00-0004-94.png,0003-00-0007-53.png
00000014,745,1,1443207196324,1443207196886,875,423,0,0,0,4,2,2,42,0004-00-0004-91.png,0002-00-0003-17.png
00000014,746,1,1443207197994,1443207198537,873,508,0,0,0,4,1,3,41,0004-00-0000-28.png,0001-00-0002-55.png
00000014,747,1,1443207199644,1443207200907,341,429,0,0,0,2,3,1,23,0002-00-0006-68.png,0003-00-0006-16.png
00000014,748,1,1443207201891,1443207202446,902,419,0,0,0,2,1,1,21,0002-00-0009-92.png,0001-00-0001-67.png
00000014,749,1,1443207203443,1443207203979,401,463,0,0,0,3,4,1,34,0003-00-0009-12.png,0004-00-0007-90.png
00000014,750,1,1443207204892,1443207205393,388,475,0,0,0,3,5,2,35,0003-00-0003-73.png,0005-00-0001-18.png
00000014,751,1,1443207206312,1443207206945,402,468,0,0,0,2,4,2,24,0002-00-0008-09.png,0004-00-0003-92.png
00000014,752,1,1443207207790,1443207208835,869,423,0,0,0,5,4,1,54,0005-00-0007-92.png,0004-00-0009-54.png
00000014,753,0,1443207209849,1443207210363,347,471,0,0,0,3,1,2,31,0003-00-0009-61.png,0001-00-0007-65.png
00000014,754,1,1443207213279,1443207213327,388,462,0,0,0,1,5,4,15,0001-00-0007-69.png,0005-00-0009-74.png
00000014,755,0,1443207214393,1443207214959,370,530,0,0,0,3,2,1,32,0003-00-0000-41.png,0002-00-0001-52.png
00000014,756,0,1443207218189,1443207218676,865,443,0,0,0,1,2,1,12,0001-00-0002-94.png,0002-00-0003-49.png
00000014,757,1,1443207222521,1443207223027,874,410,0,0,0,5,1,4,51,0005-00-0005-67.png,0001-00-0000-79.png
00000014,758,1,1443207224396,1443207224864,873,380,0,0,0,5,3,2,53,0005-00-0000-73.png,0003-00-0001-85.png
00000014,759,1,1443207225901,1443207226384,398,427,0,0,0,2,5,3,25,0002-00-0003-93.png,0005-00-0001-71.png
00000014,760,1,1443207227279,1443207227869,319,447,0,0,0,1,4,3,14,0001-00-0005-57.png,0004-00-0003-29.png
00000014,761,1,1443207228800,1443207229266,420,463,0,0,0,1,3,2,13,0001-00-0001-60.png,0003-00-0007-03.png
00000014,762,1,1443207230151,1443207231222,866,541,0,0,0,5,1,4,51,0005-00-0005-90.png,0001-00-0007-27.png
00000014,763,0,1443207232180,1443207232653,409,444,0,0,0,4,3,1,43,0004-00-0005-86.png,0003-00-0006-67.png
00000014,764,1,1443207238054,1443207238531,893,428,0,0,0,2,1,1,21,0002-00-0008-95.png,0001-00-0001-45.png
00000014,765,1,1443207239500,1443207240041,376,443,0,0,0,2,3,1,23,0002-00-0002-80.png,0003-00-0002-45.png
00000014,766,1,1443207241073,1443207241521,339,445,0,0,0,1,2,1,12,0001-00-0006-89.png,0002-00-0000-08.png
00000014,767,1,1443207242757,1443207243292,905,427,0,0,0,4,2,2,42,0004-00-0004-81.png,0002-00-0000-63.png
00000014,768,1,1443207244326,1443207244843,318,478,0,0,0,4,5,1,45,0004-00-0003-43.png,0005-00-0002-84.png
00000014,769,0,1443207245825,1443207246382,862,398,0,0,0,3,4,1,34,0003-00-0005-72.png,0004-00-0009-44.png
00000014,770,1,1443207249732,1443207250147,389,443,0,0,0,2,4,2,24,0002-00-0008-37.png,0004-00-0002-51.png
00000014,771,1,1443207251134,1443207251705,861,528,0,0,0,3,1,2,31,0003-00-0005-92.png,0001-00-0008-76.png
00000014,772,1,1443207252666,1443207253185,350,436,0,0,0,2,5,3,25,0002-00-0000-82.png,0005-00-0005-98.png
00000014,773,1,1443207254144,1443207254766,875,411,0,0,0,3,2,1,32,0003-00-0003-27.png,0002-00-0002-02.png
00000014,774,0,1443207255724,1443207256220,376,462,0,0,0,5,3,2,53,0005-00-0008-93.png,0003-00-0004-77.png
00000014,775,1,1443207259312,1443207259738,401,553,0,0,0,1,5,4,15,0001-00-0001-05.png,0005-00-0008-53.png
00000014,776,1,1443207260696,1443207261238,878,429,0,0,0,5,2,3,52,0005-00-0006-37.png,0002-00-0006-53.png
00000014,777,1,1443207262305,1443207262895,874,489,0,0,0,5,4,1,54,0005-00-0001-29.png,0004-00-0001-50.png
00000014,778,1,1443207263875,1443207264955,927,413,0,0,0,4,1,3,41,0004-00-0005-60.png,0001-00-0003-28.png
00000014,779,1,1443207265919,1443207266463,328,463,0,0,0,1,4,3,14,0001-00-0009-07.png,0004-00-0000-16.png
00000014,780,0,1443207267400,1443207268069,900,397,0,0,0,3,5,2,35,0003-00-0001-87.png,0005-00-0006-84.png
00000014,781,0,1443207279699,1443207280219,941,418,0,0,0,2,3,1,23,0002-00-0002-74.png,0003-00-0007-49.png
00000014,782,0,1443207283532,1443207283976,345,461,0,0,0,4,3,1,43,0004-00-0007-25.png,0003-00-0007-78.png
00000014,783,1,1443207287001,1443207287041,461,477,0,0,0,1,5,4,15,0001-00-0005-00.png,0005-00-0004-16.png
00000014,784,0,1443207288468,1443207289484,358,445,0,0,0,5,2,3,52,0005-00-0000-57.png,0002-00-0009-06.png
00000014,785,1,1443207292524,1443207292980,314,470,0,0,0,2,5,3,25,0002-00-0001-69.png,0005-00-0001-14.png
00000014,786,1,1443207293948,1443207294500,906,388,0,0,0,5,1,4,51,0005-00-0002-85.png,0001-00-0004-05.png
00000014,787,1,1443207295547,1443207296092,887,424,0,0,0,3,1,2,31,0003-00-0009-10.png,0001-00-0008-93.png
00000014,788,0,1443207297179,1443207297630,363,450,0,0,0,5,4,1,54,0005-00-0000-89.png,0004-00-0004-31.png
00000014,789,1,1443207300714,1443207301161,345,472,0,0,0,1,3,2,13,0001-00-0006-76.png,0003-00-0005-67.png
00000014,790,1,1443207302168,1443207302748,907,415,0,0,0,4,2,2,42,0004-00-0008-07.png,0002-00-0002-50.png
00000014,791,1,1443207303681,1443207304162,401,436,0,0,0,1,2,1,12,0001-00-0007-35.png,0002-00-0007-97.png
00000014,792,0,1443207305181,1443207305690,426,462,0,0,0,4,1,3,41,0004-00-0009-93.png,0001-00-0008-87.png
00000014,793,0,1443207308756,1443207309806,956,428,0,0,0,3,4,1,34,0003-00-0003-74.png,0004-00-0009-94.png
00000014,794,0,1443207312685,1443207313144,318,437,0,0,0,5,3,2,53,0005-00-0001-05.png,0003-00-0009-80.png
00000014,795,1,1443207316037,1443207316453,376,462,0,0,0,1,4,3,14,0001-00-0008-46.png,0004-00-0003-76.png
00000014,796,0,1443207317372,1443207317881,338,454,0,0,0,3,2,1,32,0003-00-0001-35.png,0002-00-0009-34.png
00000014,797,1,1443207321187,1443207321718,305,462,0,0,0,3,5,2,35,0003-00-0005-58.png,0005-00-0006-68.png
00000014,798,1,1443207323991,1443207324503,386,560,0,0,0,2,4,2,24,0002-00-0007-74.png,0004-00-0006-50.png
00000014,799,0,1443207325498,1443207326107,865,494,0,0,0,4,5,1,45,0004-00-0002-66.png,0005-00-0003-96.png
00000014,800,1,1443207329476,1443207330012,900,396,0,0,0,2,1,1,21,0002-00-0007-40.png,0001-00-0002-66.png
00000014,801,1,1443207331067,1443207331648,875,454,0,0,0,4,3,1,43,0004-00-0007-49.png,0003-00-0007-91.png
00000014,802,1,1443207332718,1443207333332,361,451,0,0,0,4,5,1,45,0004-00-0008-73.png,0005-00-0000-82.png
00000014,803,1,1443207334433,1443207334922,386,475,0,0,0,1,5,4,15,0001-00-0009-15.png,0005-00-0007-97.png
00000014,804,0,1443207335978,1443207336495,370,486,0,0,0,3,1,2,31,0003-00-0003-72.png,0001-00-0009-60.png
00000014,805,0,1443207340063,1443207340505,401,421,0,0,0,2,1,1,21,0002-00-0002-09.png,0001-00-0007-15.png
00000014,806,1,1443207343581,1443207344477,373,418,0,0,0,3,5,2,35,0003-00-0002-18.png,0005-00-0007-42.png
00000014,807,0,1443207345911,1443207346442,888,424,0,0,0,1,2,1,12,0001-00-0007-05.png,0002-00-0001-14.png
00000014,808,1,1443207349646,1443207350102,361,433,0,0,0,2,3,1,23,0002-00-0005-33.png,0003-00-0008-66.png
00000014,809,1,1443207351223,1443207351708,904,432,0,0,0,5,3,2,53,0005-00-0001-91.png,0003-00-0008-87.png
00000014,810,1,1443207352813,1443207353308,881,453,0,0,0,5,4,1,54,0005-00-0008-22.png,0004-00-0003-76.png
00000014,811,1,1443207354383,1443207354952,881,453,0,0,0,4,1,3,41,0004-00-0005-74.png,0001-00-0007-44.png
00000014,812,1,1443207355983,1443207356482,337,462,0,0,0,2,4,2,24,0002-00-0004-86.png,0004-00-0007-05.png
00000014,813,1,1443207357433,1443207358023,347,457,0,0,0,1,4,3,14,0001-00-0003-69.png,0004-00-0007-87.png
00000014,814,0,1443207358972,1443207359573,861,450,0,0,0,3,4,1,34,0003-00-0000-23.png,0004-00-0004-93.png
00000014,815,1,1443207362480,1443207362920,347,405,0,0,0,2,5,3,25,0002-00-0003-16.png,0005-00-0002-73.png
00000014,816,0,1443207363933,1443207364506,875,514,0,0,0,1,3,2,13,0001-00-0009-28.png,0003-00-0009-91.png
00000014,817,1,1443207367550,1443207368120,902,415,0,0,0,4,2,2,42,0004-00-0008-91.png,0002-00-0007-06.png
00000014,818,0,1443207369250,1443207369709,415,462,0,0,0,3,2,1,32,0003-00-0004-93.png,0002-00-0007-16.png
00000014,819,1,1443207372756,1443207373242,877,439,0,0,0,5,2,3,52,0005-00-0006-21.png,0002-00-0005-15.png
00000014,820,1,1443207374517,1443207374997,893,452,0,0,0,5,1,4,51,0005-00-0000-82.png,0001-00-0004-25.png
00000014,821,0,1443207375978,1443207376588,427,530,0,0,0,3,2,1,32,0003-00-0008-96.png,0002-00-0009-41.png
00000014,822,1,1443207379667,1443207380035,913,384,0,0,0,5,2,3,52,0005-00-0000-52.png,0002-00-0002-36.png
00000014,823,0,1443207381442,1443207381929,895,406,0,0,0,3,5,2,35,0003-00-0008-66.png,0005-00-0002-09.png
00000014,824,1,1443207390078,1443207390626,427,488,0,0,0,1,4,3,14,0001-00-0007-29.png,0004-00-0003-62.png
00000014,825,1,1443207391457,1443207392066,325,475,0,0,0,4,5,1,45,0004-00-0000-65.png,0005-00-0000-06.png
00000014,826,1,1443207393013,1443207393571,881,400,0,0,0,5,3,2,53,0005-00-0001-77.png,0003-00-0005-07.png
00000014,827,1,1443207394530,1443207395553,874,427,0,0,0,4,2,2,42,0004-00-0008-91.png,0002-00-0003-59.png
00000014,828,0,1443207396579,1443207397183,876,501,0,0,0,1,2,1,12,0001-00-0003-35.png,0002-00-0006-62.png
00000014,829,1,1443207402633,1443207403117,355,518,0,0,0,2,5,3,25,0002-00-0008-33.png,0005-00-0000-94.png
00000014,830,1,1443207404145,1443207404596,376,451,0,0,0,1,3,2,13,0001-00-0007-69.png,0003-00-0007-14.png
00000014,831,0,1443207405735,1443207406306,871,417,0,0,0,3,4,1,34,0003-00-0003-21.png,0004-00-0002-67.png
00000014,832,0,1443207409678,1443207410163,427,474,0,0,0,2,1,1,21,0002-00-0006-05.png,0001-00-0008-01.png
00000014,833,0,1443207413745,1443207414225,286,462,0,0,0,5,1,4,51,0005-00-0007-11.png,0001-00-0005-53.png
00000014,834,1,1443207417072,1443207417542,918,439,0,0,0,5,4,1,54,0005-00-0005-94.png,0004-00-0009-78.png
00000014,835,1,1443207418930,1443207419449,878,414,0,0,0,3,1,2,31,0003-00-0006-44.png,0001-00-0000-93.png
00000014,836,1,1443207420554,1443207421140,876,409,0,0,0,4,3,1,43,0004-00-0001-50.png,0003-00-0003-46.png
00000014,837,0,1443207422223,1443207422794,932,403,0,0,0,2,3,1,23,0002-00-0007-37.png,0003-00-0007-81.png
00000014,838,0,1443207428711,1443207429143,350,462,0,0,0,4,1,3,41,0004-00-0000-74.png,0001-00-0005-11.png
00000014,839,1,1443207433681,1443207434114,330,436,0,0,0,2,4,2,24,0002-00-0006-57.png,0004-00-0001-41.png
00000014,840,0,1443207435270,1443207435894,880,376,0,0,0,1,5,4,15,0001-00-0009-39.png,0005-00-0009-19.png
00000014,841,1,1443207439167,1443207439724,902,432,0,0,0,4,1,3,41,0004-00-0003-66.png,0001-00-0006-77.png
00000014,842,0,1443207441075,1443207441605,896,443,0,0,0,1,4,3,14,0001-00-0000-03.png,0004-00-0000-07.png
00000014,843,1,1443207444981,1443207445467,877,442,0,0,0,5,3,2,53,0005-00-0007-30.png,0003-00-0005-61.png
00000014,844,0,1443207446851,1443207447354,376,462,0,0,0,5,4,1,54,0005-00-0008-58.png,0004-00-0007-78.png
00000014,845,1,1443207450331,1443207450820,333,497,0,0,0,3,4,1,34,0003-00-0005-72.png,0004-00-0005-10.png
00000014,846,1,1443207452009,1443207452503,349,475,0,0,0,2,4,2,24,0002-00-0002-29.png,0004-00-0002-55.png
00000014,847,0,1443207453569,1443207454103,888,449,0,0,0,1,3,2,13,0001-00-0002-94.png,0003-00-0006-86.png
00000014,848,0,1443207459532,1443207460066,931,421,0,0,0,3,5,2,35,0003-00-0003-65.png,0005-00-0001-42.png
00000014,849,1,1443207463049,1443207463666,931,453,0,0,0,2,1,1,21,0002-00-0005-98.png,0001-00-0000-26.png
00000014,850,1,1443207464800,1443207465321,865,519,0,0,0,4,3,1,43,0004-00-0002-40.png,0003-00-0006-57.png
00000014,851,0,1443207466289,1443207466842,881,440,0,0,0,4,5,1,45,0004-00-0003-50.png,0005-00-0003-55.png
00000014,852,1,1443207470196,1443207470697,409,479,0,0,0,2,3,1,23,0002-00-0001-02.png,0003-00-0003-53.png
00000014,853,1,1443207471845,1443207472378,879,495,0,0,0,3,2,1,32,0003-00-0007-18.png,0002-00-0003-97.png
00000014,854,1,1443207473377,1443207473952,860,502,0,0,0,4,2,2,42,0004-00-0009-30.png,0002-00-0008-95.png
00000014,855,1,1443207475139,1443207476567,903,430,0,0,0,5,1,4,51,0005-00-0001-08.png,0001-00-0004-37.png
00000014,856,0,1443207477601,1443207478633,376,422,0,0,0,5,2,3,52,0005-00-0006-49.png,0002-00-0009-41.png
00000014,857,1,1443207482093,1443207482516,328,418,0,0,0,1,5,4,15,0001-00-0001-34.png,0005-00-0006-77.png
00000014,858,1,1443207483481,1443207484039,886,424,0,0,0,3,1,2,31,0003-00-0001-86.png,0001-00-0008-94.png
00000014,859,1,1443207484975,1443207485487,348,448,0,0,0,2,5,3,25,0002-00-0006-50.png,0005-00-0009-36.png
00000014,860,0,1443207486456,1443207487028,888,435,0,0,0,1,2,1,12,0001-00-0009-51.png,0002-00-0004-57.png
00000014,861,1,1443207490508,1443207490905,337,407,0,0,0,4,5,1,45,0004-00-0005-32.png,0005-00-0007-68.png
00000014,862,1,1443207491964,1443207492488,900,439,0,0,0,2,1,1,21,0002-00-0006-99.png,0001-00-0004-85.png
00000014,863,1,1443207493511,1443207494077,401,436,0,0,0,3,4,1,34,0003-00-0005-60.png,0004-00-0000-39.png
00000014,864,1,1443207495421,1443207495911,904,432,0,0,0,3,1,2,31,0003-00-0001-58.png,0001-00-0005-75.png
00000014,865,1,1443207497040,1443207497555,859,501,0,0,0,4,3,1,43,0004-00-0009-76.png,0003-00-0004-49.png
00000014,866,1,1443207498572,1443207499047,351,478,0,0,0,1,4,3,14,0001-00-0000-00.png,0004-00-0006-99.png
00000014,867,1,1443207500102,1443207500637,877,445,0,0,0,5,3,2,53,0005-00-0006-15.png,0003-00-0003-06.png
00000014,868,1,1443207501676,1443207502217,376,442,0,0,0,1,2,1,12,0001-00-0007-60.png,0002-00-0004-75.png
00000014,869,1,1443207503252,1443207503703,401,462,0,0,0,2,5,3,25,0002-00-0005-17.png,0005-00-0009-65.png
00000014,870,1,1443207504663,1443207505218,860,451,0,0,0,5,1,4,51,0005-00-0004-13.png,0001-00-0006-32.png
00000014,871,1,1443207506188,1443207506719,405,466,0,0,0,1,3,2,13,0001-00-0001-15.png,0003-00-0007-50.png
00000014,872,0,1443207507632,1443207508230,384,480,0,0,0,3,2,1,32,0003-00-0002-87.png,0002-00-0009-14.png
00000014,873,1,1443207511460,1443207511934,857,527,0,0,0,4,2,2,42,0004-00-0009-56.png,0002-00-0000-99.png
00000014,874,1,1443207513001,1443207513029,504,499,0,0,0,3,5,2,35,0003-00-0002-38.png,0005-00-0008-03.png
00000014,875,1,1443207514253,1443207514708,363,473,0,0,0,1,5,4,15,0001-00-0004-91.png,0005-00-0007-68.png
00000014,876,1,1443207515773,1443207516267,368,478,0,0,0,2,3,1,23,0002-00-0005-73.png,0003-00-0006-29.png
00000014,877,0,1443207517704,1443207518374,879,480,0,0,0,2,4,2,24,0002-00-0004-13.png,0004-00-0008-46.png
00000014,878,1,1443207522076,1443207522550,905,416,0,0,0,4,1,3,41,0004-00-0006-34.png,0001-00-0008-82.png
00000014,879,1,1443207523797,1443207524299,881,419,0,0,0,5,4,1,54,0005-00-0003-12.png,0004-00-0005-27.png
00000014,880,1,1443207525367,1443207525922,858,490,0,0,0,5,2,3,52,0005-00-0007-70.png,0002-00-0000-05.png
00000014,881,1,1443207526979,1443207527555,867,429,0,0,0,5,1,4,51,0005-00-0008-78.png,0001-00-0004-43.png
00000014,882,0,1443207528629,1443207529170,867,412,0,0,0,1,4,3,14,0001-00-0005-44.png,0004-00-0001-82.png
00000014,883,1,1443207532493,1443207532976,376,436,0,0,0,3,4,1,34,0003-00-0004-03.png,0004-00-0008-27.png
00000014,884,1,1443207534084,1443207534559,401,462,0,0,0,2,5,3,25,0002-00-0004-71.png,0005-00-0005-92.png
00000014,885,1,1443207535487,1443207536040,391,561,0,0,0,1,2,1,12,0001-00-0005-12.png,0002-00-0004-59.png
00000014,886,1,1443207537016,1443207537540,876,436,0,0,0,4,2,2,42,0004-00-0009-31.png,0002-00-0007-70.png
00000014,887,1,1443207538494,1443207539008,401,476,0,0,0,1,5,4,15,0001-00-0004-46.png,0005-00-0005-17.png
00000014,888,1,1443207539936,1443207540540,406,495,0,0,0,1,3,2,13,0001-00-0000-68.png,0003-00-0004-24.png
00000014,889,1,1443207541587,1443207542583,905,402,0,0,0,5,2,3,52,0005-00-0000-99.png,0002-00-0004-27.png
00000014,890,1,1443207543646,1443207544199,857,540,0,0,0,4,1,3,41,0004-00-0005-22.png,0001-00-0007-95.png
00000014,891,0,1443207545174,1443207545709,421,469,0,0,0,5,3,2,53,0005-00-0006-05.png,0003-00-0001-50.png
00000014,892,1,1443207548534,1443207549060,873,537,0,0,0,4,3,1,43,0004-00-0005-29.png,0003-00-0002-29.png
00000014,893,1,1443207550174,1443207550721,880,428,0,0,0,3,2,1,32,0003-00-0003-29.png,0002-00-0002-79.png
00000014,894,1,1443207551989,1443207552531,883,435,0,0,0,2,1,1,21,0002-00-0009-37.png,0001-00-0004-01.png
00000014,895,0,1443207553627,1443207554151,876,436,0,0,0,4,5,1,45,0004-00-0007-36.png,0005-00-0007-13.png
00000014,896,1,1443207557768,1443207558279,927,384,0,0,0,3,1,2,31,0003-00-0004-08.png,0001-00-0006-74.png
00000014,897,0,1443207559389,1443207559871,873,537,0,0,0,2,3,1,23,0002-00-0007-26.png,0003-00-0008-60.png
00000014,898,1,1443207563024,1443207563479,345,457,0,0,0,2,4,2,24,0002-00-0002-05.png,0004-00-0007-53.png
00000014,899,1,1443207564567,1443207565109,421,557,0,0,0,3,5,2,35,0003-00-0004-40.png,0005-00-0002-81.png
00000014,900,1,1443207566056,1443207566652,876,444,0,0,0,5,4,1,54,0005-00-0003-15.png,0004-00-0005-54.png
00000014,901,0,1443207567666,1443207568189,376,475,0,0,0,4,2,2,42,0004-00-0001-27.png,0002-00-0005-20.png
00000014,902,1,1443207571890,1443207572441,897,464,0,0,0,5,3,2,53,0005-00-0001-94.png,0003-00-0009-97.png
00000014,903,0,1443207573596,1443207574598,401,410,0,0,0,3,2,1,32,0003-00-0009-04.png,0002-00-0009-14.png
00000014,904,1,1443207578230,1443207578687,350,461,0,0,0,3,4,1,34,0003-00-0003-37.png,0004-00-0008-75.png
00000014,905,1,1443207580349,1443207580847,343,483,0,0,0,1,4,3,14,0001-00-0002-09.png,0004-00-0008-30.png
00000014,906,1,1443207582317,1443207582830,902,398,0,0,0,3,1,2,31,0003-00-0006-49.png,0001-00-0008-60.png
00000014,907,0,1443207583896,1443207584458,876,437,0,0,0,4,5,1,45,0004-00-0003-36.png,0005-00-0009-63.png
00000014,908,0,1443207587342,1443207587382,462,462,0,0,0,5,1,4,51,0005-00-0006-89.png,0001-00-0004-19.png
00000014,909,0,1443207590504,1443207590966,401,449,0,0,0,5,4,1,54,0005-00-0009-27.png,0004-00-0007-06.png
00000014,910,0,1443207594886,1443207595433,887,422,0,0,0,3,5,2,35,0003-00-0008-09.png,0005-00-0007-43.png
00000014,911,1,1443207599327,1443207599780,291,418,0,0,0,2,5,3,25,0002-00-0002-15.png,0005-00-0008-12.png
00000014,912,1,1443207600730,1443207601266,412,476,0,0,0,2,4,2,24,0002-00-0005-64.png,0004-00-0006-00.png
00000014,913,1,1443207602249,1443207602741,400,488,0,0,0,1,5,4,15,0001-00-0001-33.png,0005-00-0004-60.png
00000014,914,0,1443207603730,1443207604221,401,436,0,0,0,2,1,1,21,0002-00-0002-49.png,0001-00-0008-88.png
00000014,915,1,1443207607387,1443207607810,422,566,0,0,0,2,3,1,23,0002-00-0009-36.png,0003-00-0006-33.png
00000014,916,1,1443207608770,1443207609326,915,422,0,0,0,4,1,3,41,0004-00-0003-07.png,0001-00-0000-27.png
00000014,917,1,1443207610241,1443207610814,880,427,0,0,0,5,2,3,52,0005-00-0004-66.png,0002-00-0008-04.png
00000014,918,0,1443207611731,1443207612300,933,407,0,0,0,1,3,2,13,0001-00-0003-45.png,0003-00-0003-76.png
00000014,919,1,1443207616195,1443207616692,919,463,0,0,0,4,3,1,43,0004-00-0001-60.png,0003-00-0009-39.png
00000014,920,0,1443207617624,1443207618215,872,380,0,0,0,1,2,1,12,0001-00-0004-53.png,0002-00-0001-65.png
00000014,921,0,1443207625061,1443207625526,902,450,0,0,0,1,4,3,14,0001-00-0007-00.png,0004-00-0003-06.png
00000014,922,1,1443207628969,1443207629405,359,496,0,0,0,3,5,2,35,0003-00-0008-15.png,0005-00-0008-84.png
00000014,923,1,1443207631156,1443207631644,901,448,0,0,0,3,1,2,31,0003-00-0004-02.png,0001-00-0003-43.png
00000014,924,1,1443207632855,1443207633376,357,480,0,0,0,2,5,3,25,0002-00-0007-16.png,0005-00-0004-85.png
00000014,925,1,1443207635042,1443207635515,889,449,0,0,0,5,2,3,52,0005-00-0002-74.png,0002-00-0004-67.png
00000014,926,1,1443207636701,1443207637194,393,480,0,0,0,1,5,4,15,0001-00-0009-44.png,0005-00-0000-00.png
00000014,927,1,1443207638271,1443207639100,862,478,0,0,0,4,3,1,43,0004-00-0009-88.png,0003-00-0005-45.png
00000014,928,1,1443207640737,1443207641188,881,453,0,0,0,2,1,1,21,0002-00-0007-24.png,0001-00-0005-76.png
00000014,929,0,1443207642329,1443207642879,879,479,0,0,0,4,5,1,45,0004-00-0006-38.png,0005-00-0008-98.png
00000014,930,1,1443207647068,1443207647593,354,416,0,0,0,3,4,1,34,0003-00-0000-28.png,0004-00-0000-99.png
00000014,931,0,1443207649192,1443207649679,376,451,0,0,0,5,1,4,51,0005-00-0008-58.png,0001-00-0004-68.png
00000014,932,0,1443207654343,1443207654841,917,418,0,0,0,1,2,1,12,0001-00-0009-01.png,0002-00-0002-59.png
00000014,933,0,1443207658250,1443207658772,877,466,0,0,0,2,3,1,23,0002-00-0007-78.png,0003-00-0007-83.png
00000014,934,1,1443207662756,1443207663259,353,440,0,0,0,2,4,2,24,0002-00-0008-12.png,0004-00-0002-97.png
00000014,935,1,1443207664470,1443207665007,923,438,0,0,0,3,2,1,32,0003-00-0007-86.png,0002-00-0002-23.png
00000014,936,0,1443207666279,1443207666789,378,470,0,0,0,5,3,2,53,0005-00-0004-15.png,0003-00-0006-23.png
00000014,937,0,1443207670624,1443207671822,414,424,0,0,0,4,1,3,41,0004-00-0009-16.png,0001-00-0006-69.png
00000014,938,1,1443207675809,1443207676307,905,415,0,0,0,5,4,1,54,0005-00-0003-35.png,0004-00-0000-45.png
00000014,939,1,1443207677518,1443207678023,394,452,0,0,0,1,3,2,13,0001-00-0000-00.png,0003-00-0005-22.png
00000014,940,1,1443207678961,1443207679529,889,473,0,0,0,4,2,2,42,0004-00-0001-96.png,0002-00-0003-06.png
00000014,941,1,1443207680468,1443207681029,875,436,0,0,0,5,3,2,53,0005-00-0006-87.png,0003-00-0003-22.png
00000014,942,1,1443207682218,1443207683933,416,559,0,0,0,1,3,2,13,0001-00-0005-87.png,0003-00-0000-36.png
