subject_id,trial,correct_response,stim_time,response_time,x_coord,y_coord,trial_timeout,timeout_time,interTrial_timeout,left_rank,right_rank,distance,joint_rank,left_image,right_image
00000009,1,1,1443209346182,1443209346782,891,403,0,0,0,4,2,2,42,0004-00-0009-83.png,0002-00-0000-62.png
00000009,2,1,1443209348803,1443209349322,939,412,0,0,0,3,1,2,31,0003-00-0005-87.png,0001-00-0006-60.png
00000009,3,0,1443209350395,1443209350976,454,247,0,0,0,4,1,3,41,0004-00-0008-50.png,0001-00-0006-78.png
00000009,4,0,1443209354328,1443209354368,900,306,0,0,0,4,5,1,45,0004-00-0003-49.png,0005-00-0004-74.png
00000009,5,1,1443209357646,1443209358309,367,418,0,0,0,2,5,3,25,0002-00-0009-53.png,0005-00-0000-86.png
00000009,6,1,1443209359568,1443209360111,957,411,0,0,0,2,1,1,21,0002-00-0009-27.png,0001-00-0001-20.png
00000009,7,1,1443209361423,1443209361463,865,341,0,0,0,3,2,1,32,0003-00-0002-82.png,0002-00-0007-99.png
00000009,8,1,1443209367199,1443209367870,352,381,0,0,0,1,5,4,15,0001-00-0003-42.png,0005-00-0002-26.png
00000009,9,1,1443209369059,1443209370316,1022,313,0,0,0,5,3,2,53,0005-00-0006-63.png,0003-00-0009-34.png
00000009,10,0,1443209371799,1443209371855,859,399,0,0,0,1,2,1,12,0001-00-0000-54.png,0002-00-0002-66.png
00000009,11,0,1443209375048,1443209375812,963,396,0,0,0,2,4,2,24,0002-00-0004-86.png,0004-00-0000-82.png
00000009,12,1,1443209379165,1443209379667,427,321,0,0,0,1,3,2,13,0001-00-0006-41.png,0003-00-0008-39.png
00000009,13,1,1443209380594,1443209380630,876,397,0,0,0,5,4,1,54,0005-00-0006-59.png,0004-00-0008-44.png
00000009,14,0,1443209381689,1443209382288,946,408,0,0,0,2,3,1,23,0002-00-0001-75.png,0003-00-0008-24.png
00000009,15,1,1443209385542,1443209386096,940,379,0,0,0,5,2,3,52,0005-00-0007-77.png,0002-00-0004-00.png
00000009,16,0,1443209387294,1443209387322,891,376,0,0,0,3,4,1,34,0003-00-0007-56.png,0004-00-0008-18.png
00000009,17,1,1443209390911,1443209391575,382,321,0,0,0,1,4,3,14,0001-00-0006-29.png,0004-00-0000-25.png
00000009,18,1,1443209392561,1443209392628,964,451,0,0,0,5,1,4,51,0005-00-0001-55.png,0001-00-0007-08.png
00000009,19,0,1443209394597,1443209395107,990,410,0,0,0,3,5,2,35,0003-00-0000-17.png,0005-00-0002-49.png
00000009,20,1,1443209403629,1443209404206,989,446,0,0,0,4,3,1,43,0004-00-0004-83.png,0003-00-0005-36.png
00000009,21,0,1443209405160,1443209407015,898,380,0,0,0,1,2,1,12,0001-00-0002-99.png,0002-00-0004-95.png
00000009,22,1,1443209411500,1443209412002,1066,565,0,0,0,5,1,4,51,0005-00-0000-10.png,0001-00-0002-23.png
00000009,23,0,1443209414272,1443209415176,440,314,0,0,0,5,4,1,54,0005-00-0008-59.png,0004-00-0002-91.png
00000009,24,0,1443209418293,1443209418787,963,333,0,0,0,1,3,2,13,0001-00-0007-00.png,0003-00-0003-60.png
00000009,25,1,1443209421973,1443209422590,365,378,0,0,0,4,5,1,45,0004-00-0006-91.png,0005-00-0001-60.png
00000009,26,1,1443209423480,1443209424737,1092,238,0,0,0,3,1,2,31,0003-00-0001-74.png,0001-00-0005-11.png
00000009,27,1,1443209425619,1443209425667,901,421,0,0,0,4,3,1,43,0004-00-0001-88.png,0003-00-0007-70.png
00000009,28,0,1443209426900,1443209427754,919,367,0,0,0,3,5,2,35,0003-00-0007-90.png,0005-00-0002-34.png
00000009,29,0,1443209430859,1443209431482,519,276,0,0,0,4,1,3,41,0004-00-0003-67.png,0001-00-0008-36.png
00000009,30,1,1443209434684,1443209435329,373,373,0,0,0,3,4,1,34,0003-00-0003-43.png,0004-00-0007-79.png
00000009,31,1,1443209436905,1443209436958,865,396,0,0,0,2,1,1,21,0002-00-0005-09.png,0001-00-0003-22.png
00000009,32,0,1443209438112,1443209438132,863,392,0,0,0,2,4,2,24,0002-00-0009-95.png,0004-00-0004-29.png
00000009,33,0,1443209441821,1443209442556,406,363,0,0,0,3,2,1,32,0003-00-0005-51.png,0002-00-0009-33.png
00000009,34,1,1443209445831,1443209446316,904,381,0,0,0,4,2,2,42,0004-00-0000-05.png,0002-00-0009-61.png
00000009,35,1,1443209447175,1443209448350,461,222,0,0,0,1,5,4,15,0001-00-0005-71.png,0005-00-0005-87.png
00000009,36,0,1443209449210,1443209449270,950,566,0,0,0,2,5,3,25,0002-00-0006-35.png,0005-00-0005-56.png
00000009,37,1,1443209452571,1443209453154,468,264,0,0,0,2,3,1,23,0002-00-0008-65.png,0003-00-0007-81.png
00000009,38,1,1443209454489,1443209455320,469,265,0,0,0,1,4,3,14,0001-00-0002-19.png,0004-00-0009-96.png
00000009,39,0,1443209456217,1443209456918,476,402,0,0,0,5,2,3,52,0005-00-0009-56.png,0002-00-0004-98.png
00000009,40,1,1443209459807,1443209459883,858,307,0,0,0,5,3,2,53,0005-00-0009-86.png,0003-00-0006-38.png
00000009,41,1,1443209460827,1443209461686,939,336,0,0,0,5,3,2,53,0005-00-0002-56.png,0003-00-0004-62.png
00000009,42,1,1443209462568,1443209462596,862,396,0,0,0,3,1,2,31,0003-00-0009-03.png,0001-00-0004-00.png
00000009,43,1,1443209464018,1443209464710,456,220,0,0,0,4,5,1,45,0004-00-0002-51.png,0005-00-0007-33.png
00000009,44,1,1443209465588,1443209466660,392,340,0,0,0,1,5,4,15,0001-00-0007-50.png,0005-00-0001-58.png
00000009,45,0,1443209468044,1443209468592,913,474,0,0,0,1,3,2,13,0001-00-0001-28.png,0003-00-0004-04.png
00000009,46,0,1443209471651,1443209472331,1042,281,0,0,0,1,4,3,14,0001-00-0008-28.png,0004-00-0006-70.png
00000009,47,0,1443209475309,1443209475317,520,493,0,0,0,4,1,3,41,0004-00-0008-76.png,0001-00-0009-96.png
00000009,48,0,1443209478290,1443209478484,942,325,0,0,0,2,5,3,25,0002-00-0007-21.png,0005-00-0001-18.png
00000009,49,0,1443209481638,1443209482391,486,250,0,0,0,5,4,1,54,0005-00-0002-63.png,0004-00-0005-13.png
00000009,50,0,1443209485953,1443209486503,1073,297,0,0,0,3,5,2,35,0003-00-0006-75.png,0005-00-0000-71.png
00000009,51,0,1443209489591,1443209489704,1017,262,0,0,0,2,4,2,24,0002-00-0004-23.png,0004-00-0008-71.png
00000009,52,1,1443209492849,1443209493414,1041,303,0,0,0,2,1,1,21,0002-00-0009-54.png,0001-00-0006-56.png
00000009,53,0,1443209494619,1443209494675,987,536,0,0,0,3,4,1,34,0003-00-0001-85.png,0004-00-0005-85.png
00000009,54,1,1443209497729,1443209497857,862,436,0,0,0,3,2,1,32,0003-00-0003-45.png,0002-00-0005-17.png
00000009,55,1,1443209498712,1443209498901,876,462,0,0,0,5,1,4,51,0005-00-0006-22.png,0001-00-0006-78.png
00000009,56,1,1443209499921,1443209499968,868,411,0,0,0,4,2,2,42,0004-00-0002-92.png,0002-00-0000-88.png
00000009,57,1,1443209501018,1443209502006,965,334,0,0,0,4,3,1,43,0004-00-0007-56.png,0003-00-0000-80.png
00000009,58,0,1443209502835,1443209502863,867,405,0,0,0,2,3,1,23,0002-00-0000-26.png,0003-00-0004-49.png
00000009,59,1,1443209506038,1443209506559,891,348,0,0,0,5,2,3,52,0005-00-0002-06.png,0002-00-0009-48.png
00000009,60,0,1443209507908,1443209508710,939,348,0,0,0,1,2,1,12,0001-00-0006-54.png,0002-00-0007-93.png
00000009,61,0,1443209511723,1443209511854,943,281,0,0,0,2,5,3,25,0002-00-0006-69.png,0005-00-0009-65.png
00000009,62,1,1443209514892,1443209515505,1056,305,0,0,0,4,1,3,41,0004-00-0003-80.png,0001-00-0006-00.png
00000009,63,1,1443209516752,1443209516776,862,370,0,0,0,5,3,2,53,0005-00-0001-67.png,0003-00-0000-58.png
00000009,64,1,1443209517992,1443209521073,458,288,0,0,0,1,2,1,12,0001-00-0009-65.png,0002-00-0008-83.png
00000009,65,1,1443209521904,1443209522677,929,350,0,0,0,4,3,1,43,0004-00-0003-37.png,0003-00-0006-74.png
00000009,66,0,1443209523586,1443209523614,879,392,0,0,0,1,3,2,13,0001-00-0007-84.png,0003-00-0005-89.png
00000009,67,0,1443209526716,1443209527529,447,323,0,0,0,5,4,1,54,0005-00-0009-50.png,0004-00-0009-31.png
00000009,68,0,1443209531379,1443209531834,1063,304,0,0,0,3,4,1,34,0003-00-0004-66.png,0004-00-0001-80.png
00000009,69,0,1443209535077,1443209535592,994,305,0,0,0,3,5,2,35,0003-00-0000-95.png,0005-00-0006-28.png
00000009,70,1,1443209538723,1443209539205,942,328,0,0,0,5,1,4,51,0005-00-0000-59.png,0001-00-0000-06.png
00000009,71,0,1443209540019,1443209540095,933,391,0,0,0,1,5,4,15,0001-00-0005-53.png,0005-00-0005-60.png
00000009,72,1,1443209543161,1443209543652,377,364,0,0,0,1,4,3,14,0001-00-0007-08.png,0004-00-0000-46.png
00000009,73,0,1443209544956,1443209544992,876,369,0,0,0,2,3,1,23,0002-00-0001-78.png,0003-00-0007-61.png
00000009,74,1,1443209547873,1443209548422,373,372,0,0,0,2,4,2,24,0002-00-0005-65.png,0004-00-0006-02.png
00000009,75,1,1443209549604,1443209550421,900,388,0,0,0,3,1,2,31,0003-00-0003-08.png,0001-00-0007-35.png
00000009,76,1,1443209551690,1443209552405,911,340,0,0,0,2,1,1,21,0002-00-0007-31.png,0001-00-0002-38.png
00000009,77,0,1443209553243,1443209553271,926,400,0,0,0,4,5,1,45,0004-00-0006-93.png,0005-00-0007-79.png
00000009,78,1,1443209556611,1443209556836,902,292,0,0,0,5,2,3,52,0005-00-0005-25.png,0002-00-0007-69.png
00000009,79,1,1443209557762,1443209557834,864,446,0,0,0,4,2,2,42,0004-00-0005-92.png,0002-00-0008-90.png
00000009,80,1,1443209558887,1443209559535,1149,379,0,0,0,3,2,1,32,0003-00-0004-91.png,0002-00-0003-81.png
00000009,81,1,1443209560845,1443209560873,871,388,0,0,0,3,1,2,31,0003-00-0004-62.png,0001-00-0004-62.png
00000009,82,1,1443209570024,1443209570554,437,322,0,0,0,1,4,3,14,0001-00-0001-19.png,0004-00-0005-87.png
00000009,83,1,1443209571385,1443209572388,486,248,0,0,0,3,4,1,34,0003-00-0006-29.png,0004-00-0003-93.png
00000009,84,1,1443209573665,1443209573701,868,388,0,0,0,4,1,3,41,0004-00-0000-86.png,0001-00-0006-18.png
00000009,85,0,1443209574658,1443209575011,907,491,0,0,0,1,5,4,15,0001-00-0008-38.png,0005-00-0006-96.png
00000009,86,1,1443209577989,1443209578244,989,284,0,0,0,2,1,1,21,0002-00-0001-96.png,0001-00-0003-18.png
00000009,87,1,1443209579121,1443209579338,913,488,0,0,0,5,2,3,52,0005-00-0005-47.png,0002-00-0001-18.png
00000009,88,0,1443209580332,1443209580486,925,552,0,0,0,3,5,2,35,0003-00-0004-52.png,0005-00-0009-13.png
00000009,89,0,1443209583661,1443209584196,376,424,0,0,0,5,4,1,54,0005-00-0004-46.png,0004-00-0008-89.png
00000009,90,0,1443209587110,1443209587158,959,433,0,0,0,1,3,2,13,0001-00-0007-17.png,0003-00-0006-45.png
00000009,91,1,1443209590161,1443209590892,932,352,0,0,0,5,3,2,53,0005-00-0002-99.png,0003-00-0000-00.png
00000009,92,1,1443209591712,1443209591760,878,421,0,0,0,4,2,2,42,0004-00-0002-28.png,0002-00-0008-49.png
00000009,93,1,1443209592622,1443209592650,862,410,0,0,0,3,2,1,32,0003-00-0002-77.png,0002-00-0007-94.png
00000009,94,1,1443209593865,1443209593893,869,392,0,0,0,4,3,1,43,0004-00-0007-87.png,0003-00-0008-37.png
00000009,95,0,1443209595129,1443209595999,1058,279,0,0,0,4,5,1,45,0004-00-0002-45.png,0005-00-0002-65.png
00000009,96,1,1443209599095,1443209600114,427,283,0,0,0,1,2,1,12,0001-00-0009-15.png,0002-00-0001-10.png
00000009,97,0,1443209601399,1443209602210,888,338,0,0,0,2,5,3,25,0002-00-0009-54.png,0005-00-0003-52.png
00000009,98,1,1443209605185,1443209605732,462,279,0,0,0,2,4,2,24,0002-00-0000-12.png,0004-00-0003-46.png
00000009,99,1,1443209607101,1443209607121,870,378,0,0,0,5,1,4,51,0005-00-0008-36.png,0001-00-0005-54.png
00000009,100,0,1443209607988,1443209608020,884,435,0,0,0,2,3,1,23,0002-00-0001-53.png,0003-00-0007-53.png
00000009,101,0,1443209611188,1443209611416,1011,302,0,0,0,1,4,3,14,0001-00-0001-37.png,0004-00-0004-02.png
00000009,102,0,1443209614974,1443209615528,353,394,0,0,0,3,1,2,31,0003-00-0004-79.png,0001-00-0003-56.png
00000009,103,1,1443209619555,1443209620117,924,319,0,0,0,2,1,1,21,0002-00-0000-66.png,0001-00-0005-55.png
00000009,104,1,1443209621076,1443209621997,1068,290,0,0,0,5,1,4,51,0005-00-0002-45.png,0001-00-0009-51.png
00000009,105,1,1443209622842,1443209622882,911,400,0,0,0,5,2,3,52,0005-00-0007-40.png,0002-00-0001-51.png
00000009,106,1,1443209623759,1443209623796,877,400,0,0,0,4,3,1,43,0004-00-0005-95.png,0003-00-0000-81.png
00000009,107,0,1443209624923,1443209624959,897,413,0,0,0,1,2,1,12,0001-00-0004-96.png,0002-00-0000-45.png
00000009,108,1,1443209628060,1443209628608,481,295,0,0,0,2,3,1,23,0002-00-0002-74.png,0003-00-0005-25.png
00000009,109,0,1443209629900,1443209629924,870,378,0,0,0,1,3,2,13,0001-00-0001-99.png,0003-00-0009-31.png
00000009,110,1,1443209633083,1443209633648,364,412,0,0,0,4,5,1,45,0004-00-0001-85.png,0005-00-0002-56.png
00000009,111,1,1443209634906,1443209635580,1114,226,0,0,0,4,1,3,41,0004-00-0002-32.png,0001-00-0004-26.png
00000009,112,1,1443209636967,1443209637694,1107,235,0,0,0,4,2,2,42,0004-00-0009-78.png,0002-00-0006-94.png
00000009,113,0,1443209638554,1443209638578,919,367,0,0,0,3,4,1,34,0003-00-0006-82.png,0004-00-0002-79.png
00000009,114,1,1443209641796,1443209642286,1041,295,0,0,0,5,4,1,54,0005-00-0005-37.png,0004-00-0000-29.png
00000009,115,0,1443209643155,1443209643235,898,430,0,0,0,2,4,2,24,0002-00-0004-54.png,0004-00-0003-73.png
00000009,116,1,1443209646647,1443209647264,365,357,0,0,0,1,5,4,15,0001-00-0002-50.png,0005-00-0003-42.png
00000009,117,0,1443209648473,1443209648525,862,366,0,0,0,2,5,3,25,0002-00-0001-60.png,0005-00-0004-20.png
00000009,118,1,1443209651615,1443209652287,404,368,0,0,0,3,5,2,35,0003-00-0005-14.png,0005-00-0009-16.png
00000009,119,1,1443209653580,1443209654352,1064,287,0,0,0,3,2,1,32,0003-00-0002-72.png,0002-00-0008-38.png
00000009,120,1,1443209655637,1443209655666,864,362,0,0,0,5,3,2,53,0005-00-0008-85.png,0003-00-0007-09.png
00000009,121,1,1443209656695,1443209657529,475,292,0,0,0,2,3,1,23,0002-00-0005-29.png,0003-00-0003-26.png
00000009,122,0,1443209658504,1443209659323,424,274,0,0,0,2,1,1,21,0002-00-0004-10.png,0001-00-0008-90.png
00000009,123,1,1443209662165,1443209662690,1005,309,0,0,0,4,3,1,43,0004-00-0001-32.png,0003-00-0008-33.png
00000009,124,1,1443209663948,1443209663996,891,392,0,0,0,3,2,1,32,0003-00-0004-76.png,0002-00-0001-83.png
00000009,125,0,1443209664849,1443209665765,921,340,0,0,0,1,5,4,15,0001-00-0007-63.png,0005-00-0008-30.png
00000009,126,0,1443209668867,1443209669369,970,413,0,0,0,4,5,1,45,0004-00-0002-79.png,0005-00-0005-97.png
00000009,127,0,1443209672414,1443209672627,960,322,0,0,0,2,5,3,25,0002-00-0009-10.png,0005-00-0004-03.png
00000009,128,1,1443209675622,1443209676297,998,435,0,0,0,5,3,2,53,0005-00-0007-85.png,0003-00-0004-26.png
00000009,129,1,1443209677442,1443209677502,888,336,0,0,0,5,4,1,54,0005-00-0009-71.png,0004-00-0000-87.png
00000009,130,1,1443209678514,1443209679274,946,333,0,0,0,3,1,2,31,0003-00-0000-11.png,0001-00-0001-21.png
00000009,131,0,1443209680167,1443209680187,895,390,0,0,0,1,4,3,14,0001-00-0002-21.png,0004-00-0004-95.png
00000009,132,1,1443209683307,1443209683500,951,285,0,0,0,5,2,3,52,0005-00-0006-47.png,0002-00-0008-70.png
00000009,133,1,1443209684387,1443209685188,940,342,0,0,0,4,2,2,42,0004-00-0000-22.png,0002-00-0005-41.png
00000009,134,0,1443209686045,1443209686087,865,419,0,0,0,2,4,2,24,0002-00-0000-43.png,0004-00-0008-38.png
00000009,135,1,1443209688961,1443209689684,430,265,0,0,0,3,4,1,34,0003-00-0007-81.png,0004-00-0007-66.png
00000009,136,1,1443209690979,1443209691771,923,358,0,0,0,4,1,3,41,0004-00-0009-29.png,0001-00-0000-19.png
00000009,137,0,1443209692636,1443209692676,889,416,0,0,0,1,2,1,12,0001-00-0008-85.png,0002-00-0007-56.png
00000009,138,1,1443209695976,1443209696511,469,270,0,0,0,1,3,2,13,0001-00-0004-90.png,0003-00-0004-41.png
00000009,139,1,1443209697796,1443209697832,888,384,0,0,0,5,1,4,51,0005-00-0003-34.png,0001-00-0004-16.png
00000009,140,0,1443209698796,1443209698828,891,417,0,0,0,3,5,2,35,0003-00-0002-16.png,0005-00-0003-82.png
00000009,141,1,1443209701977,1443209702479,989,340,0,0,0,3,1,2,31,0003-00-0005-77.png,0001-00-0007-99.png
00000009,142,1,1443209703715,1443209703757,867,358,0,0,0,5,1,4,51,0005-00-0001-81.png,0001-00-0004-59.png
00000009,143,1,1443209704712,1443209704736,858,448,0,0,0,4,3,1,43,0004-00-0001-93.png,0003-00-0005-68.png
00000009,144,1,1443209709402,1443209709429,899,297,0,0,0,4,2,2,42,0004-00-0002-73.png,0002-00-0001-26.png
00000009,145,0,1443209710437,1443209710611,879,461,0,0,0,1,3,2,13,0001-00-0007-58.png,0003-00-0003-23.png
00000009,146,1,1443209713644,1443209713828,965,323,0,0,0,5,4,1,54,0005-00-0009-72.png,0004-00-0008-13.png
00000009,147,1,1443209715096,1443209715116,866,360,0,0,0,4,1,3,41,0004-00-0000-29.png,0001-00-0002-47.png
00000009,148,0,1443209716289,1443209716357,901,447,0,0,0,3,4,1,34,0003-00-0007-72.png,0004-00-0004-71.png
00000009,149,1,1443209720403,1443209721009,360,408,0,0,0,1,4,3,14,0001-00-0004-45.png,0004-00-0003-29.png
00000009,150,1,1443209722169,1443209722213,869,401,0,0,0,3,2,1,32,0003-00-0001-80.png,0002-00-0009-61.png
00000009,151,0,1443209723204,1443209723244,877,410,0,0,0,2,4,2,24,0002-00-0006-38.png,0004-00-0008-03.png
00000009,152,1,1443209726427,1443209726471,898,304,0,0,0,5,3,2,53,0005-00-0001-83.png,0003-00-0003-86.png
00000009,153,1,1443209727379,1443209728191,938,374,0,0,0,2,1,1,21,0002-00-0004-45.png,0001-00-0002-75.png
00000009,154,1,1443209729018,1443209729857,369,366,0,0,0,2,5,3,25,0002-00-0003-10.png,0005-00-0006-03.png
00000009,155,0,1443209730728,1443209730788,896,401,0,0,0,2,3,1,23,0002-00-0006-45.png,0003-00-0000-21.png
00000009,156,0,1443209734137,1443209734305,871,302,0,0,0,1,5,4,15,0001-00-0007-60.png,0005-00-0004-75.png
00000009,157,1,1443209737376,1443209738034,453,260,0,0,0,3,5,2,35,0003-00-0005-50.png,0005-00-0004-18.png
00000009,158,1,1443209739322,1443209739362,870,377,0,0,0,5,2,3,52,0005-00-0005-39.png,0002-00-0003-40.png
00000009,159,0,1443209740286,1443209740326,862,413,0,0,0,4,5,1,45,0004-00-0006-81.png,0005-00-0005-72.png
00000009,160,0,1443209744331,1443209744819,942,328,0,0,0,1,2,1,12,0001-00-0008-97.png,0002-00-0005-63.png
00000009,161,1,1443209750962,1443209751605,1091,282,0,0,0,4,3,1,43,0004-00-0004-72.png,0003-00-0004-83.png
00000009,162,0,1443209752929,1443209752969,888,373,0,0,0,4,5,1,45,0004-00-0006-82.png,0005-00-0003-11.png
00000009,163,1,1443209756081,1443209756624,481,283,0,0,0,1,3,2,13,0001-00-0001-93.png,0003-00-0000-65.png
00000009,164,0,1443209757810,1443209757866,874,358,0,0,0,2,4,2,24,0002-00-0007-81.png,0004-00-0003-09.png
00000009,165,1,1443209761089,1443209761559,1095,275,0,0,0,2,1,1,21,0002-00-0000-65.png,0001-00-0000-71.png
00000009,166,1,1443209762627,1443209762667,888,370,0,0,0,5,2,3,52,0005-00-0007-75.png,0002-00-0007-37.png
00000009,167,1,1443209766206,1443209766246,873,325,0,0,0,3,1,2,31,0003-00-0007-07.png,0001-00-0004-23.png
00000009,168,0,1443209767160,1443209767886,1092,306,0,0,0,1,2,1,12,0001-00-0005-74.png,0002-00-0003-53.png
00000009,169,1,1443209770856,1443209771421,949,356,0,0,0,4,1,3,41,0004-00-0003-13.png,0001-00-0007-19.png
00000009,170,1,1443209772475,1443209772515,869,403,0,0,0,5,3,2,53,0005-00-0000-77.png,0003-00-0003-32.png
00000009,171,1,1443209773550,1443209773590,875,411,0,0,0,5,4,1,54,0005-00-0007-64.png,0004-00-0007-34.png
00000009,172,0,1443209774640,1443209774705,877,435,0,0,0,2,5,3,25,0002-00-0008-72.png,0005-00-0008-29.png
00000009,173,1,1443209777890,1443209778436,471,253,0,0,0,1,5,4,15,0001-00-0001-76.png,0005-00-0006-65.png
00000009,174,1,1443209779553,1443209780540,504,242,0,0,0,3,4,1,34,0003-00-0009-19.png,0004-00-0007-86.png
00000009,175,0,1443209781859,1443209782566,384,367,0,0,0,4,2,2,42,0004-00-0003-53.png,0002-00-0001-39.png
00000009,176,1,1443209785643,1443209786375,483,290,0,0,0,2,3,1,23,0002-00-0006-40.png,0003-00-0006-42.png
00000009,177,1,1443209787613,1443209788621,470,239,0,0,0,3,5,2,35,0003-00-0007-24.png,0005-00-0001-02.png
00000009,178,1,1443209789459,1443209790224,1085,260,0,0,0,3,2,1,32,0003-00-0000-23.png,0002-00-0003-66.png
00000009,179,1,1443209791130,1443209791188,899,407,0,0,0,5,1,4,51,0005-00-0003-04.png,0001-00-0004-04.png
00000009,180,0,1443209792241,1443209792321,878,435,0,0,0,1,4,3,14,0001-00-0007-27.png,0004-00-0009-69.png
00000009,181,1,1443209795442,1443209796042,441,239,0,0,0,1,2,1,12,0001-00-0003-94.png,0002-00-0003-43.png
00000009,182,1,1443209797263,1443209798174,495,279,0,0,0,3,5,2,35,0003-00-0008-17.png,0005-00-0002-53.png
00000009,183,0,1443209799636,1443209799791,878,462,0,0,0,2,5,3,25,0002-00-0007-54.png,0005-00-0004-88.png
00000009,184,1,1443209803133,1443209804291,1037,317,0,0,0,2,1,1,21,0002-00-0004-91.png,0001-00-0006-67.png
00000009,185,1,1443209805208,1443209806090,1068,324,0,0,0,5,2,3,52,0005-00-0008-85.png,0002-00-0002-39.png
00000009,186,0,1443209807397,1443209807433,870,374,0,0,0,2,3,1,23,0002-00-0007-82.png,0003-00-0007-82.png
00000009,187,0,1443209810408,1443209810626,994,291,0,0,0,4,5,1,45,0004-00-0000-53.png,0005-00-0002-78.png
00000009,188,1,1443209813748,1443209814272,937,341,0,0,0,3,1,2,31,0003-00-0006-57.png,0001-00-0009-16.png
00000009,189,0,1443209815467,1443209815535,874,358,0,0,0,1,3,2,13,0001-00-0004-88.png,0003-00-0007-23.png
00000009,190,1,1443209819363,1443209819387,868,348,0,0,0,4,2,2,42,0004-00-0003-00.png,0002-00-0009-13.png
00000009,191,1,1443209820337,1443209820578,876,462,0,0,0,4,3,1,43,0004-00-0003-97.png,0003-00-0009-15.png
00000009,192,1,1443209821658,1443209821694,871,423,0,0,0,3,2,1,32,0003-00-0003-98.png,0002-00-0001-03.png
00000009,193,1,1443209822779,1443209822819,902,416,0,0,0,5,1,4,51,0005-00-0009-25.png,0001-00-0005-32.png
00000009,194,0,1443209823853,1443209823901,880,443,0,0,0,1,4,3,14,0001-00-0000-10.png,0004-00-0006-47.png
00000009,195,1,1443209826995,1443209827771,939,332,0,0,0,4,1,3,41,0004-00-0003-69.png,0001-00-0007-32.png
00000009,196,0,1443209829071,1443209829194,889,423,0,0,0,1,5,4,15,0001-00-0001-68.png,0005-00-0005-32.png
00000009,197,0,1443209832067,1443209832744,1086,272,0,0,0,3,4,1,34,0003-00-0000-60.png,0004-00-0005-17.png
00000009,198,1,1443209836125,1443209836673,487,278,0,0,0,2,4,2,24,0002-00-0004-36.png,0004-00-0006-79.png
00000009,199,1,1443209838024,1443209838060,867,332,0,0,0,5,4,1,54,0005-00-0001-95.png,0004-00-0001-52.png
00000009,200,1,1443209838917,1443209839017,913,462,0,0,0,5,3,2,53,0005-00-0003-78.png,0003-00-0008-26.png
00000009,201,0,1443209839991,1443209840019,860,418,0,0,0,2,3,1,23,0002-00-0000-29.png,0003-00-0004-84.png
00000009,202,1,1443209843114,1443209843712,373,354,0,0,0,1,4,3,14,0001-00-0009-06.png,0004-00-0006-63.png
00000009,203,0,1443209844972,1443209845806,381,358,0,0,0,5,3,2,53,0005-00-0007-09.png,0003-00-0003-19.png
00000009,204,1,1443209850249,1443209850289,884,322,0,0,0,4,2,2,42,0004-00-0004-06.png,0002-00-0009-09.png
00000009,205,1,1443209851220,1443209851980,1052,272,0,0,0,4,3,1,43,0004-00-0001-68.png,0003-00-0008-82.png
00000009,206,0,1443209852810,1443209852842,913,420,0,0,0,1,5,4,15,0001-00-0009-70.png,0005-00-0003-69.png
00000009,207,1,1443209856606,1443209857201,427,279,0,0,0,2,4,2,24,0002-00-0001-48.png,0004-00-0009-97.png
00000009,208,1,1443209858455,1443209858483,888,343,0,0,0,3,2,1,32,0003-00-0004-38.png,0002-00-0004-61.png
00000009,209,1,1443209859448,1443209859488,870,430,0,0,0,5,4,1,54,0005-00-0007-70.png,0004-00-0004-71.png
00000009,210,1,1443209860532,1443209860580,879,423,0,0,0,5,1,4,51,0005-00-0004-65.png,0001-00-0009-53.png
00000009,211,0,1443209861794,1443209861822,862,402,0,0,0,1,3,2,13,0001-00-0008-42.png,0003-00-0007-85.png
00000009,212,1,1443209864924,1443209865462,457,279,0,0,0,3,5,2,35,0003-00-0002-42.png,0005-00-0006-94.png
00000009,213,1,1443209866784,1443209867778,400,376,0,0,0,3,4,1,34,0003-00-0004-03.png,0004-00-0006-05.png
00000009,214,1,1443209869129,1443209869163,897,376,0,0,0,3,1,2,31,0003-00-0004-84.png,0001-00-0002-47.png
00000009,215,1,1443209870080,1443209870120,862,449,0,0,0,4,1,3,41,0004-00-0001-66.png,0001-00-0001-03.png
00000009,216,0,1443209871244,1443209871272,872,410,0,0,0,2,5,3,25,0002-00-0008-26.png,0005-00-0009-29.png
00000009,217,1,1443209874952,1443209874964,861,360,0,0,0,5,2,3,52,0005-00-0006-92.png,0002-00-0002-51.png
00000009,218,0,1443209875834,1443209876378,926,501,0,0,0,1,2,1,12,0001-00-0008-31.png,0002-00-0005-86.png
00000009,219,1,1443209879512,1443209879998,1092,306,0,0,0,2,1,1,21,0002-00-0003-73.png,0001-00-0002-63.png
00000009,220,0,1443209881204,1443209881240,879,365,0,0,0,4,5,1,45,0004-00-0000-89.png,0005-00-0002-52.png
00000009,221,1,1443209884263,1443209884894,982,305,0,0,0,4,3,1,43,0004-00-0008-42.png,0003-00-0004-68.png
00000009,222,0,1443209886114,1443209886186,897,385,0,0,0,3,5,2,35,0003-00-0006-31.png,0005-00-0005-88.png
00000009,223,0,1443209889269,1443209889847,453,304,0,0,0,5,4,1,54,0005-00-0009-95.png,0004-00-0002-75.png
00000009,224,1,1443209892908,1443209893004,964,279,0,0,0,5,3,2,53,0005-00-0005-81.png,0003-00-0002-30.png
00000009,225,0,1443209893894,1443209893922,871,427,0,0,0,1,3,2,13,0001-00-0001-33.png,0003-00-0001-83.png
00000009,226,1,1443209897412,1443209897946,1129,306,0,0,0,3,1,2,31,0003-00-0008-46.png,0001-00-0006-98.png
00000009,227,0,1443209898768,1443209899365,1067,541,0,0,0,2,5,3,25,0002-00-0008-84.png,0005-00-0003-53.png
00000009,228,1,1443209902629,1443209903155,1042,276,0,0,0,4,2,2,42,0004-00-0005-69.png,0002-00-0006-60.png
00000009,229,0,1443209904497,1443209904505,862,358,0,0,0,2,3,1,23,0002-00-0007-95.png,0003-00-0001-78.png
00000009,230,0,1443209907418,1443209908035,466,252,0,0,0,2,1,1,21,0002-00-0008-85.png,0001-00-0002-50.png
00000009,231,1,1443209911155,1443209911672,1107,303,0,0,0,4,1,3,41,0004-00-0000-27.png,0001-00-0001-13.png
00000009,232,0,1443209912913,1443209913419,905,470,0,0,0,1,5,4,15,0001-00-0001-92.png,0005-00-0008-24.png
00000009,233,1,1443209916482,1443209917177,458,283,0,0,0,4,5,1,45,0004-00-0001-06.png,0005-00-0009-58.png
00000009,234,1,1443209918438,1443209918462,875,343,0,0,0,5,2,3,52,0005-00-0007-11.png,0002-00-0002-57.png
00000009,235,1,1443209919525,1443209919545,869,392,0,0,0,3,2,1,32,0003-00-0001-71.png,0002-00-0007-45.png
00000009,236,1,1443209920605,1443209921976,962,495,0,0,0,5,1,4,51,0005-00-0006-35.png,0001-00-0000-28.png
00000009,237,0,1443209922820,1443209922852,906,419,0,0,0,3,4,1,34,0003-00-0008-22.png,0004-00-0003-57.png
00000009,238,1,1443209925691,1443209926251,366,419,0,0,0,1,4,3,14,0001-00-0004-98.png,0004-00-0008-37.png
00000009,239,0,1443209927474,1443209927482,863,383,0,0,0,1,2,1,12,0001-00-0009-39.png,0002-00-0008-36.png
00000009,240,1,1443209930652,1443209931317,379,386,0,0,0,2,4,2,24,0002-00-0007-10.png,0004-00-0006-96.png
00000009,241,0,1443209932561,1443209932585,883,366,0,0,0,3,5,2,35,0003-00-0002-30.png,0005-00-0003-10.png
00000009,242,1,1443209936128,1443209936400,963,305,0,0,0,4,1,3,41,0004-00-0004-57.png,0001-00-0008-62.png
00000009,243,1,1443209937260,1443209937320,872,436,0,0,0,4,2,2,42,0004-00-0001-99.png,0002-00-0005-53.png
00000009,244,0,1443209938464,1443209938513,862,423,0,0,0,4,5,1,45,0004-00-0008-17.png,0005-00-0007-87.png
00000009,245,1,1443209941712,1443209942378,487,287,0,0,0,2,3,1,23,0002-00-0009-44.png,0003-00-0003-56.png
00000009,246,0,1443209943632,1443209943660,871,358,0,0,0,1,3,2,13,0001-00-0009-03.png,0003-00-0009-73.png
00000009,247,1,1443209946541,1443209946660,962,310,0,0,0,3,1,2,31,0003-00-0005-52.png,0001-00-0002-02.png
00000009,248,1,1443209947495,1443209947559,861,463,0,0,0,2,1,1,21,0002-00-0007-13.png,0001-00-0003-58.png
00000009,249,1,1443209948779,1443209948827,874,409,0,0,0,5,4,1,54,0005-00-0001-31.png,0004-00-0003-08.png
00000009,250,1,1443209949784,1443209949812,872,410,0,0,0,5,2,3,52,0005-00-0006-87.png,0002-00-0003-70.png
00000009,251,0,1443209951036,1443209951088,862,425,0,0,0,1,4,3,14,0001-00-0005-02.png,0004-00-0006-40.png
00000009,252,1,1443209953914,1443209954581,357,392,0,0,0,1,5,4,15,0001-00-0009-36.png,0005-00-0009-82.png
00000009,253,1,1443209955866,1443209955882,894,325,0,0,0,5,3,2,53,0005-00-0003-45.png,0003-00-0001-79.png
00000009,254,0,1443209957046,1443209957086,873,419,0,0,0,1,2,1,12,0001-00-0005-98.png,0002-00-0006-00.png
00000009,255,0,1443209960235,1443209960754,936,328,0,0,0,3,4,1,34,0003-00-0006-50.png,0004-00-0003-07.png
00000009,256,1,1443209963666,1443209964253,360,377,0,0,0,2,4,2,24,0002-00-0001-91.png,0004-00-0002-36.png
00000009,257,1,1443209965556,1443209966447,984,346,0,0,0,5,1,4,51,0005-00-0006-18.png,0001-00-0008-38.png
00000009,258,1,1443209967800,1443209967820,868,394,0,0,0,4,3,1,43,0004-00-0002-28.png,0003-00-0006-21.png
00000009,259,0,1443209968924,1443209968952,888,410,0,0,0,2,5,3,25,0002-00-0000-12.png,0005-00-0000-05.png
00000009,260,1,1443209972162,1443209972736,917,351,0,0,0,3,2,1,32,0003-00-0006-61.png,0002-00-0003-73.png
00000009,261,0,1443209973931,1443209973960,862,358,0,0,0,2,3,1,23,0002-00-0000-50.png,0003-00-0003-33.png
00000009,262,0,1443209976894,1443209976922,913,397,0,0,0,2,4,2,24,0002-00-0000-22.png,0004-00-0001-46.png
00000009,263,1,1443209979865,1443209979893,517,459,0,0,0,1,4,3,14,0001-00-0001-96.png,0004-00-0007-45.png
00000009,264,1,1443209980819,1443209980839,870,395,0,0,0,4,2,2,42,0004-00-0001-35.png,0002-00-0004-48.png
00000009,265,1,1443209981812,1443209981852,876,408,0,0,0,5,1,4,51,0005-00-0008-64.png,0001-00-0008-08.png
00000009,266,1,1443209982913,1443209983675,1061,263,0,0,0,4,1,3,41,0004-00-0007-14.png,0001-00-0001-20.png
00000009,267,0,1443209984511,1443209984547,962,392,0,0,0,1,2,1,12,0001-00-0007-31.png,0002-00-0009-76.png
00000009,268,0,1443209987654,1443209987683,912,324,0,0,0,4,5,1,45,0004-00-0006-01.png,0005-00-0004-08.png
00000009,269,1,1443209990806,1443209991352,979,410,0,0,0,5,2,3,52,0005-00-0002-24.png,0002-00-0007-05.png
00000009,270,1,1443209992514,1443209992530,862,358,0,0,0,3,2,1,32,0003-00-0002-52.png,0002-00-0005-31.png
00000009,271,1,1443209993477,1443209993517,860,419,0,0,0,5,4,1,54,0005-00-0007-83.png,0004-00-0000-45.png
00000009,272,0,1443209994520,1443209994851,902,475,0,0,0,3,4,1,34,0003-00-0004-72.png,0004-00-0003-40.png
00000009,273,1,1443209997861,1443209998535,486,257,0,0,0,1,5,4,15,0001-00-0009-54.png,0005-00-0009-02.png
00000009,274,1,1443209999760,1443209999792,869,375,0,0,0,4,3,1,43,0004-00-0009-48.png,0003-00-0002-60.png
00000009,275,1,1443210000873,1443210001312,920,478,0,0,0,5,3,2,53,0005-00-0006-47.png,0003-00-0009-20.png
00000009,276,0,1443210002401,1443210002441,936,398,0,0,0,3,5,2,35,0003-00-0003-03.png,0005-00-0001-71.png
00000009,277,1,1443210005494,1443210005995,960,322,0,0,0,2,1,1,21,0002-00-0007-89.png,0001-00-0007-82.png
00000009,278,1,1443210007083,1443210007119,871,384,0,0,0,3,1,2,31,0003-00-0004-26.png,0001-00-0003-47.png
00000009,279,0,1443210008254,1443210008270,893,448,0,0,0,2,5,3,25,0002-00-0004-26.png,0005-00-0001-13.png
00000009,280,1,1443210011711,1443210012710,406,291,0,0,0,1,3,2,13,0001-00-0004-70.png,0003-00-0009-68.png
00000009,281,0,1443210014078,1443210014146,874,393,0,0,0,3,4,1,34,0003-00-0004-06.png,0004-00-0001-91.png
00000009,282,1,1443210017069,1443210017645,475,308,0,0,0,1,4,3,14,0001-00-0006-00.png,0004-00-0008-26.png
00000009,283,1,1443210018808,1443210018856,900,382,0,0,0,4,2,2,42,0004-00-0003-01.png,0002-00-0000-05.png
00000009,284,1,1443210019900,1443210019948,879,418,0,0,0,4,3,1,43,0004-00-0004-80.png,0003-00-0009-02.png
00000009,285,0,1443210021055,1443210021107,888,401,0,0,0,2,5,3,25,0002-00-0005-25.png,0005-00-0002-72.png
00000009,286,1,1443210025180,1443210025737,954,417,0,0,0,5,3,2,53,0005-00-0008-16.png,0003-00-0003-24.png
00000009,287,0,1443210026987,1443210027099,920,425,0,0,0,2,4,2,24,0002-00-0002-22.png,0004-00-0008-64.png
00000009,288,1,1443210030227,1443210030768,516,293,0,0,0,1,3,2,13,0001-00-0009-29.png,0003-00-0007-94.png
00000009,289,1,1443210032115,1443210032163,885,366,0,0,0,3,2,1,32,0003-00-0003-02.png,0002-00-0008-44.png
00000009,290,1,1443210033210,1443210033260,913,423,0,0,0,3,1,2,31,0003-00-0002-11.png,0001-00-0006-54.png
00000009,291,0,1443210034419,1443210034435,911,417,0,0,0,2,3,1,23,0002-00-0005-82.png,0003-00-0003-90.png
00000009,292,1,1443210037545,1443210038120,990,410,0,0,0,5,1,4,51,0005-00-0005-19.png,0001-00-0005-84.png
00000009,293,1,1443210039286,1443210039346,870,380,0,0,0,5,4,1,54,0005-00-0006-35.png,0004-00-0009-53.png
00000009,294,0,1443210040370,1443210040390,871,390,0,0,0,4,5,1,45,0004-00-0008-26.png,0005-00-0006-34.png
00000009,295,1,1443210043851,1443210044443,1067,306,0,0,0,4,1,3,41,0004-00-0007-10.png,0001-00-0004-58.png
00000009,296,1,1443210045591,1443210045615,899,378,0,0,0,2,1,1,21,0002-00-0004-20.png,0001-00-0007-82.png
00000009,297,0,1443210046553,1443210046609,881,438,0,0,0,1,5,4,15,0001-00-0002-21.png,0005-00-0002-69.png
00000009,298,1,1443210049673,1443210050246,1099,305,0,0,0,5,2,3,52,0005-00-0005-62.png,0002-00-0003-18.png
00000009,299,0,1443210051341,1443210051401,898,384,0,0,0,3,5,2,35,0003-00-0009-79.png,0005-00-0006-61.png
00000009,300,1,1443210054592,1443210055374,485,277,0,0,0,1,2,1,12,0001-00-0007-90.png,0002-00-0002-99.png
00000009,301,0,1443210056452,1443210056630,922,384,0,0,0,3,4,1,34,0003-00-0004-28.png,0004-00-0004-92.png
00000009,302,1,1443210059848,1443210060362,950,423,0,0,0,5,2,3,52,0005-00-0007-85.png,0002-00-0001-41.png
00000009,303,1,1443210061540,1443210061576,888,358,0,0,0,5,4,1,54,0005-00-0009-42.png,0004-00-0000-79.png
00000009,304,1,1443210062681,1443210062721,893,411,0,0,0,3,1,2,31,0003-00-0003-52.png,0001-00-0006-63.png
00000009,305,0,1443210063793,1443210063825,883,398,0,0,0,2,5,3,25,0002-00-0008-06.png,0005-00-0001-34.png
00000009,306,1,1443210066933,1443210067471,946,333,0,0,0,4,2,2,42,0004-00-0007-34.png,0002-00-0006-07.png
00000009,307,1,1443210068733,1443210068753,867,383,0,0,0,5,3,2,53,0005-00-0008-29.png,0003-00-0003-59.png
00000009,308,0,1443210069825,1443210069853,862,422,0,0,0,3,5,2,35,0003-00-0005-86.png,0005-00-0005-54.png
00000009,309,0,1443210072935,1443210073432,934,399,0,0,0,1,3,2,13,0001-00-0000-57.png,0003-00-0003-56.png
00000009,310,1,1443210076572,1443210077093,470,286,0,0,0,1,2,1,12,0001-00-0000-54.png,0002-00-0008-70.png
00000009,311,0,1443210078342,1443210078500,904,410,0,0,0,2,4,2,24,0002-00-0003-25.png,0004-00-0001-96.png
00000009,312,1,1443210081593,1443210082122,1118,317,0,0,0,4,1,3,41,0004-00-0008-96.png,0001-00-0007-92.png
00000009,313,1,1443210083338,1443210083436,913,375,0,0,0,5,1,4,51,0005-00-0009-33.png,0001-00-0008-71.png
00000009,314,0,1443210084414,1443210084442,890,397,0,0,0,2,3,1,23,0002-00-0002-13.png,0003-00-0005-65.png
00000009,315,1,1443210087385,1443210087961,499,268,0,0,0,4,5,1,45,0004-00-0007-11.png,0005-00-0007-14.png
00000009,316,1,1443210089174,1443210089212,906,362,0,0,0,4,3,1,43,0004-00-0004-50.png,0003-00-0008-82.png
00000009,317,0,1443210090248,1443210090276,885,384,0,0,0,1,5,4,15,0001-00-0002-99.png,0005-00-0004-87.png
00000009,318,1,1443210093387,1443210094000,962,319,0,0,0,2,1,1,21,0002-00-0002-67.png,0001-00-0000-58.png
00000009,319,0,1443210095196,1443210095268,913,373,0,0,0,1,4,3,14,0001-00-0000-83.png,0004-00-0000-23.png
00000009,320,1,1443210098345,1443210098820,966,325,0,0,0,3,2,1,32,0003-00-0001-21.png,0002-00-0009-36.png
00000009,321,0,1443210099650,1443210100015,913,384,0,0,0,1,4,3,14,0001-00-0000-38.png,0004-00-0007-39.png
00000009,322,1,1443210102956,1443210103618,1092,296,0,0,0,4,1,3,41,0004-00-0007-57.png,0001-00-0003-46.png
00000009,323,1,1443210104785,1443210104825,913,370,0,0,0,3,1,2,31,0003-00-0000-55.png,0001-00-0004-62.png
00000009,324,0,1443210105849,1443210105897,888,410,0,0,0,2,3,1,23,0002-00-0007-80.png,0003-00-0003-91.png
00000009,325,1,1443210108839,1443210109382,946,346,0,0,0,5,1,4,51,0005-00-0002-16.png,0001-00-0000-17.png
00000009,326,1,1443210110568,1443210110632,897,384,0,0,0,5,3,2,53,0005-00-0006-95.png,0003-00-0001-63.png
00000009,327,0,1443210111701,1443210111737,874,395,0,0,0,4,5,1,45,0004-00-0000-10.png,0005-00-0004-79.png
00000009,328,1,1443210114592,1443210115181,361,383,0,0,0,1,3,2,13,0001-00-0005-21.png,0003-00-0007-76.png
00000009,329,0,1443210116378,1443210116501,935,345,0,0,0,3,5,2,35,0003-00-0009-05.png,0005-00-0006-87.png
00000009,330,0,1443210119670,1443210119873,913,425,0,0,0,3,4,1,34,0003-00-0000-96.png,0004-00-0009-20.png
00000009,331,1,1443210122747,1443210123324,374,394,0,0,0,1,5,4,15,0001-00-0006-36.png,0005-00-0008-27.png
00000009,332,1,1443210124569,1443210125273,1076,244,0,0,0,3,2,1,32,0003-00-0002-92.png,0002-00-0003-64.png
00000009,333,1,1443210126577,1443210126605,923,379,0,0,0,2,1,1,21,0002-00-0000-65.png,0001-00-0003-43.png
00000009,334,0,1443210127650,1443210127678,902,390,0,0,0,2,5,3,25,0002-00-0009-02.png,0005-00-0006-83.png
00000009,335,1,1443210130672,1443210131139,944,321,0,0,0,4,2,2,42,0004-00-0003-95.png,0002-00-0006-69.png
00000009,336,1,1443210132361,1443210132377,900,374,0,0,0,4,3,1,43,0004-00-0003-72.png,0003-00-0005-27.png
00000009,337,0,1443210133464,1443210133496,902,412,0,0,0,2,4,2,24,0002-00-0007-10.png,0004-00-0005-46.png
00000009,338,1,1443210136383,1443210137025,477,295,0,0,0,1,2,1,12,0001-00-0008-47.png,0002-00-0006-53.png
00000009,339,1,1443210138382,1443210138406,904,339,0,0,0,5,2,3,52,0005-00-0005-55.png,0002-00-0009-22.png
00000009,340,1,1443210139434,1443210140043,964,541,0,0,0,5,4,1,54,0005-00-0008-11.png,0004-00-0006-99.png
00000009,341,0,1443210141002,1443210141052,880,390,0,0,0,2,5,3,25,0002-00-0006-24.png,0005-00-0008-08.png
00000009,342,1,1443210144037,1443210144745,400,379,0,0,0,3,5,2,35,0003-00-0003-44.png,0005-00-0002-39.png
00000009,343,0,1443210146049,1443210146104,935,377,0,0,0,4,5,1,45,0004-00-0002-50.png,0005-00-0005-30.png
00000009,344,0,1443210149102,1443210149298,862,421,0,0,0,1,2,1,12,0001-00-0009-19.png,0002-00-0007-53.png
00000009,345,0,1443210152413,1443210152947,964,358,0,0,0,1,3,2,13,0001-00-0005-87.png,0003-00-0007-50.png
00000009,346,1,1443210156308,1443210156356,939,332,0,0,0,3,1,2,31,0003-00-0004-16.png,0001-00-0005-30.png
00000009,347,1,1443210157288,1443210157332,862,410,0,0,0,4,1,3,41,0004-00-0009-95.png,0001-00-0009-72.png
00000009,348,1,1443210158337,1443210158397,888,410,0,0,0,4,2,2,42,0004-00-0001-66.png,0002-00-0005-21.png
00000009,349,0,1443210159527,1443210159559,888,392,0,0,0,3,4,1,34,0003-00-0000-70.png,0004-00-0008-84.png
00000009,350,1,1443210162627,1443210163158,1098,300,0,0,0,3,2,1,32,0003-00-0009-17.png,0002-00-0000-49.png
00000009,351,0,1443210164360,1443210164454,927,384,0,0,0,1,4,3,14,0001-00-0009-91.png,0004-00-0009-04.png
00000009,352,1,1443210167596,1443210168204,472,274,0,0,0,2,3,1,23,0002-00-0000-73.png,0003-00-0009-18.png
00000009,353,1,1443210169477,1443210169525,913,358,0,0,0,5,1,4,51,0005-00-0003-13.png,0001-00-0007-50.png
00000009,354,1,1443210170599,1443210170647,927,424,0,0,0,5,2,3,52,0005-00-0006-44.png,0002-00-0008-34.png
00000009,355,1,1443210171730,1443210171750,903,384,0,0,0,5,4,1,54,0005-00-0009-59.png,0004-00-0008-17.png
00000009,356,0,1443210172906,1443210172954,903,433,0,0,0,1,5,4,15,0001-00-0006-98.png,0005-00-0002-49.png
00000009,357,1,1443210176428,1443210176962,964,336,0,0,0,5,3,2,53,0005-00-0007-61.png,0003-00-0006-60.png
00000009,358,1,1443210178090,1443210178171,902,384,0,0,0,4,3,1,43,0004-00-0005-34.png,0003-00-0001-24.png
00000009,359,1,1443210179253,1443210179281,894,401,0,0,0,2,1,1,21,0002-00-0005-97.png,0001-00-0008-16.png
00000009,360,0,1443210180341,1443210180377,877,391,0,0,0,2,4,2,24,0002-00-0007-91.png,0004-00-0004-98.png
00000009,361,0,1443210183219,1443210183308,878,436,0,0,0,4,5,1,45,0004-00-0005-55.png,0005-00-0007-75.png
00000009,362,1,1443210186225,1443210186848,427,306,0,0,0,1,4,3,14,0001-00-0009-51.png,0004-00-0003-99.png
00000009,363,1,1443210188060,1443210188108,904,384,0,0,0,4,2,2,42,0004-00-0005-01.png,0002-00-0000-82.png
00000009,364,1,1443210189042,1443210189884,462,344,0,0,0,1,2,1,12,0001-00-0008-89.png,0002-00-0004-95.png
00000009,365,0,1443210191229,1443210191270,906,341,0,0,0,1,3,2,13,0001-00-0006-06.png,0003-00-0007-61.png
00000009,366,0,1443210194823,1443210195508,1118,279,0,0,0,2,3,1,23,0002-00-0000-53.png,0003-00-0004-24.png
00000009,367,1,1443210198423,1443210198558,917,295,0,0,0,2,1,1,21,0002-00-0003-30.png,0001-00-0000-43.png
00000009,368,1,1443210199460,1443210200222,1058,279,0,0,0,4,1,3,41,0004-00-0005-78.png,0001-00-0002-82.png
00000009,369,1,1443210201093,1443210201145,913,375,0,0,0,3,1,2,31,0003-00-0001-73.png,0001-00-0006-93.png
00000009,370,0,1443210202120,1443210202148,893,386,0,0,0,3,5,2,35,0003-00-0002-68.png,0005-00-0003-79.png
00000009,371,1,1443210205476,1443210206167,475,334,0,0,0,2,5,3,25,0002-00-0003-55.png,0005-00-0008-03.png
00000009,372,1,1443210207050,1443210207103,903,376,0,0,0,5,4,1,54,0005-00-0002-36.png,0004-00-0000-90.png
00000009,373,1,1443210208080,1443210208120,896,418,0,0,0,5,2,3,52,0005-00-0000-36.png,0002-00-0002-52.png
00000009,374,1,1443210209173,1443210209213,879,393,0,0,0,4,3,1,43,0004-00-0008-79.png,0003-00-0002-20.png
00000009,375,0,1443210210426,1443210210502,920,424,0,0,0,2,4,2,24,0002-00-0008-39.png,0004-00-0002-74.png
00000009,376,0,1443210213463,1443210214143,431,282,0,0,0,5,3,2,53,0005-00-0003-29.png,0003-00-0007-88.png
00000009,377,1,1443210217093,1443210217593,942,339,0,0,0,5,1,4,51,0005-00-0000-22.png,0001-00-0005-07.png
00000009,378,0,1443210218787,1443210218823,899,358,0,0,0,1,5,4,15,0001-00-0008-40.png,0005-00-0006-71.png
00000009,379,0,1443210221886,1443210222383,1106,306,0,0,0,3,4,1,34,0003-00-0003-51.png,0004-00-0006-86.png
00000009,380,0,1443210225475,1443210226482,417,260,0,0,0,3,2,1,32,0003-00-0001-80.png,0002-00-0003-78.png
00000009,381,1,1443210229430,1443210229936,941,318,0,0,0,5,2,3,52,0005-00-0000-38.png,0002-00-0008-66.png
00000009,382,0,1443210230787,1443210230811,912,423,0,0,0,1,5,4,15,0001-00-0004-86.png,0005-00-0008-33.png
00000009,383,0,1443210233961,1443210234446,967,332,0,0,0,1,3,2,13,0001-00-0009-07.png,0003-00-0006-98.png
00000009,384,1,1443210237323,1443210237921,965,342,0,0,0,4,1,3,41,0004-00-0008-60.png,0001-00-0003-55.png
00000009,385,0,1443210239199,1443210239241,862,356,0,0,0,1,2,1,12,0001-00-0008-26.png,0002-00-0004-27.png
00000009,386,0,1443210242367,1443210242866,961,325,0,0,0,4,5,1,45,0004-00-0004-03.png,0005-00-0005-81.png
00000009,387,0,1443210245775,1443210246348,479,289,0,0,0,2,1,1,21,0002-00-0003-69.png,0001-00-0005-71.png
00000009,388,1,1443210249560,1443210250077,1091,302,0,0,0,3,1,2,31,0003-00-0004-49.png,0001-00-0009-46.png
00000009,389,0,1443210251738,1443210252481,893,361,0,0,0,3,4,1,34,0003-00-0002-88.png,0004-00-0009-92.png
00000009,390,1,1443210255691,1443210255723,894,295,0,0,0,4,2,2,42,0004-00-0009-53.png,0002-00-0002-83.png
00000009,391,1,1443210256828,1443210256868,870,378,0,0,0,3,2,1,32,0003-00-0000-87.png,0002-00-0006-49.png
00000009,392,1,1443210257980,1443210258004,862,384,0,0,0,5,3,2,53,0005-00-0004-62.png,0003-00-0005-28.png
00000009,393,0,1443210259165,1443210259221,883,413,0,0,0,2,5,3,25,0002-00-0000-50.png,0005-00-0000-18.png
00000009,394,0,1443210262569,1443210262597,862,332,0,0,0,2,3,1,23,0002-00-0008-51.png,0003-00-0000-11.png
00000009,395,0,1443210265837,1443210266088,858,350,0,0,0,2,4,2,24,0002-00-0005-39.png,0004-00-0001-97.png
00000009,396,0,1443210269326,1443210269608,1014,304,0,0,0,1,4,3,14,0001-00-0003-90.png,0004-00-0002-10.png
00000009,397,1,1443210272608,1443210273170,939,399,0,0,0,4,3,1,43,0004-00-0006-88.png,0003-00-0000-59.png
00000009,398,1,1443210274013,1443210274061,888,436,0,0,0,5,4,1,54,0005-00-0008-79.png,0004-00-0009-15.png
00000009,399,0,1443210275370,1443210275434,879,409,0,0,0,3,5,2,35,0003-00-0001-92.png,0005-00-0003-89.png
00000009,400,1,1443210278262,1443210278769,959,303,0,0,0,5,1,4,51,0005-00-0008-94.png,0001-00-0009-41.png
00000009,401,1,1443210280069,1443210280101,884,363,0,0,0,5,1,4,51,0005-00-0002-04.png,0001-00-0001-64.png
00000009,402,0,1443210281171,1443210281214,888,410,0,0,0,1,5,4,15,0001-00-0006-47.png,0005-00-0002-43.png
00000009,403,1,1443210284492,1443210285324,422,303,0,0,0,2,3,1,23,0002-00-0009-03.png,0003-00-0004-17.png
00000009,404,0,1443210286159,1443210286203,895,403,0,0,0,2,4,2,24,0002-00-0005-46.png,0004-00-0008-09.png
00000009,405,1,1443210289478,1443210290031,966,333,0,0,0,3,2,1,32,0003-00-0001-56.png,0002-00-0009-72.png
00000009,406,1,1443210290909,1443210291788,939,383,0,0,0,5,3,2,53,0005-00-0003-21.png,0003-00-0006-21.png
00000009,407,1,1443210292756,1443210292800,962,411,0,0,0,4,3,1,43,0004-00-0008-30.png,0003-00-0003-00.png
00000009,408,1,1443210293870,1443210293926,930,436,0,0,0,2,1,1,21,0002-00-0000-06.png,0001-00-0003-43.png
00000009,409,0,1443210294999,1443210295042,946,426,0,0,0,1,4,3,14,0001-00-0004-83.png,0004-00-0008-99.png
00000009,410,0,1443210298206,1443210298800,362,402,0,0,0,4,2,2,42,0004-00-0003-71.png,0002-00-0008-61.png
00000009,411,1,1443210301933,1443210301972,892,360,0,0,0,5,4,1,54,0005-00-0007-75.png,0004-00-0000-10.png
00000009,412,0,1443210302924,1443210303005,957,420,0,0,0,1,2,1,12,0001-00-0000-49.png,0002-00-0006-58.png
00000009,413,1,1443210305992,1443210306755,486,252,0,0,0,1,3,2,13,0001-00-0004-80.png,0003-00-0005-95.png
00000009,414,1,1443210308055,1443210308079,898,356,0,0,0,5,2,3,52,0005-00-0006-46.png,0002-00-0001-88.png
00000009,415,0,1443210309085,1443210309159,898,410,0,0,0,2,5,3,25,0002-00-0003-58.png,0005-00-0002-94.png
00000009,416,1,1443210312294,1443210312966,451,269,0,0,0,3,4,1,34,0003-00-0003-86.png,0004-00-0006-20.png
00000009,417,1,1443210314344,1443210314401,871,378,0,0,0,3,1,2,31,0003-00-0003-48.png,0001-00-0007-69.png
00000009,418,0,1443210315434,1443210315477,907,418,0,0,0,4,5,1,45,0004-00-0006-42.png,0005-00-0005-81.png
00000009,419,0,1443210318608,1443210318633,925,332,0,0,0,3,5,2,35,0003-00-0001-86.png,0005-00-0005-71.png
00000009,420,1,1443210321739,1443210322221,1065,274,0,0,0,4,1,3,41,0004-00-0004-92.png,0001-00-0002-52.png
00000009,421,1,1443210323455,1443210323483,896,358,0,0,0,5,2,3,52,0005-00-0002-88.png,0002-00-0001-85.png
00000009,422,1,1443210324465,1443210324517,902,384,0,0,0,3,2,1,32,0003-00-0008-93.png,0002-00-0008-23.png
00000009,423,0,1443210325544,1443210325572,877,391,0,0,0,4,5,1,45,0004-00-0003-71.png,0005-00-0000-60.png
00000009,424,1,1443210328672,1443210329252,961,324,0,0,0,3,1,2,31,0003-00-0008-18.png,0001-00-0003-75.png
00000009,425,0,1443210330521,1443210330549,871,358,0,0,0,3,5,2,35,0003-00-0001-50.png,0005-00-0008-09.png
00000009,426,0,1443210333674,1443210334372,936,346,0,0,0,1,5,4,15,0001-00-0008-71.png,0005-00-0002-42.png
00000009,427,0,1443210337282,1443210337798,910,358,0,0,0,1,2,1,12,0001-00-0007-00.png,0002-00-0004-34.png
00000009,428,0,1443210340749,1443210341365,959,349,0,0,0,2,3,1,23,0002-00-0007-74.png,0003-00-0004-07.png
00000009,429,1,1443210344418,1443210344963,951,326,0,0,0,4,2,2,42,0004-00-0008-22.png,0002-00-0000-38.png
00000009,430,1,1443210345822,1443210345846,890,408,0,0,0,2,1,1,21,0002-00-0005-62.png,0001-00-0002-16.png
00000009,431,1,1443210347099,1443210347412,878,462,0,0,0,5,4,1,54,0005-00-0003-88.png,0004-00-0007-64.png
00000009,432,1,1443210348517,1443210348604,945,449,0,0,0,5,1,4,51,0005-00-0006-00.png,0001-00-0005-53.png
00000009,433,1,1443210349618,1443210349721,909,433,0,0,0,4,3,1,43,0004-00-0005-82.png,0003-00-0009-62.png
00000009,434,0,1443210350710,1443210350793,906,429,0,0,0,2,4,2,24,0002-00-0001-89.png,0004-00-0000-52.png
00000009,435,1,1443210353886,1443210354452,436,307,0,0,0,1,3,2,13,0001-00-0008-33.png,0003-00-0002-94.png
00000009,436,0,1443210356450,1443210356471,879,326,0,0,0,1,4,3,14,0001-00-0005-91.png,0004-00-0009-07.png
00000009,437,1,1443210359647,1443210360450,947,333,0,0,0,5,3,2,53,0005-00-0003-37.png,0003-00-0008-49.png
00000009,438,0,1443210361307,1443210361338,900,390,0,0,0,3,4,1,34,0003-00-0003-45.png,0004-00-0008-92.png
00000009,439,1,1443210364537,1443210365073,964,371,0,0,0,4,1,3,41,0004-00-0006-18.png,0001-00-0003-37.png
00000009,440,0,1443210365946,1443210366010,912,390,0,0,0,2,5,3,25,0002-00-0007-51.png,0005-00-0009-73.png
00000009,441,1,1443210369219,1443210369706,943,338,0,0,0,5,4,1,54,0005-00-0000-24.png,0004-00-0009-14.png
00000009,442,0,1443210370586,1443210370594,862,431,0,0,0,2,3,1,23,0002-00-0003-41.png,0003-00-0005-22.png
00000009,443,1,1443210373626,1443210374156,1067,279,0,0,0,3,1,2,31,0003-00-0008-45.png,0001-00-0007-42.png
00000009,444,1,1443210374980,1443210375004,862,436,0,0,0,5,3,2,53,0005-00-0004-10.png,0003-00-0002-96.png
00000009,445,1,1443210376171,1443210376211,859,397,0,0,0,2,1,1,21,0002-00-0006-73.png,0001-00-0009-79.png
00000009,446,1,1443210377377,1443210378097,451,254,0,0,0,1,4,3,14,0001-00-0007-59.png,0004-00-0002-74.png
00000009,447,0,1443210379146,1443210379342,906,488,0,0,0,4,5,1,45,0004-00-0008-93.png,0005-00-0006-38.png
00000009,448,1,1443210382406,1443210382899,920,348,0,0,0,5,2,3,52,0005-00-0002-63.png,0002-00-0006-09.png
00000009,449,1,1443210383820,1443210383857,887,412,0,0,0,3,2,1,32,0003-00-0004-23.png,0002-00-0008-73.png
00000009,450,0,1443210385185,1443210385249,903,431,0,0,0,3,4,1,34,0003-00-0003-30.png,0004-00-0009-32.png
00000009,451,1,1443210388088,1443210388697,1091,306,0,0,0,4,1,3,41,0004-00-0007-79.png,0001-00-0003-45.png
00000009,452,0,1443210389920,1443210389956,889,376,0,0,0,2,4,2,24,0002-00-0008-12.png,0004-00-0002-24.png
00000009,453,0,1443210393080,1443210393615,939,345,0,0,0,1,2,1,12,0001-00-0008-07.png,0002-00-0005-01.png
00000009,454,1,1443210396703,1443210397276,455,295,0,0,0,3,5,2,35,0003-00-0002-24.png,0005-00-0007-42.png
00000009,455,1,1443210398111,1443210398167,882,367,0,0,0,5,1,4,51,0005-00-0000-21.png,0001-00-0002-00.png
00000009,456,0,1443210399239,1443210399275,863,385,0,0,0,1,5,4,15,0001-00-0007-97.png,0005-00-0001-05.png
00000009,457,0,1443210402400,1443210402924,453,258,0,0,0,4,3,1,43,0004-00-0003-72.png,0003-00-0007-37.png
00000009,458,0,1443210406044,1443210406170,938,244,0,0,0,1,3,2,13,0001-00-0005-87.png,0003-00-0003-04.png
00000009,459,1,1443210409198,1443210409724,954,355,0,0,0,4,2,2,42,0004-00-0003-84.png,0002-00-0003-55.png
00000009,460,0,1443210410557,1443210410617,913,420,0,0,0,2,5,3,25,0002-00-0000-06.png,0005-00-0009-76.png
00000009,461,0,1443210413476,1443210414014,515,269,0,0,0,3,1,2,31,0003-00-0005-10.png,0001-00-0002-81.png
00000009,462,1,1443210416987,1443210417626,473,277,0,0,0,2,5,3,25,0002-00-0008-75.png,0005-00-0005-44.png
00000009,463,1,1443210418974,1443210419317,911,473,0,0,0,4,2,2,42,0004-00-0009-50.png,0002-00-0003-54.png
00000009,464,1,1443210420377,1443210420397,861,420,0,0,0,3,2,1,32,0003-00-0003-48.png,0002-00-0003-18.png
00000009,465,1,1443210421500,1443210421560,887,449,0,0,0,5,4,1,54,0005-00-0003-73.png,0004-00-0001-00.png
00000009,466,0,1443210422763,1443210422813,879,433,0,0,0,1,4,3,14,0001-00-0009-73.png,0004-00-0001-83.png
00000009,467,1,1443210425860,1443210426454,1073,313,0,0,0,5,3,2,53,0005-00-0004-51.png,0003-00-0003-12.png
00000009,468,1,1443210427347,1443210427431,923,410,0,0,0,5,2,3,52,0005-00-0008-15.png,0002-00-0005-46.png
00000009,469,0,1443210428264,1443210428829,883,482,0,0,0,2,3,1,23,0002-00-0007-54.png,0003-00-0006-71.png
00000009,470,0,1443210431956,1443210432502,1085,307,0,0,0,3,4,1,34,0003-00-0008-37.png,0004-00-0004-84.png
00000009,471,1,1443210438650,1443210439208,448,299,0,0,0,1,3,2,13,0001-00-0004-00.png,0003-00-0005-08.png
00000009,472,0,1443210440049,1443210441048,1134,264,0,0,0,2,4,2,24,0002-00-0009-60.png,0004-00-0003-24.png
00000009,473,1,1443210444176,1443210444843,965,336,0,0,0,4,1,3,41,0004-00-0004-41.png,0001-00-0007-20.png
00000009,474,0,1443210445710,1443210445746,923,396,0,0,0,1,5,4,15,0001-00-0003-86.png,0005-00-0001-97.png
00000009,475,1,1443210448576,1443210449173,358,377,0,0,0,4,5,1,45,0004-00-0002-12.png,0005-00-0009-40.png
00000009,476,1,1443210450497,1443210450615,891,382,0,0,0,5,1,4,51,0005-00-0009-27.png,0001-00-0003-05.png
00000009,477,0,1443210451677,1443210452737,912,354,0,0,0,1,2,1,12,0001-00-0005-59.png,0002-00-0002-49.png
00000009,478,1,1443210455734,1443210456244,914,358,0,0,0,2,1,1,21,0002-00-0000-89.png,0001-00-0007-30.png
00000009,479,1,1443210457505,1443210458286,938,326,0,0,0,4,3,1,43,0004-00-0002-56.png,0003-00-0007-97.png
00000009,480,0,1443210459337,1443210459575,938,493,0,0,0,3,5,2,35,0003-00-0007-34.png,0005-00-0009-93.png
00000009,481,0,1443210462804,1443210463054,922,269,0,0,0,1,5,4,15,0001-00-0005-19.png,0005-00-0001-18.png
00000009,482,1,1443210466007,1443210466663,484,280,0,0,0,2,3,1,23,0002-00-0006-21.png,0003-00-0003-25.png
00000009,483,1,1443210468017,1443210468695,942,339,0,0,0,5,2,3,52,0005-00-0008-16.png,0002-00-0007-19.png
00000009,484,0,1443210469538,1443210469561,889,383,0,0,0,1,3,2,13,0001-00-0000-49.png,0003-00-0006-71.png
00000009,485,0,1443210472560,1443210473104,1073,287,0,0,0,3,5,2,35,0003-00-0007-89.png,0005-00-0006-39.png
00000009,486,1,1443210476127,1443210476660,1102,280,0,0,0,2,1,1,21,0002-00-0004-79.png,0001-00-0005-88.png
00000009,487,1,1443210477794,1443210478454,943,299,0,0,0,5,4,1,54,0005-00-0001-10.png,0004-00-0007-63.png
00000009,488,1,1443210479368,1443210479424,961,443,0,0,0,3,2,1,32,0003-00-0000-59.png,0002-00-0007-10.png
00000009,489,1,1443210480409,1443210480449,886,413,0,0,0,5,1,4,51,0005-00-0008-60.png,0001-00-0003-39.png
00000009,490,1,1443210481510,1443210481532,862,384,0,0,0,3,1,2,31,0003-00-0002-96.png,0001-00-0007-22.png
00000009,491,0,1443210482725,1443210482800,913,445,0,0,0,4,5,1,45,0004-00-0001-77.png,0005-00-0005-85.png
00000009,492,1,1443210485935,1443210486421,1094,301,0,0,0,4,3,1,43,0004-00-0009-04.png,0003-00-0004-80.png
00000009,493,0,1443210487744,1443210487776,867,393,0,0,0,2,5,3,25,0002-00-0007-49.png,0005-00-0000-03.png
00000009,494,1,1443210490787,1443210491420,436,455,0,0,0,1,2,1,12,0001-00-0005-11.png,0002-00-0006-18.png
00000009,495,0,1443210492713,1443210492749,872,372,0,0,0,1,4,3,14,0001-00-0003-40.png,0004-00-0004-82.png
00000009,496,0,1443210496071,1443210496575,922,355,0,0,0,2,4,2,24,0002-00-0002-85.png,0004-00-0003-36.png
00000009,497,1,1443210499689,1443210500203,961,351,0,0,0,4,2,2,42,0004-00-0006-22.png,0002-00-0005-57.png
00000009,498,1,1443210501499,1443210501523,862,369,0,0,0,5,3,2,53,0005-00-0008-96.png,0003-00-0000-88.png
00000009,499,1,1443210502540,1443210502560,860,389,0,0,0,4,1,3,41,0004-00-0001-48.png,0001-00-0005-39.png
00000009,500,0,1443210503483,1443210504425,1169,358,0,0,0,3,4,1,34,0003-00-0002-32.png,0004-00-0002-78.png
00000009,501,1,1443210507318,1443210507869,467,279,0,0,0,3,4,1,34,0003-00-0006-31.png,0004-00-0007-66.png
00000009,502,0,1443210508690,1443210508730,862,423,0,0,0,2,4,2,24,0002-00-0000-64.png,0004-00-0006-53.png
00000009,503,1,1443210511772,1443210512348,913,338,0,0,0,5,3,2,53,0005-00-0002-98.png,0003-00-0008-15.png
00000009,504,1,1443210513589,1443210513613,865,384,0,0,0,5,2,3,52,0005-00-0007-11.png,0002-00-0006-80.png
00000009,505,0,1443210514752,1443210514796,882,420,0,0,0,1,4,3,14,0001-00-0004-69.png,0004-00-0003-72.png
00000009,506,1,1443210517698,1443210518208,1047,288,0,0,0,5,1,4,51,0005-00-0004-15.png,0001-00-0003-25.png
00000009,507,1,1443210519415,1443210519455,871,384,0,0,0,4,1,3,41,0004-00-0005-19.png,0001-00-0002-67.png
00000009,508,1,1443210520530,1443210520594,862,425,0,0,0,4,2,2,42,0004-00-0007-15.png,0002-00-0001-60.png
00000009,509,0,1443210521751,1443210522150,927,528,0,0,0,4,5,1,45,0004-00-0006-10.png,0005-00-0002-17.png
00000009,510,1,1443210525197,1443210525777,351,379,0,0,0,1,2,1,12,0001-00-0000-38.png,0002-00-0003-24.png
00000009,511,1,1443210527051,1443210527768,383,382,0,0,0,2,5,3,25,0002-00-0007-91.png,0005-00-0007-87.png
00000009,512,1,1443210529213,1443210529932,921,339,0,0,0,4,3,1,43,0004-00-0000-68.png,0003-00-0003-04.png
00000009,513,0,1443210530944,1443210530972,925,409,0,0,0,2,3,1,23,0002-00-0000-23.png,0003-00-0005-29.png
00000009,514,1,1443210533856,1443210534441,514,247,0,0,0,1,3,2,13,0001-00-0006-73.png,0003-00-0005-18.png
00000009,515,1,1443210535298,1443210535326,862,412,0,0,0,3,2,1,32,0003-00-0005-37.png,0002-00-0009-39.png
00000009,516,1,1443210536348,1443210537148,468,322,0,0,0,1,5,4,15,0001-00-0009-32.png,0005-00-0001-90.png
00000009,517,0,1443210538332,1443210539143,1035,270,0,0,0,3,5,2,35,0003-00-0003-02.png,0005-00-0009-00.png
00000009,518,1,1443210542282,1443210542815,1073,286,0,0,0,5,4,1,54,0005-00-0001-24.png,0004-00-0007-77.png
00000009,519,1,1443210543660,1443210543720,863,446,0,0,0,2,1,1,21,0002-00-0001-81.png,0001-00-0005-89.png
00000009,520,1,1443210545204,1443210545256,882,434,0,0,0,3,1,2,31,0003-00-0003-08.png,0001-00-0006-76.png
00000009,521,0,1443210546444,1443210546484,881,446,0,0,0,2,4,2,24,0002-00-0008-31.png,0004-00-0006-92.png
00000009,522,1,1443210549578,1443210550076,959,365,0,0,0,3,2,1,32,0003-00-0002-46.png,0002-00-0000-12.png
00000009,523,0,1443210551383,1443210551427,862,384,0,0,0,1,2,1,12,0001-00-0004-54.png,0002-00-0000-12.png
00000009,524,1,1443210554379,1443210554445,857,382,0,0,0,3,1,2,31,0003-00-0007-46.png,0001-00-0004-80.png
00000009,525,0,1443210555372,1443210555426,888,410,0,0,0,3,4,1,34,0003-00-0005-83.png,0004-00-0002-84.png
00000009,526,1,1443210558499,1443210559136,478,281,0,0,0,4,5,1,45,0004-00-0002-21.png,0005-00-0006-66.png
00000009,527,1,1443210559966,1443210560756,917,360,0,0,0,5,4,1,54,0005-00-0005-06.png,0004-00-0004-25.png
00000009,528,1,1443210561659,1443210561683,872,355,0,0,0,5,3,2,53,0005-00-0008-52.png,0003-00-0004-27.png
00000009,529,1,1443210562701,1443210562741,861,418,0,0,0,5,2,3,52,0005-00-0003-72.png,0002-00-0009-68.png
00000009,530,1,1443210563863,1443210563905,857,420,0,0,0,2,1,1,21,0002-00-0008-94.png,0001-00-0007-83.png
00000009,531,1,1443210565103,1443210565158,859,402,0,0,0,5,1,4,51,0005-00-0008-01.png,0001-00-0005-49.png
00000009,532,0,1443210566406,1443210566807,872,481,0,0,0,1,5,4,15,0001-00-0000-39.png,0005-00-0008-88.png
00000009,533,1,1443210569741,1443210570294,483,288,0,0,0,1,4,3,14,0001-00-0001-97.png,0004-00-0009-82.png
00000009,534,0,1443210571128,1443210571833,940,356,0,0,0,1,3,2,13,0001-00-0007-47.png,0003-00-0000-72.png
00000009,535,1,1443210574927,1443210575525,1140,269,0,0,0,4,2,2,42,0004-00-0003-54.png,0002-00-0001-71.png
00000009,536,1,1443210576346,1443210577166,1079,303,0,0,0,4,1,3,41,0004-00-0002-41.png,0001-00-0009-95.png
00000009,537,0,1443210578018,1443210578087,939,423,0,0,0,3,5,2,35,0003-00-0006-75.png,0005-00-0008-41.png
00000009,538,1,1443210581226,1443210581838,964,317,0,0,0,4,3,1,43,0004-00-0005-17.png,0003-00-0008-09.png
00000009,539,0,1443210583123,1443210583167,872,385,0,0,0,2,5,3,25,0002-00-0008-49.png,0005-00-0000-16.png
00000009,540,1,1443210586265,1443210586851,399,360,0,0,0,2,3,1,23,0002-00-0008-52.png,0003-00-0003-99.png
00000009,541,0,1443210587695,1443210588432,1101,273,0,0,0,3,4,1,34,0003-00-0008-35.png,0004-00-0006-01.png
00000009,542,1,1443210591546,1443210592045,1063,276,0,0,0,4,1,3,41,0004-00-0008-92.png,0001-00-0002-09.png
00000009,543,0,1443210593282,1443210593342,888,397,0,0,0,2,4,2,24,0002-00-0004-51.png,0004-00-0000-21.png
00000009,544,1,1443210596857,1443210597720,431,282,0,0,0,2,5,3,25,0002-00-0006-02.png,0005-00-0001-46.png
00000009,545,1,1443210599053,1443210599770,1095,277,0,0,0,4,2,2,42,0004-00-0007-31.png,0002-00-0006-02.png
00000009,546,1,1443210600629,1443210600948,952,528,0,0,0,5,1,4,51,0005-00-0003-70.png,0001-00-0008-36.png
00000009,547,1,1443210602212,1443210602304,913,488,0,0,0,5,3,2,53,0005-00-0005-60.png,0003-00-0006-78.png
00000009,548,0,1443210603394,1443210603434,902,454,0,0,0,4,5,1,45,0004-00-0003-65.png,0005-00-0004-55.png
00000009,549,1,1443210606713,1443210607271,1067,314,0,0,0,5,4,1,54,0005-00-0006-45.png,0004-00-0009-94.png
00000009,550,0,1443210608592,1443210609684,894,352,0,0,0,1,3,2,13,0001-00-0001-48.png,0003-00-0003-39.png
00000009,551,1,1443210612865,1443210613441,365,393,0,0,0,1,4,3,14,0001-00-0009-49.png,0004-00-0009-52.png
00000009,552,1,1443210614703,1443210614763,886,357,0,0,0,2,1,1,21,0002-00-0006-41.png,0001-00-0009-91.png
00000009,553,0,1443210615748,1443210616497,1067,253,0,0,0,1,2,1,12,0001-00-0004-77.png,0002-00-0004-54.png
00000009,554,1,1443210619399,1443210619972,500,265,0,0,0,3,5,2,35,0003-00-0009-13.png,0005-00-0005-00.png
00000009,555,0,1443210621255,1443210622043,1092,313,0,0,0,2,3,1,23,0002-00-0008-20.png,0003-00-0006-79.png
00000009,556,0,1443210625171,1443210625203,902,356,0,0,0,1,5,4,15,0001-00-0008-22.png,0005-00-0009-28.png
00000009,557,0,1443210628160,1443210628932,483,263,0,0,0,3,2,1,32,0003-00-0005-95.png,0002-00-0009-38.png
00000009,558,1,1443210632095,1443210632592,961,327,0,0,0,4,3,1,43,0004-00-0004-19.png,0003-00-0002-50.png
00000009,559,1,1443210633437,1443210633477,913,423,0,0,0,5,2,3,52,0005-00-0000-11.png,0002-00-0003-98.png
00000009,560,1,1443210634720,1443210634784,906,399,0,0,0,3,1,2,31,0003-00-0000-41.png,0001-00-0001-54.png
00000009,561,1,1443210635818,1443210635861,873,399,0,0,0,4,1,3,41,0004-00-0000-24.png,0001-00-0002-57.png
00000009,562,0,1443210636953,1443210637005,880,395,0,0,0,2,5,3,25,0002-00-0004-83.png,0005-00-0001-36.png
00000009,563,1,1443210640482,1443210641128,460,254,0,0,0,2,4,2,24,0002-00-0006-73.png,0004-00-0007-60.png
00000009,564,0,1443210642471,1443210642511,861,360,0,0,0,1,3,2,13,0001-00-0008-87.png,0003-00-0009-25.png
00000009,565,1,1443210645493,1443210646074,1086,296,0,0,0,4,2,2,42,0004-00-0003-16.png,0002-00-0005-60.png
00000009,566,1,1443210647247,1443210647984,1052,253,0,0,0,5,2,3,52,0005-00-0003-11.png,0002-00-0008-20.png
00000009,567,0,1443210648819,1443210648854,911,396,0,0,0,3,5,2,35,0003-00-0003-46.png,0005-00-0008-68.png
00000009,568,0,1443210651726,1443210652368,476,261,0,0,0,5,4,1,54,0005-00-0007-05.png,0004-00-0003-09.png
00000009,569,0,1443210655490,1443210655982,939,322,0,0,0,1,2,1,12,0001-00-0006-76.png,0002-00-0004-83.png
00000009,570,1,1443210658918,1443210659691,486,276,0,0,0,3,4,1,34,0003-00-0001-10.png,0004-00-0005-00.png
00000009,571,0,1443210661017,1443210661045,893,375,0,0,0,2,3,1,23,0002-00-0003-34.png,0003-00-0009-16.png
00000009,572,1,1443210664215,1443210664970,468,250,0,0,0,4,5,1,45,0004-00-0001-48.png,0005-00-0001-33.png
00000009,573,1,1443210666332,1443210666412,913,358,0,0,0,5,1,4,51,0005-00-0004-77.png,0001-00-0003-98.png
00000009,574,0,1443210667412,1443210667452,885,396,0,0,0,1,5,4,15,0001-00-0009-37.png,0005-00-0007-03.png
00000009,575,1,1443210670576,1443210670608,937,328,0,0,0,5,3,2,53,0005-00-0005-43.png,0003-00-0002-89.png
00000009,576,1,1443210671589,1443210671625,862,448,0,0,0,4,3,1,43,0004-00-0005-44.png,0003-00-0002-33.png
00000009,577,1,1443210672889,1443210672937,867,415,0,0,0,2,1,1,21,0002-00-0005-56.png,0001-00-0006-27.png
00000009,578,0,1443210674090,1443210674199,905,462,0,0,0,1,4,3,14,0001-00-0004-39.png,0004-00-0003-82.png
00000009,579,1,1443210677331,1443210677910,1097,299,0,0,0,3,2,1,32,0003-00-0008-36.png,0002-00-0007-70.png
00000009,580,1,1443210678741,1443210678817,920,426,0,0,0,3,1,2,31,0003-00-0008-84.png,0001-00-0000-24.png
00000009,581,0,1443210679953,1443210680502,897,499,0,0,0,2,4,2,24,0002-00-0000-59.png,0004-00-0001-33.png
00000009,582,1,1443210683464,1443210684056,939,400,0,0,0,3,1,2,31,0003-00-0001-37.png,0001-00-0003-00.png
00000009,583,1,1443210684883,1443210684927,862,410,0,0,0,2,1,1,21,0002-00-0000-02.png,0001-00-0001-69.png
00000009,584,1,1443210686135,1443210686870,376,397,0,0,0,1,2,1,12,0001-00-0005-55.png,0002-00-0009-47.png
00000009,585,1,1443210687785,1443210687817,899,387,0,0,0,5,4,1,54,0005-00-0004-56.png,0004-00-0002-20.png
00000009,586,1,1443210688946,1443210688990,907,454,0,0,0,4,2,2,42,0004-00-0007-20.png,0002-00-0002-84.png
00000009,587,0,1443210690159,1443210690192,902,425,0,0,0,2,5,3,25,0002-00-0004-75.png,0005-00-0007-97.png
00000009,588,0,1443210693359,1443210693943,383,375,0,0,0,4,3,1,43,0004-00-0001-05.png,0003-00-0005-33.png
00000009,589,1,1443210696998,1443210697018,904,424,0,0,0,5,3,2,53,0005-00-0000-27.png,0003-00-0006-40.png
00000009,590,1,1443210697960,1443210698856,479,275,0,0,0,3,4,1,34,0003-00-0005-75.png,0004-00-0007-02.png
00000009,591,0,1443210699781,1443210700647,917,396,0,0,0,1,3,2,13,0001-00-0008-21.png,0003-00-0006-74.png
00000009,592,0,1443210703607,1443210704263,907,333,0,0,0,4,5,1,45,0004-00-0002-18.png,0005-00-0004-50.png
00000009,593,0,1443210707402,1443210707944,968,341,0,0,0,2,3,1,23,0002-00-0007-09.png,0003-00-0009-55.png
00000009,594,1,1443210710801,1443210711348,398,378,0,0,0,1,5,4,15,0001-00-0004-78.png,0005-00-0008-17.png
00000009,595,0,1443210712170,1443210712913,1060,285,0,0,0,3,5,2,35,0003-00-0008-61.png,0005-00-0006-88.png
00000009,596,1,1443210715908,1443210715948,867,425,0,0,0,4,1,3,41,0004-00-0005-03.png,0001-00-0002-79.png
00000009,597,1,1443210716894,1443210717887,1067,288,0,0,0,5,1,4,51,0005-00-0001-86.png,0001-00-0006-83.png
00000009,598,1,1443210718833,1443210718897,922,436,0,0,0,5,2,3,52,0005-00-0008-25.png,0002-00-0000-13.png
00000009,599,1,1443210719943,1443210720296,927,528,0,0,0,3,2,1,32,0003-00-0007-97.png,0002-00-0006-52.png
00000009,600,0,1443210721327,1443210721419,903,494,0,0,0,1,4,3,14,0001-00-0007-95.png,0004-00-0008-23.png
00000009,601,1,1443210724494,1443210725085,478,290,0,0,0,1,2,1,12,0001-00-0008-54.png,0002-00-0004-25.png
00000009,602,1,1443210726436,1443210726466,871,410,0,0,0,4,2,2,42,0004-00-0001-77.png,0002-00-0006-52.png
00000009,603,1,1443210727517,1443210727581,888,445,0,0,0,3,2,1,32,0003-00-0005-38.png,0002-00-0004-02.png
00000009,604,0,1443210728629,1443210728669,890,473,0,0,0,4,5,1,45,0004-00-0005-66.png,0005-00-0001-03.png
00000009,605,0,1443210731581,1443210732121,491,279,0,0,0,5,4,1,54,0005-00-0006-70.png,0004-00-0000-99.png
00000009,606,0,1443210735132,1443210735302,862,368,0,0,0,2,4,2,24,0002-00-0003-71.png,0004-00-0005-82.png
00000009,607,1,1443210738387,1443210738899,1106,306,0,0,0,5,2,3,52,0005-00-0004-30.png,0002-00-0002-58.png
00000009,608,0,1443210739747,1443210740959,473,243,0,0,0,2,1,1,21,0002-00-0005-34.png,0001-00-0008-20.png
00000009,609,0,1443210744112,1443210744622,968,328,0,0,0,3,4,1,34,0003-00-0008-29.png,0004-00-0003-90.png
00000009,610,1,1443210747682,1443210748187,1092,306,0,0,0,4,1,3,41,0004-00-0000-22.png,0001-00-0009-11.png
00000009,611,1,1443210749491,1443210749527,871,372,0,0,0,5,1,4,51,0005-00-0007-99.png,0001-00-0006-96.png
00000009,612,1,1443210750625,1443210750733,862,448,0,0,0,4,3,1,43,0004-00-0001-81.png,0003-00-0005-66.png
00000009,613,0,1443210751845,1443210751861,867,416,0,0,0,3,5,2,35,0003-00-0001-14.png,0005-00-0003-79.png
00000009,614,1,1443210754917,1443210755469,938,332,0,0,0,5,3,2,53,0005-00-0005-88.png,0003-00-0001-40.png
00000009,615,0,1443210756296,1443210757158,929,358,0,0,0,2,5,3,25,0002-00-0001-21.png,0005-00-0002-38.png
00000009,616,0,1443210760304,1443210760332,945,326,0,0,0,1,3,2,13,0001-00-0002-99.png,0003-00-0009-71.png
00000009,617,1,1443210763810,1443210764356,470,283,0,0,0,2,3,1,23,0002-00-0008-33.png,0003-00-0004-59.png
00000009,618,0,1443210765210,1443210765254,862,410,0,0,0,1,5,4,15,0001-00-0002-38.png,0005-00-0002-58.png
00000009,619,1,1443210768333,1443210768927,456,271,0,0,0,1,4,3,14,0001-00-0009-23.png,0004-00-0000-84.png
00000009,620,1,1443210770210,1443210770759,928,491,0,0,0,3,1,2,31,0003-00-0002-53.png,0001-00-0008-77.png
00000009,621,1,1443210771732,1443210771752,889,425,0,0,0,5,2,3,52,0005-00-0007-26.png,0002-00-0003-76.png
00000009,622,0,1443210772741,1443210773458,888,436,0,0,0,1,2,1,12,0001-00-0008-49.png,0002-00-0007-32.png
00000009,623,0,1443210776549,1443210776673,987,287,0,0,0,2,5,3,25,0002-00-0000-79.png,0005-00-0003-53.png
00000009,624,1,1443210779838,1443210780349,1092,279,0,0,0,4,2,2,42,0004-00-0006-26.png,0002-00-0009-12.png
00000009,625,0,1443210781213,1443210781249,924,430,0,0,0,3,4,1,34,0003-00-0001-08.png,0004-00-0003-83.png
00000009,626,0,1443210784442,1443210784946,1096,275,0,0,0,1,5,4,15,0001-00-0002-34.png,0005-00-0002-81.png
00000009,627,1,1443210788019,1443210788551,990,342,0,0,0,4,3,1,43,0004-00-0009-31.png,0003-00-0004-43.png
00000009,628,1,1443210789417,1443210789457,913,400,0,0,0,5,1,4,51,0005-00-0008-83.png,0001-00-0006-42.png
00000009,629,1,1443210790583,1443210791119,927,529,0,0,0,5,4,1,54,0005-00-0004-12.png,0004-00-0001-36.png
00000009,630,1,1443210792132,1443210792152,896,392,0,0,0,3,2,1,32,0003-00-0000-73.png,0002-00-0002-49.png
00000009,631,1,1443210793243,1443210793275,862,391,0,0,0,4,1,3,41,0004-00-0002-30.png,0001-00-0004-44.png
00000009,632,0,1443210794395,1443210794419,865,397,0,0,0,2,3,1,23,0002-00-0008-04.png,0003-00-0009-28.png
00000009,633,0,1443210797525,1443210798105,1054,325,0,0,0,2,4,2,24,0002-00-0006-47.png,0004-00-0008-00.png
00000009,634,1,1443210801156,1443210801640,990,348,0,0,0,3,1,2,31,0003-00-0004-05.png,0001-00-0002-75.png
00000009,635,1,1443210802825,1443210802872,888,370,0,0,0,2,1,1,21,0002-00-0004-61.png,0001-00-0002-21.png
00000009,636,0,1443210803907,1443210803971,869,454,0,0,0,4,5,1,45,0004-00-0004-60.png,0005-00-0008-37.png
00000009,637,0,1443210807385,1443210807992,1108,306,0,0,0,1,3,2,13,0001-00-0006-23.png,0003-00-0008-37.png
00000009,638,1,1443210811152,1443210811688,1098,277,0,0,0,5,3,2,53,0005-00-0005-20.png,0003-00-0009-30.png
00000009,639,0,1443210812521,1443210812609,872,430,0,0,0,3,5,2,35,0003-00-0007-38.png,0005-00-0001-15.png
00000009,640,0,1443210815745,1443210815765,938,345,0,0,0,1,4,3,14,0001-00-0009-90.png,0004-00-0007-33.png
00000009,641,1,1443210818633,1443210819210,438,293,0,0,0,1,2,1,12,0001-00-0006-44.png,0002-00-0008-52.png
00000009,642,1,1443210820523,1443210820571,878,384,0,0,0,2,1,1,21,0002-00-0001-24.png,0001-00-0005-86.png
00000009,643,1,1443210821669,1443210822257,915,508,0,0,0,5,1,4,51,0005-00-0005-03.png,0001-00-0001-77.png
00000009,644,0,1443210823297,1443210823313,920,373,0,0,0,1,3,2,13,0001-00-0003-54.png,0003-00-0006-27.png
00000009,645,0,1443210826465,1443210827132,491,269,0,0,0,4,3,1,43,0004-00-0003-17.png,0003-00-0006-44.png
00000009,646,1,1443210830034,1443210830607,1096,289,0,0,0,4,2,2,42,0004-00-0000-61.png,0002-00-0006-71.png
00000009,647,0,1443210831753,1443210831793,885,388,0,0,0,2,4,2,24,0002-00-0008-03.png,0004-00-0008-56.png
00000009,648,1,1443210834713,1443210835235,374,366,0,0,0,2,3,1,23,0002-00-0009-63.png,0003-00-0007-34.png
00000009,649,0,1443210836064,1443210836116,869,403,0,0,0,1,4,3,14,0001-00-0001-15.png,0004-00-0006-78.png
00000009,650,0,1443210838964,1443210839533,1074,287,0,0,0,3,4,1,34,0003-00-0006-52.png,0004-00-0003-14.png
00000009,651,1,1443210842414,1443210842929,1067,292,0,0,0,3,1,2,31,0003-00-0003-99.png,0001-00-0004-62.png
00000009,652,0,1443210843807,1443210843847,916,409,0,0,0,1,5,4,15,0001-00-0007-59.png,0005-00-0003-47.png
00000009,653,1,1443210846708,1443210846748,906,383,0,0,0,5,4,1,54,0005-00-0006-67.png,0004-00-0001-55.png
00000009,654,1,1443210847762,1443210848811,389,342,0,0,0,3,5,2,35,0003-00-0000-41.png,0005-00-0001-65.png
00000009,655,0,1443210849790,1443210849811,862,387,0,0,0,2,5,3,25,0002-00-0004-61.png,0005-00-0008-19.png
00000009,656,1,1443210852750,1443210853270,945,320,0,0,0,3,2,1,32,0003-00-0009-56.png,0002-00-0000-93.png
00000009,657,0,1443210854628,1443210854668,870,377,0,0,0,4,5,1,45,0004-00-0001-42.png,0005-00-0006-11.png
00000009,658,1,1443210857549,1443210858217,939,396,0,0,0,5,3,2,53,0005-00-0007-01.png,0003-00-0003-44.png
00000009,659,1,1443210859576,1443210859632,879,390,0,0,0,5,2,3,52,0005-00-0001-75.png,0002-00-0008-17.png
00000009,660,1,1443210860830,1443210860858,878,437,0,0,0,4,1,3,41,0004-00-0000-50.png,0001-00-0007-89.png
00000009,661,1,1443210862021,1443210862065,860,436,0,0,0,4,3,1,43,0004-00-0009-43.png,0003-00-0001-45.png
00000009,662,1,1443210863292,1443210863495,913,514,0,0,0,5,1,4,51,0005-00-0006-71.png,0001-00-0007-94.png
00000009,663,0,1443210864614,1443210864638,867,413,0,0,0,3,4,1,34,0003-00-0009-36.png,0004-00-0009-52.png
00000009,664,1,1443210867716,1443210868327,485,261,0,0,0,1,2,1,12,0001-00-0007-73.png,0002-00-0003-15.png
00000009,665,1,1443210869464,1443210869492,872,410,0,0,0,5,2,3,52,0005-00-0001-93.png,0002-00-0008-99.png
00000009,666,0,1443210870585,1443210870724,899,526,0,0,0,2,3,1,23,0002-00-0007-82.png,0003-00-0006-08.png
00000009,667,1,1443210873648,1443210874140,950,332,0,0,0,4,1,3,41,0004-00-0003-98.png,0001-00-0008-26.png
00000009,668,0,1443210875299,1443210875319,888,384,0,0,0,4,5,1,45,0004-00-0007-93.png,0005-00-0008-61.png
00000009,669,1,1443210878447,1443210879054,450,298,0,0,0,1,5,4,15,0001-00-0000-52.png,0005-00-0006-56.png
00000009,670,1,1443210880217,1443210880265,896,376,0,0,0,5,3,2,53,0005-00-0009-28.png,0003-00-0004-38.png
00000009,671,0,1443210881190,1443210881282,913,488,0,0,0,2,4,2,24,0002-00-0009-32.png,0004-00-0000-39.png
00000009,672,1,1443210884450,1443210885019,934,346,0,0,0,5,4,1,54,0005-00-0008-42.png,0004-00-0003-85.png
00000009,673,1,1443210885930,1443210885975,865,382,0,0,0,4,2,2,42,0004-00-0006-17.png,0002-00-0007-80.png
00000009,674,0,1443210886973,1443210887048,888,488,0,0,0,3,5,2,35,0003-00-0008-09.png,0005-00-0005-12.png
00000009,675,1,1443210889974,1443210890594,1096,335,0,0,0,2,1,1,21,0002-00-0002-30.png,0001-00-0001-93.png
00000009,676,1,1443210892023,1443210892027,869,399,0,0,0,3,1,2,31,0003-00-0009-49.png,0001-00-0004-99.png
00000009,677,1,1443210893115,1443210893552,939,514,0,0,0,3,2,1,32,0003-00-0006-06.png,0002-00-0009-17.png
00000009,678,0,1443210894614,1443210894646,888,407,0,0,0,1,4,3,14,0001-00-0002-74.png,0004-00-0004-45.png
00000009,679,0,1443210897806,1443210898286,945,339,0,0,0,1,3,2,13,0001-00-0005-26.png,0003-00-0006-98.png
00000009,680,1,1443210901463,1443210902145,499,288,0,0,0,2,5,3,25,0002-00-0001-00.png,0005-00-0004-18.png
00000009,681,0,1443210903490,1443210904015,920,479,0,0,0,2,4,2,24,0002-00-0008-30.png,0004-00-0003-64.png
00000009,682,0,1443210907146,1443210907713,395,388,0,0,0,4,3,1,43,0004-00-0000-39.png,0003-00-0005-72.png
00000009,683,0,1443210910762,1443210911419,459,297,0,0,0,5,4,1,54,0005-00-0001-99.png,0004-00-0003-04.png
00000009,684,1,1443210914520,1443210914995,962,335,0,0,0,3,2,1,32,0003-00-0009-12.png,0002-00-0008-17.png
00000009,685,1,1443210915971,1443210916703,1065,308,0,0,0,4,1,3,41,0004-00-0007-41.png,0001-00-0009-30.png
00000009,686,0,1443210917787,1443210917867,988,561,0,0,0,1,4,3,14,0001-00-0008-67.png,0004-00-0003-96.png
00000009,687,0,1443210920948,1443210921661,505,270,0,0,0,5,3,2,53,0005-00-0009-42.png,0003-00-0000-04.png
00000009,688,1,1443210924835,1443210924859,913,371,0,0,0,5,1,4,51,0005-00-0006-58.png,0001-00-0004-24.png
00000009,689,1,1443210925799,1443210926977,452,248,0,0,0,2,5,3,25,0002-00-0009-01.png,0005-00-0009-89.png
00000009,690,0,1443210927886,1443210928044,913,462,0,0,0,3,5,2,35,0003-00-0008-50.png,0005-00-0007-29.png
00000009,691,0,1443210930956,1443210930972,862,394,0,0,0,2,3,1,23,0002-00-0009-91.png,0003-00-0001-93.png
00000009,692,0,1443210935101,1443210935671,503,263,0,0,0,4,2,2,42,0004-00-0004-00.png,0002-00-0009-69.png
00000009,693,0,1443210938796,1443210939323,1093,308,0,0,0,1,2,1,12,0001-00-0006-99.png,0002-00-0001-09.png
00000009,694,1,1443210942373,1443210942998,368,374,0,0,0,3,4,1,34,0003-00-0002-59.png,0004-00-0009-82.png
00000009,695,0,1443210944358,1443210944906,975,526,0,0,0,1,3,2,13,0001-00-0002-95.png,0003-00-0005-95.png
00000009,696,1,1443210948050,1443210948603,967,319,0,0,0,5,2,3,52,0005-00-0000-64.png,0002-00-0000-57.png
00000009,697,0,1443210949428,1443210949492,899,384,0,0,0,4,5,1,45,0004-00-0004-18.png,0005-00-0001-06.png
00000009,698,1,1443210952679,1443210952912,931,337,0,0,0,2,1,1,21,0002-00-0007-76.png,0001-00-0009-52.png
00000009,699,0,1443210953791,1443210954764,1054,310,0,0,0,1,5,4,15,0001-00-0006-29.png,0005-00-0009-94.png
00000009,700,1,1443210957909,1443210957937,914,376,0,0,0,3,1,2,31,0003-00-0006-25.png,0001-00-0008-23.png
00000009,701,0,1443210958980,1443210959008,883,444,0,0,0,2,5,3,25,0002-00-0000-56.png,0005-00-0008-06.png
00000009,702,1,1443210962416,1443210963008,453,280,0,0,0,1,3,2,13,0001-00-0008-51.png,0003-00-0004-10.png
00000009,703,1,1443210964345,1443210964353,871,348,0,0,0,5,1,4,51,0005-00-0004-82.png,0001-00-0006-88.png
00000009,704,0,1443210965627,1443210965671,888,410,0,0,0,3,4,1,34,0003-00-0002-29.png,0004-00-0004-90.png
00000009,705,1,1443210968660,1443210969182,925,345,0,0,0,3,2,1,32,0003-00-0000-10.png,0002-00-0005-82.png
00000009,706,0,1443210970010,1443210970038,905,410,0,0,0,4,5,1,45,0004-00-0001-62.png,0005-00-0001-23.png
00000009,707,1,1443210973190,1443210973717,937,326,0,0,0,2,1,1,21,0002-00-0002-42.png,0001-00-0000-66.png
00000009,708,1,1443210975018,1443210975959,1068,295,0,0,0,5,2,3,52,0005-00-0009-72.png,0002-00-0008-58.png
00000009,709,1,1443210976888,1443210976928,912,439,0,0,0,5,4,1,54,0005-00-0008-67.png,0004-00-0000-65.png
00000009,710,1,1443210978027,1443210978051,863,419,0,0,0,4,1,3,41,0004-00-0003-65.png,0001-00-0007-51.png
00000009,711,0,1443210979181,1443210979205,888,410,0,0,0,1,5,4,15,0001-00-0002-24.png,0005-00-0008-96.png
00000009,712,0,1443210982092,1443210982104,921,433,0,0,0,2,4,2,24,0002-00-0003-05.png,0004-00-0007-75.png
00000009,713,1,1443210985292,1443210985911,501,289,0,0,0,1,4,3,14,0001-00-0003-03.png,0004-00-0005-08.png
00000009,714,0,1443210987252,1443210987304,874,401,0,0,0,1,2,1,12,0001-00-0007-15.png,0002-00-0007-42.png
00000009,715,1,1443210990260,1443210990818,944,340,0,0,0,3,1,2,31,0003-00-0000-86.png,0001-00-0006-79.png
00000009,716,1,1443210992190,1443210992198,862,418,0,0,0,4,2,2,42,0004-00-0009-10.png,0002-00-0000-91.png
00000009,717,0,1443210993281,1443210993313,868,426,0,0,0,2,3,1,23,0002-00-0004-61.png,0003-00-0000-33.png
00000009,718,1,1443210996385,1443210996413,915,346,0,0,0,5,3,2,53,0005-00-0007-39.png,0003-00-0003-75.png
00000009,719,0,1443210997378,1443210997873,975,551,0,0,0,3,5,2,35,0003-00-0008-59.png,0005-00-0007-66.png
00000009,720,1,1443211000887,1443211001516,964,410,0,0,0,4,3,1,43,0004-00-0002-97.png,0003-00-0009-23.png
00000009,721,0,1443211002804,1443211002885,888,374,0,0,0,1,3,2,13,0001-00-0003-25.png,0003-00-0007-03.png
00000009,722,1,1443211006013,1443211006037,925,334,0,0,0,3,2,1,32,0003-00-0004-48.png,0002-00-0000-14.png
00000009,723,1,1443211006988,1443211007802,475,248,0,0,0,4,5,1,45,0004-00-0009-95.png,0005-00-0008-02.png
00000009,724,1,1443211008735,1443211008767,862,422,0,0,0,4,3,1,43,0004-00-0003-81.png,0003-00-0008-64.png
00000009,725,1,1443211009886,1443211009910,862,410,0,0,0,5,4,1,54,0005-00-0009-55.png,0004-00-0003-41.png
00000009,726,1,1443211011018,1443211011050,866,469,0,0,0,3,1,2,31,0003-00-0006-81.png,0001-00-0000-70.png
00000009,727,0,1443211012261,1443211012281,891,414,0,0,0,1,5,4,15,0001-00-0003-01.png,0005-00-0002-47.png
00000009,728,1,1443211015423,1443211015958,964,362,0,0,0,4,2,2,42,0004-00-0004-77.png,0002-00-0006-70.png
00000009,729,0,1443211017150,1443211017170,878,399,0,0,0,3,4,1,34,0003-00-0005-60.png,0004-00-0004-46.png
00000009,730,0,1443211020114,1443211020150,865,435,0,0,0,3,5,2,35,0003-00-0001-49.png,0005-00-0006-22.png
00000009,731,1,1443211023293,1443211023919,497,257,0,0,0,2,3,1,23,0002-00-0004-33.png,0003-00-0004-73.png
00000009,732,0,1443211025302,1443211026202,923,343,0,0,0,1,4,3,14,0001-00-0007-65.png,0004-00-0006-34.png
00000009,733,1,1443211029215,1443211029259,880,371,0,0,0,2,1,1,21,0002-00-0000-37.png,0001-00-0006-85.png
00000009,734,0,1443211030231,1443211030279,872,436,0,0,0,2,4,2,24,0002-00-0003-48.png,0004-00-0004-58.png
00000009,735,1,1443211033381,1443211033421,899,353,0,0,0,5,2,3,52,0005-00-0001-55.png,0002-00-0004-11.png
00000009,736,0,1443211034432,1443211034476,875,410,0,0,0,1,2,1,12,0001-00-0006-12.png,0002-00-0009-21.png
00000009,737,1,1443211037585,1443211038309,502,261,0,0,0,2,5,3,25,0002-00-0005-40.png,0005-00-0004-94.png
00000009,738,1,1443211039612,1443211039672,902,384,0,0,0,4,1,3,41,0004-00-0000-74.png,0001-00-0001-90.png
00000009,739,1,1443211040922,1443211041010,939,488,0,0,0,5,3,2,53,0005-00-0005-31.png,0003-00-0004-87.png
00000009,740,1,1443211042113,1443211042145,864,436,0,0,0,5,1,4,51,0005-00-0002-32.png,0001-00-0005-80.png
00000009,741,0,1443211043398,1443211043458,931,507,0,0,0,1,5,4,15,0001-00-0005-75.png,0005-00-0007-45.png
00000009,742,1,1443211046377,1443211046975,936,352,0,0,0,5,4,1,54,0005-00-0007-63.png,0004-00-0008-36.png
00000009,743,0,1443211047813,1443211047849,859,411,0,0,0,1,4,3,14,0001-00-0006-52.png,0004-00-0000-45.png
00000009,744,0,1443211050952,1443211051483,926,372,0,0,0,2,4,2,24,0002-00-0009-48.png,0004-00-0002-58.png
00000009,745,1,1443211054326,1443211054982,513,244,0,0,0,3,4,1,34,0003-00-0003-86.png,0004-00-0007-91.png
00000009,746,1,1443211056334,1443211056793,902,462,0,0,0,5,1,4,51,0005-00-0009-56.png,0001-00-0005-87.png
00000009,747,0,1443211057737,1443211057757,864,383,0,0,0,2,3,1,23,0002-00-0007-04.png,0003-00-0002-68.png
00000009,748,1,1443211060728,1443211061258,910,341,0,0,0,4,2,2,42,0004-00-0007-61.png,0002-00-0008-94.png
00000009,749,0,1443211062098,1443211062142,919,421,0,0,0,1,2,1,12,0001-00-0005-28.png,0002-00-0007-11.png
00000009,750,1,1443211065268,1443211065448,862,410,0,0,0,4,1,3,41,0004-00-0005-79.png,0001-00-0008-78.png
00000009,751,0,1443211066400,1443211066428,883,445,0,0,0,1,3,2,13,0001-00-0003-20.png,0003-00-0007-45.png
00000009,752,1,1443211069512,1443211070103,954,348,0,0,0,4,3,1,43,0004-00-0000-11.png,0003-00-0009-97.png
00000009,753,1,1443211071461,1443211071491,873,374,0,0,0,2,1,1,21,0002-00-0003-85.png,0001-00-0004-10.png
00000009,754,0,1443211073416,1443211073969,940,349,0,0,0,4,5,1,45,0004-00-0003-99.png,0005-00-0003-06.png
00000009,755,1,1443211077141,1443211077704,957,333,0,0,0,5,2,3,52,0005-00-0009-29.png,0002-00-0003-81.png
00000009,756,1,1443211078553,1443211079364,1052,308,0,0,0,3,1,2,31,0003-00-0002-93.png,0001-00-0001-44.png
00000009,757,1,1443211080253,1443211080293,914,437,0,0,0,3,2,1,32,0003-00-0008-78.png,0002-00-0005-84.png
00000009,758,0,1443211081435,1443211081625,925,500,0,0,0,2,5,3,25,0002-00-0002-72.png,0005-00-0000-15.png
00000009,759,1,1443211084595,1443211085242,486,288,0,0,0,3,5,2,35,0003-00-0001-69.png,0005-00-0003-76.png
00000009,760,1,1443211086494,1443211086506,862,394,0,0,0,5,3,2,53,0005-00-0005-90.png,0003-00-0001-07.png
00000009,761,0,1443211087575,1443211088179,922,558,0,0,0,1,3,2,13,0001-00-0000-85.png,0003-00-0002-80.png
00000009,762,1,1443211091323,1443211091940,507,280,0,0,0,2,5,3,25,0002-00-0005-32.png,0005-00-0006-42.png
00000009,763,1,1443211093293,1443211093341,881,392,0,0,0,3,2,1,32,0003-00-0001-18.png,0002-00-0005-98.png
00000009,764,1,1443211094463,1443211094491,876,433,0,0,0,4,3,1,43,0004-00-0001-53.png,0003-00-0001-27.png
00000009,765,0,1443211095739,1443211095815,876,462,0,0,0,1,5,4,15,0001-00-0005-96.png,0005-00-0008-49.png
00000009,766,1,1443211098934,1443211098978,952,331,0,0,0,5,4,1,54,0005-00-0004-84.png,0004-00-0006-66.png
00000009,767,1,1443211100009,1443211100021,883,416,0,0,0,5,1,4,51,0005-00-0006-17.png,0001-00-0004-66.png
00000009,768,1,1443211101230,1443211101323,881,463,0,0,0,2,1,1,21,0002-00-0009-72.png,0001-00-0003-88.png
00000009,769,1,1443211102501,1443211102533,863,449,0,0,0,5,3,2,53,0005-00-0005-27.png,0003-00-0009-00.png
00000009,770,0,1443211103702,1443211103735,882,437,0,0,0,1,2,1,12,0001-00-0002-81.png,0002-00-0005-96.png
00000009,771,1,1443211106678,1443211106686,506,524,0,0,0,3,5,2,35,0003-00-0009-47.png,0005-00-0004-06.png
00000009,772,1,1443211107704,1443211107835,885,473,0,0,0,4,1,3,41,0004-00-0002-92.png,0001-00-0006-25.png
00000009,773,0,1443211108892,1443211109045,924,552,0,0,0,2,4,2,24,0002-00-0006-04.png,0004-00-0004-81.png
00000009,774,0,1443211112223,1443211112807,1092,314,0,0,0,4,5,1,45,0004-00-0004-09.png,0005-00-0002-43.png
00000009,775,1,1443211115909,1443211116536,1102,306,0,0,0,3,1,2,31,0003-00-0004-31.png,0001-00-0006-32.png
00000009,776,1,1443211117840,1443211117856,880,356,0,0,0,4,2,2,42,0004-00-0007-82.png,0002-00-0003-87.png
00000009,777,0,1443211119000,1443211119486,939,541,0,0,0,3,4,1,34,0003-00-0004-47.png,0004-00-0003-07.png
00000009,778,0,1443211122625,1443211122897,932,295,0,0,0,2,3,1,23,0002-00-0001-75.png,0003-00-0000-97.png
00000009,779,1,1443211126056,1443211126623,393,375,0,0,0,1,4,3,14,0001-00-0006-55.png,0004-00-0001-80.png
00000009,780,1,1443211128002,1443211128022,871,384,0,0,0,5,2,3,52,0005-00-0004-20.png,0002-00-0007-23.png
00000009,781,0,1443211129206,1443211129226,871,413,0,0,0,1,3,2,13,0001-00-0005-35.png,0003-00-0000-45.png
00000009,782,1,1443211132425,1443211132959,1070,283,0,0,0,4,1,3,41,0004-00-0005-70.png,0001-00-0001-47.png
00000009,783,0,1443211134175,1443211134203,869,369,0,0,0,1,2,1,12,0001-00-0000-27.png,0002-00-0009-84.png
00000009,784,1,1443211137362,1443211138083,523,222,0,0,0,3,5,2,35,0003-00-0008-42.png,0005-00-0007-84.png
00000009,785,1,1443211139379,1443211139936,964,528,0,0,0,3,2,1,32,0003-00-0000-53.png,0002-00-0002-59.png
00000009,786,1,1443211140819,1443211140855,912,411,0,0,0,2,1,1,21,0002-00-0004-75.png,0001-00-0004-28.png
00000009,787,0,1443211141913,1443211141977,939,462,0,0,0,1,4,3,14,0001-00-0003-13.png,0004-00-0008-04.png
00000009,788,1,1443211144839,1443211145377,972,400,0,0,0,3,1,2,31,0003-00-0008-88.png,0001-00-0002-63.png
00000009,789,1,1443211146236,1443211146288,961,430,0,0,0,4,2,2,42,0004-00-0002-92.png,0002-00-0007-09.png
00000009,790,1,1443211147461,1443211147610,888,473,0,0,0,5,2,3,52,0005-00-0005-63.png,0002-00-0001-18.png
00000009,791,0,1443211148780,1443211148845,876,436,0,0,0,1,5,4,15,0001-00-0002-63.png,0005-00-0003-22.png
00000009,792,1,1443211151983,1443211152548,509,291,0,0,0,2,4,2,24,0002-00-0000-28.png,0004-00-0006-48.png
00000009,793,0,1443211153421,1443211154234,929,352,0,0,0,3,4,1,34,0003-00-0008-71.png,0004-00-0007-22.png
00000009,794,0,1443211157239,1443211158001,504,245,0,0,0,5,4,1,54,0005-00-0002-03.png,0004-00-0000-94.png
00000009,795,1,1443211160846,1443211161421,1092,296,0,0,0,5,3,2,53,0005-00-0000-03.png,0003-00-0004-81.png
00000009,796,1,1443211162297,1443211162321,865,411,0,0,0,5,1,4,51,0005-00-0000-83.png,0001-00-0007-48.png
00000009,797,1,1443211163300,1443211164623,464,246,0,0,0,4,5,1,45,0004-00-0004-65.png,0005-00-0001-89.png
00000009,798,0,1443211165506,1443211166605,494,260,0,0,0,4,3,1,43,0004-00-0000-54.png,0003-00-0004-78.png
00000009,799,1,1443211169778,1443211170505,495,256,0,0,0,2,3,1,23,0002-00-0009-89.png,0003-00-0006-97.png
00000009,800,0,1443211171337,1443211171623,913,541,0,0,0,2,5,3,25,0002-00-0004-86.png,0005-00-0004-78.png
00000009,801,0,1443211174758,1443211175284,950,330,0,0,0,4,5,1,45,0004-00-0005-23.png,0005-00-0001-69.png
00000009,802,0,1443211178427,1443211179023,477,272,0,0,0,4,3,1,43,0004-00-0007-37.png,0003-00-0001-70.png
00000009,803,1,1443211182193,1443211182710,970,340,0,0,0,4,2,2,42,0004-00-0003-20.png,0002-00-0004-48.png
00000009,804,1,1443211184121,1443211184177,868,410,0,0,0,5,3,2,53,0005-00-0008-48.png,0003-00-0004-14.png
00000009,805,0,1443211185371,1443211185403,898,440,0,0,0,2,3,1,23,0002-00-0000-83.png,0003-00-0007-28.png
00000009,806,0,1443211188284,1443211188969,512,243,0,0,0,3,2,1,32,0003-00-0004-21.png,0002-00-0003-28.png
00000009,807,1,1443211191838,1443211192463,937,302,0,0,0,4,1,3,41,0004-00-0008-78.png,0001-00-0009-22.png
00000009,808,0,1443211193320,1443211193364,913,419,0,0,0,3,4,1,34,0003-00-0006-90.png,0004-00-0003-59.png
00000009,809,1,1443211196444,1443211197196,503,246,0,0,0,2,4,2,24,0002-00-0006-86.png,0004-00-0008-85.png
00000009,810,0,1443211198468,1443211199417,487,234,0,0,0,2,1,1,21,0002-00-0003-67.png,0001-00-0008-64.png
00000009,811,1,1443211202602,1443211203304,483,291,0,0,0,1,3,2,13,0001-00-0000-57.png,0003-00-0004-11.png
00000009,812,0,1443211204141,1443211204225,913,436,0,0,0,1,5,4,15,0001-00-0001-87.png,0005-00-0003-07.png
00000009,813,0,1443211207405,1443211207433,945,328,0,0,0,1,4,3,14,0001-00-0000-03.png,0004-00-0008-73.png
00000009,814,1,1443211210612,1443211211208,964,424,0,0,0,5,2,3,52,0005-00-0001-68.png,0002-00-0006-07.png
00000009,815,1,1443211212061,1443211212117,913,410,0,0,0,5,1,4,51,0005-00-0002-82.png,0001-00-0005-05.png
00000009,816,0,1443211213184,1443211213224,880,410,0,0,0,3,5,2,35,0003-00-0003-28.png,0005-00-0000-37.png
00000009,817,0,1443211216155,1443211216195,937,371,0,0,0,1,2,1,12,0001-00-0004-08.png,0002-00-0004-18.png
00000009,818,0,1443211219078,1443211219122,937,398,0,0,0,2,5,3,25,0002-00-0006-95.png,0005-00-0008-42.png
00000009,819,1,1443211222228,1443211223129,1035,269,0,0,0,3,1,2,31,0003-00-0005-07.png,0001-00-0001-96.png
00000009,820,1,1443211223995,1443211224019,888,396,0,0,0,5,4,1,54,0005-00-0008-53.png,0004-00-0009-12.png
00000009,821,1,1443211225149,1443211225943,462,281,0,0,0,2,4,2,24,0002-00-0009-97.png,0004-00-0006-98.png
00000009,822,1,1443211226869,1443211226983,902,436,0,0,0,4,1,3,41,0004-00-0000-93.png,0001-00-0004-66.png
00000009,823,1,1443211228120,1443211228144,911,450,0,0,0,5,4,1,54,0005-00-0006-74.png,0004-00-0001-14.png
00000009,824,0,1443211229223,1443211229279,919,454,0,0,0,1,5,4,15,0001-00-0001-25.png,0005-00-0004-27.png
00000009,825,1,1443211232173,1443211232720,1096,292,0,0,0,4,2,2,42,0004-00-0005-59.png,0002-00-0000-18.png
00000009,826,0,1443211233545,1443211233573,895,398,0,0,0,1,3,2,13,0001-00-0008-11.png,0003-00-0007-23.png
00000009,827,1,1443211236735,1443211237236,1101,283,0,0,0,3,1,2,31,0003-00-0008-23.png,0001-00-0008-13.png
00000009,828,0,1443211238514,1443211238554,876,390,0,0,0,2,3,1,23,0002-00-0008-39.png,0003-00-0000-06.png
00000009,829,0,1443211241425,1443211241670,893,364,0,0,0,1,2,1,12,0001-00-0004-53.png,0002-00-0004-09.png
00000009,830,1,1443211244775,1443211245472,504,271,0,0,0,4,5,1,45,0004-00-0004-79.png,0005-00-0001-78.png
00000009,831,1,1443211246307,1443211246327,901,397,0,0,0,3,2,1,32,0003-00-0009-48.png,0002-00-0000-42.png
00000009,832,1,1443211247489,1443211247517,891,421,0,0,0,4,3,1,43,0004-00-0002-01.png,0003-00-0006-28.png
00000009,833,1,1443211248648,1443211248692,888,427,0,0,0,5,3,2,53,0005-00-0000-64.png,0003-00-0006-32.png
00000009,834,1,1443211249882,1443211249910,873,415,0,0,0,5,1,4,51,0005-00-0002-40.png,0001-00-0002-85.png
00000009,835,1,1443211251194,1443211251256,902,453,0,0,0,5,2,3,52,0005-00-0003-37.png,0002-00-0002-16.png
00000009,836,0,1443211252665,1443211252729,939,469,0,0,0,3,5,2,35,0003-00-0008-06.png,0005-00-0002-93.png
00000009,837,1,1443211255974,1443211256524,357,408,0,0,0,1,4,3,14,0001-00-0007-94.png,0004-00-0003-13.png
00000009,838,0,1443211257861,1443211258293,976,526,0,0,0,3,4,1,34,0003-00-0002-14.png,0004-00-0004-26.png
00000009,839,0,1443211263656,1443211264260,516,296,0,0,0,2,1,1,21,0002-00-0004-41.png,0001-00-0007-63.png
00000009,840,0,1443211267462,1443211267470,929,324,0,0,0,2,5,3,25,0002-00-0004-58.png,0005-00-0003-87.png
00000009,841,0,1443211270611,1443211270631,893,351,0,0,0,4,5,1,45,0004-00-0005-90.png,0005-00-0009-04.png
00000009,842,1,1443211273638,1443211274181,1067,300,0,0,0,5,1,4,51,0005-00-0005-38.png,0001-00-0003-39.png
00000009,843,1,1443211275461,1443211276250,478,279,0,0,0,1,3,2,13,0001-00-0000-00.png,0003-00-0006-62.png
00000009,844,0,1443211277211,1443211277251,868,400,0,0,0,2,4,2,24,0002-00-0003-02.png,0004-00-0004-41.png
00000009,845,0,1443211280854,1443211281351,939,370,0,0,0,3,4,1,34,0003-00-0000-00.png,0004-00-0003-72.png
00000009,846,1,1443211284503,1443211284996,512,308,0,0,0,1,4,3,14,0001-00-0006-96.png,0004-00-0004-32.png
00000009,847,0,1443211285841,1443211286323,977,554,0,0,0,1,5,4,15,0001-00-0002-86.png,0005-00-0007-20.png
00000009,848,1,1443211289263,1443211289832,963,331,0,0,0,4,3,1,43,0004-00-0007-19.png,0003-00-0004-17.png
00000009,849,1,1443211290686,1443211290714,888,420,0,0,0,5,2,3,52,0005-00-0003-46.png,0002-00-0006-85.png
00000009,850,0,1443211291769,1443211291817,868,429,0,0,0,1,2,1,12,0001-00-0002-16.png,0002-00-0005-28.png
00000009,851,1,1443211294998,1443211295233,929,326,0,0,0,3,1,2,31,0003-00-0002-59.png,0001-00-0000-52.png
00000009,852,1,1443211296189,1443211296257,913,436,0,0,0,2,1,1,21,0002-00-0009-23.png,0001-00-0009-91.png
00000009,853,1,1443211297352,1443211297396,877,434,0,0,0,5,4,1,54,0005-00-0007-88.png,0004-00-0001-01.png
00000009,854,1,1443211298583,1443211298706,913,514,0,0,0,4,1,3,41,0004-00-0003-94.png,0001-00-0000-13.png
00000009,855,1,1443211299824,1443211299994,925,514,0,0,0,3,2,1,32,0003-00-0008-45.png,0002-00-0004-69.png
00000009,856,1,1443211301137,1443211301161,859,414,0,0,0,5,3,2,53,0005-00-0009-96.png,0003-00-0009-89.png
00000009,857,0,1443211302399,1443211302431,862,419,0,0,0,3,5,2,35,0003-00-0001-68.png,0005-00-0007-43.png
00000009,858,1,1443211305450,1443211305478,936,383,0,0,0,4,2,2,42,0004-00-0006-37.png,0002-00-0000-93.png
00000009,859,0,1443211306485,1443211306509,867,422,0,0,0,2,5,3,25,0002-00-0006-16.png,0005-00-0005-15.png
00000009,860,1,1443211309872,1443211310500,363,381,0,0,0,2,3,1,23,0002-00-0003-62.png,0003-00-0007-14.png
00000009,861,0,1443211311752,1443211312495,1099,330,0,0,0,1,2,1,12,0001-00-0005-56.png,0002-00-0008-86.png
00000009,862,1,1443211315485,1443211316048,463,287,0,0,0,1,4,3,14,0001-00-0008-02.png,0004-00-0004-00.png
00000009,863,1,1443211317332,1443211318077,1085,358,0,0,0,5,1,4,51,0005-00-0001-19.png,0001-00-0000-30.png
00000009,864,1,1443211319512,1443211319520,902,414,0,0,0,3,2,1,32,0003-00-0003-31.png,0002-00-0008-93.png
00000009,865,0,1443211320772,1443211320804,874,449,0,0,0,3,4,1,34,0003-00-0001-13.png,0004-00-0005-25.png
00000009,866,1,1443211323934,1443211323978,934,353,0,0,0,3,1,2,31,0003-00-0006-33.png,0001-00-0003-08.png
00000009,867,0,1443211324946,1443211325019,888,462,0,0,0,2,5,3,25,0002-00-0007-69.png,0005-00-0009-66.png
00000009,868,1,1443211328057,1443211328748,515,262,0,0,0,1,5,4,15,0001-00-0000-61.png,0005-00-0007-47.png
00000009,869,0,1443211329986,1443211330038,888,395,0,0,0,2,4,2,24,0002-00-0004-86.png,0004-00-0000-09.png
00000009,870,1,1443211333037,1443211333588,914,333,0,0,0,5,4,1,54,0005-00-0008-23.png,0004-00-0001-68.png
00000009,871,1,1443211334464,1443211334536,888,436,0,0,0,4,3,1,43,0004-00-0003-00.png,0003-00-0004-85.png
00000009,872,1,1443211335729,1443211336604,1051,322,0,0,0,5,2,3,52,0005-00-0009-62.png,0002-00-0003-22.png
00000009,873,1,1443211337495,1443211337539,910,397,0,0,0,5,3,2,53,0005-00-0007-23.png,0003-00-0007-54.png
00000009,874,1,1443211338808,1443211338852,910,480,0,0,0,2,1,1,21,0002-00-0003-14.png,0001-00-0001-21.png
00000009,875,0,1443211340082,1443211340114,885,424,0,0,0,3,5,2,35,0003-00-0003-68.png,0005-00-0009-92.png
00000009,876,0,1443211343241,1443211343281,935,350,0,0,0,4,5,1,45,0004-00-0002-85.png,0005-00-0000-35.png
00000009,877,0,1443211346450,1443211347077,413,370,0,0,0,4,2,2,42,0004-00-0001-98.png,0002-00-0005-53.png
00000009,878,1,1443211350645,1443211351320,471,266,0,0,0,1,3,2,13,0001-00-0004-60.png,0003-00-0003-72.png
00000009,879,1,1443211352620,1443211352692,869,403,0,0,0,4,1,3,41,0004-00-0001-15.png,0001-00-0005-45.png
00000009,880,0,1443211353793,1443211354181,927,529,0,0,0,2,3,1,23,0002-00-0009-54.png,0003-00-0007-59.png
00000009,881,0,1443211357061,1443211357645,1041,306,0,0,0,3,4,1,34,0003-00-0007-34.png,0004-00-0002-26.png
00000009,882,1,1443211360741,1443211361294,949,333,0,0,0,2,1,1,21,0002-00-0000-22.png,0001-00-0004-99.png
00000009,883,0,1443211362128,1443211362180,882,419,0,0,0,1,3,2,13,0001-00-0001-86.png,0003-00-0003-67.png
00000009,884,1,1443211365081,1443211366121,448,284,0,0,0,2,3,1,23,0002-00-0007-68.png,0003-00-0000-18.png
00000009,885,0,1443211366998,1443211368083,952,359,0,0,0,2,5,3,25,0002-00-0007-70.png,0005-00-0001-37.png
00000009,886,1,1443211371236,1443211371276,922,332,0,0,0,3,1,2,31,0003-00-0000-28.png,0001-00-0003-33.png
00000009,887,1,1443211372287,1443211372327,881,445,0,0,0,3,2,1,32,0003-00-0007-37.png,0002-00-0000-77.png
00000009,888,0,1443211373399,1443211373639,898,525,0,0,0,4,5,1,45,0004-00-0001-46.png,0005-00-0002-19.png
00000009,889,0,1443211376777,1443211377442,454,277,0,0,0,4,3,1,43,0004-00-0003-53.png,0003-00-0007-24.png
00000009,890,1,1443211380313,1443211380849,1101,286,0,0,0,5,4,1,54,0005-00-0008-50.png,0004-00-0007-34.png
00000009,891,1,1443211381691,1443211381728,879,384,0,0,0,4,1,3,41,0004-00-0002-69.png,0001-00-0002-98.png
00000009,892,1,1443211382898,1443211383595,1118,396,0,0,0,4,2,2,42,0004-00-0006-22.png,0002-00-0005-34.png
00000009,893,0,1443211384416,1443211384488,913,462,0,0,0,1,5,4,15,0001-00-0006-79.png,0005-00-0001-01.png
00000009,894,1,1443211387639,1443211388217,470,290,0,0,0,1,4,3,14,0001-00-0002-80.png,0004-00-0004-11.png
00000009,895,0,1443211389055,1443211389091,860,412,0,0,0,2,4,2,24,0002-00-0000-66.png,0004-00-0007-72.png
00000009,896,1,1443211391934,1443211392600,1067,306,0,0,0,5,3,2,53,0005-00-0001-50.png,0003-00-0003-04.png
00000009,897,1,1443211393872,1443211394662,1108,300,0,0,0,5,2,3,52,0005-00-0008-80.png,0002-00-0000-20.png
00000009,898,0,1443211395568,1443211395628,876,410,0,0,0,1,2,1,12,0001-00-0000-75.png,0002-00-0003-47.png
00000009,899,1,1443211398778,1443211399356,427,462,0,0,0,3,5,2,35,0003-00-0006-11.png,0005-00-0000-04.png
00000009,900,1,1443211400218,1443211400989,939,410,0,0,0,5,1,4,51,0005-00-0003-98.png,0001-00-0000-49.png
00000009,901,1,1443211401848,1443211401900,905,414,0,0,0,5,2,3,52,0005-00-0001-51.png,0002-00-0006-09.png
00000009,902,0,1443211403161,1443211403193,872,415,0,0,0,1,4,3,14,0001-00-0004-14.png,0004-00-0009-57.png
00000009,903,0,1443211406260,1443211406822,496,282,0,0,0,3,1,2,31,0003-00-0009-07.png,0001-00-0005-45.png
00000009,904,0,1443211409803,1443211410324,960,354,0,0,0,1,2,1,12,0001-00-0004-28.png,0002-00-0006-01.png
00000009,905,1,1443211413861,1443211414121,888,426,0,0,0,4,2,2,42,0004-00-0009-77.png,0002-00-0007-14.png
00000009,906,1,1443211416090,1443211416138,902,308,0,0,0,5,4,1,54,0005-00-0008-19.png,0004-00-0008-10.png
00000009,907,0,1443211417280,1443211417324,862,466,0,0,0,2,5,3,25,0002-00-0000-56.png,0005-00-0004-69.png
00000009,908,0,1443211420538,1443211421155,1067,306,0,0,0,2,4,2,24,0002-00-0002-35.png,0004-00-0006-61.png
00000009,909,1,1443211424228,1443211424805,485,296,0,0,0,1,5,4,15,0001-00-0004-27.png,0005-00-0003-08.png
00000009,910,1,1443211426154,1443211426918,933,314,0,0,0,3,2,1,32,0003-00-0008-52.png,0002-00-0004-34.png
00000009,911,1,1443211427814,1443211427937,918,475,0,0,0,5,1,4,51,0005-00-0004-74.png,0001-00-0001-13.png
00000009,912,1,1443211429015,1443211429035,858,445,0,0,0,5,3,2,53,0005-00-0003-37.png,0003-00-0009-41.png
00000009,913,0,1443211430208,1443211430232,869,413,0,0,0,4,5,1,45,0004-00-0000-93.png,0005-00-0000-23.png
00000009,914,0,1443211433357,1443211434068,942,325,0,0,0,2,3,1,23,0002-00-0009-79.png,0003-00-0001-29.png
00000009,915,0,1443211437050,1443211437638,931,446,0,0,0,3,4,1,34,0003-00-0005-58.png,0004-00-0002-23.png
00000009,916,0,1443211440495,1443211441223,1143,279,0,0,0,1,3,2,13,0001-00-0006-75.png,0003-00-0007-18.png
00000009,917,1,1443211444348,1443211444380,905,354,0,0,0,4,3,1,43,0004-00-0002-00.png,0003-00-0009-25.png
00000009,918,0,1443211445361,1443211445389,867,415,0,0,0,3,5,2,35,0003-00-0001-12.png,0005-00-0005-56.png
00000009,919,1,1443211448553,1443211449091,942,329,0,0,0,2,1,1,21,0002-00-0009-09.png,0001-00-0006-72.png
00000009,920,1,1443211449928,1443211450000,899,387,0,0,0,4,1,3,41,0004-00-0000-00.png,0001-00-0000-58.png
00000009,921,0,1443211450965,1443211451111,895,454,0,0,0,2,4,2,24,0002-00-0007-40.png,0004-00-0000-86.png
00000009,922,1,1443211454162,1443211454793,928,410,0,0,0,4,2,2,42,0004-00-0009-59.png,0002-00-0009-24.png
00000009,923,1,1443211455646,1443211455698,905,422,0,0,0,4,1,3,41,0004-00-0003-39.png,0001-00-0001-26.png
00000009,924,0,1443211456877,1443211456909,861,410,0,0,0,2,5,3,25,0002-00-0003-57.png,0005-00-0009-31.png
00000009,925,1,1443211459769,1443211460335,937,332,0,0,0,5,3,2,53,0005-00-0002-92.png,0003-00-0008-60.png
00000009,926,0,1443211461159,1443211461379,948,496,0,0,0,1,3,2,13,0001-00-0001-93.png,0003-00-0003-20.png
00000009,927,1,1443211464270,1443211464948,445,286,0,0,0,4,5,1,45,0004-00-0001-91.png,0005-00-0002-54.png
00000009,928,0,1443211465782,1443211465830,888,418,0,0,0,2,3,1,23,0002-00-0003-69.png,0003-00-0003-57.png
00000009,929,0,1443211468961,1443211469532,1089,306,0,0,0,3,5,2,35,0003-00-0000-87.png,0005-00-0004-05.png
00000009,930,1,1443211472559,1443211473224,1095,327,0,0,0,5,2,3,52,0005-00-0000-60.png,0002-00-0003-26.png
00000009,931,1,1443211474744,1443211474768,862,395,0,0,0,4,3,1,43,0004-00-0008-88.png,0003-00-0006-93.png
00000009,932,0,1443211475877,1443211475909,896,436,0,0,0,1,5,4,15,0001-00-0009-12.png,0005-00-0004-00.png
00000009,933,1,1443211478938,1443211479169,900,350,0,0,0,2,1,1,21,0002-00-0002-35.png,0001-00-0004-48.png
00000009,934,0,1443211480128,1443211480156,884,414,0,0,0,1,4,3,14,0001-00-0004-46.png,0004-00-0000-59.png
00000009,935,1,1443211482997,1443211483651,932,417,0,0,0,3,2,1,32,0003-00-0001-14.png,0002-00-0008-60.png
00000009,936,0,1443211484541,1443211484585,879,436,0,0,0,1,2,1,12,0001-00-0000-40.png,0002-00-0009-86.png
00000009,937,1,1443211487423,1443211487958,1067,279,0,0,0,3,1,2,31,0003-00-0007-46.png,0001-00-0009-41.png
00000009,938,1,1443211488783,1443211488819,911,396,0,0,0,5,4,1,54,0005-00-0003-88.png,0004-00-0001-15.png
00000009,939,1,1443211489799,1443211489823,868,430,0,0,0,5,1,4,51,0005-00-0009-58.png,0001-00-0000-37.png
00000009,940,0,1443211490912,1443211490948,890,468,0,0,0,3,4,1,34,0003-00-0008-36.png,0004-00-0006-96.png
00000009,941,1,1443211494002,1443211494644,940,386,0,0,0,3,2,1,32,0003-00-0003-85.png,0002-00-0006-64.png
