subject_id,trial,correct_response,stim_time,response_time,x_coord,y_coord,trial_timeout,timeout_time,interTrial_timeout,left_rank,right_rank,distance,joint_rank,left_image,right_image
00000009,1,0,1443023200827,1443023201513,1039,412,0,0,0,2,3,1,23,0002-00-0006-43.png,0003-00-0004-84.png
00000009,2,0,1443023205307,1443023205323,895,325,0,0,0,2,4,2,24,0002-00-0008-36.png,0004-00-0005-38.png
00000009,3,1,1443023208333,1443023209018,964,358,0,0,0,3,1,2,31,0003-00-0007-60.png,0001-00-0008-62.png
00000009,4,1,1443023209979,1443023210039,911,420,0,0,0,3,2,1,32,0003-00-0002-31.png,0002-00-0004-77.png
00000009,5,1,1443023211768,1443023212683,426,296,0,0,0,1,4,3,14,0001-00-0000-31.png,0004-00-0002-40.png
00000009,6,1,1443023213738,1443023213806,957,565,0,0,0,4,2,2,42,0004-00-0004-23.png,0002-00-0001-26.png
00000009,7,1,1443023215336,1443023216041,432,287,0,0,0,1,5,4,15,0001-00-0008-84.png,0005-00-0004-25.png
00000009,8,1,1443023217045,1443023217089,899,373,0,0,0,2,1,1,21,0002-00-0003-19.png,0001-00-0000-75.png
00000009,9,1,1443023218447,1443023218626,940,227,0,0,0,5,4,1,54,0005-00-0000-27.png,0004-00-0007-99.png
00000009,10,0,1443023219658,1443023219698,913,316,0,0,0,1,2,1,12,0001-00-0006-55.png,0002-00-0004-14.png
00000009,11,1,1443023223152,1443023223792,397,297,0,0,0,1,3,2,13,0001-00-0003-06.png,0003-00-0001-27.png
00000009,12,0,1443023224756,1443023225603,1074,295,0,0,0,4,5,1,45,0004-00-0009-96.png,0005-00-0005-53.png
00000009,13,1,1443023228963,1443023229951,397,254,0,0,0,3,4,1,34,0003-00-0009-58.png,0004-00-0007-91.png
00000009,14,1,1443023230911,1443023232003,434,299,0,0,0,3,5,2,35,0003-00-0002-70.png,0005-00-0006-07.png
00000009,15,1,1443023233007,1443023233035,894,372,0,0,0,5,3,2,53,0005-00-0005-65.png,0003-00-0001-80.png
00000009,16,1,1443023234435,1443023234941,1070,277,0,0,0,5,2,3,52,0005-00-0004-34.png,0002-00-0006-66.png
00000009,17,1,1443023235848,1443023235876,947,384,0,0,0,4,1,3,41,0004-00-0005-09.png,0001-00-0008-52.png
00000009,18,1,1443023237626,1443023238154,1119,312,0,0,0,5,1,4,51,0005-00-0003-04.png,0001-00-0003-86.png
00000009,19,1,1443023243349,1443023244053,459,275,0,0,0,2,5,3,25,0002-00-0002-08.png,0005-00-0005-11.png
00000009,20,1,1443023245099,1443023245139,894,395,0,0,0,4,3,1,43,0004-00-0008-19.png,0003-00-0003-33.png
00000009,21,0,1443023246382,1443023247048,354,398,0,0,0,2,1,1,21,0002-00-0005-21.png,0001-00-0003-60.png
00000009,22,1,1443023250606,1443023251277,369,373,0,0,0,2,5,3,25,0002-00-0006-85.png,0005-00-0005-13.png
00000009,23,0,1443023252485,1443023252561,885,360,0,0,0,1,5,4,15,0001-00-0009-21.png,0005-00-0004-72.png
00000009,24,1,1443023255645,1443023256243,964,394,0,0,0,3,1,2,31,0003-00-0006-29.png,0001-00-0005-40.png
00000009,25,1,1443023257155,1443023257203,866,411,0,0,0,5,3,2,53,0005-00-0005-03.png,0003-00-0007-65.png
00000009,26,0,1443023258514,1443023258594,871,358,0,0,0,1,4,3,14,0001-00-0000-57.png,0004-00-0000-59.png
00000009,27,1,1443023261816,1443023262088,964,267,0,0,0,4,1,3,41,0004-00-0001-60.png,0001-00-0007-30.png
00000009,28,1,1443023263282,1443023264418,423,237,0,0,0,4,5,1,45,0004-00-0003-33.png,0005-00-0003-93.png
00000009,29,0,1443023265236,1443023265308,862,346,0,0,0,2,4,2,24,0002-00-0008-51.png,0004-00-0006-75.png
00000009,30,0,1443023268394,1443023269147,361,393,0,0,0,5,4,1,54,0005-00-0006-93.png,0004-00-0006-68.png
00000009,31,1,1443023272404,1443023273149,990,398,0,0,0,4,3,1,43,0004-00-0000-16.png,0003-00-0002-33.png
00000009,32,1,1443023274483,1443023275214,1070,256,0,0,0,5,2,3,52,0005-00-0002-62.png,0002-00-0004-73.png
00000009,33,1,1443023276562,1443023276578,912,259,0,0,0,5,1,4,51,0005-00-0008-92.png,0001-00-0003-74.png
00000009,34,0,1443023277592,1443023277691,990,558,0,0,0,2,3,1,23,0002-00-0003-14.png,0003-00-0001-95.png
00000009,35,1,1443023281259,1443023281948,458,263,0,0,0,1,3,2,13,0001-00-0002-57.png,0003-00-0006-17.png
00000009,36,1,1443023282820,1443023283562,1060,275,0,0,0,4,2,2,42,0004-00-0001-51.png,0002-00-0002-78.png
00000009,37,0,1443023284451,1443023284579,953,436,0,0,0,3,5,2,35,0003-00-0007-41.png,0005-00-0000-51.png
00000009,38,1,1443023288188,1443023288773,937,382,0,0,0,3,2,1,32,0003-00-0001-17.png,0002-00-0005-12.png
00000009,39,0,1443023290492,1443023290813,907,283,0,0,0,3,4,1,34,0003-00-0008-12.png,0004-00-0005-82.png
00000009,40,1,1443023294004,1443023294775,476,287,0,0,0,1,2,1,12,0001-00-0007-68.png,0002-00-0004-23.png
00000009,41,0,1443023295618,1443023295706,862,436,0,0,0,1,2,1,12,0001-00-0004-20.png,0002-00-0000-46.png
00000009,42,0,1443023298749,1443023299314,967,336,0,0,0,4,5,1,45,0004-00-0006-61.png,0005-00-0003-90.png
00000009,43,0,1443023302409,1443023303215,939,346,0,0,0,2,3,1,23,0002-00-0003-19.png,0003-00-0009-38.png
00000009,44,0,1443023306372,1443023307083,438,287,0,0,0,5,4,1,54,0005-00-0005-96.png,0004-00-0000-63.png
00000009,45,1,1443023310083,1443023310863,479,296,0,0,0,3,5,2,35,0003-00-0002-20.png,0005-00-0001-20.png
00000009,46,1,1443023311727,1443023311805,894,401,0,0,0,5,1,4,51,0005-00-0004-53.png,0001-00-0008-15.png
00000009,47,1,1443023313318,1443023314032,459,265,0,0,0,3,4,1,34,0003-00-0005-19.png,0004-00-0006-05.png
00000009,48,1,1443023314926,1443023314974,950,550,0,0,0,4,2,2,42,0004-00-0005-40.png,0002-00-0005-86.png
00000009,49,1,1443023316636,1443023317405,939,368,0,0,0,5,2,3,52,0005-00-0000-87.png,0002-00-0001-69.png
00000009,50,0,1443023318374,1443023318434,987,509,0,0,0,2,5,3,25,0002-00-0000-63.png,0005-00-0000-15.png
00000009,51,1,1443023321707,1443023322437,962,331,0,0,0,2,1,1,21,0002-00-0004-17.png,0001-00-0005-61.png
00000009,52,0,1443023323798,1443023323862,875,358,0,0,0,1,4,3,14,0001-00-0007-79.png,0004-00-0009-45.png
00000009,53,1,1443023327181,1443023327740,1067,264,0,0,0,5,3,2,53,0005-00-0004-74.png,0003-00-0000-16.png
00000009,54,0,1443023328710,1443023328762,913,295,0,0,0,1,5,4,15,0001-00-0005-71.png,0005-00-0008-19.png
00000009,55,1,1443023332359,1443023332959,462,273,0,0,0,1,3,2,13,0001-00-0005-10.png,0003-00-0008-25.png
00000009,56,1,1443023333909,1443023333949,956,528,0,0,0,3,2,1,32,0003-00-0002-26.png,0002-00-0002-33.png
00000009,57,1,1443023335309,1443023335325,881,285,0,0,0,3,1,2,31,0003-00-0008-41.png,0001-00-0007-49.png
00000009,58,0,1443023336372,1443023336420,938,531,0,0,0,2,4,2,24,0002-00-0003-24.png,0004-00-0009-49.png
00000009,59,1,1443023339580,1443023340245,939,316,0,0,0,4,1,3,41,0004-00-0004-28.png,0001-00-0001-93.png
00000009,60,1,1443023341619,1443023341769,929,384,0,0,0,4,3,1,43,0004-00-0007-91.png,0003-00-0000-04.png
00000009,61,1,1443023343019,1443023343067,876,376,0,0,0,2,1,1,21,0002-00-0003-28.png,0001-00-0003-15.png
00000009,62,0,1443023344063,1443023344115,988,541,0,0,0,3,4,1,34,0003-00-0008-70.png,0004-00-0008-39.png
00000009,63,1,1443023347553,1443023348478,455,262,0,0,0,2,5,3,25,0002-00-0002-18.png,0005-00-0003-74.png
00000009,64,0,1443023349349,1443023349397,866,415,0,0,0,1,4,3,14,0001-00-0007-32.png,0004-00-0004-85.png
00000009,65,0,1443023352679,1443023353323,1067,306,0,0,0,3,5,2,35,0003-00-0006-70.png,0005-00-0005-95.png
00000009,66,1,1443023356642,1443023357438,954,351,0,0,0,5,2,3,52,0005-00-0006-90.png,0002-00-0000-93.png
00000009,67,1,1443023358562,1443023359455,354,372,0,0,0,2,3,1,23,0002-00-0002-96.png,0003-00-0003-38.png
00000009,68,0,1443023360927,1443023361520,1069,276,0,0,0,2,4,2,24,0002-00-0004-72.png,0004-00-0004-80.png
00000009,69,0,1443023372690,1443023373304,1044,290,0,0,0,4,5,1,45,0004-00-0009-74.png,0005-00-0007-63.png
00000009,70,0,1443023376268,1443023376314,489,462,0,0,0,5,3,2,53,0005-00-0006-64.png,0003-00-0008-56.png
00000009,71,1,1443023379510,1443023379614,979,266,0,0,0,4,1,3,41,0004-00-0005-73.png,0001-00-0007-99.png
00000009,72,1,1443023380562,1443023380618,873,436,0,0,0,4,2,2,42,0004-00-0008-28.png,0002-00-0000-83.png
00000009,73,0,1443023381763,1443023381795,898,367,0,0,0,1,5,4,15,0001-00-0009-82.png,0005-00-0007-26.png
00000009,74,1,1443023386377,1443023387007,917,348,0,0,0,3,2,1,32,0003-00-0008-87.png,0002-00-0008-38.png
00000009,75,1,1443023387853,1443023387881,861,375,0,0,0,5,1,4,51,0005-00-0001-64.png,0001-00-0005-00.png
00000009,76,0,1443023389089,1443023389685,465,242,0,0,0,5,4,1,54,0005-00-0007-75.png,0004-00-0005-11.png
00000009,77,1,1443023392922,1443023393726,453,250,0,0,0,1,3,2,13,0001-00-0005-21.png,0003-00-0004-96.png
00000009,78,1,1443023394627,1443023395511,983,324,0,0,0,3,1,2,31,0003-00-0001-07.png,0001-00-0007-23.png
00000009,79,1,1443023396349,1443023396389,917,401,0,0,0,4,3,1,43,0004-00-0004-31.png,0003-00-0006-29.png
00000009,80,0,1443023397395,1443023397435,978,556,0,0,0,1,2,1,12,0001-00-0007-69.png,0002-00-0002-58.png
00000009,81,1,1443023400755,1443023401398,480,247,0,0,0,3,4,1,34,0003-00-0004-72.png,0004-00-0007-09.png
00000009,82,1,1443023402224,1443023403109,964,410,0,0,0,4,2,2,42,0004-00-0009-97.png,0002-00-0008-88.png
00000009,83,0,1443023404512,1443023404560,989,532,0,0,0,3,5,2,35,0003-00-0003-93.png,0005-00-0007-34.png
00000009,84,1,1443023407997,1443023409000,449,269,0,0,0,1,3,2,13,0001-00-0004-68.png,0003-00-0005-69.png
00000009,85,1,1443023410425,1443023410501,892,376,0,0,0,2,1,1,21,0002-00-0008-93.png,0001-00-0008-33.png
00000009,86,1,1443023411454,1443023411518,885,404,0,0,0,4,3,1,43,0004-00-0004-41.png,0003-00-0005-70.png
00000009,87,1,1443023413913,1443023414251,864,327,0,0,0,3,2,1,32,0003-00-0001-12.png,0002-00-0006-25.png
00000009,88,0,1443023415213,1443023415649,888,474,0,0,0,1,2,1,12,0001-00-0006-62.png,0002-00-0008-67.png
00000009,89,1,1443023419447,1443023420116,964,347,0,0,0,5,3,2,53,0005-00-0002-76.png,0003-00-0001-67.png
00000009,90,0,1443023421047,1443023421123,876,422,0,0,0,2,5,3,25,0002-00-0000-54.png,0005-00-0005-83.png
00000009,91,1,1443023440250,1443023440918,384,425,0,0,0,1,5,4,15,0001-00-0000-92.png,0005-00-0004-26.png
00000009,92,1,1443023442262,1443023443053,444,265,0,0,0,2,3,1,23,0002-00-0008-31.png,0003-00-0003-84.png
00000009,93,0,1443023443928,1443023444786,942,345,0,0,0,2,4,2,24,0002-00-0004-15.png,0004-00-0006-94.png
00000009,94,1,1443023448332,1443023449044,942,319,0,0,0,5,2,3,52,0005-00-0009-48.png,0002-00-0006-26.png
00000009,95,1,1443023449939,1443023449999,888,426,0,0,0,5,1,4,51,0005-00-0000-70.png,0001-00-0001-18.png
00000009,96,1,1443023451312,1443023451320,891,287,0,0,0,3,1,2,31,0003-00-0007-84.png,0001-00-0002-83.png
00000009,97,1,1443023452223,1443023453090,480,225,0,0,0,1,4,3,14,0001-00-0000-73.png,0004-00-0008-36.png
00000009,98,1,1443023454482,1443023455064,1076,281,0,0,0,4,1,3,41,0004-00-0000-40.png,0001-00-0007-88.png
00000009,99,1,1443023456193,1443023456964,1045,279,0,0,0,5,4,1,54,0005-00-0006-61.png,0004-00-0006-89.png
00000009,100,0,1443023457821,1443023458400,905,472,0,0,0,4,5,1,45,0004-00-0009-55.png,0005-00-0007-34.png
00000009,101,1,1443023461548,1443023462144,420,296,0,0,0,3,5,2,35,0003-00-0000-94.png,0005-00-0001-21.png
00000009,102,1,1443023464440,1443023465118,447,279,0,0,0,1,4,3,14,0001-00-0003-28.png,0004-00-0007-18.png
00000009,103,0,1443023465944,1443023466832,939,346,0,0,0,3,4,1,34,0003-00-0007-67.png,0004-00-0003-82.png
00000009,104,1,1443023476009,1443023476624,980,255,0,0,0,5,4,1,54,0005-00-0005-76.png,0004-00-0002-54.png
00000009,105,0,1443023477846,1443023478432,365,375,0,0,0,3,2,1,32,0003-00-0004-43.png,0002-00-0001-90.png
00000009,106,0,1443023491816,1443023492076,902,280,0,0,0,4,5,1,45,0004-00-0003-59.png,0005-00-0005-31.png
00000009,107,1,1443023496592,1443023497234,909,388,0,0,0,4,1,3,41,0004-00-0003-06.png,0001-00-0004-71.png
00000009,108,0,1443023498131,1443023498523,895,495,0,0,0,2,5,3,25,0002-00-0009-72.png,0005-00-0002-25.png
00000009,109,1,1443023509368,1443023509972,923,351,0,0,0,4,2,2,42,0004-00-0009-00.png,0002-00-0003-06.png
00000009,110,1,1443023510936,1443023510988,862,442,0,0,0,5,3,2,53,0005-00-0009-07.png,0003-00-0008-36.png
00000009,111,1,1443023512063,1443023512755,864,353,0,0,0,4,3,1,43,0004-00-0006-74.png,0003-00-0008-73.png
00000009,112,1,1443023513649,1443023513697,862,384,0,0,0,5,2,3,52,0005-00-0008-64.png,0002-00-0003-20.png
00000009,113,1,1443023515130,1443023515731,461,263,0,0,0,2,4,2,24,0002-00-0006-99.png,0004-00-0005-15.png
00000009,114,0,1443023516640,1443023516958,888,514,0,0,0,1,2,1,12,0001-00-0000-72.png,0002-00-0003-71.png
00000009,115,1,1443023523241,1443023523479,869,277,0,0,0,3,1,2,31,0003-00-0004-88.png,0001-00-0006-20.png
00000009,116,0,1443023524374,1443023524450,912,461,0,0,0,2,3,1,23,0002-00-0002-31.png,0003-00-0001-30.png
00000009,117,1,1443023531989,1443023533009,330,380,0,0,0,1,3,2,13,0001-00-0007-15.png,0003-00-0005-00.png
00000009,118,1,1443023533950,1443023534061,888,473,0,0,0,2,1,1,21,0002-00-0006-30.png,0001-00-0005-12.png
00000009,119,1,1443023534910,1443023534950,862,413,0,0,0,5,1,4,51,0005-00-0001-86.png,0001-00-0007-40.png
00000009,120,0,1443023536127,1443023536163,908,274,0,0,0,1,5,4,15,0001-00-0002-57.png,0005-00-0005-41.png
00000009,121,1,1443023539296,1443023539462,862,306,0,0,0,4,3,1,43,0004-00-0005-18.png,0003-00-0006-86.png
00000009,122,0,1443023540368,1443023540856,908,494,0,0,0,3,4,1,34,0003-00-0002-97.png,0004-00-0002-46.png
00000009,123,1,1443023545942,1443023546557,341,415,0,0,0,1,5,4,15,0001-00-0000-78.png,0005-00-0004-30.png
00000009,124,1,1443023548121,1443023548795,996,333,0,0,0,5,2,3,52,0005-00-0005-27.png,0002-00-0006-76.png
00000009,125,0,1443023549658,1443023550364,1071,276,0,0,0,3,5,2,35,0003-00-0007-70.png,0005-00-0009-42.png
00000009,126,1,1443023558587,1443023559248,883,364,0,0,0,4,1,3,41,0004-00-0002-93.png,0001-00-0003-99.png
00000009,127,1,1443023560181,1443023561184,401,351,0,0,0,2,4,2,24,0002-00-0005-61.png,0004-00-0000-28.png
00000009,128,1,1443023562624,1443023563475,1067,253,0,0,0,5,1,4,51,0005-00-0006-20.png,0001-00-0004-70.png
00000009,129,1,1443023564752,1443023565323,386,379,0,0,0,2,3,1,23,0002-00-0005-07.png,0003-00-0008-43.png
00000009,130,0,1443023566293,1443023567107,1080,274,0,0,0,4,5,1,45,0004-00-0003-37.png,0005-00-0003-07.png
00000009,131,0,1443023570015,1443023570869,938,353,0,0,0,1,4,3,14,0001-00-0007-55.png,0004-00-0000-42.png
00000009,132,0,1443023574150,1443023574826,455,301,0,0,0,2,1,1,21,0002-00-0000-45.png,0001-00-0000-89.png
00000009,133,1,1443023578015,1443023578731,1092,279,0,0,0,3,1,2,31,0003-00-0003-89.png,0001-00-0007-12.png
00000009,134,1,1443023580611,1443023581491,357,386,0,0,0,1,2,1,12,0001-00-0007-72.png,0002-00-0006-13.png
00000009,135,1,1443023582347,1443023583717,913,344,0,0,0,5,3,2,53,0005-00-0007-03.png,0003-00-0005-61.png
00000009,136,1,1443023585022,1443023585558,453,279,0,0,0,1,3,2,13,0001-00-0004-72.png,0003-00-0006-62.png
00000009,137,1,1443023586473,1443023587045,887,488,0,0,0,4,2,2,42,0004-00-0000-15.png,0002-00-0004-31.png
00000009,138,0,1443023588031,1443023589034,435,247,0,0,0,5,4,1,54,0005-00-0003-26.png,0004-00-0001-75.png
00000009,139,1,1443023592187,1443023592742,386,426,0,0,0,2,5,3,25,0002-00-0007-02.png,0005-00-0002-25.png
00000009,140,1,1443023594163,1443023594223,862,393,0,0,0,3,2,1,32,0003-00-0000-42.png,0002-00-0004-74.png
00000009,141,0,1443023595088,1443023595867,913,326,0,0,0,1,2,1,12,0001-00-0001-80.png,0002-00-0001-09.png
00000009,142,1,1443023599661,1443023600288,367,396,0,0,0,3,4,1,34,0003-00-0003-13.png,0004-00-0007-08.png
00000009,143,0,1443023601232,1443023602368,915,385,0,0,0,2,3,1,23,0002-00-0004-07.png,0003-00-0007-91.png
00000009,144,0,1443023605901,1443023606626,920,349,0,0,0,3,5,2,35,0003-00-0006-43.png,0005-00-0007-71.png
00000009,145,0,1443023617953,1443023618717,397,282,0,0,0,3,1,2,31,0003-00-0006-32.png,0001-00-0005-78.png
00000009,146,1,1443023629102,1443023629982,981,414,0,0,0,5,4,1,54,0005-00-0000-08.png,0004-00-0001-11.png
00000009,147,1,1443023631160,1443023632149,369,390,0,0,0,1,3,2,13,0001-00-0001-07.png,0003-00-0004-52.png
00000009,148,0,1443023633230,1443023633338,862,410,0,0,0,4,5,1,45,0004-00-0008-81.png,0005-00-0002-72.png
00000009,149,1,1443023636495,1443023636523,899,280,0,0,0,5,2,3,52,0005-00-0001-62.png,0002-00-0001-45.png
00000009,150,1,1443023637534,1443023638782,1020,290,0,0,0,2,1,1,21,0002-00-0003-68.png,0001-00-0006-14.png
00000009,151,0,1443023639614,1443023640530,433,240,0,0,0,5,3,2,53,0005-00-0008-66.png,0003-00-0005-76.png
00000009,152,1,1443023643710,1443023644291,941,386,0,0,0,4,1,3,41,0004-00-0004-38.png,0001-00-0003-34.png
00000009,153,1,1443023645172,1443023645451,913,453,0,0,0,5,1,4,51,0005-00-0009-73.png,0001-00-0009-17.png
00000009,154,0,1443023646304,1443023646447,863,415,0,0,0,1,4,3,14,0001-00-0007-33.png,0004-00-0009-16.png
00000009,155,1,1443023649546,1443023649626,994,304,0,0,0,3,2,1,32,0003-00-0002-18.png,0002-00-0004-46.png
00000009,156,0,1443023650498,1443023651343,456,221,0,0,0,4,3,1,43,0004-00-0005-15.png,0003-00-0006-20.png
00000009,157,1,1443023654553,1443023654569,885,298,0,0,0,4,2,2,42,0004-00-0007-55.png,0002-00-0000-02.png
00000009,158,0,1443023655467,1443023656393,890,354,0,0,0,2,5,3,25,0002-00-0006-78.png,0005-00-0004-70.png
00000009,159,0,1443023659252,1443023659328,989,424,0,0,0,1,5,4,15,0001-00-0005-37.png,0005-00-0006-60.png
00000009,160,0,1443023662255,1443023662304,932,364,0,0,0,2,4,2,24,0002-00-0000-51.png,0004-00-0006-06.png
00000009,161,1,1443023665475,1443023666177,484,271,0,0,0,1,2,1,12,0001-00-0001-74.png,0002-00-0004-74.png
00000009,162,0,1443023667054,1443023668089,368,374,0,0,0,5,3,2,53,0005-00-0008-95.png,0003-00-0008-53.png
00000009,163,1,1443023670915,1443023671671,448,285,0,0,0,1,4,3,14,0001-00-0002-94.png,0004-00-0006-90.png
00000009,164,1,1443023672541,1443023673495,942,333,0,0,0,5,4,1,54,0005-00-0000-08.png,0004-00-0007-49.png
00000009,165,0,1443023674458,1443023674486,890,378,0,0,0,1,3,2,13,0001-00-0000-92.png,0003-00-0000-96.png
00000009,166,0,1443023677864,1443023678559,1040,280,0,0,0,3,5,2,35,0003-00-0001-84.png,0005-00-0004-34.png
00000009,167,1,1443023684881,1443023685484,937,345,0,0,0,3,1,2,31,0003-00-0005-71.png,0001-00-0007-81.png
00000009,168,1,1443023686390,1443023686660,964,541,0,0,0,5,1,4,51,0005-00-0006-51.png,0001-00-0005-19.png
00000009,169,1,1443023687654,1443023688560,432,291,0,0,0,1,5,4,15,0001-00-0005-40.png,0005-00-0008-33.png
00000009,170,1,1443023690078,1443023690146,953,563,0,0,0,5,2,3,52,0005-00-0000-32.png,0002-00-0008-74.png
00000009,171,1,1443023692224,1443023692300,888,358,0,0,0,4,1,3,41,0004-00-0001-64.png,0001-00-0000-09.png
00000009,172,0,1443023693925,1443023694912,413,345,0,0,0,3,2,1,32,0003-00-0003-77.png,0002-00-0002-67.png
00000009,173,0,1443023698097,1443023698117,933,281,0,0,0,2,5,3,25,0002-00-0002-01.png,0005-00-0008-75.png
00000009,174,0,1443023701296,1443023701324,916,299,0,0,0,3,4,1,34,0003-00-0008-95.png,0004-00-0008-08.png
00000009,175,1,1443023704495,1443023705284,485,248,0,0,0,2,3,1,23,0002-00-0002-71.png,0003-00-0000-47.png
00000009,176,1,1443023706144,1443023707039,1062,257,0,0,0,4,2,2,42,0004-00-0001-47.png,0002-00-0001-49.png
00000009,177,1,1443023708956,1443023708996,894,278,0,0,0,4,3,1,43,0004-00-0009-58.png,0003-00-0006-94.png
00000009,178,0,1443023709991,1443023710817,453,277,0,0,0,2,1,1,21,0002-00-0000-91.png,0001-00-0001-84.png
00000009,179,1,1443023713828,1443023714700,465,271,0,0,0,2,4,2,24,0002-00-0003-37.png,0004-00-0003-59.png
00000009,180,0,1443023715532,1443023716685,944,329,0,0,0,4,5,1,45,0004-00-0008-40.png,0005-00-0008-33.png
00000009,181,1,1443023719870,1443023720963,429,239,0,0,0,2,3,1,23,0002-00-0005-50.png,0003-00-0006-06.png
00000009,182,1,1443023721875,1443023722767,934,328,0,0,0,5,4,1,54,0005-00-0005-02.png,0004-00-0004-27.png
00000009,183,1,1443023723602,1443023723634,862,358,0,0,0,3,1,2,31,0003-00-0006-03.png,0001-00-0000-18.png
00000009,184,0,1443023724520,1443023725531,431,282,0,0,0,3,2,1,32,0003-00-0000-21.png,0002-00-0005-54.png
00000009,185,1,1443023728646,1443023729332,489,286,0,0,0,3,5,2,35,0003-00-0007-37.png,0005-00-0005-47.png
00000009,186,0,1443023730212,1443023730264,871,410,0,0,0,1,2,1,12,0001-00-0001-89.png,0002-00-0008-84.png
00000009,187,1,1443023733503,1443023734199,452,254,0,0,0,1,4,3,14,0001-00-0007-57.png,0004-00-0003-89.png
00000009,188,1,1443023735659,1443023735769,1017,557,0,0,0,4,2,2,42,0004-00-0009-68.png,0002-00-0005-59.png
00000009,189,1,1443023736871,1443023736923,888,358,0,0,0,5,2,3,52,0005-00-0007-76.png,0002-00-0005-60.png
00000009,190,1,1443023738104,1443023739007,913,319,0,0,0,4,1,3,41,0004-00-0003-54.png,0001-00-0004-17.png
00000009,191,0,1443023740544,1443023740568,869,374,0,0,0,2,4,2,24,0002-00-0001-66.png,0004-00-0004-89.png
00000009,192,0,1443023743739,1443023744007,928,281,0,0,0,4,5,1,45,0004-00-0008-91.png,0005-00-0009-54.png
00000009,193,0,1443023747200,1443023747897,1144,353,0,0,0,1,3,2,13,0001-00-0001-46.png,0003-00-0000-76.png
00000009,194,1,1443023751122,1443023751726,461,290,0,0,0,2,5,3,25,0002-00-0001-88.png,0005-00-0009-04.png
00000009,195,1,1443023752652,1443023752688,862,395,0,0,0,5,3,2,53,0005-00-0007-96.png,0003-00-0003-77.png
00000009,196,0,1443023754014,1443023754038,873,268,0,0,0,1,5,4,15,0001-00-0009-48.png,0005-00-0000-80.png
00000009,197,0,1443023757106,1443023757761,459,266,0,0,0,4,3,1,43,0004-00-0007-02.png,0003-00-0005-50.png
00000009,198,1,1443023760871,1443023761543,489,253,0,0,0,3,4,1,34,0003-00-0000-12.png,0004-00-0007-58.png
00000009,199,1,1443023762408,1443023763442,1063,278,0,0,0,2,1,1,21,0002-00-0005-97.png,0001-00-0009-66.png
00000009,200,1,1443023764815,1443023764851,897,340,0,0,0,5,1,4,51,0005-00-0001-32.png,0001-00-0004-76.png
00000009,201,0,1443023765942,1443023766736,457,261,0,0,0,5,3,2,53,0005-00-0007-26.png,0003-00-0002-84.png
00000009,202,0,1443023769993,1443023770041,920,304,0,0,0,1,5,4,15,0001-00-0000-10.png,0005-00-0005-62.png
00000009,203,0,1443023773051,1443023773071,872,331,0,0,0,2,4,2,24,0002-00-0007-20.png,0004-00-0009-67.png
00000009,204,1,1443023776141,1443023776819,482,253,0,0,0,1,3,2,13,0001-00-0001-99.png,0003-00-0008-86.png
00000009,205,0,1443023778351,1443023779247,451,253,0,0,0,4,2,2,42,0004-00-0009-49.png,0002-00-0009-55.png
00000009,206,1,1443023782774,1443023782819,931,374,0,0,0,3,1,2,31,0003-00-0007-41.png,0001-00-0007-99.png
00000009,207,1,1443023783748,1443023784668,460,259,0,0,0,1,2,1,12,0001-00-0001-12.png,0002-00-0002-30.png
00000009,208,1,1443023785503,1443023786282,921,298,0,0,0,3,2,1,32,0003-00-0007-20.png,0002-00-0007-48.png
00000009,209,1,1443023787612,1443023787628,867,381,0,0,0,5,2,3,52,0005-00-0009-70.png,0002-00-0005-75.png
00000009,210,1,1443023789200,1443023790044,482,268,0,0,0,2,5,3,25,0002-00-0002-98.png,0005-00-0004-18.png
00000009,211,1,1443023791526,1443023791586,952,543,0,0,0,4,1,3,41,0004-00-0004-08.png,0001-00-0001-15.png
00000009,212,1,1443023792720,1443023793461,433,274,0,0,0,3,5,2,35,0003-00-0009-22.png,0005-00-0005-45.png
00000009,213,1,1443023796880,1443023797724,462,240,0,0,0,1,4,3,14,0001-00-0008-15.png,0004-00-0007-49.png
00000009,214,1,1443023798959,1443023799007,881,391,0,0,0,2,1,1,21,0002-00-0002-05.png,0001-00-0004-72.png
00000009,215,1,1443023800508,1443023800548,864,362,0,0,0,5,1,4,51,0005-00-0006-66.png,0001-00-0005-71.png
00000009,216,0,1443023801919,1443023801959,916,325,0,0,0,3,4,1,34,0003-00-0007-10.png,0004-00-0008-42.png
00000009,217,1,1443023804903,1443023805577,482,275,0,0,0,4,5,1,45,0004-00-0000-62.png,0005-00-0008-51.png
00000009,218,0,1443023806837,1443023806905,985,546,0,0,0,2,3,1,23,0002-00-0001-03.png,0003-00-0002-46.png
00000009,219,1,1443023810026,1443023810050,874,358,0,0,0,4,3,1,43,0004-00-0003-84.png,0003-00-0001-83.png
00000009,220,1,1443023810935,1443023811859,1036,309,0,0,0,5,4,1,54,0005-00-0003-25.png,0004-00-0002-46.png
00000009,221,1,1443023813158,1443023813186,865,334,0,0,0,5,4,1,54,0005-00-0002-83.png,0004-00-0002-12.png
00000009,222,0,1443023814203,1443023814442,913,227,0,0,0,2,4,2,24,0002-00-0001-45.png,0004-00-0000-88.png
00000009,223,1,1443023826141,1443023826149,884,374,0,0,0,4,2,2,42,0004-00-0002-89.png,0002-00-0009-91.png
00000009,224,1,1443023829104,1443023830652,332,383,0,0,0,1,5,4,15,0001-00-0003-18.png,0005-00-0009-69.png
00000009,225,1,1443023832581,1443023832720,913,315,0,0,0,4,3,1,43,0004-00-0004-64.png,0003-00-0004-64.png
00000009,226,1,1443023834510,1443023835398,927,406,0,0,0,3,1,2,31,0003-00-0009-88.png,0001-00-0007-90.png
00000009,227,0,1443023836852,1443023836950,892,361,0,0,0,1,3,2,13,0001-00-0001-04.png,0003-00-0000-91.png
00000009,228,0,1443023840095,1443023840135,874,296,0,0,0,3,5,2,35,0003-00-0007-49.png,0005-00-0008-69.png
00000009,229,1,1443023843530,1443023843552,875,319,0,0,0,4,1,3,41,0004-00-0003-09.png,0001-00-0007-71.png
00000009,230,1,1443023844614,1443023845738,415,410,0,0,0,2,5,3,25,0002-00-0001-28.png,0005-00-0008-02.png
00000009,231,1,1443023846791,1443023846851,862,410,0,0,0,2,1,1,21,0002-00-0004-36.png,0001-00-0005-72.png
00000009,232,1,1443023848251,1443023849152,442,228,0,0,0,3,4,1,34,0003-00-0005-99.png,0004-00-0004-63.png
00000009,233,0,1443023850436,1443023850509,862,410,0,0,0,2,3,1,23,0002-00-0004-66.png,0003-00-0007-39.png
00000009,234,1,1443023853431,1443023854038,1067,281,0,0,0,3,2,1,32,0003-00-0000-71.png,0002-00-0001-17.png
00000009,235,0,1443023855160,1443023856191,456,244,0,0,0,5,3,2,53,0005-00-0007-47.png,0003-00-0009-69.png
00000009,236,1,1443023859243,1443023859866,482,253,0,0,0,1,2,1,12,0001-00-0004-06.png,0002-00-0009-01.png
00000009,237,0,1443023860971,1443023861431,927,529,0,0,0,1,4,3,14,0001-00-0004-02.png,0004-00-0007-99.png
00000009,238,0,1443023865026,1443023865058,889,299,0,0,0,4,5,1,45,0004-00-0006-38.png,0005-00-0009-16.png
00000009,239,1,1443023868256,1443023868280,862,295,0,0,0,5,2,3,52,0005-00-0008-65.png,0002-00-0000-57.png
00000009,240,1,1443023869300,1443023869391,928,462,0,0,0,5,1,4,51,0005-00-0001-83.png,0001-00-0008-80.png
00000009,241,0,1443023870654,1443023870682,867,446,0,0,0,2,4,2,24,0002-00-0006-64.png,0004-00-0000-22.png
00000009,242,0,1443023873812,1443023873848,927,333,0,0,0,2,3,1,23,0002-00-0002-90.png,0003-00-0003-14.png
00000009,243,1,1443023877021,1443023877025,914,339,0,0,0,5,2,3,52,0005-00-0000-26.png,0002-00-0003-39.png
00000009,244,1,1443023878044,1443023878160,913,424,0,0,0,3,1,2,31,0003-00-0003-87.png,0001-00-0003-74.png
00000009,245,0,1443023879255,1443023879303,859,419,0,0,0,2,5,3,25,0002-00-0004-92.png,0005-00-0006-42.png
00000009,246,0,1443023882534,1443023882938,946,503,0,0,0,1,3,2,13,0001-00-0005-56.png,0003-00-0008-45.png
00000009,247,1,1443023886074,1443023886102,909,338,0,0,0,4,3,1,43,0004-00-0009-11.png,0003-00-0004-11.png
00000009,248,0,1443023887085,1443023887156,888,410,0,0,0,1,4,3,14,0001-00-0008-04.png,0004-00-0001-04.png
00000009,249,1,1443023890027,1443023890931,1092,319,0,0,0,5,3,2,53,0005-00-0002-26.png,0003-00-0001-62.png
00000009,250,1,1443023891877,1443023891936,888,384,0,0,0,5,4,1,54,0005-00-0004-58.png,0004-00-0002-38.png
00000009,251,0,1443023893269,1443023893295,865,374,0,0,0,4,5,1,45,0004-00-0005-06.png,0005-00-0008-16.png
00000009,252,0,1443023896409,1443023897309,941,336,0,0,0,1,2,1,12,0001-00-0008-82.png,0002-00-0002-32.png
00000009,253,0,1443023900440,1443023901096,464,251,0,0,0,4,1,3,41,0004-00-0007-08.png,0001-00-0004-33.png
00000009,254,0,1443023903958,1443023904507,925,382,0,0,0,3,4,1,34,0003-00-0009-14.png,0004-00-0001-74.png
00000009,255,1,1443023907463,1443023908186,954,384,0,0,0,5,1,4,51,0005-00-0000-26.png,0001-00-0009-44.png
00000009,256,1,1443023909107,1443023909147,872,384,0,0,0,4,2,2,42,0004-00-0003-51.png,0002-00-0006-50.png
00000009,257,1,1443023910412,1443023911576,971,323,0,0,0,2,1,1,21,0002-00-0005-46.png,0001-00-0003-19.png
00000009,258,0,1443023912596,1443023912644,887,407,0,0,0,1,5,4,15,0001-00-0008-54.png,0005-00-0000-70.png
00000009,259,0,1443023915485,1443023916260,938,348,0,0,0,3,5,2,35,0003-00-0001-97.png,0005-00-0003-22.png
00000009,260,0,1443023919474,1443023920337,492,257,0,0,0,3,2,1,32,0003-00-0000-84.png,0002-00-0009-83.png
00000009,261,1,1443023923549,1443023923569,862,336,0,0,0,3,2,1,32,0003-00-0003-34.png,0002-00-0007-31.png
00000009,262,0,1443023924503,1443023925157,877,508,0,0,0,1,3,2,13,0001-00-0001-89.png,0003-00-0003-72.png
00000009,263,0,1443023928279,1443023928339,904,339,0,0,0,2,4,2,24,0002-00-0000-29.png,0004-00-0001-08.png
00000009,264,1,1443023931269,1443023932203,1067,309,0,0,0,4,2,2,42,0004-00-0007-60.png,0002-00-0008-32.png
00000009,265,0,1443023933155,1443023933196,867,419,0,0,0,2,5,3,25,0002-00-0004-20.png,0005-00-0002-64.png
00000009,266,1,1443023936178,1443023936895,462,277,0,0,0,3,4,1,34,0003-00-0006-80.png,0004-00-0002-20.png
00000009,267,1,1443023937799,1443023937962,887,447,0,0,0,5,3,2,53,0005-00-0006-86.png,0003-00-0004-03.png
00000009,268,1,1443023939218,1443023939932,865,491,0,0,0,5,4,1,54,0005-00-0009-06.png,0004-00-0004-43.png
00000009,269,1,1443023941007,1443023941057,921,380,0,0,0,4,1,3,41,0004-00-0005-54.png,0001-00-0000-16.png
00000009,270,1,1443023942082,1443023942110,863,394,0,0,0,5,1,4,51,0005-00-0004-06.png,0001-00-0008-51.png
00000009,271,1,1443023943602,1443023944690,1027,309,0,0,0,4,3,1,43,0004-00-0009-31.png,0003-00-0001-41.png
00000009,272,0,1443023945625,1443023945688,898,382,0,0,0,2,3,1,23,0002-00-0003-78.png,0003-00-0006-44.png
00000009,273,1,1443023948810,1443023949475,458,248,0,0,0,1,2,1,12,0001-00-0000-19.png,0002-00-0009-25.png
00000009,274,0,1443023950371,1443023950857,860,501,0,0,0,1,5,4,15,0001-00-0001-56.png,0005-00-0003-90.png
00000009,275,1,1443023953959,1443023954547,486,275,0,0,0,1,4,3,14,0001-00-0001-70.png,0004-00-0008-57.png
00000009,276,1,1443023955431,1443023955506,877,407,0,0,0,5,2,3,52,0005-00-0002-74.png,0002-00-0008-00.png
00000009,277,0,1443023956472,1443023957885,469,248,0,0,0,2,1,1,21,0002-00-0007-39.png,0001-00-0008-82.png
00000009,278,0,1443023960729,1443023960793,873,372,0,0,0,4,5,1,45,0004-00-0009-10.png,0005-00-0003-37.png
00000009,279,0,1443023963994,1443023964026,952,313,0,0,0,3,5,2,35,0003-00-0004-39.png,0005-00-0000-91.png
00000009,280,1,1443023967193,1443023967233,927,338,0,0,0,3,1,2,31,0003-00-0000-42.png,0001-00-0002-44.png
00000009,281,1,1443023968166,1443023968226,919,377,0,0,0,5,1,4,51,0005-00-0000-01.png,0001-00-0009-42.png
00000009,282,0,1443023969307,1443023969355,862,373,0,0,0,3,4,1,34,0003-00-0009-88.png,0004-00-0002-35.png
00000009,283,1,1443023972249,1443023972923,1056,279,0,0,0,4,1,3,41,0004-00-0006-73.png,0001-00-0004-28.png
00000009,284,1,1443023973804,1443023973861,948,419,0,0,0,5,2,3,52,0005-00-0004-84.png,0002-00-0009-59.png
00000009,285,1,1443023974765,1443023976647,380,241,0,0,0,1,3,2,13,0001-00-0000-34.png,0003-00-0004-28.png
00000009,286,0,1443023977688,1443023978162,927,555,0,0,0,2,5,3,25,0002-00-0005-58.png,0005-00-0006-58.png
00000009,287,1,1443023981337,1443023982177,450,254,0,0,0,2,3,1,23,0002-00-0005-38.png,0003-00-0007-85.png
00000009,288,1,1443023983061,1443023983407,881,446,0,0,0,3,2,1,32,0003-00-0002-05.png,0002-00-0006-66.png
00000009,289,1,1443023984540,1443023984590,898,426,0,0,0,3,1,2,31,0003-00-0009-20.png,0001-00-0009-14.png
00000009,290,1,1443023985587,1443023985635,860,425,0,0,0,4,3,1,43,0004-00-0009-02.png,0003-00-0001-85.png
00000009,291,0,1443023986927,1443023986955,874,431,0,0,0,1,2,1,12,0001-00-0006-09.png,0002-00-0000-40.png
00000009,292,0,1443023990194,1443023991150,1072,304,0,0,0,4,5,1,45,0004-00-0000-61.png,0005-00-0008-68.png
00000009,293,1,1443023994322,1443023994668,957,392,0,0,0,4,2,2,42,0004-00-0007-34.png,0002-00-0005-19.png
00000009,294,1,1443023995701,1443023995803,944,450,0,0,0,5,3,2,53,0005-00-0005-88.png,0003-00-0000-25.png
00000009,295,1,1443023996893,1443023996917,867,393,0,0,0,2,1,1,21,0002-00-0006-02.png,0001-00-0003-74.png
00000009,296,1,1443023998007,1443023998035,888,372,0,0,0,5,4,1,54,0005-00-0002-79.png,0004-00-0003-82.png
00000009,297,0,1443023999209,1443023999249,888,410,0,0,0,1,5,4,15,0001-00-0006-11.png,0005-00-0009-58.png
00000009,298,0,1443024002201,1443024002239,869,412,0,0,0,3,5,2,35,0003-00-0003-16.png,0005-00-0000-74.png
00000009,299,1,1443024005402,1443024005968,435,267,0,0,0,1,4,3,14,0001-00-0006-62.png,0004-00-0009-54.png
00000009,300,1,1443024006851,1443024008083,477,265,0,0,0,2,4,2,24,0002-00-0009-53.png,0004-00-0000-97.png
00000009,301,1,1443024009028,1443024010705,387,446,0,0,0,1,4,3,14,0001-00-0002-86.png,0004-00-0005-49.png
00000009,302,0,1443024011673,1443024011740,888,488,0,0,0,3,4,1,34,0003-00-0002-50.png,0004-00-0007-60.png
00000009,303,0,1443024014663,1443024014719,868,385,0,0,0,2,3,1,23,0002-00-0009-65.png,0003-00-0005-18.png
00000009,304,1,1443024017613,1443024017680,915,383,0,0,0,3,2,1,32,0003-00-0009-83.png,0002-00-0007-39.png
00000009,305,1,1443024018705,1443024018745,901,402,0,0,0,5,2,3,52,0005-00-0008-23.png,0002-00-0007-34.png
00000009,306,0,1443024019641,1443024020117,888,529,0,0,0,4,5,1,45,0004-00-0003-88.png,0005-00-0001-04.png
00000009,307,0,1443024023297,1443024023337,888,332,0,0,0,3,5,2,35,0003-00-0004-35.png,0005-00-0004-78.png
00000009,308,1,1443024026499,1443024027072,365,375,0,0,0,1,3,2,13,0001-00-0001-29.png,0003-00-0008-96.png
00000009,309,1,1443024027969,1443024028999,377,381,0,0,0,2,5,3,25,0002-00-0007-33.png,0005-00-0002-21.png
00000009,310,1,1443024029925,1443024030106,939,488,0,0,0,5,4,1,54,0005-00-0005-15.png,0004-00-0002-94.png
00000009,311,1,1443024031232,1443024032763,451,271,0,0,0,2,4,2,24,0002-00-0003-14.png,0004-00-0002-39.png
00000009,312,1,1443024033803,1443024034071,888,541,0,0,0,3,1,2,31,0003-00-0004-20.png,0001-00-0000-12.png
00000009,313,1,1443024035320,1443024035403,888,514,0,0,0,4,1,3,41,0004-00-0006-44.png,0001-00-0004-85.png
00000009,314,1,1443024036405,1443024036457,858,449,0,0,0,4,3,1,43,0004-00-0007-39.png,0003-00-0007-36.png
00000009,315,0,1443024037636,1443024037786,886,493,0,0,0,1,5,4,15,0001-00-0001-76.png,0005-00-0004-82.png
00000009,316,1,1443024040975,1443024040995,901,313,0,0,0,2,1,1,21,0002-00-0002-27.png,0001-00-0001-48.png
00000009,317,0,1443024041918,1443024041987,889,449,0,0,0,1,2,1,12,0001-00-0004-54.png,0002-00-0004-87.png
00000009,318,1,1443024045181,1443024046156,987,326,0,0,0,5,3,2,53,0005-00-0001-78.png,0003-00-0008-46.png
00000009,319,1,1443024047594,1443024047690,892,421,0,0,0,5,1,4,51,0005-00-0009-34.png,0001-00-0008-26.png
00000009,320,1,1443024048657,1443024049473,869,482,0,0,0,4,2,2,42,0004-00-0003-95.png,0002-00-0001-75.png
00000009,321,1,1443024050467,1443024050495,862,384,0,0,0,5,1,4,51,0005-00-0006-94.png,0001-00-0008-16.png
00000009,322,1,1443024051535,1443024052997,446,235,0,0,0,2,3,1,23,0002-00-0003-94.png,0003-00-0000-84.png
00000009,323,0,1443024053893,1443024054340,900,554,0,0,0,4,5,1,45,0004-00-0006-24.png,0005-00-0002-79.png
00000009,324,1,1443024057243,1443024057969,960,361,0,0,0,5,3,2,53,0005-00-0008-36.png,0003-00-0005-19.png
00000009,325,1,1443024059377,1443024060530,455,278,0,0,0,3,5,2,35,0003-00-0002-83.png,0005-00-0008-02.png
00000009,326,1,1443024061416,1443024061715,870,478,0,0,0,5,2,3,52,0005-00-0001-12.png,0002-00-0004-75.png
00000009,327,1,1443024062955,1443024063721,913,541,0,0,0,3,1,2,31,0003-00-0008-54.png,0001-00-0004-02.png
00000009,328,0,1443024064736,1443024064763,952,430,0,0,0,1,4,3,14,0001-00-0000-54.png,0004-00-0007-86.png
00000009,329,0,1443024067916,1443024067940,888,317,0,0,0,1,2,1,12,0001-00-0006-50.png,0002-00-0003-98.png
00000009,330,1,1443024071097,1443024071809,485,241,0,0,0,2,4,2,24,0002-00-0006-00.png,0004-00-0005-62.png
00000009,331,1,1443024072692,1443024073559,1043,286,0,0,0,4,1,3,41,0004-00-0009-41.png,0001-00-0004-48.png
00000009,332,1,1443024074423,1443024074471,887,421,0,0,0,4,2,2,42,0004-00-0007-77.png,0002-00-0007-19.png
00000009,333,1,1443024075327,1443024076616,417,415,0,0,0,1,5,4,15,0001-00-0000-92.png,0005-00-0006-17.png
00000009,334,1,1443024077933,1443024079174,466,253,0,0,0,1,3,2,13,0001-00-0002-97.png,0003-00-0007-34.png
00000009,335,1,1443024080098,1443024080962,330,364,0,0,0,3,4,1,34,0003-00-0007-45.png,0004-00-0003-29.png
00000009,336,0,1443024081926,1443024083202,451,239,0,0,0,5,4,1,54,0005-00-0003-94.png,0004-00-0007-99.png
00000009,337,1,1443024086210,1443024086922,1067,290,0,0,0,2,1,1,21,0002-00-0009-31.png,0001-00-0009-01.png
00000009,338,1,1443024087777,1443024087841,887,448,0,0,0,3,2,1,32,0003-00-0006-54.png,0002-00-0004-98.png
00000009,339,1,1443024089738,1443024090540,471,259,0,0,0,2,5,3,25,0002-00-0000-39.png,0005-00-0001-90.png
00000009,340,1,1443024091477,1443024091863,879,471,0,0,0,4,3,1,43,0004-00-0009-36.png,0003-00-0003-64.png
00000009,341,0,1443024092965,1443024093016,867,425,0,0,0,2,4,2,24,0002-00-0003-38.png,0004-00-0004-99.png
00000009,342,0,1443024096136,1443024096184,902,339,0,0,0,3,4,1,34,0003-00-0003-76.png,0004-00-0004-39.png
00000009,343,0,1443024099297,1443024099902,962,346,0,0,0,2,3,1,23,0002-00-0005-05.png,0003-00-0002-18.png
00000009,344,1,1443024103014,1443024103030,894,344,0,0,0,5,4,1,54,0005-00-0005-39.png,0004-00-0005-32.png
00000009,345,0,1443024104038,1443024104058,869,385,0,0,0,4,5,1,45,0004-00-0008-52.png,0005-00-0000-61.png
00000009,346,0,1443024106894,1443024106906,879,318,0,0,0,3,5,2,35,0003-00-0002-95.png,0005-00-0001-40.png
00000009,347,1,1443024109949,1443024110463,933,359,0,0,0,3,2,1,32,0003-00-0000-97.png,0002-00-0001-45.png
00000009,348,1,1443024111298,1443024111746,951,527,0,0,0,4,2,2,42,0004-00-0000-38.png,0002-00-0002-55.png
00000009,349,1,1443024112848,1443024113771,456,222,0,0,0,2,5,3,25,0002-00-0000-15.png,0005-00-0003-44.png
00000009,350,1,1443024114779,1443024115803,447,236,0,0,0,1,2,1,12,0001-00-0002-65.png,0002-00-0006-79.png
00000009,351,1,1443024116796,1443024116872,869,454,0,0,0,5,3,2,53,0005-00-0000-83.png,0003-00-0003-95.png
00000009,352,1,1443024117884,1443024118136,888,514,0,0,0,4,1,3,41,0004-00-0004-83.png,0001-00-0009-07.png
00000009,353,1,1443024119256,1443024119931,901,528,0,0,0,5,2,3,52,0005-00-0003-17.png,0002-00-0001-14.png
00000009,354,1,1443024120909,1443024120937,885,411,0,0,0,3,1,2,31,0003-00-0000-08.png,0001-00-0006-94.png
00000009,355,0,1443024122161,1443024123027,465,253,0,0,0,2,1,1,21,0002-00-0002-78.png,0001-00-0007-05.png
00000009,356,1,1443024125927,1443024126514,497,260,0,0,0,1,4,3,14,0001-00-0008-26.png,0004-00-0001-61.png
00000009,357,0,1443024127445,1443024127623,858,462,0,0,0,1,3,2,13,0001-00-0001-03.png,0003-00-0003-14.png
00000009,358,0,1443024130757,1443024130785,924,327,0,0,0,1,5,4,15,0001-00-0009-45.png,0005-00-0007-84.png
00000009,359,0,1443024133796,1443024135060,453,250,0,0,0,4,3,1,43,0004-00-0009-15.png,0003-00-0003-16.png
00000009,360,1,1443024138248,1443024138785,1102,282,0,0,0,5,1,4,51,0005-00-0004-04.png,0001-00-0008-08.png
00000009,361,1,1443024139599,1443024139679,888,436,0,0,0,5,2,3,52,0005-00-0006-37.png,0002-00-0001-35.png
00000009,362,1,1443024140573,1443024141703,1069,255,0,0,0,2,1,1,21,0002-00-0004-40.png,0001-00-0004-15.png
00000009,363,0,1443024142610,1443024142674,909,390,0,0,0,3,5,2,35,0003-00-0003-56.png,0005-00-0000-66.png
00000009,364,0,1443024145860,1443024145872,895,336,0,0,0,1,3,2,13,0001-00-0009-73.png,0003-00-0003-17.png
00000009,365,1,1443024148971,1443024148999,960,337,0,0,0,3,2,1,32,0003-00-0007-91.png,0002-00-0008-55.png
00000009,366,1,1443024149976,1443024150232,879,495,0,0,0,3,1,2,31,0003-00-0008-31.png,0001-00-0001-69.png
00000009,367,1,1443024151455,1443024152356,485,272,0,0,0,2,4,2,24,0002-00-0009-61.png,0004-00-0000-57.png
00000009,368,1,1443024153281,1443024154521,454,246,0,0,0,3,4,1,34,0003-00-0008-85.png,0004-00-0008-13.png
00000009,369,0,1443024155530,1443024155704,862,488,0,0,0,2,5,3,25,0002-00-0006-18.png,0005-00-0000-91.png
00000009,370,1,1443024158610,1443024159198,964,328,0,0,0,5,4,1,54,0005-00-0004-17.png,0004-00-0006-47.png
00000009,371,1,1443024160036,1443024160088,907,365,0,0,0,5,1,4,51,0005-00-0006-38.png,0001-00-0008-44.png
00000009,372,0,1443024161116,1443024162647,442,276,0,0,0,5,3,2,53,0005-00-0004-03.png,0003-00-0004-89.png
00000009,373,1,1443024165783,1443024166619,458,254,0,0,0,1,5,4,15,0001-00-0006-71.png,0005-00-0003-29.png
00000009,374,1,1443024167494,1443024168202,913,527,0,0,0,4,2,2,42,0004-00-0008-34.png,0002-00-0004-17.png
00000009,375,0,1443024169230,1443024169280,862,438,0,0,0,1,2,1,12,0001-00-0000-13.png,0002-00-0000-14.png
00000009,376,1,1443024172122,1443024172894,473,260,0,0,0,4,5,1,45,0004-00-0000-85.png,0005-00-0000-46.png
00000009,377,0,1443024173773,1443024173801,863,414,0,0,0,2,3,1,23,0002-00-0001-95.png,0003-00-0003-61.png
00000009,378,1,1443024176933,1443024176941,868,336,0,0,0,4,3,1,43,0004-00-0002-62.png,0003-00-0009-81.png
00000009,379,1,1443024177919,1443024177947,874,426,0,0,0,4,1,3,41,0004-00-0006-93.png,0001-00-0001-82.png
00000009,380,0,1443024178949,1443024180008,1073,287,0,0,0,1,4,3,14,0001-00-0007-16.png,0004-00-0009-24.png
00000009,381,0,1443024183132,1443024183176,902,323,0,0,0,3,5,2,35,0003-00-0009-73.png,0005-00-0003-03.png
00000009,382,0,1443024186356,1443024186384,920,332,0,0,0,2,4,2,24,0002-00-0008-67.png,0004-00-0000-51.png
00000009,383,1,1443024189922,1443024189954,913,332,0,0,0,4,3,1,43,0004-00-0004-26.png,0003-00-0006-49.png
00000009,384,0,1443024190958,1443024191018,886,417,0,0,0,2,3,1,23,0002-00-0002-42.png,0003-00-0009-39.png
00000009,385,1,1443024194165,1443024194751,1096,277,0,0,0,3,1,2,31,0003-00-0005-17.png,0001-00-0007-59.png
00000009,386,1,1443024195625,1443024195677,909,405,0,0,0,5,4,1,54,0005-00-0002-59.png,0004-00-0005-27.png
00000009,387,1,1443024196639,1443024197497,463,237,0,0,0,4,5,1,45,0004-00-0008-17.png,0005-00-0006-15.png
00000009,388,1,1443024198426,1443024198478,862,348,0,0,0,5,1,4,51,0005-00-0004-08.png,0001-00-0007-34.png
00000009,389,0,1443024199570,1443024200462,498,256,0,0,0,5,2,3,52,0005-00-0009-16.png,0002-00-0007-36.png
00000009,390,0,1443024203465,1443024203493,861,405,0,0,0,2,5,3,25,0002-00-0006-83.png,0005-00-0003-53.png
00000009,391,1,1443024206558,1443024207278,1089,274,0,0,0,5,3,2,53,0005-00-0001-50.png,0003-00-0003-45.png
00000009,392,0,1443024208144,1443024208216,905,436,0,0,0,1,5,4,15,0001-00-0006-65.png,0005-00-0008-18.png
00000009,393,1,1443024211374,1443024211973,963,344,0,0,0,3,2,1,32,0003-00-0002-45.png,0002-00-0000-96.png
00000009,394,0,1443024212876,1443024212928,895,406,0,0,0,1,3,2,13,0001-00-0007-10.png,0003-00-0007-86.png
00000009,395,0,1443024216037,1443024216065,913,319,0,0,0,3,4,1,34,0003-00-0002-07.png,0004-00-0001-01.png
00000009,396,1,1443024219208,1443024219799,998,327,0,0,0,2,1,1,21,0002-00-0002-09.png,0001-00-0006-52.png
00000009,397,1,1443024220634,1443024221575,481,234,0,0,0,1,4,3,14,0001-00-0009-09.png,0004-00-0006-73.png
00000009,398,1,1443024222588,1443024223599,933,349,0,0,0,4,2,2,42,0004-00-0001-98.png,0002-00-0003-05.png
00000009,399,1,1443024224515,1443024224543,917,390,0,0,0,4,1,3,41,0004-00-0000-41.png,0001-00-0000-49.png
00000009,400,1,1443024225703,1443024226541,460,244,0,0,0,1,2,1,12,0001-00-0006-61.png,0002-00-0002-90.png
00000009,401,1,1443024227765,1443024228280,875,528,0,0,0,4,1,3,41,0004-00-0006-41.png,0001-00-0006-09.png
00000009,402,0,1443024229244,1443024229272,877,356,0,0,0,4,5,1,45,0004-00-0007-26.png,0005-00-0000-71.png
00000009,403,0,1443024232412,1443024232440,892,331,0,0,0,1,4,3,14,0001-00-0004-13.png,0004-00-0006-64.png
00000009,404,1,1443024235553,1443024236229,1061,307,0,0,0,3,1,2,31,0003-00-0002-86.png,0001-00-0000-11.png
00000009,405,0,1443024237786,1443024237837,865,375,0,0,0,1,2,1,12,0001-00-0006-75.png,0002-00-0000-60.png
00000009,406,1,1443024240860,1443024240876,497,499,0,0,0,1,3,2,13,0001-00-0009-88.png,0003-00-0008-03.png
00000009,407,1,1443024241884,1443024241904,869,419,0,0,0,5,2,3,52,0005-00-0000-63.png,0002-00-0005-71.png
00000009,408,1,1443024242886,1443024243761,902,529,0,0,0,5,3,2,53,0005-00-0007-39.png,0003-00-0000-74.png
00000009,409,1,1443024244843,1443024244887,898,407,0,0,0,5,1,4,51,0005-00-0007-96.png,0001-00-0008-05.png
00000009,410,0,1443024246046,1443024246074,858,422,0,0,0,2,5,3,25,0002-00-0000-58.png,0005-00-0001-16.png
00000009,411,1,1443024249148,1443024249781,942,330,0,0,0,4,3,1,43,0004-00-0006-04.png,0003-00-0005-49.png
00000009,412,1,1443024251400,1443024251444,863,403,0,0,0,3,2,1,32,0003-00-0006-48.png,0002-00-0007-09.png
00000009,413,1,1443024252594,1443024253923,935,339,0,0,0,5,4,1,54,0005-00-0008-49.png,0004-00-0006-24.png
00000009,414,0,1443024254892,1443024254928,908,426,0,0,0,2,3,1,23,0002-00-0008-57.png,0003-00-0004-32.png
00000009,415,0,1443024257803,1443024258932,438,249,0,0,0,2,1,1,21,0002-00-0008-51.png,0001-00-0000-31.png
00000009,416,1,1443024262027,1443024263003,432,296,0,0,0,1,5,4,15,0001-00-0007-80.png,0005-00-0005-02.png
00000009,417,0,1443024263853,1443024263921,862,424,0,0,0,3,5,2,35,0003-00-0009-33.png,0005-00-0006-18.png
00000009,418,1,1443024266906,1443024266974,883,398,0,0,0,4,2,2,42,0004-00-0007-77.png,0002-00-0004-33.png
00000009,419,0,1443024267918,1443024267970,913,410,0,0,0,3,4,1,34,0003-00-0001-85.png,0004-00-0009-34.png
00000009,420,1,1443024270869,1443024271480,483,262,0,0,0,2,4,2,24,0002-00-0008-90.png,0004-00-0005-59.png
00000009,421,0,1443024272339,1443024272708,939,514,0,0,0,1,5,4,15,0001-00-0009-88.png,0005-00-0001-18.png
00000009,422,0,1443024275890,1443024275922,905,324,0,0,0,3,4,1,34,0003-00-0002-57.png,0004-00-0000-62.png
00000009,423,0,1443024278841,1443024278881,883,383,0,0,0,2,5,3,25,0002-00-0001-71.png,0005-00-0008-52.png
00000009,424,1,1443024282070,1443024282752,971,350,0,0,0,5,2,3,52,0005-00-0005-28.png,0002-00-0004-26.png
00000009,425,1,1443024283643,1443024283720,921,428,0,0,0,3,1,2,31,0003-00-0008-32.png,0001-00-0002-64.png
00000009,426,1,1443024284681,1443024285370,888,541,0,0,0,5,1,4,51,0005-00-0004-71.png,0001-00-0002-52.png
00000009,427,0,1443024286317,1443024286349,884,415,0,0,0,4,5,1,45,0004-00-0002-43.png,0005-00-0005-48.png
00000009,428,0,1443024289493,1443024289509,888,332,0,0,0,2,3,1,23,0002-00-0009-71.png,0003-00-0009-18.png
00000009,429,1,1443024292663,1443024292679,870,334,0,0,0,2,1,1,21,0002-00-0005-35.png,0001-00-0004-15.png
00000009,430,1,1443024293646,1443024293650,888,436,0,0,0,3,2,1,32,0003-00-0008-42.png,0002-00-0008-47.png
00000009,431,0,1443024294600,1443024295613,492,238,0,0,0,5,3,2,53,0005-00-0004-62.png,0003-00-0005-00.png
00000009,432,0,1443024298485,1443024299377,470,273,0,0,0,5,4,1,54,0005-00-0004-34.png,0004-00-0009-51.png
00000009,433,1,1443024302462,1443024302522,976,355,0,0,0,4,2,2,42,0004-00-0000-92.png,0002-00-0000-60.png
00000009,434,0,1443024303435,1443024303961,924,552,0,0,0,1,4,3,14,0001-00-0006-58.png,0004-00-0009-41.png
00000009,435,0,1443024307161,1443024307186,901,339,0,0,0,1,3,2,13,0001-00-0008-02.png,0003-00-0004-47.png
00000009,436,1,1443024310323,1443024310371,923,330,0,0,0,4,1,3,41,0004-00-0008-50.png,0001-00-0007-87.png
00000009,437,0,1443024311436,1443024312509,1067,267,0,0,0,1,2,1,12,0001-00-0006-96.png,0002-00-0006-00.png
00000009,438,1,1443024315357,1443024315421,932,353,0,0,0,4,3,1,43,0004-00-0008-58.png,0003-00-0001-71.png
00000009,439,0,1443024316463,1443024316503,925,410,0,0,0,3,5,2,35,0003-00-0005-53.png,0005-00-0004-42.png
00000009,440,0,1443024319544,1443024319926,944,380,0,0,0,2,4,2,24,0002-00-0007-59.png,0004-00-0002-10.png
00000009,441,1,1443024322811,1443024323409,960,348,0,0,0,5,2,3,52,0005-00-0008-76.png,0002-00-0001-07.png
00000009,442,1,1443024324311,1443024324359,919,367,0,0,0,5,1,4,51,0005-00-0006-81.png,0001-00-0006-70.png
00000009,443,1,1443024325453,1443024326478,936,332,0,0,0,3,1,2,31,0003-00-0008-38.png,0001-00-0006-63.png
00000009,444,0,1443024327382,1443024327402,895,383,0,0,0,1,2,1,12,0001-00-0003-30.png,0002-00-0000-68.png
00000009,445,1,1443024330593,1443024331345,964,322,0,0,0,4,3,1,43,0004-00-0003-68.png,0003-00-0008-20.png
00000009,446,0,1443024332798,1443024334265,1077,275,0,0,0,2,4,2,24,0002-00-0009-23.png,0004-00-0000-93.png
00000009,447,0,1443024337528,1443024337548,899,337,0,0,0,2,5,3,25,0002-00-0004-02.png,0005-00-0006-34.png
00000009,448,0,1443024340682,1443024340722,935,335,0,0,0,3,4,1,34,0003-00-0008-76.png,0004-00-0003-86.png
00000009,449,1,1443024343900,1443024343928,939,310,0,0,0,5,3,2,53,0005-00-0001-94.png,0003-00-0004-78.png
00000009,450,1,1443024344851,1443024345978,467,230,0,0,0,1,5,4,15,0001-00-0007-19.png,0005-00-0003-66.png
00000009,451,1,1443024346938,1443024347436,875,554,0,0,0,5,4,1,54,0005-00-0007-86.png,0004-00-0004-78.png
00000009,452,0,1443024348601,1443024348831,901,528,0,0,0,1,4,3,14,0001-00-0000-21.png,0004-00-0008-62.png
00000009,453,0,1443024351949,1443024352657,955,332,0,0,0,1,3,2,13,0001-00-0002-08.png,0003-00-0008-72.png
00000009,454,1,1443024356210,1443024356816,1072,281,0,0,0,4,1,3,41,0004-00-0007-94.png,0001-00-0008-46.png
00000009,455,0,1443024357670,1443024357730,902,417,0,0,0,2,3,1,23,0002-00-0000-58.png,0003-00-0002-85.png
00000009,456,1,1443024360578,1443024361565,943,310,0,0,0,4,2,2,42,0004-00-0002-18.png,0002-00-0003-73.png
00000009,457,1,1443024362463,1443024362491,857,446,0,0,0,2,1,1,21,0002-00-0003-82.png,0001-00-0008-71.png
00000009,458,1,1443024363444,1443024365028,383,344,0,0,0,3,5,2,35,0003-00-0001-63.png,0005-00-0003-95.png
00000009,459,1,1443024365917,1443024366089,888,488,0,0,0,3,2,1,32,0003-00-0007-15.png,0002-00-0003-19.png
00000009,460,0,1443024367152,1443024367828,913,541,0,0,0,4,5,1,45,0004-00-0003-89.png,0005-00-0005-02.png
00000009,461,0,1443024370967,1443024371023,926,357,0,0,0,1,2,1,12,0001-00-0003-49.png,0002-00-0003-88.png
00000009,462,0,1443024373869,1443024374584,966,357,0,0,0,3,4,1,34,0003-00-0007-37.png,0004-00-0001-60.png
00000009,463,1,1443024377668,1443024378326,1092,314,0,0,0,5,2,3,52,0005-00-0007-94.png,0002-00-0005-47.png
00000009,464,0,1443024379192,1443024379252,888,410,0,0,0,1,5,4,15,0001-00-0002-12.png,0005-00-0006-94.png
00000009,465,0,1443024382454,1443024383367,1092,287,0,0,0,3,5,2,35,0003-00-0004-01.png,0005-00-0007-31.png
00000009,466,1,1443024386430,1443024386442,870,386,0,0,0,5,3,2,53,0005-00-0009-06.png,0003-00-0005-93.png
00000009,467,1,1443024387416,1443024387823,925,553,0,0,0,5,4,1,54,0005-00-0007-01.png,0004-00-0000-79.png
00000009,468,1,1443024388973,1443024389001,861,413,0,0,0,3,1,2,31,0003-00-0006-33.png,0001-00-0001-03.png
00000009,469,1,1443024390223,1443024390370,913,514,0,0,0,4,3,1,43,0004-00-0002-07.png,0003-00-0001-42.png
00000009,470,0,1443024391646,1443024392884,1064,280,0,0,0,2,3,1,23,0002-00-0001-35.png,0003-00-0003-38.png
00000009,471,1,1443024395773,1443024396454,488,259,0,0,0,1,4,3,14,0001-00-0009-06.png,0004-00-0009-85.png
00000009,472,1,1443024397330,1443024397823,913,541,0,0,0,4,1,3,41,0004-00-0001-26.png,0001-00-0002-24.png
00000009,473,1,1443024398960,1443024398988,869,410,0,0,0,4,2,2,42,0004-00-0004-05.png,0002-00-0002-38.png
00000009,474,0,1443024400281,1443024400541,858,515,0,0,0,1,3,2,13,0001-00-0009-77.png,0003-00-0001-36.png
00000009,475,1,1443024403492,1443024404219,1057,311,0,0,0,3,2,1,32,0003-00-0005-61.png,0002-00-0006-36.png
00000009,476,0,1443024405037,1443024405101,893,429,0,0,0,2,5,3,25,0002-00-0008-89.png,0005-00-0005-49.png
00000009,477,0,1443024408025,1443024408851,1080,306,0,0,0,4,5,1,45,0004-00-0008-04.png,0005-00-0009-28.png
00000009,478,1,1443024412068,1443024412080,937,309,0,0,0,2,1,1,21,0002-00-0006-86.png,0001-00-0009-41.png
00000009,479,1,1443024413014,1443024413390,901,555,0,0,0,5,1,4,51,0005-00-0001-34.png,0001-00-0003-68.png
00000009,480,0,1443024414471,1443024415057,913,541,0,0,0,2,4,2,24,0002-00-0008-34.png,0004-00-0001-20.png
00000009,481,1,1443024418149,1443024418173,873,404,0,0,0,4,3,1,43,0004-00-0002-76.png,0003-00-0007-78.png
00000009,482,0,1443024419112,1443024419140,867,423,0,0,0,2,3,1,23,0002-00-0004-92.png,0003-00-0001-31.png
00000009,483,1,1443024422264,1443024422292,896,324,0,0,0,4,1,3,41,0004-00-0008-29.png,0001-00-0008-14.png
00000009,484,0,1443024423306,1443024423505,939,541,0,0,0,2,5,3,25,0002-00-0002-05.png,0005-00-0004-63.png
00000009,485,1,1443024426606,1443024427152,1063,307,0,0,0,5,4,1,54,0005-00-0006-86.png,0004-00-0005-27.png
00000009,486,0,1443024428002,1443024428074,896,455,0,0,0,3,4,1,34,0003-00-0006-51.png,0004-00-0008-82.png
00000009,487,1,1443024430967,1443024431619,1067,303,0,0,0,5,3,2,53,0005-00-0002-97.png,0003-00-0004-71.png
00000009,488,1,1443024432454,1443024432490,865,390,0,0,0,2,1,1,21,0002-00-0002-60.png,0001-00-0005-33.png
00000009,489,0,1443024433382,1443024433575,913,514,0,0,0,2,4,2,24,0002-00-0009-98.png,0004-00-0006-77.png
00000009,490,1,1443024436473,1443024437265,476,278,0,0,0,1,3,2,13,0001-00-0005-38.png,0003-00-0003-22.png
00000009,491,1,1443024438183,1443024438302,888,514,0,0,0,4,2,2,42,0004-00-0007-33.png,0002-00-0000-81.png
00000009,492,1,1443024439303,1443024439383,876,514,0,0,0,3,2,1,32,0003-00-0005-30.png,0002-00-0001-17.png
00000009,493,0,1443024440801,1443024440883,888,514,0,0,0,1,2,1,12,0001-00-0006-73.png,0002-00-0004-26.png
00000009,494,1,1443024444086,1443024444700,465,253,0,0,0,1,5,4,15,0001-00-0009-99.png,0005-00-0009-23.png
00000009,495,1,1443024445607,1443024445655,868,428,0,0,0,5,2,3,52,0005-00-0008-33.png,0002-00-0002-88.png
00000009,496,1,1443024446628,1443024446656,859,507,0,0,0,3,1,2,31,0003-00-0006-00.png,0001-00-0002-63.png
00000009,497,1,1443024447899,1443024448234,888,541,0,0,0,5,1,4,51,0005-00-0007-86.png,0001-00-0006-33.png
00000009,498,0,1443024449331,1443024449387,875,471,0,0,0,1,4,3,14,0001-00-0001-26.png,0004-00-0006-44.png
00000009,499,0,1443024452629,1443024453519,968,341,0,0,0,3,5,2,35,0003-00-0004-19.png,0005-00-0003-25.png
00000009,500,0,1443024456686,1443024456726,933,328,0,0,0,4,5,1,45,0004-00-0005-98.png,0005-00-0001-54.png
00000009,501,1,1443024459907,1443024460520,1113,277,0,0,0,2,1,1,21,0002-00-0009-33.png,0001-00-0008-55.png
00000009,502,1,1443024461416,1443024461448,891,441,0,0,0,3,1,2,31,0003-00-0007-44.png,0001-00-0003-19.png
00000009,503,0,1443024462397,1443024462544,913,514,0,0,0,3,4,1,34,0003-00-0001-75.png,0004-00-0007-61.png
00000009,504,0,1443024465520,1443024466124,933,349,0,0,0,2,4,2,24,0002-00-0009-83.png,0004-00-0006-67.png
00000009,505,0,1443024468989,1443024469049,511,505,0,0,0,3,2,1,32,0003-00-0000-20.png,0002-00-0001-42.png
00000009,506,0,1443024472177,1443024472230,925,359,0,0,0,1,4,3,14,0001-00-0000-74.png,0004-00-0001-05.png
00000009,507,0,1443024475434,1443024475446,916,326,0,0,0,1,3,2,13,0001-00-0002-80.png,0003-00-0002-02.png
00000009,508,1,1443024478277,1443024479210,453,238,0,0,0,2,5,3,25,0002-00-0003-57.png,0005-00-0009-75.png
00000009,509,1,1443024480115,1443024480286,866,496,0,0,0,4,2,2,42,0004-00-0000-24.png,0002-00-0007-69.png
00000009,510,1,1443024481337,1443024481589,913,541,0,0,0,5,1,4,51,0005-00-0008-66.png,0001-00-0003-81.png
00000009,511,1,1443024482758,1443024483677,467,322,0,0,0,1,5,4,15,0001-00-0004-12.png,0005-00-0005-94.png
00000009,512,1,1443024484886,1443024486216,482,260,0,0,0,3,5,2,35,0003-00-0001-32.png,0005-00-0002-25.png
00000009,513,1,1443024487132,1443024487271,872,499,0,0,0,4,3,1,43,0004-00-0001-77.png,0003-00-0005-98.png
00000009,514,1,1443024488266,1443024489316,392,451,0,0,0,2,3,1,23,0002-00-0006-79.png,0003-00-0007-00.png
00000009,515,0,1443024490240,1443024491103,465,297,0,0,0,5,4,1,54,0005-00-0005-88.png,0004-00-0002-31.png
00000009,516,0,1443024494305,1443024494964,478,264,0,0,0,5,2,3,52,0005-00-0006-74.png,0002-00-0009-85.png
00000009,517,0,1443024498121,1443024498149,924,362,0,0,0,4,5,1,45,0004-00-0000-70.png,0005-00-0006-76.png
00000009,518,1,1443024501359,1443024501383,895,349,0,0,0,4,1,3,41,0004-00-0004-45.png,0001-00-0000-99.png
00000009,519,1,1443024502356,1443024502807,880,470,0,0,0,5,3,2,53,0005-00-0007-58.png,0003-00-0002-84.png
00000009,520,1,1443024503874,1443024504832,394,339,0,0,0,1,2,1,12,0001-00-0000-57.png,0002-00-0002-01.png
00000009,521,0,1443024506043,1443024507172,481,218,0,0,0,5,4,1,54,0005-00-0007-59.png,0004-00-0000-92.png
00000009,522,1,1443024510355,1443024510395,920,336,0,0,0,5,2,3,52,0005-00-0008-72.png,0002-00-0003-21.png
00000009,523,0,1443024511338,1443024511378,888,419,0,0,0,2,5,3,25,0002-00-0008-54.png,0005-00-0007-48.png
00000009,524,1,1443024514946,1443024514962,888,336,0,0,0,3,1,2,31,0003-00-0004-23.png,0001-00-0003-25.png
00000009,525,1,1443024515919,1443024515955,862,462,0,0,0,5,1,4,51,0005-00-0006-92.png,0001-00-0003-28.png
00000009,526,1,1443024516898,1443024517121,913,541,0,0,0,4,3,1,43,0004-00-0006-10.png,0003-00-0002-13.png
00000009,527,0,1443024518103,1443024518848,913,541,0,0,0,3,5,2,35,0003-00-0003-99.png,0005-00-0002-47.png
00000009,528,1,1443024522021,1443024522657,967,326,0,0,0,3,2,1,32,0003-00-0002-11.png,0002-00-0005-75.png
00000009,529,0,1443024523509,1443024523561,912,435,0,0,0,4,5,1,45,0004-00-0000-23.png,0005-00-0001-58.png
00000009,530,1,1443024526988,1443024527838,461,266,0,0,0,1,2,1,12,0001-00-0006-33.png,0002-00-0004-98.png
00000009,531,1,1443024528674,1443024529670,921,356,0,0,0,2,1,1,21,0002-00-0005-37.png,0001-00-0002-59.png
00000009,532,0,1443024530533,1443024530585,888,401,0,0,0,3,4,1,34,0003-00-0008-98.png,0004-00-0000-63.png
00000009,533,0,1443024533804,1443024534492,492,257,0,0,0,4,1,3,41,0004-00-0005-42.png,0001-00-0005-87.png
00000009,534,1,1443024537673,1443024538266,1097,295,0,0,0,5,3,2,53,0005-00-0005-24.png,0003-00-0008-82.png
00000009,535,1,1443024539655,1443024540456,468,262,0,0,0,1,4,3,14,0001-00-0006-20.png,0004-00-0008-98.png
00000009,536,1,1443024541315,1443024542297,522,285,0,0,0,2,3,1,23,0002-00-0008-39.png,0003-00-0001-77.png
00000009,537,1,1443024543335,1443024544133,466,292,0,0,0,1,5,4,15,0001-00-0000-51.png,0005-00-0005-45.png
00000009,538,1,1443024545629,1443024545705,888,500,0,0,0,4,2,2,42,0004-00-0004-29.png,0002-00-0000-90.png
00000009,539,0,1443024546924,1443024547080,888,514,0,0,0,1,3,2,13,0001-00-0006-00.png,0003-00-0001-45.png
00000009,540,1,1443024550320,1443024550964,388,384,0,0,0,2,4,2,24,0002-00-0008-03.png,0004-00-0008-26.png
00000009,541,1,1443024551830,1443024552799,1041,268,0,0,0,4,1,3,41,0004-00-0003-33.png,0001-00-0000-49.png
00000009,542,1,1443024553817,1443024553845,919,403,0,0,0,5,3,2,53,0005-00-0002-47.png,0003-00-0009-64.png
00000009,543,1,1443024555058,1443024555066,862,452,0,0,0,5,4,1,54,0005-00-0004-09.png,0004-00-0001-94.png
00000009,544,1,1443024556210,1443024556250,870,460,0,0,0,2,1,1,21,0002-00-0006-60.png,0001-00-0001-63.png
00000009,545,0,1443024557521,1443024558042,875,528,0,0,0,4,5,1,45,0004-00-0000-74.png,0005-00-0006-37.png
00000009,546,1,1443024561249,1443024561269,926,332,0,0,0,5,2,3,52,0005-00-0007-09.png,0002-00-0000-81.png
00000009,547,1,1443024562246,1443024562290,873,404,0,0,0,3,2,1,32,0003-00-0003-40.png,0002-00-0004-18.png
00000009,548,0,1443024563272,1443024564056,888,541,0,0,0,3,4,1,34,0003-00-0006-76.png,0004-00-0007-09.png
00000009,549,1,1443024566995,1443024567731,480,287,0,0,0,1,5,4,15,0001-00-0006-60.png,0005-00-0004-47.png
00000009,550,0,1443024568602,1443024569127,939,541,0,0,0,1,4,3,14,0001-00-0009-41.png,0004-00-0009-84.png
00000009,551,1,1443024572312,1443024573135,1120,280,0,0,0,4,3,1,43,0004-00-0001-57.png,0003-00-0007-29.png
00000009,552,0,1443024574021,1443024574114,900,436,0,0,0,1,3,2,13,0001-00-0007-37.png,0003-00-0004-68.png
00000009,553,1,1443024577310,1443024577334,939,332,0,0,0,3,1,2,31,0003-00-0004-70.png,0001-00-0008-44.png
00000009,554,1,1443024578265,1443024578313,896,427,0,0,0,4,2,2,42,0004-00-0008-49.png,0002-00-0007-49.png
00000009,555,0,1443024579293,1443024580464,1044,307,0,0,0,2,4,2,24,0002-00-0007-89.png,0004-00-0001-63.png
00000009,556,1,1443024583898,1443024584517,514,280,0,0,0,1,2,1,12,0001-00-0008-31.png,0002-00-0009-74.png
00000009,557,0,1443024585367,1443024585427,862,399,0,0,0,3,5,2,35,0003-00-0008-81.png,0005-00-0007-86.png
00000009,558,0,1443024588578,1443024589488,1091,302,0,0,0,2,5,3,25,0002-00-0009-69.png,0005-00-0002-45.png
00000009,559,1,1443024592574,1443024593188,515,286,0,0,0,2,3,1,23,0002-00-0009-10.png,0003-00-0003-77.png
00000009,560,1,1443024594042,1443024594090,885,420,0,0,0,5,1,4,51,0005-00-0006-25.png,0001-00-0008-72.png
00000009,561,0,1443024594955,1443024596264,917,334,0,0,0,1,3,2,13,0001-00-0003-41.png,0003-00-0008-25.png
00000009,562,1,1443024599383,1443024599393,902,355,0,0,0,4,3,1,43,0004-00-0008-90.png,0003-00-0008-94.png
00000009,563,1,1443024600272,1443024600727,927,555,0,0,0,5,4,1,54,0005-00-0001-78.png,0004-00-0000-32.png
00000009,564,1,1443024601835,1443024601896,881,420,0,0,0,2,1,1,21,0002-00-0003-91.png,0001-00-0003-28.png
00000009,565,1,1443024602959,1443024603653,913,541,0,0,0,5,1,4,51,0005-00-0000-04.png,0001-00-0008-69.png
00000009,566,0,1443024604687,1443024604708,912,399,0,0,0,1,4,3,14,0001-00-0007-59.png,0004-00-0002-88.png
00000009,567,0,1443024607897,1443024608616,1068,283,0,0,0,3,5,2,35,0003-00-0006-32.png,0005-00-0004-09.png
00000009,568,1,1443024611645,1443024612405,481,268,0,0,0,3,4,1,34,0003-00-0007-98.png,0004-00-0002-71.png
00000009,569,0,1443024613346,1443024613434,913,514,0,0,0,4,5,1,45,0004-00-0000-50.png,0005-00-0002-49.png
00000009,570,0,1443024616563,1443024617317,497,266,0,0,0,3,1,2,31,0003-00-0009-16.png,0001-00-0005-01.png
00000009,571,0,1443024620167,1443024620199,868,466,0,0,0,1,5,4,15,0001-00-0000-91.png,0005-00-0002-65.png
00000009,572,0,1443024623401,1443024623405,888,358,0,0,0,2,4,2,24,0002-00-0007-67.png,0004-00-0006-42.png
00000009,573,0,1443024626570,1443024626602,888,355,0,0,0,2,3,1,23,0002-00-0001-64.png,0003-00-0005-42.png
00000009,574,1,1443024630138,1443024630158,903,322,0,0,0,4,2,2,42,0004-00-0002-44.png,0002-00-0001-88.png
00000009,575,0,1443024631170,1443024631645,888,541,0,0,0,1,2,1,12,0001-00-0009-50.png,0002-00-0005-21.png
00000009,576,1,1443024634878,1443024635595,473,260,0,0,0,2,5,3,25,0002-00-0007-14.png,0005-00-0008-42.png
00000009,577,0,1443024636506,1443024638424,452,255,0,0,0,5,3,2,53,0005-00-0002-81.png,0003-00-0007-39.png
00000009,578,1,1443024641623,1443024642522,1067,306,0,0,0,5,2,3,52,0005-00-0009-42.png,0002-00-0009-75.png
00000009,579,1,1443024643403,1443024643442,874,410,0,0,0,3,2,1,32,0003-00-0003-07.png,0002-00-0008-79.png
00000009,580,1,1443024644503,1443024645155,888,541,0,0,0,4,1,3,41,0004-00-0003-29.png,0001-00-0000-97.png
00000009,581,1,1443024645996,1443024646012,886,391,0,0,0,4,3,1,43,0004-00-0003-64.png,0003-00-0002-49.png
00000009,582,1,1443024647617,1443024648416,479,263,0,0,0,1,5,4,15,0001-00-0008-77.png,0005-00-0001-15.png
00000009,583,1,1443024649266,1443024650165,384,426,0,0,0,1,2,1,12,0001-00-0003-10.png,0002-00-0007-83.png
00000009,584,1,1443024651393,1443024652202,991,277,0,0,0,5,1,4,51,0005-00-0001-51.png,0001-00-0001-70.png
00000009,585,1,1443024653755,1443024653787,859,399,0,0,0,3,1,2,31,0003-00-0008-81.png,0001-00-0007-26.png
00000009,586,0,1443024654901,1443024654937,862,394,0,0,0,4,5,1,45,0004-00-0000-58.png,0005-00-0004-32.png
00000009,587,1,1443024658178,1443024658912,478,269,0,0,0,2,4,2,24,0002-00-0004-39.png,0004-00-0009-76.png
00000009,588,0,1443024659767,1443024660837,917,353,0,0,0,3,4,1,34,0003-00-0000-38.png,0004-00-0009-89.png
00000009,589,1,1443024663924,1443024664579,975,334,0,0,0,3,2,1,32,0003-00-0005-44.png,0002-00-0008-77.png
00000009,590,1,1443024665419,1443024665455,891,388,0,0,0,5,2,3,52,0005-00-0002-02.png,0002-00-0003-12.png
00000009,591,1,1443024666314,1443024667149,512,313,0,0,0,2,5,3,25,0002-00-0007-51.png,0005-00-0001-50.png
00000009,592,1,1443024668253,1443024669225,963,282,0,0,0,4,2,2,42,0004-00-0009-31.png,0002-00-0007-57.png
00000009,593,0,1443024670164,1443024670180,862,410,0,0,0,3,5,2,35,0003-00-0001-55.png,0005-00-0007-53.png
00000009,594,1,1443024673372,1443024673388,873,343,0,0,0,5,4,1,54,0005-00-0000-60.png,0004-00-0004-03.png
00000009,595,0,1443024674346,1443024674398,885,446,0,0,0,1,4,3,14,0001-00-0007-95.png,0004-00-0003-96.png
00000009,596,1,1443024677544,1443024678156,1089,279,0,0,0,4,1,3,41,0004-00-0002-58.png,0001-00-0001-16.png
00000009,597,0,1443024679005,1443024679057,880,364,0,0,0,1,3,2,13,0001-00-0003-85.png,0003-00-0002-63.png
00000009,598,1,1443024682188,1443024682220,888,332,0,0,0,2,1,1,21,0002-00-0003-30.png,0001-00-0009-02.png
00000009,599,0,1443024683141,1443024683165,858,412,0,0,0,2,3,1,23,0002-00-0009-97.png,0003-00-0005-47.png
00000009,600,1,1443024686369,1443024687105,1097,282,0,0,0,5,3,2,53,0005-00-0003-13.png,0003-00-0006-53.png
00000009,601,0,1443024687935,1443024688011,921,400,0,0,0,1,4,3,14,0001-00-0004-64.png,0004-00-0006-94.png
00000009,602,1,1443024691089,1443024691129,913,358,0,0,0,4,1,3,41,0004-00-0007-02.png,0001-00-0004-79.png
00000009,603,1,1443024692075,1443024692123,884,396,0,0,0,4,2,2,42,0004-00-0002-22.png,0002-00-0000-49.png
00000009,604,0,1443024693076,1443024693882,945,337,0,0,0,1,2,1,12,0001-00-0004-95.png,0002-00-0008-18.png
00000009,605,1,1443024696922,1443024696942,875,380,0,0,0,3,2,1,32,0003-00-0008-75.png,0002-00-0007-90.png
00000009,606,1,1443024697926,1443024697990,913,514,0,0,0,5,4,1,54,0005-00-0001-63.png,0004-00-0007-02.png
00000009,607,0,1443024698958,1443024699832,949,335,0,0,0,2,3,1,23,0002-00-0008-10.png,0003-00-0000-77.png
00000009,608,0,1443024702894,1443024702914,899,387,0,0,0,2,4,2,24,0002-00-0003-13.png,0004-00-0007-63.png
00000009,609,1,1443024706104,1443024706719,449,453,0,0,0,1,5,4,15,0001-00-0000-30.png,0005-00-0000-34.png
00000009,610,0,1443024707616,1443024708349,457,340,0,0,0,5,3,2,53,0005-00-0008-28.png,0003-00-0005-47.png
00000009,611,1,1443024711282,1443024712144,444,266,0,0,0,1,3,2,13,0001-00-0003-84.png,0003-00-0009-82.png
00000009,612,1,1443024713595,1443024714400,475,278,0,0,0,3,4,1,34,0003-00-0004-52.png,0004-00-0005-13.png
00000009,613,1,1443024715355,1443024715395,860,467,0,0,0,4,3,1,43,0004-00-0003-73.png,0003-00-0000-09.png
00000009,614,0,1443024716520,1443024716969,899,552,0,0,0,3,5,2,35,0003-00-0003-33.png,0005-00-0000-51.png
00000009,615,0,1443024719895,1443024720751,463,250,0,0,0,3,1,2,31,0003-00-0007-31.png,0001-00-0005-66.png
00000009,616,1,1443024723602,1443024724349,933,359,0,0,0,5,2,3,52,0005-00-0005-42.png,0002-00-0007-66.png
00000009,617,0,1443024725225,1443024725273,889,460,0,0,0,4,5,1,45,0004-00-0003-52.png,0005-00-0001-05.png
00000009,618,0,1443024728215,1443024729039,928,359,0,0,0,2,5,3,25,0002-00-0005-64.png,0005-00-0008-17.png
00000009,619,1,1443024732198,1443024732226,908,328,0,0,0,2,1,1,21,0002-00-0002-52.png,0001-00-0002-23.png
00000009,620,1,1443024733213,1443024733261,878,436,0,0,0,5,1,4,51,0005-00-0006-97.png,0001-00-0004-72.png
00000009,621,0,1443024734314,1443024735085,515,347,0,0,0,3,2,1,32,0003-00-0009-05.png,0002-00-0004-66.png
00000009,622,1,1443024737937,1443024738597,485,244,0,0,0,2,5,3,25,0002-00-0006-37.png,0005-00-0006-83.png
00000009,623,0,1443024739442,1443024739651,888,541,0,0,0,2,4,2,24,0002-00-0004-75.png,0004-00-0002-32.png
00000009,624,1,1443024742850,1443024743443,1061,289,0,0,0,4,2,2,42,0004-00-0008-21.png,0002-00-0002-98.png
00000009,625,0,1443024744280,1443024744352,888,436,0,0,0,2,3,1,23,0002-00-0002-28.png,0003-00-0004-46.png
00000009,626,0,1443024747491,1443024747531,886,332,0,0,0,1,3,2,13,0001-00-0002-86.png,0003-00-0005-17.png
00000009,627,1,1443024750533,1443024751166,484,281,0,0,0,4,5,1,45,0004-00-0005-94.png,0005-00-0000-90.png
00000009,628,1,1443024752022,1443024752050,867,413,0,0,0,4,3,1,43,0004-00-0004-51.png,0003-00-0006-34.png
00000009,629,0,1443024753025,1443024753594,888,541,0,0,0,1,4,3,14,0001-00-0005-89.png,0004-00-0008-38.png
00000009,630,1,1443024756830,1443024757496,488,254,0,0,0,1,5,4,15,0001-00-0007-83.png,0005-00-0004-80.png
00000009,631,1,1443024758351,1443024759165,1020,276,0,0,0,3,1,2,31,0003-00-0004-79.png,0001-00-0009-44.png
00000009,632,1,1443024760030,1443024760858,464,265,0,0,0,3,4,1,34,0003-00-0003-97.png,0004-00-0001-60.png
00000009,633,0,1443024761957,1443024763170,460,220,0,0,0,2,1,1,21,0002-00-0002-23.png,0001-00-0007-68.png
00000009,634,1,1443024766285,1443024766313,924,370,0,0,0,5,4,1,54,0005-00-0001-48.png,0004-00-0004-30.png
00000009,635,1,1443024767198,1443024767230,857,438,0,0,0,5,3,2,53,0005-00-0005-28.png,0003-00-0002-02.png
00000009,636,0,1443024768119,1443024769333,419,470,0,0,0,5,2,3,52,0005-00-0006-94.png,0002-00-0005-13.png
00000009,637,1,1443024772435,1443024773225,427,410,0,0,0,1,2,1,12,0001-00-0006-98.png,0002-00-0009-16.png
00000009,638,1,1443024774092,1443024774136,868,448,0,0,0,4,1,3,41,0004-00-0006-63.png,0001-00-0008-56.png
00000009,639,1,1443024775097,1443024775628,888,541,0,0,0,5,1,4,51,0005-00-0003-48.png,0001-00-0002-29.png
00000009,640,0,1443024776706,1443024776778,879,436,0,0,0,3,5,2,35,0003-00-0001-31.png,0005-00-0007-49.png
00000009,641,0,1443024779937,1443024780691,493,253,0,0,0,4,2,2,42,0004-00-0009-14.png,0002-00-0002-69.png
00000009,642,1,1443024783853,1443024784447,1092,297,0,0,0,3,2,1,32,0003-00-0006-24.png,0002-00-0004-49.png
00000009,643,1,1443024785304,1443024786502,943,339,0,0,0,5,3,2,53,0005-00-0003-74.png,0003-00-0006-72.png
00000009,644,0,1443024787418,1443024787450,906,411,0,0,0,1,3,2,13,0001-00-0000-78.png,0003-00-0002-07.png
00000009,645,1,1443024790587,1443024791417,415,436,0,0,0,2,4,2,24,0002-00-0008-60.png,0004-00-0008-82.png
00000009,646,1,1443024792359,1443024792383,882,463,0,0,0,4,1,3,41,0004-00-0003-65.png,0001-00-0004-10.png
00000009,647,0,1443024793738,1443024793928,913,541,0,0,0,1,4,3,14,0001-00-0009-74.png,0004-00-0006-03.png
00000009,648,1,1443024797092,1443024797722,956,364,0,0,0,5,1,4,51,0005-00-0002-57.png,0001-00-0006-80.png
00000009,649,0,1443024798630,1443024798694,916,403,0,0,0,1,5,4,15,0001-00-0003-41.png,0005-00-0000-75.png
00000009,650,1,1443024801906,1443024802553,487,258,0,0,0,2,3,1,23,0002-00-0008-02.png,0003-00-0005-32.png
00000009,651,0,1443024803399,1443024803807,925,526,0,0,0,2,5,3,25,0002-00-0003-95.png,0005-00-0007-42.png
00000009,652,0,1443024806956,1443024807839,481,283,0,0,0,5,4,1,54,0005-00-0002-32.png,0004-00-0003-27.png
00000009,653,1,1443024810923,1443024811739,478,266,0,0,0,4,5,1,45,0004-00-0000-68.png,0005-00-0006-19.png
00000009,654,0,1443024812681,1443024812873,904,462,0,0,0,3,4,1,34,0003-00-0003-89.png,0004-00-0009-12.png
00000009,655,1,1443024815969,1443024816575,497,257,0,0,0,1,2,1,12,0001-00-0000-66.png,0002-00-0008-21.png
00000009,656,1,1443024817438,1443024818574,923,351,0,0,0,5,2,3,52,0005-00-0003-52.png,0002-00-0000-96.png
00000009,657,1,1443024819516,1443024819544,870,387,0,0,0,2,1,1,21,0002-00-0002-13.png,0001-00-0009-05.png
00000009,658,1,1443024820647,1443024821268,888,514,0,0,0,3,1,2,31,0003-00-0000-34.png,0001-00-0003-68.png
00000009,659,0,1443024822923,1443024822947,878,410,0,0,0,3,5,2,35,0003-00-0005-95.png,0005-00-0008-33.png
00000009,660,1,1443024825813,1443024826825,963,236,0,0,0,4,3,1,43,0004-00-0001-16.png,0003-00-0003-49.png
00000009,661,1,1443024827706,1443024827746,888,410,0,0,0,3,1,2,31,0003-00-0007-70.png,0001-00-0004-03.png
00000009,662,1,1443024828737,1443024829470,872,488,0,0,0,3,2,1,32,0003-00-0000-64.png,0002-00-0007-94.png
00000009,663,0,1443024830554,1443024831720,943,321,0,0,0,4,5,1,45,0004-00-0005-13.png,0005-00-0002-80.png
00000009,664,1,1443024834600,1443024834640,523,457,0,0,0,2,5,3,25,0002-00-0001-78.png,0005-00-0008-32.png
00000009,665,1,1443024835706,1443024835750,904,419,0,0,0,5,4,1,54,0005-00-0008-96.png,0004-00-0001-42.png
00000009,666,1,1443024836737,1443024838147,1066,279,0,0,0,5,3,2,53,0005-00-0001-49.png,0003-00-0000-87.png
00000009,667,0,1443024839133,1443024839153,900,389,0,0,0,1,3,2,13,0001-00-0007-37.png,0003-00-0006-30.png
00000009,668,0,1443024842363,1443024843027,1082,299,0,0,0,3,5,2,35,0003-00-0000-94.png,0005-00-0009-62.png
00000009,669,1,1443024846208,1443024846976,500,240,0,0,0,1,2,1,12,0001-00-0009-67.png,0002-00-0000-51.png
00000009,670,1,1443024847907,1443024848422,876,479,0,0,0,4,2,2,42,0004-00-0004-53.png,0002-00-0008-73.png
00000009,671,1,1443024849366,1443024849406,880,438,0,0,0,4,3,1,43,0004-00-0000-83.png,0003-00-0005-51.png
00000009,672,0,1443024850429,1443024850469,878,414,0,0,0,3,4,1,34,0003-00-0000-80.png,0004-00-0004-35.png
00000009,673,1,1443024853633,1443024853665,927,336,0,0,0,5,1,4,51,0005-00-0006-93.png,0001-00-0005-01.png
00000009,674,0,1443024854615,1443024854667,908,438,0,0,0,1,5,4,15,0001-00-0007-88.png,0005-00-0005-82.png
00000009,675,0,1443024857803,1443024857851,906,359,0,0,0,2,4,2,24,0002-00-0000-42.png,0004-00-0002-28.png
00000009,676,1,1443024860693,1443024861319,1086,311,0,0,0,5,2,3,52,0005-00-0003-83.png,0002-00-0004-87.png
00000009,677,0,1443024862156,1443024862188,888,410,0,0,0,2,3,1,23,0002-00-0002-09.png,0003-00-0005-61.png
00000009,678,1,1443024865016,1443024865640,1096,280,0,0,0,4,1,3,41,0004-00-0001-51.png,0001-00-0001-60.png
00000009,679,1,1443024866477,1443024866497,913,394,0,0,0,2,1,1,21,0002-00-0007-29.png,0001-00-0003-68.png
00000009,680,1,1443024867589,1443024869019,350,379,0,0,0,1,4,3,14,0001-00-0009-69.png,0004-00-0009-03.png
00000009,681,0,1443024870024,1443024870171,913,541,0,0,0,3,5,2,35,0003-00-0006-50.png,0005-00-0009-53.png
00000009,682,1,1443024873276,1443024873879,1088,288,0,0,0,4,1,3,41,0004-00-0009-98.png,0001-00-0005-31.png
00000009,683,0,1443024874705,1443024874737,867,359,0,0,0,1,4,3,14,0001-00-0008-61.png,0004-00-0005-68.png
00000009,684,1,1443024877746,1443024878299,961,351,0,0,0,3,1,2,31,0003-00-0006-62.png,0001-00-0002-04.png
00000009,685,0,1443024879166,1443024879705,875,514,0,0,0,1,5,4,15,0001-00-0007-80.png,0005-00-0006-92.png
00000009,686,0,1443024882815,1443024882867,933,351,0,0,0,1,2,1,12,0001-00-0002-66.png,0002-00-0003-97.png
00000009,687,0,1443024886093,1443024886148,888,332,0,0,0,2,3,1,23,0002-00-0002-43.png,0003-00-0007-79.png
00000009,688,1,1443024889205,1443024889957,1067,316,0,0,0,4,3,1,43,0004-00-0006-32.png,0003-00-0006-29.png
00000009,689,1,1443024890821,1443024890873,861,439,0,0,0,5,4,1,54,0005-00-0008-02.png,0004-00-0000-67.png
00000009,690,1,1443024891766,1443024892606,493,387,0,0,0,2,4,2,24,0002-00-0009-83.png,0004-00-0009-83.png
00000009,691,0,1443024893664,1443024894687,518,252,0,0,0,5,3,2,53,0005-00-0007-21.png,0003-00-0002-08.png
00000009,692,1,1443024897551,1443024898104,951,363,0,0,0,4,2,2,42,0004-00-0008-67.png,0002-00-0004-00.png
00000009,693,1,1443024898959,1443024898987,866,415,0,0,0,3,2,1,32,0003-00-0001-77.png,0002-00-0009-94.png
00000009,694,1,1443024899904,1443024900914,1038,290,0,0,0,2,1,1,21,0002-00-0008-00.png,0001-00-0006-36.png
00000009,695,1,1443024901792,1443024901828,887,408,0,0,0,5,2,3,52,0005-00-0008-51.png,0002-00-0002-48.png
00000009,696,0,1443024902895,1443024903110,913,541,0,0,0,3,4,1,34,0003-00-0009-11.png,0004-00-0000-41.png
00000009,697,1,1443024906247,1443024907031,456,287,0,0,0,4,5,1,45,0004-00-0002-73.png,0005-00-0009-93.png
00000009,698,0,1443024907903,1443024907958,889,420,0,0,0,2,5,3,25,0002-00-0005-67.png,0005-00-0006-20.png
00000009,699,0,1443024911135,1443024911826,1115,281,0,0,0,1,3,2,13,0001-00-0000-73.png,0003-00-0006-14.png
00000009,700,1,1443024914972,1443024915563,1095,292,0,0,0,5,1,4,51,0005-00-0004-34.png,0001-00-0003-93.png
00000009,701,0,1443024916420,1443024916444,888,417,0,0,0,2,5,3,25,0002-00-0003-21.png,0005-00-0002-85.png
00000009,702,0,1443024919634,1443024919650,900,332,0,0,0,2,3,1,23,0002-00-0006-28.png,0003-00-0006-49.png
00000009,703,1,1443024922703,1443024923256,516,263,0,0,0,1,5,4,15,0001-00-0008-12.png,0005-00-0000-53.png
00000009,704,0,1443024924102,1443024924470,864,485,0,0,0,3,5,2,35,0003-00-0008-03.png,0005-00-0006-14.png
00000009,705,0,1443024927593,1443024927621,927,360,0,0,0,1,3,2,13,0001-00-0004-83.png,0003-00-0006-88.png
00000009,706,1,1443024930614,1443024931229,1088,330,0,0,0,5,2,3,52,0005-00-0008-50.png,0002-00-0008-85.png
00000009,707,0,1443024932061,1443024932125,902,417,0,0,0,1,2,1,12,0001-00-0004-81.png,0002-00-0004-65.png
00000009,708,0,1443024935086,1443024935760,974,358,0,0,0,4,5,1,45,0004-00-0001-93.png,0005-00-0001-81.png
00000009,709,1,1443024938653,1443024939487,472,289,0,0,0,2,4,2,24,0002-00-0007-72.png,0004-00-0006-26.png
00000009,710,1,1443024940431,1443024940902,901,555,0,0,0,4,2,2,42,0004-00-0003-50.png,0002-00-0007-03.png
00000009,711,1,1443024941982,1443024942388,914,512,0,0,0,3,2,1,32,0003-00-0001-97.png,0002-00-0009-07.png
00000009,712,0,1443024943570,1443024944461,471,269,0,0,0,4,3,1,43,0004-00-0000-80.png,0003-00-0009-04.png
00000009,713,1,1443024948072,1443024948939,965,353,0,0,0,5,1,4,51,0005-00-0008-31.png,0001-00-0008-57.png
00000009,714,0,1443024950345,1443024950381,859,410,0,0,0,1,4,3,14,0001-00-0008-62.png,0004-00-0009-47.png
00000009,715,0,1443024953390,1443024954112,459,269,0,0,0,5,4,1,54,0005-00-0005-71.png,0004-00-0008-60.png
00000009,716,1,1443024957313,1443024957329,913,306,0,0,0,2,1,1,21,0002-00-0000-81.png,0001-00-0002-95.png
00000009,717,0,1443024958347,1443024958375,870,436,0,0,0,3,4,1,34,0003-00-0008-15.png,0004-00-0008-05.png
00000009,718,1,1443024961597,1443024961892,878,328,0,0,0,3,1,2,31,0003-00-0005-56.png,0001-00-0008-54.png
00000009,719,1,1443024962778,1443024962811,885,409,0,0,0,5,3,2,53,0005-00-0005-51.png,0003-00-0009-30.png
00000009,720,1,1443024963761,1443024964424,888,514,0,0,0,4,1,3,41,0004-00-0007-92.png,0001-00-0007-54.png
00000009,721,1,1443024965472,1443024965504,932,456,0,0,0,5,3,2,53,0005-00-0002-34.png,0003-00-0003-40.png
00000009,722,1,1443024967172,1443024967991,476,262,0,0,0,2,5,3,25,0002-00-0002-82.png,0005-00-0001-29.png
00000009,723,1,1443024968951,1443024969810,965,356,0,0,0,3,2,1,32,0003-00-0002-59.png,0002-00-0008-86.png
00000009,724,0,1443024970666,1443024970746,913,436,0,0,0,3,5,2,35,0003-00-0008-47.png,0005-00-0001-55.png
00000009,725,1,1443024974039,1443024974624,498,262,0,0,0,2,4,2,24,0002-00-0005-50.png,0004-00-0004-65.png
00000009,726,1,1443024975576,1443024975628,917,462,0,0,0,5,2,3,52,0005-00-0008-95.png,0002-00-0004-94.png
00000009,727,1,1443024976797,1443024977209,913,541,0,0,0,3,1,2,31,0003-00-0000-70.png,0001-00-0004-67.png
00000009,728,1,1443024978346,1443024978370,861,411,0,0,0,4,1,3,41,0004-00-0007-45.png,0001-00-0008-14.png
00000009,729,0,1443024979526,1443024979564,889,424,0,0,0,1,5,4,15,0001-00-0005-77.png,0005-00-0009-90.png
00000009,730,1,1443024982722,1443024983287,507,260,0,0,0,1,4,3,14,0001-00-0006-70.png,0004-00-0007-74.png
00000009,731,0,1443024984181,1443024984633,928,529,0,0,0,1,2,1,12,0001-00-0005-67.png,0002-00-0003-80.png
00000009,732,1,1443024987631,1443024988604,464,263,0,0,0,1,3,2,13,0001-00-0003-57.png,0003-00-0000-33.png
00000009,733,1,1443024989507,1443024989530,863,460,0,0,0,5,4,1,54,0005-00-0001-95.png,0004-00-0000-83.png
00000009,734,1,1443024990568,1443024991384,913,541,0,0,0,4,3,1,43,0004-00-0006-71.png,0003-00-0007-03.png
00000009,735,0,1443024992488,1443024992698,886,494,0,0,0,2,3,1,23,0002-00-0009-07.png,0003-00-0001-70.png
00000009,736,1,1443024995717,1443024996421,1063,308,0,0,0,2,1,1,21,0002-00-0002-90.png,0001-00-0003-32.png
00000009,737,1,1443024997240,1443024997296,925,429,0,0,0,5,1,4,51,0005-00-0004-99.png,0001-00-0008-19.png
00000009,738,0,1443024998251,1443024998598,913,541,0,0,0,4,5,1,45,0004-00-0004-63.png,0005-00-0003-87.png
00000009,739,1,1443025001609,1443025002176,947,356,0,0,0,4,2,2,42,0004-00-0000-98.png,0002-00-0007-81.png
00000009,740,0,1443025003012,1443025003052,904,408,0,0,0,3,4,1,34,0003-00-0003-35.png,0004-00-0001-22.png
00000009,741,1,1443025006144,1443025006200,913,358,0,0,0,5,3,2,53,0005-00-0003-37.png,0003-00-0002-01.png
00000009,742,0,1443025007147,1443025007179,884,437,0,0,0,1,5,4,15,0001-00-0008-87.png,0005-00-0005-50.png
00000009,743,0,1443025010436,1443025010982,960,330,0,0,0,1,2,1,12,0001-00-0000-64.png,0002-00-0003-75.png
00000009,744,0,1443025014033,1443025014719,486,283,0,0,0,5,4,1,54,0005-00-0003-71.png,0004-00-0007-87.png
00000009,745,0,1443025017919,1443025017967,919,326,0,0,0,2,3,1,23,0002-00-0003-45.png,0003-00-0007-07.png
00000009,746,0,1443025021228,1443025021264,888,306,0,0,0,3,5,2,35,0003-00-0003-80.png,0005-00-0005-80.png
00000009,747,1,1443025024803,1443025025398,957,339,0,0,0,3,2,1,32,0003-00-0005-80.png,0002-00-0005-46.png
00000009,748,1,1443025026273,1443025026353,861,406,0,0,0,4,2,2,42,0004-00-0006-18.png,0002-00-0000-89.png
00000009,749,0,1443025027298,1443025028603,1076,282,0,0,0,1,4,3,14,0001-00-0007-26.png,0004-00-0009-11.png
00000009,750,1,1443025031513,1443025032207,492,272,0,0,0,1,3,2,13,0001-00-0001-97.png,0003-00-0004-42.png
00000009,751,0,1443025033091,1443025034289,485,251,0,0,0,5,2,3,52,0005-00-0009-03.png,0002-00-0007-63.png
00000009,752,0,1443025037455,1443025038090,510,270,0,0,0,4,3,1,43,0004-00-0003-68.png,0003-00-0004-99.png
00000009,753,1,1443025041133,1443025041865,459,314,0,0,0,4,5,1,45,0004-00-0007-69.png,0005-00-0000-30.png
00000009,754,1,1443025042751,1443025043214,902,529,0,0,0,5,1,4,51,0005-00-0008-30.png,0001-00-0005-71.png
00000009,755,1,1443025044360,1443025044854,872,488,0,0,0,4,1,3,41,0004-00-0008-61.png,0001-00-0008-06.png
00000009,756,1,1443025045978,1443025047421,478,241,0,0,0,2,5,3,25,0002-00-0006-65.png,0005-00-0006-73.png
00000009,757,0,1443025048393,1443025048505,862,488,0,0,0,3,4,1,34,0003-00-0008-97.png,0004-00-0003-09.png
00000009,758,1,1443025051331,1443025051871,1052,308,0,0,0,3,1,2,31,0003-00-0003-64.png,0001-00-0004-84.png
00000009,759,0,1443025052737,1443025052769,892,419,0,0,0,2,4,2,24,0002-00-0007-80.png,0004-00-0009-55.png
00000009,760,1,1443025055929,1443025056560,1093,284,0,0,0,2,1,1,21,0002-00-0005-27.png,0001-00-0009-79.png
00000009,761,1,1443025058071,1443025058132,880,417,0,0,0,4,3,1,43,0004-00-0004-68.png,0003-00-0001-77.png
00000009,762,0,1443025059195,1443025059207,869,434,0,0,0,2,4,2,24,0002-00-0004-85.png,0004-00-0006-54.png
00000009,763,0,1443025062387,1443025063088,954,349,0,0,0,2,5,3,25,0002-00-0005-88.png,0005-00-0009-56.png
00000009,764,1,1443025066203,1443025066231,881,353,0,0,0,3,1,2,31,0003-00-0003-90.png,0001-00-0009-62.png
00000009,765,0,1443025067124,1443025067691,939,541,0,0,0,1,4,3,14,0001-00-0004-21.png,0004-00-0006-35.png
00000009,766,0,1443025070864,1443025070915,902,358,0,0,0,1,3,2,13,0001-00-0008-53.png,0003-00-0000-50.png
00000009,767,1,1443025073993,1443025074638,995,390,0,0,0,5,1,4,51,0005-00-0008-20.png,0001-00-0003-00.png
00000009,768,1,1443025075851,1443025075931,888,342,0,0,0,5,4,1,54,0005-00-0002-65.png,0004-00-0000-86.png
00000009,769,1,1443025076943,1443025078515,481,259,0,0,0,3,5,2,35,0003-00-0005-86.png,0005-00-0004-17.png
00000009,770,1,1443025079467,1443025080418,1027,279,0,0,0,4,2,2,42,0004-00-0002-68.png,0002-00-0002-47.png
00000009,771,1,1443025081396,1443025081448,879,462,0,0,0,5,2,3,52,0005-00-0006-48.png,0002-00-0007-40.png
00000009,772,0,1443025083563,1443025084346,508,257,0,0,0,2,1,1,21,0002-00-0000-50.png,0001-00-0004-45.png
00000009,773,1,1443025087488,1443025088119,1095,288,0,0,0,3,2,1,32,0003-00-0000-29.png,0002-00-0003-85.png
00000009,774,1,1443025089067,1443025089095,879,421,0,0,0,5,3,2,53,0005-00-0004-82.png,0003-00-0001-22.png
00000009,775,1,1443025090150,1443025091377,486,270,0,0,0,2,3,1,23,0002-00-0001-87.png,0003-00-0000-07.png
00000009,776,0,1443025092294,1443025092461,888,541,0,0,0,1,5,4,15,0001-00-0008-38.png,0005-00-0007-79.png
00000009,777,0,1443025095408,1443025095950,1093,301,0,0,0,3,4,1,34,0003-00-0009-32.png,0004-00-0006-35.png
00000009,778,0,1443025099094,1443025099122,872,332,0,0,0,4,5,1,45,0004-00-0008-26.png,0005-00-0006-67.png
00000009,779,1,1443025102363,1443025102972,387,392,0,0,0,1,2,1,12,0001-00-0001-37.png,0002-00-0002-91.png
00000009,780,1,1443025103863,1443025104928,1036,298,0,0,0,4,1,3,41,0004-00-0006-27.png,0001-00-0008-31.png
00000009,781,1,1443025105901,1443025105929,923,410,0,0,0,3,1,2,31,0003-00-0005-77.png,0001-00-0005-47.png
00000009,782,1,1443025107002,1443025107187,883,490,0,0,0,5,4,1,54,0005-00-0009-59.png,0004-00-0003-88.png
00000009,783,0,1443025108263,1443025108291,860,414,0,0,0,1,4,3,14,0001-00-0007-07.png,0004-00-0005-55.png
00000009,784,1,1443025111576,1443025112203,487,257,0,0,0,1,5,4,15,0001-00-0005-08.png,0005-00-0003-17.png
00000009,785,1,1443025113073,1443025113547,913,541,0,0,0,5,3,2,53,0005-00-0004-53.png,0003-00-0005-94.png
00000009,786,1,1443025114633,1443025115960,1041,288,0,0,0,4,2,2,42,0004-00-0007-31.png,0002-00-0003-46.png
00000009,787,1,1443025116879,1443025116911,872,436,0,0,0,2,1,1,21,0002-00-0008-65.png,0001-00-0004-90.png
00000009,788,0,1443025117844,1443025118391,867,501,0,0,0,4,5,1,45,0004-00-0006-68.png,0005-00-0007-75.png
00000009,789,1,1443025121355,1443025121980,469,256,0,0,0,1,3,2,13,0001-00-0008-21.png,0003-00-0005-69.png
00000009,790,1,1443025122863,1443025122911,913,384,0,0,0,5,2,3,52,0005-00-0003-46.png,0002-00-0004-81.png
00000009,791,1,1443025124381,1443025125468,456,272,0,0,0,3,4,1,34,0003-00-0001-71.png,0004-00-0003-73.png
00000009,792,0,1443025126400,1443025126762,860,490,0,0,0,1,2,1,12,0001-00-0009-27.png,0002-00-0009-47.png
00000009,793,0,1443025129887,1443025129899,897,358,0,0,0,3,5,2,35,0003-00-0003-99.png,0005-00-0003-64.png
00000009,794,1,1443025132839,1443025133537,507,239,0,0,0,2,3,1,23,0002-00-0003-33.png,0003-00-0005-43.png
00000009,795,1,1443025134430,1443025134458,884,395,0,0,0,5,1,4,51,0005-00-0002-69.png,0001-00-0007-29.png
00000009,796,0,1443025135430,1443025136810,466,255,0,0,0,4,3,1,43,0004-00-0007-97.png,0003-00-0004-95.png
00000009,797,1,1443025140094,1443025140655,935,360,0,0,0,3,2,1,32,0003-00-0004-50.png,0002-00-0003-30.png
00000009,798,0,1443025141524,1443025141556,888,422,0,0,0,2,5,3,25,0002-00-0007-76.png,0005-00-0004-01.png
00000009,799,1,1443025144746,1443025144762,905,332,0,0,0,4,1,3,41,0004-00-0002-95.png,0001-00-0007-43.png
00000009,800,0,1443025145708,1443025145929,939,514,0,0,0,2,4,2,24,0002-00-0008-40.png,0004-00-0008-76.png
00000009,801,1,1443025148869,1443025148877,504,480,0,0,0,1,3,2,13,0001-00-0004-91.png,0003-00-0001-06.png
00000009,802,1,1443025149862,1443025150520,939,541,0,0,0,5,1,4,51,0005-00-0003-46.png,0001-00-0004-91.png
00000009,803,1,1443025151391,1443025151455,908,434,0,0,0,4,3,1,43,0004-00-0002-96.png,0003-00-0006-10.png
00000009,804,0,1443025152543,1443025152571,866,418,0,0,0,2,4,2,24,0002-00-0009-59.png,0004-00-0005-20.png
00000009,805,0,1443025155626,1443025155658,863,362,0,0,0,3,5,2,35,0003-00-0009-61.png,0005-00-0007-37.png
00000009,806,1,1443025158788,1443025158808,862,358,0,0,0,2,1,1,21,0002-00-0008-68.png,0001-00-0007-60.png
00000009,807,0,1443025159750,1443025159790,904,391,0,0,0,1,2,1,12,0001-00-0005-21.png,0002-00-0001-02.png
00000009,808,1,1443025163007,1443025163652,955,351,0,0,0,3,1,2,31,0003-00-0003-44.png,0001-00-0005-70.png
00000009,809,0,1443025164497,1443025164529,889,368,0,0,0,3,4,1,34,0003-00-0005-43.png,0004-00-0005-57.png
00000009,810,1,1443025167530,1443025168070,481,288,0,0,0,1,5,4,15,0001-00-0005-86.png,0005-00-0001-19.png
00000009,811,0,1443025168909,1443025169446,876,488,0,0,0,2,5,3,25,0002-00-0004-73.png,0005-00-0005-46.png
00000009,812,1,1443025172291,1443025173004,449,263,0,0,0,4,5,1,45,0004-00-0004-90.png,0005-00-0006-15.png
00000009,813,1,1443025173847,1443025173899,888,397,0,0,0,4,2,2,42,0004-00-0000-66.png,0002-00-0006-61.png
00000009,814,1,1443025174732,1443025175872,1036,306,0,0,0,3,2,1,32,0003-00-0002-40.png,0002-00-0008-57.png
00000009,815,0,1443025176718,1443025176738,864,376,0,0,0,2,3,1,23,0002-00-0004-32.png,0003-00-0004-01.png
00000009,816,1,1443025179822,1443025179858,905,332,0,0,0,4,1,3,41,0004-00-0001-49.png,0001-00-0008-88.png
00000009,817,1,1443025180804,1443025180868,870,436,0,0,0,5,3,2,53,0005-00-0009-33.png,0003-00-0003-28.png
00000009,818,1,1443025181768,1443025182129,888,541,0,0,0,5,4,1,54,0005-00-0006-58.png,0004-00-0000-37.png
00000009,819,1,1443025183206,1443025184139,472,268,0,0,0,1,4,3,14,0001-00-0001-27.png,0004-00-0003-10.png
00000009,820,0,1443025185235,1443025186037,492,335,0,0,0,5,2,3,52,0005-00-0006-46.png,0002-00-0003-34.png
00000009,821,1,1443025188954,1443025189620,449,268,0,0,0,2,5,3,25,0002-00-0000-69.png,0005-00-0004-64.png
00000009,822,1,1443025190433,1443025190473,876,421,0,0,0,4,2,2,42,0004-00-0001-07.png,0002-00-0000-49.png
00000009,823,0,1443025191466,1443025191650,888,514,0,0,0,1,2,1,12,0001-00-0009-27.png,0002-00-0005-54.png
00000009,824,1,1443025194817,1443025195444,487,257,0,0,0,1,3,2,13,0001-00-0007-97.png,0003-00-0002-93.png
00000009,825,0,1443025196304,1443025196356,873,451,0,0,0,2,4,2,24,0002-00-0006-11.png,0004-00-0002-59.png
00000009,826,1,1443025199544,1443025200122,948,352,0,0,0,3,2,1,32,0003-00-0009-35.png,0002-00-0008-31.png
00000009,827,0,1443025200947,1443025200991,913,421,0,0,0,4,5,1,45,0004-00-0007-77.png,0005-00-0004-58.png
00000009,828,1,1443025204178,1443025204210,933,334,0,0,0,2,1,1,21,0002-00-0003-74.png,0001-00-0007-22.png
00000009,829,0,1443025205120,1443025205152,873,455,0,0,0,1,5,4,15,0001-00-0006-15.png,0005-00-0006-28.png
00000009,830,0,1443025208260,1443025208960,1088,272,0,0,0,3,4,1,34,0003-00-0008-85.png,0004-00-0009-07.png
00000009,831,0,1443025212029,1443025212971,491,275,0,0,0,4,3,1,43,0004-00-0008-43.png,0003-00-0009-76.png
00000009,832,1,1443025215893,1443025216573,491,251,0,0,0,1,4,3,14,0001-00-0007-13.png,0004-00-0002-46.png
00000009,833,0,1443025217453,1443025217541,913,514,0,0,0,2,3,1,23,0002-00-0004-86.png,0003-00-0002-20.png
00000009,834,1,1443025220721,1443025220745,913,332,0,0,0,5,4,1,54,0005-00-0003-13.png,0004-00-0008-98.png
00000009,835,1,1443025221675,1443025221715,870,436,0,0,0,5,1,4,51,0005-00-0003-89.png,0001-00-0002-49.png
00000009,836,1,1443025222697,1443025223257,888,541,0,0,0,5,2,3,52,0005-00-0001-50.png,0002-00-0000-55.png
00000009,837,1,1443025224418,1443025224713,862,514,0,0,0,5,3,2,53,0005-00-0003-34.png,0003-00-0008-54.png
00000009,838,0,1443025225898,1443025225954,873,442,0,0,0,3,5,2,35,0003-00-0000-69.png,0005-00-0002-99.png
00000009,839,1,1443025229177,1443025229765,1063,278,0,0,0,4,1,3,41,0004-00-0007-45.png,0001-00-0000-06.png
00000009,840,1,1443025231247,1443025232146,1027,309,0,0,0,3,1,2,31,0003-00-0004-97.png,0001-00-0002-42.png
00000009,841,1,1443025233092,1443025233143,979,425,0,0,0,4,3,1,43,0004-00-0007-70.png,0003-00-0004-75.png
00000009,842,0,1443025234156,1443025234192,859,409,0,0,0,3,4,1,34,0003-00-0007-45.png,0004-00-0000-11.png
00000009,843,0,1443025237419,1443025238023,1090,277,0,0,0,1,4,3,14,0001-00-0008-66.png,0004-00-0002-56.png
00000009,844,0,1443025241181,1443025241205,899,335,0,0,0,3,5,2,35,0003-00-0005-47.png,0005-00-0006-51.png
00000009,845,1,1443025244385,1443025245054,965,329,0,0,0,2,1,1,21,0002-00-0007-13.png,0001-00-0009-29.png
00000009,846,1,1443025245943,1443025246019,913,410,0,0,0,5,4,1,54,0005-00-0004-74.png,0004-00-0001-67.png
00000009,847,0,1443025246886,1443025248393,407,262,0,0,0,4,1,3,41,0004-00-0004-23.png,0001-00-0003-89.png
00000009,848,1,1443025251441,1443025252107,474,294,0,0,0,2,3,1,23,0002-00-0001-77.png,0003-00-0003-89.png
00000009,849,1,1443025252950,1443025253198,881,471,0,0,0,4,2,2,42,0004-00-0008-24.png,0002-00-0004-36.png
00000009,850,1,1443025254252,1443025255051,900,541,0,0,0,5,2,3,52,0005-00-0009-58.png,0002-00-0000-57.png
00000009,851,0,1443025256091,1443025256119,876,449,0,0,0,1,5,4,15,0001-00-0005-09.png,0005-00-0000-85.png
00000009,852,1,1443025259220,1443025259793,442,462,0,0,0,1,3,2,13,0001-00-0005-89.png,0003-00-0002-11.png
00000009,853,0,1443025260636,1443025260680,881,385,0,0,0,2,4,2,24,0002-00-0004-59.png,0004-00-0009-39.png
00000009,854,1,1443025263573,1443025263629,862,368,0,0,0,5,3,2,53,0005-00-0008-48.png,0003-00-0001-39.png
00000009,855,1,1443025264575,1443025264635,879,442,0,0,0,3,2,1,32,0003-00-0008-75.png,0002-00-0007-37.png
00000009,856,1,1443025265546,1443025266462,887,371,0,0,0,5,1,4,51,0005-00-0001-07.png,0001-00-0005-60.png
00000009,857,0,1443025267371,1443025268795,915,347,0,0,0,4,5,1,45,0004-00-0008-44.png,0005-00-0000-03.png
00000009,858,1,1443025271821,1443025272610,485,269,0,0,0,1,2,1,12,0001-00-0006-06.png,0002-00-0008-00.png
00000009,859,1,1443025273444,1443025274219,1195,370,0,0,0,3,1,2,31,0003-00-0001-46.png,0001-00-0003-38.png
00000009,860,0,1443025275192,1443025275220,971,434,0,0,0,2,5,3,25,0002-00-0002-17.png,0005-00-0001-22.png
00000009,861,1,1443025278369,1443025279219,1088,270,0,0,0,3,2,1,32,0003-00-0000-73.png,0002-00-0005-29.png
00000009,862,0,1443025280117,1443025280145,885,465,0,0,0,2,4,2,24,0002-00-0002-50.png,0004-00-0009-81.png
00000009,863,1,1443025283238,1443025283910,1087,284,0,0,0,4,1,3,41,0004-00-0009-42.png,0001-00-0008-48.png
00000009,864,1,1443025285322,1443025285398,878,436,0,0,0,4,2,2,42,0004-00-0004-60.png,0002-00-0008-12.png
00000009,865,0,1443025286377,1443025287202,888,401,0,0,0,2,3,1,23,0002-00-0004-02.png,0003-00-0008-90.png
00000009,866,0,1443025290480,1443025291084,964,348,0,0,0,3,4,1,34,0003-00-0003-09.png,0004-00-0003-49.png
00000009,867,1,1443025294239,1443025294247,888,358,0,0,0,5,1,4,51,0005-00-0006-78.png,0001-00-0002-43.png
00000009,868,1,1443025295194,1443025295214,861,440,0,0,0,2,1,1,21,0002-00-0000-96.png,0001-00-0009-44.png
00000009,869,1,1443025296213,1443025297031,486,385,0,0,0,3,5,2,35,0003-00-0005-41.png,0005-00-0003-97.png
00000009,870,1,1443025298071,1443025298960,398,435,0,0,0,2,5,3,25,0002-00-0007-40.png,0005-00-0002-29.png
00000009,871,0,1443025300039,1443025300905,908,319,0,0,0,1,2,1,12,0001-00-0000-95.png,0002-00-0003-13.png
00000009,872,0,1443025304207,1443025304980,1043,298,0,0,0,1,3,2,13,0001-00-0000-02.png,0003-00-0002-93.png
00000009,873,1,1443025307880,1443025308645,487,279,0,0,0,1,4,3,14,0001-00-0009-99.png,0004-00-0001-75.png
00000009,874,0,1443025309489,1443025309656,939,541,0,0,0,4,5,1,45,0004-00-0000-46.png,0005-00-0000-02.png
00000009,875,1,1443025312808,1443025313458,1081,306,0,0,0,5,2,3,52,0005-00-0001-28.png,0002-00-0003-62.png
00000009,876,0,1443025314301,1443025314353,862,401,0,0,0,1,5,4,15,0001-00-0002-03.png,0005-00-0002-80.png
00000009,877,1,1443025317588,1443025318401,1019,353,0,0,0,5,4,1,54,0005-00-0004-38.png,0004-00-0000-66.png
00000009,878,1,1443025319350,1443025320466,1077,278,0,0,0,3,1,2,31,0003-00-0007-87.png,0001-00-0008-80.png
00000009,879,1,1443025321397,1443025321885,922,482,0,0,0,4,3,1,43,0004-00-0009-16.png,0003-00-0004-34.png
00000009,880,1,1443025323043,1443025323071,858,444,0,0,0,5,3,2,53,0005-00-0004-59.png,0003-00-0003-08.png
00000009,881,1,1443025324335,1443025324790,877,530,0,0,0,3,2,1,32,0003-00-0000-64.png,0002-00-0002-10.png
00000009,882,0,1443025326044,1443025326327,902,529,0,0,0,2,4,2,24,0002-00-0004-15.png,0004-00-0002-10.png
00000009,883,0,1443025329494,1443025329534,903,358,0,0,0,1,2,1,12,0001-00-0003-08.png,0002-00-0003-84.png
00000009,884,1,1443025332465,1443025333157,513,259,0,0,0,4,5,1,45,0004-00-0002-27.png,0005-00-0000-39.png
00000009,885,1,1443025333993,1443025334310,879,469,0,0,0,3,1,2,31,0003-00-0001-09.png,0001-00-0006-06.png
00000009,886,0,1443025335415,1443025335447,865,437,0,0,0,2,5,3,25,0002-00-0009-02.png,0005-00-0002-32.png
00000009,887,0,1443025338698,1443025338710,932,338,0,0,0,1,3,2,13,0001-00-0001-23.png,0003-00-0003-59.png
00000009,888,1,1443025341806,1443025341866,888,332,0,0,0,2,1,1,21,0002-00-0006-86.png,0001-00-0000-34.png
00000009,889,1,1443025342779,1443025342831,888,410,0,0,0,5,1,4,51,0005-00-0001-95.png,0001-00-0005-61.png
00000009,890,1,1443025343761,1443025344340,888,541,0,0,0,5,3,2,53,0005-00-0009-97.png,0003-00-0005-02.png
00000009,891,1,1443025345788,1443025345820,862,433,0,0,0,5,2,3,52,0005-00-0000-36.png,0002-00-0006-99.png
00000009,892,1,1443025346934,1443025348395,420,268,0,0,0,1,5,4,15,0001-00-0003-63.png,0005-00-0000-60.png
00000009,893,1,1443025349318,1443025350779,970,338,0,0,0,5,4,1,54,0005-00-0005-38.png,0004-00-0005-47.png
00000009,894,1,1443025351703,1443025351727,902,411,0,0,0,4,2,2,42,0004-00-0000-08.png,0002-00-0000-81.png
00000009,895,1,1443025352754,1443025353685,487,325,0,0,0,2,3,1,23,0002-00-0008-91.png,0003-00-0000-09.png
00000009,896,1,1443025355300,1443025356493,401,375,0,0,0,3,4,1,34,0003-00-0005-53.png,0004-00-0007-60.png
00000009,897,0,1443025357343,1443025358337,476,286,0,0,0,4,1,3,41,0004-00-0006-68.png,0001-00-0009-60.png
00000009,898,1,1443025361568,1443025361592,922,332,0,0,0,4,3,1,43,0004-00-0007-02.png,0003-00-0006-98.png
00000009,899,0,1443025362562,1443025362763,939,541,0,0,0,1,4,3,14,0001-00-0000-94.png,0004-00-0004-89.png
00000009,900,0,1443025365820,1443025365852,862,358,0,0,0,3,5,2,35,0003-00-0002-10.png,0005-00-0008-89.png
00000009,901,0,1443025368873,1443025368933,859,386,0,0,0,1,3,2,13,0001-00-0003-46.png,0003-00-0000-99.png
00000009,902,1,1443025371864,1443025372508,488,278,0,0,0,3,5,2,35,0003-00-0000-20.png,0005-00-0007-20.png
00000009,903,0,1443025373415,1443025373435,898,420,0,0,0,2,3,1,23,0002-00-0005-77.png,0003-00-0009-92.png
00000009,904,0,1443025376636,1443025377443,990,292,0,0,0,1,5,4,15,0001-00-0005-44.png,0005-00-0001-63.png
00000009,905,0,1443025380640,1443025380652,889,353,0,0,0,4,5,1,45,0004-00-0002-30.png,0005-00-0004-05.png
00000009,906,1,1443025383868,1443025383880,872,353,0,0,0,5,4,1,54,0005-00-0008-44.png,0004-00-0004-76.png
00000009,907,1,1443025384853,1443025386032,1067,307,0,0,0,4,3,1,43,0004-00-0008-44.png,0003-00-0008-70.png
00000009,908,1,1443025387000,1443025387036,877,410,0,0,0,4,2,2,42,0004-00-0000-19.png,0002-00-0000-11.png
00000009,909,0,1443025388119,1443025388942,413,430,0,0,0,3,1,2,31,0003-00-0006-26.png,0001-00-0007-03.png
00000009,910,1,1443025392089,1443025392794,1097,298,0,0,0,5,3,2,53,0005-00-0006-52.png,0003-00-0006-07.png
00000009,911,1,1443025393644,1443025393696,907,443,0,0,0,5,1,4,51,0005-00-0000-32.png,0001-00-0009-19.png
00000009,912,1,1443025394678,1443025395525,479,336,0,0,0,1,4,3,14,0001-00-0001-43.png,0004-00-0003-06.png
00000009,913,0,1443025396778,1443025397557,388,414,0,0,0,4,1,3,41,0004-00-0002-23.png,0001-00-0008-83.png
00000009,914,1,1443025400595,1443025401274,1070,318,0,0,0,5,2,3,52,0005-00-0005-42.png,0002-00-0008-86.png
00000009,915,0,1443025402134,1443025402178,912,420,0,0,0,1,2,1,12,0001-00-0003-79.png,0002-00-0004-21.png
00000009,916,1,1443025405351,1443025405965,1093,301,0,0,0,3,2,1,32,0003-00-0008-32.png,0002-00-0002-04.png
00000009,917,1,1443025407418,1443025408598,465,265,0,0,0,3,4,1,34,0003-00-0003-64.png,0004-00-0008-18.png
00000009,918,0,1443025409475,1443025410057,863,537,0,0,0,2,4,2,24,0002-00-0000-58.png,0004-00-0007-10.png
00000009,919,1,1443025413281,1443025413912,1119,279,0,0,0,2,1,1,21,0002-00-0005-94.png,0001-00-0003-94.png
00000009,920,1,1443025415411,1443025416300,463,256,0,0,0,2,5,3,25,0002-00-0006-29.png,0005-00-0006-94.png
00000009,921,1,1443025417494,1443025418556,1087,266,0,0,0,5,1,4,51,0005-00-0007-11.png,0001-00-0002-60.png
00000009,922,1,1443025419495,1443025419826,930,472,0,0,0,5,2,3,52,0005-00-0009-85.png,0002-00-0006-36.png
00000009,923,0,1443025421270,1443025421310,883,473,0,0,0,2,3,1,23,0002-00-0001-18.png,0003-00-0001-51.png
00000009,924,1,1443025424459,1443025424503,913,358,0,0,0,4,1,3,41,0004-00-0004-75.png,0001-00-0006-98.png
00000009,925,1,1443025425477,1443025425513,898,445,0,0,0,5,4,1,54,0005-00-0005-04.png,0004-00-0003-71.png
00000009,926,0,1443025426506,1443025427372,422,425,0,0,0,4,3,1,43,0004-00-0008-02.png,0003-00-0003-64.png
00000009,927,0,1443025430324,1443025430396,862,425,0,0,0,3,4,1,34,0003-00-0004-53.png,0004-00-0000-98.png
00000009,928,1,1443025433571,1443025434181,479,293,0,0,0,1,4,3,14,0001-00-0005-66.png,0004-00-0008-04.png
00000009,929,0,1443025435658,1443025435702,857,395,0,0,0,1,3,2,13,0001-00-0003-12.png,0003-00-0004-85.png
00000009,930,1,1443025438553,1443025439767,458,242,0,0,0,1,5,4,15,0001-00-0000-47.png,0005-00-0005-36.png
00000009,931,1,1443025441233,1443025442149,1049,277,0,0,0,4,2,2,42,0004-00-0002-65.png,0002-00-0009-26.png
00000009,932,1,1443025443061,1443025443093,887,408,0,0,0,3,1,2,31,0003-00-0003-54.png,0001-00-0003-80.png
00000009,933,1,1443025444115,1443025444147,876,446,0,0,0,2,1,1,21,0002-00-0001-74.png,0001-00-0002-94.png
00000009,934,0,1443025445300,1443025445332,858,468,0,0,0,2,5,3,25,0002-00-0008-18.png,0005-00-0007-57.png
00000009,935,1,1443025448470,1443025448514,901,358,0,0,0,3,2,1,32,0003-00-0005-19.png,0002-00-0005-93.png
00000009,936,0,1443025449493,1443025449605,905,470,0,0,0,4,5,1,45,0004-00-0003-11.png,0005-00-0009-41.png
00000009,937,1,1443025452763,1443025453369,511,259,0,0,0,1,2,1,12,0001-00-0001-37.png,0002-00-0004-47.png
00000009,938,0,1443025454194,1443025454550,870,478,0,0,0,3,5,2,35,0003-00-0007-78.png,0005-00-0006-28.png
00000009,939,1,1443025457681,1443025457705,888,347,0,0,0,5,3,2,53,0005-00-0008-98.png,0003-00-0005-15.png
00000009,940,0,1443025458550,1443025458617,879,436,0,0,0,2,4,2,24,0002-00-0006-27.png,0004-00-0009-23.png
00000009,941,1,1443025461494,1443025462103,410,351,0,0,0,2,5,3,25,0002-00-0007-76.png,0005-00-0008-28.png
