subject_id,trial,correct_response,stim_time,response_time,x_coord,y_coord,trial_timeout,timeout_time,interTrial_timeout,left_rank,right_rank,distance,joint_rank,left_image,right_image
00000009,1,1,1442502063427,1442502064050,934,498,0,0,0,5,3,2,53,0005-00-0008-78.png,0003-00-0004-78.png
00000009,2,1,1442502065560,1442502065754,983,547,0,0,0,3,2,1,32,0003-00-0005-63.png,0002-00-0000-35.png
00000009,3,1,1442502066653,1442502066739,900,415,0,0,0,4,3,1,43,0004-00-0006-01.png,0003-00-0005-05.png
00000009,4,0,1442502068011,1442502068172,964,422,0,0,0,1,2,1,12,0001-00-0003-32.png,0002-00-0005-29.png
00000009,5,0,1442502071172,1442502071749,979,379,0,0,0,4,5,1,45,0004-00-0003-42.png,0005-00-0003-98.png
00000009,6,0,1442502074921,1442502075444,1065,279,0,0,0,3,5,2,35,0003-00-0009-43.png,0005-00-0000-98.png
00000009,7,1,1442502078955,1442502078975,892,268,0,0,0,5,1,4,51,0005-00-0009-74.png,0001-00-0000-32.png
00000009,8,1,1442502079997,1442502080801,911,359,0,0,0,5,4,1,54,0005-00-0000-65.png,0004-00-0009-36.png
00000009,9,0,1442502081868,1442502081983,859,511,0,0,0,1,4,3,14,0001-00-0007-85.png,0004-00-0002-19.png
00000009,10,1,1442502085117,1442502085702,940,372,0,0,0,4,1,3,41,0004-00-0006-08.png,0001-00-0002-99.png
00000009,11,1,1442502087061,1442502088059,459,251,0,0,0,2,5,3,25,0002-00-0009-56.png,0005-00-0007-46.png
00000009,12,0,1442502089152,1442502090007,327,405,0,0,0,5,2,3,52,0005-00-0001-18.png,0002-00-0009-64.png
00000009,13,0,1442502093663,1442502094213,924,408,0,0,0,2,4,2,24,0002-00-0002-23.png,0004-00-0009-63.png
00000009,14,1,1442502097410,1442502097977,347,382,0,0,0,1,5,4,15,0001-00-0006-57.png,0005-00-0006-87.png
00000009,15,1,1442502098939,1442502099955,924,356,0,0,0,4,2,2,42,0004-00-0006-90.png,0002-00-0005-47.png
00000009,16,0,1442502101167,1442502101271,864,503,0,0,0,3,4,1,34,0003-00-0004-94.png,0004-00-0002-10.png
00000009,17,0,1442502104126,1442502104840,960,339,0,0,0,1,3,2,13,0001-00-0008-84.png,0003-00-0005-87.png
00000009,18,1,1442502107993,1442502108667,378,385,0,0,0,2,3,1,23,0002-00-0009-58.png,0003-00-0009-69.png
00000009,19,0,1442502110676,1442502111242,409,404,0,0,0,2,1,1,21,0002-00-0003-84.png,0001-00-0009-22.png
00000009,20,1,1442502114442,1442502114655,917,285,0,0,0,3,1,2,31,0003-00-0001-49.png,0001-00-0004-07.png
00000009,21,1,1442502115716,1442502115784,866,477,0,0,0,5,1,4,51,0005-00-0002-51.png,0001-00-0004-77.png
00000009,22,1,1442502116906,1442502117451,886,514,0,0,0,5,2,3,52,0005-00-0006-55.png,0002-00-0006-90.png
00000009,23,1,1442502118574,1442502118594,860,468,0,0,0,3,2,1,32,0003-00-0008-08.png,0002-00-0006-32.png
00000009,24,0,1442502119775,1442502120291,869,505,0,0,0,1,3,2,13,0001-00-0009-05.png,0003-00-0003-56.png
00000009,25,1,1442502123621,1442502124192,426,270,0,0,0,1,2,1,12,0001-00-0006-04.png,0002-00-0007-67.png
00000009,26,1,1442502125175,1442502125982,315,390,0,0,0,1,5,4,15,0001-00-0005-90.png,0005-00-0006-16.png
00000009,27,0,1442502127083,1442502127966,369,407,0,0,0,5,3,2,53,0005-00-0005-01.png,0003-00-0004-54.png
00000009,28,0,1442502130871,1442502131606,939,348,0,0,0,3,5,2,35,0003-00-0003-87.png,0005-00-0006-68.png
00000009,29,0,1442502134724,1442502135280,384,388,0,0,0,4,1,3,41,0004-00-0003-53.png,0001-00-0008-63.png
00000009,30,1,1442502138373,1442502138385,913,337,0,0,0,3,1,2,31,0003-00-0002-75.png,0001-00-0005-95.png
00000009,31,1,1442502139404,1442502139482,859,485,0,0,0,4,2,2,42,0004-00-0005-17.png,0002-00-0007-91.png
00000009,32,0,1442502140688,1442502141734,384,347,0,0,0,4,3,1,43,0004-00-0002-76.png,0003-00-0006-81.png
00000009,33,0,1442502144857,1442502144873,881,295,0,0,0,3,4,1,34,0003-00-0002-66.png,0004-00-0000-20.png
00000009,34,0,1442502147853,1442502148090,863,363,0,0,0,2,4,2,24,0002-00-0002-03.png,0004-00-0000-88.png
00000009,35,0,1442502151173,1442502151718,353,390,0,0,0,2,1,1,21,0002-00-0005-45.png,0001-00-0009-97.png
00000009,36,1,1442502154820,1442502155348,939,384,0,0,0,5,4,1,54,0005-00-0002-16.png,0004-00-0005-52.png
00000009,37,0,1442502156331,1442502156434,873,436,0,0,0,2,5,3,25,0002-00-0006-44.png,0005-00-0001-71.png
00000009,38,0,1442502159608,1442502159636,988,276,0,0,0,1,4,3,14,0001-00-0005-66.png,0004-00-0006-68.png
00000009,39,1,1442502162849,1442502163490,416,261,0,0,0,4,5,1,45,0004-00-0008-31.png,0005-00-0004-40.png
00000009,40,0,1442502164437,1442502164486,862,413,0,0,0,2,3,1,23,0002-00-0007-02.png,0003-00-0001-71.png
00000009,41,1,1442502167599,1442502168137,964,402,0,0,0,3,2,1,32,0003-00-0004-03.png,0002-00-0005-69.png
00000009,42,0,1442502168997,1442502169025,865,460,0,0,0,1,2,1,12,0001-00-0002-90.png,0002-00-0004-83.png
00000009,43,0,1442502172110,1442502172652,1074,281,0,0,0,3,4,1,34,0003-00-0005-66.png,0004-00-0000-59.png
00000009,44,1,1442502175697,1442502176439,352,334,0,0,0,1,4,3,14,0001-00-0002-95.png,0004-00-0006-77.png
00000009,45,0,1442502177326,1442502178283,1050,283,0,0,0,2,4,2,24,0002-00-0002-07.png,0004-00-0001-66.png
00000009,46,1,1442502181530,1442502181586,991,309,0,0,0,5,1,4,51,0005-00-0003-21.png,0001-00-0005-82.png
00000009,47,1,1442502182678,1442502183607,469,264,0,0,0,3,5,2,35,0003-00-0004-30.png,0005-00-0001-38.png
00000009,48,0,1442502184730,1442502184786,889,444,0,0,0,1,5,4,15,0001-00-0006-90.png,0005-00-0007-91.png
00000009,49,0,1442502187629,1442502187677,964,373,0,0,0,2,5,3,25,0002-00-0004-14.png,0005-00-0003-15.png
00000009,50,1,1442502190891,1442502191015,862,384,0,0,0,4,2,2,42,0004-00-0000-27.png,0002-00-0008-82.png
00000009,51,1,1442502192729,1442502192781,873,416,0,0,0,2,1,1,21,0002-00-0003-90.png,0001-00-0000-28.png
00000009,52,1,1442502194142,1442502195482,363,366,0,0,0,4,5,1,45,0004-00-0006-03.png,0005-00-0008-23.png
00000009,53,1,1442502196836,1442502196904,870,462,0,0,0,5,4,1,54,0005-00-0004-05.png,0004-00-0000-43.png
00000009,54,1,1442502198351,1442502198412,869,454,0,0,0,4,1,3,41,0004-00-0004-12.png,0001-00-0003-58.png
00000009,55,1,1442502199932,1442502201013,1040,249,0,0,0,3,1,2,31,0003-00-0003-24.png,0001-00-0009-98.png
00000009,56,1,1442502202061,1442502202161,938,525,0,0,0,5,2,3,52,0005-00-0009-57.png,0002-00-0006-68.png
00000009,57,1,1442502203431,1442502203498,867,474,0,0,0,4,3,1,43,0004-00-0006-45.png,0003-00-0004-81.png
00000009,58,0,1442502206114,1442502206142,881,447,0,0,0,1,3,2,13,0001-00-0000-84.png,0003-00-0007-57.png
00000009,59,0,1442502209275,1442502209871,377,370,0,0,0,5,3,2,53,0005-00-0000-50.png,0003-00-0000-44.png
00000009,60,0,1442502213053,1442502213326,1005,305,0,0,0,2,3,1,23,0002-00-0007-17.png,0003-00-0003-16.png
00000009,61,1,1442502216263,1442502216879,469,279,0,0,0,2,5,3,25,0002-00-0005-75.png,0005-00-0005-31.png
00000009,62,1,1442502217781,1442502217868,869,477,0,0,0,5,1,4,51,0005-00-0000-55.png,0001-00-0000-41.png
00000009,63,0,1442502219252,1442502220702,1042,278,0,0,0,2,4,2,24,0002-00-0006-61.png,0004-00-0007-84.png
00000009,64,1,1442502223736,1442502224434,964,410,0,0,0,4,1,3,41,0004-00-0002-31.png,0001-00-0004-82.png
00000009,65,1,1442502225294,1442502225370,889,480,0,0,0,5,4,1,54,0005-00-0002-71.png,0004-00-0000-02.png
00000009,66,1,1442502226361,1442502227418,1092,270,0,0,0,3,2,1,32,0003-00-0003-03.png,0002-00-0009-16.png
00000009,67,0,1442502228433,1442502228481,875,471,0,0,0,1,3,2,13,0001-00-0006-03.png,0003-00-0002-02.png
00000009,68,0,1442502232071,1442502232639,937,325,0,0,0,1,2,1,12,0001-00-0009-55.png,0002-00-0002-94.png
00000009,69,0,1442502235829,1442502236502,396,351,0,0,0,4,3,1,43,0004-00-0000-86.png,0003-00-0008-14.png
00000009,70,1,1442502239647,1442502240217,990,418,0,0,0,3,1,2,31,0003-00-0002-60.png,0001-00-0001-04.png
00000009,71,1,1442502241134,1442502241242,888,471,0,0,0,4,2,2,42,0004-00-0003-56.png,0002-00-0005-56.png
00000009,72,1,1442502242279,1442502243540,1073,271,0,0,0,2,1,1,21,0002-00-0007-89.png,0001-00-0001-53.png
00000009,73,0,1442502244546,1442502244602,874,488,0,0,0,2,3,1,23,0002-00-0003-26.png,0003-00-0006-19.png
00000009,74,0,1442502247745,1442502248282,1118,279,0,0,0,3,4,1,34,0003-00-0001-99.png,0004-00-0008-14.png
00000009,75,0,1442502251372,1442502252028,387,372,0,0,0,5,3,2,53,0005-00-0006-27.png,0003-00-0004-10.png
00000009,76,1,1442502255159,1442502255672,967,316,0,0,0,5,2,3,52,0005-00-0009-12.png,0002-00-0009-42.png
00000009,77,0,1442502256637,1442502256697,888,474,0,0,0,1,5,4,15,0001-00-0007-97.png,0005-00-0003-33.png
00000009,78,0,1442502260038,1442502260082,884,275,0,0,0,3,5,2,35,0003-00-0007-18.png,0005-00-0004-51.png
00000009,79,0,1442502263228,1442502263844,990,295,0,0,0,4,5,1,45,0004-00-0000-96.png,0005-00-0002-81.png
00000009,80,1,1442502267022,1442502267605,461,405,0,0,0,1,4,3,14,0001-00-0003-47.png,0004-00-0005-16.png
00000009,81,1,1442502268504,1442502269616,1067,270,0,0,0,5,2,3,52,0005-00-0002-24.png,0002-00-0002-10.png
00000009,82,0,1442502271546,1442502271582,863,445,0,0,0,2,3,1,23,0002-00-0006-99.png,0003-00-0007-92.png
00000009,83,1,1442502274724,1442502274752,926,326,0,0,0,5,4,1,54,0005-00-0003-93.png,0004-00-0006-38.png
00000009,84,0,1442502275739,1442502275835,919,504,0,0,0,4,5,1,45,0004-00-0008-18.png,0005-00-0003-88.png
00000009,85,0,1442502278697,1442502278749,977,392,0,0,0,1,4,3,14,0001-00-0005-11.png,0004-00-0004-99.png
00000009,86,0,1442502281653,1442502281685,904,463,0,0,0,2,5,3,25,0002-00-0000-83.png,0005-00-0001-97.png
00000009,87,1,1442502284832,1442502285334,935,317,0,0,0,2,1,1,21,0002-00-0007-66.png,0001-00-0007-70.png
00000009,88,1,1442502286678,1442502286757,866,407,0,0,0,4,3,1,43,0004-00-0003-85.png,0003-00-0005-26.png
00000009,89,1,1442502287852,1442502288619,878,488,0,0,0,4,2,2,42,0004-00-0005-23.png,0002-00-0002-42.png
00000009,90,0,1442502289681,1442502289788,905,491,0,0,0,1,3,2,13,0001-00-0000-40.png,0003-00-0003-14.png
00000009,91,0,1442502292947,1442502293193,973,295,0,0,0,1,2,1,12,0001-00-0009-56.png,0002-00-0005-06.png
00000009,92,1,1442502296386,1442502297014,964,348,0,0,0,5,1,4,51,0005-00-0007-33.png,0001-00-0004-95.png
00000009,93,0,1442502297844,1442502297958,903,462,0,0,0,2,4,2,24,0002-00-0008-44.png,0004-00-0000-01.png
00000009,94,1,1442502300960,1442502301506,1092,279,0,0,0,3,2,1,32,0003-00-0006-79.png,0002-00-0008-63.png
00000009,95,0,1442502302933,1442502303173,913,425,0,0,0,3,5,2,35,0003-00-0001-28.png,0005-00-0003-91.png
00000009,96,1,1442502306341,1442502307284,966,319,0,0,0,5,3,2,53,0005-00-0002-77.png,0003-00-0008-68.png
00000009,97,1,1442502308160,1442502308240,915,485,0,0,0,3,1,2,31,0003-00-0007-63.png,0001-00-0007-06.png
00000009,98,0,1442502309148,1442502310714,944,351,0,0,0,3,4,1,34,0003-00-0008-22.png,0004-00-0008-90.png
00000009,99,0,1442502313869,1442502313873,864,259,0,0,0,1,5,4,15,0001-00-0008-18.png,0005-00-0004-48.png
00000009,100,1,1442502317018,1442502317283,1018,301,0,0,0,4,1,3,41,0004-00-0000-15.png,0001-00-0004-98.png
00000009,101,1,1442502318241,1442502318261,898,482,0,0,0,5,1,4,51,0005-00-0007-52.png,0001-00-0003-55.png
00000009,102,1,1442502319853,1442502319897,867,453,0,0,0,3,2,1,32,0003-00-0006-10.png,0002-00-0008-71.png
00000009,103,1,1442502321309,1442502321377,891,441,0,0,0,3,1,2,31,0003-00-0001-78.png,0001-00-0004-06.png
00000009,104,1,1442502322800,1442502322860,874,436,0,0,0,5,3,2,53,0005-00-0006-60.png,0003-00-0003-95.png
00000009,105,0,1442502324191,1442502324227,889,421,0,0,0,2,4,2,24,0002-00-0004-63.png,0004-00-0003-07.png
00000009,106,1,1442502327073,1442502327101,879,384,0,0,0,5,2,3,52,0005-00-0000-81.png,0002-00-0008-49.png
00000009,107,1,1442502328169,1442502328217,925,472,0,0,0,2,1,1,21,0002-00-0002-86.png,0001-00-0009-67.png
00000009,108,1,1442502329317,1442502330445,881,342,0,0,0,4,1,3,41,0004-00-0001-90.png,0001-00-0002-61.png
00000009,109,0,1442502331403,1442502331427,920,469,0,0,0,3,4,1,34,0003-00-0006-23.png,0004-00-0006-59.png
00000009,110,1,1442502334924,1442502335619,1071,250,0,0,0,4,3,1,43,0004-00-0004-80.png,0003-00-0007-00.png
00000009,111,0,1442502336441,1442502336545,888,462,0,0,0,1,2,1,12,0001-00-0004-03.png,0002-00-0008-66.png
00000009,112,0,1442502339444,1442502340461,452,237,0,0,0,5,4,1,54,0005-00-0008-66.png,0004-00-0006-72.png
00000009,113,1,1442502343452,1442502344220,346,358,0,0,0,4,5,1,45,0004-00-0000-69.png,0005-00-0002-75.png
00000009,114,1,1442502345078,1442502346119,375,356,0,0,0,2,5,3,25,0002-00-0003-82.png,0005-00-0006-84.png
00000009,115,1,1442502347079,1442502348431,367,360,0,0,0,1,5,4,15,0001-00-0008-38.png,0005-00-0000-36.png
00000009,116,0,1442502349503,1442502349610,886,462,0,0,0,2,3,1,23,0002-00-0003-15.png,0003-00-0007-54.png
00000009,117,1,1442502352773,1442502353336,372,388,0,0,0,1,3,2,13,0001-00-0005-49.png,0003-00-0004-39.png
00000009,118,0,1442502354676,1442502354719,861,389,0,0,0,1,4,3,14,0001-00-0006-91.png,0004-00-0004-30.png
00000009,119,1,1442502357621,1442502358295,395,341,0,0,0,3,5,2,35,0003-00-0005-90.png,0005-00-0004-82.png
00000009,120,1,1442502359120,1442502360090,929,332,0,0,0,4,2,2,42,0004-00-0001-51.png,0002-00-0002-71.png
00000009,121,0,1442502361120,1442502361157,896,439,0,0,0,4,5,1,45,0004-00-0008-42.png,0005-00-0002-15.png
00000009,122,0,1442502364113,1442502364665,386,353,0,0,0,5,1,4,51,0005-00-0005-80.png,0001-00-0005-74.png
00000009,123,1,1442502367639,1442502368263,1092,306,0,0,0,5,4,1,54,0005-00-0007-30.png,0004-00-0000-64.png
00000009,124,0,1442502369091,1442502369224,923,452,0,0,0,1,4,3,14,0001-00-0009-49.png,0004-00-0006-02.png
00000009,125,0,1442502372397,1442502372976,497,230,0,0,0,4,1,3,41,0004-00-0007-09.png,0001-00-0001-36.png
00000009,126,1,1442502376074,1442502376591,939,323,0,0,0,2,1,1,21,0002-00-0001-08.png,0001-00-0005-41.png
00000009,127,1,1442502377477,1442502377529,889,438,0,0,0,5,3,2,53,0005-00-0003-03.png,0003-00-0002-36.png
00000009,128,1,1442502378696,1442502379430,928,529,0,0,0,5,2,3,52,0005-00-0000-46.png,0002-00-0001-58.png
00000009,129,0,1442502380568,1442502380652,925,448,0,0,0,3,5,2,35,0003-00-0001-34.png,0005-00-0004-38.png
00000009,130,0,1442502383788,1442502383836,1003,310,0,0,0,2,3,1,23,0002-00-0006-90.png,0003-00-0005-60.png
00000009,131,1,1442502386996,1442502387047,987,301,0,0,0,4,2,2,42,0004-00-0009-33.png,0002-00-0000-69.png
00000009,132,1,1442502388073,1442502389596,341,403,0,0,0,1,3,2,13,0001-00-0000-35.png,0003-00-0006-89.png
00000009,133,1,1442502390566,1442502391175,862,527,0,0,0,3,1,2,31,0003-00-0001-45.png,0001-00-0008-01.png
00000009,134,0,1442502392294,1442502392322,863,413,0,0,0,2,4,2,24,0002-00-0005-04.png,0004-00-0003-70.png
00000009,135,1,1442502395346,1442502395958,445,248,0,0,0,1,5,4,15,0001-00-0009-00.png,0005-00-0001-50.png
00000009,136,1,1442502396842,1442502396902,888,502,0,0,0,3,2,1,32,0003-00-0002-88.png,0002-00-0002-91.png
00000009,137,1,1442502397945,1442502398993,396,344,0,0,0,2,5,3,25,0002-00-0000-57.png,0005-00-0008-98.png
00000009,138,0,1442502399975,1442502401264,1042,270,0,0,0,3,4,1,34,0003-00-0007-48.png,0004-00-0000-85.png
00000009,139,1,1442502404358,1442502404924,478,253,0,0,0,1,2,1,12,0001-00-0000-75.png,0002-00-0004-13.png
00000009,140,0,1442502406744,1442502407385,409,377,0,0,0,4,3,1,43,0004-00-0005-10.png,0003-00-0004-07.png
00000009,141,1,1442502410479,1442502411024,393,359,0,0,0,3,5,2,35,0003-00-0009-23.png,0005-00-0008-88.png
00000009,142,0,1442502411899,1442502412850,1041,252,0,0,0,4,5,1,45,0004-00-0007-65.png,0005-00-0003-37.png
00000009,143,1,1442502415872,1442502416451,968,324,0,0,0,5,4,1,54,0005-00-0009-33.png,0004-00-0008-59.png
00000009,144,1,1442502418109,1442502418185,890,408,0,0,0,2,1,1,21,0002-00-0009-41.png,0001-00-0005-10.png
00000009,145,1,1442502419234,1442502420204,380,339,0,0,0,2,5,3,25,0002-00-0000-78.png,0005-00-0008-64.png
00000009,146,0,1442502421190,1442502421337,878,514,0,0,0,1,4,3,14,0001-00-0005-75.png,0004-00-0001-04.png
00000009,147,1,1442502424488,1442502424520,985,319,0,0,0,5,3,2,53,0005-00-0004-58.png,0003-00-0008-67.png
00000009,148,0,1442502425571,1442502425622,896,437,0,0,0,1,3,2,13,0001-00-0007-64.png,0003-00-0007-10.png
00000009,149,1,1442502428726,1442502429386,1095,274,0,0,0,4,1,3,41,0004-00-0008-55.png,0001-00-0004-22.png
00000009,150,1,1442502430262,1442502430274,862,488,0,0,0,5,2,3,52,0005-00-0005-79.png,0002-00-0007-13.png
00000009,151,1,1442502431358,1442502432598,376,326,0,0,0,1,2,1,12,0001-00-0001-29.png,0002-00-0000-97.png
00000009,152,0,1442502433544,1442502433620,870,404,0,0,0,3,4,1,34,0003-00-0008-53.png,0004-00-0001-72.png
00000009,153,0,1442502436492,1442502437102,474,238,0,0,0,4,3,1,43,0004-00-0008-21.png,0003-00-0004-04.png
00000009,154,0,1442502440063,1442502440299,942,365,0,0,0,2,4,2,24,0002-00-0003-32.png,0004-00-0006-25.png
00000009,155,1,1442502443413,1442502443959,503,231,0,0,0,1,5,4,15,0001-00-0009-68.png,0005-00-0002-99.png
00000009,156,1,1442502444846,1442502444918,888,410,0,0,0,3,2,1,32,0003-00-0000-62.png,0002-00-0003-83.png
00000009,157,1,1442502445994,1442502447137,923,327,0,0,0,5,1,4,51,0005-00-0002-96.png,0001-00-0002-64.png
00000009,158,1,1442502448074,1442502448130,945,428,0,0,0,3,1,2,31,0003-00-0003-66.png,0001-00-0007-96.png
00000009,159,0,1442502449305,1442502450237,364,355,0,0,0,4,2,2,42,0004-00-0001-60.png,0002-00-0006-40.png
00000009,160,1,1442502453399,1442502454148,369,337,0,0,0,2,3,1,23,0002-00-0002-28.png,0003-00-0008-54.png
00000009,161,0,1442502455015,1442502455047,857,412,0,0,0,4,5,1,45,0004-00-0005-97.png,0005-00-0008-96.png
00000009,162,1,1442502457998,1442502458535,965,338,0,0,0,3,2,1,32,0003-00-0000-94.png,0002-00-0007-42.png
00000009,163,0,1442502460024,1442502460929,1046,276,0,0,0,2,4,2,24,0002-00-0002-03.png,0004-00-0007-48.png
00000009,164,0,1442502463771,1442502464455,936,304,0,0,0,3,5,2,35,0003-00-0000-71.png,0005-00-0008-03.png
00000009,165,1,1442502467552,1442502468224,1118,279,0,0,0,4,3,1,43,0004-00-0001-69.png,0003-00-0005-26.png
00000009,166,0,1442502469087,1442502470059,499,219,0,0,0,2,1,1,21,0002-00-0007-78.png,0001-00-0002-10.png
00000009,167,0,1442502473254,1442502473809,1116,296,0,0,0,1,2,1,12,0001-00-0005-29.png,0002-00-0000-97.png
00000009,168,0,1442502477090,1442502477118,916,330,0,0,0,2,5,3,25,0002-00-0005-65.png,0005-00-0003-80.png
00000009,169,1,1442502480289,1442502480938,1097,250,0,0,0,4,1,3,41,0004-00-0008-86.png,0001-00-0000-59.png
00000009,170,1,1442502482535,1442502483229,1072,280,0,0,0,5,2,3,52,0005-00-0009-44.png,0002-00-0009-04.png
00000009,171,1,1442502484254,1442502484315,941,412,0,0,0,4,2,2,42,0004-00-0009-86.png,0002-00-0005-93.png
00000009,172,0,1442502485378,1442502485446,860,439,0,0,0,2,3,1,23,0002-00-0005-22.png,0003-00-0008-75.png
00000009,173,1,1442502488609,1442502489136,1096,274,0,0,0,3,1,2,31,0003-00-0002-09.png,0001-00-0007-48.png
00000009,174,0,1442502490468,1442502490536,905,410,0,0,0,1,5,4,15,0001-00-0007-35.png,0005-00-0001-16.png
00000009,175,1,1442502493698,1442502494312,365,370,0,0,0,1,3,2,13,0001-00-0001-85.png,0003-00-0000-57.png
00000009,176,1,1442502495854,1442502495902,904,417,0,0,0,5,4,1,54,0005-00-0007-31.png,0004-00-0004-32.png
00000009,177,1,1442502496996,1442502497044,873,410,0,0,0,5,3,2,53,0005-00-0008-92.png,0003-00-0007-81.png
00000009,178,0,1442502498259,1442502498295,862,436,0,0,0,1,4,3,14,0001-00-0007-15.png,0004-00-0009-70.png
00000009,179,0,1442502501418,1442502501999,913,397,0,0,0,3,4,1,34,0003-00-0001-33.png,0004-00-0003-31.png
00000009,180,1,1442502505523,1442502506161,1080,290,0,0,0,5,1,4,51,0005-00-0009-12.png,0001-00-0003-11.png
00000009,181,0,1442502507011,1442502507071,948,436,0,0,0,1,5,4,15,0001-00-0007-51.png,0005-00-0008-00.png
00000009,182,1,1442502510243,1442502510805,971,322,0,0,0,2,1,1,21,0002-00-0000-95.png,0001-00-0001-81.png
00000009,183,0,1442502511683,1442502511755,917,429,0,0,0,4,5,1,45,0004-00-0002-59.png,0005-00-0008-51.png
00000009,184,0,1442502514835,1442502515346,941,304,0,0,0,2,5,3,25,0002-00-0004-19.png,0005-00-0007-01.png
00000009,185,1,1442502518461,1442502518497,957,334,0,0,0,5,3,2,53,0005-00-0005-94.png,0003-00-0005-79.png
00000009,186,1,1442502519525,1442502519585,937,440,0,0,0,4,3,1,43,0004-00-0000-26.png,0003-00-0002-62.png
00000009,187,0,1442502520587,1442502520675,879,469,0,0,0,1,3,2,13,0001-00-0009-95.png,0003-00-0008-12.png
00000009,188,1,1442502523508,1442502524061,937,337,0,0,0,5,1,4,51,0005-00-0009-62.png,0001-00-0008-01.png
00000009,189,0,1442502525616,1442502525684,932,444,0,0,0,3,4,1,34,0003-00-0001-17.png,0004-00-0002-25.png
00000009,190,1,1442502528736,1442502529337,406,373,0,0,0,2,3,1,23,0002-00-0007-35.png,0003-00-0002-05.png
00000009,191,1,1442502531000,1442502532081,1092,279,0,0,0,4,1,3,41,0004-00-0005-30.png,0001-00-0004-52.png
00000009,192,1,1442502533961,1442502534840,453,242,0,0,0,2,4,2,24,0002-00-0004-27.png,0004-00-0003-96.png
00000009,193,0,1442502535799,1442502535859,862,480,0,0,0,1,2,1,12,0001-00-0002-74.png,0002-00-0002-22.png
00000009,194,1,1442502538941,1442502538965,934,327,0,0,0,5,4,1,54,0005-00-0001-29.png,0004-00-0002-69.png
00000009,195,0,1442502540043,1442502540086,925,465,0,0,0,1,4,3,14,0001-00-0004-09.png,0004-00-0000-69.png
00000009,196,0,1442502543004,1442502543664,397,353,0,0,0,3,1,2,31,0003-00-0001-12.png,0001-00-0000-25.png
00000009,197,1,1442502546762,1442502547592,472,250,0,0,0,3,5,2,35,0003-00-0000-88.png,0005-00-0000-06.png
00000009,198,1,1442502548489,1442502548577,904,462,0,0,0,5,2,3,52,0005-00-0004-93.png,0002-00-0009-38.png
00000009,199,1,1442502549664,1442502549760,876,462,0,0,0,4,2,2,42,0004-00-0005-04.png,0002-00-0008-02.png
00000009,200,1,1442502550993,1442502551021,882,472,0,0,0,3,2,1,32,0003-00-0001-15.png,0002-00-0004-94.png
00000009,201,0,1442502552494,1442502552586,888,453,0,0,0,1,4,3,14,0001-00-0007-28.png,0004-00-0003-27.png
00000009,202,1,1442502555775,1442502556479,359,347,0,0,0,2,4,2,24,0002-00-0001-93.png,0004-00-0006-59.png
00000009,203,0,1442502557373,1442502557445,888,462,0,0,0,1,3,2,13,0001-00-0007-36.png,0003-00-0002-08.png
00000009,204,1,1442502560574,1442502561183,966,326,0,0,0,4,3,1,43,0004-00-0007-14.png,0003-00-0005-94.png
00000009,205,1,1442502562100,1442502563616,367,343,0,0,0,4,5,1,45,0004-00-0006-18.png,0005-00-0005-11.png
00000009,206,1,1442502564539,1442502564625,888,454,0,0,0,4,1,3,41,0004-00-0009-29.png,0001-00-0000-37.png
00000009,207,1,1442502565811,1442502567023,377,361,0,0,0,1,5,4,15,0001-00-0006-14.png,0005-00-0004-45.png
00000009,208,1,1442502568047,1442502569598,1092,263,0,0,0,3,1,2,31,0003-00-0008-86.png,0001-00-0005-02.png
00000009,209,1,1442502570671,1442502570699,888,462,0,0,0,3,2,1,32,0003-00-0001-63.png,0002-00-0003-16.png
00000009,210,1,1442502571874,1442502573323,939,345,0,0,0,5,4,1,54,0005-00-0006-48.png,0004-00-0002-41.png
00000009,211,0,1442502574278,1442502574350,913,514,0,0,0,3,4,1,34,0003-00-0009-71.png,0004-00-0005-38.png
00000009,212,1,1442502577556,1442502578136,406,347,0,0,0,2,5,3,25,0002-00-0007-12.png,0005-00-0007-17.png
00000009,213,0,1442502579038,1442502579360,939,514,0,0,0,3,5,2,35,0003-00-0000-74.png,0005-00-0009-29.png
00000009,214,1,1442502582524,1442502582779,988,336,0,0,0,5,3,2,53,0005-00-0002-41.png,0003-00-0007-66.png
00000009,215,1,1442502583739,1442502583776,888,462,0,0,0,4,2,2,42,0004-00-0002-54.png,0002-00-0004-83.png
00000009,216,1,1442502584778,1442502586291,1068,274,0,0,0,5,1,4,51,0005-00-0007-40.png,0001-00-0001-88.png
00000009,217,1,1442502587184,1442502587271,889,444,0,0,0,5,2,3,52,0005-00-0002-05.png,0002-00-0009-33.png
00000009,218,0,1442502588470,1442502588526,878,528,0,0,0,1,2,1,12,0001-00-0008-38.png,0002-00-0008-26.png
00000009,219,0,1442502591668,1442502592269,501,238,0,0,0,2,1,1,21,0002-00-0006-80.png,0001-00-0003-67.png
00000009,220,1,1442502595229,1442502595913,410,369,0,0,0,2,3,1,23,0002-00-0007-18.png,0003-00-0001-92.png
00000009,221,1,1442502597381,1442502597405,863,411,0,0,0,5,1,4,51,0005-00-0009-01.png,0001-00-0009-11.png
00000009,222,1,1442502598354,1442502599964,1051,279,0,0,0,5,3,2,53,0005-00-0000-58.png,0003-00-0009-76.png
00000009,223,1,1442502600868,1442502600928,862,488,0,0,0,3,1,2,31,0003-00-0002-22.png,0001-00-0002-21.png
00000009,224,1,1442502602123,1442502602207,881,481,0,0,0,5,4,1,54,0005-00-0003-42.png,0004-00-0000-09.png
00000009,225,0,1442502603232,1442502603281,861,442,0,0,0,3,5,2,35,0003-00-0002-05.png,0005-00-0001-98.png
00000009,226,1,1442502606440,1442502606969,391,380,0,0,0,2,5,3,25,0002-00-0003-32.png,0005-00-0008-20.png
00000009,227,1,1442502607803,1442502607891,862,477,0,0,0,4,3,1,43,0004-00-0001-87.png,0003-00-0005-25.png
00000009,228,0,1442502609009,1442502610297,903,361,0,0,0,3,4,1,34,0003-00-0008-17.png,0004-00-0003-18.png
00000009,229,1,1442502613251,1442502613750,963,304,0,0,0,2,1,1,21,0002-00-0009-45.png,0001-00-0002-45.png
00000009,230,0,1442502615045,1442502615097,864,437,0,0,0,1,2,1,12,0001-00-0003-41.png,0002-00-0007-15.png
00000009,231,1,1442502618596,1442502619131,478,267,0,0,0,1,5,4,15,0001-00-0006-45.png,0005-00-0004-05.png
00000009,232,0,1442502620532,1442502620564,862,410,0,0,0,1,3,2,13,0001-00-0004-90.png,0003-00-0007-23.png
00000009,233,0,1442502623556,1442502623576,907,384,0,0,0,1,4,3,14,0001-00-0009-45.png,0004-00-0000-89.png
00000009,234,1,1442502626794,1442502627330,1144,315,0,0,0,5,2,3,52,0005-00-0009-99.png,0002-00-0008-52.png
00000009,235,1,1442502628170,1442502628254,950,488,0,0,0,4,2,2,42,0004-00-0008-01.png,0002-00-0005-58.png
00000009,236,1,1442502629320,1442502629336,889,388,0,0,0,4,1,3,41,0004-00-0005-93.png,0001-00-0003-69.png
00000009,237,1,1442502631751,1442502632441,491,218,0,0,0,2,3,1,23,0002-00-0008-04.png,0003-00-0008-85.png
00000009,238,1,1442502633430,1442502633841,875,488,0,0,0,3,2,1,32,0003-00-0007-98.png,0002-00-0007-30.png
00000009,239,0,1442502635260,1442502635296,870,480,0,0,0,2,4,2,24,0002-00-0004-05.png,0004-00-0004-75.png
00000009,240,1,1442502638479,1442502639146,373,384,0,0,0,4,5,1,45,0004-00-0000-16.png,0005-00-0005-20.png
00000009,241,1,1442502640673,1442502640705,861,382,0,0,0,5,2,3,52,0005-00-0006-66.png,0002-00-0001-13.png
00000009,242,1,1442502641837,1442502641909,868,469,0,0,0,5,4,1,54,0005-00-0005-42.png,0004-00-0004-97.png
00000009,243,0,1442502643224,1442502643276,878,485,0,0,0,2,4,2,24,0002-00-0005-31.png,0004-00-0000-68.png
00000009,244,0,1442502646161,1442502646715,498,236,0,0,0,4,2,2,42,0004-00-0007-68.png,0002-00-0004-70.png
00000009,245,0,1442502649829,1442502650346,414,361,0,0,0,5,3,2,53,0005-00-0000-10.png,0003-00-0000-52.png
00000009,246,1,1442502653294,1442502653800,425,333,0,0,0,1,4,3,14,0001-00-0008-22.png,0004-00-0003-21.png
00000009,247,0,1442502654654,1442502654738,883,444,0,0,0,2,3,1,23,0002-00-0007-86.png,0003-00-0000-45.png
00000009,248,1,1442502657899,1442502658507,990,322,0,0,0,5,1,4,51,0005-00-0002-84.png,0001-00-0004-74.png
00000009,249,0,1442502659816,1442502659880,882,435,0,0,0,4,5,1,45,0004-00-0004-21.png,0005-00-0002-67.png
00000009,250,0,1442502663036,1442502663861,387,365,0,0,0,4,3,1,43,0004-00-0004-86.png,0003-00-0005-25.png
00000009,251,1,1442502667011,1442502667059,967,305,0,0,0,4,1,3,41,0004-00-0005-53.png,0001-00-0009-80.png
00000009,252,1,1442502668113,1442502668141,904,436,0,0,0,3,1,2,31,0003-00-0007-85.png,0001-00-0007-65.png
00000009,253,0,1442502669254,1442502670147,901,554,0,0,0,2,5,3,25,0002-00-0003-18.png,0005-00-0004-68.png
00000009,254,1,1442502673032,1442502673052,914,408,0,0,0,2,1,1,21,0002-00-0003-26.png,0001-00-0009-47.png
00000009,255,0,1442502674113,1442502675455,954,303,0,0,0,3,4,1,34,0003-00-0002-80.png,0004-00-0002-45.png
00000009,256,1,1442502678506,1442502679087,940,341,0,0,0,3,2,1,32,0003-00-0003-60.png,0002-00-0003-19.png
00000009,257,0,1442502679936,1442502679992,886,442,0,0,0,1,3,2,13,0001-00-0009-85.png,0003-00-0006-88.png
00000009,258,0,1442502683129,1442502683629,961,327,0,0,0,3,5,2,35,0003-00-0006-07.png,0005-00-0008-98.png
00000009,259,1,1442502686488,1442502687344,512,222,0,0,0,1,2,1,12,0001-00-0007-11.png,0002-00-0007-35.png
00000009,260,0,1442502688181,1442502688205,862,410,0,0,0,1,5,4,15,0001-00-0006-77.png,0005-00-0001-26.png
00000009,261,0,1442502691357,1442502691911,445,372,0,0,0,5,2,3,52,0005-00-0004-53.png,0002-00-0008-58.png
00000009,262,1,1442502694835,1442502695426,930,342,0,0,0,5,1,4,51,0005-00-0004-05.png,0001-00-0002-90.png
00000009,263,0,1442502696263,1442502696337,866,459,0,0,0,3,4,1,34,0003-00-0002-27.png,0004-00-0001-13.png
00000009,264,1,1442502699197,1442502699810,958,315,0,0,0,4,1,3,41,0004-00-0007-87.png,0001-00-0009-32.png
00000009,265,1,1442502701226,1442502701250,858,408,0,0,0,3,2,1,32,0003-00-0004-81.png,0002-00-0005-64.png
00000009,266,1,1442502702506,1442502702554,865,438,0,0,0,5,4,1,54,0005-00-0007-97.png,0004-00-0000-31.png
00000009,267,1,1442502703817,1442502704908,477,235,0,0,0,2,3,1,23,0002-00-0009-07.png,0003-00-0003-42.png
00000009,268,0,1442502705893,1442502705952,888,421,0,0,0,1,4,3,14,0001-00-0002-66.png,0004-00-0001-80.png
00000009,269,1,1442502708795,1442502709361,385,329,0,0,0,1,5,4,15,0001-00-0000-72.png,0005-00-0003-71.png
00000009,270,1,1442502710228,1442502710284,913,462,0,0,0,5,3,2,53,0005-00-0005-34.png,0003-00-0000-79.png
00000009,271,0,1442502711301,1442502712456,466,225,0,0,0,2,1,1,21,0002-00-0003-60.png,0001-00-0008-43.png
00000009,272,1,1442502715622,1442502715662,923,326,0,0,0,3,1,2,31,0003-00-0002-54.png,0001-00-0002-86.png
00000009,273,0,1442502716668,1442502716724,913,488,0,0,0,1,3,2,13,0001-00-0008-52.png,0003-00-0008-84.png
00000009,274,1,1442502719778,1442502719802,913,384,0,0,0,4,3,1,43,0004-00-0007-67.png,0003-00-0009-14.png
00000009,275,1,1442502720861,1442502720929,948,462,0,0,0,4,2,2,42,0004-00-0004-32.png,0002-00-0002-17.png
00000009,276,0,1442502721979,1442502722062,888,448,0,0,0,2,4,2,24,0002-00-0009-12.png,0004-00-0002-97.png
00000009,277,0,1442502725200,1442502725797,1092,289,0,0,0,2,5,3,25,0002-00-0003-41.png,0005-00-0003-38.png
00000009,278,1,1442502728821,1442502729393,504,237,0,0,0,4,5,1,45,0004-00-0004-25.png,0005-00-0005-12.png
00000009,279,0,1442502730292,1442502730364,913,449,0,0,0,1,2,1,12,0001-00-0003-01.png,0002-00-0004-18.png
00000009,280,0,1442502733491,1442502734024,966,339,0,0,0,3,5,2,35,0003-00-0005-13.png,0005-00-0005-95.png
00000009,281,1,1442502737069,1442502737652,381,335,0,0,0,4,5,1,45,0004-00-0007-07.png,0005-00-0007-87.png
00000009,282,1,1442502738497,1442502738654,888,471,0,0,0,3,1,2,31,0003-00-0003-84.png,0001-00-0008-31.png
00000009,283,0,1442502739791,1442502739849,862,436,0,0,0,1,3,2,13,0001-00-0007-36.png,0003-00-0000-56.png
00000009,284,1,1442502742892,1442502743437,945,324,0,0,0,5,4,1,54,0005-00-0001-18.png,0004-00-0002-24.png
00000009,285,1,1442502744363,1442502744435,924,462,0,0,0,5,2,3,52,0005-00-0003-48.png,0002-00-0009-06.png
00000009,286,1,1442502745445,1442502745497,888,436,0,0,0,3,2,1,32,0003-00-0006-81.png,0002-00-0005-26.png
00000009,287,1,1442502746775,1442502746835,880,443,0,0,0,2,1,1,21,0002-00-0006-75.png,0001-00-0000-83.png
00000009,288,0,1442502748488,1442502748544,878,463,0,0,0,2,3,1,23,0002-00-0007-20.png,0003-00-0007-87.png
00000009,289,1,1442502751477,1442502751733,868,376,0,0,0,5,3,2,53,0005-00-0009-92.png,0003-00-0005-54.png
00000009,290,0,1442502753382,1442502753480,919,412,0,0,0,1,4,3,14,0001-00-0008-06.png,0004-00-0003-30.png
00000009,291,0,1442502756321,1442502756948,1062,307,0,0,0,3,5,2,35,0003-00-0004-46.png,0005-00-0002-34.png
00000009,292,0,1442502759845,1442502760409,941,309,0,0,0,3,4,1,34,0003-00-0009-34.png,0004-00-0003-52.png
00000009,293,0,1442502763569,1442502764198,401,371,0,0,0,4,3,1,43,0004-00-0003-02.png,0003-00-0007-67.png
00000009,294,1,1442502767199,1442502767734,966,304,0,0,0,5,1,4,51,0005-00-0008-34.png,0001-00-0003-73.png
00000009,295,0,1442502769100,1442502769974,421,338,0,0,0,4,1,3,41,0004-00-0005-07.png,0001-00-0009-97.png
00000009,296,1,1442502773083,1442502773636,467,258,0,0,0,1,2,1,12,0001-00-0005-59.png,0002-00-0006-72.png
00000009,297,0,1442502774938,1442502774978,865,451,0,0,0,2,5,3,25,0002-00-0004-53.png,0005-00-0009-13.png
00000009,298,0,1442502777899,1442502777927,959,383,0,0,0,2,4,2,24,0002-00-0008-03.png,0004-00-0008-78.png
00000009,299,0,1442502780994,1442502781726,509,249,0,0,0,4,2,2,42,0004-00-0002-70.png,0002-00-0003-92.png
00000009,300,1,1442502784868,1442502785456,381,352,0,0,0,1,5,4,15,0001-00-0006-50.png,0005-00-0003-62.png
00000009,301,0,1442502786882,1442502786964,881,403,0,0,0,2,4,2,24,0002-00-0002-37.png,0004-00-0000-24.png
00000009,302,0,1442502790047,1442502790559,488,252,0,0,0,3,1,2,31,0003-00-0009-23.png,0001-00-0009-33.png
00000009,303,1,1442502793695,1442502794276,510,264,0,0,0,1,5,4,15,0001-00-0008-97.png,0005-00-0002-78.png
00000009,304,0,1442502795163,1442502795243,902,462,0,0,0,1,4,3,14,0001-00-0005-87.png,0004-00-0006-13.png
00000009,305,0,1442502798421,1442502799266,968,304,0,0,0,1,2,1,12,0001-00-0002-12.png,0002-00-0004-58.png
00000009,306,1,1442502802390,1442502802957,948,349,0,0,0,4,1,3,41,0004-00-0002-63.png,0001-00-0001-37.png
00000009,307,0,1442502803818,1442502803993,964,446,0,0,0,2,5,3,25,0002-00-0003-47.png,0005-00-0003-11.png
00000009,308,1,1442502807220,1442502807733,964,322,0,0,0,4,2,2,42,0004-00-0007-42.png,0002-00-0006-87.png
00000009,309,0,1442502809319,1442502809398,888,425,0,0,0,3,5,2,35,0003-00-0002-05.png,0005-00-0003-07.png
00000009,310,0,1442502812555,1442502813245,1113,283,0,0,0,3,4,1,34,0003-00-0000-91.png,0004-00-0008-38.png
00000009,311,1,1442502816099,1442502816700,1092,279,0,0,0,5,2,3,52,0005-00-0006-64.png,0002-00-0005-63.png
00000009,312,1,1442502818169,1442502818269,939,375,0,0,0,2,1,1,21,0002-00-0001-71.png,0001-00-0003-69.png
00000009,313,1,1442502819393,1442502819450,880,470,0,0,0,5,1,4,51,0005-00-0007-32.png,0001-00-0007-36.png
00000009,314,1,1442502820476,1442502820524,888,448,0,0,0,3,2,1,32,0003-00-0001-36.png,0002-00-0001-22.png
00000009,315,0,1442502821788,1442502821828,899,442,0,0,0,4,5,1,45,0004-00-0004-07.png,0005-00-0004-52.png
00000009,316,0,1442502824789,1442502824825,869,435,0,0,0,2,3,1,23,0002-00-0007-78.png,0003-00-0004-86.png
00000009,317,1,1442502827915,1442502828491,489,279,0,0,0,1,3,2,13,0001-00-0007-17.png,0003-00-0004-54.png
00000009,318,1,1442502829344,1442502829432,913,410,0,0,0,5,4,1,54,0005-00-0004-57.png,0004-00-0008-91.png
00000009,319,1,1442502830443,1442502830499,862,448,0,0,0,5,3,2,53,0005-00-0007-35.png,0003-00-0001-76.png
00000009,320,1,1442502831782,1442502831818,879,469,0,0,0,4,3,1,43,0004-00-0009-84.png,0003-00-0003-36.png
00000009,321,1,1442502833630,1442502833690,883,450,0,0,0,5,1,4,51,0005-00-0009-75.png,0001-00-0000-07.png
00000009,322,0,1442502834972,1442502835056,927,448,0,0,0,3,5,2,35,0003-00-0009-07.png,0005-00-0009-90.png
00000009,323,1,1442502838185,1442502838818,964,311,0,0,0,5,2,3,52,0005-00-0006-83.png,0002-00-0007-11.png
00000009,324,0,1442502840140,1442502840200,913,425,0,0,0,1,2,1,12,0001-00-0004-78.png,0002-00-0008-62.png
00000009,325,1,1442502843123,1442502843691,403,328,0,0,0,1,3,2,13,0001-00-0009-77.png,0003-00-0008-43.png
00000009,326,1,1442502845139,1442502845199,890,435,0,0,0,4,1,3,41,0004-00-0002-27.png,0001-00-0007-10.png
00000009,327,0,1442502846362,1442502846411,888,491,0,0,0,4,5,1,45,0004-00-0002-85.png,0005-00-0005-46.png
00000009,328,1,1442502849414,1442502849987,427,368,0,0,0,2,3,1,23,0002-00-0005-74.png,0003-00-0002-98.png
00000009,329,0,1442502851377,1442502851515,881,455,0,0,0,1,4,3,14,0001-00-0006-81.png,0004-00-0000-09.png
00000009,330,1,1442502854549,1442502855158,494,270,0,0,0,2,4,2,24,0002-00-0003-40.png,0004-00-0002-56.png
00000009,331,1,1442502856049,1442502857008,949,345,0,0,0,3,2,1,32,0003-00-0003-39.png,0002-00-0001-59.png
00000009,332,1,1442502857897,1442502857925,859,494,0,0,0,4,2,2,42,0004-00-0003-07.png,0002-00-0005-72.png
00000009,333,0,1442502859198,1442502859270,901,468,0,0,0,3,4,1,34,0003-00-0003-26.png,0004-00-0004-01.png
00000009,334,1,1442502862333,1442502862823,938,331,0,0,0,3,1,2,31,0003-00-0006-19.png,0001-00-0006-73.png
00000009,335,1,1442502863780,1442502863840,898,462,0,0,0,2,1,1,21,0002-00-0000-70.png,0001-00-0007-12.png
00000009,336,1,1442502864907,1442502864953,884,468,0,0,0,5,4,1,54,0005-00-0004-21.png,0004-00-0003-95.png
00000009,337,1,1442502866217,1442502866253,862,425,0,0,0,4,3,1,43,0004-00-0004-95.png,0003-00-0008-79.png
00000009,338,0,1442502867682,1442502867753,881,496,0,0,0,2,5,3,25,0002-00-0002-19.png,0005-00-0009-49.png
00000009,339,1,1442502870906,1442502871452,453,399,0,0,0,1,5,4,15,0001-00-0003-94.png,0005-00-0002-35.png
00000009,340,1,1442502872356,1442502873420,1043,279,0,0,0,5,3,2,53,0005-00-0007-19.png,0003-00-0000-19.png
00000009,341,1,1442502875042,1442502875110,879,436,0,0,0,4,1,3,41,0004-00-0009-10.png,0001-00-0005-05.png
00000009,342,0,1442502876571,1442502876651,888,448,0,0,0,4,5,1,45,0004-00-0000-13.png,0005-00-0008-35.png
00000009,343,1,1442502879831,1442502879859,965,334,0,0,0,5,1,4,51,0005-00-0009-47.png,0001-00-0006-64.png
00000009,344,0,1442502880911,1442502880992,939,462,0,0,0,2,4,2,24,0002-00-0008-97.png,0004-00-0005-80.png
00000009,345,1,1442502884103,1442502884632,968,306,0,0,0,2,1,1,21,0002-00-0006-60.png,0001-00-0004-52.png
00000009,346,0,1442502885911,1442502886171,939,488,0,0,0,1,5,4,15,0001-00-0006-97.png,0005-00-0001-91.png
00000009,347,1,1442502889314,1442502889844,990,410,0,0,0,4,3,1,43,0004-00-0006-98.png,0003-00-0009-23.png
00000009,348,0,1442502890754,1442502890790,913,488,0,0,0,1,3,2,13,0001-00-0002-21.png,0003-00-0002-67.png
00000009,349,1,1442502893741,1442502894554,964,371,0,0,0,5,2,3,52,0005-00-0005-01.png,0002-00-0009-09.png
00000009,350,1,1442502895948,1442502896061,905,434,0,0,0,3,2,1,32,0003-00-0003-32.png,0002-00-0004-91.png
00000009,351,0,1442502897298,1442502897386,894,481,0,0,0,1,4,3,14,0001-00-0004-17.png,0004-00-0002-79.png
00000009,352,1,1442502900379,1442502900880,408,394,0,0,0,1,2,1,12,0001-00-0002-73.png,0002-00-0005-02.png
00000009,353,1,1442502901774,1442502901830,913,488,0,0,0,4,2,2,42,0004-00-0008-54.png,0002-00-0001-23.png
00000009,354,0,1442502902882,1442502902902,862,450,0,0,0,2,5,3,25,0002-00-0006-84.png,0005-00-0003-65.png
00000009,355,1,1442502905970,1442502906616,367,360,0,0,0,3,4,1,34,0003-00-0002-08.png,0004-00-0002-27.png
00000009,356,0,1442502908040,1442502908100,881,418,0,0,0,3,5,2,35,0003-00-0002-66.png,0005-00-0001-85.png
00000009,357,0,1442502911062,1442502911627,387,343,0,0,0,5,3,2,53,0005-00-0004-20.png,0003-00-0007-54.png
00000009,358,1,1442502914786,1442502915609,1128,283,0,0,0,3,1,2,31,0003-00-0007-28.png,0001-00-0001-61.png
00000009,359,1,1442502916466,1442502916566,913,448,0,0,0,5,4,1,54,0005-00-0006-51.png,0004-00-0007-73.png
00000009,360,0,1442502917610,1442502917650,865,437,0,0,0,2,3,1,23,0002-00-0009-66.png,0003-00-0007-27.png
00000009,361,1,1442502920633,1442502920731,910,403,0,0,0,3,1,2,31,0003-00-0006-43.png,0001-00-0001-30.png
00000009,362,0,1442502921716,1442502921813,913,488,0,0,0,3,5,2,35,0003-00-0002-19.png,0005-00-0007-57.png
00000009,363,1,1442502924983,1442502925950,438,252,0,0,0,1,5,4,15,0001-00-0005-19.png,0005-00-0006-84.png
00000009,364,1,1442502926923,1442502926971,901,494,0,0,0,4,2,2,42,0004-00-0008-14.png,0002-00-0000-80.png
00000009,365,1,1442502928023,1442502928087,869,454,0,0,0,4,3,1,43,0004-00-0008-88.png,0003-00-0001-22.png
00000009,366,1,1442502929356,1442502929416,888,477,0,0,0,5,4,1,54,0005-00-0007-77.png,0004-00-0009-97.png
00000009,367,1,1442502930740,1442502930798,881,469,0,0,0,3,2,1,32,0003-00-0001-17.png,0002-00-0009-86.png
00000009,368,1,1442502932167,1442502932231,900,450,0,0,0,5,2,3,52,0005-00-0004-50.png,0002-00-0008-35.png
00000009,369,1,1442502933589,1442502933649,898,436,0,0,0,2,1,1,21,0002-00-0000-32.png,0001-00-0000-82.png
00000009,370,0,1442502935338,1442502935366,867,449,0,0,0,2,5,3,25,0002-00-0009-20.png,0005-00-0005-97.png
00000009,371,0,1442502938569,1442502939105,960,305,0,0,0,3,4,1,34,0003-00-0009-75.png,0004-00-0007-80.png
00000009,372,1,1442502942246,1442502943317,460,282,0,0,0,4,5,1,45,0004-00-0008-69.png,0005-00-0002-90.png
00000009,373,0,1442502944334,1442502944382,881,445,0,0,0,1,3,2,13,0001-00-0003-63.png,0003-00-0009-35.png
00000009,374,0,1442502947561,1442502948102,520,260,0,0,0,5,3,2,53,0005-00-0004-59.png,0003-00-0002-64.png
00000009,375,1,1442502951211,1442502951930,387,377,0,0,0,2,3,1,23,0002-00-0002-11.png,0003-00-0001-49.png
00000009,376,0,1442502952889,1442502952929,888,488,0,0,0,1,4,3,14,0001-00-0004-77.png,0004-00-0005-53.png
00000009,377,1,1442502956126,1442502956138,862,332,0,0,0,5,1,4,51,0005-00-0007-38.png,0001-00-0004-96.png
00000009,378,0,1442502957090,1442502957166,905,445,0,0,0,2,4,2,24,0002-00-0002-87.png,0004-00-0001-03.png
00000009,379,0,1442502960252,1442502960289,862,314,0,0,0,1,2,1,12,0001-00-0008-90.png,0002-00-0007-51.png
00000009,380,0,1442502963422,1442502964037,366,340,0,0,0,4,1,3,41,0004-00-0006-20.png,0001-00-0005-52.png
00000009,381,1,1442502967208,1442502967823,485,240,0,0,0,2,4,2,24,0002-00-0002-10.png,0004-00-0004-79.png
00000009,382,1,1442502968707,1442502968819,913,498,0,0,0,5,1,4,51,0005-00-0007-80.png,0001-00-0002-48.png
00000009,383,1,1442502969991,1442502970060,888,447,0,0,0,2,1,1,21,0002-00-0004-59.png,0001-00-0006-08.png
00000009,384,0,1442502971291,1442502971395,913,450,0,0,0,3,4,1,34,0003-00-0007-35.png,0004-00-0006-86.png
00000009,385,0,1442502974532,1442502975125,490,222,0,0,0,4,1,3,41,0004-00-0004-97.png,0001-00-0000-87.png
00000009,386,0,1442502978289,1442502978325,861,293,0,0,0,4,5,1,45,0004-00-0005-38.png,0005-00-0002-57.png
00000009,387,0,1442502985154,1442502985214,917,272,0,0,0,2,5,3,25,0002-00-0008-13.png,0005-00-0001-90.png
00000009,388,0,1442502988234,1442502988905,505,243,0,0,0,5,4,1,54,0005-00-0005-40.png,0004-00-0003-62.png
00000009,389,1,1442502992073,1442502992657,487,271,0,0,0,1,4,3,14,0001-00-0009-35.png,0004-00-0000-87.png
00000009,390,0,1442502993490,1442502993570,882,453,0,0,0,2,3,1,23,0002-00-0000-24.png,0003-00-0009-44.png
00000009,391,1,1442502996684,1442502997228,1077,274,0,0,0,5,2,3,52,0005-00-0002-57.png,0002-00-0006-48.png
00000009,392,0,1442502998571,1442502998587,893,396,0,0,0,1,5,4,15,0001-00-0009-23.png,0005-00-0006-24.png
00000009,393,1,1442503001540,1442503002084,498,265,0,0,0,1,3,2,13,0001-00-0007-86.png,0003-00-0006-43.png
00000009,394,1,1442503002927,1442503003027,899,436,0,0,0,3,2,1,32,0003-00-0000-20.png,0002-00-0003-68.png
00000009,395,1,1442503004162,1442503004242,882,470,0,0,0,5,3,2,53,0005-00-0003-75.png,0003-00-0006-42.png
00000009,396,0,1442503005335,1442503005387,885,425,0,0,0,3,5,2,35,0003-00-0000-60.png,0005-00-0007-79.png
00000009,397,1,1442503008528,1442503009359,333,324,0,0,0,1,2,1,12,0001-00-0002-09.png,0002-00-0005-11.png
00000009,398,1,1442503010833,1442503010869,888,425,0,0,0,4,2,2,42,0004-00-0005-71.png,0002-00-0004-77.png
00000009,399,1,1442503011946,1442503012015,862,459,0,0,0,4,3,1,43,0004-00-0003-81.png,0003-00-0004-91.png
00000009,400,1,1442503013144,1442503013204,882,445,0,0,0,3,1,2,31,0003-00-0006-95.png,0001-00-0005-09.png
00000009,401,0,1442503014566,1442503014606,872,445,0,0,0,3,4,1,34,0003-00-0008-09.png,0004-00-0007-68.png
00000009,402,1,1442503017685,1442503017866,908,436,0,0,0,4,3,1,43,0004-00-0004-62.png,0003-00-0004-24.png
00000009,403,1,1442503018885,1442503018941,913,464,0,0,0,5,4,1,54,0005-00-0001-03.png,0004-00-0005-02.png
00000009,404,0,1442503019939,1442503019975,870,490,0,0,0,4,5,1,45,0004-00-0006-48.png,0005-00-0001-57.png
00000009,405,0,1442503023145,1442503023240,931,242,0,0,0,1,4,3,14,0001-00-0008-56.png,0004-00-0006-07.png
00000009,406,1,1442503026395,1442503026957,485,249,0,0,0,2,4,2,24,0002-00-0004-45.png,0004-00-0008-49.png
00000009,407,1,1442503028359,1442503028427,862,397,0,0,0,5,2,3,52,0005-00-0009-88.png,0002-00-0008-33.png
00000009,408,1,1442503029509,1442503030624,381,345,0,0,0,1,5,4,15,0001-00-0007-16.png,0005-00-0009-87.png
00000009,409,1,1442503031562,1442503032951,1060,262,0,0,0,4,2,2,42,0004-00-0006-06.png,0002-00-0003-71.png
00000009,410,1,1442503034601,1442503034653,884,414,0,0,0,3,1,2,31,0003-00-0009-07.png,0001-00-0005-45.png
00000009,411,1,1442503035675,1442503036700,1076,251,0,0,0,2,1,1,21,0002-00-0007-07.png,0001-00-0000-45.png
00000009,412,0,1442503037531,1442503037607,897,455,0,0,0,1,2,1,12,0001-00-0007-54.png,0002-00-0001-69.png
00000009,413,0,1442503040635,1442503040663,941,360,0,0,0,2,5,3,25,0002-00-0007-62.png,0005-00-0000-12.png
00000009,414,0,1442503043752,1442503044389,1118,274,0,0,0,3,5,2,35,0003-00-0001-82.png,0005-00-0009-86.png
00000009,415,1,1442503047492,1442503048014,507,251,0,0,0,1,3,2,13,0001-00-0005-19.png,0003-00-0006-63.png
00000009,416,0,1442503048859,1442503048899,872,488,0,0,0,2,3,1,23,0002-00-0001-20.png,0003-00-0005-84.png
00000009,417,1,1442503052052,1442503052806,945,353,0,0,0,4,1,3,41,0004-00-0008-16.png,0001-00-0001-11.png
00000009,418,1,1442503054236,1442503054336,907,427,0,0,0,5,1,4,51,0005-00-0008-01.png,0001-00-0000-86.png
00000009,419,1,1442503055569,1442503055637,875,449,0,0,0,5,3,2,53,0005-00-0009-42.png,0003-00-0008-14.png
00000009,420,1,1442503056652,1442503056680,863,438,0,0,0,3,2,1,32,0003-00-0005-00.png,0002-00-0005-66.png
00000009,421,0,1442503057991,1442503058051,888,425,0,0,0,4,5,1,45,0004-00-0002-43.png,0005-00-0000-16.png
00000009,422,0,1442503061076,1442503061150,978,391,0,0,0,3,5,2,35,0003-00-0005-02.png,0005-00-0007-05.png
00000009,423,0,1442503064195,1442503064812,511,234,0,0,0,2,1,1,21,0002-00-0006-39.png,0001-00-0001-38.png
00000009,424,0,1442503068002,1442503068758,373,350,0,0,0,4,3,1,43,0004-00-0007-03.png,0003-00-0002-18.png
00000009,425,1,1442503071789,1442503071837,937,399,0,0,0,3,2,1,32,0003-00-0008-09.png,0002-00-0006-36.png
00000009,426,1,1442503072833,1442503072885,928,453,0,0,0,3,1,2,31,0003-00-0001-42.png,0001-00-0009-47.png
00000009,427,0,1442503073952,1442503073994,874,433,0,0,0,1,2,1,12,0001-00-0007-06.png,0002-00-0002-27.png
00000009,428,1,1442503077183,1442503077219,951,347,0,0,0,5,1,4,51,0005-00-0007-15.png,0001-00-0007-13.png
00000009,429,0,1442503078235,1442503078279,909,429,0,0,0,2,3,1,23,0002-00-0009-52.png,0003-00-0007-63.png
00000009,430,0,1442503081418,1442503081446,867,295,0,0,0,3,4,1,34,0003-00-0009-08.png,0004-00-0000-02.png
00000009,431,1,1442503084995,1442503085777,378,368,0,0,0,1,4,3,14,0001-00-0009-06.png,0004-00-0002-52.png
00000009,432,1,1442503087210,1442503087298,913,384,0,0,0,4,1,3,41,0004-00-0008-32.png,0001-00-0002-30.png
00000009,433,0,1442503088380,1442503088428,888,436,0,0,0,2,4,2,24,0002-00-0004-45.png,0004-00-0004-38.png
00000009,434,1,1442503091562,1442503092165,522,228,0,0,0,2,5,3,25,0002-00-0006-75.png,0005-00-0001-05.png
00000009,435,0,1442503093054,1442503093090,913,420,0,0,0,1,5,4,15,0001-00-0002-82.png,0005-00-0009-16.png
00000009,436,1,1442503096650,1442503096690,939,332,0,0,0,5,3,2,53,0005-00-0003-99.png,0003-00-0007-54.png
00000009,437,1,1442503097735,1442503097779,916,467,0,0,0,5,2,3,52,0005-00-0003-00.png,0002-00-0008-12.png
00000009,438,1,1442503098797,1442503099567,924,552,0,0,0,4,2,2,42,0004-00-0002-93.png,0002-00-0009-98.png
00000009,439,1,1442503100675,1442503100723,878,462,0,0,0,5,4,1,54,0005-00-0009-13.png,0004-00-0002-28.png
00000009,440,0,1442503102133,1442503102185,881,430,0,0,0,1,3,2,13,0001-00-0004-49.png,0003-00-0005-95.png
00000009,441,1,1442503105016,1442503105704,512,283,0,0,0,4,5,1,45,0004-00-0007-81.png,0005-00-0007-24.png
00000009,442,0,1442503107121,1442503107141,870,394,0,0,0,3,5,2,35,0003-00-0006-74.png,0005-00-0002-79.png
00000009,443,1,1442503110262,1442503110975,1093,302,0,0,0,5,3,2,53,0005-00-0009-64.png,0003-00-0000-29.png
00000009,444,1,1442503112348,1442503112413,913,384,0,0,0,3,2,1,32,0003-00-0007-74.png,0002-00-0004-06.png
00000009,445,0,1442503113732,1442503113780,893,460,0,0,0,2,4,2,24,0002-00-0009-49.png,0004-00-0007-85.png
00000009,446,1,1442503116929,1442503117482,392,326,0,0,0,2,3,1,23,0002-00-0007-17.png,0003-00-0006-28.png
00000009,447,1,1442503118360,1442503118416,924,514,0,0,0,2,1,1,21,0002-00-0004-22.png,0001-00-0007-35.png
00000009,448,1,1442503119595,1442503119643,888,462,0,0,0,4,2,2,42,0004-00-0003-60.png,0002-00-0007-57.png
00000009,449,1,1442503120953,1442503120997,873,446,0,0,0,5,4,1,54,0005-00-0007-06.png,0004-00-0004-18.png
00000009,450,1,1442503122594,1442503122674,907,495,0,0,0,4,1,3,41,0004-00-0002-66.png,0001-00-0008-17.png
00000009,451,0,1442503124003,1442503124064,916,486,0,0,0,3,4,1,34,0003-00-0008-18.png,0004-00-0005-16.png
00000009,452,1,1442503127744,1442503128305,477,266,0,0,0,1,5,4,15,0001-00-0001-09.png,0005-00-0003-24.png
00000009,453,1,1442503129130,1442503129190,895,493,0,0,0,5,1,4,51,0005-00-0009-49.png,0001-00-0004-17.png
00000009,454,1,1442503130165,1442503131866,354,354,0,0,0,2,5,3,25,0002-00-0009-31.png,0005-00-0001-64.png
00000009,455,0,1442503133476,1442503133512,862,449,0,0,0,1,2,1,12,0001-00-0006-58.png,0002-00-0009-97.png
00000009,456,1,1442503136415,1442503137069,488,265,0,0,0,1,4,3,14,0001-00-0006-93.png,0004-00-0004-41.png
00000009,457,1,1442503138654,1442503139406,946,345,0,0,0,3,1,2,31,0003-00-0002-83.png,0001-00-0002-39.png
00000009,458,1,1442503140748,1442503140808,888,454,0,0,0,5,2,3,52,0005-00-0005-22.png,0002-00-0000-98.png
00000009,459,0,1442503141813,1442503141873,880,498,0,0,0,1,3,2,13,0001-00-0006-86.png,0003-00-0005-78.png
00000009,460,1,1442503145073,1442503145093,916,346,0,0,0,4,3,1,43,0004-00-0001-68.png,0003-00-0005-28.png
00000009,461,1,1442503146113,1442503146125,887,441,0,0,0,3,2,1,32,0003-00-0003-09.png,0002-00-0002-84.png
00000009,462,1,1442503147137,1442503148276,1041,257,0,0,0,4,1,3,41,0004-00-0001-19.png,0001-00-0003-03.png
00000009,463,0,1442503149224,1442503149333,915,448,0,0,0,4,5,1,45,0004-00-0001-34.png,0005-00-0000-20.png
00000009,464,1,1442503152364,1442503152919,394,347,0,0,0,2,3,1,23,0002-00-0005-36.png,0003-00-0007-57.png
00000009,465,0,1442503154284,1442503154352,879,410,0,0,0,1,3,2,13,0001-00-0000-44.png,0003-00-0000-23.png
00000009,466,1,1442503157474,1442503158010,510,263,0,0,0,3,4,1,34,0003-00-0003-56.png,0004-00-0003-98.png
00000009,467,1,1442503158832,1442503158907,879,488,0,0,0,5,2,3,52,0005-00-0003-12.png,0002-00-0001-94.png
00000009,468,0,1442503159908,1442503159956,888,435,0,0,0,2,4,2,24,0002-00-0001-11.png,0004-00-0000-52.png
00000009,469,1,1442503163156,1442503163184,865,296,0,0,0,3,1,2,31,0003-00-0005-20.png,0001-00-0000-09.png
00000009,470,1,1442503164171,1442503164211,888,488,0,0,0,4,2,2,42,0004-00-0002-35.png,0002-00-0006-78.png
00000009,471,1,1442503165344,1442503165392,879,465,0,0,0,2,1,1,21,0002-00-0007-40.png,0001-00-0003-60.png
00000009,472,0,1442503166724,1442503166784,919,499,0,0,0,1,2,1,12,0001-00-0003-37.png,0002-00-0003-34.png
00000009,473,0,1442503169845,1442503170582,1093,281,0,0,0,1,4,3,14,0001-00-0005-95.png,0004-00-0001-68.png
00000009,474,1,1442503173563,1442503173657,942,355,0,0,0,4,3,1,43,0004-00-0008-86.png,0003-00-0000-79.png
00000009,475,1,1442503174656,1442503174692,913,436,0,0,0,5,3,2,53,0005-00-0006-28.png,0003-00-0006-41.png
00000009,476,0,1442503175788,1442503176429,927,554,0,0,0,1,5,4,15,0001-00-0002-43.png,0005-00-0007-15.png
00000009,477,1,1442503179576,1442503179595,963,339,0,0,0,5,4,1,54,0005-00-0006-46.png,0004-00-0002-28.png
00000009,478,1,1442503180596,1442503180660,877,488,0,0,0,5,1,4,51,0005-00-0007-58.png,0001-00-0001-19.png
00000009,479,0,1442503181762,1442503181800,889,456,0,0,0,2,5,3,25,0002-00-0005-21.png,0005-00-0002-49.png
00000009,480,0,1442503184640,1442503185365,917,315,0,0,0,3,5,2,35,0003-00-0002-45.png,0005-00-0000-04.png
00000009,481,1,1442503188508,1442503188556,977,333,0,0,0,4,3,1,43,0004-00-0000-16.png,0003-00-0009-80.png
00000009,482,1,1442503189500,1442503189520,913,436,0,0,0,2,1,1,21,0002-00-0006-02.png,0001-00-0008-44.png
00000009,483,1,1442503190435,1442503191586,496,244,0,0,0,2,5,3,25,0002-00-0005-09.png,0005-00-0007-92.png
00000009,484,1,1442503192745,1442503192805,877,497,0,0,0,4,2,2,42,0004-00-0002-53.png,0002-00-0002-20.png
00000009,485,1,1442503193915,1442503193963,888,436,0,0,0,5,4,1,54,0005-00-0000-91.png,0004-00-0004-66.png
00000009,486,1,1442503195561,1442503195600,903,488,0,0,0,5,3,2,53,0005-00-0002-00.png,0003-00-0002-64.png
00000009,487,0,1442503196806,1442503196842,890,467,0,0,0,2,3,1,23,0002-00-0009-70.png,0003-00-0004-87.png
00000009,488,1,1442503199935,1442503200528,376,345,0,0,0,4,5,1,45,0004-00-0007-31.png,0005-00-0002-90.png
00000009,489,1,1442503201394,1442503201422,887,441,0,0,0,3,2,1,32,0003-00-0001-40.png,0002-00-0009-41.png
00000009,490,1,1442503202339,1442503203757,386,339,0,0,0,3,4,1,34,0003-00-0000-65.png,0004-00-0002-11.png
00000009,491,1,1442503204624,1442503204712,862,462,0,0,0,5,1,4,51,0005-00-0001-56.png,0001-00-0008-70.png
00000009,492,1,1442503205848,1442503206917,384,341,0,0,0,1,4,3,14,0001-00-0001-78.png,0004-00-0007-99.png
00000009,493,1,1442503207856,1442503208831,376,340,0,0,0,3,5,2,35,0003-00-0003-20.png,0005-00-0001-02.png
00000009,494,0,1442503210290,1442503210350,865,492,0,0,0,1,3,2,13,0001-00-0001-75.png,0003-00-0008-84.png
00000009,495,1,1442503213292,1442503213934,1092,279,0,0,0,5,2,3,52,0005-00-0005-25.png,0002-00-0002-07.png
00000009,496,0,1442503214817,1442503215622,490,231,0,0,0,4,1,3,41,0004-00-0000-14.png,0001-00-0006-36.png
00000009,497,1,1442503218600,1442503219151,513,270,0,0,0,1,5,4,15,0001-00-0005-33.png,0005-00-0001-32.png
00000009,498,0,1442503220047,1442503220087,914,435,0,0,0,1,2,1,12,0001-00-0003-13.png,0002-00-0008-87.png
00000009,499,1,1442503223249,1442503223795,969,335,0,0,0,3,1,2,31,0003-00-0005-93.png,0001-00-0006-27.png
00000009,500,0,1442503225187,1442503225215,885,386,0,0,0,2,4,2,24,0002-00-0005-54.png,0004-00-0005-38.png
00000009,501,1,1442503228124,1442503228795,427,423,0,0,0,2,5,3,25,0002-00-0009-93.png,0005-00-0008-79.png
00000009,502,0,1442503229731,1442503229759,863,436,0,0,0,3,4,1,34,0003-00-0000-41.png,0004-00-0009-87.png
00000009,503,0,1442503232788,1442503232796,522,449,0,0,0,5,2,3,52,0005-00-0003-70.png,0002-00-0001-28.png
00000009,504,1,1442503235809,1442503235869,931,423,0,0,0,2,1,1,21,0002-00-0009-56.png,0001-00-0001-18.png
00000009,505,0,1442503236900,1442503236920,871,436,0,0,0,1,2,1,12,0001-00-0004-86.png,0002-00-0008-78.png
00000009,506,1,1442503239994,1442503240599,1095,278,0,0,0,4,1,3,41,0004-00-0002-49.png,0001-00-0000-61.png
00000009,507,1,1442503242089,1442503242149,888,422,0,0,0,5,1,4,51,0005-00-0008-98.png,0001-00-0006-06.png
00000009,508,1,1442503243220,1442503244442,1018,304,0,0,0,5,4,1,54,0005-00-0003-88.png,0004-00-0006-78.png
00000009,509,0,1442503245348,1442503246565,481,218,0,0,0,3,2,1,32,0003-00-0004-02.png,0002-00-0006-97.png
00000009,510,1,1442503249434,1442503249542,967,446,0,0,0,5,3,2,53,0005-00-0002-94.png,0003-00-0005-66.png
00000009,511,1,1442503250507,1442503250543,913,445,0,0,0,4,3,1,43,0004-00-0001-67.png,0003-00-0007-14.png
00000009,512,0,1442503251638,1442503252205,888,554,0,0,0,1,4,3,14,0001-00-0009-05.png,0004-00-0008-78.png
00000009,513,0,1442503255285,1442503255317,942,373,0,0,0,2,3,1,23,0002-00-0001-40.png,0003-00-0004-91.png
00000009,514,0,1442503258407,1442503258604,881,433,0,0,0,3,5,2,35,0003-00-0003-28.png,0005-00-0009-64.png
00000009,515,0,1442503261647,1442503262233,990,393,0,0,0,1,3,2,13,0001-00-0009-90.png,0003-00-0007-11.png
00000009,516,1,1442503265185,1442503265733,491,250,0,0,0,1,5,4,15,0001-00-0006-01.png,0005-00-0002-60.png
00000009,517,1,1442503266628,1442503266664,913,462,0,0,0,3,1,2,31,0003-00-0003-04.png,0001-00-0006-77.png
00000009,518,0,1442503267799,1442503268977,1041,242,0,0,0,4,5,1,45,0004-00-0002-50.png,0005-00-0005-13.png
00000009,519,1,1442503272112,1442503272645,518,256,0,0,0,2,4,2,24,0002-00-0001-94.png,0004-00-0003-38.png
00000009,520,1,1442503273479,1442503273560,888,488,0,0,0,4,2,2,42,0004-00-0005-13.png,0002-00-0001-50.png
00000009,521,1,1442503274595,1442503274667,862,436,0,0,0,4,1,3,41,0004-00-0009-99.png,0001-00-0000-47.png
00000009,522,0,1442503275867,1442503275895,873,506,0,0,0,4,5,1,45,0004-00-0009-26.png,0005-00-0009-57.png
00000009,523,1,1442503279056,1442503279723,456,219,0,0,0,3,5,2,35,0003-00-0003-86.png,0005-00-0006-54.png
00000009,524,1,1442503280554,1442503280606,888,436,0,0,0,5,4,1,54,0005-00-0002-32.png,0004-00-0009-66.png
00000009,525,1,1442503281847,1442503281871,862,458,0,0,0,4,2,2,42,0004-00-0001-17.png,0002-00-0003-71.png
00000009,526,1,1442503283130,1442503283158,872,436,0,0,0,4,3,1,43,0004-00-0008-35.png,0003-00-0008-50.png
00000009,527,1,1442503284540,1442503284620,904,476,0,0,0,5,3,2,53,0005-00-0003-16.png,0003-00-0004-35.png
00000009,528,1,1442503285842,1442503285902,908,454,0,0,0,3,2,1,32,0003-00-0005-30.png,0002-00-0002-19.png
00000009,529,0,1442503288584,1442503288608,915,258,0,0,0,1,5,4,15,0001-00-0001-96.png,0005-00-0007-73.png
00000009,530,0,1442503291668,1442503291716,972,385,0,0,0,1,4,3,14,0001-00-0004-97.png,0004-00-0003-02.png
00000009,531,0,1442503294698,1442503294718,891,442,0,0,0,1,3,2,13,0001-00-0007-14.png,0003-00-0004-76.png
00000009,532,0,1442503297878,1442503298457,984,339,0,0,0,3,4,1,34,0003-00-0003-40.png,0004-00-0000-28.png
00000009,533,1,1442503301418,1442503302262,981,373,0,0,0,3,1,2,31,0003-00-0008-96.png,0001-00-0005-04.png
00000009,534,1,1442503303213,1442503303277,939,472,0,0,0,5,2,3,52,0005-00-0007-87.png,0002-00-0004-07.png
00000009,535,0,1442503304385,1442503304425,862,436,0,0,0,2,3,1,23,0002-00-0005-40.png,0003-00-0003-22.png
00000009,536,1,1442503307586,1442503308137,484,273,0,0,0,2,4,2,24,0002-00-0003-29.png,0004-00-0004-85.png
00000009,537,1,1442503309035,1442503309063,908,468,0,0,0,2,1,1,21,0002-00-0008-62.png,0001-00-0000-23.png
00000009,538,1,1442503310061,1442503310089,871,466,0,0,0,5,1,4,51,0005-00-0000-05.png,0001-00-0003-82.png
00000009,539,0,1442503311263,1442503311311,867,424,0,0,0,2,5,3,25,0002-00-0008-54.png,0005-00-0006-50.png
00000009,540,1,1442503314452,1442503314995,519,221,0,0,0,1,2,1,12,0001-00-0003-47.png,0002-00-0007-05.png
00000009,541,1,1442503315903,1442503315951,922,462,0,0,0,4,1,3,41,0004-00-0000-99.png,0001-00-0008-03.png
00000009,542,0,1442503317064,1442503317096,861,451,0,0,0,2,4,2,24,0002-00-0009-18.png,0004-00-0009-55.png
00000009,543,1,1442503320055,1442503320077,939,410,0,0,0,5,3,2,53,0005-00-0002-61.png,0003-00-0008-69.png
00000009,544,0,1442503321081,1442503321141,912,446,0,0,0,1,3,2,13,0001-00-0002-26.png,0003-00-0007-79.png
00000009,545,0,1442503324201,1442503324504,950,322,0,0,0,3,4,1,34,0003-00-0007-95.png,0004-00-0007-07.png
00000009,546,1,1442503327640,1442503328205,937,331,0,0,0,5,4,1,54,0005-00-0005-25.png,0004-00-0002-61.png
00000009,547,0,1442503329076,1442503329116,894,438,0,0,0,4,5,1,45,0004-00-0001-16.png,0005-00-0003-94.png
00000009,548,1,1442503332115,1442503332943,959,335,0,0,0,2,1,1,21,0002-00-0004-63.png,0001-00-0007-44.png
00000009,549,0,1442503334366,1442503335249,490,227,0,0,0,4,3,1,43,0004-00-0002-19.png,0003-00-0008-97.png
00000009,550,1,1442503338402,1442503338426,963,329,0,0,0,5,1,4,51,0005-00-0009-27.png,0001-00-0000-04.png
00000009,551,0,1442503339435,1442503339447,922,446,0,0,0,3,5,2,35,0003-00-0001-31.png,0005-00-0002-94.png
00000009,552,0,1442503342444,1442503343032,398,366,0,0,0,3,2,1,32,0003-00-0009-17.png,0002-00-0001-97.png
00000009,553,1,1442503345943,1442503346575,480,254,0,0,0,1,2,1,12,0001-00-0007-74.png,0002-00-0005-62.png
00000009,554,1,1442503347496,1442503348661,913,319,0,0,0,5,2,3,52,0005-00-0007-50.png,0002-00-0004-91.png
00000009,555,0,1442503350255,1442503350308,900,443,0,0,0,1,4,3,14,0001-00-0006-89.png,0004-00-0008-34.png
00000009,556,1,1442503353469,1442503353958,385,405,0,0,0,1,5,4,15,0001-00-0002-49.png,0005-00-0005-42.png
00000009,557,1,1442503354828,1442503354888,899,436,0,0,0,4,2,2,42,0004-00-0005-87.png,0002-00-0005-07.png
00000009,558,0,1442503355893,1442503355953,873,436,0,0,0,2,5,3,25,0002-00-0007-83.png,0005-00-0008-72.png
00000009,559,1,1442503359102,1442503359645,938,307,0,0,0,3,1,2,31,0003-00-0007-81.png,0001-00-0009-87.png
00000009,560,0,1442503360990,1442503361077,903,436,0,0,0,2,3,1,23,0002-00-0005-44.png,0003-00-0001-39.png
00000009,561,1,1442503364240,1442503364813,966,305,0,0,0,4,1,3,41,0004-00-0004-04.png,0001-00-0003-19.png
00000009,562,1,1442503365666,1442503365718,913,389,0,0,0,4,2,2,42,0004-00-0005-13.png,0002-00-0005-52.png
00000009,563,1,1442503366625,1442503367535,939,541,0,0,0,2,1,1,21,0002-00-0007-96.png,0001-00-0003-12.png
00000009,564,1,1442503368581,1442503368661,958,394,0,0,0,5,1,4,51,0005-00-0007-49.png,0001-00-0001-89.png
00000009,565,0,1442503369724,1442503369787,888,541,0,0,0,1,3,2,13,0001-00-0002-09.png,0003-00-0008-12.png
00000009,566,1,1442503372866,1442503373431,477,255,0,0,0,1,2,1,12,0001-00-0005-07.png,0002-00-0006-27.png
00000009,567,1,1442503374369,1442503374397,902,435,0,0,0,4,3,1,43,0004-00-0003-07.png,0003-00-0005-12.png
00000009,568,0,1442503375456,1442503375496,868,478,0,0,0,3,4,1,34,0003-00-0005-12.png,0004-00-0007-67.png
00000009,569,0,1442503378590,1442503378674,924,287,0,0,0,3,5,2,35,0003-00-0007-67.png,0005-00-0009-84.png
00000009,570,1,1442503381838,1442503382472,968,338,0,0,0,5,3,2,53,0005-00-0008-01.png,0003-00-0006-43.png
00000009,571,0,1442503383442,1442503383518,922,462,0,0,0,4,5,1,45,0004-00-0003-79.png,0005-00-0008-87.png
00000009,572,1,1442503386600,1442503387113,1094,336,0,0,0,3,1,2,31,0003-00-0001-42.png,0001-00-0009-43.png
00000009,573,0,1442503387980,1442503388059,913,462,0,0,0,2,5,3,25,0002-00-0004-70.png,0005-00-0001-13.png
00000009,574,1,1442503390960,1442503391997,368,376,0,0,0,2,3,1,23,0002-00-0002-11.png,0003-00-0001-34.png
00000009,575,1,1442503392928,1442503392976,889,499,0,0,0,5,4,1,54,0005-00-0009-69.png,0004-00-0001-34.png
00000009,576,0,1442503394189,1442503394217,862,436,0,0,0,1,4,3,14,0001-00-0002-01.png,0004-00-0002-36.png
00000009,577,1,1442503397231,1442503397278,875,464,0,0,0,3,2,1,32,0003-00-0003-85.png,0002-00-0004-20.png
00000009,578,1,1442503398291,1442503398355,964,448,0,0,0,5,2,3,52,0005-00-0001-66.png,0002-00-0006-25.png
00000009,579,0,1442503399347,1442503399355,857,471,0,0,0,1,5,4,15,0001-00-0001-30.png,0005-00-0005-09.png
00000009,580,1,1442503402206,1442503402851,478,236,0,0,0,2,4,2,24,0002-00-0002-59.png,0004-00-0000-15.png
00000009,581,1,1442503403717,1442503404859,1082,298,0,0,0,5,4,1,54,0005-00-0008-53.png,0004-00-0005-15.png
00000009,582,0,1442503405905,1442503406044,933,526,0,0,0,3,5,2,35,0003-00-0009-02.png,0005-00-0007-70.png
00000009,583,0,1442503409224,1442503409945,514,266,0,0,0,3,2,1,32,0003-00-0006-35.png,0002-00-0008-31.png
00000009,584,0,1442503413071,1442503413131,968,333,0,0,0,2,3,1,23,0002-00-0006-99.png,0003-00-0003-27.png
00000009,585,1,1442503416162,1442503416851,519,257,0,0,0,1,2,1,12,0001-00-0009-07.png,0002-00-0004-31.png
00000009,586,1,1442503417741,1442503417789,899,462,0,0,0,5,2,3,52,0005-00-0003-68.png,0002-00-0008-51.png
00000009,587,0,1442503418881,1442503418917,864,442,0,0,0,1,4,3,14,0001-00-0005-04.png,0004-00-0008-01.png
00000009,588,1,1442503422082,1442503422122,972,309,0,0,0,4,3,1,43,0004-00-0001-82.png,0003-00-0004-03.png
00000009,589,1,1442503423126,1442503423186,881,471,0,0,0,3,1,2,31,0003-00-0003-76.png,0001-00-0003-21.png
00000009,590,0,1442503424190,1442503424226,870,460,0,0,0,2,5,3,25,0002-00-0007-59.png,0005-00-0008-25.png
00000009,591,0,1442503427050,1442503427122,878,487,0,0,0,3,4,1,34,0003-00-0001-08.png,0004-00-0001-63.png
00000009,592,1,1442503430298,1442503430863,496,258,0,0,0,1,3,2,13,0001-00-0007-37.png,0003-00-0003-91.png
00000009,593,1,1442503431782,1442503431834,925,493,0,0,0,4,2,2,42,0004-00-0006-21.png,0002-00-0004-35.png
00000009,594,0,1442503432815,1442503432847,858,464,0,0,0,1,5,4,15,0001-00-0001-79.png,0005-00-0009-74.png
00000009,595,0,1442503436059,1442503436093,993,315,0,0,0,2,4,2,24,0002-00-0003-08.png,0004-00-0000-38.png
00000009,596,1,1442503439252,1442503439964,370,341,0,0,0,4,5,1,45,0004-00-0001-30.png,0005-00-0004-57.png
00000009,597,1,1442503440853,1442503440929,894,479,0,0,0,5,1,4,51,0005-00-0003-61.png,0001-00-0006-11.png
00000009,598,1,1442503442017,1442503442057,872,433,0,0,0,5,3,2,53,0005-00-0006-91.png,0003-00-0000-98.png
00000009,599,1,1442503443504,1442503443544,888,446,0,0,0,4,1,3,41,0004-00-0001-01.png,0001-00-0003-40.png
00000009,600,1,1442503444676,1442503444740,888,448,0,0,0,2,1,1,21,0002-00-0006-28.png,0001-00-0003-14.png
00000009,601,1,1442503446018,1442503446058,864,476,0,0,0,3,2,1,32,0003-00-0001-42.png,0002-00-0003-59.png
00000009,602,0,1442503447469,1442503447521,870,459,0,0,0,1,2,1,12,0001-00-0000-93.png,0002-00-0009-21.png
00000009,603,1,1442503450470,1442503451029,919,322,0,0,0,3,1,2,31,0003-00-0007-98.png,0001-00-0001-02.png
00000009,604,0,1442503452410,1442503452494,895,428,0,0,0,2,4,2,24,0002-00-0001-26.png,0004-00-0006-44.png
00000009,605,0,1442503455604,1442503456204,500,280,0,0,0,4,3,1,43,0004-00-0000-61.png,0003-00-0001-92.png
00000009,606,1,1442503459296,1442503459935,492,262,0,0,0,1,3,2,13,0001-00-0009-58.png,0003-00-0006-33.png
00000009,607,1,1442503460850,1442503460886,887,471,0,0,0,2,1,1,21,0002-00-0000-65.png,0001-00-0005-71.png
00000009,608,0,1442503461980,1442503462076,878,436,0,0,0,3,4,1,34,0003-00-0000-08.png,0004-00-0005-54.png
00000009,609,0,1442503465267,1442503465962,1092,273,0,0,0,2,3,1,23,0002-00-0005-38.png,0003-00-0002-60.png
00000009,610,1,1442503472921,1442503473451,438,228,0,0,0,1,5,4,15,0001-00-0007-14.png,0005-00-0001-78.png
00000009,611,1,1442503474483,1442503475267,366,379,0,0,0,1,4,3,14,0001-00-0005-63.png,0004-00-0005-60.png
00000009,612,1,1442503476244,1442503477471,453,227,0,0,0,4,5,1,45,0004-00-0001-93.png,0005-00-0001-40.png
00000009,613,1,1442503478365,1442503479315,919,330,0,0,0,5,3,2,53,0005-00-0007-74.png,0003-00-0001-48.png
00000009,614,0,1442503480337,1442503481283,362,321,0,0,0,5,4,1,54,0005-00-0004-99.png,0004-00-0006-65.png
00000009,615,0,1442503484201,1442503484895,335,346,0,0,0,5,2,3,52,0005-00-0002-39.png,0002-00-0007-34.png
00000009,616,0,1442503489562,1442503490095,905,354,0,0,0,3,5,2,35,0003-00-0009-67.png,0005-00-0008-16.png
00000009,617,1,1442503511169,1442503511202,859,335,0,0,0,4,1,3,41,0004-00-0000-60.png,0001-00-0000-80.png
00000009,618,1,1442503512279,1442503513177,937,408,0,0,0,4,2,2,42,0004-00-0008-94.png,0002-00-0001-62.png
00000009,619,1,1442503514025,1442503514086,900,436,0,0,0,5,1,4,51,0005-00-0002-25.png,0001-00-0003-26.png
00000009,620,0,1442503515323,1442503515367,880,420,0,0,0,2,5,3,25,0002-00-0009-61.png,0005-00-0003-01.png
00000009,621,1,1442503523560,1442503524190,1096,329,0,0,0,3,1,2,31,0003-00-0008-49.png,0001-00-0000-73.png
00000009,622,0,1442503525221,1442503526054,1092,327,0,0,0,4,5,1,45,0004-00-0008-66.png,0005-00-0003-79.png
00000009,623,1,1442503529466,1442503530136,974,359,0,0,0,3,2,1,32,0003-00-0009-58.png,0002-00-0002-40.png
00000009,624,0,1442503531041,1442503531972,497,238,0,0,0,4,3,1,43,0004-00-0001-01.png,0003-00-0009-32.png
00000009,625,0,1442503536448,1442503536506,885,301,0,0,0,3,5,2,35,0003-00-0002-79.png,0005-00-0002-57.png
00000009,626,1,1442503539476,1442503539520,892,419,0,0,0,4,1,3,41,0004-00-0004-52.png,0001-00-0007-58.png
00000009,627,0,1442503540522,1442503541525,363,337,0,0,0,2,1,1,21,0002-00-0008-52.png,0001-00-0005-36.png
00000009,628,1,1442503544677,1442503545371,467,220,0,0,0,1,5,4,15,0001-00-0003-32.png,0005-00-0000-10.png
00000009,629,0,1442503546274,1442503546322,862,475,0,0,0,2,5,3,25,0002-00-0006-40.png,0005-00-0005-32.png
00000009,630,1,1442503549184,1442503549864,937,336,0,0,0,5,3,2,53,0005-00-0005-01.png,0003-00-0007-04.png
00000009,631,1,1442503551671,1442503552285,486,250,0,0,0,1,2,1,12,0001-00-0004-69.png,0002-00-0006-87.png
00000009,632,1,1442503553308,1442503553348,926,442,0,0,0,5,2,3,52,0005-00-0007-09.png,0002-00-0006-10.png
00000009,633,0,1442503554581,1442503554653,888,475,0,0,0,1,3,2,13,0001-00-0000-86.png,0003-00-0007-40.png
00000009,634,0,1442503557840,1442503557868,977,316,0,0,0,1,4,3,14,0001-00-0001-06.png,0004-00-0000-60.png
00000009,635,1,1442503561012,1442503561048,886,381,0,0,0,5,1,4,51,0005-00-0007-45.png,0001-00-0008-87.png
00000009,636,0,1442503562123,1442503562163,906,461,0,0,0,2,3,1,23,0002-00-0001-44.png,0003-00-0004-69.png
00000009,637,1,1442503565064,1442503565652,491,239,0,0,0,2,4,2,24,0002-00-0004-58.png,0004-00-0004-38.png
00000009,638,1,1442503566537,1442503566608,938,471,0,0,0,5,4,1,54,0005-00-0006-28.png,0004-00-0008-91.png
00000009,639,1,1442503567572,1442503567612,887,443,0,0,0,4,2,2,42,0004-00-0006-62.png,0002-00-0007-00.png
00000009,640,0,1442503569005,1442503569515,952,554,0,0,0,3,4,1,34,0003-00-0002-91.png,0004-00-0009-59.png
00000009,641,1,1442503572809,1442503573479,1108,274,0,0,0,5,4,1,54,0005-00-0002-77.png,0004-00-0006-93.png
00000009,642,0,1442503574475,1442503574537,937,492,0,0,0,4,5,1,45,0004-00-0005-30.png,0005-00-0006-46.png
00000009,643,0,1442503577728,1442503577975,913,450,0,0,0,1,4,3,14,0001-00-0008-83.png,0004-00-0000-14.png
00000009,644,1,1442503581166,1442503581190,943,331,0,0,0,5,2,3,52,0005-00-0000-97.png,0002-00-0006-60.png
00000009,645,1,1442503582199,1442503582267,926,514,0,0,0,5,1,4,51,0005-00-0008-00.png,0001-00-0009-91.png
00000009,646,0,1442503583494,1442503583538,889,486,0,0,0,1,3,2,13,0001-00-0002-86.png,0003-00-0004-95.png
00000009,647,1,1442503586779,1442503587364,500,261,0,0,0,2,3,1,23,0002-00-0008-07.png,0003-00-0005-01.png
00000009,648,1,1442503588238,1442503588289,913,473,0,0,0,2,1,1,21,0002-00-0003-52.png,0001-00-0007-78.png
00000009,649,0,1442503589451,1442503589503,888,445,0,0,0,2,4,2,24,0002-00-0007-69.png,0004-00-0006-78.png
00000009,650,0,1442503592544,1442503592843,966,301,0,0,0,2,5,3,25,0002-00-0002-42.png,0005-00-0008-85.png
00000009,651,0,1442503596291,1442503596860,1121,280,0,0,0,3,4,1,34,0003-00-0005-18.png,0004-00-0002-01.png
00000009,652,1,1442503600055,1442503600609,464,410,0,0,0,1,2,1,12,0001-00-0004-94.png,0002-00-0001-71.png
00000009,653,1,1442503601538,1442503601610,924,501,0,0,0,5,3,2,53,0005-00-0005-27.png,0003-00-0006-41.png
00000009,654,1,1442503602701,1442503602777,899,449,0,0,0,4,2,2,42,0004-00-0006-80.png,0002-00-0007-82.png
00000009,655,0,1442503603933,1442503603969,872,446,0,0,0,3,5,2,35,0003-00-0003-53.png,0005-00-0007-99.png
00000009,656,0,1442503607100,1442503607616,429,385,0,0,0,4,3,1,43,0004-00-0006-84.png,0003-00-0006-33.png
00000009,657,1,1442503610458,1442503610988,477,281,0,0,0,1,5,4,15,0001-00-0001-05.png,0005-00-0006-31.png
00000009,658,1,1442503611817,1442503611881,915,468,0,0,0,4,1,3,41,0004-00-0005-03.png,0001-00-0007-76.png
00000009,659,1,1442503612952,1442503612997,873,462,0,0,0,3,1,2,31,0003-00-0002-28.png,0001-00-0009-36.png
00000009,660,1,1442503614731,1442503614803,888,462,0,0,0,3,2,1,32,0003-00-0002-10.png,0002-00-0007-76.png
00000009,661,1,1442503616062,1442503616114,872,447,0,0,0,4,3,1,43,0004-00-0006-64.png,0003-00-0009-43.png
00000009,662,1,1442503618518,1442503619102,458,266,0,0,0,4,5,1,45,0004-00-0007-41.png,0005-00-0009-48.png
00000009,663,0,1442503620080,1442503620128,883,499,0,0,0,1,5,4,15,0001-00-0008-00.png,0005-00-0004-18.png
00000009,664,0,1442503623271,1442503623311,970,333,0,0,0,2,5,3,25,0002-00-0004-93.png,0005-00-0003-06.png
00000009,665,1,1442503626160,1442503626685,395,373,0,0,0,2,4,2,24,0002-00-0005-99.png,0004-00-0000-15.png
00000009,666,0,1442503627613,1442503627658,913,462,0,0,0,1,2,1,12,0001-00-0000-82.png,0002-00-0002-76.png
00000009,667,1,1442503631148,1442503631180,967,314,0,0,0,4,1,3,41,0004-00-0003-18.png,0001-00-0004-71.png
00000009,668,1,1442503632225,1442503632261,944,498,0,0,0,5,1,4,51,0005-00-0003-90.png,0001-00-0009-90.png
00000009,669,1,1442503633315,1442503633400,908,483,0,0,0,3,1,2,31,0003-00-0001-99.png,0001-00-0000-77.png
00000009,670,1,1442503634558,1442503634586,892,421,0,0,0,5,3,2,53,0005-00-0002-02.png,0003-00-0008-13.png
00000009,671,0,1442503636097,1442503636149,884,449,0,0,0,2,3,1,23,0002-00-0008-05.png,0003-00-0002-08.png
00000009,672,1,1442503639358,1442503639911,501,246,0,0,0,1,4,3,14,0001-00-0008-74.png,0004-00-0007-35.png
00000009,673,1,1442503641323,1442503641363,885,421,0,0,0,5,4,1,54,0005-00-0008-86.png,0004-00-0005-55.png
00000009,674,0,1442503642476,1442503642544,862,462,0,0,0,3,5,2,35,0003-00-0004-52.png,0005-00-0002-25.png
00000009,675,1,1442503646112,1442503646658,1091,275,0,0,0,5,2,3,52,0005-00-0006-90.png,0002-00-0008-33.png
00000009,676,0,1442503648080,1442503648152,894,427,0,0,0,3,4,1,34,0003-00-0006-04.png,0004-00-0008-84.png
00000009,677,0,1442503651313,1442503651861,469,268,0,0,0,2,1,1,21,0002-00-0004-13.png,0001-00-0002-30.png
00000009,678,1,1442503655028,1442503655048,984,337,0,0,0,4,2,2,42,0004-00-0009-23.png,0002-00-0007-48.png
00000009,679,0,1442503656092,1442503656157,907,494,0,0,0,1,3,2,13,0001-00-0002-26.png,0003-00-0008-33.png
00000009,680,1,1442503659294,1442503659342,984,329,0,0,0,3,2,1,32,0003-00-0003-94.png,0002-00-0000-16.png
00000009,681,1,1442503660343,1442503660407,888,462,0,0,0,3,2,1,32,0003-00-0004-85.png,0002-00-0007-15.png
00000009,682,1,1442503661507,1442503661591,880,494,0,0,0,4,3,1,43,0004-00-0002-71.png,0003-00-0004-20.png
00000009,683,0,1442503662768,1442503662808,890,440,0,0,0,4,5,1,45,0004-00-0005-55.png,0005-00-0008-26.png
00000009,684,1,1442503665852,1442503666916,454,252,0,0,0,2,3,1,23,0002-00-0002-00.png,0003-00-0001-91.png
00000009,685,0,1442503667809,1442503667845,862,488,0,0,0,3,5,2,35,0003-00-0003-86.png,0005-00-0007-51.png
00000009,686,1,1442503671009,1442503671124,921,281,0,0,0,5,1,4,51,0005-00-0004-28.png,0001-00-0009-85.png
00000009,687,0,1442503672102,1442503672158,907,437,0,0,0,1,5,4,15,0001-00-0003-41.png,0005-00-0001-05.png
00000009,688,1,1442503675213,1442503675754,1091,280,0,0,0,3,1,2,31,0003-00-0009-83.png,0001-00-0004-76.png
00000009,689,1,1442503676630,1442503677764,1045,282,0,0,0,5,3,2,53,0005-00-0004-03.png,0003-00-0001-62.png
00000009,690,0,1442503678778,1442503678802,887,419,0,0,0,1,3,2,13,0001-00-0002-95.png,0003-00-0001-26.png
00000009,691,1,1442503681740,1442503681793,870,416,0,0,0,4,1,3,41,0004-00-0008-77.png,0001-00-0001-72.png
00000009,692,1,1442503682812,1442503682864,928,453,0,0,0,5,2,3,52,0005-00-0009-77.png,0002-00-0001-96.png
00000009,693,0,1442503683984,1442503684024,883,453,0,0,0,2,5,3,25,0002-00-0008-81.png,0005-00-0009-36.png
00000009,694,1,1442503687173,1442503687205,951,336,0,0,0,2,1,1,21,0002-00-0001-43.png,0001-00-0008-27.png
00000009,695,0,1442503688722,1442503688790,888,401,0,0,0,1,4,3,14,0001-00-0005-57.png,0004-00-0001-27.png
00000009,696,1,1442503692352,1442503692376,888,347,0,0,0,4,2,2,42,0004-00-0004-89.png,0002-00-0007-36.png
00000009,697,0,1442503693393,1442503693449,914,481,0,0,0,2,4,2,24,0002-00-0002-65.png,0004-00-0001-80.png
00000009,698,0,1442503696428,1442503696494,892,457,0,0,0,3,4,1,34,0003-00-0008-45.png,0004-00-0003-71.png
00000009,699,0,1442503699686,1442503700341,505,265,0,0,0,5,4,1,54,0005-00-0006-70.png,0004-00-0007-82.png
00000009,700,0,1442503703180,1442503703200,868,420,0,0,0,1,2,1,12,0001-00-0009-74.png,0002-00-0006-69.png
00000009,701,1,1442503706428,1442503706980,508,291,0,0,0,2,4,2,24,0002-00-0001-93.png,0004-00-0009-45.png
00000009,702,1,1442503707844,1442503707936,913,436,0,0,0,5,4,1,54,0005-00-0002-87.png,0004-00-0007-25.png
00000009,703,1,1442503709144,1442503709210,877,451,0,0,0,4,1,3,41,0004-00-0004-06.png,0001-00-0000-11.png
00000009,704,0,1442503710369,1442503710417,875,442,0,0,0,4,5,1,45,0004-00-0006-85.png,0005-00-0000-88.png
00000009,705,1,1442503713638,1442503713663,929,339,0,0,0,2,1,1,21,0002-00-0001-26.png,0001-00-0004-55.png
00000009,706,0,1442503714613,1442503714633,886,467,0,0,0,1,5,4,15,0001-00-0004-64.png,0005-00-0005-13.png
00000009,707,0,1442503717794,1442503717822,924,332,0,0,0,3,4,1,34,0003-00-0006-80.png,0004-00-0000-05.png
00000009,708,0,1442503720973,1442503721021,889,355,0,0,0,3,5,2,35,0003-00-0006-94.png,0005-00-0002-39.png
00000009,709,1,1442503723903,1442503723935,927,389,0,0,0,5,2,3,52,0005-00-0008-85.png,0002-00-0003-05.png
00000009,710,1,1442503724958,1442503725006,913,446,0,0,0,3,2,1,32,0003-00-0008-02.png,0002-00-0003-29.png
00000009,711,1,1442503726099,1442503726155,880,456,0,0,0,5,1,4,51,0005-00-0002-25.png,0001-00-0004-44.png
00000009,712,1,1442503727262,1442503727334,878,514,0,0,0,5,3,2,53,0005-00-0005-11.png,0003-00-0005-21.png
00000009,713,0,1442503728725,1442503728773,913,410,0,0,0,1,2,1,12,0001-00-0007-75.png,0002-00-0002-90.png
00000009,714,1,1442503732392,1442503732972,944,311,0,0,0,3,1,2,31,0003-00-0009-44.png,0001-00-0009-35.png
00000009,715,0,1442503733839,1442503733879,913,497,0,0,0,1,4,3,14,0001-00-0000-83.png,0004-00-0004-44.png
00000009,716,0,1442503736931,1442503737553,480,268,0,0,0,4,2,2,42,0004-00-0001-87.png,0002-00-0003-82.png
00000009,717,0,1442503740508,1442503740542,914,464,0,0,0,1,3,2,13,0001-00-0008-69.png,0003-00-0002-69.png
00000009,718,0,1442503743570,1442503743598,867,408,0,0,0,2,3,1,23,0002-00-0002-39.png,0003-00-0002-82.png
00000009,719,1,1442503746791,1442503746831,927,355,0,0,0,4,3,1,43,0004-00-0008-73.png,0003-00-0009-17.png
00000009,720,0,1442503747893,1442503747924,974,438,0,0,0,2,5,3,25,0002-00-0005-57.png,0005-00-0000-51.png
00000009,721,1,1442503751006,1442503751590,1103,279,0,0,0,3,2,1,32,0003-00-0000-46.png,0002-00-0007-30.png
00000009,722,1,1442503753003,1442503753093,888,446,0,0,0,5,3,2,53,0005-00-0006-14.png,0003-00-0007-50.png
00000009,723,0,1442503754348,1442503754422,879,484,0,0,0,2,4,2,24,0002-00-0005-72.png,0004-00-0009-22.png
00000009,724,0,1442503757473,1442503758030,427,421,0,0,0,4,2,2,42,0004-00-0001-63.png,0002-00-0007-34.png
00000009,725,0,1442503760871,1442503761707,1067,276,0,0,0,2,3,1,23,0002-00-0004-47.png,0003-00-0009-14.png
00000009,726,0,1442503764838,1442503764887,951,331,0,0,0,1,5,4,15,0001-00-0006-88.png,0005-00-0007-46.png
00000009,727,1,1442503768118,1442503768683,355,360,0,0,0,2,5,3,25,0002-00-0006-48.png,0005-00-0008-78.png
00000009,728,1,1442503770451,1442503770499,915,282,0,0,0,2,1,1,21,0002-00-0008-01.png,0001-00-0000-53.png
00000009,729,1,1442503771543,1442503771603,911,467,0,0,0,5,2,3,52,0005-00-0007-71.png,0002-00-0008-26.png
00000009,730,1,1442503772595,1442503772667,927,456,0,0,0,4,1,3,41,0004-00-0000-90.png,0001-00-0007-61.png
00000009,731,0,1442503774008,1442503774088,907,500,0,0,0,4,5,1,45,0004-00-0007-11.png,0005-00-0006-39.png
00000009,732,1,1442503776959,1442503776963,883,257,0,0,0,4,3,1,43,0004-00-0003-13.png,0003-00-0009-88.png
00000009,733,0,1442503782120,1442503782620,1119,310,0,0,0,3,4,1,34,0003-00-0003-53.png,0004-00-0001-81.png
00000009,734,1,1442503785646,1442503786253,513,263,0,0,0,3,5,2,35,0003-00-0005-72.png,0005-00-0006-55.png
00000009,735,1,1442503787224,1442503787248,922,491,0,0,0,3,1,2,31,0003-00-0006-08.png,0001-00-0007-47.png
00000009,736,1,1442503788338,1442503788370,885,470,0,0,0,5,4,1,54,0005-00-0007-76.png,0004-00-0008-50.png
00000009,737,0,1442503789512,1442503789592,921,491,0,0,0,1,4,3,14,0001-00-0004-37.png,0004-00-0007-73.png
00000009,738,1,1442503792757,1442503793287,934,351,0,0,0,5,1,4,51,0005-00-0006-15.png,0001-00-0009-74.png
00000009,739,0,1442503794737,1442503794769,861,420,0,0,0,1,2,1,12,0001-00-0007-12.png,0002-00-0006-79.png
00000009,740,1,1442503797869,1442503798402,511,269,0,0,0,1,3,2,13,0001-00-0002-73.png,0003-00-0005-46.png
00000009,741,0,1442503799217,1442503799269,913,462,0,0,0,4,5,1,45,0004-00-0002-05.png,0005-00-0005-55.png
00000009,742,0,1442503802244,1442503803155,1102,261,0,0,0,2,4,2,24,0002-00-0008-92.png,0004-00-0006-70.png
00000009,743,1,1442503806048,1442503806734,990,307,0,0,0,5,3,2,53,0005-00-0009-17.png,0003-00-0000-08.png
00000009,744,1,1442503807795,1442503807827,946,413,0,0,0,3,1,2,31,0003-00-0002-36.png,0001-00-0001-27.png
00000009,745,0,1442503808908,1442503808952,870,433,0,0,0,1,5,4,15,0001-00-0008-79.png,0005-00-0004-57.png
00000009,746,1,1442503811924,1442503812553,416,384,0,0,0,2,3,1,23,0002-00-0004-25.png,0003-00-0006-90.png
00000009,747,1,1442503813440,1442503813480,899,403,0,0,0,5,1,4,51,0005-00-0006-17.png,0001-00-0008-92.png
00000009,748,1,1442503814541,1442503814912,928,530,0,0,0,5,4,1,54,0005-00-0003-10.png,0004-00-0004-64.png
00000009,749,0,1442503816490,1442503816554,905,461,0,0,0,3,5,2,35,0003-00-0003-15.png,0005-00-0002-14.png
00000009,750,1,1442503819382,1442503819588,888,488,0,0,0,3,2,1,32,0003-00-0001-37.png,0002-00-0003-57.png
00000009,751,0,1442503820705,1442503820733,898,418,0,0,0,1,3,2,13,0001-00-0007-57.png,0003-00-0007-83.png
00000009,752,0,1442503823905,1442503823933,898,332,0,0,0,1,4,3,14,0001-00-0004-44.png,0004-00-0009-93.png
00000009,753,1,1442503827104,1442503827116,891,352,0,0,0,2,1,1,21,0002-00-0001-20.png,0001-00-0005-94.png
00000009,754,0,1442503828105,1442503828140,963,436,0,0,0,1,2,1,12,0001-00-0003-71.png,0002-00-0002-68.png
00000009,755,1,1442503831318,1442503831350,945,356,0,0,0,4,3,1,43,0004-00-0006-01.png,0003-00-0004-03.png
00000009,756,0,1442503832368,1442503832384,937,410,0,0,0,3,4,1,34,0003-00-0003-62.png,0004-00-0006-65.png
00000009,757,1,1442503835597,1442503836187,482,249,0,0,0,2,5,3,25,0002-00-0004-43.png,0005-00-0006-90.png
00000009,758,1,1442503837078,1442503837118,980,469,0,0,0,5,2,3,52,0005-00-0005-19.png,0002-00-0004-41.png
00000009,759,1,1442503838161,1442503838197,875,443,0,0,0,4,2,2,42,0004-00-0008-99.png,0002-00-0004-19.png
00000009,760,1,1442503839553,1442503839625,896,457,0,0,0,4,1,3,41,0004-00-0009-79.png,0001-00-0009-72.png
00000009,761,0,1442503842066,1442503842775,1058,279,0,0,0,2,4,2,24,0002-00-0008-67.png,0004-00-0001-23.png
00000009,762,0,1442503845915,1442503846614,491,267,0,0,0,5,3,2,53,0005-00-0000-26.png,0003-00-0006-06.png
00000009,763,1,1442503849779,1442503850365,1115,282,0,0,0,3,1,2,31,0003-00-0003-86.png,0001-00-0002-76.png
00000009,764,1,1442503851240,1442503851320,964,449,0,0,0,2,1,1,21,0002-00-0005-61.png,0001-00-0003-20.png
00000009,765,1,1442503852302,1442503852326,861,410,0,0,0,4,3,1,43,0004-00-0006-59.png,0003-00-0000-90.png
00000009,766,0,1442503853545,1442503853586,887,423,0,0,0,1,2,1,12,0001-00-0003-64.png,0002-00-0007-52.png
00000009,767,1,1442503856547,1442503857139,945,335,0,0,0,5,2,3,52,0005-00-0000-43.png,0002-00-0008-31.png
00000009,768,0,1442503858595,1442503858659,920,384,0,0,0,2,3,1,23,0002-00-0009-91.png,0003-00-0009-86.png
00000009,769,1,1442503861593,1442503862290,970,327,0,0,0,4,2,2,42,0004-00-0002-99.png,0002-00-0002-53.png
00000009,770,1,1442503863731,1442503863827,907,440,0,0,0,3,2,1,32,0003-00-0002-09.png,0002-00-0009-95.png
00000009,771,0,1442503864954,1442503865002,906,470,0,0,0,3,5,2,35,0003-00-0000-11.png,0005-00-0001-61.png
00000009,772,1,1442503868068,1442503868650,914,324,0,0,0,5,1,4,51,0005-00-0006-84.png,0001-00-0004-94.png
00000009,773,1,1442503869494,1442503869534,939,410,0,0,0,5,4,1,54,0005-00-0006-84.png,0004-00-0001-31.png
00000009,774,0,1442503870635,1442503870679,877,417,0,0,0,1,5,4,15,0001-00-0006-78.png,0005-00-0004-25.png
00000009,775,1,1442503873878,1442503875039,454,288,0,0,0,2,5,3,25,0002-00-0008-21.png,0005-00-0009-15.png
00000009,776,1,1442503876827,1442503877526,449,288,0,0,0,4,5,1,45,0004-00-0003-84.png,0005-00-0000-91.png
00000009,777,1,1442503879414,1442503880229,456,253,0,0,0,1,4,3,14,0001-00-0005-73.png,0004-00-0005-71.png
00000009,778,1,1442503881907,1442503881967,907,420,0,0,0,4,1,3,41,0004-00-0009-21.png,0001-00-0002-10.png
00000009,779,0,1442503883078,1442503883126,917,472,0,0,0,3,4,1,34,0003-00-0007-77.png,0004-00-0005-95.png
00000009,780,1,1442503886368,1442503886929,479,254,0,0,0,1,3,2,13,0001-00-0001-33.png,0003-00-0001-10.png
00000009,781,1,1442503887892,1442503887928,913,471,0,0,0,3,2,1,32,0003-00-0000-79.png,0002-00-0007-96.png
00000009,782,0,1442503889288,1442503889328,883,450,0,0,0,3,4,1,34,0003-00-0003-69.png,0004-00-0004-57.png
00000009,783,0,1442503892303,1442503892947,489,253,0,0,0,2,1,1,21,0002-00-0001-16.png,0001-00-0008-72.png
00000009,784,1,1442503896049,1442503896597,1094,304,0,0,0,3,1,2,31,0003-00-0004-37.png,0001-00-0005-31.png
00000009,785,0,1442503897466,1442503897526,943,438,0,0,0,2,3,1,23,0002-00-0006-48.png,0003-00-0003-50.png
00000009,786,0,1442503900679,1442503900719,947,306,0,0,0,2,4,2,24,0002-00-0002-93.png,0004-00-0000-85.png
00000009,787,1,1442503903739,1442503904296,948,361,0,0,0,5,2,3,52,0005-00-0009-08.png,0002-00-0004-73.png
00000009,788,1,1442503905637,1442503905653,868,358,0,0,0,5,1,4,51,0005-00-0008-77.png,0001-00-0000-81.png
00000009,789,0,1442503906487,1442503906888,880,471,0,0,0,1,5,4,15,0001-00-0000-32.png,0005-00-0001-41.png
00000009,790,0,1442503910029,1442503910057,933,353,0,0,0,4,5,1,45,0004-00-0008-68.png,0005-00-0008-79.png
00000009,791,1,1442503913209,1442503913848,1098,276,0,0,0,5,4,1,54,0005-00-0006-50.png,0004-00-0005-50.png
00000009,792,0,1442503915376,1442503915404,863,411,0,0,0,1,3,2,13,0001-00-0002-77.png,0003-00-0001-72.png
00000009,793,1,1442503918533,1442503918780,913,443,0,0,0,4,2,2,42,0004-00-0002-36.png,0002-00-0002-10.png
00000009,794,0,1442503919787,1442503919847,972,451,0,0,0,2,5,3,25,0002-00-0008-30.png,0005-00-0006-30.png
00000009,795,1,1442503922716,1442503923466,497,240,0,0,0,1,2,1,12,0001-00-0000-39.png,0002-00-0003-39.png
00000009,796,1,1442503924933,1442503924977,891,408,0,0,0,5,3,2,53,0005-00-0003-63.png,0003-00-0003-70.png
00000009,797,0,1442503926146,1442503926221,888,448,0,0,0,1,4,3,14,0001-00-0009-35.png,0004-00-0009-59.png
00000009,798,1,1442503929116,1442503929128,866,355,0,0,0,4,3,1,43,0004-00-0008-98.png,0003-00-0008-88.png
00000009,799,0,1442503930181,1442503930229,982,478,0,0,0,3,5,2,35,0003-00-0001-37.png,0005-00-0006-49.png
00000009,800,0,1442503933471,1442503934055,457,273,0,0,0,4,1,3,41,0004-00-0003-54.png,0001-00-0007-31.png
00000009,801,0,1442503937266,1442503937842,498,280,0,0,0,4,2,2,42,0004-00-0000-50.png,0002-00-0007-99.png
00000009,802,1,1442503941032,1442503941811,1104,272,0,0,0,4,1,3,41,0004-00-0008-38.png,0001-00-0006-41.png
00000009,803,1,1442503943501,1442503944397,330,380,0,0,0,2,4,2,24,0002-00-0000-41.png,0004-00-0005-33.png
00000009,804,0,1442503945366,1442503945398,895,402,0,0,0,1,4,3,14,0001-00-0006-41.png,0004-00-0005-63.png
00000009,805,1,1442503948534,1442503948566,950,338,0,0,0,5,4,1,54,0005-00-0009-34.png,0004-00-0003-27.png
00000009,806,1,1442503949547,1442503949607,928,462,0,0,0,2,1,1,21,0002-00-0005-11.png,0001-00-0005-16.png
00000009,807,0,1442503950560,1442503952092,468,247,0,0,0,5,3,2,53,0005-00-0007-53.png,0003-00-0008-66.png
00000009,808,1,1442503955104,1442503955731,472,260,0,0,0,1,5,4,15,0001-00-0009-81.png,0005-00-0005-33.png
00000009,809,0,1442503956552,1442503956625,879,462,0,0,0,1,3,2,13,0001-00-0004-17.png,0003-00-0009-42.png
00000009,810,0,1442503960074,1442503960678,496,280,0,0,0,4,3,1,43,0004-00-0008-35.png,0003-00-0001-87.png
00000009,811,1,1442503963800,1442503964403,976,331,0,0,0,3,2,1,32,0003-00-0003-46.png,0002-00-0000-93.png
00000009,812,1,1442503965287,1442503965321,909,413,0,0,0,3,1,2,31,0003-00-0002-89.png,0001-00-0008-30.png
00000009,813,1,1442503966445,1442503966503,883,426,0,0,0,5,2,3,52,0005-00-0006-46.png,0002-00-0004-92.png
00000009,814,0,1442503967723,1442503967787,913,450,0,0,0,3,4,1,34,0003-00-0007-40.png,0004-00-0000-25.png
00000009,815,1,1442503970673,1442503971285,496,242,0,0,0,2,3,1,23,0002-00-0003-95.png,0003-00-0008-49.png
00000009,816,0,1442503972113,1442503972205,913,462,0,0,0,1,2,1,12,0001-00-0003-93.png,0002-00-0003-65.png
00000009,817,0,1442503975347,1442503975529,862,410,0,0,0,3,5,2,35,0003-00-0009-62.png,0005-00-0002-97.png
00000009,818,1,1442503978764,1442503978792,940,330,0,0,0,5,1,4,51,0005-00-0006-39.png,0001-00-0002-36.png
00000009,819,0,1442503979816,1442503979844,915,433,0,0,0,4,5,1,45,0004-00-0004-76.png,0005-00-0006-65.png
00000009,820,1,1442503982936,1442503983570,500,260,0,0,0,2,5,3,25,0002-00-0005-37.png,0005-00-0003-29.png
00000009,821,0,1442503984394,1442503984450,913,436,0,0,0,2,4,2,24,0002-00-0005-56.png,0004-00-0006-04.png
00000009,822,1,1442503987489,1442503988077,926,340,0,0,0,4,1,3,41,0004-00-0003-70.png,0001-00-0001-55.png
00000009,823,0,1442503988905,1442503989001,935,436,0,0,0,1,4,3,14,0001-00-0005-95.png,0004-00-0000-55.png
00000009,824,1,1442503992140,1442503992176,952,354,0,0,0,5,2,3,52,0005-00-0004-93.png,0002-00-0006-07.png
00000009,825,1,1442503993272,1442503993340,954,425,0,0,0,3,2,1,32,0003-00-0009-57.png,0002-00-0005-32.png
00000009,826,1,1442503994472,1442503994504,872,439,0,0,0,3,1,2,31,0003-00-0005-74.png,0001-00-0005-17.png
00000009,827,1,1442503995782,1442503995802,867,410,0,0,0,4,3,1,43,0004-00-0001-57.png,0003-00-0007-81.png
00000009,828,1,1442503997227,1442503997247,937,421,0,0,0,2,1,1,21,0002-00-0000-46.png,0001-00-0001-37.png
00000009,829,1,1442503998457,1442503998517,930,485,0,0,0,4,2,2,42,0004-00-0007-11.png,0002-00-0003-55.png
00000009,830,1,1442504000703,1442504000731,895,452,0,0,0,5,1,4,51,0005-00-0009-52.png,0001-00-0006-23.png
00000009,831,0,1442504001966,1442504001994,910,451,0,0,0,1,5,4,15,0001-00-0002-92.png,0005-00-0006-35.png
00000009,832,0,1442504005076,1442504005736,474,434,0,0,0,5,3,2,53,0005-00-0009-19.png,0003-00-0008-12.png
00000009,833,0,1442504008884,1442504009408,450,277,0,0,0,5,4,1,54,0005-00-0009-47.png,0004-00-0006-83.png
00000009,834,0,1442504012570,1442504013263,955,358,0,0,0,3,5,2,35,0003-00-0008-16.png,0005-00-0003-70.png
00000009,835,1,1442504016553,1442504017093,435,429,0,0,0,1,3,2,13,0001-00-0004-14.png,0003-00-0003-46.png
00000009,836,0,1442504018109,1442504018171,926,439,0,0,0,1,2,1,12,0001-00-0006-96.png,0002-00-0008-50.png
00000009,837,0,1442504021315,1442504021570,915,302,0,0,0,2,3,1,23,0002-00-0009-08.png,0003-00-0004-36.png
00000009,838,0,1442504024401,1442504025053,1057,267,0,0,0,3,4,1,34,0003-00-0003-43.png,0004-00-0007-88.png
00000009,839,1,1442504028159,1442504028764,506,236,0,0,0,2,5,3,25,0002-00-0009-44.png,0005-00-0007-11.png
00000009,840,0,1442504029673,1442504029749,917,440,0,0,0,4,5,1,45,0004-00-0001-24.png,0005-00-0007-29.png
00000009,841,0,1442504032941,1442504033852,939,376,0,0,0,1,4,3,14,0001-00-0004-01.png,0004-00-0009-13.png
00000009,842,1,1442504036927,1442504036955,887,410,0,0,0,4,2,2,42,0004-00-0003-73.png,0002-00-0002-78.png
00000009,843,1,1442504037959,1442504037987,913,436,0,0,0,4,1,3,41,0004-00-0006-64.png,0001-00-0006-89.png
00000009,844,1,1442504039111,1442504039163,898,436,0,0,0,5,1,4,51,0005-00-0002-05.png,0001-00-0006-99.png
00000009,845,1,1442504040263,1442504040315,896,411,0,0,0,4,3,1,43,0004-00-0004-79.png,0003-00-0002-06.png
00000009,846,1,1442504041575,1442504041647,888,462,0,0,0,5,4,1,54,0005-00-0004-96.png,0004-00-0006-71.png
00000009,847,1,1442504042903,1442504042959,888,462,0,0,0,5,3,2,53,0005-00-0003-61.png,0003-00-0002-34.png
00000009,848,0,1442504044417,1442504044449,889,440,0,0,0,1,2,1,12,0001-00-0004-02.png,0002-00-0003-02.png
00000009,849,1,1442504048801,1442504049358,961,359,0,0,0,3,2,1,32,0003-00-0007-96.png,0002-00-0002-05.png
00000009,850,0,1442504050967,1442504050999,860,407,0,0,0,4,5,1,45,0004-00-0000-41.png,0005-00-0008-39.png
00000009,851,1,1442504054107,1442504054147,936,338,0,0,0,3,1,2,31,0003-00-0004-42.png,0001-00-0004-20.png
00000009,852,0,1442504055131,1442504055340,956,486,0,0,0,2,4,2,24,0002-00-0002-03.png,0004-00-0001-00.png
00000009,853,0,1442504058857,1442504059426,469,275,0,0,0,2,1,1,21,0002-00-0000-66.png,0001-00-0000-95.png
00000009,854,0,1442504062819,1442504063399,943,317,0,0,0,3,4,1,34,0003-00-0001-41.png,0004-00-0005-92.png
00000009,855,1,1442504066510,1442504067193,488,255,0,0,0,2,5,3,25,0002-00-0005-60.png,0005-00-0004-67.png
00000009,856,1,1442504068823,1442504069416,463,263,0,0,0,1,3,2,13,0001-00-0002-51.png,0003-00-0006-95.png
00000009,857,0,1442504070293,1442504070345,890,431,0,0,0,1,5,4,15,0001-00-0003-77.png,0005-00-0001-69.png
00000009,858,0,1442504073515,1442504074163,936,360,0,0,0,3,5,2,35,0003-00-0001-75.png,0005-00-0002-11.png
00000009,859,1,1442504077376,1442504078042,962,354,0,0,0,5,2,3,52,0005-00-0004-05.png,0002-00-0007-29.png
00000009,860,0,1442504078889,1442504079008,939,436,0,0,0,2,3,1,23,0002-00-0008-15.png,0003-00-0000-99.png
00000009,861,1,1442504082121,1442504082159,924,366,0,0,0,5,3,2,53,0005-00-0005-94.png,0003-00-0007-24.png
00000009,862,1,1442504083192,1442504083216,938,436,0,0,0,5,4,1,54,0005-00-0002-69.png,0004-00-0002-26.png
00000009,863,1,1442504084234,1442504084302,908,468,0,0,0,5,2,3,52,0005-00-0001-14.png,0002-00-0004-59.png
00000009,864,0,1442504085489,1442504085540,913,445,0,0,0,1,5,4,15,0001-00-0000-06.png,0005-00-0002-09.png
00000009,865,0,1442504088748,1442504089501,962,337,0,0,0,2,3,1,23,0002-00-0008-76.png,0003-00-0009-59.png
00000009,866,0,1442504092655,1442504092695,929,334,0,0,0,2,5,3,25,0002-00-0009-90.png,0005-00-0009-29.png
00000009,867,0,1442504095792,1442504096330,1090,276,0,0,0,3,5,2,35,0003-00-0006-18.png,0005-00-0003-06.png
00000009,868,1,1442504099282,1442504100192,339,349,0,0,0,2,4,2,24,0002-00-0008-46.png,0004-00-0008-22.png
00000009,869,0,1442504101802,1442504101838,884,397,0,0,0,4,5,1,45,0004-00-0002-28.png,0005-00-0009-74.png
00000009,870,0,1442504104704,1442504105422,485,257,0,0,0,4,2,2,42,0004-00-0000-66.png,0002-00-0005-78.png
00000009,871,1,1442504108686,1442504109356,471,256,0,0,0,1,3,2,13,0001-00-0006-28.png,0003-00-0006-79.png
00000009,872,1,1442504110838,1442504110887,888,394,0,0,0,3,1,2,31,0003-00-0005-44.png,0001-00-0000-94.png
00000009,873,1,1442504112113,1442504112252,907,455,0,0,0,2,1,1,21,0002-00-0000-83.png,0001-00-0007-66.png
00000009,874,1,1442504113481,1442504113553,904,465,0,0,0,5,1,4,51,0005-00-0006-95.png,0001-00-0002-18.png
00000009,875,0,1442504114650,1442504114697,882,451,0,0,0,1,2,1,12,0001-00-0007-83.png,0002-00-0005-38.png
00000009,876,0,1442504117916,1442504118499,942,308,0,0,0,3,4,1,34,0003-00-0004-19.png,0004-00-0003-91.png
00000009,877,1,1442504121544,1442504121604,892,379,0,0,0,4,1,3,41,0004-00-0009-43.png,0001-00-0003-68.png
00000009,878,1,1442504122602,1442504122660,959,446,0,0,0,3,2,1,32,0003-00-0001-99.png,0002-00-0008-21.png
00000009,879,0,1442504123703,1442504123729,871,426,0,0,0,1,4,3,14,0001-00-0004-65.png,0004-00-0001-58.png
00000009,880,0,1442504126910,1442504127603,485,244,0,0,0,4,3,1,43,0004-00-0003-73.png,0003-00-0005-16.png
00000009,881,1,1442504130776,1442504131397,507,257,0,0,0,4,5,1,45,0004-00-0007-66.png,0005-00-0007-09.png
00000009,882,1,1442504132270,1442504132332,950,419,0,0,0,5,4,1,54,0005-00-0005-45.png,0004-00-0008-81.png
00000009,883,0,1442504133562,1442504133642,905,462,0,0,0,2,4,2,24,0002-00-0001-88.png,0004-00-0007-29.png
00000009,884,1,1442504136599,1442504136627,913,358,0,0,0,4,3,1,43,0004-00-0009-54.png,0003-00-0000-46.png
00000009,885,0,1442504137669,1442504137693,970,417,0,0,0,3,5,2,35,0003-00-0001-03.png,0005-00-0001-72.png
00000009,886,1,1442504140598,1442504141205,402,381,0,0,0,2,5,3,25,0002-00-0000-99.png,0005-00-0009-70.png
00000009,887,0,1442504142062,1442504142154,964,410,0,0,0,3,4,1,34,0003-00-0009-17.png,0004-00-0002-13.png
00000009,888,0,1442504145031,1442504145075,883,433,0,0,0,1,2,1,12,0001-00-0009-98.png,0002-00-0000-50.png
00000009,889,0,1442504148215,1442504148770,493,243,0,0,0,4,1,3,41,0004-00-0003-32.png,0001-00-0001-78.png
00000009,890,0,1442504151830,1442504152495,487,263,0,0,0,3,2,1,32,0003-00-0002-17.png,0002-00-0009-58.png
00000009,891,1,1442504155836,1442504156512,487,284,0,0,0,1,3,2,13,0001-00-0000-08.png,0003-00-0009-40.png
00000009,892,1,1442504157396,1442504157505,939,452,0,0,0,5,2,3,52,0005-00-0001-44.png,0002-00-0003-16.png
00000009,893,0,1442504158539,1442504158579,898,417,0,0,0,1,4,3,14,0001-00-0006-32.png,0004-00-0006-03.png
00000009,894,0,1442504161885,1442504162979,466,263,0,0,0,4,2,2,42,0004-00-0007-06.png,0002-00-0003-26.png
00000009,895,1,1442504166063,1442504166095,908,384,0,0,0,2,1,1,21,0002-00-0000-68.png,0001-00-0006-87.png
00000009,896,0,1442504167103,1442504167163,990,410,0,0,0,2,3,1,23,0002-00-0005-82.png,0003-00-0003-77.png
00000009,897,1,1442504170443,1442504171086,1096,286,0,0,0,5,3,2,53,0005-00-0005-43.png,0003-00-0005-04.png
00000009,898,0,1442504171944,1442504171984,913,384,0,0,0,1,5,4,15,0001-00-0007-45.png,0005-00-0009-90.png
00000009,899,1,1442504175233,1442504175241,953,342,0,0,0,5,1,4,51,0005-00-0000-10.png,0001-00-0006-95.png
00000009,900,1,1442504176234,1442504176287,975,436,0,0,0,3,1,2,31,0003-00-0005-85.png,0001-00-0005-99.png
00000009,901,1,1442504177358,1442504177420,903,458,0,0,0,3,1,2,31,0003-00-0005-72.png,0001-00-0000-34.png
00000009,902,0,1442504178649,1442504178721,939,448,0,0,0,3,5,2,35,0003-00-0006-73.png,0005-00-0009-87.png
00000009,903,1,1442504181883,1442504182519,1108,279,0,0,0,5,3,2,53,0005-00-0008-48.png,0003-00-0000-87.png
00000009,904,1,1442504184055,1442504184139,911,413,0,0,0,5,4,1,54,0005-00-0002-99.png,0004-00-0004-53.png
00000009,905,1,1442504185274,1442504185319,882,440,0,0,0,4,2,2,42,0004-00-0009-32.png,0002-00-0004-94.png
00000009,906,0,1442504186467,1442504186558,953,471,0,0,0,1,2,1,12,0001-00-0002-38.png,0002-00-0000-74.png
00000009,907,0,1442504189722,1442504189742,913,358,0,0,0,2,4,2,24,0002-00-0009-08.png,0004-00-0000-92.png
00000009,908,1,1442504192843,1442504193378,396,389,0,0,0,1,4,3,14,0001-00-0008-31.png,0004-00-0004-18.png
00000009,909,0,1442504194240,1442504194324,939,436,0,0,0,4,5,1,45,0004-00-0005-35.png,0005-00-0007-59.png
00000009,910,0,1442504197535,1442504198163,1105,293,0,0,0,2,3,1,23,0002-00-0002-92.png,0003-00-0000-19.png
00000009,911,0,1442504201161,1442504201782,948,413,0,0,0,3,4,1,34,0003-00-0007-36.png,0004-00-0001-13.png
00000009,912,0,1442504204757,1442504205381,914,317,0,0,0,1,3,2,13,0001-00-0004-50.png,0003-00-0009-35.png
00000009,913,1,1442504208332,1442504208958,1088,275,0,0,0,4,1,3,41,0004-00-0007-53.png,0001-00-0003-25.png
00000009,914,0,1442504209856,1442504209932,939,422,0,0,0,1,5,4,15,0001-00-0002-83.png,0005-00-0001-55.png
00000009,915,1,1442504213116,1442504213729,488,261,0,0,0,2,5,3,25,0002-00-0007-74.png,0005-00-0009-13.png
00000009,916,1,1442504215487,1442504216387,1063,300,0,0,0,4,3,1,43,0004-00-0007-76.png,0003-00-0009-45.png
00000009,917,1,1442504217248,1442504217320,956,422,0,0,0,5,1,4,51,0005-00-0004-73.png,0001-00-0002-75.png
00000009,918,1,1442504218953,1442504219010,884,439,0,0,0,3,2,1,32,0003-00-0006-28.png,0002-00-0003-05.png
00000009,919,1,1442504219928,1442504219964,897,467,0,0,0,5,2,3,52,0005-00-0007-80.png,0002-00-0007-47.png
00000009,920,1,1442504221165,1442504221212,859,425,0,0,0,2,1,1,21,0002-00-0006-54.png,0001-00-0007-54.png
00000009,921,0,1442504222850,1442504222926,935,501,0,0,0,2,5,3,25,0002-00-0004-54.png,0005-00-0007-55.png
00000009,922,1,1442504226083,1442504226694,511,263,0,0,0,3,5,2,35,0003-00-0004-33.png,0005-00-0001-19.png
00000009,923,1,1442504227711,1442504229084,949,308,0,0,0,5,3,2,53,0005-00-0005-90.png,0003-00-0000-57.png
00000009,924,1,1442504230037,1442504230140,982,482,0,0,0,5,1,4,51,0005-00-0000-43.png,0001-00-0001-01.png
00000009,925,1,1442504232045,1442504232073,922,438,0,0,0,3,2,1,32,0003-00-0005-49.png,0002-00-0001-80.png
00000009,926,0,1442504233233,1442504233324,932,479,0,0,0,4,5,1,45,0004-00-0005-26.png,0005-00-0000-10.png
00000009,927,1,1442504236554,1442504236609,939,357,0,0,0,4,1,3,41,0004-00-0003-65.png,0001-00-0002-89.png
00000009,928,0,1442504237617,1442504237661,913,498,0,0,0,1,3,2,13,0001-00-0003-85.png,0003-00-0005-62.png
00000009,929,1,1442504240876,1442504241464,499,270,0,0,0,1,5,4,15,0001-00-0007-41.png,0005-00-0002-55.png
00000009,930,0,1442504242325,1442504242389,955,467,0,0,0,1,2,1,12,0001-00-0004-95.png,0002-00-0008-24.png
00000009,931,1,1442504245527,1442504246141,1078,312,0,0,0,5,4,1,54,0005-00-0005-13.png,0004-00-0002-58.png
00000009,932,0,1442504247009,1442504247069,964,462,0,0,0,3,4,1,34,0003-00-0005-39.png,0004-00-0001-75.png
00000009,933,0,1442504250278,1442504250320,963,317,0,0,0,2,4,2,24,0002-00-0005-09.png,0004-00-0005-01.png
00000009,934,0,1442504253148,1442504253172,891,408,0,0,0,1,4,3,14,0001-00-0005-55.png,0004-00-0003-23.png
00000009,935,0,1442504256062,1442504256611,474,226,0,0,0,4,2,2,42,0004-00-0006-91.png,0002-00-0007-34.png
00000009,936,0,1442504259701,1442504260249,449,261,0,0,0,4,3,1,43,0004-00-0004-44.png,0003-00-0003-46.png
00000009,937,0,1442504263506,1442504263534,915,322,0,0,0,2,3,1,23,0002-00-0003-07.png,0003-00-0004-62.png
00000009,938,0,1442504266616,1442504267213,504,261,0,0,0,2,1,1,21,0002-00-0003-66.png,0001-00-0003-04.png
00000009,939,1,1442504270083,1442504270692,1078,253,0,0,0,3,1,2,31,0003-00-0005-54.png,0001-00-0009-42.png
00000009,940,1,1442504271627,1442504271695,990,436,0,0,0,5,2,3,52,0005-00-0008-64.png,0002-00-0000-69.png
00000009,941,0,1442504272656,1442504273034,964,541,0,0,0,2,3,1,23,0002-00-0002-86.png,0003-00-0008-50.png
