subject_id,trial,correct_response,stim_time,response_time,x_coord,y_coord,trial_timeout,timeout_time,interTrial_timeout,left_rank,right_rank,distance,joint_rank,left_image,right_image
00000014,1,1,1443104135863,1443104136476,422,515,0,0,0,1,4,3,14,0001-00-0009-80.png,0004-00-0002-25.png
00000014,2,1,1443104137614,1443104138080,404,413,0,0,0,2,3,1,23,0002-00-0000-59.png,0003-00-0005-24.png
00000014,3,0,1443104139443,1443104140702,392,445,0,0,0,2,1,1,21,0002-00-0002-03.png,0001-00-0003-90.png
00000014,4,1,1443104143762,1443104144118,379,402,0,0,0,1,5,4,15,0001-00-0008-53.png,0005-00-0003-20.png
00000014,5,1,1443104145357,1443104145900,919,484,0,0,0,3,1,2,31,0003-00-0006-07.png,0001-00-0000-84.png
00000014,6,1,1443104147137,1443104148018,382,432,0,0,0,3,4,1,34,0003-00-0003-21.png,0004-00-0004-08.png
00000014,7,1,1443104149342,1443104149828,947,515,0,0,0,5,4,1,54,0005-00-0002-92.png,0004-00-0000-44.png
00000014,8,1,1443104150923,1443104151372,367,426,0,0,0,2,5,3,25,0002-00-0000-77.png,0005-00-0009-98.png
00000014,9,1,1443104152329,1443104152870,911,519,0,0,0,4,1,3,41,0004-00-0006-10.png,0001-00-0005-25.png
00000014,10,0,1443104153825,1443104154446,902,522,0,0,0,3,5,2,35,0003-00-0003-04.png,0005-00-0003-78.png
00000014,11,1,1443104157650,1443104158223,912,482,0,0,0,4,3,1,43,0004-00-0001-87.png,0003-00-0007-05.png
00000014,12,1,1443104159163,1443104159659,397,497,0,0,0,1,2,1,12,0001-00-0003-83.png,0002-00-0008-17.png
00000014,13,1,1443104160509,1443104161028,880,505,0,0,0,5,2,3,52,0005-00-0008-80.png,0002-00-0006-54.png
00000014,14,1,1443104162044,1443104162584,935,423,0,0,0,5,1,4,51,0005-00-0006-97.png,0001-00-0007-51.png
00000014,15,1,1443104163545,1443104164078,888,507,0,0,0,5,3,2,53,0005-00-0006-02.png,0003-00-0000-18.png
00000014,16,1,1443104165147,1443104165620,325,424,0,0,0,2,4,2,24,0002-00-0006-92.png,0004-00-0008-70.png
00000014,17,1,1443104166535,1443104167028,382,542,0,0,0,4,5,1,45,0004-00-0006-48.png,0005-00-0003-11.png
00000014,18,0,1443104168078,1443104168629,883,486,0,0,0,1,3,2,13,0001-00-0009-61.png,0003-00-0004-89.png
00000014,19,1,1443104171535,1443104171997,901,513,0,0,0,3,2,1,32,0003-00-0002-75.png,0002-00-0004-53.png
00000014,20,1,1443104172992,1443104173508,873,483,0,0,0,4,2,2,42,0004-00-0006-34.png,0002-00-0006-20.png
00000014,21,1,1443104174589,1443104175108,887,398,0,0,0,3,2,1,32,0003-00-0000-49.png,0002-00-0004-99.png
00000014,22,1,1443104176108,1443104176640,385,430,0,0,0,4,5,1,45,0004-00-0005-87.png,0005-00-0000-50.png
00000014,23,1,1443104177645,1443104178222,872,484,0,0,0,4,1,3,41,0004-00-0003-97.png,0001-00-0002-96.png
00000014,24,1,1443104179717,1443104180165,368,432,0,0,0,3,4,1,34,0003-00-0008-90.png,0004-00-0003-76.png
00000014,25,1,1443104181103,1443104181738,875,386,0,0,0,5,2,3,52,0005-00-0006-41.png,0002-00-0008-37.png
00000014,26,1,1443104182723,1443104183235,358,428,0,0,0,3,5,2,35,0003-00-0003-51.png,0005-00-0006-21.png
00000014,27,1,1443104184295,1443104184750,398,520,0,0,0,1,3,2,13,0001-00-0000-77.png,0003-00-0003-12.png
00000014,28,1,1443104186244,1443104186734,948,393,0,0,0,3,1,2,31,0003-00-0008-08.png,0001-00-0006-88.png
00000014,29,0,1443104188150,1443104188612,372,428,0,0,0,2,1,1,21,0002-00-0007-88.png,0001-00-0007-94.png
00000014,30,1,1443104191574,1443104192037,384,445,0,0,0,2,5,3,25,0002-00-0004-79.png,0005-00-0002-91.png
00000014,31,0,1443104193334,1443104193837,862,481,0,0,0,1,4,3,14,0001-00-0004-08.png,0004-00-0001-70.png
00000014,32,0,1443104196738,1443104197151,348,432,0,0,0,5,1,4,51,0005-00-0008-36.png,0001-00-0004-57.png
00000014,33,1,1443104200051,1443104200504,340,470,0,0,0,1,2,1,12,0001-00-0004-12.png,0002-00-0001-53.png
00000014,34,1,1443104201513,1443104203213,441,495,0,0,0,2,4,2,24,0002-00-0009-68.png,0004-00-0002-22.png
00000014,35,0,1443104204247,1443104204764,881,393,0,0,0,1,5,4,15,0001-00-0003-85.png,0005-00-0007-38.png
00000014,36,1,1443104208648,1443104209111,873,483,0,0,0,5,3,2,53,0005-00-0005-00.png,0003-00-0004-28.png
00000014,37,1,1443104210121,1443104210596,376,410,0,0,0,2,3,1,23,0002-00-0000-73.png,0003-00-0004-56.png
00000014,38,0,1443104211611,1443104212079,407,431,0,0,0,4,3,1,43,0004-00-0004-97.png,0003-00-0003-23.png
00000014,39,0,1443104214929,1443104215282,412,407,0,0,0,5,4,1,54,0005-00-0003-59.png,0004-00-0004-00.png
00000014,40,1,1443104218361,1443104218852,930,413,0,0,0,4,2,2,42,0004-00-0007-20.png,0002-00-0000-37.png
00000014,41,1,1443104219934,1443104220537,875,357,0,0,0,4,3,1,43,0004-00-0005-43.png,0003-00-0001-25.png
00000014,42,1,1443104221601,1443104222033,315,417,0,0,0,3,4,1,34,0003-00-0000-98.png,0004-00-0005-70.png
00000014,43,1,1443104223021,1443104223496,383,523,0,0,0,1,5,4,15,0001-00-0007-37.png,0005-00-0001-81.png
00000014,44,1,1443104224518,1443104224997,401,424,0,0,0,1,4,3,14,0001-00-0009-70.png,0004-00-0006-69.png
00000014,45,1,1443104226033,1443104226594,920,411,0,0,0,5,2,3,52,0005-00-0005-42.png,0002-00-0004-43.png
00000014,46,1,1443104227776,1443104228292,915,397,0,0,0,3,1,2,31,0003-00-0001-83.png,0001-00-0000-74.png
00000014,47,0,1443104229951,1443104230406,357,420,0,0,0,2,1,1,21,0002-00-0003-55.png,0001-00-0001-88.png
00000014,48,0,1443104233258,1443104233274,401,420,0,0,0,3,2,1,32,0003-00-0006-31.png,0002-00-0007-23.png
00000014,49,0,1443104236114,1443104236534,415,566,0,0,0,5,4,1,54,0005-00-0005-75.png,0004-00-0000-51.png
00000014,50,0,1443104239412,1443104239465,511,508,0,0,0,5,3,2,53,0005-00-0000-36.png,0003-00-0005-72.png
00000014,51,1,1443104242709,1443104243180,902,415,0,0,0,4,2,2,42,0004-00-0003-05.png,0002-00-0008-73.png
00000014,52,1,1443104244839,1443104245265,325,449,0,0,0,1,3,2,13,0001-00-0002-86.png,0003-00-0001-97.png
00000014,53,1,1443104246977,1443104247501,930,375,0,0,0,5,1,4,51,0005-00-0004-94.png,0001-00-0007-20.png
00000014,54,1,1443104248935,1443104249387,315,439,0,0,0,2,5,3,25,0002-00-0002-66.png,0005-00-0007-02.png
00000014,55,0,1443104250647,1443104251129,945,425,0,0,0,1,2,1,12,0001-00-0007-97.png,0002-00-0006-20.png
00000014,56,1,1443104254450,1443104254871,342,434,0,0,0,4,5,1,45,0004-00-0004-29.png,0005-00-0001-32.png
00000014,57,1,1443104255790,1443104256458,879,454,0,0,0,4,1,3,41,0004-00-0001-76.png,0001-00-0006-92.png
00000014,58,1,1443104257475,1443104257983,400,439,0,0,0,2,3,1,23,0002-00-0006-89.png,0003-00-0001-16.png
00000014,59,0,1443104258956,1443104259541,874,438,0,0,0,3,5,2,35,0003-00-0005-73.png,0005-00-0000-40.png
00000014,60,0,1443104262570,1443104263117,932,429,0,0,0,2,4,2,24,0002-00-0006-33.png,0004-00-0005-12.png
00000014,61,0,1443104265958,1443104266054,504,476,0,0,0,5,3,2,53,0005-00-0004-84.png,0003-00-0006-51.png
00000014,62,1,1443104269307,1443104269751,888,527,0,0,0,5,1,4,51,0005-00-0006-43.png,0001-00-0006-41.png
00000014,63,1,1443104270709,1443104271186,392,561,0,0,0,1,4,3,14,0001-00-0000-17.png,0004-00-0005-21.png
00000014,64,1,1443104272618,1443104273066,414,423,0,0,0,2,3,1,23,0002-00-0003-77.png,0003-00-0009-17.png
00000014,65,1,1443104274091,1443104274611,890,510,0,0,0,3,1,2,31,0003-00-0001-26.png,0001-00-0001-58.png
00000014,66,1,1443104275670,1443104276232,888,477,0,0,0,5,4,1,54,0005-00-0005-25.png,0004-00-0009-63.png
00000014,67,1,1443104277232,1443104277793,903,479,0,0,0,5,2,3,52,0005-00-0002-15.png,0002-00-0002-60.png
00000014,68,1,1443104278807,1443104279285,350,443,0,0,0,4,5,1,45,0004-00-0004-49.png,0005-00-0003-60.png
00000014,69,1,1443104280353,1443104280929,893,468,0,0,0,3,2,1,32,0003-00-0003-77.png,0002-00-0007-57.png
00000014,70,1,1443104281943,1443104282419,350,450,0,0,0,1,3,2,13,0001-00-0008-91.png,0003-00-0006-98.png
00000014,71,1,1443104283482,1443104283993,372,432,0,0,0,1,5,4,15,0001-00-0002-75.png,0005-00-0008-57.png
00000014,72,1,1443104285461,1443104285926,879,401,0,0,0,2,1,1,21,0002-00-0006-59.png,0001-00-0004-82.png
00000014,73,0,1443104286971,1443104287582,900,410,0,0,0,2,4,2,24,0002-00-0001-51.png,0004-00-0009-55.png
00000014,74,0,1443104290449,1443104290924,888,448,0,0,0,3,5,2,35,0003-00-0001-92.png,0005-00-0005-22.png
00000014,75,0,1443104293809,1443104294206,879,532,0,0,0,3,4,1,34,0003-00-0001-34.png,0004-00-0008-78.png
00000014,76,1,1443104297056,1443104297620,366,559,0,0,0,2,5,3,25,0002-00-0005-47.png,0005-00-0003-93.png
00000014,77,1,1443104298594,1443104299172,894,443,0,0,0,4,3,1,43,0004-00-0003-36.png,0003-00-0008-53.png
00000014,78,0,1443104300191,1443104300795,924,454,0,0,0,1,2,1,12,0001-00-0003-36.png,0002-00-0005-39.png
00000014,79,1,1443104303897,1443104304371,956,401,0,0,0,4,2,2,42,0004-00-0002-81.png,0002-00-0000-09.png
00000014,80,0,1443104305348,1443104305895,358,445,0,0,0,4,1,3,41,0004-00-0002-15.png,0001-00-0002-39.png
00000014,81,1,1443104308997,1443104309449,325,412,0,0,0,1,4,3,14,0001-00-0001-13.png,0004-00-0005-03.png
00000014,82,0,1443104310377,1443104311440,925,413,0,0,0,1,2,1,12,0001-00-0004-05.png,0002-00-0004-98.png
00000014,83,0,1443104314333,1443104314821,360,478,0,0,0,4,2,2,42,0004-00-0008-51.png,0002-00-0004-51.png
00000014,84,1,1443104317649,1443104318077,942,417,0,0,0,4,1,3,41,0004-00-0005-08.png,0001-00-0000-74.png
00000014,85,1,1443104319019,1443104319451,427,384,0,0,0,1,3,2,13,0001-00-0008-65.png,0003-00-0006-29.png
00000014,86,1,1443104320436,1443104320991,874,463,0,0,0,3,1,2,31,0003-00-0006-72.png,0001-00-0008-51.png
00000014,87,1,1443104322008,1443104322542,874,463,0,0,0,5,2,3,52,0005-00-0007-82.png,0002-00-0004-04.png
00000014,88,1,1443104323728,1443104324329,879,453,0,0,0,5,1,4,51,0005-00-0008-83.png,0001-00-0008-60.png
00000014,89,0,1443104325441,1443104325978,867,509,0,0,0,3,4,1,34,0003-00-0006-40.png,0004-00-0000-72.png
00000014,90,0,1443104329771,1443104330243,341,434,0,0,0,5,3,2,53,0005-00-0004-49.png,0003-00-0005-39.png
00000014,91,1,1443104333247,1443104333761,905,401,0,0,0,2,1,1,21,0002-00-0001-72.png,0001-00-0004-29.png
00000014,92,0,1443104334799,1443104335395,882,367,0,0,0,2,4,2,24,0002-00-0000-10.png,0004-00-0009-26.png
00000014,93,1,1443104340077,1443104340611,903,442,0,0,0,3,2,1,32,0003-00-0000-51.png,0002-00-0000-62.png
00000014,94,1,1443104341577,1443104342028,387,419,0,0,0,2,5,3,25,0002-00-0002-05.png,0005-00-0008-89.png
00000014,95,1,1443104343084,1443104343639,427,410,0,0,0,2,3,1,23,0002-00-0008-44.png,0003-00-0001-83.png
00000014,96,1,1443104344787,1443104345301,417,428,0,0,0,1,5,4,15,0001-00-0009-12.png,0005-00-0009-16.png
00000014,97,1,1443104346422,1443104346964,926,397,0,0,0,4,3,1,43,0004-00-0007-09.png,0003-00-0000-61.png
00000014,98,0,1443104348118,1443104348734,877,468,0,0,0,3,5,2,35,0003-00-0009-50.png,0005-00-0006-17.png
00000014,99,0,1443104351695,1443104352238,325,375,0,0,0,5,4,1,54,0005-00-0003-76.png,0004-00-0008-78.png
00000014,100,1,1443104355244,1443104355268,450,417,0,0,0,4,5,1,45,0004-00-0001-19.png,0005-00-0007-73.png
00000014,101,1,1443104356438,1443104357020,900,462,0,0,0,4,3,1,43,0004-00-0004-26.png,0003-00-0004-03.png
00000014,102,0,1443104358047,1443104358593,349,443,0,0,0,5,1,4,51,0005-00-0002-08.png,0001-00-0009-99.png
00000014,103,1,1443104361771,1443104362363,459,551,0,0,0,3,4,1,34,0003-00-0006-14.png,0004-00-0006-37.png
00000014,104,1,1443104363523,1443104364035,916,508,0,0,0,5,2,3,52,0005-00-0008-42.png,0002-00-0003-55.png
00000014,105,0,1443104365273,1443104365804,343,424,0,0,0,2,1,1,21,0002-00-0003-64.png,0001-00-0006-94.png
00000014,106,1,1443104368839,1443104369275,349,450,0,0,0,3,5,2,35,0003-00-0001-62.png,0005-00-0001-94.png
00000014,107,0,1443104370373,1443104370946,875,514,0,0,0,1,3,2,13,0001-00-0004-12.png,0003-00-0001-22.png
00000014,108,1,1443104373950,1443104374455,350,410,0,0,0,4,5,1,45,0004-00-0001-80.png,0005-00-0008-64.png
00000014,109,0,1443104375372,1443104375395,504,436,0,0,0,4,1,3,41,0004-00-0002-54.png,0001-00-0005-49.png
00000014,110,1,1443104378453,1443104378477,478,396,0,0,0,2,5,3,25,0002-00-0007-12.png,0005-00-0002-77.png
00000014,111,1,1443104379556,1443104380137,878,479,0,0,0,3,2,1,32,0003-00-0007-91.png,0002-00-0001-55.png
00000014,112,1,1443104381166,1443104381658,347,410,0,0,0,1,5,4,15,0001-00-0008-50.png,0005-00-0005-91.png
00000014,113,1,1443104382747,1443104383235,345,415,0,0,0,2,4,2,24,0002-00-0007-57.png,0004-00-0005-50.png
00000014,114,0,1443104384275,1443104384832,904,377,0,0,0,2,3,1,23,0002-00-0004-96.png,0003-00-0001-59.png
00000014,115,0,1443104388314,1443104389262,343,387,0,0,0,4,2,2,42,0004-00-0003-32.png,0002-00-0000-81.png
00000014,116,1,1443104392391,1443104392824,350,410,0,0,0,1,4,3,14,0001-00-0005-09.png,0004-00-0008-68.png
00000014,117,0,1443104393927,1443104394414,401,410,0,0,0,3,1,2,31,0003-00-0002-90.png,0001-00-0008-90.png
00000014,118,0,1443104397615,1443104398093,340,511,0,0,0,5,3,2,53,0005-00-0002-73.png,0003-00-0006-61.png
00000014,119,1,1443104402903,1443104403340,376,436,0,0,0,1,2,1,12,0001-00-0004-74.png,0002-00-0003-20.png
00000014,120,1,1443104404294,1443104404864,863,476,0,0,0,5,4,1,54,0005-00-0004-75.png,0004-00-0006-86.png
00000014,121,1,1443104405915,1443104406488,863,475,0,0,0,2,1,1,21,0002-00-0002-34.png,0001-00-0000-31.png
00000014,122,1,1443104407583,1443104408121,899,463,0,0,0,4,2,2,42,0004-00-0003-05.png,0002-00-0004-56.png
00000014,123,1,1443104409094,1443104409810,398,492,0,0,0,4,5,1,45,0004-00-0008-14.png,0005-00-0004-19.png
00000014,124,1,1443104410794,1443104411875,925,384,0,0,0,3,2,1,32,0003-00-0000-85.png,0002-00-0002-10.png
00000014,125,1,1443104412883,1443104413461,410,460,0,0,0,3,4,1,34,0003-00-0004-82.png,0004-00-0002-44.png
00000014,126,0,1443104414423,1443104415007,915,475,0,0,0,2,3,1,23,0002-00-0004-89.png,0003-00-0009-07.png
00000014,127,1,1443104417972,1443104417996,506,426,0,0,0,1,4,3,14,0001-00-0004-41.png,0004-00-0008-85.png
00000014,128,1,1443104419067,1443104419604,868,485,0,0,0,4,1,3,41,0004-00-0003-35.png,0001-00-0002-90.png
00000014,129,0,1443104420641,1443104421190,879,532,0,0,0,1,3,2,13,0001-00-0007-26.png,0003-00-0008-58.png
00000014,130,1,1443104424301,1443104424837,900,463,0,0,0,4,3,1,43,0004-00-0007-26.png,0003-00-0007-05.png
00000014,131,1,1443104425873,1443104426414,926,359,0,0,0,5,3,2,53,0005-00-0009-29.png,0003-00-0009-91.png
00000014,132,1,1443104427443,1443104427944,379,407,0,0,0,2,4,2,24,0002-00-0001-61.png,0004-00-0000-40.png
00000014,133,1,1443104429361,1443104429870,405,443,0,0,0,1,2,1,12,0001-00-0008-15.png,0002-00-0009-99.png
00000014,134,1,1443104430884,1443104431426,884,404,0,0,0,5,4,1,54,0005-00-0008-63.png,0004-00-0009-62.png
00000014,135,1,1443104432492,1443104433328,337,475,0,0,0,2,5,3,25,0002-00-0006-97.png,0005-00-0009-42.png
00000014,136,1,1443104434736,1443104435269,911,399,0,0,0,5,1,4,51,0005-00-0005-96.png,0001-00-0002-19.png
00000014,137,1,1443104436842,1443104437416,299,399,0,0,0,1,5,4,15,0001-00-0004-15.png,0005-00-0000-15.png
00000014,138,0,1443104438355,1443104439199,434,445,0,0,0,3,1,2,31,0003-00-0005-16.png,0001-00-0003-12.png
00000014,139,1,1443104442100,1443104442648,908,380,0,0,0,5,2,3,52,0005-00-0001-02.png,0002-00-0004-63.png
00000014,140,0,1443104443653,1443104444190,874,475,0,0,0,3,5,2,35,0003-00-0006-66.png,0005-00-0005-36.png
00000014,141,1,1443104447201,1443104447616,380,441,0,0,0,1,4,3,14,0001-00-0004-99.png,0004-00-0001-03.png
00000014,142,1,1443104448604,1443104449144,879,485,0,0,0,5,1,4,51,0005-00-0002-79.png,0001-00-0007-34.png
00000014,143,1,1443104450304,1443104450912,893,483,0,0,0,4,2,2,42,0004-00-0006-46.png,0002-00-0005-06.png
00000014,144,0,1443104451964,1443104452540,292,363,0,0,0,2,1,1,21,0002-00-0006-53.png,0001-00-0002-89.png
00000014,145,1,1443104455690,1443104456161,273,423,0,0,0,1,5,4,15,0001-00-0004-31.png,0005-00-0000-99.png
00000014,146,1,1443104457618,1443104458141,893,390,0,0,0,4,1,3,41,0004-00-0009-50.png,0001-00-0003-11.png
00000014,147,1,1443104459185,1443104459704,361,453,0,0,0,2,3,1,23,0002-00-0007-76.png,0003-00-0000-78.png
00000014,148,0,1443104461553,1443104462029,879,402,0,0,0,2,5,3,25,0002-00-0009-49.png,0005-00-0008-41.png
00000014,149,1,1443104465061,1443104465496,922,393,0,0,0,3,2,1,32,0003-00-0008-61.png,0002-00-0000-69.png
00000014,150,1,1443104466543,1443104467057,885,489,0,0,0,3,1,2,31,0003-00-0005-04.png,0001-00-0006-08.png
00000014,151,1,1443104468174,1443104468778,376,449,0,0,0,3,5,2,35,0003-00-0002-06.png,0005-00-0001-28.png
00000014,152,1,1443104470023,1443104470573,888,436,0,0,0,5,2,3,52,0005-00-0009-40.png,0002-00-0009-32.png
00000014,153,0,1443104471883,1443104472438,896,498,0,0,0,1,2,1,12,0001-00-0007-90.png,0002-00-0000-32.png
00000014,154,0,1443104475467,1443104475955,904,376,0,0,0,2,4,2,24,0002-00-0005-48.png,0004-00-0002-79.png
00000014,155,1,1443104479037,1443104479470,317,392,0,0,0,1,3,2,13,0001-00-0007-60.png,0003-00-0001-75.png
00000014,156,0,1443104480579,1443104481156,875,449,0,0,0,4,5,1,45,0004-00-0002-20.png,0005-00-0007-06.png
00000014,157,1,1443104484210,1443104485068,343,447,0,0,0,3,4,1,34,0003-00-0007-77.png,0004-00-0007-50.png
00000014,158,1,1443104486064,1443104486700,875,410,0,0,0,5,4,1,54,0005-00-0008-23.png,0004-00-0002-91.png
00000014,159,1,1443104487843,1443104488893,921,488,0,0,0,4,3,1,43,0004-00-0008-18.png,0003-00-0005-00.png
00000014,160,1,1443104489998,1443104490512,875,487,0,0,0,5,3,2,53,0005-00-0005-97.png,0003-00-0003-40.png
00000014,161,1,1443104491710,1443104492220,360,451,0,0,0,4,5,1,45,0004-00-0002-67.png,0005-00-0001-36.png
00000014,162,0,1443104493509,1443104494004,393,428,0,0,0,4,1,3,41,0004-00-0004-21.png,0001-00-0006-21.png
00000014,163,0,1443104497812,1443104498288,396,427,0,0,0,3,2,1,32,0003-00-0003-25.png,0002-00-0002-04.png
00000014,164,1,1443104501390,1443104501856,900,489,0,0,0,5,1,4,51,0005-00-0007-34.png,0001-00-0005-20.png
00000014,165,1,1443104502905,1443104503383,414,529,0,0,0,2,5,3,25,0002-00-0004-26.png,0005-00-0000-90.png
00000014,166,0,1443104504465,1443104505023,412,443,0,0,0,4,3,1,43,0004-00-0003-64.png,0003-00-0008-21.png
00000014,167,1,1443104507904,1443104507936,427,343,0,0,0,1,3,2,13,0001-00-0000-08.png,0003-00-0001-57.png
00000014,168,1,1443104509014,1443104509525,926,410,0,0,0,3,1,2,31,0003-00-0002-82.png,0001-00-0009-44.png
00000014,169,1,1443104510574,1443104511126,409,445,0,0,0,1,5,4,15,0001-00-0000-57.png,0005-00-0009-73.png
00000014,170,1,1443104512206,1443104512781,901,411,0,0,0,4,2,2,42,0004-00-0009-48.png,0002-00-0000-54.png
00000014,171,1,1443104513875,1443104514412,319,447,0,0,0,2,3,1,23,0002-00-0002-37.png,0003-00-0005-30.png
00000014,172,1,1443104515425,1443104516007,341,441,0,0,0,1,2,1,12,0001-00-0005-49.png,0002-00-0001-37.png
00000014,173,1,1443104517025,1443104517570,385,423,0,0,0,3,4,1,34,0003-00-0008-93.png,0004-00-0008-74.png
00000014,174,1,1443104518636,1443104519208,401,410,0,0,0,3,5,2,35,0003-00-0009-55.png,0005-00-0000-08.png
00000014,175,1,1443104520296,1443104520910,900,443,0,0,0,5,2,3,52,0005-00-0000-38.png,0002-00-0008-64.png
00000014,176,1,1443104521916,1443104522501,868,486,0,0,0,2,1,1,21,0002-00-0003-16.png,0001-00-0005-93.png
00000014,177,1,1443104523616,1443104524696,859,466,0,0,0,5,3,2,53,0005-00-0009-08.png,0003-00-0006-91.png
00000014,178,0,1443104525782,1443104526379,875,397,0,0,0,2,4,2,24,0002-00-0002-99.png,0004-00-0001-90.png
00000014,179,1,1443104529469,1443104529936,361,398,0,0,0,1,4,3,14,0001-00-0007-96.png,0004-00-0005-24.png
00000014,180,0,1443104530961,1443104531463,401,384,0,0,0,5,4,1,54,0005-00-0006-65.png,0004-00-0002-84.png
00000014,181,1,1443104534519,1443104535015,356,470,0,0,0,1,4,3,14,0001-00-0002-85.png,0004-00-0000-81.png
00000014,182,1,1443104535999,1443104536592,904,376,0,0,0,3,2,1,32,0003-00-0003-78.png,0002-00-0001-58.png
00000014,183,0,1443104537580,1443104538682,364,391,0,0,0,5,2,3,52,0005-00-0000-58.png,0002-00-0007-16.png
00000014,184,1,1443104541719,1443104542225,908,500,0,0,0,2,1,1,21,0002-00-0000-67.png,0001-00-0004-75.png
00000014,185,0,1443104543247,1443104543809,878,480,0,0,0,2,5,3,25,0002-00-0009-35.png,0005-00-0007-55.png
00000014,186,1,1443104547874,1443104548324,401,488,0,0,0,1,3,2,13,0001-00-0007-51.png,0003-00-0002-13.png
00000014,187,1,1443104549406,1443104549936,875,487,0,0,0,4,1,3,41,0004-00-0003-93.png,0001-00-0008-78.png
00000014,188,0,1443104551025,1443104551579,904,402,0,0,0,3,5,2,35,0003-00-0005-99.png,0005-00-0008-04.png
00000014,189,0,1443104554713,1443104555210,898,485,0,0,0,2,3,1,23,0002-00-0003-80.png,0003-00-0000-51.png
00000014,190,1,1443104558061,1443104558588,900,385,0,0,0,4,3,1,43,0004-00-0005-64.png,0003-00-0006-02.png
00000014,191,0,1443104559573,1443104560158,900,397,0,0,0,4,5,1,45,0004-00-0002-21.png,0005-00-0008-00.png
00000014,192,0,1443104563169,1443104563189,467,358,0,0,0,4,2,2,42,0004-00-0007-93.png,0002-00-0001-46.png
00000014,193,1,1443104566032,1443104566469,411,560,0,0,0,2,4,2,24,0002-00-0009-58.png,0004-00-0002-47.png
00000014,194,1,1443104567385,1443104567932,926,461,0,0,0,5,3,2,53,0005-00-0007-38.png,0003-00-0004-35.png
00000014,195,0,1443104568874,1443104569487,905,410,0,0,0,3,4,1,34,0003-00-0002-29.png,0004-00-0005-62.png
00000014,196,0,1443104572523,1443104572531,504,395,0,0,0,5,1,4,51,0005-00-0006-05.png,0001-00-0007-89.png
00000014,197,1,1443104575511,1443104576018,315,438,0,0,0,1,2,1,12,0001-00-0007-50.png,0002-00-0007-87.png
00000014,198,1,1443104576934,1443104577429,409,445,0,0,0,1,5,4,15,0001-00-0006-66.png,0005-00-0008-07.png
00000014,199,0,1443104578427,1443104578977,376,410,0,0,0,3,1,2,31,0003-00-0005-31.png,0001-00-0007-84.png
00000014,200,0,1443104581929,1443104582017,478,475,0,0,0,5,4,1,54,0005-00-0000-16.png,0004-00-0000-46.png
00000014,201,0,1443104584914,1443104585386,366,444,0,0,0,4,1,3,41,0004-00-0008-80.png,0001-00-0006-39.png
00000014,202,0,1443104588493,1443104588979,875,410,0,0,0,2,3,1,23,0002-00-0001-61.png,0003-00-0003-38.png
00000014,203,1,1443104592439,1443104592919,294,429,0,0,0,1,3,2,13,0001-00-0006-02.png,0003-00-0004-91.png
00000014,204,0,1443104593909,1443104594443,315,416,0,0,0,4,3,1,43,0004-00-0001-01.png,0003-00-0004-04.png
00000014,205,0,1443104598054,1443104598594,426,533,0,0,0,5,4,1,54,0005-00-0008-64.png,0004-00-0000-86.png
00000014,206,1,1443104601770,1443104602274,905,393,0,0,0,5,3,2,53,0005-00-0007-84.png,0003-00-0001-64.png
00000014,207,1,1443104603401,1443104603986,860,370,0,0,0,4,2,2,42,0004-00-0007-38.png,0002-00-0004-23.png
00000014,208,1,1443104605066,1443104605638,898,381,0,0,0,2,1,1,21,0002-00-0008-25.png,0001-00-0007-07.png
00000014,209,1,1443104606641,1443104607216,892,379,0,0,0,5,1,4,51,0005-00-0008-62.png,0001-00-0007-45.png
00000014,210,1,1443104608291,1443104608824,431,510,0,0,0,4,5,1,45,0004-00-0008-33.png,0005-00-0006-57.png
00000014,211,1,1443104609841,1443104610426,862,501,0,0,0,5,2,3,52,0005-00-0004-62.png,0002-00-0008-93.png
00000014,212,1,1443104611493,1443104612066,885,422,0,0,0,3,1,2,31,0003-00-0007-96.png,0001-00-0003-01.png
00000014,213,0,1443104613152,1443104613699,862,397,0,0,0,2,5,3,25,0002-00-0003-15.png,0005-00-0003-54.png
00000014,214,1,1443104616559,1443104616579,487,484,0,0,0,1,5,4,15,0001-00-0002-46.png,0005-00-0004-65.png
00000014,215,0,1443104617714,1443104618232,878,400,0,0,0,3,4,1,34,0003-00-0007-17.png,0004-00-0000-54.png
00000014,216,1,1443104621194,1443104621708,897,510,0,0,0,3,2,1,32,0003-00-0005-50.png,0002-00-0001-58.png
00000014,217,1,1443104622636,1443104623492,401,422,0,0,0,3,5,2,35,0003-00-0009-90.png,0005-00-0008-62.png
00000014,218,0,1443104624514,1443104625177,875,383,0,0,0,1,2,1,12,0001-00-0006-72.png,0002-00-0002-31.png
00000014,219,1,1443104628149,1443104628584,354,453,0,0,0,2,4,2,24,0002-00-0007-33.png,0004-00-0005-43.png
00000014,220,1,1443104629501,1443104630057,366,448,0,0,0,1,4,3,14,0001-00-0003-92.png,0004-00-0007-97.png
00000014,221,0,1443104631102,1443104631657,379,429,0,0,0,3,1,2,31,0003-00-0000-13.png,0001-00-0002-41.png
00000014,222,0,1443104634649,1443104635132,362,424,0,0,0,2,1,1,21,0002-00-0009-30.png,0001-00-0009-62.png
00000014,223,1,1443104638138,1443104638635,337,397,0,0,0,1,4,3,14,0001-00-0004-91.png,0004-00-0004-27.png
00000014,224,1,1443104640118,1443104640552,362,394,0,0,0,1,5,4,15,0001-00-0000-71.png,0005-00-0007-78.png
00000014,225,1,1443104641456,1443104641946,388,450,0,0,0,2,3,1,23,0002-00-0003-85.png,0003-00-0004-62.png
00000014,226,0,1443104643017,1443104643590,869,397,0,0,0,2,4,2,24,0002-00-0002-93.png,0004-00-0001-49.png
00000014,227,1,1443104646603,1443104647099,381,498,0,0,0,2,5,3,25,0002-00-0002-74.png,0005-00-0003-25.png
00000014,228,0,1443104648156,1443104648643,401,422,0,0,0,5,1,4,51,0005-00-0008-09.png,0001-00-0002-10.png
00000014,229,0,1443104651664,1443104652158,927,408,0,0,0,1,2,1,12,0001-00-0008-64.png,0002-00-0002-17.png
00000014,230,1,1443104655089,1443104655585,890,423,0,0,0,4,1,3,41,0004-00-0002-60.png,0001-00-0009-30.png
00000014,231,1,1443104656662,1443104657173,897,420,0,0,0,4,2,2,42,0004-00-0004-87.png,0002-00-0002-83.png
00000014,232,1,1443104658232,1443104658791,901,487,0,0,0,5,2,3,52,0005-00-0001-27.png,0002-00-0004-27.png
00000014,233,1,1443104659852,1443104660428,874,463,0,0,0,5,4,1,54,0005-00-0000-39.png,0004-00-0006-25.png
00000014,234,1,1443104661433,1443104661975,888,410,0,0,0,3,2,1,32,0003-00-0002-03.png,0002-00-0001-77.png
00000014,235,0,1443104663081,1443104663619,900,403,0,0,0,3,5,2,35,0003-00-0003-74.png,0005-00-0004-75.png
00000014,236,1,1443104667057,1443104667532,391,493,0,0,0,3,4,1,34,0003-00-0001-99.png,0004-00-0006-76.png
00000014,237,1,1443104668593,1443104669093,875,502,0,0,0,5,3,2,53,0005-00-0002-91.png,0003-00-0000-31.png
00000014,238,0,1443104670124,1443104670670,900,476,0,0,0,1,3,2,13,0001-00-0007-54.png,0003-00-0005-81.png
00000014,239,1,1443104673698,1443104674162,345,465,0,0,0,4,5,1,45,0004-00-0008-05.png,0005-00-0006-33.png
00000014,240,1,1443104675119,1443104675706,880,418,0,0,0,4,3,1,43,0004-00-0005-74.png,0003-00-0009-66.png
00000014,241,1,1443104676814,1443104677379,887,398,0,0,0,5,4,1,54,0005-00-0007-10.png,0004-00-0001-22.png
00000014,242,1,1443104678470,1443104679020,876,512,0,0,0,5,2,3,52,0005-00-0007-47.png,0002-00-0004-50.png
00000014,243,0,1443104680099,1443104680702,356,437,0,0,0,4,1,3,41,0004-00-0006-91.png,0001-00-0005-55.png
00000014,244,1,1443104683623,1443104683644,504,384,0,0,0,2,3,1,23,0002-00-0004-57.png,0003-00-0009-82.png
00000014,245,1,1443104684722,1443104685892,941,520,0,0,0,5,1,4,51,0005-00-0009-17.png,0001-00-0002-78.png
00000014,246,1,1443104687087,1443104687578,347,438,0,0,0,3,5,2,35,0003-00-0000-45.png,0005-00-0004-30.png
00000014,247,1,1443104688576,1443104689138,891,392,0,0,0,5,3,2,53,0005-00-0004-94.png,0003-00-0005-51.png
00000014,248,0,1443104690228,1443104690733,394,453,0,0,0,4,2,2,42,0004-00-0007-62.png,0002-00-0005-76.png
00000014,249,0,1443104694352,1443104695377,384,396,0,0,0,4,3,1,43,0004-00-0004-50.png,0003-00-0008-25.png
00000014,250,1,1443104698341,1443104698852,904,377,0,0,0,3,2,1,32,0003-00-0005-08.png,0002-00-0003-88.png
00000014,251,0,1443104699910,1443104700447,401,442,0,0,0,3,1,2,31,0003-00-0002-70.png,0001-00-0006-16.png
00000014,252,1,1443104716252,1443104716668,350,383,0,0,0,1,2,1,12,0001-00-0006-76.png,0002-00-0007-12.png
00000014,253,1,1443104717774,1443104718279,291,430,0,0,0,2,5,3,25,0002-00-0000-72.png,0005-00-0000-42.png
00000014,254,1,1443104719285,1443104719784,299,410,0,0,0,2,4,2,24,0002-00-0003-14.png,0004-00-0003-55.png
00000014,255,0,1443104720764,1443104721236,369,531,0,0,0,2,1,1,21,0002-00-0004-56.png,0001-00-0002-19.png
00000014,256,1,1443104724383,1443104724795,349,421,0,0,0,1,3,2,13,0001-00-0008-17.png,0003-00-0008-00.png
00000014,257,1,1443104725733,1443104726239,349,423,0,0,0,1,4,3,14,0001-00-0001-64.png,0004-00-0002-46.png
00000014,258,1,1443104727224,1443104727736,401,410,0,0,0,1,5,4,15,0001-00-0005-05.png,0005-00-0003-92.png
00000014,259,1,1443104728787,1443104729427,325,476,0,0,0,4,5,1,45,0004-00-0000-56.png,0005-00-0006-86.png
00000014,260,0,1443104730423,1443104730992,872,487,0,0,0,3,4,1,34,0003-00-0000-16.png,0004-00-0006-82.png
00000014,261,1,1443104734033,1443104734485,889,421,0,0,0,5,4,1,54,0005-00-0003-72.png,0004-00-0004-97.png
00000014,262,1,1443104735502,1443104736087,896,419,0,0,0,4,2,2,42,0004-00-0009-10.png,0002-00-0002-96.png
00000014,263,1,1443104737146,1443104737694,443,538,0,0,0,3,4,1,34,0003-00-0006-54.png,0004-00-0000-18.png
00000014,264,1,1443104738603,1443104739174,393,533,0,0,0,3,5,2,35,0003-00-0001-39.png,0005-00-0002-93.png
00000014,265,1,1443104740187,1443104740728,325,450,0,0,0,2,4,2,24,0002-00-0003-86.png,0004-00-0006-32.png
00000014,266,0,1443104741705,1443104742298,868,495,0,0,0,1,3,2,13,0001-00-0005-49.png,0003-00-0000-69.png
00000014,267,1,1443104745320,1443104745776,312,449,0,0,0,2,5,3,25,0002-00-0000-40.png,0005-00-0000-72.png
00000014,268,1,1443104746787,1443104747283,342,412,0,0,0,1,4,3,14,0001-00-0006-60.png,0004-00-0001-13.png
00000014,269,1,1443104748265,1443104748814,900,410,0,0,0,4,3,1,43,0004-00-0005-65.png,0003-00-0003-38.png
00000014,270,1,1443104749833,1443104750410,902,414,0,0,0,5,3,2,53,0005-00-0005-83.png,0003-00-0000-69.png
00000014,271,1,1443104751414,1443104751977,349,448,0,0,0,2,3,1,23,0002-00-0001-81.png,0003-00-0002-98.png
00000014,272,1,1443104752945,1443104753514,419,505,0,0,0,4,5,1,45,0004-00-0003-46.png,0005-00-0001-32.png
00000014,273,1,1443104754506,1443104755018,348,447,0,0,0,1,5,4,15,0001-00-0002-83.png,0005-00-0007-55.png
00000014,274,1,1443104755977,1443104756545,874,501,0,0,0,4,1,3,41,0004-00-0003-25.png,0001-00-0009-79.png
00000014,275,1,1443104757603,1443104758168,900,423,0,0,0,5,1,4,51,0005-00-0009-01.png,0001-00-0002-14.png
00000014,276,0,1443104759194,1443104759798,389,432,0,0,0,2,1,1,21,0002-00-0007-41.png,0001-00-0009-90.png
00000014,277,1,1443104762939,1443104763420,898,485,0,0,0,3,1,2,31,0003-00-0007-71.png,0001-00-0008-97.png
00000014,278,1,1443104764421,1443104764991,872,481,0,0,0,5,2,3,52,0005-00-0005-52.png,0002-00-0001-29.png
00000014,279,0,1443104765990,1443104766990,437,502,0,0,0,3,2,1,32,0003-00-0004-75.png,0002-00-0002-41.png
00000014,280,1,1443104769836,1443104770287,401,463,0,0,0,1,2,1,12,0001-00-0001-57.png,0002-00-0001-35.png
00000014,281,1,1443104771220,1443104771783,380,442,0,0,0,3,5,2,35,0003-00-0003-44.png,0005-00-0007-26.png
00000014,282,1,1443104772699,1443104773297,918,495,0,0,0,3,2,1,32,0003-00-0003-15.png,0002-00-0004-65.png
00000014,283,1,1443104774278,1443104774873,865,430,0,0,0,5,3,2,53,0005-00-0003-18.png,0003-00-0006-87.png
00000014,284,0,1443104775920,1443104776926,376,465,0,0,0,5,4,1,54,0005-00-0006-56.png,0004-00-0006-53.png
00000014,285,1,1443104779911,1443104780396,913,423,0,0,0,2,1,1,21,0002-00-0007-33.png,0001-00-0005-21.png
00000014,286,1,1443104781416,1443104781995,870,393,0,0,0,3,1,2,31,0003-00-0004-77.png,0001-00-0002-48.png
00000014,287,1,1443104782944,1443104783462,401,410,0,0,0,1,2,1,12,0001-00-0009-71.png,0002-00-0008-68.png
00000014,288,1,1443104784403,1443104785179,360,442,0,0,0,2,3,1,23,0002-00-0001-89.png,0003-00-0003-54.png
00000014,289,1,1443104786176,1443104786811,428,449,0,0,0,3,4,1,34,0003-00-0007-40.png,0004-00-0006-58.png
00000014,290,1,1443104787764,1443104788391,376,441,0,0,0,2,5,3,25,0002-00-0008-22.png,0005-00-0002-84.png
00000014,291,0,1443104789497,1443104790536,396,420,0,0,0,4,3,1,43,0004-00-0008-76.png,0003-00-0009-27.png
00000014,292,0,1443104793471,1443104793483,383,376,0,0,0,5,1,4,51,0005-00-0004-74.png,0001-00-0002-58.png
00000014,293,0,1443104796380,1443104797260,386,406,0,0,0,4,1,3,41,0004-00-0006-89.png,0001-00-0000-46.png
00000014,294,1,1443104800424,1443104800822,350,423,0,0,0,1,5,4,15,0001-00-0005-57.png,0005-00-0009-86.png
00000014,295,1,1443104801790,1443104802364,880,471,0,0,0,4,2,2,42,0004-00-0009-22.png,0002-00-0000-77.png
00000014,296,1,1443104803379,1443104803945,415,544,0,0,0,1,3,2,13,0001-00-0004-51.png,0003-00-0009-51.png
00000014,297,0,1443104804883,1443104805480,901,410,0,0,0,4,5,1,45,0004-00-0006-94.png,0005-00-0005-73.png
00000014,298,1,1443104808418,1443104808919,900,476,0,0,0,5,2,3,52,0005-00-0003-95.png,0002-00-0000-93.png
00000014,299,1,1443104809890,1443104810461,370,447,0,0,0,2,4,2,24,0002-00-0005-99.png,0004-00-0004-74.png
00000014,300,1,1443104811380,1443104811897,412,449,0,0,0,1,4,3,14,0001-00-0000-92.png,0004-00-0005-22.png
00000014,301,0,1443104812863,1443104813471,874,504,0,0,0,1,3,2,13,0001-00-0009-57.png,0003-00-0006-80.png
00000014,302,0,1443104816618,1443104816996,401,436,0,0,0,4,3,1,43,0004-00-0005-29.png,0003-00-0008-00.png
00000014,303,0,1443104819948,1443104820420,387,410,0,0,0,5,4,1,54,0005-00-0005-45.png,0004-00-0002-97.png
00000014,304,0,1443104823444,1443104823959,879,402,0,0,0,1,2,1,12,0001-00-0009-45.png,0002-00-0003-25.png
00000014,305,1,1443104827084,1443104827560,879,350,0,0,0,4,1,3,41,0004-00-0008-99.png,0001-00-0005-01.png
00000014,306,1,1443104828583,1443104829073,336,440,0,0,0,3,5,2,35,0003-00-0003-77.png,0005-00-0001-88.png
00000014,307,0,1443104829994,1443104830527,338,462,0,0,0,3,2,1,32,0003-00-0004-15.png,0002-00-0008-82.png
00000014,308,0,1443104833358,1443104834201,319,409,0,0,0,2,1,1,21,0002-00-0001-00.png,0001-00-0009-70.png
00000014,309,1,1443104837077,1443104837555,887,480,0,0,0,4,2,2,42,0004-00-0006-17.png,0002-00-0009-09.png
00000014,310,1,1443104838550,1443104839027,350,436,0,0,0,1,5,4,15,0001-00-0000-15.png,0005-00-0008-24.png
00000014,311,1,1443104840002,1443104840603,871,368,0,0,0,5,2,3,52,0005-00-0004-61.png,0002-00-0003-98.png
00000014,312,1,1443104841573,1443104842137,334,431,0,0,0,2,5,3,25,0002-00-0009-01.png,0005-00-0008-11.png
00000014,313,0,1443104843072,1443104843666,874,464,0,0,0,3,4,1,34,0003-00-0005-94.png,0004-00-0001-27.png
00000014,314,1,1443104846610,1443104847067,350,384,0,0,0,1,4,3,14,0001-00-0004-72.png,0004-00-0008-12.png
00000014,315,1,1443104848032,1443104848574,868,402,0,0,0,5,3,2,53,0005-00-0002-69.png,0003-00-0006-29.png
00000014,316,1,1443104849499,1443104850043,865,482,0,0,0,5,1,4,51,0005-00-0004-19.png,0001-00-0008-74.png
00000014,317,1,1443104851055,1443104851700,377,428,0,0,0,4,5,1,45,0004-00-0009-46.png,0005-00-0004-78.png
00000014,318,1,1443104852612,1443104853168,344,435,0,0,0,2,4,2,24,0002-00-0002-33.png,0004-00-0003-99.png
00000014,319,1,1443104854240,1443104854768,350,410,0,0,0,2,3,1,23,0002-00-0001-49.png,0003-00-0005-83.png
00000014,320,1,1443104855782,1443104856334,900,409,0,0,0,3,1,2,31,0003-00-0007-63.png,0001-00-0008-44.png
00000014,321,1,1443104857342,1443104857848,324,420,0,0,0,4,5,1,45,0004-00-0007-54.png,0005-00-0005-30.png
00000014,322,1,1443104858883,1443104859441,887,487,0,0,0,2,1,1,21,0002-00-0009-45.png,0001-00-0005-15.png
00000014,323,1,1443104860484,1443104861037,876,494,0,0,0,3,1,2,31,0003-00-0003-09.png,0001-00-0001-50.png
00000014,324,0,1443104862007,1443104863105,425,375,0,0,0,5,4,1,54,0005-00-0000-27.png,0004-00-0008-49.png
00000014,325,1,1443104866005,1443104866375,314,415,0,0,0,1,3,2,13,0001-00-0009-02.png,0003-00-0006-02.png
00000014,326,1,1443104867338,1443104867913,899,490,0,0,0,4,2,2,42,0004-00-0009-03.png,0002-00-0002-34.png
00000014,327,1,1443104868940,1443104869496,366,442,0,0,0,3,5,2,35,0003-00-0002-83.png,0005-00-0008-10.png
00000014,328,0,1443104870468,1443104871504,434,415,0,0,0,5,3,2,53,0005-00-0003-93.png,0003-00-0000-02.png
00000014,329,1,1443104874634,1443104875045,365,441,0,0,0,2,5,3,25,0002-00-0008-25.png,0005-00-0008-07.png
00000014,330,1,1443104875995,1443104876555,362,437,0,0,0,2,4,2,24,0002-00-0004-52.png,0004-00-0004-09.png
00000014,331,1,1443104877529,1443104878614,900,384,0,0,0,5,1,4,51,0005-00-0004-47.png,0001-00-0007-57.png
00000014,332,0,1443104879573,1443104880158,865,483,0,0,0,3,4,1,34,0003-00-0004-37.png,0004-00-0004-72.png
00000014,333,1,1443104883090,1443104883566,346,405,0,0,0,1,4,3,14,0001-00-0000-68.png,0004-00-0007-90.png
00000014,334,0,1443104884742,1443104885273,427,423,0,0,0,4,3,1,43,0004-00-0002-69.png,0003-00-0002-76.png
00000014,335,1,1443104888198,1443104888722,888,476,0,0,0,5,2,3,52,0005-00-0006-96.png,0002-00-0002-29.png
00000014,336,1,1443104889784,1443104890298,345,447,0,0,0,1,2,1,12,0001-00-0004-89.png,0002-00-0001-94.png
00000014,337,0,1443104891380,1443104891944,344,436,0,0,0,4,1,3,41,0004-00-0005-94.png,0001-00-0006-19.png
00000014,338,1,1443104895004,1443104895463,248,423,0,0,0,1,5,4,15,0001-00-0008-30.png,0005-00-0001-68.png
00000014,339,1,1443104896396,1443104897054,885,473,0,0,0,3,2,1,32,0003-00-0005-07.png,0002-00-0001-29.png
00000014,340,1,1443104898028,1443104898620,401,423,0,0,0,2,3,1,23,0002-00-0007-24.png,0003-00-0002-62.png
00000014,341,1,1443104900106,1443104900655,883,460,0,0,0,4,3,1,43,0004-00-0005-09.png,0003-00-0008-32.png
00000014,342,0,1443104901644,1443104902186,888,387,0,0,0,2,4,2,24,0002-00-0003-73.png,0004-00-0008-12.png
00000014,343,1,1443104905702,1443104906148,368,427,0,0,0,4,5,1,45,0004-00-0001-71.png,0005-00-0006-92.png
00000014,344,0,1443104907203,1443104907741,866,483,0,0,0,2,3,1,23,0002-00-0002-82.png,0003-00-0007-31.png
00000014,345,1,1443104910627,1443104911067,871,419,0,0,0,5,1,4,51,0005-00-0000-36.png,0001-00-0005-69.png
00000014,346,1,1443104912031,1443104912515,380,426,0,0,0,1,3,2,13,0001-00-0005-84.png,0003-00-0003-50.png
00000014,347,1,1443104913488,1443104914079,376,435,0,0,0,1,2,1,12,0001-00-0003-28.png,0002-00-0007-45.png
00000014,348,1,1443104915035,1443104915589,325,436,0,0,0,3,5,2,35,0003-00-0009-93.png,0005-00-0007-42.png
00000014,349,1,1443104917130,1443104917598,875,358,0,0,0,3,1,2,31,0003-00-0005-66.png,0001-00-0005-12.png
00000014,350,0,1443104918612,1443104919621,414,414,0,0,0,5,4,1,54,0005-00-0000-69.png,0004-00-0008-66.png
00000014,351,0,1443104922686,1443104923114,397,409,0,0,0,4,2,2,42,0004-00-0008-52.png,0002-00-0006-49.png
00000014,352,1,1443104926113,1443104926544,337,422,0,0,0,3,4,1,34,0003-00-0001-81.png,0004-00-0005-02.png
00000014,353,1,1443104927506,1443104928086,878,480,0,0,0,4,1,3,41,0004-00-0003-29.png,0001-00-0002-66.png
00000014,354,0,1443104929157,1443104929720,351,441,0,0,0,5,2,3,52,0005-00-0007-80.png,0002-00-0007-38.png
00000014,355,0,1443104932864,1443104933338,863,411,0,0,0,2,5,3,25,0002-00-0008-60.png,0005-00-0005-63.png
00000014,356,1,1443104936292,1443104936731,930,376,0,0,0,2,1,1,21,0002-00-0000-90.png,0001-00-0003-92.png
00000014,357,1,1443104937743,1443104938182,388,462,0,0,0,1,4,3,14,0001-00-0008-30.png,0004-00-0000-80.png
00000014,358,0,1443104939619,1443104940078,401,449,0,0,0,5,3,2,53,0005-00-0001-13.png,0003-00-0007-37.png
00000014,359,1,1443104943090,1443104943565,904,401,0,0,0,3,2,1,32,0003-00-0008-71.png,0002-00-0009-88.png
00000014,360,1,1443104944541,1443104945107,363,437,0,0,0,1,5,4,15,0001-00-0000-04.png,0005-00-0007-29.png
00000014,361,1,1443104946092,1443104946689,877,454,0,0,0,5,3,2,53,0005-00-0009-49.png,0003-00-0002-27.png
00000014,362,1,1443104947663,1443104948248,872,482,0,0,0,4,1,3,41,0004-00-0005-39.png,0001-00-0008-95.png
00000014,363,1,1443104949273,1443104949792,359,428,0,0,0,1,2,1,12,0001-00-0002-77.png,0002-00-0007-21.png
00000014,364,1,1443104950831,1443104951413,863,396,0,0,0,4,2,2,42,0004-00-0007-09.png,0002-00-0008-05.png
00000014,365,0,1443104952483,1443104953376,411,390,0,0,0,5,1,4,51,0005-00-0004-40.png,0001-00-0001-81.png
00000014,366,0,1443104958221,1443104958739,344,493,0,0,0,5,4,1,54,0005-00-0004-90.png,0004-00-0005-41.png
00000014,367,0,1443104961906,1443104962421,900,476,0,0,0,3,4,1,34,0003-00-0004-64.png,0004-00-0007-53.png
00000014,368,1,1443104965291,1443104965331,478,370,0,0,0,1,5,4,15,0001-00-0007-06.png,0005-00-0004-01.png
00000014,369,1,1443104966386,1443104967021,194,532,0,0,0,1,4,3,14,0001-00-0009-68.png,0004-00-0006-93.png
00000014,370,1,1443104967920,1443104968509,926,435,0,0,0,4,3,1,43,0004-00-0003-16.png,0003-00-0006-84.png
00000014,371,1,1443104969546,1443104970105,889,501,0,0,0,3,1,2,31,0003-00-0000-97.png,0001-00-0008-12.png
00000014,372,1,1443104971143,1443104971701,879,506,0,0,0,5,2,3,52,0005-00-0008-95.png,0002-00-0001-03.png
00000014,373,0,1443104972655,1443104973247,911,455,0,0,0,1,3,2,13,0001-00-0004-27.png,0003-00-0007-59.png
00000014,374,1,1443104976701,1443104977115,937,398,0,0,0,2,1,1,21,0002-00-0005-60.png,0001-00-0005-93.png
00000014,375,0,1443104978123,1443104978616,358,455,0,0,0,3,2,1,32,0003-00-0004-33.png,0002-00-0004-32.png
00000014,376,1,1443104981759,1443104982335,277,409,0,0,0,4,5,1,45,0004-00-0001-43.png,0005-00-0006-04.png
00000014,377,1,1443104983271,1443104983798,373,433,0,0,0,2,4,2,24,0002-00-0001-90.png,0004-00-0008-92.png
00000014,378,1,1443104984834,1443104985359,438,542,0,0,0,2,5,3,25,0002-00-0009-27.png,0005-00-0000-15.png
00000014,379,1,1443104986790,1443104987277,337,423,0,0,0,3,5,2,35,0003-00-0007-06.png,0005-00-0000-89.png
00000014,380,1,1443104988281,1443104988814,427,410,0,0,0,2,3,1,23,0002-00-0002-59.png,0003-00-0000-68.png
00000014,381,0,1443104989844,1443104990301,376,462,0,0,0,4,2,2,42,0004-00-0009-80.png,0002-00-0001-43.png
00000014,382,1,1443104993356,1443104993824,859,490,0,0,0,5,4,1,54,0005-00-0005-74.png,0004-00-0000-51.png
00000014,383,0,1443104995267,1443104995721,344,421,0,0,0,2,1,1,21,0002-00-0004-97.png,0001-00-0009-95.png
00000014,384,1,1443104998626,1443104999046,401,410,0,0,0,4,5,1,45,0004-00-0003-94.png,0005-00-0007-00.png
00000014,385,1,1443105000007,1443105000591,888,433,0,0,0,5,3,2,53,0005-00-0008-77.png,0003-00-0003-88.png
00000014,386,0,1443105001537,1443105002120,875,449,0,0,0,2,3,1,23,0002-00-0007-64.png,0003-00-0001-65.png
00000014,387,0,1443105005393,1443105005838,905,401,0,0,0,1,5,4,15,0001-00-0006-05.png,0005-00-0009-18.png
00000014,388,1,1443105009209,1443105009835,287,450,0,0,0,3,4,1,34,0003-00-0005-76.png,0004-00-0006-06.png
00000014,389,0,1443105010890,1443105011459,888,398,0,0,0,1,3,2,13,0001-00-0004-08.png,0003-00-0009-36.png
00000014,390,1,1443105014337,1443105014788,861,399,0,0,0,4,3,1,43,0004-00-0009-43.png,0003-00-0008-27.png
00000014,391,0,1443105015709,1443105016269,900,398,0,0,0,1,2,1,12,0001-00-0009-62.png,0002-00-0001-73.png
00000014,392,0,1443105019289,1443105019313,427,358,0,0,0,5,2,3,52,0005-00-0002-38.png,0002-00-0000-03.png
00000014,393,1,1443105022325,1443105022844,426,566,0,0,0,2,5,3,25,0002-00-0007-26.png,0005-00-0008-38.png
00000014,394,0,1443105023818,1443105024412,350,436,0,0,0,4,1,3,41,0004-00-0008-04.png,0001-00-0005-55.png
00000014,395,1,1443105027264,1443105027296,501,436,0,0,0,1,4,3,14,0001-00-0007-59.png,0004-00-0007-63.png
00000014,396,1,1443105028371,1443105028926,899,415,0,0,0,3,2,1,32,0003-00-0009-52.png,0002-00-0005-56.png
00000014,397,1,1443105029930,1443105030514,339,440,0,0,0,3,5,2,35,0003-00-0004-14.png,0005-00-0008-48.png
00000014,398,0,1443105031507,1443105032152,861,502,0,0,0,2,4,2,24,0002-00-0004-16.png,0004-00-0006-39.png
00000014,399,0,1443105035168,1443105035252,504,514,0,0,0,5,1,4,51,0005-00-0003-62.png,0001-00-0007-93.png
00000014,400,0,1443105038117,1443105038659,350,450,0,0,0,3,1,2,31,0003-00-0002-56.png,0001-00-0009-82.png
00000014,401,1,1443105041579,1443105042075,346,443,0,0,0,2,4,2,24,0002-00-0004-13.png,0004-00-0008-16.png
00000014,402,1,1443105043141,1443105043624,396,540,0,0,0,3,4,1,34,0003-00-0007-46.png,0004-00-0004-66.png
00000014,403,0,1443105044640,1443105045201,427,518,0,0,0,4,3,1,43,0004-00-0004-94.png,0003-00-0008-42.png
00000014,404,0,1443105048085,1443105048183,478,450,0,0,0,3,1,2,31,0003-00-0009-87.png,0001-00-0008-44.png
00000014,405,0,1443105051187,1443105051576,298,429,0,0,0,5,4,1,54,0005-00-0009-80.png,0004-00-0008-66.png
00000014,406,1,1443105054676,1443105055114,925,379,0,0,0,5,1,4,51,0005-00-0004-25.png,0001-00-0004-07.png
00000014,407,1,1443105056078,1443105056619,363,448,0,0,0,1,3,2,13,0001-00-0004-96.png,0003-00-0003-21.png
00000014,408,0,1443105057558,1443105058229,865,404,0,0,0,4,5,1,45,0004-00-0005-35.png,0005-00-0003-03.png
00000014,409,0,1443105061186,1443105061708,931,452,0,0,0,2,5,3,25,0002-00-0001-43.png,0005-00-0006-96.png
00000014,410,0,1443105064604,1443105064640,427,369,0,0,0,2,1,1,21,0002-00-0003-84.png,0001-00-0001-79.png
00000014,411,0,1443105067666,1443105068130,926,409,0,0,0,2,3,1,23,0002-00-0008-44.png,0003-00-0008-79.png
00000014,412,1,1443105071254,1443105071706,903,416,0,0,0,5,2,3,52,0005-00-0008-52.png,0002-00-0008-57.png
00000014,413,0,1443105072775,1443105073313,358,472,0,0,0,3,2,1,32,0003-00-0009-43.png,0002-00-0008-37.png
00000014,414,1,1443105076634,1443105077069,325,449,0,0,0,1,4,3,14,0001-00-0007-68.png,0004-00-0008-08.png
00000014,415,1,1443105078133,1443105078715,858,423,0,0,0,4,1,3,41,0004-00-0000-39.png,0001-00-0005-39.png
00000014,416,1,1443105079700,1443105080305,351,414,0,0,0,3,5,2,35,0003-00-0007-35.png,0005-00-0005-64.png
00000014,417,0,1443105081278,1443105081860,859,431,0,0,0,1,5,4,15,0001-00-0001-68.png,0005-00-0006-87.png
00000014,418,0,1443105084800,1443105085360,411,440,0,0,0,4,2,2,42,0004-00-0008-60.png,0002-00-0002-91.png
00000014,419,0,1443105088295,1443105088335,435,393,0,0,0,5,3,2,53,0005-00-0007-52.png,0003-00-0004-56.png
00000014,420,1,1443105091571,1443105092001,350,437,0,0,0,1,2,1,12,0001-00-0003-76.png,0002-00-0006-61.png
00000014,421,0,1443105092909,1443105093490,858,420,0,0,0,1,5,4,15,0001-00-0008-88.png,0005-00-0000-10.png
00000014,422,1,1443105096613,1443105097123,869,493,0,0,0,3,1,2,31,0003-00-0007-77.png,0001-00-0005-71.png
00000014,423,0,1443105098167,1443105098762,874,501,0,0,0,2,5,3,25,0002-00-0005-99.png,0005-00-0008-10.png
00000014,424,0,1443105101713,1443105102219,927,435,0,0,0,3,4,1,34,0003-00-0006-46.png,0004-00-0004-01.png
00000014,425,1,1443105105102,1443105105471,335,430,0,0,0,2,3,1,23,0002-00-0001-06.png,0003-00-0008-47.png
00000014,426,0,1443105106406,1443105106410,504,410,0,0,0,2,1,1,21,0002-00-0002-22.png,0001-00-0002-25.png
00000014,427,0,1443105109268,1443105109834,929,389,0,0,0,1,4,3,14,0001-00-0006-40.png,0004-00-0004-36.png
00000014,428,1,1443105112844,1443105113288,412,543,0,0,0,1,3,2,13,0001-00-0007-88.png,0003-00-0001-00.png
00000014,429,1,1443105114247,1443105114849,859,486,0,0,0,5,2,3,52,0005-00-0005-19.png,0002-00-0005-64.png
00000014,430,0,1443105115880,1443105116461,369,442,0,0,0,4,1,3,41,0004-00-0002-18.png,0001-00-0007-05.png
00000014,431,1,1443105119472,1443105119899,927,410,0,0,0,5,1,4,51,0005-00-0009-08.png,0001-00-0008-31.png
00000014,432,0,1443105120869,1443105121905,900,358,0,0,0,4,5,1,45,0004-00-0007-22.png,0005-00-0006-44.png
00000014,433,0,1443105125000,1443105125423,335,410,0,0,0,4,3,1,43,0004-00-0008-47.png,0003-00-0009-80.png
00000014,434,0,1443105128489,1443105128497,453,396,0,0,0,5,4,1,54,0005-00-0003-42.png,0004-00-0005-37.png
00000014,435,1,1443105131531,1443105131952,339,418,0,0,0,1,2,1,12,0001-00-0006-49.png,0002-00-0000-96.png
00000014,436,1,1443105132939,1443105133491,348,423,0,0,0,2,4,2,24,0002-00-0008-15.png,0004-00-0004-37.png
00000014,437,1,1443105134471,1443105135426,876,518,0,0,0,5,3,2,53,0005-00-0001-85.png,0003-00-0000-87.png
00000014,438,1,1443105136488,1443105137027,875,423,0,0,0,4,2,2,42,0004-00-0009-67.png,0002-00-0008-73.png
00000014,439,1,1443105138039,1443105138553,412,528,0,0,0,3,5,2,35,0003-00-0002-08.png,0005-00-0008-83.png
00000014,440,1,1443105139540,1443105140123,875,417,0,0,0,3,2,1,32,0003-00-0003-66.png,0002-00-0000-49.png
00000014,441,1,1443105141636,1443105142107,889,493,0,0,0,4,1,3,41,0004-00-0007-99.png,0001-00-0004-75.png
00000014,442,1,1443105143155,1443105143630,351,407,0,0,0,1,4,3,14,0001-00-0006-27.png,0004-00-0001-45.png
00000014,443,1,1443105144657,1443105145250,877,414,0,0,0,5,3,2,53,0005-00-0002-75.png,0003-00-0003-23.png
00000014,444,1,1443105146319,1443105146911,862,436,0,0,0,3,2,1,32,0003-00-0004-23.png,0002-00-0009-18.png
00000014,445,1,1443105148227,1443105148737,880,428,0,0,0,5,1,4,51,0005-00-0006-84.png,0001-00-0008-88.png
00000014,446,0,1443105149858,1443105150411,874,438,0,0,0,2,5,3,25,0002-00-0007-73.png,0005-00-0004-30.png
00000014,447,0,1443105153553,1443105154490,415,528,0,0,0,2,1,1,21,0002-00-0001-06.png,0001-00-0002-95.png
00000014,448,1,1443105157456,1443105157914,350,397,0,0,0,3,4,1,34,0003-00-0002-36.png,0004-00-0000-89.png
00000014,449,1,1443105158900,1443105159384,393,547,0,0,0,1,5,4,15,0001-00-0008-99.png,0005-00-0000-53.png
00000014,450,1,1443105160392,1443105160978,374,448,0,0,0,4,5,1,45,0004-00-0006-89.png,0005-00-0006-60.png
00000014,451,0,1443105161982,1443105162571,379,433,0,0,0,5,2,3,52,0005-00-0003-22.png,0002-00-0003-57.png
00000014,452,1,1443105165617,1443105166068,896,375,0,0,0,4,3,1,43,0004-00-0004-37.png,0003-00-0007-13.png
00000014,453,1,1443105167328,1443105167839,332,443,0,0,0,3,5,2,35,0003-00-0004-59.png,0005-00-0004-82.png
00000014,454,0,1443105168977,1443105169538,905,401,0,0,0,2,3,1,23,0002-00-0006-33.png,0003-00-0009-48.png
00000014,455,0,1443105172564,1443105173016,401,410,0,0,0,5,4,1,54,0005-00-0009-77.png,0004-00-0007-74.png
00000014,456,0,1443105175984,1443105176608,342,530,0,0,0,3,1,2,31,0003-00-0007-70.png,0001-00-0000-86.png
00000014,457,1,1443105179691,1443105179695,466,394,0,0,0,2,4,2,24,0002-00-0004-42.png,0004-00-0005-05.png
00000014,458,1,1443105180776,1443105181347,878,416,0,0,0,4,2,2,42,0004-00-0007-39.png,0002-00-0009-07.png
00000014,459,0,1443105182415,1443105182973,868,457,0,0,0,1,2,1,12,0001-00-0009-46.png,0002-00-0005-79.png
00000014,460,0,1443105185963,1443105186430,883,505,0,0,0,1,3,2,13,0001-00-0006-36.png,0003-00-0001-20.png
00000014,461,1,1443105189412,1443105189919,357,420,0,0,0,2,5,3,25,0002-00-0003-46.png,0005-00-0003-26.png
00000014,462,1,1443105190912,1443105191462,870,472,0,0,0,3,2,1,32,0003-00-0004-95.png,0002-00-0005-77.png
00000014,463,1,1443105192506,1443105193028,388,529,0,0,0,2,4,2,24,0002-00-0005-50.png,0004-00-0006-26.png
00000014,464,1,1443105194062,1443105194637,879,401,0,0,0,4,2,2,42,0004-00-0009-44.png,0002-00-0002-20.png
00000014,465,1,1443105195723,1443105196263,902,468,0,0,0,5,4,1,54,0005-00-0004-91.png,0004-00-0007-83.png
00000014,466,0,1443105197349,1443105197896,875,442,0,0,0,1,2,1,12,0001-00-0005-81.png,0002-00-0009-21.png
00000014,467,0,1443105200821,1443105201273,391,559,0,0,0,3,1,2,31,0003-00-0005-50.png,0001-00-0004-00.png
00000014,468,1,1443105204286,1443105204314,427,424,0,0,0,2,3,1,23,0002-00-0006-86.png,0003-00-0003-07.png
00000014,469,1,1443105205423,1443105205870,338,463,0,0,0,4,5,1,45,0004-00-0004-59.png,0005-00-0005-07.png
00000014,470,1,1443105206921,1443105207457,867,509,0,0,0,5,3,2,53,0005-00-0005-47.png,0003-00-0005-26.png
00000014,471,0,1443105208494,1443105209015,427,410,0,0,0,5,2,3,52,0005-00-0008-48.png,0002-00-0001-82.png
00000014,472,1,1443105212150,1443105212842,372,455,0,0,0,1,4,3,14,0001-00-0006-21.png,0004-00-0002-45.png
00000014,473,1,1443105213900,1443105214461,875,423,0,0,0,4,1,3,41,0004-00-0005-07.png,0001-00-0006-24.png
00000014,474,1,1443105215522,1443105216134,878,480,0,0,0,2,1,1,21,0002-00-0006-39.png,0001-00-0005-36.png
00000014,475,1,1443105217138,1443105217652,401,410,0,0,0,1,3,2,13,0001-00-0005-13.png,0003-00-0002-31.png
00000014,476,1,1443105218686,1443105219405,480,522,0,0,0,3,5,2,35,0003-00-0006-03.png,0005-00-0001-96.png
00000014,477,1,1443105220399,1443105220944,341,440,0,0,0,3,4,1,34,0003-00-0006-71.png,0004-00-0007-21.png
00000014,478,1,1443105222062,1443105222544,327,433,0,0,0,1,5,4,15,0001-00-0006-13.png,0005-00-0009-76.png
00000014,479,0,1443105223649,1443105224296,411,554,0,0,0,4,3,1,43,0004-00-0000-47.png,0003-00-0008-37.png
00000014,480,0,1443105227303,1443105227798,298,469,0,0,0,5,1,4,51,0005-00-0004-27.png,0001-00-0002-10.png
00000014,481,0,1443105230672,1443105230692,453,397,0,0,0,5,1,4,51,0005-00-0004-28.png,0001-00-0005-53.png
00000014,482,0,1443105233928,1443105234388,363,370,0,0,0,3,2,1,32,0003-00-0003-02.png,0002-00-0009-07.png
00000014,483,1,1443105237304,1443105237332,504,436,0,0,0,2,5,3,25,0002-00-0000-66.png,0005-00-0007-60.png
00000014,484,1,1443105238382,1443105238962,338,497,0,0,0,1,4,3,14,0001-00-0001-87.png,0004-00-0002-35.png
00000014,485,0,1443105240003,1443105241069,344,408,0,0,0,4,3,1,43,0004-00-0001-87.png,0003-00-0006-00.png
00000014,486,1,1443105244060,1443105244606,402,523,0,0,0,4,5,1,45,0004-00-0005-29.png,0005-00-0001-37.png
00000014,487,1,1443105245581,1443105246229,422,442,0,0,0,1,3,2,13,0001-00-0007-98.png,0003-00-0008-02.png
00000014,488,1,1443105247183,1443105247753,375,436,0,0,0,1,2,1,12,0001-00-0008-25.png,0002-00-0002-25.png
00000014,489,0,1443105248964,1443105249534,431,545,0,0,0,5,4,1,54,0005-00-0005-38.png,0004-00-0006-14.png
00000014,490,1,1443105252570,1443105252606,453,399,0,0,0,2,4,2,24,0002-00-0005-43.png,0004-00-0000-39.png
00000014,491,0,1443105253693,1443105254731,315,443,0,0,0,3,1,2,31,0003-00-0005-91.png,0001-00-0007-39.png
00000014,492,1,1443105257579,1443105258063,900,397,0,0,0,4,1,3,41,0004-00-0006-35.png,0001-00-0001-29.png
00000014,493,1,1443105259071,1443105259594,401,436,0,0,0,3,4,1,34,0003-00-0002-82.png,0004-00-0004-22.png
00000014,494,0,1443105260601,1443105261154,334,447,0,0,0,2,1,1,21,0002-00-0006-88.png,0001-00-0003-62.png
00000014,495,1,1443105264269,1443105264726,375,515,0,0,0,2,3,1,23,0002-00-0006-24.png,0003-00-0000-72.png
00000014,496,1,1443105265709,1443105266280,874,489,0,0,0,5,3,2,53,0005-00-0004-59.png,0003-00-0009-49.png
00000014,497,1,1443105267330,1443105267911,345,473,0,0,0,3,5,2,35,0003-00-0000-88.png,0005-00-0000-39.png
00000014,498,1,1443105269019,1443105269507,389,438,0,0,0,1,5,4,15,0001-00-0006-41.png,0005-00-0004-91.png
00000014,499,1,1443105271065,1443105271504,902,407,0,0,0,4,2,2,42,0004-00-0008-26.png,0002-00-0002-74.png
00000014,500,1,1443105272618,1443105273171,929,401,0,0,0,5,2,3,52,0005-00-0009-09.png,0002-00-0001-05.png
00000014,501,1,1443105274406,1443105274929,370,448,0,0,0,3,4,1,34,0003-00-0000-93.png,0004-00-0009-34.png
00000014,502,0,1443105276204,1443105276782,881,415,0,0,0,2,4,2,24,0002-00-0008-51.png,0004-00-0002-77.png
00000014,503,1,1443105279911,1443105280516,356,394,0,0,0,4,5,1,45,0004-00-0003-17.png,0005-00-0006-94.png
00000014,504,0,1443105281988,1443105282448,341,455,0,0,0,2,1,1,21,0002-00-0006-62.png,0001-00-0009-86.png
00000014,505,1,1443105285445,1443105285972,875,423,0,0,0,3,1,2,31,0003-00-0007-57.png,0001-00-0002-85.png
00000014,506,1,1443105286917,1443105287448,376,436,0,0,0,1,5,4,15,0001-00-0004-69.png,0005-00-0009-16.png
00000014,507,1,1443105288459,1443105289005,878,427,0,0,0,5,4,1,54,0005-00-0005-95.png,0004-00-0006-59.png
00000014,508,0,1443105290076,1443105290699,401,533,0,0,0,3,2,1,32,0003-00-0004-83.png,0002-00-0007-52.png
00000014,509,0,1443105293963,1443105294395,860,398,0,0,0,2,3,1,23,0002-00-0002-73.png,0003-00-0002-58.png
00000014,510,1,1443105297332,1443105297827,267,386,0,0,0,3,5,2,35,0003-00-0006-55.png,0005-00-0006-19.png
00000014,511,0,1443105298883,1443105299415,367,453,0,0,0,4,3,1,43,0004-00-0005-70.png,0003-00-0003-61.png
00000014,512,1,1443105302481,1443105302982,283,460,0,0,0,1,3,2,13,0001-00-0000-56.png,0003-00-0002-12.png
00000014,513,1,1443105303980,1443105305052,902,470,0,0,0,5,1,4,51,0005-00-0001-47.png,0001-00-0003-58.png
00000014,514,0,1443105306068,1443105306664,874,462,0,0,0,1,2,1,12,0001-00-0009-60.png,0002-00-0004-22.png
00000014,515,1,1443105309826,1443105310260,874,384,0,0,0,4,1,3,41,0004-00-0000-26.png,0001-00-0003-78.png
00000014,516,1,1443105311295,1443105311832,874,385,0,0,0,5,3,2,53,0005-00-0003-14.png,0003-00-0007-51.png
00000014,517,1,1443105312887,1443105313430,350,436,0,0,0,1,4,3,14,0001-00-0002-97.png,0004-00-0001-19.png
00000014,518,0,1443105314465,1443105315457,465,411,0,0,0,5,2,3,52,0005-00-0004-15.png,0002-00-0009-35.png
00000014,519,1,1443105318402,1443105318903,312,420,0,0,0,2,5,3,25,0002-00-0005-16.png,0005-00-0000-54.png
00000014,520,1,1443105319882,1443105320989,878,381,0,0,0,4,2,2,42,0004-00-0003-16.png,0002-00-0008-23.png
00000014,521,0,1443105322060,1443105322682,439,501,0,0,0,2,1,1,21,0002-00-0003-29.png,0001-00-0007-60.png
00000014,522,0,1443105325666,1443105325682,417,410,0,0,0,5,4,1,54,0005-00-0005-87.png,0004-00-0008-02.png
00000014,523,0,1443105328559,1443105328680,502,512,0,0,0,4,1,3,41,0004-00-0001-71.png,0001-00-0000-75.png
00000014,524,1,1443105331556,1443105331905,955,479,0,0,0,3,1,2,31,0003-00-0007-97.png,0001-00-0002-82.png
00000014,525,1,1443105332882,1443105333471,331,437,0,0,0,3,5,2,35,0003-00-0002-15.png,0005-00-0005-48.png
00000014,526,1,1443105334425,1443105334894,354,454,0,0,0,1,2,1,12,0001-00-0009-70.png,0002-00-0004-42.png
00000014,527,1,1443105335945,1443105336553,212,514,0,0,0,2,5,3,25,0002-00-0003-10.png,0005-00-0002-50.png
00000014,528,0,1443105337630,1443105338209,384,427,0,0,0,5,1,4,51,0005-00-0008-63.png,0001-00-0007-55.png
00000014,529,0,1443105341150,1443105341174,428,416,0,0,0,4,2,2,42,0004-00-0002-00.png,0002-00-0000-97.png
00000014,530,1,1443105344082,1443105344688,915,513,0,0,0,4,3,1,43,0004-00-0000-94.png,0003-00-0006-79.png
00000014,531,1,1443105345664,1443105346216,416,410,0,0,0,2,4,2,24,0002-00-0000-58.png,0004-00-0002-06.png
00000014,532,1,1443105347186,1443105347739,900,365,0,0,0,5,3,2,53,0005-00-0000-45.png,0003-00-0000-59.png
00000014,533,1,1443105348734,1443105349268,356,463,0,0,0,4,5,1,45,0004-00-0004-17.png,0005-00-0000-89.png
00000014,534,1,1443105350256,1443105350846,903,410,0,0,0,5,2,3,52,0005-00-0009-83.png,0002-00-0005-58.png
00000014,535,0,1443105351931,1443105352522,857,488,0,0,0,2,3,1,23,0002-00-0009-48.png,0003-00-0000-01.png
00000014,536,1,1443105355621,1443105356599,447,506,0,0,0,1,3,2,13,0001-00-0001-22.png,0003-00-0003-07.png
00000014,537,1,1443105357553,1443105358074,337,453,0,0,0,1,4,3,14,0001-00-0004-82.png,0004-00-0008-74.png
00000014,538,0,1443105359059,1443105359651,875,423,0,0,0,3,4,1,34,0003-00-0005-99.png,0004-00-0001-10.png
00000014,539,1,1443105362500,1443105363018,350,475,0,0,0,1,5,4,15,0001-00-0004-86.png,0005-00-0000-11.png
00000014,540,0,1443105363966,1443105364490,332,451,0,0,0,3,2,1,32,0003-00-0004-69.png,0002-00-0009-58.png
00000014,541,0,1443105367480,1443105367978,406,548,0,0,0,2,1,1,21,0002-00-0006-29.png,0001-00-0001-22.png
00000014,542,1,1443105371304,1443105371785,877,411,0,0,0,5,4,1,54,0005-00-0009-52.png,0004-00-0008-27.png
00000014,543,1,1443105372763,1443105373359,906,416,0,0,0,5,2,3,52,0005-00-0003-04.png,0002-00-0005-68.png
00000014,544,1,1443105374842,1443105375305,427,436,0,0,0,2,3,1,23,0002-00-0004-24.png,0003-00-0000-44.png
00000014,545,1,1443105376292,1443105376932,420,555,0,0,0,1,2,1,12,0001-00-0003-91.png,0002-00-0003-94.png
00000014,546,1,1443105378331,1443105378355,501,454,0,0,0,2,4,2,24,0002-00-0008-23.png,0004-00-0008-44.png
00000014,547,0,1443105379466,1443105380094,427,470,0,0,0,4,1,3,41,0004-00-0009-45.png,0001-00-0009-19.png
00000014,548,1,1443105382937,1443105382969,510,436,0,0,0,1,3,2,13,0001-00-0003-29.png,0003-00-0007-58.png
00000014,549,0,1443105383986,1443105384589,860,451,0,0,0,1,4,3,14,0001-00-0005-29.png,0004-00-0000-61.png
00000014,550,1,1443105387431,1443105387455,441,397,0,0,0,3,4,1,34,0003-00-0003-90.png,0004-00-0009-87.png
00000014,551,0,1443105388509,1443105389573,337,410,0,0,0,4,3,1,43,0004-00-0000-28.png,0003-00-0005-58.png
00000014,552,1,1443105392606,1443105393183,900,515,0,0,0,5,3,2,53,0005-00-0002-94.png,0003-00-0008-42.png
00000014,553,0,1443105394243,1443105395007,427,410,0,0,0,5,1,4,51,0005-00-0009-81.png,0001-00-0002-47.png
00000014,554,1,1443105397869,1443105397937,494,462,0,0,0,1,5,4,15,0001-00-0005-06.png,0005-00-0000-50.png
00000014,555,0,1443105398953,1443105399988,331,439,0,0,0,4,2,2,42,0004-00-0008-67.png,0002-00-0000-13.png
00000014,556,0,1443105403139,1443105404039,425,509,0,0,0,3,2,1,32,0003-00-0007-65.png,0002-00-0009-72.png
00000014,557,1,1443105407092,1443105407108,500,387,0,0,0,4,5,1,45,0004-00-0007-09.png,0005-00-0009-30.png
00000014,558,1,1443105408108,1443105408653,401,410,0,0,0,3,5,2,35,0003-00-0007-15.png,0005-00-0007-30.png
00000014,559,1,1443105409648,1443105410234,876,494,0,0,0,3,1,2,31,0003-00-0009-06.png,0001-00-0004-22.png
00000014,560,1,1443105411238,1443105411752,401,410,0,0,0,2,5,3,25,0002-00-0008-41.png,0005-00-0004-48.png
00000014,561,1,1443105412788,1443105413826,452,424,0,0,0,2,5,3,25,0002-00-0009-46.png,0005-00-0007-64.png
00000014,562,0,1443105415252,1443105415923,313,423,0,0,0,5,4,1,54,0005-00-0000-29.png,0004-00-0009-34.png
00000014,563,1,1443105418819,1443105419292,901,410,0,0,0,5,1,4,51,0005-00-0007-18.png,0001-00-0002-26.png
00000014,564,1,1443105420353,1443105420911,900,397,0,0,0,3,1,2,31,0003-00-0004-94.png,0001-00-0006-67.png
00000014,565,1,1443105421922,1443105422456,879,402,0,0,0,4,3,1,43,0004-00-0007-18.png,0003-00-0003-21.png
00000014,566,0,1443105423424,1443105423994,901,410,0,0,0,1,2,1,12,0001-00-0004-46.png,0002-00-0005-67.png
00000014,567,0,1443105426940,1443105426944,473,431,0,0,0,2,1,1,21,0002-00-0000-50.png,0001-00-0006-58.png
00000014,568,1,1443105430041,1443105430547,861,408,0,0,0,5,3,2,53,0005-00-0000-30.png,0003-00-0004-58.png
00000014,569,1,1443105431480,1443105432040,872,484,0,0,0,5,2,3,52,0005-00-0008-73.png,0002-00-0000-97.png
00000014,570,1,1443105432991,1443105433586,411,548,0,0,0,2,3,1,23,0002-00-0003-96.png,0003-00-0007-99.png
00000014,571,1,1443105434633,1443105435201,410,456,0,0,0,2,4,2,24,0002-00-0000-48.png,0004-00-0009-88.png
00000014,572,1,1443105436181,1443105437297,454,517,0,0,0,1,5,4,15,0001-00-0007-31.png,0005-00-0000-66.png
00000014,573,1,1443105438343,1443105439376,338,413,0,0,0,4,5,1,45,0004-00-0003-25.png,0005-00-0004-15.png
00000014,574,1,1443105440366,1443105440942,875,410,0,0,0,4,2,2,42,0004-00-0008-63.png,0002-00-0004-51.png
00000014,575,0,1443105441925,1443105442443,427,410,0,0,0,3,2,1,32,0003-00-0000-23.png,0002-00-0008-01.png
00000014,576,1,1443105445371,1443105445897,341,366,0,0,0,1,4,3,14,0001-00-0008-14.png,0004-00-0005-94.png
00000014,577,1,1443105447346,1443105447922,389,429,0,0,0,3,4,1,34,0003-00-0005-64.png,0004-00-0003-62.png
00000014,578,0,1443105448840,1443105449365,368,450,0,0,0,4,1,3,41,0004-00-0005-88.png,0001-00-0007-65.png
00000014,579,1,1443105452228,1443105452806,312,462,0,0,0,3,5,2,35,0003-00-0005-86.png,0005-00-0005-94.png
00000014,580,1,1443105453865,1443105454442,332,455,0,0,0,1,3,2,13,0001-00-0000-82.png,0003-00-0006-09.png
00000014,581,0,1443105455491,1443105456120,875,528,0,0,0,1,2,1,12,0001-00-0000-41.png,0002-00-0001-14.png
00000014,582,1,1443105459182,1443105460133,890,488,0,0,0,4,2,2,42,0004-00-0002-91.png,0002-00-0008-47.png
00000014,583,1,1443105461203,1443105461730,870,497,0,0,0,5,1,4,51,0005-00-0000-50.png,0001-00-0004-20.png
00000014,584,1,1443105462799,1443105463362,392,444,0,0,0,3,5,2,35,0003-00-0003-22.png,0005-00-0006-86.png
00000014,585,1,1443105464393,1443105464958,370,447,0,0,0,2,5,3,25,0002-00-0006-70.png,0005-00-0005-15.png
00000014,586,1,1443105465937,1443105466556,416,440,0,0,0,1,5,4,15,0001-00-0004-32.png,0005-00-0007-47.png
00000014,587,1,1443105468021,1443105468700,869,423,0,0,0,2,1,1,21,0002-00-0009-85.png,0001-00-0001-98.png
00000014,588,1,1443105469751,1443105470762,366,416,0,0,0,3,4,1,34,0003-00-0001-44.png,0004-00-0003-29.png
00000014,589,1,1443105472216,1443105472623,397,405,0,0,0,1,3,2,13,0001-00-0005-13.png,0003-00-0004-56.png
00000014,590,1,1443105474082,1443105474565,876,495,0,0,0,3,1,2,31,0003-00-0003-44.png,0001-00-0005-75.png
00000014,591,1,1443105475605,1443105476198,377,449,0,0,0,1,4,3,14,0001-00-0000-89.png,0004-00-0006-79.png
00000014,592,0,1443105477244,1443105477828,397,432,0,0,0,4,1,3,41,0004-00-0003-51.png,0001-00-0005-80.png
00000014,593,1,1443105480677,1443105481199,888,396,0,0,0,5,2,3,52,0005-00-0001-56.png,0002-00-0001-88.png
00000014,594,1,1443105482625,1443105484050,401,384,0,0,0,2,3,1,23,0002-00-0002-69.png,0003-00-0001-42.png
00000014,595,1,1443105485440,1443105486502,427,424,0,0,0,2,4,2,24,0002-00-0002-73.png,0004-00-0005-14.png
00000014,596,1,1443105487439,1443105487994,345,473,0,0,0,4,5,1,45,0004-00-0004-07.png,0005-00-0002-51.png
00000014,597,0,1443105489003,1443105490085,443,428,0,0,0,5,3,2,53,0005-00-0003-63.png,0003-00-0009-88.png
00000014,598,0,1443105493980,1443105494544,332,496,0,0,0,5,4,1,54,0005-00-0006-23.png,0004-00-0002-82.png
00000014,599,0,1443105498811,1443105499281,326,483,0,0,0,4,3,1,43,0004-00-0004-32.png,0003-00-0003-61.png
00000014,600,0,1443105502695,1443105503130,312,475,0,0,0,3,2,1,32,0003-00-0000-93.png,0002-00-0007-31.png
00000014,601,0,1443105506164,1443105506168,504,410,0,0,0,5,3,2,53,0005-00-0007-39.png,0003-00-0005-03.png
00000014,602,1,1443105509203,1443105509646,352,411,0,0,0,4,5,1,45,0004-00-0002-25.png,0005-00-0008-88.png
00000014,603,1,1443105510587,1443105511164,862,434,0,0,0,3,1,2,31,0003-00-0002-14.png,0001-00-0006-53.png
00000014,604,0,1443105512126,1443105512684,369,446,0,0,0,4,2,2,42,0004-00-0005-54.png,0002-00-0007-16.png
00000014,605,1,1443105517076,1443105517580,908,396,0,0,0,5,2,3,52,0005-00-0000-51.png,0002-00-0005-31.png
00000014,606,1,1443105518541,1443105519197,899,387,0,0,0,5,1,4,51,0005-00-0006-60.png,0001-00-0006-22.png
00000014,607,1,1443105520124,1443105520654,401,436,0,0,0,1,2,1,12,0001-00-0004-88.png,0002-00-0003-73.png
00000014,608,1,1443105522013,1443105522503,350,448,0,0,0,2,5,3,25,0002-00-0008-59.png,0005-00-0008-32.png
00000014,609,1,1443105523454,1443105524177,874,410,0,0,0,3,2,1,32,0003-00-0008-02.png,0002-00-0000-87.png
00000014,610,0,1443105525168,1443105525766,410,495,0,0,0,2,1,1,21,0002-00-0001-60.png,0001-00-0006-47.png
00000014,611,0,1443105528862,1443105529416,906,391,0,0,0,3,5,2,35,0003-00-0001-70.png,0005-00-0004-07.png
00000014,612,0,1443105533256,1443105533740,903,443,0,0,0,2,3,1,23,0002-00-0008-26.png,0003-00-0000-22.png
00000014,613,1,1443105536772,1443105537196,414,543,0,0,0,2,4,2,24,0002-00-0004-97.png,0004-00-0006-99.png
00000014,614,1,1443105538166,1443105538626,353,458,0,0,0,1,4,3,14,0001-00-0003-66.png,0004-00-0008-31.png
00000014,615,1,1443105539668,1443105540296,886,459,0,0,0,5,4,1,54,0005-00-0007-76.png,0004-00-0004-05.png
00000014,616,0,1443105541266,1443105541859,877,414,0,0,0,1,3,2,13,0001-00-0004-44.png,0003-00-0009-83.png
00000014,617,0,1443105545061,1443105545500,901,383,0,0,0,3,4,1,34,0003-00-0001-98.png,0004-00-0001-83.png
00000014,618,1,1443105548356,1443105548457,489,511,0,0,0,1,5,4,15,0001-00-0003-34.png,0005-00-0003-56.png
00000014,619,0,1443105549478,1443105550007,367,414,0,0,0,4,3,1,43,0004-00-0003-63.png,0003-00-0000-89.png
00000014,620,1,1443105552863,1443105553260,862,351,0,0,0,4,1,3,41,0004-00-0006-28.png,0001-00-0001-77.png
00000014,621,1,1443105554198,1443105554688,401,476,0,0,0,1,4,3,14,0001-00-0003-09.png,0004-00-0005-65.png
00000014,622,1,1443105555757,1443105556727,905,407,0,0,0,5,1,4,51,0005-00-0009-36.png,0001-00-0009-46.png
00000014,623,0,1443105557716,1443105558218,427,477,0,0,0,4,3,1,43,0004-00-0002-07.png,0003-00-0008-24.png
00000014,624,1,1443105562358,1443105562871,305,465,0,0,0,2,4,2,24,0002-00-0000-99.png,0004-00-0006-38.png
00000014,625,1,1443105563816,1443105564349,344,463,0,0,0,2,5,3,25,0002-00-0000-04.png,0005-00-0004-53.png
00000014,626,1,1443105565752,1443105566302,878,428,0,0,0,3,1,2,31,0003-00-0007-64.png,0001-00-0004-70.png
00000014,627,1,1443105567305,1443105568236,409,418,0,0,0,1,5,4,15,0001-00-0005-06.png,0005-00-0004-97.png
00000014,628,1,1443105569208,1443105569812,878,407,0,0,0,5,4,1,54,0005-00-0009-61.png,0004-00-0006-41.png
00000014,629,0,1443105570752,1443105571250,427,410,0,0,0,2,1,1,21,0002-00-0000-21.png,0001-00-0003-70.png
00000014,630,0,1443105574630,1443105575151,871,445,0,0,0,4,5,1,45,0004-00-0000-50.png,0005-00-0000-10.png
00000014,631,0,1443105578024,1443105578372,368,424,0,0,0,4,2,2,42,0004-00-0003-78.png,0002-00-0005-16.png
00000014,632,0,1443105581425,1443105581445,498,426,0,0,0,5,3,2,53,0005-00-0001-99.png,0003-00-0007-23.png
00000014,633,1,1443105584374,1443105584841,878,413,0,0,0,5,2,3,52,0005-00-0005-88.png,0002-00-0002-74.png
00000014,634,1,1443105585871,1443105586443,338,476,0,0,0,3,5,2,35,0003-00-0006-08.png,0005-00-0000-48.png
00000014,635,0,1443105587429,1443105588021,876,493,0,0,0,1,2,1,12,0001-00-0008-85.png,0002-00-0001-18.png
00000014,636,0,1443105591074,1443105591501,362,446,0,0,0,4,1,3,41,0004-00-0004-06.png,0001-00-0000-68.png
00000014,637,1,1443105594425,1443105594505,453,448,0,0,0,1,3,2,13,0001-00-0008-20.png,0003-00-0000-16.png
00000014,638,0,1443105595493,1443105596034,865,510,0,0,0,2,3,1,23,0002-00-0001-38.png,0003-00-0009-49.png
00000014,639,1,1443105599581,1443105600502,401,358,0,0,0,3,4,1,34,0003-00-0000-28.png,0004-00-0001-05.png
00000014,640,1,1443105601548,1443105602474,883,486,0,0,0,3,2,1,32,0003-00-0001-20.png,0002-00-0001-49.png
00000014,641,1,1443105603561,1443105604074,344,471,0,0,0,1,4,3,14,0001-00-0000-37.png,0004-00-0006-64.png
00000014,642,1,1443105605032,1443105606038,441,491,0,0,0,3,5,2,35,0003-00-0005-41.png,0005-00-0007-78.png
00000014,643,1,1443105607057,1443105607527,345,446,0,0,0,1,5,4,15,0001-00-0002-95.png,0005-00-0003-40.png
00000014,644,1,1443105608600,1443105609119,426,437,0,0,0,1,3,2,13,0001-00-0008-77.png,0003-00-0003-46.png
00000014,645,1,1443105610204,1443105610735,350,450,0,0,0,2,3,1,23,0002-00-0006-52.png,0003-00-0009-17.png
00000014,646,0,1443105611768,1443105613213,438,527,0,0,0,4,2,2,42,0004-00-0001-38.png,0002-00-0002-71.png
00000014,647,0,1443105616158,1443105616206,504,436,0,0,0,5,3,2,53,0005-00-0003-36.png,0003-00-0001-77.png
00000014,648,1,1443105619712,1443105620150,873,490,0,0,0,2,1,1,21,0002-00-0001-79.png,0001-00-0006-38.png
00000014,649,1,1443105621168,1443105621715,862,476,0,0,0,4,1,3,41,0004-00-0004-77.png,0001-00-0008-00.png
00000014,650,0,1443105622689,1443105623235,371,446,0,0,0,4,3,1,43,0004-00-0005-68.png,0003-00-0002-80.png
00000014,651,0,1443105626276,1443105626300,510,420,0,0,0,3,1,2,31,0003-00-0004-46.png,0001-00-0007-73.png
00000014,652,1,1443105629229,1443105629797,923,482,0,0,0,5,4,1,54,0005-00-0002-15.png,0004-00-0009-75.png
00000014,653,1,1443105630829,1443105631682,362,450,0,0,0,4,5,1,45,0004-00-0008-84.png,0005-00-0006-04.png
00000014,654,0,1443105632656,1443105633282,427,449,0,0,0,3,2,1,32,0003-00-0008-77.png,0002-00-0009-60.png
00000014,655,1,1443105636132,1443105636154,517,459,0,0,0,1,2,1,12,0001-00-0006-53.png,0002-00-0003-62.png
00000014,656,1,1443105637164,1443105637702,882,446,0,0,0,5,2,3,52,0005-00-0005-15.png,0002-00-0003-51.png
00000014,657,0,1443105638720,1443105639715,898,485,0,0,0,3,4,1,34,0003-00-0003-44.png,0004-00-0000-23.png
00000014,658,1,1443105643141,1443105643723,327,447,0,0,0,2,5,3,25,0002-00-0005-88.png,0005-00-0000-55.png
00000014,659,0,1443105645277,1443105645795,315,478,0,0,0,5,1,4,51,0005-00-0005-09.png,0001-00-0006-34.png
00000014,660,1,1443105648886,1443105650025,300,445,0,0,0,2,4,2,24,0002-00-0002-98.png,0004-00-0004-20.png
00000014,661,1,1443105650961,1443105651441,338,438,0,0,0,1,5,4,15,0001-00-0006-78.png,0005-00-0007-72.png
00000014,662,0,1443105652493,1443105653036,376,436,0,0,0,2,1,1,21,0002-00-0003-90.png,0001-00-0003-06.png
00000014,663,1,1443105656468,1443105656934,861,424,0,0,0,4,2,2,42,0004-00-0009-10.png,0002-00-0009-27.png
00000014,664,1,1443105657977,1443105657997,478,436,0,0,0,2,4,2,24,0002-00-0005-85.png,0004-00-0003-13.png
00000014,665,1,1443105659190,1443105659679,886,398,0,0,0,5,3,2,53,0005-00-0006-10.png,0003-00-0003-02.png
00000014,666,1,1443105660687,1443105661217,880,393,0,0,0,5,2,3,52,0005-00-0008-33.png,0002-00-0002-34.png
00000014,667,0,1443105662271,1443105662782,370,451,0,0,0,3,1,2,31,0003-00-0001-37.png,0001-00-0001-72.png
00000014,668,0,1443105666440,1443105666893,343,473,0,0,0,4,3,1,43,0004-00-0002-82.png,0003-00-0006-60.png
00000014,669,1,1443105669884,1443105669900,519,410,0,0,0,1,3,2,13,0001-00-0000-85.png,0003-00-0008-72.png
00000014,670,1,1443105670888,1443105671408,880,418,0,0,0,4,1,3,41,0004-00-0002-25.png,0001-00-0000-49.png
00000014,671,1,1443105672396,1443105673407,358,419,0,0,0,2,5,3,25,0002-00-0007-41.png,0005-00-0008-47.png
00000014,672,1,1443105674336,1443105675312,382,447,0,0,0,3,4,1,34,0003-00-0003-03.png,0004-00-0004-78.png
00000014,673,1,1443105676335,1443105676875,867,522,0,0,0,3,2,1,32,0003-00-0007-41.png,0002-00-0001-94.png
00000014,674,0,1443105677915,1443105678927,453,501,0,0,0,5,4,1,54,0005-00-0003-85.png,0004-00-0003-60.png
00000014,675,1,1443105682605,1443105683071,380,560,0,0,0,1,2,1,12,0001-00-0002-33.png,0002-00-0007-33.png
00000014,676,1,1443105684026,1443105684661,376,436,0,0,0,1,4,3,14,0001-00-0004-73.png,0004-00-0005-97.png
00000014,677,1,1443105685616,1443105686584,438,398,0,0,0,4,5,1,45,0004-00-0002-18.png,0005-00-0004-97.png
00000014,678,1,1443105687554,1443105688476,396,444,0,0,0,2,3,1,23,0002-00-0001-84.png,0003-00-0003-36.png
00000014,679,1,1443105689422,1443105689975,401,410,0,0,0,3,5,2,35,0003-00-0006-21.png,0005-00-0002-16.png
00000014,680,0,1443105691123,1443105691715,430,545,0,0,0,5,1,4,51,0005-00-0003-23.png,0001-00-0008-84.png
00000014,681,0,1443105696020,1443105696448,350,423,0,0,0,5,3,2,53,0005-00-0006-15.png,0003-00-0001-89.png
00000014,682,1,1443105699530,1443105700016,880,404,0,0,0,5,2,3,52,0005-00-0007-78.png,0002-00-0001-79.png
00000014,683,0,1443105701061,1443105701651,875,485,0,0,0,1,3,2,13,0001-00-0003-46.png,0003-00-0009-82.png
00000014,684,0,1443105704496,1443105704903,874,489,0,0,0,4,5,1,45,0004-00-0000-53.png,0005-00-0003-30.png
00000014,685,0,1443105710233,1443105710706,350,502,0,0,0,4,3,1,43,0004-00-0000-06.png,0003-00-0002-77.png
00000014,686,1,1443105713559,1443105713978,344,420,0,0,0,3,5,2,35,0003-00-0009-19.png,0005-00-0004-88.png
00000014,687,0,1443105714893,1443105715429,413,542,0,0,0,5,4,1,54,0005-00-0003-30.png,0004-00-0001-62.png
00000014,688,0,1443105718432,1443105718948,910,449,0,0,0,3,4,1,34,0003-00-0003-37.png,0004-00-0008-09.png
00000014,689,0,1443105722202,1443105722214,513,437,0,0,0,3,2,1,32,0003-00-0008-39.png,0002-00-0004-86.png
00000014,690,1,1443105725221,1443105725659,376,410,0,0,0,1,4,3,14,0001-00-0001-91.png,0004-00-0002-97.png
00000014,691,0,1443105726649,1443105727155,335,428,0,0,0,2,1,1,21,0002-00-0001-77.png,0001-00-0001-80.png
00000014,692,0,1443105730318,1443105730804,289,388,0,0,0,4,2,2,42,0004-00-0005-66.png,0002-00-0005-61.png
00000014,693,1,1443105733854,1443105734322,362,424,0,0,0,1,2,1,12,0001-00-0007-33.png,0002-00-0000-95.png
00000014,694,0,1443105735319,1443105735823,396,540,0,0,0,4,1,3,41,0004-00-0004-13.png,0001-00-0001-78.png
00000014,695,1,1443105738842,1443105738858,489,463,0,0,0,2,4,2,24,0002-00-0004-07.png,0004-00-0008-42.png
00000014,696,1,1443105739810,1443105740567,341,458,0,0,0,2,5,3,25,0002-00-0000-33.png,0005-00-0004-83.png
00000014,697,1,1443105741488,1443105742007,401,410,0,0,0,2,3,1,23,0002-00-0001-98.png,0003-00-0007-67.png
00000014,698,1,1443105742969,1443105743457,405,544,0,0,0,1,5,4,15,0001-00-0000-09.png,0005-00-0009-40.png
00000014,699,1,1443105744400,1443105744953,883,391,0,0,0,3,1,2,31,0003-00-0004-73.png,0001-00-0002-63.png
00000014,700,1,1443105745919,1443105746503,875,416,0,0,0,5,1,4,51,0005-00-0004-03.png,0001-00-0007-25.png
00000014,701,0,1443105747441,1443105748440,401,396,0,0,0,5,2,3,52,0005-00-0004-10.png,0002-00-0005-99.png
00000014,702,1,1443105751375,1443105751893,903,428,0,0,0,5,3,2,53,0005-00-0000-12.png,0003-00-0007-01.png
00000014,703,1,1443105752775,1443105753359,375,457,0,0,0,2,4,2,24,0002-00-0007-93.png,0004-00-0000-85.png
00000014,704,0,1443105754317,1443105755050,464,554,0,0,0,5,4,1,54,0005-00-0007-85.png,0004-00-0006-64.png
00000014,705,1,1443105758051,1443105758485,317,422,0,0,0,3,4,1,34,0003-00-0006-96.png,0004-00-0001-65.png
00000014,706,1,1443105759474,1443105759944,435,454,0,0,0,3,5,2,35,0003-00-0004-86.png,0005-00-0009-52.png
00000014,707,1,1443105760883,1443105761410,861,533,0,0,0,3,1,2,31,0003-00-0004-37.png,0001-00-0008-06.png
00000014,708,0,1443105762834,1443105763697,348,421,0,0,0,3,2,1,32,0003-00-0002-50.png,0002-00-0007-05.png
00000014,709,0,1443105766732,1443105767266,889,398,0,0,0,2,5,3,25,0002-00-0008-85.png,0005-00-0007-14.png
00000014,710,0,1443105770287,1443105770307,500,385,0,0,0,4,1,3,41,0004-00-0009-86.png,0001-00-0005-22.png
00000014,711,0,1443105773338,1443105773754,352,431,0,0,0,2,1,1,21,0002-00-0006-86.png,0001-00-0007-09.png
00000014,712,1,1443105776894,1443105777291,376,410,0,0,0,1,3,2,13,0001-00-0000-86.png,0003-00-0004-43.png
00000014,713,1,1443105778247,1443105779096,427,410,0,0,0,4,5,1,45,0004-00-0002-41.png,0005-00-0005-16.png
00000014,714,0,1443105780088,1443105780108,480,448,0,0,0,4,3,1,43,0004-00-0005-89.png,0003-00-0002-10.png
00000014,715,1,1443105783562,1443105784066,391,435,0,0,0,1,5,4,15,0001-00-0004-50.png,0005-00-0003-80.png
00000014,716,1,1443105785395,1443105785916,864,501,0,0,0,5,1,4,51,0005-00-0003-44.png,0001-00-0000-11.png
00000014,717,1,1443105787072,1443105787590,362,453,0,0,0,2,3,1,23,0002-00-0002-15.png,0003-00-0001-21.png
00000014,718,0,1443105788556,1443105789184,867,458,0,0,0,1,4,3,14,0001-00-0000-63.png,0004-00-0008-63.png
00000014,719,0,1443105792342,1443105792794,867,483,0,0,0,1,2,1,12,0001-00-0003-59.png,0002-00-0007-81.png
00000014,720,1,1443105796605,1443105797096,875,450,0,0,0,4,2,2,42,0004-00-0002-08.png,0002-00-0005-16.png
00000014,721,1,1443105798365,1443105799241,415,450,0,0,0,4,5,1,45,0004-00-0002-64.png,0005-00-0006-59.png
00000014,722,0,1443105800203,1443105801150,407,438,0,0,0,4,1,3,41,0004-00-0007-50.png,0001-00-0001-74.png
00000014,723,1,1443105804017,1443105804085,453,462,0,0,0,1,4,3,14,0001-00-0006-71.png,0004-00-0000-89.png
00000014,724,1,1443105805253,1443105805772,399,467,0,0,0,2,4,2,24,0002-00-0001-16.png,0004-00-0009-60.png
00000014,725,0,1443105806762,1443105807859,401,423,0,0,0,3,2,1,32,0003-00-0005-31.png,0002-00-0001-41.png
00000014,726,1,1443105811184,1443105811597,364,440,0,0,0,3,5,2,35,0003-00-0003-77.png,0005-00-0002-45.png
00000014,727,0,1443105812954,1443105813433,411,449,0,0,0,5,1,4,51,0005-00-0003-12.png,0001-00-0003-67.png
00000014,728,0,1443105816680,1443105817142,870,486,0,0,0,3,4,1,34,0003-00-0004-14.png,0004-00-0006-82.png
00000014,729,1,1443105820078,1443105820593,912,477,0,0,0,4,3,1,43,0004-00-0002-41.png,0003-00-0006-96.png
00000014,730,1,1443105821889,1443105823485,894,368,0,0,0,5,3,2,53,0005-00-0005-74.png,0003-00-0009-13.png
00000014,731,0,1443105824577,1443105825427,339,450,0,0,0,5,2,3,52,0005-00-0009-48.png,0002-00-0007-70.png
00000014,732,0,1443105833474,1443105833929,884,453,0,0,0,1,5,4,15,0001-00-0004-68.png,0005-00-0007-41.png
00000014,733,1,1443105837221,1443105837686,340,476,0,0,0,1,2,1,12,0001-00-0005-63.png,0002-00-0004-87.png
00000014,734,1,1443105838875,1443105839406,350,423,0,0,0,2,3,1,23,0002-00-0000-59.png,0003-00-0003-99.png
00000014,735,1,1443105840463,1443105840922,273,436,0,0,0,2,5,3,25,0002-00-0003-77.png,0005-00-0000-22.png
00000014,736,0,1443105841954,1443105842970,378,449,0,0,0,4,2,2,42,0004-00-0008-61.png,0002-00-0007-53.png
00000014,737,0,1443105846546,1443105846983,388,449,0,0,0,5,4,1,54,0005-00-0007-99.png,0004-00-0002-62.png
00000014,738,0,1443105850061,1443105850562,266,533,0,0,0,3,1,2,31,0003-00-0000-25.png,0001-00-0009-60.png
00000014,739,1,1443105853611,1443105854105,893,429,0,0,0,2,1,1,21,0002-00-0000-89.png,0001-00-0007-25.png
00000014,740,0,1443105855295,1443105855830,891,429,0,0,0,1,3,2,13,0001-00-0007-22.png,0003-00-0004-33.png
00000014,741,0,1443105858791,1443105858858,514,433,0,0,0,5,1,4,51,0005-00-0006-10.png,0001-00-0002-90.png
00000014,742,0,1443105861910,1443105861934,453,456,0,0,0,3,2,1,32,0003-00-0003-77.png,0002-00-0008-21.png
00000014,743,0,1443105864950,1443105864978,408,447,0,0,0,4,3,1,43,0004-00-0008-30.png,0003-00-0004-90.png
00000014,744,0,1443105867984,1443105868479,338,410,0,0,0,3,1,2,31,0003-00-0005-07.png,0001-00-0000-42.png
00000014,745,0,1443105871502,1443105871934,364,441,0,0,0,4,1,3,41,0004-00-0000-79.png,0001-00-0007-89.png
00000014,746,1,1443105875091,1443105875617,889,489,0,0,0,5,3,2,53,0005-00-0008-70.png,0003-00-0008-24.png
00000014,747,1,1443105876957,1443105877444,350,439,0,0,0,4,5,1,45,0004-00-0007-38.png,0005-00-0008-79.png
00000014,748,1,1443105878718,1443105879250,420,495,0,0,0,3,4,1,34,0003-00-0008-85.png,0004-00-0009-06.png
00000014,749,0,1443105880766,1443105882243,478,439,0,0,0,5,2,3,52,0005-00-0008-42.png,0002-00-0006-99.png
00000014,750,0,1443105885824,1443105886289,393,479,0,0,0,4,2,2,42,0004-00-0003-39.png,0002-00-0009-69.png
00000014,751,0,1443105889120,1443105889625,939,410,0,0,0,3,5,2,35,0003-00-0009-07.png,0005-00-0006-05.png
00000014,752,0,1443105892581,1443105892629,363,436,0,0,0,5,4,1,54,0005-00-0001-03.png,0004-00-0009-62.png
00000014,753,0,1443105896143,1443105896626,361,397,0,0,0,2,1,1,21,0002-00-0002-80.png,0001-00-0001-79.png
00000014,754,1,1443105899628,1443105900083,335,467,0,0,0,2,3,1,23,0002-00-0009-69.png,0003-00-0003-42.png
00000014,755,1,1443105901010,1443105901490,401,450,0,0,0,1,4,3,14,0001-00-0001-51.png,0004-00-0004-74.png
00000014,756,1,1443105902343,1443105902874,390,496,0,0,0,1,2,1,12,0001-00-0002-26.png,0002-00-0007-72.png
00000014,757,1,1443105903720,1443105904252,367,478,0,0,0,2,5,3,25,0002-00-0005-30.png,0005-00-0007-67.png
00000014,758,0,1443105905108,1443105905982,865,519,0,0,0,2,4,2,24,0002-00-0002-77.png,0004-00-0000-89.png
00000014,759,0,1443105911027,1443105911567,857,525,0,0,0,1,3,2,13,0001-00-0008-13.png,0003-00-0002-57.png
00000014,760,1,1443105916055,1443105916496,404,420,0,0,0,1,5,4,15,0001-00-0004-19.png,0005-00-0008-23.png
00000014,761,0,1443105917467,1443105917952,408,471,0,0,0,4,3,1,43,0004-00-0003-10.png,0003-00-0000-15.png
00000014,762,0,1443105921205,1443105921661,888,410,0,0,0,1,2,1,12,0001-00-0001-17.png,0002-00-0007-98.png
00000014,763,1,1443105924731,1443105925196,299,424,0,0,0,3,4,1,34,0003-00-0008-24.png,0004-00-0003-45.png
00000014,764,0,1443105926224,1443105926769,859,487,0,0,0,1,5,4,15,0001-00-0008-33.png,0005-00-0000-54.png
00000014,765,1,1443105929749,1443105930236,891,429,0,0,0,5,3,2,53,0005-00-0003-58.png,0003-00-0005-57.png
00000014,766,0,1443105931342,1443105932466,401,488,0,0,0,5,1,4,51,0005-00-0006-92.png,0001-00-0004-50.png
00000014,767,1,1443105937456,1443105937918,325,436,0,0,0,2,5,3,25,0002-00-0002-06.png,0005-00-0000-49.png
00000014,768,1,1443105938944,1443105939475,898,413,0,0,0,3,1,2,31,0003-00-0002-10.png,0001-00-0004-42.png
00000014,769,0,1443105940665,1443105941134,888,451,0,0,0,1,4,3,14,0001-00-0001-80.png,0004-00-0009-58.png
00000014,770,1,1443105946586,1443105947029,337,449,0,0,0,1,3,2,13,0001-00-0005-47.png,0003-00-0000-55.png
00000014,771,1,1443105948069,1443105948622,867,510,0,0,0,5,2,3,52,0005-00-0009-64.png,0002-00-0009-83.png
00000014,772,1,1443105949767,1443105950469,338,468,0,0,0,4,5,1,45,0004-00-0009-53.png,0005-00-0004-42.png
00000014,773,1,1443105951546,1443105952078,878,427,0,0,0,2,1,1,21,0002-00-0005-42.png,0001-00-0002-80.png
00000014,774,1,1443105952996,1443105953682,867,561,0,0,0,3,2,1,32,0003-00-0004-60.png,0002-00-0001-76.png
00000014,775,1,1443105954585,1443105955104,349,456,0,0,0,2,3,1,23,0002-00-0001-26.png,0003-00-0006-04.png
00000014,776,0,1443105956090,1443105957678,401,422,0,0,0,4,2,2,42,0004-00-0007-61.png,0002-00-0003-35.png
00000014,777,1,1443105962249,1443105962775,892,508,0,0,0,5,4,1,54,0005-00-0002-27.png,0004-00-0000-66.png
00000014,778,1,1443105963741,1443105964286,357,458,0,0,0,2,4,2,24,0002-00-0006-76.png,0004-00-0004-79.png
00000014,779,0,1443105965221,1443105966745,412,410,0,0,0,4,1,3,41,0004-00-0004-97.png,0001-00-0009-08.png
00000014,780,1,1443105974054,1443105974510,308,496,0,0,0,3,5,2,35,0003-00-0002-01.png,0005-00-0009-94.png
00000014,781,1,1443105975416,1443105975884,365,470,0,0,0,4,5,1,45,0004-00-0003-58.png,0005-00-0006-43.png
00000014,782,0,1443105976797,1443105977391,876,435,0,0,0,1,2,1,12,0001-00-0002-70.png,0002-00-0003-02.png
00000014,783,0,1443105981251,1443105981725,417,546,0,0,0,2,1,1,21,0002-00-0003-29.png,0001-00-0005-83.png
00000014,784,1,1443105985268,1443105985772,902,383,0,0,0,5,1,4,51,0005-00-0000-00.png,0001-00-0001-62.png
00000014,785,0,1443105986877,1443105987567,310,424,0,0,0,4,1,3,41,0004-00-0008-55.png,0001-00-0008-35.png
00000014,786,1,1443105990684,1443105991111,387,423,0,0,0,1,5,4,15,0001-00-0009-23.png,0005-00-0000-92.png
00000014,787,1,1443105992104,1443105992538,376,450,0,0,0,1,3,2,13,0001-00-0008-06.png,0003-00-0004-65.png
00000014,788,0,1443105993467,1443105994020,393,460,0,0,0,5,3,2,53,0005-00-0000-54.png,0003-00-0002-03.png
00000014,789,0,1443105997175,1443105997563,387,449,0,0,0,4,2,2,42,0004-00-0009-23.png,0002-00-0002-77.png
00000014,790,0,1443106003146,1443106003701,334,496,0,0,0,5,2,3,52,0005-00-0008-36.png,0002-00-0004-05.png
00000014,791,1,1443106006972,1443106007427,350,397,0,0,0,3,5,2,35,0003-00-0002-76.png,0005-00-0000-84.png
00000014,792,1,1443106008433,1443106010929,366,519,0,0,0,3,4,1,34,0003-00-0005-89.png,0004-00-0007-51.png
00000014,793,1,1443106012054,1443106012482,325,474,0,0,0,2,3,1,23,0002-00-0000-41.png,0003-00-0004-22.png
00000014,794,1,1443106014575,1443106014974,332,444,0,0,0,1,4,3,14,0001-00-0005-01.png,0004-00-0003-77.png
00000014,795,0,1443106016020,1443106016969,358,471,0,0,0,5,4,1,54,0005-00-0006-59.png,0004-00-0005-56.png
00000014,796,1,1443106021075,1443106021542,368,468,0,0,0,2,5,3,25,0002-00-0003-45.png,0005-00-0009-70.png
00000014,797,1,1443106022670,1443106023233,913,423,0,0,0,4,3,1,43,0004-00-0008-15.png,0003-00-0006-53.png
00000014,798,1,1443106024622,1443106025183,870,504,0,0,0,3,2,1,32,0003-00-0006-84.png,0002-00-0000-91.png
00000014,799,1,1443106026601,1443106027668,900,499,0,0,0,3,1,2,31,0003-00-0003-67.png,0001-00-0003-17.png
00000014,800,1,1443106028681,1443106029311,375,396,0,0,0,2,4,2,24,0002-00-0005-72.png,0004-00-0008-49.png
00000014,801,0,1443106030459,1443106030971,299,392,0,0,0,4,2,2,42,0004-00-0009-67.png,0002-00-0000-97.png
00000014,802,1,1443106034106,1443106034570,887,423,0,0,0,4,1,3,41,0004-00-0005-50.png,0001-00-0005-86.png
00000014,803,0,1443106035413,1443106035980,877,445,0,0,0,1,4,3,14,0001-00-0008-61.png,0004-00-0003-50.png
00000014,804,1,1443106039210,1443106039678,415,450,0,0,0,1,2,1,12,0001-00-0000-24.png,0002-00-0000-96.png
00000014,805,1,1443106040555,1443106041168,401,452,0,0,0,4,5,1,45,0004-00-0000-40.png,0005-00-0001-14.png
00000014,806,1,1443106042482,1443106042951,386,450,0,0,0,3,4,1,34,0003-00-0006-93.png,0004-00-0009-50.png
00000014,807,1,1443106044154,1443106044646,419,469,0,0,0,1,3,2,13,0001-00-0007-76.png,0003-00-0000-48.png
00000014,808,0,1443106045612,1443106046987,350,410,0,0,0,5,3,2,53,0005-00-0000-25.png,0003-00-0004-95.png
00000014,809,1,1443106050015,1443106050521,902,410,0,0,0,3,1,2,31,0003-00-0004-98.png,0001-00-0001-84.png
00000014,810,1,1443106051648,1443106052193,892,440,0,0,0,3,2,1,32,0003-00-0003-06.png,0002-00-0004-88.png
00000014,811,1,1443106053186,1443106053730,903,414,0,0,0,5,4,1,54,0005-00-0005-68.png,0004-00-0001-28.png
00000014,812,1,1443106055161,1443106056099,901,417,0,0,0,5,2,3,52,0005-00-0005-51.png,0002-00-0009-20.png
00000014,813,1,1443106057132,1443106057654,299,424,0,0,0,2,5,3,25,0002-00-0004-81.png,0005-00-0005-70.png
00000014,814,1,1443106058531,1443106059067,388,436,0,0,0,1,5,4,15,0001-00-0005-78.png,0005-00-0003-97.png
00000014,815,0,1443106059972,1443106060496,367,462,0,0,0,4,3,1,43,0004-00-0008-27.png,0003-00-0003-00.png
00000014,816,1,1443106063345,1443106063724,362,358,0,0,0,2,4,2,24,0002-00-0006-53.png,0004-00-0005-68.png
00000014,817,1,1443106064856,1443106065366,318,452,0,0,0,3,5,2,35,0003-00-0006-76.png,0005-00-0005-91.png
00000014,818,1,1443106066614,1443106067138,344,445,0,0,0,2,3,1,23,0002-00-0005-62.png,0003-00-0008-66.png
00000014,819,1,1443106068285,1443106069390,900,424,0,0,0,5,1,4,51,0005-00-0004-81.png,0001-00-0008-95.png
00000014,820,1,1443106070431,1443106070940,886,398,0,0,0,2,1,1,21,0002-00-0003-80.png,0001-00-0006-78.png
00000014,821,1,1443106071821,1443106072375,401,462,0,0,0,1,3,2,13,0001-00-0004-78.png,0003-00-0006-06.png
00000014,822,1,1443106073339,1443106073894,354,488,0,0,0,3,5,2,35,0003-00-0007-78.png,0005-00-0007-09.png
00000014,823,1,1443106074893,1443106075416,325,475,0,0,0,2,4,2,24,0002-00-0003-85.png,0004-00-0009-73.png
00000014,824,0,1443106076632,1443106077583,413,437,0,0,0,4,2,2,42,0004-00-0002-43.png,0002-00-0002-02.png
00000014,825,1,1443106085878,1443106086461,363,542,0,0,0,1,2,1,12,0001-00-0005-58.png,0002-00-0009-23.png
00000014,826,1,1443106088291,1443106088743,902,410,0,0,0,4,3,1,43,0004-00-0002-37.png,0003-00-0004-86.png
00000014,827,0,1443106090351,1443106090792,383,445,0,0,0,5,4,1,54,0005-00-0005-70.png,0004-00-0003-51.png
00000014,828,0,1443106094933,1443106095432,350,475,0,0,0,3,2,1,32,0003-00-0003-96.png,0002-00-0003-33.png
00000014,829,1,1443106100169,1443106100700,902,408,0,0,0,5,1,4,51,0005-00-0001-41.png,0001-00-0002-78.png
00000014,830,1,1443106103330,1443106104145,439,346,0,0,0,1,5,4,15,0001-00-0007-43.png,0005-00-0004-09.png
00000014,831,0,1443106105229,1443106105691,352,466,0,0,0,2,1,1,21,0002-00-0003-90.png,0001-00-0004-01.png
00000014,832,1,1443106108872,1443106109322,381,539,0,0,0,2,5,3,25,0002-00-0008-08.png,0005-00-0002-78.png
00000014,833,1,1443106110441,1443106110968,874,542,0,0,0,5,2,3,52,0005-00-0005-10.png,0002-00-0000-32.png
00000014,834,0,1443106112226,1443106112817,875,469,0,0,0,1,4,3,14,0001-00-0002-55.png,0004-00-0000-63.png
00000014,835,1,1443106115640,1443106116095,314,371,0,0,0,2,3,1,23,0002-00-0008-35.png,0003-00-0004-67.png
00000014,836,0,1443106117156,1443106117725,299,501,0,0,0,3,1,2,31,0003-00-0001-41.png,0001-00-0009-51.png
00000014,837,0,1443106122299,1443106122836,862,450,0,0,0,3,4,1,34,0003-00-0002-30.png,0004-00-0009-69.png
00000014,838,1,1443106125888,1443106126352,388,449,0,0,0,4,5,1,45,0004-00-0007-97.png,0005-00-0006-94.png
00000014,839,0,1443106127422,1443106127916,339,440,0,0,0,5,3,2,53,0005-00-0008-26.png,0003-00-0009-45.png
00000014,840,1,1443106130999,1443106131483,863,475,0,0,0,4,1,3,41,0004-00-0004-23.png,0001-00-0009-06.png
00000014,841,0,1443106132629,1443106133695,863,414,0,0,0,1,3,2,13,0001-00-0003-08.png,0003-00-0007-50.png
00000014,842,1,1443106137030,1443106137514,912,398,0,0,0,4,1,3,41,0004-00-0000-65.png,0001-00-0004-11.png
00000014,843,1,1443106138711,1443106139213,320,478,0,0,0,4,5,1,45,0004-00-0009-37.png,0005-00-0009-82.png
00000014,844,1,1443106140263,1443106140856,875,412,0,0,0,2,1,1,21,0002-00-0007-84.png,0001-00-0001-35.png
00000014,845,0,1443106142002,1443106142590,346,531,0,0,0,5,2,3,52,0005-00-0002-66.png,0002-00-0001-19.png
00000014,846,1,1443106146425,1443106146885,882,404,0,0,0,3,1,2,31,0003-00-0005-89.png,0001-00-0000-65.png
00000014,847,1,1443106148111,1443106148595,878,439,0,0,0,3,2,1,32,0003-00-0004-23.png,0002-00-0006-75.png
00000014,848,1,1443106149644,1443106150191,864,517,0,0,0,4,2,2,42,0004-00-0000-20.png,0002-00-0006-82.png
00000014,849,1,1443106151165,1443106151683,344,497,0,0,0,1,5,4,15,0001-00-0002-81.png,0005-00-0002-04.png
00000014,850,0,1443106152596,1443106153182,390,498,0,0,0,5,1,4,51,0005-00-0006-42.png,0001-00-0008-56.png
00000014,851,0,1443106157446,1443106157982,876,519,0,0,0,3,5,2,35,0003-00-0005-97.png,0005-00-0002-38.png
00000014,852,0,1443106161054,1443106161589,870,523,0,0,0,2,4,2,24,0002-00-0009-95.png,0004-00-0002-77.png
00000014,853,1,1443106165019,1443106165528,899,431,0,0,0,5,4,1,54,0005-00-0005-37.png,0004-00-0000-31.png
00000014,854,1,1443106166490,1443106167077,293,462,0,0,0,2,5,3,25,0002-00-0005-16.png,0005-00-0003-63.png
00000014,855,1,1443106168188,1443106169239,350,476,0,0,0,2,3,1,23,0002-00-0003-07.png,0003-00-0002-91.png
00000014,856,0,1443106170387,1443106171000,389,564,0,0,0,4,3,1,43,0004-00-0008-94.png,0003-00-0006-13.png
00000014,857,1,1443106174809,1443106175255,913,410,0,0,0,5,3,2,53,0005-00-0004-48.png,0003-00-0009-37.png
00000014,858,1,1443106176609,1443106177080,341,434,0,0,0,1,2,1,12,0001-00-0007-30.png,0002-00-0009-74.png
00000014,859,1,1443106178237,1443106179822,412,497,0,0,0,1,4,3,14,0001-00-0003-61.png,0004-00-0006-11.png
00000014,860,1,1443106180993,1443106181761,337,466,0,0,0,3,4,1,34,0003-00-0005-44.png,0004-00-0001-89.png
00000014,861,1,1443106182921,1443106183526,888,410,0,0,0,2,1,1,21,0002-00-0007-86.png,0001-00-0008-94.png
00000014,862,1,1443106185137,1443106185173,478,462,0,0,0,1,3,2,13,0001-00-0009-85.png,0003-00-0003-55.png
00000014,863,1,1443106186488,1443106186990,248,476,0,0,0,4,5,1,45,0004-00-0006-00.png,0005-00-0003-59.png
00000014,864,0,1443106188040,1443106188688,379,407,0,0,0,4,2,2,42,0004-00-0009-11.png,0002-00-0002-95.png
00000014,865,1,1443106191778,1443106192298,901,436,0,0,0,5,1,4,51,0005-00-0002-53.png,0001-00-0007-44.png
00000014,866,1,1443106193329,1443106193895,401,437,0,0,0,2,4,2,24,0002-00-0002-70.png,0004-00-0002-86.png
00000014,867,1,1443106194785,1443106195359,392,494,0,0,0,1,2,1,12,0001-00-0004-55.png,0002-00-0003-28.png
00000014,868,1,1443106196308,1443106196986,868,511,0,0,0,3,1,2,31,0003-00-0000-81.png,0001-00-0000-69.png
00000014,869,1,1443106197898,1443106198440,400,470,0,0,0,1,5,4,15,0001-00-0007-35.png,0005-00-0002-42.png
00000014,870,1,1443106199560,1443106200120,335,473,0,0,0,3,4,1,34,0003-00-0001-69.png,0004-00-0009-65.png
00000014,871,1,1443106201545,1443106202031,876,417,0,0,0,5,4,1,54,0005-00-0007-04.png,0004-00-0002-07.png
00000014,872,0,1443106202938,1443106203444,410,501,0,0,0,5,3,2,53,0005-00-0008-36.png,0003-00-0007-09.png
00000014,873,1,1443106207190,1443106207598,413,449,0,0,0,2,5,3,25,0002-00-0007-04.png,0005-00-0005-16.png
00000014,874,1,1443106208590,1443106209153,342,470,0,0,0,1,4,3,14,0001-00-0003-70.png,0004-00-0003-43.png
00000014,875,0,1443106210082,1443106210699,878,455,0,0,0,2,3,1,23,0002-00-0001-81.png,0003-00-0007-93.png
00000014,876,1,1443106214028,1443106214522,876,411,0,0,0,3,2,1,32,0003-00-0007-22.png,0002-00-0005-50.png
00000014,877,1,1443106215587,1443106216134,870,420,0,0,0,5,2,3,52,0005-00-0002-72.png,0002-00-0004-23.png
00000014,878,1,1443106217148,1443106217817,888,410,0,0,0,4,3,1,43,0004-00-0002-94.png,0003-00-0002-67.png
00000014,879,0,1443106218846,1443106219656,451,464,0,0,0,4,1,3,41,0004-00-0001-70.png,0001-00-0006-16.png
00000014,880,1,1443106222822,1443106223238,413,463,0,0,0,3,5,2,35,0003-00-0006-13.png,0005-00-0006-78.png
00000014,881,0,1443106224751,1443106225254,880,427,0,0,0,1,4,3,14,0001-00-0000-54.png,0004-00-0009-76.png
00000014,882,1,1443106228190,1443106228596,913,398,0,0,0,4,2,2,42,0004-00-0005-76.png,0002-00-0002-95.png
00000014,883,1,1443106229518,1443106230069,879,416,0,0,0,5,4,1,54,0005-00-0008-77.png,0004-00-0003-86.png
00000014,884,1,1443106231071,1443106231622,861,528,0,0,0,5,2,3,52,0005-00-0004-89.png,0002-00-0008-85.png
00000014,885,1,1443106232590,1443106233072,401,462,0,0,0,1,5,4,15,0001-00-0006-02.png,0005-00-0008-97.png
00000014,886,1,1443106234055,1443106234650,898,431,0,0,0,5,1,4,51,0005-00-0000-92.png,0001-00-0004-61.png
00000014,887,0,1443106235622,1443106236596,335,476,0,0,0,2,1,1,21,0002-00-0009-59.png,0001-00-0000-73.png
00000014,888,1,1443106240325,1443106240751,338,446,0,0,0,2,5,3,25,0002-00-0007-28.png,0005-00-0000-86.png
00000014,889,1,1443106241768,1443106242209,401,474,0,0,0,1,3,2,13,0001-00-0005-49.png,0003-00-0002-09.png
00000014,890,0,1443106243349,1443106244372,326,446,0,0,0,4,1,3,41,0004-00-0006-11.png,0001-00-0001-37.png
00000014,891,0,1443106247426,1443106247921,402,431,0,0,0,5,3,2,53,0005-00-0006-14.png,0003-00-0000-80.png
00000014,892,0,1443106253148,1443106253580,323,456,0,0,0,4,3,1,43,0004-00-0007-68.png,0003-00-0001-87.png
00000014,893,1,1443106259169,1443106259592,358,444,0,0,0,2,4,2,24,0002-00-0000-96.png,0004-00-0003-07.png
00000014,894,1,1443106261017,1443106261501,381,446,0,0,0,2,3,1,23,0002-00-0003-46.png,0003-00-0002-53.png
00000014,895,0,1443106262448,1443106263030,862,535,0,0,0,3,4,1,34,0003-00-0005-63.png,0004-00-0001-48.png
00000014,896,1,1443106266225,1443106266677,417,454,0,0,0,4,5,1,45,0004-00-0009-93.png,0005-00-0005-76.png
00000014,897,0,1443106267588,1443106268230,376,500,0,0,0,3,2,1,32,0003-00-0000-83.png,0002-00-0009-45.png
00000014,898,1,1443106271193,1443106271677,366,461,0,0,0,1,2,1,12,0001-00-0006-68.png,0002-00-0002-55.png
00000014,899,1,1443106272534,1443106273091,874,449,0,0,0,3,1,2,31,0003-00-0002-00.png,0001-00-0002-28.png
00000014,900,0,1443106274236,1443106274787,879,453,0,0,0,3,5,2,35,0003-00-0009-53.png,0005-00-0001-95.png
00000014,901,1,1443106278330,1443106278861,920,536,0,0,0,4,3,1,43,0004-00-0000-47.png,0003-00-0003-49.png
00000014,902,0,1443106279860,1443106280393,880,454,0,0,0,4,5,1,45,0004-00-0008-70.png,0005-00-0000-15.png
00000014,903,0,1443106283500,1443106283968,318,479,0,0,0,5,4,1,54,0005-00-0002-48.png,0004-00-0005-20.png
00000014,904,1,1443106287675,1443106288206,890,464,0,0,0,5,3,2,53,0005-00-0002-63.png,0003-00-0006-63.png
00000014,905,0,1443106289224,1443106289774,869,510,0,0,0,2,4,2,24,0002-00-0008-88.png,0004-00-0000-25.png
00000014,906,1,1443106293172,1443106294161,401,398,0,0,0,3,4,1,34,0003-00-0009-65.png,0004-00-0001-39.png
00000014,907,0,1443106295188,1443106295760,413,540,0,0,0,4,2,2,42,0004-00-0006-61.png,0002-00-0004-11.png
00000014,908,1,1443106299322,1443106299786,914,398,0,0,0,3,2,1,32,0003-00-0008-95.png,0002-00-0006-48.png
00000014,909,1,1443106301021,1443106301511,403,469,0,0,0,1,2,1,12,0001-00-0005-84.png,0002-00-0005-27.png
00000014,910,1,1443106302617,1443106303176,376,427,0,0,0,2,5,3,25,0002-00-0003-17.png,0005-00-0003-45.png
00000014,911,0,1443106304393,1443106305306,427,436,0,0,0,2,1,1,21,0002-00-0003-53.png,0001-00-0002-61.png
00000014,912,0,1443106308783,1443106309302,400,523,0,0,0,3,1,2,31,0003-00-0008-67.png,0001-00-0005-72.png
00000014,913,1,1443106313176,1443106313658,344,442,0,0,0,1,4,3,14,0001-00-0008-80.png,0004-00-0004-89.png
00000014,914,1,1443106314829,1443106315373,362,448,0,0,0,1,3,2,13,0001-00-0004-51.png,0003-00-0004-50.png
00000014,915,1,1443106316386,1443106317008,879,505,0,0,0,4,1,3,41,0004-00-0002-36.png,0001-00-0000-29.png
00000014,916,1,1443106318345,1443106319663,446,471,0,0,0,2,3,1,23,0002-00-0000-67.png,0003-00-0005-55.png
00000014,917,0,1443106320662,1443106321234,879,427,0,0,0,1,5,4,15,0001-00-0000-23.png,0005-00-0002-32.png
00000014,918,1,1443106325718,1443106326129,878,375,0,0,0,5,2,3,52,0005-00-0009-93.png,0002-00-0000-09.png
00000014,919,1,1443106327100,1443106327594,401,461,0,0,0,3,5,2,35,0003-00-0005-11.png,0005-00-0002-24.png
00000014,920,1,1443106328549,1443106329134,869,446,0,0,0,5,1,4,51,0005-00-0005-28.png,0001-00-0008-46.png
00000014,921,0,1443106330180,1443106331210,427,450,0,0,0,4,2,2,42,0004-00-0007-52.png,0002-00-0000-73.png
00000014,922,0,1443106334273,1443106334726,362,420,0,0,0,2,1,1,21,0002-00-0000-36.png,0001-00-0008-35.png
00000014,923,1,1443106338329,1443106338803,350,447,0,0,0,1,5,4,15,0001-00-0005-51.png,0005-00-0001-47.png
00000014,924,0,1443106339870,1443106340840,384,429,0,0,0,5,2,3,52,0005-00-0008-43.png,0002-00-0007-14.png
00000014,925,1,1443106345644,1443106346077,338,462,0,0,0,4,5,1,45,0004-00-0005-65.png,0005-00-0000-38.png
00000014,926,1,1443106347225,1443106347736,897,445,0,0,0,4,1,3,41,0004-00-0008-25.png,0001-00-0009-87.png
00000014,927,0,1443106348827,1443106349704,363,476,0,0,0,3,2,1,32,0003-00-0005-82.png,0002-00-0008-51.png
00000014,928,1,1443106353933,1443106354446,412,472,0,0,0,3,4,1,34,0003-00-0000-39.png,0004-00-0003-82.png
00000014,929,1,1443106355456,1443106356117,421,456,0,0,0,1,4,3,14,0001-00-0004-27.png,0004-00-0006-46.png
00000014,930,1,1443106357829,1443106358365,874,440,0,0,0,5,3,2,53,0005-00-0007-13.png,0003-00-0004-87.png
00000014,931,1,1443106359526,1443106360072,877,465,0,0,0,3,1,2,31,0003-00-0008-44.png,0001-00-0001-51.png
00000014,932,0,1443106361279,1443106361843,372,486,0,0,0,4,3,1,43,0004-00-0004-76.png,0003-00-0009-52.png
00000014,933,1,1443106365214,1443106365684,879,428,0,0,0,5,1,4,51,0005-00-0001-56.png,0001-00-0000-24.png
00000014,934,1,1443106366673,1443106367136,342,505,0,0,0,1,3,2,13,0001-00-0004-88.png,0003-00-0007-97.png
00000014,935,1,1443106368095,1443106369073,412,412,0,0,0,1,2,1,12,0001-00-0000-01.png,0002-00-0003-14.png
00000014,936,0,1443106370523,1443106371230,415,461,0,0,0,5,4,1,54,0005-00-0007-88.png,0004-00-0005-17.png
00000014,937,1,1443106376305,1443106377456,331,426,0,0,0,2,5,3,25,0002-00-0004-60.png,0005-00-0005-16.png
00000014,938,1,1443106378574,1443106379125,332,479,0,0,0,3,5,2,35,0003-00-0000-71.png,0005-00-0001-43.png
00000014,939,1,1443106380101,1443106380594,338,475,0,0,0,2,3,1,23,0002-00-0007-89.png,0003-00-0005-75.png
00000014,940,1,1443106381579,1443106382105,403,478,0,0,0,2,4,2,24,0002-00-0000-65.png,0004-00-0004-38.png
00000014,941,0,1443106383074,1443106383698,388,436,0,0,0,2,1,1,21,0002-00-0002-35.png,0001-00-0006-76.png
00000014,942,1,1443106387316,1443106387742,401,436,0,0,0,2,3,1,23,0002-00-0005-86.png,0003-00-0006-98.png
