subject_id,trial,correct_response,stim_time,response_time,x_coord,y_coord,trial_timeout,timeout_time,interTrial_timeout,left_rank,right_rank,distance,joint_rank,left_image,right_image
00000009,1,0,1447352022341,1447352023175,346,416,0,0,0,3,2,1,5,0002-00-0000-88.png,0003-00-0001-01.png
00000009,2,1,1447352026621,1447352028185,353,405,0,0,0,1,4,3,5,0005-00-0001-04.png,0004-00-0000-22.png
00000009,3,1,1447352736706,1447352736718,866,377,0,0,0,4,1,3,5,0004-00-0000-72.png,0005-00-0001-52.png
00000009,4,1,1447352737954,1447352738475,980,468,0,0,0,1,0,1,1,0005-00-0001-54.png,0001-00-0000-42.png
00000009,5,0,1447352739721,1447352740217,940,413,0,0,0,3,4,1,7,0002-00-0000-52.png,0004-00-0001-74.png
00000009,6,1,1447352743613,1447352744122,965,430,0,0,0,4,3,1,7,0004-00-0001-88.png,0002-00-0000-58.png
00000009,7,0,1447352745351,1447352745942,938,360,0,0,0,1,2,1,3,0005-00-0000-36.png,0003-00-0000-11.png
00000009,8,1,1447352749099,1447352749631,401,436,0,0,0,0,1,1,1,0001-00-0001-57.png,0005-00-0001-04.png
00000009,9,0,1447352751007,1447352751127,888,395,0,0,0,2,4,2,6,0003-00-0001-94.png,0004-00-0001-54.png
00000009,10,0,1447352754322,1447352754892,1093,280,0,0,0,2,3,1,5,0003-00-0000-02.png,0002-00-0000-44.png
00000009,11,1,1447352757753,1447352758389,982,420,0,0,0,4,2,2,6,0004-00-0000-75.png,0003-00-0000-67.png
00000009,12,0,1447352759345,1447352759437,888,432,0,0,0,0,4,4,4,0001-00-0001-55.png,0004-00-0001-09.png
00000009,13,0,1447352762555,1447352763055,962,340,0,0,0,1,3,2,4,0005-00-0000-73.png,0002-00-0001-43.png
00000009,14,1,1447352766152,1447352766208,900,325,0,0,0,2,0,2,2,0003-00-0000-93.png,0001-00-0001-10.png
00000009,15,0,1447352767227,1447352767429,862,430,0,0,0,0,2,2,2,0001-00-0000-77.png,0003-00-0001-05.png
00000009,16,1,1447352771065,1447352772057,976,397,0,0,0,4,0,4,4,0004-00-0001-71.png,0001-00-0000-92.png
00000009,17,0,1447352773092,1447352773108,883,432,0,0,0,0,3,3,3,0001-00-0000-74.png,0002-00-0001-90.png
00000009,18,1,1447352776352,1447352776464,966,276,0,0,0,3,1,2,4,0002-00-0001-87.png,0005-00-0000-75.png
00000009,19,1,1447352777556,1447352777620,952,448,0,0,0,2,1,1,3,0003-00-0001-48.png,0005-00-0001-49.png
00000009,20,1,1447352778846,1447352779369,935,333,0,0,0,3,0,3,3,0002-00-0000-75.png,0001-00-0000-03.png
00000009,21,0,1447352780356,1447352780392,880,367,0,0,0,3,4,1,7,0002-00-0000-33.png,0004-00-0000-62.png
00000009,22,1,1447352783631,1447352784226,964,348,0,0,0,4,2,2,6,0004-00-0000-89.png,0003-00-0000-02.png
00000009,23,0,1447352785375,1447352786106,443,228,0,0,0,1,0,1,1,0005-00-0000-86.png,0001-00-0001-86.png
00000009,24,1,1447352789240,1447352789982,458,255,0,0,0,1,2,1,3,0005-00-0001-97.png,0003-00-0001-70.png
00000009,25,1,1447352791606,1447352792080,964,477,0,0,0,2,1,1,3,0003-00-0001-85.png,0005-00-0001-32.png
00000009,26,1,1447352793404,1447352793713,939,436,0,0,0,3,2,1,5,0002-00-0001-40.png,0003-00-0000-28.png
00000009,27,0,1447352795084,1447352795375,901,488,0,0,0,0,2,2,2,0001-00-0001-77.png,0003-00-0001-18.png
00000009,28,1,1447352798243,1447352798756,970,354,0,0,0,4,3,1,7,0004-00-0001-70.png,0002-00-0000-50.png
00000009,29,1,1447352799743,1447352799898,888,462,0,0,0,4,0,4,4,0004-00-0000-16.png,0001-00-0001-12.png
00000009,30,0,1447352801216,1447352801676,904,514,0,0,0,1,4,3,5,0005-00-0001-83.png,0004-00-0000-63.png
00000009,31,1,1447352804653,1447352805166,1065,276,0,0,0,2,0,2,2,0003-00-0001-13.png,0001-00-0001-13.png
00000009,32,1,1447352806164,1447352806287,862,436,0,0,0,3,1,2,4,0002-00-0000-19.png,0005-00-0001-57.png
00000009,33,1,1447352807386,1447352808157,412,373,0,0,0,0,4,4,4,0001-00-0000-91.png,0004-00-0000-15.png
00000009,34,0,1447352809144,1447352809896,1060,308,0,0,0,2,4,2,6,0003-00-0000-70.png,0004-00-0000-02.png
00000009,35,0,1447352813606,1447352814230,859,325,0,0,0,2,3,1,5,0003-00-0001-82.png,0002-00-0000-71.png
00000009,36,1,1447352817124,1447352817329,888,410,0,0,0,3,0,3,3,0002-00-0000-29.png,0001-00-0001-70.png
00000009,37,0,1447352818339,1447352818431,886,395,0,0,0,0,1,1,1,0001-00-0001-36.png,0005-00-0000-98.png
00000009,38,0,1447352821378,1447352821422,895,389,0,0,0,1,3,2,4,0005-00-0001-30.png,0002-00-0000-99.png
00000009,39,1,1447352824509,1447352824533,868,298,0,0,0,4,1,3,5,0004-00-0000-70.png,0005-00-0001-76.png
00000009,40,0,1447352825563,1447352825967,888,473,0,0,0,0,3,3,3,0001-00-0001-91.png,0002-00-0000-29.png
00000009,41,1,1447352829041,1447352829493,920,350,0,0,0,4,3,1,7,0004-00-0000-15.png,0002-00-0000-07.png
00000009,42,0,1447352830621,1447352831485,511,228,0,0,0,4,2,2,6,0004-00-0000-12.png,0003-00-0000-22.png
00000009,43,0,1447352834368,1447352834956,466,423,0,0,0,2,1,1,3,0003-00-0001-55.png,0005-00-0000-60.png
00000009,44,1,1447352838126,1447352838132,874,304,0,0,0,1,0,1,1,0005-00-0001-44.png,0001-00-0000-94.png
00000009,45,0,1447352839088,1447352840005,423,371,0,0,0,3,2,1,5,0002-00-0000-44.png,0003-00-0001-32.png
00000009,46,0,1447352842866,1447352842899,891,335,0,0,0,1,4,3,5,0005-00-0000-16.png,0004-00-0001-65.png
00000009,47,1,1447352846114,1447352846148,919,299,0,0,0,3,0,3,3,0002-00-0000-58.png,0001-00-0001-77.png
00000009,48,1,1447352847148,1447352848118,938,355,0,0,0,4,1,3,5,0004-00-0001-80.png,0005-00-0000-52.png
00000009,49,0,1447352849065,1447352849129,888,410,0,0,0,3,4,1,7,0002-00-0000-86.png,0004-00-0000-98.png
00000009,50,0,1447352852224,1447352852248,910,330,0,0,0,2,4,2,6,0003-00-0000-89.png,0004-00-0000-63.png
00000009,51,0,1447352855366,1447352855402,927,304,0,0,0,0,1,1,1,0001-00-0000-43.png,0005-00-0000-67.png
00000009,52,1,1447352858477,1447352858501,876,326,0,0,0,3,1,2,4,0002-00-0001-74.png,0005-00-0001-56.png
00000009,53,1,1447352859451,1447352859527,914,385,0,0,0,4,0,4,4,0004-00-0000-63.png,0001-00-0000-38.png
00000009,54,0,1447352860573,1447352860946,883,462,0,0,0,1,3,2,4,0005-00-0000-41.png,0002-00-0000-00.png
00000009,55,1,1447352863776,1447352863792,862,384,0,0,0,2,0,2,2,0003-00-0001-36.png,0001-00-0001-45.png
00000009,56,0,1447352864717,1447352864832,888,410,0,0,0,1,2,1,3,0005-00-0001-63.png,0003-00-0001-61.png
00000009,57,0,1447352867828,1447352868385,1060,260,0,0,0,0,2,2,2,0001-00-0001-10.png,0003-00-0000-06.png
00000009,58,0,1447352871514,1447352872136,996,402,0,0,0,0,3,3,3,0001-00-0001-34.png,0002-00-0001-49.png
00000009,59,0,1447352875172,1447352875208,895,321,0,0,0,2,3,1,5,0003-00-0000-05.png,0002-00-0001-49.png
00000009,60,1,1447352878133,1447352878702,491,261,0,0,0,0,4,4,4,0001-00-0001-90.png,0004-00-0000-68.png
00000009,61,1,1447352879533,1447352880546,375,345,0,0,0,1,4,3,5,0005-00-0000-53.png,0004-00-0001-73.png
00000009,62,1,1447352881493,1447352882504,1040,275,0,0,0,3,2,1,5,0002-00-0000-77.png,0003-00-0001-19.png
00000009,63,0,1447352883431,1447352883526,869,427,0,0,0,1,2,1,3,0005-00-0001-38.png,0003-00-0000-17.png
00000009,64,0,1447352886451,1447352887253,1032,277,0,0,0,3,4,1,7,0002-00-0001-07.png,0004-00-0001-89.png
00000009,65,1,1447352890118,1447352890637,1040,257,0,0,0,4,0,4,4,0004-00-0001-10.png,0001-00-0001-59.png
00000009,66,1,1447352891543,1447352891615,910,452,0,0,0,2,0,2,2,0003-00-0001-16.png,0001-00-0001-42.png
00000009,67,0,1447352892623,1447352893271,482,238,0,0,0,1,0,1,1,0005-00-0000-75.png,0001-00-0000-39.png
00000009,68,1,1447352896379,1447352896510,862,410,0,0,0,3,1,2,4,0002-00-0000-25.png,0005-00-0000-43.png
00000009,69,0,1447352897452,1447352897574,904,462,0,0,0,1,3,2,4,0005-00-0001-76.png,0002-00-0001-71.png
00000009,70,0,1447352900732,1447352901218,967,324,0,0,0,0,1,1,1,0001-00-0000-17.png,0005-00-0000-90.png
00000009,71,0,1447352904319,1447352904842,1067,263,0,0,0,2,4,2,6,0003-00-0000-83.png,0004-00-0000-64.png
00000009,72,1,1447352907709,1447352908332,1024,253,0,0,0,4,2,2,6,0004-00-0000-91.png,0003-00-0001-13.png
00000009,73,1,1447352909248,1447352909333,928,462,0,0,0,4,1,3,5,0004-00-0001-66.png,0005-00-0000-12.png
00000009,74,0,1447352910491,1447352910605,888,423,0,0,0,2,3,1,5,0003-00-0000-05.png,0002-00-0000-29.png
00000009,75,0,1447352913583,1447352913689,879,287,0,0,0,0,2,2,2,0001-00-0000-17.png,0003-00-0000-85.png
00000009,76,1,1447352916653,1447352916689,891,356,0,0,0,4,3,1,7,0004-00-0000-43.png,0002-00-0000-65.png
00000009,77,1,1447352917617,1447352918845,455,292,0,0,0,0,4,4,4,0001-00-0000-77.png,0004-00-0000-76.png
00000009,78,1,1447352919703,1447352920507,1045,297,0,0,0,2,1,1,3,0003-00-0000-22.png,0005-00-0000-69.png
00000009,79,0,1447352921502,1447352921578,875,436,0,0,0,0,3,3,3,0001-00-0001-68.png,0002-00-0001-27.png
00000009,80,1,1447352924463,1447352924988,1011,280,0,0,0,3,0,3,3,0002-00-0001-72.png,0001-00-0000-64.png
00000009,81,1,1447352925884,1447352925932,904,410,0,0,0,3,1,2,4,0002-00-0001-60.png,0005-00-0001-23.png
00000009,82,0,1447352927043,1447352927155,872,488,0,0,0,0,3,3,3,0001-00-0000-53.png,0002-00-0001-50.png
00000009,83,1,1447352930138,1447352930621,463,266,0,0,0,1,4,3,5,0005-00-0000-77.png,0004-00-0001-65.png
00000009,84,1,1447352931490,1447352932442,1041,291,0,0,0,2,1,1,3,0003-00-0001-50.png,0005-00-0000-27.png
00000009,85,1,1447352933388,1447352933432,899,436,0,0,0,4,3,1,7,0004-00-0001-72.png,0002-00-0001-86.png
00000009,86,1,1447352934501,1447352934747,877,514,0,0,0,4,1,3,5,0004-00-0000-64.png,0005-00-0001-72.png
00000009,87,1,1447352935872,1447352936574,472,260,0,0,0,0,4,4,4,0001-00-0000-61.png,0004-00-0000-90.png
00000009,88,1,1447352937549,1447352938351,470,286,0,0,0,3,4,1,7,0002-00-0001-76.png,0004-00-0001-64.png
00000009,89,1,1447352939239,1447352940012,472,274,0,0,0,0,1,1,1,0001-00-0000-68.png,0005-00-0000-37.png
00000009,90,0,1447352941070,1447352941134,862,476,0,0,0,1,3,2,4,0005-00-0001-70.png,0002-00-0001-96.png
00000009,91,0,1447352944192,1447352944654,962,308,0,0,0,2,3,1,5,0003-00-0000-38.png,0002-00-0000-00.png
00000009,92,1,1447352947629,1447352948087,463,271,0,0,0,0,2,2,2,0001-00-0000-78.png,0003-00-0001-56.png
00000009,93,0,1447352949457,1447352950038,495,252,0,0,0,3,0,3,3,0002-00-0001-89.png,0001-00-0000-36.png
00000009,94,1,1447352952893,1447352952929,905,355,0,0,0,1,0,1,1,0005-00-0001-28.png,0001-00-0000-34.png
00000009,95,1,1447352953890,1447352953974,888,436,0,0,0,4,0,4,4,0004-00-0001-23.png,0001-00-0000-98.png
00000009,96,1,1447352955131,1447352955205,874,462,0,0,0,2,0,2,2,0003-00-0001-96.png,0001-00-0001-41.png
00000009,97,0,1447352956274,1447352956350,862,452,0,0,0,1,2,1,3,0005-00-0000-20.png,0003-00-0000-25.png
00000009,98,1,1447352959483,1447352959558,1014,265,0,0,0,3,2,1,5,0002-00-0001-60.png,0003-00-0000-02.png
00000009,99,0,1447352960468,1447352961470,929,332,0,0,0,2,4,2,6,0003-00-0000-59.png,0004-00-0001-32.png
00000009,100,1,1447352964462,1447352965076,961,383,0,0,0,4,2,2,6,0004-00-0000-92.png,0003-00-0000-73.png
00000009,101,1,1447352965942,1447352966038,902,455,0,0,0,2,1,1,3,0003-00-0000-27.png,0005-00-0000-44.png
00000009,102,0,1447352967016,1447352967084,862,421,0,0,0,2,3,1,5,0003-00-0001-38.png,0002-00-0000-19.png
00000009,103,1,1447352969916,1447352970563,454,276,0,0,0,1,3,2,4,0005-00-0001-99.png,0002-00-0001-32.png
00000009,104,1,1447352971407,1447352971435,859,387,0,0,0,4,2,2,6,0004-00-0001-51.png,0003-00-0000-05.png
00000009,105,1,1447352972412,1447352973413,1044,279,0,0,0,2,0,2,2,0003-00-0001-21.png,0001-00-0001-54.png
00000009,106,0,1447352974270,1447352974366,913,450,0,0,0,1,2,1,3,0005-00-0001-82.png,0003-00-0001-69.png
00000009,107,1,1447352977271,1447352977768,964,395,0,0,0,4,0,4,4,0004-00-0000-98.png,0001-00-0001-44.png
00000009,108,1,1447352979120,1447352979798,481,266,0,0,0,0,4,4,4,0001-00-0001-82.png,0004-00-0001-92.png
00000009,109,1,1447352980740,1447352980820,862,422,0,0,0,4,3,1,7,0004-00-0001-90.png,0002-00-0001-00.png
00000009,110,0,1447352981843,1447352981935,873,490,0,0,0,1,4,3,5,0005-00-0000-84.png,0004-00-0001-77.png
00000009,111,1,1447352984874,1447352985361,401,384,0,0,0,0,2,2,2,0001-00-0001-39.png,0003-00-0001-25.png
00000009,112,1,1447352986732,1447352987314,947,343,0,0,0,4,1,3,5,0004-00-0000-31.png,0005-00-0000-82.png
00000009,113,0,1447352988172,1447352988260,883,450,0,0,0,3,4,1,7,0002-00-0001-14.png,0004-00-0000-24.png
00000009,114,0,1447352991372,1447352991988,482,275,0,0,0,3,1,2,4,0002-00-0000-36.png,0005-00-0001-81.png
00000009,115,1,1447352995118,1447352995715,1052,279,0,0,0,1,0,1,1,0005-00-0000-03.png,0001-00-0001-93.png
00000009,116,1,1447352996568,1447352996628,871,436,0,0,0,3,2,1,5,0002-00-0000-60.png,0003-00-0000-30.png
00000009,117,1,1447352997634,1447352998382,440,323,0,0,0,0,3,3,3,0001-00-0001-57.png,0002-00-0000-07.png
00000009,118,1,1447352999272,1447352999316,862,410,0,0,0,3,0,3,3,0002-00-0000-80.png,0001-00-0001-76.png
00000009,119,1,1447353000485,1447353001285,369,370,0,0,0,0,1,1,1,0001-00-0000-00.png,0005-00-0000-25.png
00000009,120,0,1447353002176,1447353003155,939,316,0,0,0,2,4,2,6,0003-00-0001-60.png,0004-00-0001-80.png
00000009,121,0,1447353006269,1447353006313,881,334,0,0,0,2,4,2,6,0003-00-0000-91.png,0004-00-0000-75.png
00000009,122,1,1447353009137,1447353009346,874,410,0,0,0,4,2,2,6,0004-00-0001-94.png,0003-00-0000-02.png
00000009,123,1,1447353010283,1447353011025,1049,318,0,0,0,1,0,1,1,0005-00-0000-92.png,0001-00-0000-00.png
00000009,124,0,1447353011903,1447353012011,864,467,0,0,0,0,1,1,1,0001-00-0001-37.png,0005-00-0001-57.png
00000009,125,0,1447353015053,1447353015073,863,350,0,0,0,1,4,3,5,0005-00-0000-89.png,0004-00-0001-88.png
00000009,126,0,1447353017920,1447353017948,1012,316,0,0,0,0,3,3,3,0001-00-0001-70.png,0002-00-0000-73.png
00000009,127,1,1447353021066,1447353021090,916,296,0,0,0,2,0,2,2,0003-00-0001-19.png,0001-00-0001-49.png
00000009,128,1,1447353021956,1447353023127,479,252,0,0,0,0,2,2,2,0001-00-0001-50.png,0003-00-0000-39.png
00000009,129,1,1447353023973,1447353024892,1026,253,0,0,0,3,0,3,3,0002-00-0000-12.png,0001-00-0001-02.png
00000009,130,0,1447353025766,1447353025865,899,436,0,0,0,2,3,1,5,0003-00-0001-75.png,0002-00-0000-30.png
00000009,131,1,1447353028716,1447353029304,1079,279,0,0,0,4,1,3,5,0004-00-0001-40.png,0005-00-0001-99.png
00000009,132,0,1447353030188,1447353030252,862,462,0,0,0,0,4,4,4,0001-00-0001-83.png,0004-00-0001-52.png
00000009,133,1,1447353033448,1447353033460,969,326,0,0,0,3,1,2,4,0002-00-0001-84.png,0005-00-0000-09.png
00000009,134,0,1447353034342,1447353035005,462,253,0,0,0,2,1,1,3,0003-00-0000-31.png,0005-00-0001-27.png
00000009,135,1,1447353038143,1447353038365,913,384,0,0,0,4,0,4,4,0004-00-0001-94.png,0001-00-0000-84.png
00000009,136,0,1447353039261,1447353039317,893,426,0,0,0,1,2,1,3,0005-00-0001-43.png,0003-00-0001-67.png
00000009,137,0,1447353042322,1447353042346,857,384,0,0,0,1,3,2,4,0005-00-0001-00.png,0002-00-0001-54.png
00000009,138,0,1447353045570,1447353045606,878,301,0,0,0,3,4,1,7,0002-00-0000-39.png,0004-00-0001-06.png
00000009,139,1,1447353048732,1447353049221,941,333,0,0,0,4,3,1,7,0004-00-0000-68.png,0002-00-0001-23.png
00000009,140,1,1447353050062,1447353050110,888,396,0,0,0,3,2,1,5,0002-00-0000-59.png,0003-00-0000-54.png
00000009,141,0,1447353050989,1447353051779,432,284,0,0,0,3,1,2,4,0002-00-0000-48.png,0005-00-0001-71.png
00000009,142,1,1447353054632,1447353054911,1054,333,0,0,0,3,0,3,3,0002-00-0001-64.png,0001-00-0001-12.png
00000009,143,0,1447353055819,1447353055835,892,428,0,0,0,3,4,1,7,0002-00-0001-91.png,0004-00-0001-53.png
00000009,144,1,1447353059057,1447353059576,453,237,0,0,0,1,4,3,5,0005-00-0000-25.png,0004-00-0001-92.png
00000009,145,1,1447353061830,1447353062286,427,318,0,0,0,0,2,2,2,0001-00-0000-71.png,0003-00-0001-63.png
00000009,146,1,1447353063718,1447353064532,938,341,0,0,0,4,2,2,6,0004-00-0000-34.png,0003-00-0000-65.png
00000009,147,1,1447353065615,1447353065643,862,436,0,0,0,4,0,4,4,0004-00-0000-30.png,0001-00-0001-27.png
00000009,148,0,1447353066710,1447353066972,861,493,0,0,0,0,3,3,3,0001-00-0001-78.png,0002-00-0001-54.png
00000009,149,0,1447353069970,1447353070534,1051,271,0,0,0,2,3,1,5,0003-00-0001-04.png,0002-00-0000-77.png
00000009,150,0,1447353073714,1447353073945,861,360,0,0,0,2,4,2,6,0003-00-0001-11.png,0004-00-0000-38.png
00000009,151,0,1447353077543,1447353077567,913,306,0,0,0,1,2,1,3,0005-00-0001-82.png,0003-00-0001-69.png
00000009,152,0,1447353080400,1447353080452,895,379,0,0,0,0,1,1,1,0001-00-0001-76.png,0005-00-0001-06.png
00000009,153,1,1447353083504,1447353084040,966,356,0,0,0,2,0,2,2,0003-00-0001-49.png,0001-00-0001-28.png
00000009,154,1,1447353084873,1447353085533,473,246,0,0,0,0,4,4,4,0001-00-0001-36.png,0004-00-0000-35.png
00000009,155,1,1447353086455,1447353086562,862,462,0,0,0,1,0,1,1,0005-00-0000-80.png,0001-00-0001-66.png
00000009,156,0,1447353087495,1447353088217,471,262,0,0,0,3,2,1,5,0002-00-0000-55.png,0003-00-0001-69.png
00000009,157,1,1447353091107,1447353091123,896,323,0,0,0,4,3,1,7,0004-00-0000-40.png,0002-00-0000-03.png
00000009,158,1,1447353092121,1447353092189,860,472,0,0,0,2,1,1,3,0003-00-0001-54.png,0005-00-0001-29.png
00000009,159,1,1447353093174,1447353093961,478,264,0,0,0,1,3,2,4,0005-00-0000-51.png,0002-00-0000-91.png
00000009,160,1,1447353094863,1447353094978,894,494,0,0,0,4,1,3,5,0004-00-0001-21.png,0005-00-0001-28.png
00000009,161,1,1447353095966,1447353096022,869,454,0,0,0,3,0,3,3,0002-00-0001-76.png,0001-00-0000-59.png
00000009,162,1,1447353097147,1447353097993,463,278,0,0,0,3,4,1,7,0002-00-0000-52.png,0004-00-0001-85.png
00000009,163,1,1447353098937,1447353099765,1021,262,0,0,0,2,1,1,3,0003-00-0001-91.png,0005-00-0000-98.png
00000009,164,1,1447353100670,1447353100691,896,414,0,0,0,1,0,1,1,0005-00-0001-51.png,0001-00-0001-31.png
00000009,165,0,1447353101789,1447353101853,870,534,0,0,0,2,4,2,6,0003-00-0001-18.png,0004-00-0000-96.png
00000009,166,0,1447353104811,1447353105333,1041,270,0,0,0,2,3,1,5,0003-00-0000-03.png,0002-00-0000-76.png
00000009,167,1,1447353108179,1447353108780,1071,261,0,0,0,4,2,2,6,0004-00-0001-29.png,0003-00-0000-09.png
00000009,168,1,1447353110167,1447353110811,1061,287,0,0,0,4,0,4,4,0004-00-0001-45.png,0001-00-0000-54.png
00000009,169,0,1447353111637,1447353111697,872,410,0,0,0,1,4,3,5,0005-00-0000-31.png,0004-00-0000-01.png
00000009,170,1,1447353114526,1447353114989,940,308,0,0,0,3,1,2,4,0002-00-0000-48.png,0005-00-0001-30.png
00000009,171,0,1447353115830,1447353116445,478,264,0,0,0,4,1,3,5,0004-00-0000-52.png,0005-00-0001-63.png
00000009,172,1,1447353119400,1447353119957,471,280,0,0,0,1,3,2,4,0005-00-0001-85.png,0002-00-0000-17.png
00000009,173,1,1447353121264,1447353121939,484,271,0,0,0,0,2,2,2,0001-00-0001-69.png,0003-00-0000-33.png
00000009,174,1,1447353122895,1447353123625,908,376,0,0,0,4,3,1,7,0004-00-0001-92.png,0002-00-0001-98.png
00000009,175,0,1447353124565,1447353125429,937,323,0,0,0,0,3,3,3,0001-00-0000-44.png,0002-00-0000-32.png
00000009,176,1,1447353128562,1447353129026,465,280,0,0,0,1,2,1,3,0005-00-0001-01.png,0003-00-0000-30.png
00000009,177,1,1447353129891,1447353131010,416,250,0,0,0,0,1,1,1,0001-00-0000-70.png,0005-00-0000-08.png
00000009,178,1,1447353131960,1447353132011,862,446,0,0,0,2,0,2,2,0003-00-0000-11.png,0001-00-0001-90.png
00000009,179,1,1447353133103,1447353134025,414,366,0,0,0,0,4,4,4,0001-00-0000-44.png,0004-00-0000-43.png
00000009,180,0,1447353134999,1447353135768,459,272,0,0,0,3,2,1,5,0002-00-0000-89.png,0003-00-0000-61.png
00000009,181,1,1447353138896,1447353138916,862,332,0,0,0,3,0,3,3,0002-00-0000-45.png,0001-00-0001-57.png
00000009,182,0,1447353139851,1447353140638,421,361,0,0,0,3,2,1,5,0002-00-0001-08.png,0003-00-0001-11.png
00000009,183,0,1447353143817,1447353144062,962,335,0,0,0,3,4,1,7,0002-00-0001-05.png,0004-00-0000-68.png
00000009,184,1,1447353147017,1447353147508,424,378,0,0,0,0,3,3,3,0001-00-0000-13.png,0002-00-0001-00.png
00000009,185,1,1447353148335,1447353149327,466,254,0,0,0,1,4,3,5,0005-00-0001-66.png,0004-00-0001-17.png
00000009,186,0,1447353150255,1447353150961,480,226,0,0,0,4,3,1,7,0004-00-0000-29.png,0002-00-0000-00.png
00000009,187,0,1447353154131,1447353154638,1046,256,0,0,0,2,4,2,6,0003-00-0000-61.png,0004-00-0000-06.png
00000009,188,1,1447353157728,1447353158276,478,475,0,0,0,0,1,1,1,0001-00-0000-86.png,0005-00-0000-27.png
00000009,189,1,1447353159107,1447353159813,491,253,0,0,0,1,3,2,4,0005-00-0001-80.png,0002-00-0001-61.png
00000009,190,1,1447353160708,1447353161462,486,273,0,0,0,0,2,2,2,0001-00-0000-05.png,0003-00-0000-96.png
00000009,191,0,1447353162496,1447353163297,424,334,0,0,0,3,1,2,4,0002-00-0000-70.png,0005-00-0001-79.png
00000009,192,1,1447353166334,1447353166390,935,358,0,0,0,1,0,1,1,0005-00-0001-38.png,0001-00-0000-79.png
00000009,193,1,1447353167358,1447353168152,390,359,0,0,0,0,4,4,4,0001-00-0001-47.png,0004-00-0000-99.png
00000009,194,1,1447353169126,1447353169173,860,439,0,0,0,2,1,1,3,0003-00-0001-05.png,0005-00-0000-80.png
00000009,195,1,1447353170268,1447353171265,1052,279,0,0,0,4,2,2,6,0004-00-0001-55.png,0003-00-0001-04.png
00000009,196,0,1447353172216,1447353172240,897,403,0,0,0,2,3,1,5,0003-00-0001-70.png,0002-00-0000-94.png
00000009,197,1,1447353175406,1447353175434,900,304,0,0,0,2,0,2,2,0003-00-0001-00.png,0001-00-0001-21.png
00000009,198,0,1447353176411,1447353177074,478,267,0,0,0,4,0,4,4,0004-00-0000-52.png,0001-00-0001-81.png
00000009,199,1,1447353180068,1447353180555,487,279,0,0,0,1,2,1,3,0005-00-0000-23.png,0003-00-0001-48.png
00000009,200,0,1447353181977,1447353182543,500,272,0,0,0,4,1,3,5,0004-00-0000-78.png,0005-00-0001-95.png
00000009,201,1,1447353185624,1447353186369,501,277,0,0,0,1,2,1,3,0005-00-0000-42.png,0003-00-0001-97.png
00000009,202,0,1447353187201,1447353188007,468,279,0,0,0,4,0,4,4,0004-00-0001-06.png,0001-00-0001-76.png
00000009,203,0,1447353190940,1447353190976,869,387,0,0,0,1,3,2,4,0005-00-0000-14.png,0002-00-0000-72.png
00000009,204,0,1447353194042,1447353194066,862,372,0,0,0,1,4,3,5,0005-00-0001-72.png,0004-00-0001-78.png
00000009,205,0,1447353197192,1447353197734,986,382,0,0,0,2,3,1,5,0003-00-0000-64.png,0002-00-0001-93.png
00000009,206,1,1447353201039,1447353201571,962,329,0,0,0,3,2,1,5,0002-00-0001-40.png,0003-00-0000-85.png
00000009,207,0,1447353202428,1447353203421,1040,285,0,0,0,2,4,2,6,0003-00-0001-68.png,0004-00-0000-43.png
00000009,208,0,1447353206544,1447353207056,477,240,0,0,0,3,1,2,4,0002-00-0001-05.png,0005-00-0000-20.png
00000009,209,0,1447353210178,1447353210226,913,306,0,0,0,0,1,1,1,0001-00-0000-63.png,0005-00-0001-05.png
00000009,210,1,1447353213261,1447353213798,480,278,0,0,0,0,2,2,2,0001-00-0001-81.png,0003-00-0001-48.png
00000009,211,1,1447353214631,1447353215649,939,384,0,0,0,4,2,2,6,0004-00-0000-77.png,0003-00-0000-81.png
00000009,212,0,1447353216542,1447353216626,866,408,0,0,0,3,4,1,7,0002-00-0001-84.png,0004-00-0001-60.png
00000009,213,1,1447353219779,1447353220471,403,330,0,0,0,0,4,4,4,0001-00-0001-07.png,0004-00-0001-95.png
00000009,214,1,1447353221810,1447353222520,958,334,0,0,0,3,0,3,3,0002-00-0000-95.png,0001-00-0001-08.png
00000009,215,0,1447353223409,1447353223559,887,441,0,0,0,0,3,3,3,0001-00-0000-73.png,0002-00-0000-77.png
00000009,216,0,1447353226996,1447353227619,517,280,0,0,0,1,0,1,1,0005-00-0000-09.png,0001-00-0001-68.png
00000009,217,1,1447353231082,1447353231575,1068,277,0,0,0,2,0,2,2,0003-00-0001-33.png,0001-00-0000-40.png
00000009,218,1,1447353232410,1447353232494,872,462,0,0,0,4,1,3,5,0004-00-0001-09.png,0005-00-0000-47.png
00000009,219,1,1447353233457,1447353233545,862,448,0,0,0,2,1,1,3,0003-00-0000-45.png,0005-00-0001-82.png
00000009,220,0,1447353234578,1447353235299,492,253,0,0,0,4,3,1,7,0004-00-0001-70.png,0002-00-0000-36.png
00000009,221,0,1447353238315,1447353238368,888,360,0,0,0,0,3,3,3,0001-00-0001-54.png,0002-00-0000-07.png
00000009,222,1,1447353241496,1447353241532,862,346,0,0,0,3,2,1,5,0002-00-0000-11.png,0003-00-0001-04.png
00000009,223,1,1447353242489,1447353243279,930,339,0,0,0,3,1,2,4,0002-00-0000-94.png,0005-00-0001-36.png
00000009,224,1,1447353244248,1447353245039,1075,296,0,0,0,4,2,2,6,0004-00-0001-77.png,0003-00-0000-05.png
00000009,225,0,1447353245986,1447353246054,913,421,0,0,0,0,1,1,1,0001-00-0000-94.png,0005-00-0000-95.png
00000009,226,0,1447353249147,1447353249163,892,332,0,0,0,1,4,3,5,0005-00-0001-08.png,0004-00-0000-20.png
00000009,227,1,1447353252117,1447353252165,913,358,0,0,0,2,0,2,2,0003-00-0001-68.png,0001-00-0000-20.png
00000009,228,0,1447353253102,1447353253162,882,418,0,0,0,1,2,1,3,0005-00-0001-25.png,0003-00-0000-56.png
00000009,229,0,1447353256052,1447353256621,1041,271,0,0,0,2,3,1,5,0003-00-0001-86.png,0002-00-0001-15.png
00000009,230,1,1447353259488,1447353260007,474,268,0,0,0,0,2,2,2,0001-00-0000-40.png,0003-00-0001-47.png
00000009,231,0,1447353260890,1447353261845,1025,279,0,0,0,2,4,2,6,0003-00-0000-08.png,0004-00-0001-03.png
00000009,232,1,1447353264800,1447353265314,939,384,0,0,0,3,0,3,3,0002-00-0001-48.png,0001-00-0000-36.png
00000009,233,1,1447353266656,1447353267352,1036,286,0,0,0,4,0,4,4,0004-00-0001-03.png,0001-00-0000-84.png
00000009,234,1,1447353268189,1447353268288,909,440,0,0,0,4,1,3,5,0004-00-0001-50.png,0005-00-0000-58.png
00000009,235,1,1447353269350,1447353270171,503,253,0,0,0,3,4,1,7,0002-00-0001-92.png,0004-00-0001-34.png
00000009,236,0,1447353271087,1447353271802,488,240,0,0,0,1,0,1,1,0005-00-0000-32.png,0001-00-0001-75.png
00000009,237,1,1447353274704,1447353275202,442,390,0,0,0,1,3,2,4,0005-00-0000-58.png,0002-00-0001-25.png
00000009,238,0,1447353276653,1447353277467,483,259,0,0,0,4,3,1,7,0004-00-0001-52.png,0002-00-0000-11.png
00000009,239,1,1447353280588,1447353281143,506,287,0,0,0,0,4,4,4,0001-00-0001-71.png,0004-00-0001-45.png
00000009,240,1,1447353282008,1447353282686,911,329,0,0,0,2,1,1,3,0003-00-0001-69.png,0005-00-0001-27.png
00000009,241,0,1447353283640,1447353283676,873,410,0,0,0,1,3,2,4,0005-00-0000-65.png,0002-00-0000-95.png
00000009,242,0,1447353286699,1447353287403,1092,295,0,0,0,2,3,1,5,0003-00-0000-85.png,0002-00-0001-49.png
00000009,243,1,1447353290692,1447353290735,864,344,0,0,0,3,1,2,4,0002-00-0000-19.png,0005-00-0000-16.png
00000009,244,1,1447353291689,1447353292585,939,344,0,0,0,4,3,1,7,0004-00-0001-86.png,0002-00-0001-15.png
00000009,245,1,1447353293477,1447353293501,864,412,0,0,0,2,0,2,2,0003-00-0001-35.png,0001-00-0001-01.png
00000009,246,1,1447353294549,1447353295523,913,316,0,0,0,4,1,3,5,0004-00-0000-08.png,0005-00-0000-89.png
00000009,247,1,1447353296510,1447353296566,889,470,0,0,0,1,0,1,1,0005-00-0000-29.png,0001-00-0000-15.png
00000009,248,0,1447353297570,1447353297882,886,477,0,0,0,1,2,1,3,0005-00-0000-36.png,0003-00-0001-08.png
00000009,249,1,1447353301047,1447353301076,878,303,0,0,0,2,1,1,3,0003-00-0000-82.png,0005-00-0001-47.png
00000009,250,1,1447353302024,1447353302672,495,259,0,0,0,0,4,4,4,0001-00-0001-62.png,0004-00-0001-98.png
00000009,251,0,1447353303613,1447353304555,965,423,0,0,0,0,1,1,1,0001-00-0000-16.png,0005-00-0000-20.png
00000009,252,0,1447353307702,1447353308261,957,418,0,0,0,3,4,1,7,0002-00-0000-42.png,0004-00-0000-43.png
00000009,253,0,1447353311091,1447353311642,488,280,0,0,0,3,2,1,5,0002-00-0000-05.png,0003-00-0001-48.png
00000009,254,1,1447353314622,1447353315197,485,270,0,0,0,1,4,3,5,0005-00-0000-09.png,0004-00-0000-77.png
00000009,255,1,1447353316571,1447353317127,422,372,0,0,0,0,2,2,2,0001-00-0001-03.png,0003-00-0001-08.png
00000009,256,0,1447353318021,1447353318058,862,421,0,0,0,0,3,3,3,0001-00-0001-54.png,0002-00-0001-76.png
00000009,257,1,1447353320923,1447353321467,922,426,0,0,0,4,0,4,4,0004-00-0000-46.png,0001-00-0000-05.png
00000009,258,1,1447353322369,1447353323088,932,348,0,0,0,3,0,3,3,0002-00-0000-77.png,0001-00-0000-20.png
00000009,259,0,1447353324024,1447353324040,891,408,0,0,0,2,4,2,6,0003-00-0001-33.png,0004-00-0001-78.png
00000009,260,1,1447353327094,1447353327726,964,348,0,0,0,4,2,2,6,0004-00-0001-17.png,0003-00-0001-94.png
00000009,261,1,1447353329112,1447353329657,494,267,0,0,0,0,3,3,3,0001-00-0001-30.png,0002-00-0001-84.png
00000009,262,1,1447353330642,1447353331444,484,237,0,0,0,1,4,3,5,0005-00-0000-22.png,0004-00-0001-42.png
00000009,263,0,1447353332400,1447353333373,931,313,0,0,0,2,4,2,6,0003-00-0000-47.png,0004-00-0001-73.png
00000009,264,1,1447353336405,1447353336894,413,357,0,0,0,0,1,1,1,0001-00-0001-79.png,0005-00-0001-95.png
00000009,265,0,1447353337786,1447353337850,875,446,0,0,0,1,3,2,4,0005-00-0000-80.png,0002-00-0001-17.png
00000009,266,0,1447353341015,1447353341477,473,295,0,0,0,1,0,1,1,0005-00-0000-82.png,0001-00-0001-89.png
00000009,267,1,1447353344558,1447353345570,475,277,0,0,0,0,4,4,4,0001-00-0001-94.png,0004-00-0001-43.png
00000009,268,1,1447353346432,1447353347154,1016,294,0,0,0,4,1,3,5,0004-00-0001-60.png,0005-00-0000-89.png
00000009,269,1,1447353348061,1447353348118,894,411,0,0,0,3,0,3,3,0002-00-0000-40.png,0001-00-0001-12.png
00000009,270,1,1447353349193,1447353349245,880,470,0,0,0,2,0,2,2,0003-00-0001-75.png,0001-00-0001-92.png
00000009,271,1,1447353350916,1447353351000,863,464,0,0,0,4,3,1,7,0004-00-0000-36.png,0002-00-0001-02.png
00000009,272,0,1447353352188,1447353352288,862,476,0,0,0,1,2,1,3,0005-00-0001-41.png,0003-00-0001-44.png
00000009,273,1,1447353355227,1447353355789,1053,286,0,0,0,4,0,4,4,0004-00-0001-17.png,0001-00-0001-98.png
00000009,274,1,1447353357075,1447353357968,935,325,0,0,0,4,2,2,6,0004-00-0000-01.png,0003-00-0000-42.png
00000009,275,1,1447353358915,1447353358943,888,451,0,0,0,3,2,1,5,0002-00-0001-29.png,0003-00-0001-83.png
00000009,276,1,1447353359928,1447353360790,495,253,0,0,0,2,3,1,5,0003-00-0001-87.png,0002-00-0001-01.png
00000009,277,0,1447353361676,1447353362523,1052,272,0,0,0,3,4,1,7,0002-00-0001-41.png,0004-00-0000-96.png
00000009,278,1,1447353365710,1447353366234,1053,306,0,0,0,3,1,2,4,0002-00-0001-04.png,0005-00-0000-95.png
00000009,279,0,1447353367061,1447353367109,888,410,0,0,0,0,2,2,2,0001-00-0001-77.png,0003-00-0000-35.png
00000009,280,1,1447353369962,1447353370484,964,323,0,0,0,2,1,1,3,0003-00-0001-62.png,0005-00-0000-26.png
00000009,281,1,1447353371320,1447353371384,896,475,0,0,0,4,0,4,4,0004-00-0000-01.png,0001-00-0001-13.png
00000009,282,0,1447353372329,1447353373140,494,260,0,0,0,4,3,1,7,0004-00-0001-30.png,0002-00-0000-55.png
00000009,283,1,1447353376086,1447353376570,990,375,0,0,0,2,1,1,3,0003-00-0000-14.png,0005-00-0001-68.png
00000009,284,1,1447353377915,1447353378632,474,265,0,0,0,0,4,4,4,0001-00-0000-26.png,0004-00-0001-99.png
00000009,285,0,1447353379468,1447353379530,865,387,0,0,0,0,2,2,2,0001-00-0000-84.png,0003-00-0001-07.png
00000009,286,1,1447353382709,1447353383230,502,275,0,0,0,1,2,1,3,0005-00-0000-61.png,0003-00-0001-92.png
00000009,287,0,1447353384531,1447353385297,933,339,0,0,0,3,4,1,7,0002-00-0000-69.png,0004-00-0000-15.png
00000009,288,1,1447353388418,1447353388911,427,352,0,0,0,1,3,2,4,0005-00-0000-00.png,0002-00-0000-51.png
00000009,289,0,1447353389768,1447353390604,938,409,0,0,0,2,3,1,5,0003-00-0001-09.png,0002-00-0000-94.png
00000009,290,0,1447353393536,1447353394006,1046,273,0,0,0,0,1,1,1,0001-00-0000-49.png,0005-00-0001-36.png
00000009,291,0,1447353396840,1447353397381,1051,306,0,0,0,2,4,2,6,0003-00-0001-61.png,0004-00-0001-70.png
00000009,292,1,1447353400553,1447353400657,890,277,0,0,0,3,2,1,5,0002-00-0001-81.png,0003-00-0000-10.png
00000009,293,1,1447353401585,1447353402360,931,333,0,0,0,4,2,2,6,0004-00-0001-34.png,0003-00-0001-83.png
00000009,294,1,1447353403354,1447353403460,888,462,0,0,0,4,1,3,5,0004-00-0001-70.png,0005-00-0000-43.png
00000009,295,0,1447353404617,1447353404649,862,452,0,0,0,0,3,3,3,0001-00-0001-04.png,0002-00-0000-84.png
00000009,296,1,1447353407751,1447353408312,1046,278,0,0,0,1,0,1,1,0005-00-0001-29.png,0001-00-0000-53.png
00000009,297,1,1447353409178,1447353409255,880,472,0,0,0,2,0,2,2,0003-00-0001-05.png,0001-00-0000-10.png
00000009,298,1,1447353410292,1447353411104,928,352,0,0,0,3,0,3,3,0002-00-0000-57.png,0001-00-0000-62.png
00000009,299,0,1447353411969,1447353412009,885,425,0,0,0,1,4,3,5,0005-00-0000-86.png,0004-00-0001-86.png
00000009,300,1,1447353415051,1447353415075,894,381,0,0,0,3,1,2,4,0002-00-0000-68.png,0005-00-0001-98.png
00000009,301,0,1447353416055,1447353416206,903,488,0,0,0,0,4,4,4,0001-00-0000-18.png,0004-00-0001-48.png
00000009,302,1,1447353419332,1447353419783,1070,287,0,0,0,2,1,1,3,0003-00-0001-21.png,0005-00-0001-82.png
00000009,303,1,1447353421141,1447353421688,488,271,0,0,0,0,1,1,1,0001-00-0001-64.png,0005-00-0000-53.png
00000009,304,0,1447353422551,1447353423427,937,344,0,0,0,2,4,2,6,0003-00-0000-82.png,0004-00-0000-45.png
00000009,305,0,1447353426616,1447353427165,507,272,0,0,0,1,0,1,1,0005-00-0000-87.png,0001-00-0001-38.png
00000009,306,1,1447353430304,1447353430380,964,332,0,0,0,4,1,3,5,0004-00-0000-93.png,0005-00-0000-80.png
00000009,307,0,1447353431274,1447353431322,860,420,0,0,0,2,3,1,5,0003-00-0000-79.png,0002-00-0001-35.png
00000009,308,1,1447353434231,1447353435113,375,372,0,0,0,0,2,2,2,0001-00-0001-67.png,0003-00-0001-53.png
00000009,309,1,1447353436028,1447353436718,1047,323,0,0,0,2,0,2,2,0003-00-0001-41.png,0001-00-0001-19.png
00000009,310,1,1447353437741,1447353437832,899,462,0,0,0,3,0,3,3,0002-00-0000-37.png,0001-00-0001-88.png
00000009,311,0,1447353438930,1447353439072,879,488,0,0,0,0,3,3,3,0001-00-0001-33.png,0002-00-0001-28.png
00000009,312,0,1447353441948,1447353442440,487,260,0,0,0,4,2,2,6,0004-00-0000-63.png,0003-00-0001-58.png
00000009,313,1,1447353445309,1447353445842,1048,316,0,0,0,4,3,1,7,0004-00-0000-76.png,0002-00-0001-45.png
00000009,314,1,1447353446731,1447353447382,922,328,0,0,0,4,0,4,4,0004-00-0001-72.png,0001-00-0000-72.png
00000009,315,1,1447353448291,1447353448369,915,446,0,0,0,3,1,2,4,0002-00-0000-25.png,0005-00-0001-46.png
00000009,316,0,1447353449519,1447353449563,872,462,0,0,0,1,4,3,5,0005-00-0000-80.png,0004-00-0001-41.png
00000009,317,1,1447353452632,1447353453167,478,289,0,0,0,1,3,2,4,0005-00-0001-14.png,0002-00-0000-82.png
00000009,318,1,1447353454062,1447353455348,453,239,0,0,0,3,4,1,7,0002-00-0000-44.png,0004-00-0000-29.png
00000009,319,1,1447353456290,1447353456334,868,409,0,0,0,3,2,1,5,0002-00-0000-71.png,0003-00-0001-13.png
00000009,320,1,1447353457462,1447353458235,493,247,0,0,0,1,2,1,3,0005-00-0001-21.png,0003-00-0000-26.png
00000009,321,1,1447353459130,1447353460041,468,259,0,0,0,0,1,1,1,0001-00-0000-15.png,0005-00-0001-55.png
00000009,322,1,1447353460950,1447353460974,899,488,0,0,0,3,1,2,4,0002-00-0000-29.png,0005-00-0000-62.png
00000009,323,1,1447353462083,1447353463007,932,324,0,0,0,4,1,3,5,0004-00-0001-83.png,0005-00-0000-02.png
00000009,324,1,1447353464112,1447353464180,901,488,0,0,0,4,2,2,6,0004-00-0001-58.png,0003-00-0001-43.png
00000009,325,1,1447353465335,1447353465387,896,494,0,0,0,2,1,1,3,0003-00-0000-00.png,0005-00-0000-78.png
00000009,326,0,1447353466516,1447353466552,873,506,0,0,0,0,4,4,4,0001-00-0001-32.png,0004-00-0000-68.png
00000009,327,1,1447353469655,1447353470155,459,270,0,0,0,0,3,3,3,0001-00-0000-11.png,0002-00-0001-18.png
00000009,328,0,1447353471004,1447353471766,1014,283,0,0,0,2,3,1,5,0003-00-0000-01.png,0002-00-0000-41.png
00000009,329,0,1447353474633,1447353475149,486,271,0,0,0,1,0,1,1,0005-00-0001-54.png,0001-00-0001-69.png
00000009,330,0,1447353478192,1447353478228,905,357,0,0,0,1,2,1,3,0005-00-0001-04.png,0003-00-0001-13.png
00000009,331,1,1447353481371,1447353481844,508,280,0,0,0,1,4,3,5,0005-00-0000-23.png,0004-00-0000-06.png
00000009,332,1,1447353482720,1447353483395,490,248,0,0,0,3,4,1,7,0002-00-0000-70.png,0004-00-0000-81.png
00000009,333,0,1447353484263,1447353484299,861,409,0,0,0,0,2,2,2,0001-00-0001-51.png,0003-00-0001-00.png
00000009,334,1,1447353487345,1447353487929,964,399,0,0,0,4,3,1,7,0004-00-0000-72.png,0002-00-0001-34.png
00000009,335,1,1447353489440,1447353490062,1041,293,0,0,0,3,0,3,3,0002-00-0001-69.png,0001-00-0000-38.png
00000009,336,1,1447353490930,1447353490992,899,410,0,0,0,3,2,1,5,0002-00-0000-82.png,0003-00-0001-48.png
00000009,337,1,1447353492243,1447353492279,890,460,0,0,0,2,0,2,2,0003-00-0001-25.png,0001-00-0001-02.png
00000009,338,1,1447353493415,1447353494751,492,268,0,0,0,2,4,2,6,0003-00-0000-65.png,0004-00-0000-81.png
00000009,339,0,1447353495650,1447353496316,502,249,0,0,0,4,0,4,4,0004-00-0001-73.png,0001-00-0000-98.png
00000009,340,0,1447353499438,1447353499975,933,336,0,0,0,1,3,2,4,0005-00-0000-25.png,0002-00-0000-15.png
00000009,341,1,1447353503145,1447353503169,882,304,0,0,0,4,3,1,7,0004-00-0001-28.png,0002-00-0001-73.png
00000009,342,0,1447353504147,1447353505130,439,247,0,0,0,4,2,2,6,0004-00-0001-42.png,0003-00-0001-52.png
00000009,343,0,1447353508073,1447353508138,874,384,0,0,0,0,1,1,1,0001-00-0001-60.png,0005-00-0001-75.png
00000009,344,1,1447353511094,1447353511247,857,394,0,0,0,4,0,4,4,0004-00-0001-73.png,0001-00-0001-78.png
00000009,345,0,1447353512215,1447353512284,888,462,0,0,0,3,4,1,7,0002-00-0000-29.png,0004-00-0000-66.png
00000009,346,1,1447353515447,1447353515972,1036,274,0,0,0,2,0,2,2,0003-00-0001-38.png,0001-00-0000-05.png
00000009,347,0,1447353516855,1447353516907,898,462,0,0,0,0,2,2,2,0001-00-0001-42.png,0003-00-0001-88.png
00000009,348,1,1447353520027,1447353520616,939,322,0,0,0,4,1,3,5,0004-00-0001-41.png,0005-00-0001-81.png
00000009,349,1,1447353521446,1447353521493,888,410,0,0,0,3,2,1,5,0002-00-0001-00.png,0003-00-0001-63.png
00000009,350,0,1447353522523,1447353522658,866,490,0,0,0,0,4,4,4,0001-00-0000-80.png,0004-00-0001-75.png
00000009,351,1,1447353525673,1447353525697,888,347,0,0,0,1,0,1,1,0005-00-0000-11.png,0001-00-0000-68.png
00000009,352,1,1447353526646,1447353528004,494,238,0,0,0,2,4,2,6,0003-00-0001-29.png,0004-00-0000-25.png
00000009,353,1,1447353528932,1447353529844,1031,275,0,0,0,3,1,2,4,0002-00-0001-06.png,0005-00-0000-76.png
00000009,354,0,1447353530840,1447353530927,913,462,0,0,0,1,3,2,4,0005-00-0000-53.png,0002-00-0000-05.png
00000009,355,1,1447353534058,1447353534625,506,258,0,0,0,0,3,3,3,0001-00-0000-87.png,0002-00-0001-14.png
00000009,356,1,1447353535510,1447353535747,899,541,0,0,0,3,0,3,3,0002-00-0000-36.png,0001-00-0001-18.png
00000009,357,0,1447353536823,1447353536839,872,389,0,0,0,2,3,1,5,0003-00-0000-37.png,0002-00-0001-80.png
00000009,358,0,1447353539736,1447353539772,927,392,0,0,0,1,2,1,3,0005-00-0001-03.png,0003-00-0000-25.png
00000009,359,0,1447353542912,1447353542995,883,283,0,0,0,1,4,3,5,0005-00-0001-29.png,0004-00-0000-48.png
00000009,360,0,1447353546006,1447353546564,388,349,0,0,0,2,1,1,3,0003-00-0000-44.png,0005-00-0001-04.png
00000009,361,1,1447353549689,1447353550185,1059,286,0,0,0,4,0,4,4,0004-00-0000-45.png,0001-00-0000-98.png
00000009,362,0,1447353551063,1447353551170,888,462,0,0,0,1,2,1,3,0005-00-0000-31.png,0003-00-0000-88.png
00000009,363,1,1447353554045,1447353554057,893,380,0,0,0,2,0,2,2,0003-00-0001-08.png,0001-00-0000-58.png
00000009,364,0,1447353555007,1447353555063,862,421,0,0,0,0,4,4,4,0001-00-0001-40.png,0004-00-0001-08.png
00000009,365,1,1447353558246,1447353558812,964,401,0,0,0,3,1,2,4,0002-00-0001-53.png,0005-00-0001-84.png
00000009,366,0,1447353559656,1447353559748,873,410,0,0,0,1,4,3,5,0005-00-0000-33.png,0004-00-0000-67.png
00000009,367,1,1447353562896,1447353563395,509,269,0,0,0,3,4,1,7,0002-00-0001-93.png,0004-00-0000-73.png
00000009,368,1,1447353564278,1447353564412,913,462,0,0,0,3,0,3,3,0002-00-0000-40.png,0001-00-0000-52.png
00000009,369,1,1447353565601,1447353565665,862,462,0,0,0,2,1,1,3,0003-00-0001-19.png,0005-00-0001-16.png
00000009,370,0,1447353566732,1447353566808,859,478,0,0,0,0,3,3,3,0001-00-0001-48.png,0002-00-0000-94.png
00000009,371,1,1447353569944,1447353570490,478,262,0,0,0,0,1,1,1,0001-00-0001-20.png,0005-00-0000-34.png
00000009,372,1,1447353571812,1447353572524,503,255,0,0,0,1,3,2,4,0005-00-0001-35.png,0002-00-0000-72.png
00000009,373,0,1447353573412,1447353574153,416,322,0,0,0,3,2,1,5,0002-00-0000-76.png,0003-00-0000-47.png
00000009,374,1,1447353577018,1447353577620,955,418,0,0,0,1,0,1,1,0005-00-0000-59.png,0001-00-0000-67.png
00000009,375,1,1447353578997,1447353579651,426,339,0,0,0,2,4,2,6,0003-00-0001-75.png,0004-00-0000-74.png
00000009,376,1,1447353580647,1447353580703,888,452,0,0,0,4,3,1,7,0004-00-0000-64.png,0002-00-0000-68.png
00000009,377,1,1447353581763,1447353582569,449,262,0,0,0,0,2,2,2,0001-00-0001-68.png,0003-00-0000-08.png
00000009,378,1,1447353583540,1447353584490,481,261,0,0,0,2,3,1,5,0003-00-0001-38.png,0002-00-0000-57.png
00000009,379,1,1447353585485,1447353586368,1045,301,0,0,0,4,2,2,6,0004-00-0000-58.png,0003-00-0000-05.png
00000009,380,1,1447353587408,1447353587449,884,439,0,0,0,4,1,3,5,0004-00-0000-40.png,0005-00-0000-25.png
00000009,381,1,1447353588634,1447353588654,884,492,0,0,0,2,0,2,2,0003-00-0000-76.png,0001-00-0000-28.png
00000009,382,0,1447353589740,1447353589788,862,504,0,0,0,2,3,1,5,0003-00-0000-69.png,0002-00-0000-45.png
00000009,383,0,1447353592949,1447353593597,1066,280,0,0,0,1,2,1,3,0005-00-0001-36.png,0003-00-0000-88.png
00000009,384,0,1447353596563,1447353596583,862,358,0,0,0,0,4,4,4,0001-00-0000-50.png,0004-00-0001-00.png
00000009,385,1,1447353599706,1447353599754,904,334,0,0,0,4,3,1,7,0004-00-0001-63.png,0002-00-0001-32.png
00000009,386,1,1447353600652,1447353601332,514,240,0,0,0,0,3,3,3,0001-00-0001-05.png,0002-00-0001-02.png
00000009,387,0,1447353602190,1447353603448,484,242,0,0,0,4,2,2,6,0004-00-0001-67.png,0003-00-0001-43.png
00000009,388,1,1447353606483,1447353607020,950,395,0,0,0,2,1,1,3,0003-00-0001-28.png,0005-00-0001-86.png
00000009,389,1,1447353607875,1447353607903,884,426,0,0,0,3,0,3,3,0002-00-0001-84.png,0001-00-0000-44.png
00000009,390,0,1447353608948,1447353609004,869,460,0,0,0,1,4,3,5,0005-00-0000-70.png,0004-00-0001-63.png
00000009,391,0,1447353611849,1447353611857,908,389,0,0,0,1,3,2,4,0005-00-0000-68.png,0002-00-0001-49.png
00000009,392,0,1447353614742,1447353614750,889,383,0,0,0,0,1,1,1,0001-00-0000-46.png,0005-00-0001-59.png
00000009,393,1,1447353617732,1447353617788,862,358,0,0,0,4,1,3,5,0004-00-0000-14.png,0005-00-0001-04.png
00000009,394,1,1447353618677,1447353619346,487,263,0,0,0,3,4,1,7,0002-00-0000-40.png,0004-00-0001-21.png
00000009,395,1,1447353620317,1447353621055,946,335,0,0,0,4,0,4,4,0004-00-0000-62.png,0001-00-0001-67.png
00000009,396,1,1447353621933,1447353621993,918,373,0,0,0,1,0,1,1,0005-00-0001-63.png,0001-00-0001-55.png
00000009,397,1,1447353623262,1447353623322,876,530,0,0,0,3,1,2,4,0002-00-0000-08.png,0005-00-0000-58.png
00000009,398,1,1447353624373,1447353624554,886,493,0,0,0,3,2,1,5,0002-00-0001-14.png,0003-00-0000-53.png
00000009,399,0,1447353625781,1447353625847,888,478,0,0,0,2,4,2,6,0003-00-0001-07.png,0004-00-0000-08.png
00000009,400,0,1447353628942,1447353628965,866,345,0,0,0,0,2,2,2,0001-00-0000-65.png,0003-00-0001-69.png
00000009,401,0,1447353631912,1447353632371,478,290,0,0,0,1,0,1,1,0005-00-0000-08.png,0001-00-0001-68.png
00000009,402,1,1447353635389,1447353635905,964,397,0,0,0,2,1,1,3,0003-00-0001-71.png,0005-00-0001-70.png
00000009,403,1,1447353637201,1447353637744,466,264,0,0,0,0,3,3,3,0001-00-0001-12.png,0002-00-0001-14.png
00000009,404,1,1447353638640,1447353639483,913,337,0,0,0,2,0,2,2,0003-00-0000-08.png,0001-00-0000-84.png
00000009,405,1,1447353640459,1447353641160,949,354,0,0,0,4,0,4,4,0004-00-0000-68.png,0001-00-0001-21.png
00000009,406,1,1447353642119,1447353642155,888,410,0,0,0,4,1,3,5,0004-00-0000-37.png,0005-00-0000-87.png
00000009,407,0,1447353643294,1447353644185,929,350,0,0,0,2,4,2,6,0003-00-0001-74.png,0004-00-0001-78.png
00000009,408,1,1447353647303,1447353648158,502,256,0,0,0,1,3,2,4,0005-00-0000-88.png,0002-00-0001-30.png
00000009,409,1,1447353648991,1447353649604,498,262,0,0,0,3,4,1,7,0002-00-0000-36.png,0004-00-0001-31.png
00000009,410,0,1447353650556,1447353651378,925,363,0,0,0,2,3,1,5,0003-00-0001-53.png,0002-00-0001-81.png
00000009,411,0,1447353654580,1447353654604,872,306,0,0,0,0,4,4,4,0001-00-0000-04.png,0004-00-0001-55.png
00000009,412,1,1447353657611,1447353658176,1084,297,0,0,0,3,2,1,5,0002-00-0000-97.png,0003-00-0000-33.png
00000009,413,0,1447353659046,1447353659110,862,474,0,0,0,1,2,1,3,0005-00-0001-19.png,0003-00-0001-15.png
00000009,414,1,1447353662059,1447353662649,1037,290,0,0,0,4,2,2,6,0004-00-0000-71.png,0003-00-0001-39.png
00000009,415,1,1447353663513,1447353663639,868,502,0,0,0,4,3,1,7,0004-00-0000-91.png,0002-00-0000-70.png
00000009,416,0,1447353664716,1447353665431,496,250,0,0,0,3,0,3,3,0002-00-0000-52.png,0001-00-0001-87.png
00000009,417,1,1447353668589,1447353669104,1047,279,0,0,0,3,1,2,4,0002-00-0000-44.png,0005-00-0000-63.png
00000009,418,1,1447353670426,1447353671043,511,269,0,0,0,1,4,3,5,0005-00-0001-24.png,0004-00-0001-04.png
00000009,419,1,1447353671990,1447353672813,504,239,0,0,0,0,1,1,1,0001-00-0001-85.png,0005-00-0000-30.png
00000009,420,0,1447353673983,1447353674040,862,462,0,0,0,0,2,2,2,0001-00-0001-53.png,0003-00-0001-07.png
00000009,421,1,1447353676918,1447353676946,891,358,0,0,0,2,1,1,3,0003-00-0000-69.png,0005-00-0000-79.png
00000009,422,1,1447353677884,1447353677926,860,464,0,0,0,1,0,1,1,0005-00-0001-00.png,0001-00-0001-27.png
00000009,423,1,1447353678976,1447353679749,469,338,0,0,0,1,3,2,4,0005-00-0001-00.png,0002-00-0000-18.png
00000009,424,1,1447353680860,1447353681605,922,328,0,0,0,4,0,4,4,0004-00-0001-28.png,0001-00-0001-31.png
00000009,425,1,1447353683122,1447353683163,873,462,0,0,0,4,2,2,6,0004-00-0001-97.png,0003-00-0000-39.png
00000009,426,0,1447353684322,1447353684412,879,496,0,0,0,0,3,3,3,0001-00-0001-55.png,0002-00-0001-80.png
00000009,427,1,1447353687290,1447353687796,507,260,0,0,0,0,4,4,4,0001-00-0001-59.png,0004-00-0000-06.png
00000009,428,1,1447353688631,1447353689297,923,328,0,0,0,2,0,2,2,0003-00-0000-87.png,0001-00-0001-59.png
00000009,429,0,1447353690193,1447353690209,926,452,0,0,0,2,4,2,6,0003-00-0001-82.png,0004-00-0001-48.png
00000009,430,1,1447353693343,1447353693363,898,324,0,0,0,4,3,1,7,0004-00-0001-98.png,0002-00-0001-99.png
00000009,431,1,1447353694785,1447353695413,963,305,0,0,0,3,1,2,4,0002-00-0000-70.png,0005-00-0000-03.png
00000009,432,0,1447353696274,1447353696397,888,488,0,0,0,3,4,1,7,0002-00-0001-18.png,0004-00-0000-15.png
00000009,433,1,1447353699264,1447353699762,1041,291,0,0,0,4,1,3,5,0004-00-0001-24.png,0005-00-0000-19.png
00000009,434,1,1447353701074,1447353701606,470,314,0,0,0,1,2,1,3,0005-00-0001-85.png,0003-00-0001-73.png
00000009,435,0,1447353702508,1447353703394,1027,322,0,0,0,0,2,2,2,0001-00-0000-01.png,0003-00-0000-87.png
00000009,436,0,1447353706321,1447353706446,913,384,0,0,0,2,3,1,5,0003-00-0001-98.png,0002-00-0000-15.png
00000009,437,1,1447353709279,1447353709766,1041,269,0,0,0,3,0,3,3,0002-00-0000-53.png,0001-00-0000-05.png
00000009,438,0,1447353710611,1447353710675,863,439,0,0,0,1,4,3,5,0005-00-0001-31.png,0004-00-0001-84.png
00000009,439,1,1447353713880,1447353713912,917,306,0,0,0,3,2,1,5,0002-00-0000-65.png,0003-00-0001-17.png
00000009,440,1,1447353714829,1447353715495,514,225,0,0,0,0,1,1,1,0001-00-0000-67.png,0005-00-0001-27.png
00000009,441,1,1447353716428,1447353717073,495,280,0,0,0,0,4,4,4,0001-00-0001-79.png,0004-00-0001-68.png
00000009,442,1,1447353717989,1447353719177,906,346,0,0,0,4,1,3,5,0004-00-0000-70.png,0005-00-0000-77.png
00000009,443,1,1447353720155,1447353721078,496,235,0,0,0,3,4,1,7,0002-00-0000-29.png,0004-00-0001-77.png
00000009,444,1,1447353722004,1447353722716,921,375,0,0,0,4,0,4,4,0004-00-0001-45.png,0001-00-0001-73.png
00000009,445,1,1447353724596,1447353725507,496,260,0,0,0,2,4,2,6,0003-00-0001-42.png,0004-00-0001-40.png
00000009,446,1,1447353726455,1447353726483,858,420,0,0,0,4,2,2,6,0004-00-0000-30.png,0003-00-0001-72.png
00000009,447,1,1447353727579,1447353727595,860,495,0,0,0,3,0,3,3,0002-00-0000-38.png,0001-00-0001-95.png
00000009,448,1,1447353728721,1447353728785,888,488,0,0,0,2,0,2,2,0003-00-0000-36.png,0001-00-0000-40.png
00000009,449,1,1447353730191,1447353730266,888,503,0,0,0,3,1,2,4,0002-00-0000-19.png,0005-00-0000-41.png
00000009,450,1,1447353731363,1447353731399,862,452,0,0,0,1,0,1,1,0005-00-0001-25.png,0001-00-0000-16.png
00000009,451,0,1447353732496,1447353732540,876,488,0,0,0,2,3,1,5,0003-00-0000-06.png,0002-00-0000-93.png
00000009,452,0,1447353735527,1447353736019,499,270,0,0,0,3,2,1,5,0002-00-0001-73.png,0003-00-0000-91.png
00000009,453,1,1447353739114,1447353739661,1033,283,0,0,0,4,3,1,7,0004-00-0000-38.png,0002-00-0001-82.png
00000009,454,1,1447353740546,1447353741379,480,234,0,0,0,1,2,1,3,0005-00-0001-35.png,0003-00-0000-49.png
00000009,455,1,1447353742345,1447353742978,493,267,0,0,0,0,1,1,1,0001-00-0001-32.png,0005-00-0000-15.png
00000009,456,1,1447353743912,1447353744751,445,365,0,0,0,1,4,3,5,0005-00-0000-57.png,0004-00-0001-79.png
00000009,457,1,1447353745661,1447353746394,504,265,0,0,0,1,3,2,4,0005-00-0001-04.png,0002-00-0000-34.png
00000009,458,1,1447353747322,1447353748006,522,262,0,0,0,0,2,2,2,0001-00-0000-33.png,0003-00-0001-73.png
00000009,459,1,1447353749010,1447353749747,514,267,0,0,0,0,3,3,3,0001-00-0000-30.png,0002-00-0001-57.png
00000009,460,1,1447353750622,1447353750702,874,462,0,0,0,2,1,1,3,0003-00-0001-96.png,0005-00-0000-51.png
00000009,461,0,1447353751888,1447353752876,1032,306,0,0,0,1,3,2,4,0005-00-0000-49.png,0002-00-0000-89.png
00000009,462,0,1447353756009,1447353756505,1067,306,0,0,0,2,4,2,6,0003-00-0000-83.png,0004-00-0000-95.png
00000009,463,1,1447353759595,1447353759619,955,350,0,0,0,4,2,2,6,0004-00-0001-09.png,0003-00-0000-17.png
00000009,464,1,1447353760548,1447353761123,465,265,0,0,0,0,4,4,4,0001-00-0000-34.png,0004-00-0000-51.png
00000009,465,0,1447353762008,1447353763044,1055,306,0,0,0,2,3,1,5,0003-00-0001-40.png,0002-00-0000-97.png
00000009,466,1,1447353766012,1447353766458,965,329,0,0,0,3,0,3,3,0002-00-0001-11.png,0001-00-0001-21.png
00000009,467,0,1447353767883,1447353768119,862,533,0,0,0,0,2,2,2,0001-00-0001-37.png,0003-00-0001-30.png
00000009,468,1,1447353771322,1447353771922,515,242,0,0,0,3,4,1,7,0002-00-0001-21.png,0004-00-0000-44.png
00000009,469,0,1447353772810,1447353773475,514,253,0,0,0,4,3,1,7,0004-00-0001-52.png,0002-00-0001-46.png
00000009,470,1,1447353776527,1447353776563,957,362,0,0,0,3,1,2,4,0002-00-0000-47.png,0005-00-0001-04.png
00000009,471,1,1447353777502,1447353778106,495,259,0,0,0,1,2,1,3,0005-00-0001-26.png,0003-00-0000-96.png
00000009,472,1,1447353779051,1447353779264,862,488,0,0,0,4,0,4,4,0004-00-0000-08.png,0001-00-0001-99.png
00000009,473,0,1447353780424,1447353780488,880,493,0,0,0,1,4,3,5,0005-00-0001-94.png,0004-00-0001-11.png
00000009,474,1,1447353783434,1447353783912,962,335,0,0,0,4,1,3,5,0004-00-0001-13.png,0005-00-0001-00.png
00000009,475,0,1447353784780,1447353784800,882,467,0,0,0,0,1,1,1,0001-00-0000-07.png,0005-00-0001-33.png
00000009,476,1,1447353787964,1447353788640,959,341,0,0,0,2,0,2,2,0003-00-0001-07.png,0001-00-0000-57.png
00000009,477,1,1447353789480,1447353789512,886,429,0,0,0,1,0,1,1,0005-00-0000-57.png,0001-00-0000-65.png
00000009,478,0,1447353790498,1447353790534,860,460,0,0,0,0,3,3,3,0001-00-0000-16.png,0002-00-0000-16.png
00000009,479,1,1447353793668,1447353794193,964,393,0,0,0,2,1,1,3,0003-00-0001-76.png,0005-00-0000-37.png
00000009,480,1,1447353795052,1447353795098,885,426,0,0,0,3,2,1,5,0002-00-0001-33.png,0003-00-0001-84.png
00000009,481,1,1447353796111,1447353796236,866,525,0,0,0,3,1,2,4,0002-00-0000-14.png,0005-00-0001-62.png
00000009,482,0,1447353797295,1447353797420,901,466,0,0,0,1,3,2,4,0005-00-0000-09.png,0002-00-0000-35.png
00000009,483,1,1447353800367,1447353800874,939,344,0,0,0,2,1,1,3,0003-00-0001-47.png,0005-00-0001-13.png
00000009,484,1,1447353801747,1447353801849,883,470,0,0,0,3,0,3,3,0002-00-0001-96.png,0001-00-0001-59.png
00000009,485,1,1447353802943,1447353803044,881,456,0,0,0,4,3,1,7,0004-00-0000-59.png,0002-00-0000-31.png
00000009,486,1,1447353804023,1447353804088,868,452,0,0,0,4,1,3,5,0004-00-0000-05.png,0005-00-0001-16.png
00000009,487,0,1447353805431,1447353805508,882,491,0,0,0,1,2,1,3,0005-00-0000-24.png,0003-00-0001-15.png
00000009,488,1,1447353808703,1447353808723,904,331,0,0,0,3,2,1,5,0002-00-0000-28.png,0003-00-0000-68.png
00000009,489,1,1447353809628,1447353810302,495,251,0,0,0,0,1,1,1,0001-00-0001-61.png,0005-00-0001-87.png
00000009,490,1,1447353811135,1447353811280,862,477,0,0,0,4,2,2,6,0004-00-0001-90.png,0003-00-0001-04.png
00000009,491,0,1447353812381,1447353812405,870,453,0,0,0,0,4,4,4,0001-00-0001-92.png,0004-00-0001-02.png
00000009,492,1,1447353815341,1447353815930,496,261,0,0,0,3,4,1,7,0002-00-0001-45.png,0004-00-0001-19.png
00000009,493,1,1447353816761,1447353817507,1055,291,0,0,0,1,0,1,1,0005-00-0001-46.png,0001-00-0001-59.png
00000009,494,0,1447353818338,1447353818429,885,493,0,0,0,0,2,2,2,0001-00-0000-06.png,0003-00-0000-23.png
00000009,495,1,1447353821441,1447353822100,511,262,0,0,0,0,3,3,3,0001-00-0001-10.png,0002-00-0000-16.png
00000009,496,0,1447353822930,1447353823723,945,363,0,0,0,2,3,1,5,0003-00-0000-64.png,0002-00-0001-07.png
00000009,497,0,1447353826575,1447353827057,1051,277,0,0,0,2,4,2,6,0003-00-0000-62.png,0004-00-0000-37.png
00000009,498,1,1447353830096,1447353830754,940,386,0,0,0,2,0,2,2,0003-00-0001-55.png,0001-00-0000-14.png
00000009,499,0,1447353832105,1447353832719,396,358,0,0,0,4,0,4,4,0004-00-0001-42.png,0001-00-0001-40.png
00000009,500,0,1447353835920,1447353836446,1041,262,0,0,0,1,4,3,5,0005-00-0001-73.png,0004-00-0000-66.png
00000009,501,1,1447353839637,1447353840511,983,316,0,0,0,1,0,1,1,0005-00-0001-70.png,0001-00-0000-54.png
00000009,502,0,1447353841442,1447353841478,860,446,0,0,0,0,4,4,4,0001-00-0001-92.png,0004-00-0000-70.png
00000009,503,0,1447353844676,1447353844704,865,321,0,0,0,1,3,2,4,0005-00-0001-93.png,0002-00-0001-87.png
00000009,504,1,1447353847837,1447353848362,1063,278,0,0,0,4,3,1,7,0004-00-0000-91.png,0002-00-0001-92.png
00000009,505,1,1447353849266,1447353850043,452,338,0,0,0,0,1,1,1,0001-00-0001-00.png,0005-00-0001-17.png
00000009,506,1,1447353850975,1447353851777,1045,276,0,0,0,3,1,2,4,0002-00-0001-90.png,0005-00-0000-88.png
00000009,507,1,1447353852784,1447353853506,495,232,0,0,0,0,2,2,2,0001-00-0001-11.png,0003-00-0001-79.png
00000009,508,1,1447353854515,1447353855187,495,313,0,0,0,2,3,1,5,0003-00-0000-56.png,0002-00-0001-74.png
00000009,509,1,1447353856252,1447353857200,1169,384,0,0,0,2,0,2,2,0003-00-0000-09.png,0001-00-0000-22.png
00000009,510,0,1447353858091,1447353858099,858,415,0,0,0,1,4,3,5,0005-00-0000-15.png,0004-00-0001-43.png
00000009,511,0,1447353860979,1447353861010,904,380,0,0,0,0,3,3,3,0001-00-0000-79.png,0002-00-0000-21.png
00000009,512,0,1447353864192,1447353864763,1069,262,0,0,0,3,4,1,7,0002-00-0001-64.png,0004-00-0001-32.png
00000009,513,1,1447353867927,1447353868445,1043,283,0,0,0,4,1,3,5,0004-00-0000-03.png,0005-00-0001-51.png
00000009,514,1,1447353869311,1447353869427,888,462,0,0,0,3,2,1,5,0002-00-0000-68.png,0003-00-0000-89.png
00000009,515,0,1447353870455,1447353871154,376,379,0,0,0,3,0,3,3,0002-00-0001-33.png,0001-00-0001-52.png
00000009,516,1,1447353874288,1447353874882,1063,280,0,0,0,4,2,2,6,0004-00-0000-99.png,0003-00-0001-00.png
00000009,517,1,1447353876196,1447353876940,929,364,0,0,0,2,1,1,3,0003-00-0000-65.png,0005-00-0000-98.png
00000009,518,0,1447353877773,1447353877845,862,384,0,0,0,2,4,2,6,0003-00-0000-60.png,0004-00-0001-62.png
00000009,519,0,1447353880815,1447353880882,891,355,0,0,0,1,2,1,3,0005-00-0000-89.png,0003-00-0001-48.png
00000009,520,1,1447353884047,1447353884611,1067,279,0,0,0,4,0,4,4,0004-00-0000-85.png,0001-00-0001-19.png
00000009,521,1,1447353885906,1447353886809,466,238,0,0,0,2,3,1,5,0003-00-0000-33.png,0002-00-0000-02.png
00000009,522,0,1447353887660,1447353888533,408,322,0,0,0,1,0,1,1,0005-00-0001-89.png,0001-00-0000-94.png
00000009,523,1,1447353891558,1447353892010,963,308,0,0,0,2,0,2,2,0003-00-0001-54.png,0001-00-0000-78.png
00000009,524,1,1447353892910,1447353893584,936,331,0,0,0,4,0,4,4,0004-00-0000-81.png,0001-00-0000-14.png
00000009,525,0,1447353894468,1447353894606,883,460,0,0,0,0,4,4,4,0001-00-0001-22.png,0004-00-0001-07.png
00000009,526,1,1447353897667,1447353897708,877,306,0,0,0,3,2,1,5,0002-00-0000-81.png,0003-00-0000-33.png
00000009,527,0,1447353898637,1447353898653,865,438,0,0,0,3,4,1,7,0002-00-0001-14.png,0004-00-0000-31.png
00000009,528,1,1447353901606,1447353902088,392,352,0,0,0,0,3,3,3,0001-00-0000-14.png,0002-00-0000-35.png
00000009,529,0,1447353902923,1447353903546,416,364,0,0,0,4,2,2,6,0004-00-0001-19.png,0003-00-0001-09.png
00000009,530,1,1447353906643,1447353907136,1067,279,0,0,0,4,1,3,5,0004-00-0000-77.png,0005-00-0001-98.png
00000009,531,1,1447353908011,1447353908621,466,265,0,0,0,1,2,1,3,0005-00-0000-08.png,0003-00-0001-40.png
00000009,532,0,1447353909504,1447353910297,516,242,0,0,0,3,0,3,3,0002-00-0000-34.png,0001-00-0000-77.png
00000009,533,1,1447353913172,1447353913638,1040,279,0,0,0,3,1,2,4,0002-00-0001-71.png,0005-00-0000-90.png
00000009,534,0,1447353914472,1447353914665,894,491,0,0,0,0,1,1,1,0001-00-0001-09.png,0005-00-0000-43.png
00000009,535,1,1447353917612,1447353918278,943,328,0,0,0,4,3,1,7,0004-00-0000-78.png,0002-00-0001-87.png
00000009,536,0,1447353919112,1447353919140,862,431,0,0,0,2,4,2,6,0003-00-0000-38.png,0004-00-0001-09.png
00000009,537,0,1447353922284,1447353922308,910,315,0,0,0,0,2,2,2,0001-00-0001-78.png,0003-00-0000-13.png
00000009,538,1,1447353925224,1447353925684,1053,258,0,0,0,2,1,1,3,0003-00-0000-70.png,0005-00-0001-24.png
00000009,539,1,1447353927026,1447353927824,471,262,0,0,0,1,3,2,4,0005-00-0001-83.png,0002-00-0000-77.png
00000009,540,0,1447353928692,1447353929585,955,324,0,0,0,1,4,3,5,0005-00-0000-08.png,0004-00-0000-63.png
00000009,541,1,1447353932688,1447353932704,862,332,0,0,0,1,0,1,1,0005-00-0001-96.png,0001-00-0001-25.png
00000009,542,1,1447353933592,1447353934203,510,270,0,0,0,0,2,2,2,0001-00-0001-68.png,0003-00-0000-07.png
00000009,543,0,1447353935212,1447353935990,387,391,0,0,0,3,1,2,4,0002-00-0000-46.png,0005-00-0000-44.png
00000009,544,1,1447353938880,1447353939376,1041,282,0,0,0,4,0,4,4,0004-00-0001-58.png,0001-00-0000-08.png
00000009,545,1,1447353940232,1447353940284,883,462,0,0,0,4,2,2,6,0004-00-0000-85.png,0003-00-0001-57.png
00000009,546,1,1447353941266,1447353942452,509,248,0,0,0,3,4,1,7,0002-00-0001-00.png,0004-00-0001-77.png
00000009,547,1,1447353943391,1447353944330,1054,288,0,0,0,4,1,3,5,0004-00-0000-85.png,0005-00-0000-09.png
00000009,548,0,1447353945300,1447353945316,911,413,0,0,0,2,3,1,5,0003-00-0001-06.png,0002-00-0000-95.png
00000009,549,0,1447353948272,1447353948715,1067,279,0,0,0,1,4,3,5,0005-00-0001-94.png,0004-00-0001-43.png
00000009,550,1,1447353951849,1447353951886,893,329,0,0,0,3,0,3,3,0002-00-0001-27.png,0001-00-0001-09.png
00000009,551,1,1447353952728,1447353953551,932,317,0,0,0,2,0,2,2,0003-00-0000-17.png,0001-00-0000-40.png
00000009,552,1,1447353954523,1447353955456,496,260,0,0,0,1,3,2,4,0005-00-0001-68.png,0002-00-0000-69.png
00000009,553,1,1447353956430,1447353957297,485,241,0,0,0,2,4,2,6,0003-00-0000-33.png,0004-00-0001-88.png
00000009,554,0,1447353958247,1447353958377,871,447,0,0,0,0,4,4,4,0001-00-0001-31.png,0004-00-0000-37.png
00000009,555,1,1447353961207,1447353961856,501,278,0,0,0,0,1,1,1,0001-00-0001-41.png,0005-00-0001-66.png
00000009,556,1,1447353962708,1447353963457,918,324,0,0,0,2,1,1,3,0003-00-0001-18.png,0005-00-0000-23.png
00000009,557,0,1447353964368,1447353964425,868,419,0,0,0,0,3,3,3,0001-00-0000-62.png,0002-00-0000-43.png
00000009,558,1,1447353967550,1447353968131,964,384,0,0,0,4,3,1,7,0004-00-0001-66.png,0002-00-0001-43.png
00000009,559,0,1447353968964,1447353969654,442,354,0,0,0,3,2,1,5,0002-00-0001-64.png,0003-00-0001-46.png
00000009,560,1,1447353972646,1447353973136,491,263,0,0,0,1,2,1,3,0005-00-0000-54.png,0003-00-0001-56.png
00000009,561,0,1447353973997,1447353975283,485,243,0,0,0,4,2,2,6,0004-00-0001-90.png,0003-00-0001-51.png
00000009,562,1,1447353978467,1447353978940,965,313,0,0,0,3,1,2,4,0002-00-0000-60.png,0005-00-0001-98.png
00000009,563,1,1447353980299,1447353980403,886,460,0,0,0,2,1,1,3,0003-00-0000-21.png,0005-00-0000-84.png
00000009,564,1,1447353981422,1447353982232,940,318,0,0,0,4,1,3,5,0004-00-0001-41.png,0005-00-0000-57.png
00000009,565,1,1447353983251,1447353983295,862,431,0,0,0,3,2,1,5,0002-00-0001-03.png,0003-00-0000-61.png
00000009,566,0,1447353984489,1447353985488,484,253,0,0,0,2,0,2,2,0003-00-0001-82.png,0001-00-0001-50.png
00000009,567,1,1447353988585,1447353988609,898,332,0,0,0,4,0,4,4,0004-00-0001-76.png,0001-00-0001-87.png
00000009,568,0,1447353989576,1447353990454,1016,301,0,0,0,2,4,2,6,0003-00-0001-12.png,0004-00-0001-68.png
00000009,569,1,1447353993525,1447353994049,964,322,0,0,0,4,3,1,7,0004-00-0000-45.png,0002-00-0001-94.png
00000009,570,1,1447353994915,1447353995623,514,263,0,0,0,1,3,2,4,0005-00-0001-16.png,0002-00-0001-74.png
00000009,571,0,1447353996479,1447353997286,962,346,0,0,0,0,1,1,1,0001-00-0001-83.png,0005-00-0000-27.png
00000009,572,0,1447354000120,1447354000152,862,419,0,0,0,3,4,1,7,0002-00-0001-19.png,0004-00-0000-87.png
00000009,573,1,1447354002999,1447354003489,963,333,0,0,0,3,0,3,3,0002-00-0001-74.png,0001-00-0000-37.png
00000009,574,0,1447354004322,1447354004507,887,493,0,0,0,0,4,4,4,0001-00-0001-05.png,0004-00-0000-95.png
00000009,575,1,1447354007625,1447354007645,862,358,0,0,0,1,0,1,1,0005-00-0000-57.png,0001-00-0000-02.png
00000009,576,1,1447354008593,1447354009425,489,272,0,0,0,0,2,2,2,0001-00-0001-75.png,0003-00-0001-47.png
00000009,577,0,1447354010329,1447354011220,1044,276,0,0,0,2,3,1,5,0003-00-0001-48.png,0002-00-0001-09.png
00000009,578,0,1447354014314,1447354014427,867,291,0,0,0,1,2,1,3,0005-00-0000-59.png,0003-00-0001-91.png
00000009,579,1,1447354017319,1447354017971,502,263,0,0,0,1,4,3,5,0005-00-0000-35.png,0004-00-0000-53.png
00000009,580,1,1447354019346,1447354019885,503,252,0,0,0,0,3,3,3,0001-00-0000-21.png,0002-00-0000-45.png
00000009,581,1,1447354020760,1447354021825,1064,278,0,0,0,3,2,1,5,0002-00-0000-25.png,0003-00-0001-13.png
00000009,582,0,1447354022811,1447354022855,862,410,0,0,0,3,4,1,7,0002-00-0001-97.png,0004-00-0000-80.png
00000009,583,1,1447354025911,1447354026432,964,394,0,0,0,4,1,3,5,0004-00-0001-91.png,0005-00-0000-30.png
00000009,584,0,1447354027770,1447354028383,505,306,0,0,0,2,1,1,3,0003-00-0001-66.png,0005-00-0001-99.png
00000009,585,1,1447354031535,1447354032055,1049,281,0,0,0,3,0,3,3,0002-00-0000-59.png,0001-00-0000-53.png
00000009,586,0,1447354032986,1447354033844,939,384,0,0,0,2,3,1,5,0003-00-0001-44.png,0002-00-0001-23.png
00000009,587,1,1447354036667,1447354037276,413,332,0,0,0,0,3,3,3,0001-00-0001-50.png,0002-00-0001-02.png
00000009,588,0,1447354038122,1447354038154,866,415,0,0,0,0,4,4,4,0001-00-0000-71.png,0004-00-0001-53.png
00000009,589,1,1447354041263,1447354041748,1052,272,0,0,0,2,0,2,2,0003-00-0000-89.png,0001-00-0000-89.png
00000009,590,1,1447354042626,1447354043251,475,274,0,0,0,0,2,2,2,0001-00-0000-57.png,0003-00-0001-45.png
00000009,591,1,1447354044188,1447354045073,502,245,0,0,0,0,1,1,1,0001-00-0000-61.png,0005-00-0001-45.png
00000009,592,1,1447354046150,1447354047261,503,270,0,0,0,1,2,1,3,0005-00-0000-09.png,0003-00-0000-04.png
00000009,593,1,1447354048201,1447354049165,1033,279,0,0,0,3,1,2,4,0002-00-0000-17.png,0005-00-0001-72.png
00000009,594,0,1447354050036,1447354051120,519,285,0,0,0,4,3,1,7,0004-00-0001-11.png,0002-00-0001-48.png
00000009,595,1,1447354054298,1447354054834,939,427,0,0,0,1,0,1,1,0005-00-0001-04.png,0001-00-0000-09.png
00000009,596,1,1447354055690,1447354056777,962,336,0,0,0,4,2,2,6,0004-00-0000-97.png,0003-00-0000-17.png
00000009,597,0,1447354057761,1447354057832,862,453,0,0,0,2,4,2,6,0003-00-0001-60.png,0004-00-0000-58.png
00000009,598,1,1447354061009,1447354061545,413,384,0,0,0,1,4,3,5,0005-00-0000-68.png,0004-00-0000-04.png
00000009,599,1,1447354062402,1447354063435,1046,283,0,0,0,4,0,4,4,0004-00-0000-64.png,0001-00-0000-74.png
00000009,600,0,1447354064326,1447354064358,884,383,0,0,0,1,3,2,4,0005-00-0000-43.png,0002-00-0000-28.png
00000009,601,0,1447354067537,1447354068072,976,410,0,0,0,0,1,1,1,0001-00-0000-26.png,0005-00-0000-16.png
00000009,602,0,1447354071194,1447354071222,891,308,0,0,0,1,3,2,4,0005-00-0001-80.png,0002-00-0001-71.png
00000009,603,1,1447354074063,1447354074561,478,264,0,0,0,1,4,3,5,0005-00-0001-21.png,0004-00-0001-72.png
00000009,604,1,1447354075402,1447354076257,1037,276,0,0,0,4,1,3,5,0004-00-0001-65.png,0005-00-0000-20.png
00000009,605,1,1447354077169,1447354078229,955,351,0,0,0,1,0,1,1,0005-00-0000-41.png,0001-00-0001-03.png
00000009,606,0,1447354079191,1447354079234,932,394,0,0,0,0,4,4,4,0001-00-0000-00.png,0004-00-0000-66.png
00000009,607,1,1447354082274,1447354082575,1017,311,0,0,0,4,0,4,4,0004-00-0000-33.png,0001-00-0001-96.png
00000009,608,1,1447354083536,1447354084329,418,324,0,0,0,0,3,3,3,0001-00-0001-42.png,0002-00-0001-31.png
00000009,609,1,1447354085303,1447354086685,955,331,0,0,0,3,2,1,5,0002-00-0000-52.png,0003-00-0000-03.png
00000009,610,1,1447354087639,1447354088642,1046,303,0,0,0,2,0,2,2,0003-00-0001-48.png,0001-00-0000-51.png
00000009,611,0,1447354089537,1447354089601,876,436,0,0,0,2,3,1,5,0003-00-0000-18.png,0002-00-0001-97.png
00000009,612,1,1447354092808,1447354093295,453,336,0,0,0,0,2,2,2,0001-00-0001-39.png,0003-00-0000-78.png
00000009,613,0,1447354094177,1447354094960,506,268,0,0,0,4,2,2,6,0004-00-0000-78.png,0003-00-0001-34.png
00000009,614,1,1447354097994,1447354098526,1064,274,0,0,0,3,0,3,3,0002-00-0000-03.png,0001-00-0001-74.png
00000009,615,1,1447354099445,1447354100634,1027,306,0,0,0,2,1,1,3,0003-00-0000-68.png,0005-00-0001-68.png
00000009,616,1,1447354101573,1447354102536,1044,275,0,0,0,3,1,2,4,0002-00-0001-10.png,0005-00-0000-09.png
00000009,617,0,1447354103535,1447354103605,878,459,0,0,0,1,2,1,3,0005-00-0000-07.png,0003-00-0000-74.png
00000009,618,0,1447354106660,1447354106843,888,423,0,0,0,2,4,2,6,0003-00-0000-70.png,0004-00-0000-93.png
00000009,619,1,1447354110307,1447354110843,468,436,0,0,0,3,4,1,7,0002-00-0000-60.png,0004-00-0001-88.png
00000009,620,1,1447354111715,1447354112691,1046,270,0,0,0,4,3,1,7,0004-00-0000-28.png,0002-00-0001-11.png
00000009,621,1,1447354113637,1447354114600,489,256,0,0,0,0,3,3,3,0001-00-0001-01.png,0002-00-0000-34.png
00000009,622,1,1447354115527,1447354115551,870,499,0,0,0,2,1,1,3,0003-00-0000-53.png,0005-00-0001-67.png
00000009,623,0,1447354116716,1447354116814,862,488,0,0,0,3,4,1,7,0002-00-0000-76.png,0004-00-0001-70.png
00000009,624,1,1447354119876,1447354120398,939,350,0,0,0,3,2,1,5,0002-00-0000-71.png,0003-00-0000-15.png
00000009,625,0,1447354121328,1447354121492,888,500,0,0,0,2,4,2,6,0003-00-0000-33.png,0004-00-0001-88.png
00000009,626,0,1447354124415,1447354124427,890,318,0,0,0,0,1,1,1,0001-00-0001-04.png,0005-00-0001-79.png
00000009,627,1,1447354127260,1447354127794,497,261,0,0,0,0,2,2,2,0001-00-0000-91.png,0003-00-0000-90.png
00000009,628,1,1447354128650,1447354129393,483,240,0,0,0,0,4,4,4,0001-00-0000-37.png,0004-00-0001-77.png
00000009,629,0,1447354130340,1447354131263,1024,297,0,0,0,2,3,1,5,0003-00-0000-20.png,0002-00-0001-71.png
00000009,630,1,1447354134315,1447354134844,964,373,0,0,0,4,2,2,6,0004-00-0001-63.png,0003-00-0000-81.png
00000009,631,1,1447354135744,1447354136566,1017,278,0,0,0,3,1,2,4,0002-00-0000-35.png,0005-00-0001-19.png
00000009,632,1,1447354137424,1447354138103,410,348,0,0,0,1,3,2,4,0005-00-0001-27.png,0002-00-0000-78.png
00000009,633,1,1447354139066,1447354139809,516,238,0,0,0,1,4,3,5,0005-00-0000-42.png,0004-00-0001-65.png
00000009,634,1,1447354140816,1447354141648,517,259,0,0,0,1,2,1,3,0005-00-0000-41.png,0003-00-0000-85.png
00000009,635,0,1447354142643,1447354143524,503,262,0,0,0,1,0,1,1,0005-00-0000-17.png,0001-00-0001-80.png
00000009,636,1,1447354146461,1447354146923,1048,280,0,0,0,4,3,1,7,0004-00-0001-50.png,0002-00-0001-41.png
00000009,637,0,1447354147862,1447354148844,411,367,0,0,0,4,0,4,4,0004-00-0001-92.png,0001-00-0000-81.png
00000009,638,1,1447354151974,1447354151999,913,315,0,0,0,2,0,2,2,0003-00-0001-58.png,0001-00-0000-39.png
00000009,639,1,1447354152917,1447354153749,1025,276,0,0,0,4,1,3,5,0004-00-0000-23.png,0005-00-0001-30.png
00000009,640,1,1447354154704,1447354154830,909,503,0,0,0,3,0,3,3,0002-00-0000-30.png,0001-00-0001-18.png
00000009,641,1,1447354155898,1447354155977,879,514,0,0,0,4,1,3,5,0004-00-0000-33.png,0005-00-0001-70.png
00000009,642,0,1447354157049,1447354157127,888,502,0,0,0,3,4,1,7,0002-00-0001-79.png,0004-00-0001-78.png
00000009,643,0,1447354160019,1447354160077,950,358,0,0,0,2,4,2,6,0003-00-0000-81.png,0004-00-0001-70.png
00000009,644,0,1447354163214,1447354163716,1057,279,0,0,0,1,4,3,5,0005-00-0000-49.png,0004-00-0001-92.png
00000009,645,1,1447354166888,1447354167377,1036,281,0,0,0,2,0,2,2,0003-00-0000-05.png,0001-00-0001-54.png
00000009,646,1,1447354168210,1447354168250,862,410,0,0,0,3,0,3,3,0002-00-0000-07.png,0001-00-0001-89.png
00000009,647,1,1447354169243,1447354170006,428,345,0,0,0,0,4,4,4,0001-00-0000-00.png,0004-00-0001-71.png
00000009,648,0,1447354171500,1447354171508,869,403,0,0,0,0,3,3,3,0001-00-0001-43.png,0002-00-0001-83.png
00000009,649,1,1447354174638,1447354175071,969,335,0,0,0,2,1,1,3,0003-00-0000-04.png,0005-00-0001-45.png
00000009,650,1,1447354175931,1447354176763,494,234,0,0,0,0,2,2,2,0001-00-0001-82.png,0003-00-0000-25.png
00000009,651,1,1447354177712,1447354178441,1015,310,0,0,0,4,2,2,6,0004-00-0000-85.png,0003-00-0001-89.png
00000009,652,1,1447354179379,1447354180071,509,242,0,0,0,0,1,1,1,0001-00-0001-21.png,0005-00-0000-47.png
00000009,653,1,1447354181865,1447354181877,888,452,0,0,0,3,2,1,5,0002-00-0001-02.png,0003-00-0001-47.png
00000009,654,1,1447354182946,1447354183778,1050,311,0,0,0,3,1,2,4,0002-00-0000-06.png,0005-00-0000-07.png
00000009,655,0,1447354184837,1447354184928,926,462,0,0,0,1,3,2,4,0005-00-0001-58.png,0002-00-0001-25.png
00000009,656,0,1447354187862,1447354187891,888,396,0,0,0,1,2,1,3,0005-00-0001-82.png,0003-00-0001-64.png
00000009,657,0,1447354191023,1447354191689,444,340,0,0,0,4,3,1,7,0004-00-0001-94.png,0002-00-0001-77.png
00000009,658,1,1447354194684,1447354194718,925,373,0,0,0,4,0,4,4,0004-00-0000-53.png,0001-00-0000-78.png
00000009,659,1,1447354195596,1447354196345,1033,286,0,0,0,1,0,1,1,0005-00-0001-94.png,0001-00-0000-75.png
00000009,660,0,1447354197277,1447354197333,883,412,0,0,0,2,3,1,5,0003-00-0001-83.png,0002-00-0001-98.png
00000009,661,1,1447354200179,1447354200653,1038,271,0,0,0,3,0,3,3,0002-00-0000-64.png,0001-00-0000-90.png
00000009,662,1,1447354201579,1447354202345,511,243,0,0,0,1,2,1,3,0005-00-0001-59.png,0003-00-0001-23.png
00000009,663,1,1447354203269,1447354204055,953,307,0,0,0,4,3,1,7,0004-00-0001-98.png,0002-00-0001-80.png
00000009,664,0,1447354205086,1447354205748,522,261,0,0,0,3,1,2,4,0002-00-0001-69.png,0005-00-0000-76.png
00000009,665,1,1447354208831,1447354209463,461,357,0,0,0,0,3,3,3,0001-00-0001-15.png,0002-00-0000-65.png
00000009,666,1,1447354210313,1447354210992,514,251,0,0,0,1,4,3,5,0005-00-0000-27.png,0004-00-0000-12.png
00000009,667,1,1447354212045,1447354212734,496,299,0,0,0,0,4,4,4,0001-00-0001-86.png,0004-00-0000-11.png
00000009,668,1,1447354213762,1447354213826,862,476,0,0,0,2,1,1,3,0003-00-0000-97.png,0005-00-0001-84.png
00000009,669,1,1447354215073,1447354216459,1028,258,0,0,0,3,2,1,5,0002-00-0001-07.png,0003-00-0000-55.png
00000009,670,0,1447354217348,1447354217411,869,455,0,0,0,0,2,2,2,0001-00-0000-70.png,0003-00-0000-69.png
00000009,671,0,1447354220447,1447354220467,914,386,0,0,0,2,4,2,6,0003-00-0000-66.png,0004-00-0001-02.png
00000009,672,1,1447354223559,1447354224038,419,378,0,0,0,1,3,2,4,0005-00-0000-30.png,0002-00-0001-61.png
00000009,673,0,1447354225497,1447354226198,1032,308,0,0,0,2,3,1,5,0003-00-0000-61.png,0002-00-0000-54.png
00000009,674,1,1447354229226,1447354229748,937,328,0,0,0,1,0,1,1,0005-00-0001-21.png,0001-00-0001-39.png
00000009,675,1,1447354230613,1447354230754,888,514,0,0,0,4,2,2,6,0004-00-0001-37.png,0003-00-0001-72.png
00000009,676,1,1447354231814,1447354232778,905,343,0,0,0,4,1,3,5,0004-00-0000-26.png,0005-00-0001-19.png
00000009,677,1,1447354234223,1447354234298,864,465,0,0,0,4,0,4,4,0004-00-0001-31.png,0001-00-0001-63.png
00000009,678,1,1447354235296,1447354236832,494,259,0,0,0,3,4,1,7,0002-00-0001-18.png,0004-00-0000-20.png
00000009,679,1,1447354237738,1447354238523,1053,301,0,0,0,2,0,2,2,0003-00-0000-06.png,0001-00-0001-35.png
00000009,680,0,1447354239449,1447354239473,862,488,0,0,0,0,1,1,1,0001-00-0000-94.png,0005-00-0001-98.png
00000009,681,1,1447354242588,1447354243275,505,269,0,0,0,3,4,1,7,0002-00-0001-11.png,0004-00-0000-40.png
00000009,682,0,1447354244128,1447354245030,1021,297,0,0,0,2,3,1,5,0003-00-0001-86.png,0002-00-0000-62.png
00000009,683,1,1447354247926,1447354248408,1047,275,0,0,0,2,0,2,2,0003-00-0000-42.png,0001-00-0000-16.png
00000009,684,0,1447354249286,1447354250171,932,346,0,0,0,2,4,2,6,0003-00-0001-81.png,0004-00-0000-70.png
00000009,685,0,1447354253300,1447354253316,908,326,0,0,0,0,4,4,4,0001-00-0001-54.png,0004-00-0000-66.png
00000009,686,1,1447354256452,1447354257056,503,288,0,0,0,0,1,1,1,0001-00-0000-65.png,0005-00-0001-18.png
00000009,687,0,1447354257930,1447354258920,1067,281,0,0,0,1,3,2,4,0005-00-0000-34.png,0002-00-0000-86.png
00000009,688,1,1447354261818,1447354262310,1023,273,0,0,0,4,0,4,4,0004-00-0001-11.png,0001-00-0001-77.png
00000009,689,1,1447354263745,1447354263801,862,410,0,0,0,2,1,1,3,0003-00-0000-58.png,0005-00-0001-44.png
00000009,690,1,1447354264796,1447354266137,432,298,0,0,0,1,2,1,3,0005-00-0001-48.png,0003-00-0001-19.png
00000009,691,1,1447354267042,1447354267780,1049,279,0,0,0,3,0,3,3,0002-00-0001-64.png,0001-00-0001-57.png
00000009,692,0,1447354268724,1447354269418,509,253,0,0,0,3,2,1,5,0002-00-0000-19.png,0003-00-0001-39.png
00000009,693,1,1447354272421,1447354272936,506,248,0,0,0,1,4,3,5,0005-00-0000-18.png,0004-00-0000-20.png
00000009,694,1,1447354273779,1447354274427,931,390,0,0,0,4,1,3,5,0004-00-0000-58.png,0005-00-0000-91.png
00000009,695,1,1447354275392,1447354275498,869,479,0,0,0,4,3,1,7,0004-00-0001-57.png,0002-00-0001-12.png
00000009,696,1,1447354276585,1447354277562,1055,279,0,0,0,4,2,2,6,0004-00-0001-41.png,0003-00-0000-06.png
00000009,697,1,1447354278574,1447354278626,858,497,0,0,0,3,1,2,4,0002-00-0000-93.png,0005-00-0000-42.png
00000009,698,1,1447354279703,1447354280827,496,260,0,0,0,0,2,2,2,0001-00-0001-54.png,0003-00-0000-76.png
00000009,699,0,1447354281721,1447354282854,490,264,0,0,0,1,0,1,1,0005-00-0000-86.png,0001-00-0000-21.png
00000009,700,0,1447354285784,1447354285804,908,322,0,0,0,0,3,3,3,0001-00-0001-08.png,0002-00-0001-76.png
00000009,701,0,1447354288898,1447354289506,500,272,0,0,0,4,3,1,7,0004-00-0001-80.png,0002-00-0001-07.png
00000009,702,0,1447354292683,1447354293184,958,323,0,0,0,0,2,2,2,0001-00-0000-96.png,0003-00-0000-30.png
00000009,703,1,1447354296198,1447354296817,486,271,0,0,0,0,1,1,1,0001-00-0001-65.png,0005-00-0000-48.png
00000009,704,0,1447354297690,1447354298470,482,248,0,0,0,3,2,1,5,0002-00-0001-73.png,0003-00-0001-72.png
00000009,705,1,1447354301684,1447354302185,401,389,0,0,0,0,4,4,4,0001-00-0001-96.png,0004-00-0001-18.png
00000009,706,1,1447354303128,1447354304035,1046,266,0,0,0,1,0,1,1,0005-00-0001-51.png,0001-00-0001-61.png
00000009,707,1,1447354304905,1447354304991,871,454,0,0,0,2,0,2,2,0003-00-0001-51.png,0001-00-0001-58.png
00000009,708,1,1447354306151,1447354307300,1041,277,0,0,0,3,1,2,4,0002-00-0001-81.png,0005-00-0001-55.png
00000009,709,0,1447354308287,1447354308311,898,410,0,0,0,3,4,1,7,0002-00-0000-71.png,0004-00-0001-36.png
00000009,710,0,1447354311613,1447354312139,939,323,0,0,0,2,4,2,6,0003-00-0000-04.png,0004-00-0000-65.png
00000009,711,0,1447354315200,1447354315408,888,420,0,0,0,1,2,1,3,0005-00-0001-47.png,0003-00-0000-55.png
00000009,712,1,1447354318330,1447354318895,964,402,0,0,0,4,1,3,5,0004-00-0001-14.png,0005-00-0000-21.png
00000009,713,1,1447354319793,1447354319841,862,410,0,0,0,3,0,3,3,0002-00-0001-68.png,0001-00-0001-33.png
00000009,714,1,1447354320726,1447354321584,520,251,0,0,0,0,3,3,3,0001-00-0000-48.png,0002-00-0001-63.png
00000009,715,1,1447354322542,1447354323409,505,227,0,0,0,1,4,3,5,0005-00-0000-10.png,0004-00-0000-35.png
00000009,716,0,1447354324364,1447354324392,862,400,0,0,0,2,3,1,5,0003-00-0001-26.png,0002-00-0000-82.png
00000009,717,1,1447354327631,1447354328188,1024,269,0,0,0,2,1,1,3,0003-00-0000-92.png,0005-00-0000-09.png
00000009,718,1,1447354329032,1447354329748,503,265,0,0,0,1,3,2,4,0005-00-0001-35.png,0002-00-0000-72.png
00000009,719,0,1447354330752,1447354331506,423,347,0,0,0,4,2,2,6,0004-00-0000-06.png,0003-00-0001-41.png
00000009,720,1,1447354334469,1447354334972,1053,303,0,0,0,4,0,4,4,0004-00-0001-57.png,0001-00-0000-57.png
00000009,721,1,1447354336316,1447354337139,913,345,0,0,0,3,2,1,5,0002-00-0000-65.png,0003-00-0000-56.png
00000009,722,0,1447354338063,1447354338142,890,457,0,0,0,2,4,2,6,0003-00-0001-39.png,0004-00-0001-92.png
00000009,723,1,1447354341168,1447354341666,414,384,0,0,0,1,3,2,4,0005-00-0000-39.png,0002-00-0001-15.png
00000009,724,1,1447354342526,1447354342590,862,436,0,0,0,4,1,3,5,0004-00-0000-56.png,0005-00-0000-88.png
00000009,725,1,1447354343592,1447354344583,1023,315,0,0,0,2,1,1,3,0003-00-0000-13.png,0005-00-0001-55.png
00000009,726,0,1447354345490,1447354346232,478,358,0,0,0,4,2,2,6,0004-00-0000-86.png,0003-00-0000-18.png
00000009,727,1,1447354349190,1447354349667,1046,282,0,0,0,4,0,4,4,0004-00-0001-91.png,0001-00-0001-23.png
00000009,728,0,1447354350576,1447354351577,939,347,0,0,0,2,3,1,5,0003-00-0001-64.png,0002-00-0001-64.png
00000009,729,0,1447354354407,1447354354439,952,357,0,0,0,3,4,1,7,0002-00-0000-79.png,0004-00-0001-12.png
00000009,730,0,1447354357514,1447354358040,1047,276,0,0,0,1,4,3,5,0005-00-0000-81.png,0004-00-0000-95.png
00000009,731,0,1447354361081,1447354361117,900,372,0,0,0,1,2,1,3,0005-00-0000-70.png,0003-00-0001-48.png
00000009,732,0,1447354364221,1447354364237,869,324,0,0,0,0,1,1,1,0001-00-0000-08.png,0005-00-0000-68.png
00000009,733,1,1447354367360,1447354367388,888,322,0,0,0,2,0,2,2,0003-00-0001-80.png,0001-00-0001-86.png
00000009,734,1,1447354368364,1447354369048,513,239,0,0,0,0,3,3,3,0001-00-0000-13.png,0002-00-0001-83.png
00000009,735,1,1447354369934,1447354370636,498,237,0,0,0,0,4,4,4,0001-00-0001-55.png,0004-00-0001-11.png
00000009,736,1,1447354371607,1447354371718,884,456,0,0,0,1,0,1,1,0005-00-0000-13.png,0001-00-0001-81.png
00000009,737,1,1447354372826,1447354374018,908,340,0,0,0,4,3,1,7,0004-00-0001-00.png,0002-00-0000-55.png
00000009,738,1,1447354375004,1447354375859,906,334,0,0,0,3,1,2,4,0002-00-0000-94.png,0005-00-0001-71.png
00000009,739,1,1447354376796,1447354376900,913,436,0,0,0,3,0,3,3,0002-00-0000-17.png,0001-00-0001-29.png
00000009,740,1,1447354378163,1447354378983,512,272,0,0,0,0,2,2,2,0001-00-0001-98.png,0003-00-0001-64.png
00000009,741,1,1447354379871,1447354379927,928,488,0,0,0,4,0,4,4,0004-00-0001-13.png,0001-00-0001-79.png
00000009,742,1,1447354381045,1447354381151,888,541,0,0,0,4,1,3,5,0004-00-0000-28.png,0005-00-0000-15.png
00000009,743,0,1447354382343,1447354383209,1143,384,0,0,0,2,3,1,5,0003-00-0001-65.png,0002-00-0001-98.png
00000009,744,1,1447354387256,1447354387509,928,331,0,0,0,4,2,2,6,0004-00-0001-18.png,0003-00-0001-97.png
00000009,745,1,1447354388706,1447354389369,492,297,0,0,0,0,3,3,3,0001-00-0001-53.png,0002-00-0001-10.png
00000009,746,1,1447354390234,1447354390990,507,313,0,0,0,0,2,2,2,0001-00-0000-27.png,0003-00-0001-43.png
00000009,747,0,1447354391960,1447354392953,516,255,0,0,0,3,2,1,5,0002-00-0001-14.png,0003-00-0001-19.png
00000009,748,0,1447354395911,1447354395931,871,338,0,0,0,0,4,4,4,0001-00-0001-58.png,0004-00-0001-41.png
00000009,749,0,1447354399021,1447354399059,945,358,0,0,0,0,1,1,1,0001-00-0001-41.png,0005-00-0000-00.png
00000009,750,0,1447354401991,1447354402057,877,436,0,0,0,2,4,2,6,0003-00-0000-34.png,0004-00-0001-03.png
00000009,751,1,1447354404899,1447354404990,888,423,0,0,0,2,0,2,2,0003-00-0001-55.png,0001-00-0001-32.png
00000009,752,1,1447354405918,1447354406626,505,267,0,0,0,1,3,2,4,0005-00-0000-98.png,0002-00-0001-11.png
00000009,753,1,1447354407566,1447354407626,862,421,0,0,0,2,1,1,3,0003-00-0000-86.png,0005-00-0000-83.png
00000009,754,1,1447354408710,1447354409394,494,249,0,0,0,1,4,3,5,0005-00-0000-19.png,0004-00-0000-57.png
00000009,755,1,1447354410407,1447354411118,941,330,0,0,0,1,0,1,1,0005-00-0000-09.png,0001-00-0001-03.png
00000009,756,1,1447354412038,1447354412074,876,396,0,0,0,4,3,1,7,0004-00-0000-03.png,0002-00-0001-82.png
00000009,757,0,1447354413311,1447354414300,1169,384,0,0,0,3,4,1,7,0002-00-0000-21.png,0004-00-0001-66.png
00000009,758,1,1447354417503,1447354417527,908,330,0,0,0,3,1,2,4,0002-00-0001-00.png,0005-00-0000-14.png
00000009,759,0,1447354418407,1447354419134,932,322,0,0,0,1,2,1,3,0005-00-0001-94.png,0003-00-0001-01.png
00000009,760,1,1447354422156,1447354422438,881,368,0,0,0,3,0,3,3,0002-00-0000-00.png,0001-00-0001-47.png
00000009,761,1,1447354423407,1447354424039,504,265,0,0,0,0,4,4,4,0001-00-0001-29.png,0004-00-0001-12.png
00000009,762,0,1447354424966,1447354425976,936,342,0,0,0,2,3,1,5,0003-00-0000-50.png,0002-00-0001-28.png
00000009,763,1,1447354428830,1447354428862,881,332,0,0,0,3,2,1,5,0002-00-0000-91.png,0003-00-0001-84.png
00000009,764,1,1447354429785,1447354430888,1026,282,0,0,0,4,3,1,7,0004-00-0000-01.png,0002-00-0001-29.png
00000009,765,0,1447354431762,1447354431774,859,398,0,0,0,2,4,2,6,0003-00-0001-05.png,0004-00-0001-99.png
00000009,766,1,1447354434887,1447354435347,941,333,0,0,0,4,1,3,5,0004-00-0000-80.png,0005-00-0001-39.png
00000009,767,1,1447354436723,1447354437743,504,266,0,0,0,3,4,1,7,0002-00-0001-53.png,0004-00-0001-74.png
00000009,768,1,1447354438629,1447354439331,434,431,0,0,0,0,1,1,1,0001-00-0000-00.png,0005-00-0001-91.png
00000009,769,0,1447354440331,1447354440411,862,449,0,0,0,0,2,2,2,0001-00-0001-36.png,0003-00-0000-43.png
00000009,770,1,1447354443461,1447354443986,1060,293,0,0,0,1,0,1,1,0005-00-0001-61.png,0001-00-0001-16.png
00000009,771,1,1447354444832,1447354445459,489,252,0,0,0,1,4,3,5,0005-00-0000-60.png,0004-00-0000-33.png
00000009,772,1,1447354446403,1447354447151,1160,390,0,0,0,2,1,1,3,0003-00-0000-63.png,0005-00-0000-86.png
00000009,773,1,1447354448777,1447354448801,900,436,0,0,0,4,2,2,6,0004-00-0001-34.png,0003-00-0000-46.png
00000009,774,1,1447354449858,1447354450992,514,291,0,0,0,1,2,1,3,0005-00-0000-81.png,0003-00-0001-53.png
00000009,775,1,1447354452003,1447354452683,462,279,0,0,0,1,3,2,4,0005-00-0000-31.png,0002-00-0000-67.png
00000009,776,1,1447354453862,1447354454602,490,291,0,0,0,0,3,3,3,0001-00-0000-34.png,0002-00-0000-77.png
00000009,777,0,1447354455841,1447354456806,470,248,0,0,0,3,0,3,3,0002-00-0001-86.png,0001-00-0000-35.png
00000009,778,1,1447354459657,1447354460133,1060,271,0,0,0,2,0,2,2,0003-00-0000-39.png,0001-00-0001-70.png
00000009,779,1,1447354460994,1447354461028,874,462,0,0,0,3,1,2,4,0002-00-0000-49.png,0005-00-0001-91.png
00000009,780,1,1447354462071,1447354462123,879,488,0,0,0,4,0,4,4,0004-00-0001-99.png,0001-00-0001-68.png
00000009,781,1,1447354463285,1447354464086,904,369,0,0,0,2,0,2,2,0003-00-0001-68.png,0001-00-0000-81.png
00000009,782,0,1447354465095,1447354465814,498,263,0,0,0,3,1,2,4,0002-00-0000-76.png,0005-00-0000-28.png
00000009,783,1,1447354468760,1447354469223,951,410,0,0,0,4,3,1,7,0004-00-0001-66.png,0002-00-0001-75.png
00000009,784,1,1447354470099,1447354470127,888,428,0,0,0,1,0,1,1,0005-00-0001-68.png,0001-00-0001-19.png
00000009,785,1,1447354471104,1447354472218,517,240,0,0,0,1,3,2,4,0005-00-0000-39.png,0002-00-0001-33.png
00000009,786,1,1447354473124,1447354473910,918,337,0,0,0,4,0,4,4,0004-00-0001-13.png,0001-00-0001-41.png
00000009,787,1,1447354474963,1447354475622,427,358,0,0,0,0,2,2,2,0001-00-0001-96.png,0003-00-0000-40.png
00000009,788,1,1447354476572,1447354477521,929,341,0,0,0,4,2,2,6,0004-00-0001-51.png,0003-00-0001-82.png
00000009,789,1,1447354478568,1447354479393,1059,268,0,0,0,2,1,1,3,0003-00-0000-02.png,0005-00-0001-56.png
00000009,790,0,1447354480716,1447354480728,923,442,0,0,0,0,1,1,1,0001-00-0001-82.png,0005-00-0001-04.png
00000009,791,1,1447354483563,1447354484081,510,265,0,0,0,1,2,1,3,0005-00-0001-43.png,0003-00-0001-30.png
00000009,792,1,1447354485020,1447354485761,925,343,0,0,0,4,1,3,5,0004-00-0000-36.png,0005-00-0000-16.png
00000009,793,1,1447354486734,1447354487444,449,426,0,0,0,0,3,3,3,0001-00-0000-31.png,0002-00-0001-77.png
00000009,794,0,1447354488366,1447354489763,913,342,0,0,0,2,3,1,5,0003-00-0000-15.png,0002-00-0001-89.png
00000009,795,1,1447354492666,1447354493103,513,279,0,0,0,0,4,4,4,0001-00-0001-62.png,0004-00-0000-40.png
00000009,796,1,1447354493990,1447354494780,498,243,0,0,0,1,4,3,5,0005-00-0001-92.png,0004-00-0000-76.png
00000009,797,0,1447354495757,1447354496553,501,223,0,0,0,3,2,1,5,0002-00-0000-99.png,0003-00-0001-28.png
00000009,798,0,1447354499636,1447354500101,969,314,0,0,0,2,4,2,6,0003-00-0000-42.png,0004-00-0001-73.png
00000009,799,1,1447354502995,1447354503058,907,354,0,0,0,3,0,3,3,0002-00-0001-64.png,0001-00-0001-44.png
00000009,800,0,1447354504019,1447354504043,866,429,0,0,0,3,4,1,7,0002-00-0000-06.png,0004-00-0000-80.png
00000009,801,1,1447354506908,1447354507918,508,282,0,0,0,1,2,1,3,0005-00-0000-02.png,0003-00-0000-48.png
00000009,802,1,1447354508856,1447354509588,937,334,0,0,0,4,0,4,4,0004-00-0000-30.png,0001-00-0001-64.png
00000009,803,0,1447354510476,1447354510524,906,404,0,0,0,3,4,1,7,0002-00-0000-64.png,0004-00-0001-34.png
00000009,804,1,1447354513353,1447354513373,982,412,0,0,0,1,0,1,1,0005-00-0000-16.png,0001-00-0001-07.png
00000009,805,1,1447354514371,1447354515023,491,277,0,0,0,1,3,2,4,0005-00-0001-24.png,0002-00-0001-54.png
00000009,806,0,1447354516049,1447354517204,513,265,0,0,0,4,2,2,6,0004-00-0000-71.png,0003-00-0000-14.png
00000009,807,1,1447354520184,1447354520681,523,254,0,0,0,0,2,2,2,0001-00-0000-43.png,0003-00-0001-51.png
00000009,808,1,1447354521589,1447354521633,860,412,0,0,0,3,2,1,5,0002-00-0001-81.png,0003-00-0000-90.png
00000009,809,1,1447354523236,1447354524167,1035,288,0,0,0,4,1,3,5,0004-00-0000-03.png,0005-00-0001-97.png
00000009,810,1,1447354525153,1447354525207,929,390,0,0,0,2,0,2,2,0003-00-0000-60.png,0001-00-0001-82.png
00000009,811,1,1447354526287,1447354527457,472,246,0,0,0,2,4,2,6,0003-00-0001-96.png,0004-00-0000-72.png
00000009,812,1,1447354528461,1447354529136,503,315,0,0,0,0,3,3,3,0001-00-0000-61.png,0002-00-0001-62.png
00000009,813,0,1447354530082,1447354530154,862,462,0,0,0,2,3,1,5,0003-00-0001-22.png,0002-00-0001-15.png
00000009,814,1,1447354533000,1447354533544,520,260,0,0,0,1,4,3,5,0005-00-0000-38.png,0004-00-0000-64.png
00000009,815,1,1447354534383,1447354535101,1007,285,0,0,0,3,0,3,3,0002-00-0001-34.png,0001-00-0001-58.png
00000009,816,0,1447354536031,1447354536051,921,435,0,0,0,0,4,4,4,0001-00-0001-62.png,0004-00-0001-61.png
00000009,817,1,1447354539123,1447354539651,1038,277,0,0,0,4,3,1,7,0004-00-0000-14.png,0002-00-0001-35.png
00000009,818,1,1447354541072,1447354541215,897,462,0,0,0,2,1,1,3,0003-00-0001-09.png,0005-00-0000-22.png
00000009,819,1,1447354542960,1447354543024,884,508,0,0,0,3,1,2,4,0002-00-0001-86.png,0005-00-0000-78.png
00000009,820,0,1447354544080,1447354544100,879,470,0,0,0,0,1,1,1,0001-00-0001-55.png,0005-00-0001-00.png
00000009,821,1,1447354547015,1447354547489,487,286,0,0,0,3,4,1,7,0002-00-0001-57.png,0004-00-0001-19.png
00000009,822,0,1447354548373,1447354549388,1036,314,0,0,0,2,3,1,5,0003-00-0000-74.png,0002-00-0000-83.png
00000009,823,1,1447354552400,1447354553096,510,278,0,0,0,1,3,2,4,0005-00-0001-47.png,0002-00-0001-63.png
00000009,824,1,1447354553957,1447354554604,506,265,0,0,0,0,1,1,1,0001-00-0000-39.png,0005-00-0001-99.png
00000009,825,0,1447354555589,1447354556536,953,328,0,0,0,2,4,2,6,0003-00-0000-80.png,0004-00-0001-00.png
00000009,826,1,1447354559655,1447354559676,862,332,0,0,0,3,0,3,3,0002-00-0000-23.png,0001-00-0000-62.png
00000009,827,1,1447354560637,1447354561490,1041,292,0,0,0,3,2,1,5,0002-00-0001-77.png,0003-00-0000-05.png
00000009,828,1,1447354562407,1447354562419,862,375,0,0,0,4,1,3,5,0004-00-0000-76.png,0005-00-0000-76.png
00000009,829,1,1447354563670,1447354564427,480,346,0,0,0,1,4,3,5,0005-00-0000-86.png,0004-00-0000-35.png
00000009,830,1,1447354565447,1447354565463,868,402,0,0,0,2,1,1,3,0003-00-0000-25.png,0005-00-0000-77.png
00000009,831,1,1447354566759,1447354567364,396,354,0,0,0,0,4,4,4,0001-00-0000-72.png,0004-00-0001-86.png
00000009,832,1,1447354568320,1447354569236,427,345,0,0,0,0,3,3,3,0001-00-0001-88.png,0002-00-0001-15.png
00000009,833,1,1447354570238,1447354570942,468,250,0,0,0,0,2,2,2,0001-00-0000-93.png,0003-00-0000-05.png
00000009,834,1,1447354571867,1447354571915,871,461,0,0,0,4,0,4,4,0004-00-0000-47.png,0001-00-0000-07.png
00000009,835,1,1447354573119,1447354573891,1027,334,0,0,0,2,0,2,2,0003-00-0001-37.png,0001-00-0001-84.png
00000009,836,1,1447354574998,1447354575026,941,358,0,0,0,1,0,1,1,0005-00-0001-99.png,0001-00-0000-69.png
00000009,837,0,1447354576287,1447354577112,486,244,0,0,0,4,2,2,6,0004-00-0001-42.png,0003-00-0001-33.png
00000009,838,1,1447354580282,1447354580945,954,358,0,0,0,4,3,1,7,0004-00-0001-46.png,0002-00-0001-80.png
00000009,839,1,1447354581861,1447354582539,516,266,0,0,0,1,2,1,3,0005-00-0001-15.png,0003-00-0001-82.png
00000009,840,1,1447354583602,1447354584341,922,367,0,0,0,3,1,2,4,0002-00-0001-82.png,0005-00-0001-47.png
00000009,841,1,1447354585420,1447354585465,877,443,0,0,0,4,0,4,4,0004-00-0001-24.png,0001-00-0001-32.png
00000009,842,1,1447354586634,1447354587426,385,384,0,0,0,0,1,1,1,0001-00-0001-91.png,0005-00-0001-69.png
00000009,843,1,1447354588342,1447354589241,1033,355,0,0,0,4,1,3,5,0004-00-0001-69.png,0005-00-0000-99.png
00000009,844,0,1447354590261,1447354591007,483,321,0,0,0,1,0,1,1,0005-00-0001-39.png,0001-00-0000-75.png
00000009,845,1,1447354593947,1447354594424,494,250,0,0,0,3,4,1,7,0002-00-0001-98.png,0004-00-0000-13.png
00000009,846,1,1447354595290,1447354596039,509,255,0,0,0,1,3,2,4,0005-00-0000-30.png,0002-00-0001-36.png
00000009,847,1,1447354597615,1447354597687,861,544,0,0,0,3,2,1,5,0002-00-0001-58.png,0003-00-0001-17.png
00000009,848,1,1447354598825,1447354599737,1025,338,0,0,0,4,2,2,6,0004-00-0001-68.png,0003-00-0001-43.png
00000009,849,0,1447354600724,1447354600740,862,449,0,0,0,0,4,4,4,0001-00-0000-30.png,0004-00-0001-80.png
00000009,850,0,1447354603900,1447354604439,498,263,0,0,0,4,3,1,7,0004-00-0000-78.png,0002-00-0001-38.png
00000009,851,1,1447354607429,1447354607449,913,346,0,0,0,2,0,2,2,0003-00-0000-86.png,0001-00-0001-76.png
00000009,852,1,1447354608385,1447354608947,385,377,0,0,0,1,2,1,3,0005-00-0000-33.png,0003-00-0000-45.png
00000009,853,1,1447354609894,1447354611226,514,241,0,0,0,2,3,1,5,0003-00-0001-08.png,0002-00-0000-65.png
00000009,854,1,1447354612151,1447354612892,470,290,0,0,0,1,4,3,5,0005-00-0001-27.png,0004-00-0000-12.png
00000009,855,0,1447354613950,1447354614654,509,339,0,0,0,3,0,3,3,0002-00-0000-71.png,0001-00-0000-96.png
00000009,856,0,1447354617844,1447354617852,888,324,0,0,0,2,4,2,6,0003-00-0001-41.png,0004-00-0000-82.png
00000009,857,1,1447354620816,1447354621360,444,247,0,0,0,0,3,3,3,0001-00-0001-23.png,0002-00-0000-44.png
00000009,858,0,1447354622257,1447354622285,862,432,0,0,0,0,2,2,2,0001-00-0000-78.png,0003-00-0000-22.png
00000009,859,1,1447354625424,1447354625452,888,315,0,0,0,2,1,1,3,0003-00-0001-50.png,0005-00-0001-50.png
00000009,860,0,1447354626380,1447354627117,497,235,0,0,0,3,1,2,4,0002-00-0001-97.png,0005-00-0001-08.png
00000009,861,1,1447354629947,1447354630605,478,262,0,0,0,2,4,2,6,0003-00-0000-67.png,0004-00-0000-60.png
00000009,862,1,1447354631455,1447354632071,459,269,0,0,0,0,2,2,2,0001-00-0001-96.png,0003-00-0000-68.png
00000009,863,1,1447354632981,1447354633713,460,342,0,0,0,1,3,2,4,0005-00-0001-59.png,0002-00-0000-51.png
00000009,864,0,1447354634888,1447354634932,869,481,0,0,0,0,1,1,1,0001-00-0000-50.png,0005-00-0001-51.png
00000009,865,1,1447354637815,1447354638329,510,259,0,0,0,2,3,1,5,0003-00-0001-19.png,0002-00-0001-00.png
00000009,866,1,1447354639238,1447354639939,908,320,0,0,0,2,1,1,3,0003-00-0001-81.png,0005-00-0001-82.png
00000009,867,0,1447354640817,1447354640829,888,422,0,0,0,1,2,1,3,0005-00-0000-91.png,0003-00-0001-22.png
00000009,868,1,1447354643988,1447354644000,893,326,0,0,0,3,0,3,3,0002-00-0000-69.png,0001-00-0000-98.png
00000009,869,1,1447354644991,1447354646085,507,249,0,0,0,3,4,1,7,0002-00-0001-88.png,0004-00-0000-50.png
00000009,870,1,1447354647038,1447354647825,1169,367,0,0,0,4,0,4,4,0004-00-0001-29.png,0001-00-0001-31.png
00000009,871,0,1447354648768,1447354649736,508,262,0,0,0,4,2,2,6,0004-00-0000-36.png,0003-00-0000-93.png
00000009,872,1,1447354652712,1447354653247,940,416,0,0,0,4,1,3,5,0004-00-0001-12.png,0005-00-0001-82.png
00000009,873,1,1447354654165,1447354654232,870,463,0,0,0,3,2,1,5,0002-00-0000-95.png,0003-00-0000-49.png
00000009,874,1,1447354655218,1447354656094,912,291,0,0,0,2,0,2,2,0003-00-0001-32.png,0001-00-0000-19.png
00000009,875,0,1447354657044,1447354657104,935,428,0,0,0,0,3,3,3,0001-00-0001-74.png,0002-00-0001-75.png
00000009,876,0,1447354660264,1447354660277,877,340,0,0,0,0,4,4,4,0001-00-0000-82.png,0004-00-0000-69.png
00000009,877,0,1447354663147,1447354663159,867,471,0,0,0,1,4,3,5,0005-00-0000-16.png,0004-00-0000-91.png
00000009,878,1,1447354666347,1447354666375,888,358,0,0,0,4,3,1,7,0004-00-0000-80.png,0002-00-0000-68.png
00000009,879,1,1447354667328,1447354667379,862,410,0,0,0,1,0,1,1,0005-00-0000-65.png,0001-00-0001-53.png
00000009,880,1,1447354668267,1447354668346,862,419,0,0,0,3,1,2,4,0002-00-0000-60.png,0005-00-0001-64.png
00000009,881,1,1447354669399,1447354669415,862,462,0,0,0,2,0,2,2,0003-00-0000-82.png,0001-00-0001-47.png
00000009,882,0,1447354670551,1447354671811,459,310,0,0,0,1,0,1,1,0005-00-0001-30.png,0001-00-0001-98.png
00000009,883,1,1447354675093,1447354675569,944,338,0,0,0,2,1,1,3,0003-00-0001-57.png,0005-00-0001-56.png
00000009,884,0,1447354676412,1447354676439,873,462,0,0,0,0,1,1,1,0001-00-0000-39.png,0005-00-0001-69.png
00000009,885,1,1447354679631,1447354680131,474,278,0,0,0,1,4,3,5,0005-00-0001-44.png,0004-00-0001-49.png
00000009,886,0,1447354680982,1447354682319,890,339,0,0,0,2,3,1,5,0003-00-0000-46.png,0002-00-0000-17.png
00000009,887,0,1447354685362,1447354685619,888,436,0,0,0,1,2,1,3,0005-00-0001-07.png,0003-00-0000-68.png
00000009,888,1,1447354688535,1447354689067,1045,294,0,0,0,3,0,3,3,0002-00-0001-40.png,0001-00-0001-80.png
00000009,889,0,1447354689957,1447354690009,885,448,0,0,0,0,4,4,4,0001-00-0000-34.png,0004-00-0001-69.png
00000009,890,1,1447354692855,1447354692883,879,399,0,0,0,4,1,3,5,0004-00-0000-00.png,0005-00-0001-92.png
00000009,891,1,1447354693879,1447354694667,519,250,0,0,0,2,4,2,6,0003-00-0001-98.png,0004-00-0001-59.png
00000009,892,1,1447354695569,1447354696471,1013,272,0,0,0,4,2,2,6,0004-00-0001-08.png,0003-00-0000-33.png
00000009,893,0,1447354697463,1447354698295,939,294,0,0,0,3,4,1,7,0002-00-0001-38.png,0004-00-0000-63.png
00000009,894,0,1447354701436,1447354701464,913,306,0,0,0,0,3,3,3,0001-00-0001-80.png,0002-00-0000-43.png
00000009,895,1,1447354704645,1447354705151,493,259,0,0,0,1,3,2,4,0005-00-0000-64.png,0002-00-0000-92.png
00000009,896,0,1447354705993,1447354707078,484,242,0,0,0,4,3,1,7,0004-00-0001-23.png,0002-00-0000-09.png
00000009,897,1,1447354710279,1447354710319,913,322,0,0,0,3,1,2,4,0002-00-0001-86.png,0005-00-0001-08.png
00000009,898,1,1447354711274,1447354712116,1030,253,0,0,0,4,0,4,4,0004-00-0000-04.png,0001-00-0001-02.png
00000009,899,1,1447354713002,1447354713670,490,256,0,0,0,0,2,2,2,0001-00-0001-03.png,0003-00-0001-81.png
00000009,900,1,1447354714882,1447354715775,1041,281,0,0,0,3,2,1,5,0002-00-0001-96.png,0003-00-0000-48.png
00000009,901,0,1447354716830,1447354716910,862,426,0,0,0,0,3,3,3,0001-00-0001-36.png,0002-00-0000-18.png
00000009,902,1,1447354719869,1447354719881,864,394,0,0,0,4,3,1,7,0004-00-0001-31.png,0002-00-0000-56.png
00000009,903,1,1447354720905,1447354720977,871,506,0,0,0,4,1,3,5,0004-00-0000-71.png,0005-00-0001-37.png
00000009,904,1,1447354722255,1447354723065,519,241,0,0,0,1,2,1,3,0005-00-0001-67.png,0003-00-0001-75.png
00000009,905,0,1447354724022,1447354724838,942,296,0,0,0,2,4,2,6,0003-00-0000-26.png,0004-00-0001-76.png
00000009,906,1,1447354727946,1447354727974,927,332,0,0,0,2,0,2,2,0003-00-0001-63.png,0001-00-0000-58.png
00000009,907,1,1447354728883,1447354729493,496,262,0,0,0,0,2,2,2,0001-00-0001-35.png,0003-00-0000-07.png
00000009,908,1,1447354730472,1447354730488,887,362,0,0,0,3,0,3,3,0002-00-0000-81.png,0001-00-0000-28.png
00000009,909,1,1447354731584,1447354732473,917,342,0,0,0,2,1,1,3,0003-00-0000-25.png,0005-00-0001-49.png
00000009,910,0,1447354733413,1447354733463,888,410,0,0,0,2,3,1,5,0003-00-0001-04.png,0002-00-0001-85.png
00000009,911,1,1447354736483,1447354737002,1051,306,0,0,0,4,0,4,4,0004-00-0000-22.png,0001-00-0001-00.png
00000009,912,1,1447354737914,1447354737991,873,481,0,0,0,4,2,2,6,0004-00-0000-32.png,0003-00-0001-33.png
00000009,913,1,1447354739088,1447354739884,919,313,0,0,0,1,0,1,1,0005-00-0000-18.png,0001-00-0000-58.png
00000009,914,0,1447354740964,1447354741012,867,513,0,0,0,1,4,3,5,0005-00-0000-84.png,0004-00-0001-20.png
00000009,915,0,1447354744206,1447354744747,1065,314,0,0,0,1,3,2,4,0005-00-0001-19.png,0002-00-0001-31.png
00000009,916,1,1447354748624,1447354749107,421,368,0,0,0,0,1,1,1,0001-00-0001-21.png,0005-00-0000-51.png
00000009,917,1,1447354750131,1447354751093,481,277,0,0,0,3,4,1,7,0002-00-0001-88.png,0004-00-0000-53.png
00000009,918,1,1447354752014,1447354753069,484,296,0,0,0,0,4,4,4,0001-00-0001-87.png,0004-00-0001-96.png
00000009,919,1,1447354754101,1447354755003,1018,331,0,0,0,3,2,1,5,0002-00-0000-83.png,0003-00-0000-91.png
00000009,920,1,1447354756070,1447354756098,902,410,0,0,0,3,1,2,4,0002-00-0001-65.png,0005-00-0001-97.png
00000009,921,0,1447354757212,1447354757260,862,462,0,0,0,1,4,3,5,0005-00-0001-32.png,0004-00-0001-05.png
00000009,922,1,1447354760352,1447354760364,862,332,0,0,0,4,0,4,4,0004-00-0000-43.png,0001-00-0000-70.png
00000009,923,0,1447354761342,1447354762207,1012,313,0,0,0,2,4,2,6,0003-00-0000-18.png,0004-00-0000-02.png
00000009,924,0,1447354765371,1447354765391,879,338,0,0,0,1,3,2,4,0005-00-0001-11.png,0002-00-0000-93.png
00000009,925,1,1447354768219,1447354768704,463,269,0,0,0,0,3,3,3,0001-00-0000-66.png,0002-00-0000-58.png
00000009,926,1,1447354769634,1447354770279,495,272,0,0,0,0,4,4,4,0001-00-0001-43.png,0004-00-0001-58.png
00000009,927,0,1447354771172,1447354771192,859,434,0,0,0,3,4,1,7,0002-00-0001-54.png,0004-00-0001-39.png
00000009,928,1,1447354774334,1447354774354,888,341,0,0,0,1,0,1,1,0005-00-0000-54.png,0001-00-0001-73.png
00000009,929,1,1447354775258,1447354775422,862,524,0,0,0,2,0,2,2,0003-00-0000-13.png,0001-00-0000-48.png
00000009,930,1,1447354776500,1447354777476,1032,317,0,0,0,3,0,3,3,0002-00-0001-00.png,0001-00-0000-43.png
00000009,931,0,1447354778389,1447354779023,492,265,0,0,0,3,2,1,5,0002-00-0001-74.png,0003-00-0001-15.png
00000009,932,0,1447354781925,1447354781957,858,331,0,0,0,2,3,1,5,0003-00-0001-52.png,0002-00-0001-38.png
00000009,933,0,1447354785095,1447354785115,893,340,0,0,0,1,2,1,3,0005-00-0000-41.png,0003-00-0000-77.png
00000009,934,0,1447354788307,1447354788843,512,237,0,0,0,4,2,2,6,0004-00-0000-55.png,0003-00-0001-24.png
00000009,935,1,1447354791924,1447354792628,1070,291,0,0,0,4,3,1,7,0004-00-0000-17.png,0002-00-0001-67.png
00000009,936,1,1447354793562,1447354794200,489,261,0,0,0,0,2,2,2,0001-00-0000-61.png,0003-00-0000-31.png
00000009,937,1,1447354795041,1447354795230,862,462,0,0,0,4,1,3,5,0004-00-0000-21.png,0005-00-0001-52.png
00000009,938,1,1447354796285,1447354796321,874,461,0,0,0,2,1,1,3,0003-00-0000-41.png,0005-00-0001-91.png
00000009,939,1,1447354797469,1447354798090,388,383,0,0,0,0,1,1,1,0001-00-0000-35.png,0005-00-0000-85.png
00000009,940,1,1447354799097,1447354799232,878,541,0,0,0,3,1,2,4,0002-00-0001-01.png,0005-00-0000-45.png
00000009,941,1,1447354800309,1447354801122,471,363,0,0,0,1,4,3,5,0005-00-0000-23.png,0004-00-0001-39.png
00000009,942,1,1447354802177,1447354802975,956,340,0,0,0,4,0,4,4,0004-00-0001-85.png,0001-00-0001-90.png
00000009,943,1,1447354803948,1447354804585,507,266,0,0,0,0,2,2,2,0001-00-0000-83.png,0003-00-0000-46.png
00000009,944,1,1447354805498,1447354806232,514,359,0,0,0,1,3,2,4,0005-00-0001-65.png,0002-00-0001-52.png
00000009,945,1,1447354807244,1447354807284,902,434,0,0,0,3,1,2,4,0002-00-0000-85.png,0005-00-0001-42.png
00000009,946,1,1447354808489,1447354809795,407,415,0,0,0,0,1,1,1,0001-00-0000-40.png,0005-00-0001-70.png
00000009,947,1,1447354810962,1447354810986,878,410,0,0,0,3,2,1,5,0002-00-0000-44.png,0003-00-0000-82.png
00000009,948,0,1447354812078,1447354812778,513,337,0,0,0,3,0,3,3,0002-00-0000-81.png,0001-00-0001-51.png
00000009,949,1,1447354815892,1447354815916,894,321,0,0,0,4,2,2,6,0004-00-0000-73.png,0003-00-0000-22.png
00000009,950,1,1447354816836,1447354817546,917,327,0,0,0,2,0,2,2,0003-00-0001-40.png,0001-00-0000-19.png
