subject_id,trial,correct_response,stim_time,response_time,x_coord,y_coord,trial_timeout,timeout_time,interTrial_timeout,left_rank,right_rank,distance,joint_rank,left_image,right_image
00000009,1,0,1448391437832,1448391438513,341,443,0,0,0,3,2,1,5,0002-00-0001-96.png,0003-00-0000-34.png
00000009,2,1,1448391442064,1448391442744,395,442,0,0,0,0,2,2,2,0001-00-0001-14.png,0003-00-0000-08.png
00000009,3,1,1448391462233,1448391462747,929,386,0,0,0,1,0,1,1,0005-00-0000-33.png,0001-00-0001-26.png
00000009,4,1,1448391463831,1448391464295,1097,332,0,0,0,3,1,2,4,0002-00-0001-34.png,0005-00-0001-76.png
00000009,5,0,1448391465604,1448391466118,1051,253,0,0,0,1,3,2,4,0005-00-0000-43.png,0002-00-0000-86.png
00000009,6,0,1448391469229,1448391469824,990,373,0,0,0,2,4,2,6,0003-00-0001-40.png,0004-00-0000-57.png
00000009,7,1,1448391473148,1448391473727,405,398,0,0,0,0,1,1,1,0001-00-0001-70.png,0005-00-0001-64.png
00000009,8,0,1448391475116,1448391475632,964,358,0,0,0,3,4,1,7,0002-00-0001-27.png,0004-00-0000-15.png
00000009,9,0,1448391478756,1448391479276,971,377,0,0,0,2,3,1,5,0003-00-0001-68.png,0002-00-0001-84.png
00000009,10,1,1448391482402,1448391482935,973,410,0,0,0,2,0,2,2,0003-00-0001-03.png,0001-00-0001-81.png
00000009,11,1,1448391484397,1448391484609,917,546,0,0,0,4,3,1,7,0004-00-0001-66.png,0002-00-0000-66.png
00000009,12,0,1448391485849,1448391485876,862,436,0,0,0,1,4,3,5,0005-00-0001-81.png,0004-00-0000-33.png
00000009,13,1,1448391488882,1448391488902,882,284,0,0,0,3,0,3,3,0002-00-0001-83.png,0001-00-0001-00.png
00000009,14,1,1448391490065,1448391490151,888,464,0,0,0,4,2,2,6,0004-00-0001-01.png,0003-00-0001-91.png
00000009,15,1,1448391491290,1448391491334,866,479,0,0,0,4,1,3,5,0004-00-0000-52.png,0005-00-0000-77.png
00000009,16,1,1448391492393,1448391493296,422,360,0,0,0,0,3,3,3,0001-00-0001-44.png,0002-00-0001-82.png
00000009,17,1,1448391494376,1448391494434,859,449,0,0,0,4,0,4,4,0004-00-0001-58.png,0001-00-0000-02.png
00000009,18,1,1448391495580,1448391496425,405,353,0,0,0,1,2,1,3,0005-00-0001-71.png,0003-00-0001-15.png
00000009,19,1,1448391497545,1448391498280,424,358,0,0,0,0,4,4,4,0001-00-0001-09.png,0004-00-0001-32.png
00000009,20,1,1448391499469,1448391500218,988,453,0,0,0,2,1,1,3,0003-00-0001-32.png,0005-00-0001-95.png
00000009,21,1,1448391501332,1448391501396,888,462,0,0,0,3,0,3,3,0002-00-0000-46.png,0001-00-0001-76.png
00000009,22,1,1448391502555,1448391502602,892,442,0,0,0,4,3,1,7,0004-00-0001-13.png,0002-00-0000-84.png
00000009,23,0,1448391503847,1448391503875,862,450,0,0,0,0,2,2,2,0001-00-0001-52.png,0003-00-0000-39.png
00000009,24,0,1448391506968,1448391507468,939,372,0,0,0,1,3,2,4,0005-00-0000-48.png,0002-00-0000-33.png
00000009,25,0,1448391510558,1448391511019,959,315,0,0,0,0,3,3,3,0001-00-0001-72.png,0002-00-0000-56.png
00000009,26,1,1448391514012,1448391514550,1092,293,0,0,0,4,2,2,6,0004-00-0001-94.png,0003-00-0001-44.png
00000009,27,0,1448391515495,1448391515571,888,462,0,0,0,0,4,4,4,0001-00-0001-46.png,0004-00-0000-39.png
00000009,28,0,1448391518542,1448391518613,939,329,0,0,0,0,1,1,1,0001-00-0000-72.png,0005-00-0001-93.png
00000009,29,1,1448391521455,1448391522009,436,388,0,0,0,2,4,2,6,0003-00-0001-78.png,0004-00-0001-58.png
00000009,30,0,1448391522968,1448391523071,870,457,0,0,0,1,4,3,5,0005-00-0000-78.png,0004-00-0000-67.png
00000009,31,0,1448391526178,1448391526694,1016,322,0,0,0,2,3,1,5,0003-00-0000-48.png,0002-00-0000-13.png
00000009,32,0,1448391529835,1448391530278,1091,274,0,0,0,3,4,1,7,0002-00-0001-82.png,0004-00-0001-41.png
00000009,33,0,1448391533389,1448391533872,1062,280,0,0,0,1,2,1,3,0005-00-0000-49.png,0003-00-0000-05.png
00000009,34,1,1448391536933,1448391537422,990,322,0,0,0,2,1,1,3,0003-00-0001-37.png,0005-00-0000-52.png
00000009,35,1,1448391538480,1448391538540,938,441,0,0,0,2,0,2,2,0003-00-0000-44.png,0001-00-0000-20.png
00000009,36,1,1448391539679,1448391539731,883,446,0,0,0,3,1,2,4,0002-00-0001-19.png,0005-00-0001-35.png
00000009,37,1,1448391540995,1448391541042,888,462,0,0,0,1,0,1,1,0005-00-0000-69.png,0001-00-0000-37.png
00000009,38,1,1448391542222,1448391542248,858,443,0,0,0,3,2,1,5,0002-00-0001-54.png,0003-00-0001-54.png
00000009,39,1,1448391544004,1448391544871,1035,271,0,0,0,4,0,4,4,0004-00-0001-39.png,0001-00-0001-61.png
00000009,40,1,1448391546669,1448391547195,1023,314,0,0,0,4,1,3,5,0004-00-0000-66.png,0005-00-0001-60.png
00000009,41,0,1448391548381,1448391548445,932,466,0,0,0,0,4,4,4,0001-00-0001-70.png,0004-00-0000-07.png
00000009,42,1,1448391551966,1448391552471,1067,296,0,0,0,3,2,1,5,0002-00-0001-08.png,0003-00-0000-87.png
00000009,43,0,1448391553558,1448391553594,871,462,0,0,0,2,4,2,6,0003-00-0001-93.png,0004-00-0001-64.png
00000009,44,1,1448391556678,1448391557111,1063,264,0,0,0,1,0,1,1,0005-00-0001-27.png,0001-00-0000-72.png
00000009,45,0,1448391558018,1448391558058,880,443,0,0,0,0,1,1,1,0001-00-0000-29.png,0005-00-0000-39.png
00000009,46,1,1448391561218,1448391561692,1062,282,0,0,0,3,0,3,3,0002-00-0001-91.png,0001-00-0001-72.png
00000009,47,1,1448391562681,1448391562717,859,422,0,0,0,4,0,4,4,0004-00-0001-77.png,0001-00-0001-34.png
00000009,48,1,1448391563971,1448391564985,504,265,0,0,0,3,4,1,7,0002-00-0000-05.png,0004-00-0001-97.png
00000009,49,1,1448391565980,1448391566693,947,329,0,0,0,4,2,2,6,0004-00-0001-52.png,0003-00-0000-80.png
00000009,50,1,1448391567827,1448391568552,1041,243,0,0,0,3,1,2,4,0002-00-0001-60.png,0005-00-0001-19.png
00000009,51,0,1448391569819,1448391569917,888,436,0,0,0,1,4,3,5,0005-00-0000-08.png,0004-00-0000-16.png
00000009,52,0,1448391573180,1448391573221,902,293,0,0,0,1,3,2,4,0005-00-0001-88.png,0002-00-0000-34.png
00000009,53,1,1448391576315,1448391576831,437,384,0,0,0,0,3,3,3,0001-00-0001-04.png,0002-00-0000-03.png
00000009,54,1,1448391577763,1448391578505,939,332,0,0,0,4,1,3,5,0004-00-0001-77.png,0005-00-0001-00.png
00000009,55,1,1448391579474,1448391579502,913,358,0,0,0,4,3,1,7,0004-00-0001-51.png,0002-00-0001-93.png
00000009,56,1,1448391580658,1448391580702,872,410,0,0,0,2,0,2,2,0003-00-0001-85.png,0001-00-0001-06.png
00000009,57,0,1448391581848,1448391581878,913,370,0,0,0,0,2,2,2,0001-00-0000-82.png,0003-00-0001-97.png
00000009,58,0,1448391584780,1448391585259,939,292,0,0,0,1,2,1,3,0005-00-0001-54.png,0003-00-0000-99.png
00000009,59,1,1448391588109,1448391588612,960,279,0,0,0,2,1,1,3,0003-00-0000-54.png,0005-00-0000-22.png
00000009,60,0,1448391589539,1448391589746,944,546,0,0,0,2,3,1,5,0003-00-0001-14.png,0002-00-0000-67.png
00000009,61,0,1448391592651,1448391593099,940,289,0,0,0,2,3,1,5,0003-00-0001-49.png,0002-00-0000-98.png
00000009,62,0,1448391596055,1448391596119,862,300,0,0,0,0,2,2,2,0001-00-0000-71.png,0003-00-0000-21.png
00000009,63,1,1448391599262,1448391599282,878,351,0,0,0,3,0,3,3,0002-00-0001-47.png,0001-00-0001-72.png
00000009,64,1,1448391600296,1448391601017,522,220,0,0,0,2,4,2,6,0003-00-0000-30.png,0004-00-0000-33.png
00000009,65,0,1448391602034,1448391602827,917,289,0,0,0,3,4,1,7,0002-00-0000-76.png,0004-00-0001-06.png
00000009,66,1,1448391605929,1448391606545,486,271,0,0,0,1,3,2,4,0005-00-0000-76.png,0002-00-0001-74.png
00000009,67,0,1448391607386,1448391608165,380,346,0,0,0,3,2,1,5,0002-00-0001-62.png,0003-00-0000-54.png
00000009,68,0,1448391611257,1448391611744,1060,250,0,0,0,1,4,3,5,0005-00-0001-58.png,0004-00-0001-12.png
00000009,69,1,1448391614826,1448391615371,964,369,0,0,0,4,1,3,5,0004-00-0001-14.png,0005-00-0000-23.png
00000009,70,1,1448391616253,1448391617129,967,304,0,0,0,1,0,1,1,0005-00-0000-83.png,0001-00-0000-91.png
00000009,71,1,1448391618133,1448391618221,886,461,0,0,0,2,1,1,3,0003-00-0001-48.png,0005-00-0000-57.png
00000009,72,1,1448391619298,1448391619396,872,489,0,0,0,2,0,2,2,0003-00-0001-04.png,0001-00-0001-63.png
00000009,73,1,1448391620548,1448391621519,499,229,0,0,0,1,2,1,3,0005-00-0001-05.png,0003-00-0001-95.png
00000009,74,1,1448391622536,1448391622556,863,442,0,0,0,3,1,2,4,0002-00-0000-50.png,0005-00-0000-19.png
00000009,75,0,1448391623706,1448391623744,865,443,0,0,0,0,1,1,1,0001-00-0001-31.png,0005-00-0000-26.png
00000009,76,1,1448391626789,1448391627322,494,262,0,0,0,0,3,3,3,0001-00-0000-56.png,0002-00-0001-18.png
00000009,77,1,1448391628157,1448391628209,859,473,0,0,0,4,3,1,7,0004-00-0001-93.png,0002-00-0001-83.png
00000009,78,1,1448391629232,1448391629862,917,308,0,0,0,4,0,4,4,0004-00-0001-58.png,0001-00-0001-92.png
00000009,79,0,1448391630894,1448391630938,881,457,0,0,0,0,4,4,4,0001-00-0000-39.png,0004-00-0001-81.png
00000009,80,0,1448391634063,1448391634594,398,324,0,0,0,4,2,2,6,0004-00-0000-02.png,0003-00-0001-98.png
00000009,81,0,1448391637740,1448391638719,401,346,0,0,0,2,1,1,3,0003-00-0001-77.png,0005-00-0000-69.png
00000009,82,1,1448391641615,1448391642192,458,250,0,0,0,0,4,4,4,0001-00-0000-88.png,0004-00-0001-31.png
00000009,83,0,1448391643056,1448391643697,495,260,0,0,0,1,0,1,1,0005-00-0000-27.png,0001-00-0001-89.png
00000009,84,0,1448391646633,1448391646833,927,306,0,0,0,0,2,2,2,0001-00-0000-86.png,0003-00-0001-25.png
00000009,85,0,1448391649812,1448391650401,346,392,0,0,0,3,2,1,5,0002-00-0000-87.png,0003-00-0001-34.png
00000009,86,0,1448391653532,1448391653665,862,394,0,0,0,2,4,2,6,0003-00-0000-19.png,0004-00-0000-83.png
00000009,87,1,1448391656563,1448391657051,507,252,0,0,0,0,3,3,3,0001-00-0000-28.png,0002-00-0000-28.png
00000009,88,0,1448391657971,1448391658044,890,488,0,0,0,1,2,1,3,0005-00-0000-69.png,0003-00-0001-53.png
00000009,89,1,1448391661128,1448391661600,1070,275,0,0,0,4,1,3,5,0004-00-0001-93.png,0005-00-0001-12.png
00000009,90,0,1448391662466,1448391662569,913,498,0,0,0,3,4,1,7,0002-00-0001-27.png,0004-00-0001-91.png
00000009,91,1,1448391665827,1448391666312,1041,267,0,0,0,3,0,3,3,0002-00-0000-21.png,0001-00-0000-31.png
00000009,92,1,1448391667256,1448391667308,880,471,0,0,0,2,0,2,2,0003-00-0001-19.png,0001-00-0001-87.png
00000009,93,0,1448391668278,1448391668306,860,448,0,0,0,1,4,3,5,0005-00-0000-87.png,0004-00-0000-54.png
00000009,94,1,1448391671557,1448391672215,478,266,0,0,0,1,3,2,4,0005-00-0001-17.png,0002-00-0000-50.png
00000009,95,1,1448391673089,1448391673812,476,243,0,0,0,0,1,1,1,0001-00-0000-25.png,0005-00-0000-11.png
00000009,96,1,1448391674800,1448391675647,947,310,0,0,0,4,3,1,7,0004-00-0000-93.png,0002-00-0001-78.png
00000009,97,1,1448391676784,1448391676832,887,468,0,0,0,4,0,4,4,0004-00-0000-83.png,0001-00-0000-78.png
00000009,98,1,1448391677874,1448391677962,871,489,0,0,0,4,2,2,6,0004-00-0000-03.png,0003-00-0001-82.png
00000009,99,1,1448391679122,1448391679966,939,372,0,0,0,3,1,2,4,0002-00-0000-01.png,0005-00-0001-53.png
00000009,100,0,1448391681087,1448391681125,886,466,0,0,0,2,3,1,5,0003-00-0001-08.png,0002-00-0001-37.png
00000009,101,1,1448391684277,1448391684750,1041,275,0,0,0,4,1,3,5,0004-00-0001-50.png,0005-00-0000-53.png
00000009,102,0,1448391685730,1448391685778,878,496,0,0,0,2,3,1,5,0003-00-0001-40.png,0002-00-0000-18.png
00000009,103,1,1448391688621,1448391689178,477,267,0,0,0,1,3,2,4,0005-00-0000-28.png,0002-00-0001-27.png
00000009,104,0,1448391690619,1448391691135,483,232,0,0,0,3,2,1,5,0002-00-0001-91.png,0003-00-0000-50.png
00000009,105,1,1448391694196,1448391694720,1067,253,0,0,0,1,0,1,1,0005-00-0001-56.png,0001-00-0000-59.png
00000009,106,0,1448391695587,1448391695656,867,466,0,0,0,3,4,1,7,0002-00-0000-51.png,0004-00-0001-09.png
00000009,107,1,1448391698740,1448391699260,502,258,0,0,0,1,4,3,5,0005-00-0000-90.png,0004-00-0000-31.png
00000009,108,1,1448391700107,1448391700168,883,446,0,0,0,2,1,1,3,0003-00-0000-30.png,0005-00-0001-41.png
00000009,109,0,1448391701273,1448391701333,867,470,0,0,0,2,4,2,6,0003-00-0000-49.png,0004-00-0001-86.png
00000009,110,0,1448391704215,1448391704777,429,363,0,0,0,4,2,2,6,0004-00-0000-64.png,0003-00-0001-28.png
00000009,111,0,1448391707911,1448391708420,968,330,0,0,0,0,4,4,4,0001-00-0000-73.png,0004-00-0000-17.png
00000009,112,1,1448391711461,1448391711984,964,293,0,0,0,2,0,2,2,0003-00-0001-33.png,0001-00-0001-67.png
00000009,113,0,1448391712941,1448391712969,863,473,0,0,0,1,2,1,3,0005-00-0001-30.png,0003-00-0001-06.png
00000009,114,1,1448391716135,1448391716642,501,290,0,0,0,0,3,3,3,0001-00-0000-51.png,0002-00-0000-32.png
00000009,115,1,1448391717529,1448391718531,938,384,0,0,0,4,3,1,7,0004-00-0001-09.png,0002-00-0000-70.png
00000009,116,1,1448391719529,1448391720202,507,280,0,0,0,0,2,2,2,0001-00-0001-64.png,0003-00-0001-69.png
00000009,117,0,1448391721288,1448391722004,495,234,0,0,0,3,0,3,3,0002-00-0000-71.png,0001-00-0001-98.png
00000009,118,1,1448391725480,1448391726047,977,436,0,0,0,4,0,4,4,0004-00-0001-68.png,0001-00-0001-20.png
00000009,119,1,1448391727696,1448391728229,453,384,0,0,0,0,1,1,1,0001-00-0001-27.png,0005-00-0001-08.png
00000009,120,1,1448391729238,1448391729984,942,334,0,0,0,3,1,2,4,0002-00-0000-19.png,0005-00-0001-90.png
00000009,121,0,1448391731089,1448391731156,888,462,0,0,0,1,2,1,3,0005-00-0001-89.png,0003-00-0001-58.png
00000009,122,1,1448391734080,1448391734618,939,321,0,0,0,3,2,1,5,0002-00-0000-12.png,0003-00-0000-18.png
00000009,123,1,1448391735676,1448391736617,984,367,0,0,0,2,0,2,2,0003-00-0000-56.png,0001-00-0000-04.png
00000009,124,1,1448391737745,1448391737789,872,482,0,0,0,4,2,2,6,0004-00-0001-50.png,0003-00-0000-28.png
00000009,125,0,1448391739096,1448391739145,866,504,0,0,0,0,2,2,2,0001-00-0001-35.png,0003-00-0001-32.png
00000009,126,1,1448391742212,1448391742741,413,357,0,0,0,1,4,3,5,0005-00-0001-14.png,0004-00-0001-24.png
00000009,127,1,1448391743647,1448391744371,1034,254,0,0,0,4,1,3,5,0004-00-0000-49.png,0005-00-0001-90.png
00000009,128,0,1448391745278,1448391745315,862,410,0,0,0,0,3,3,3,0001-00-0000-28.png,0002-00-0000-13.png
00000009,129,0,1448391748193,1448391748242,960,359,0,0,0,3,4,1,7,0002-00-0000-89.png,0004-00-0001-72.png
00000009,130,0,1448391751706,1448391752254,939,375,0,0,0,1,3,2,4,0005-00-0001-11.png,0002-00-0001-96.png
00000009,131,1,1448391755295,1448391755780,964,373,0,0,0,4,0,4,4,0004-00-0000-03.png,0001-00-0001-99.png
00000009,132,1,1448391757289,1448391757838,1041,253,0,0,0,2,1,1,3,0003-00-0001-50.png,0005-00-0001-06.png
00000009,133,0,1448391758832,1448391759630,1043,264,0,0,0,2,3,1,5,0003-00-0000-80.png,0002-00-0001-57.png
00000009,134,1,1448391762548,1448391762970,1052,279,0,0,0,3,0,3,3,0002-00-0001-34.png,0001-00-0001-48.png
00000009,135,1,1448391763949,1448391764005,881,446,0,0,0,4,3,1,7,0004-00-0001-08.png,0002-00-0000-88.png
00000009,136,0,1448391765041,1448391765077,869,480,0,0,0,0,4,4,4,0001-00-0000-56.png,0004-00-0001-15.png
00000009,137,0,1448391768122,1448391768585,977,326,0,0,0,0,1,1,1,0001-00-0000-26.png,0005-00-0001-12.png
00000009,138,1,1448391771537,1448391772066,403,353,0,0,0,2,4,2,6,0003-00-0001-28.png,0004-00-0001-24.png
00000009,139,1,1448391772971,1448391772999,862,460,0,0,0,3,1,2,4,0002-00-0000-31.png,0005-00-0000-66.png
00000009,140,1,1448391773955,1448391774711,944,389,0,0,0,1,0,1,1,0005-00-0001-05.png,0001-00-0000-18.png
00000009,141,1,1448391775755,1448391775791,866,457,0,0,0,4,2,2,6,0004-00-0001-88.png,0003-00-0000-10.png
00000009,142,1,1448391776928,1448391777777,471,234,0,0,0,3,4,1,7,0002-00-0000-99.png,0004-00-0000-30.png
00000009,143,1,1448391778836,1448391778884,862,544,0,0,0,2,0,2,2,0003-00-0001-38.png,0001-00-0000-77.png
00000009,144,1,1448391780008,1448391780762,935,305,0,0,0,1,0,1,1,0005-00-0000-75.png,0001-00-0001-07.png
00000009,145,1,1448391781804,1448391781892,871,488,0,0,0,2,1,1,3,0003-00-0000-98.png,0005-00-0000-13.png
00000009,146,1,1448391782935,1448391783742,420,310,0,0,0,2,4,2,6,0003-00-0000-73.png,0004-00-0001-44.png
00000009,147,1,1448391785460,1448391786187,478,254,0,0,0,0,4,4,4,0001-00-0001-19.png,0004-00-0001-78.png
00000009,148,0,1448391787213,1448391788005,397,333,0,0,0,3,1,2,4,0002-00-0000-08.png,0005-00-0000-60.png
00000009,149,1,1448391790859,1448391790887,862,399,0,0,0,3,2,1,5,0002-00-0000-05.png,0003-00-0001-08.png
00000009,150,0,1448391792485,1448391792985,1037,278,0,0,0,0,1,1,1,0001-00-0001-87.png,0005-00-0001-75.png
00000009,151,0,1448391795868,1448391796400,1064,325,0,0,0,2,3,1,5,0003-00-0000-38.png,0002-00-0001-10.png
00000009,152,1,1448391799605,1448391800138,467,272,0,0,0,1,3,2,4,0005-00-0001-22.png,0002-00-0001-83.png
00000009,153,1,1448391801094,1448391802032,401,352,0,0,0,0,3,3,3,0001-00-0000-86.png,0002-00-0000-63.png
00000009,154,0,1448391803072,1448391803112,864,446,0,0,0,1,4,3,5,0005-00-0000-97.png,0004-00-0001-31.png
00000009,155,1,1448391806214,1448391806330,897,279,0,0,0,4,1,3,5,0004-00-0000-22.png,0005-00-0001-16.png
00000009,156,1,1448391807388,1448391807491,868,533,0,0,0,4,0,4,4,0004-00-0000-30.png,0001-00-0001-96.png
00000009,157,1,1448391808748,1448391809470,1051,269,0,0,0,3,0,3,3,0002-00-0001-41.png,0001-00-0001-77.png
00000009,158,1,1448391810647,1448391811356,417,314,0,0,0,1,2,1,3,0005-00-0000-91.png,0003-00-0001-82.png
00000009,159,1,1448391812478,1448391812555,885,530,0,0,0,4,3,1,7,0004-00-0000-50.png,0002-00-0000-51.png
00000009,160,0,1448391813785,1448391813845,862,499,0,0,0,0,2,2,2,0001-00-0001-26.png,0003-00-0001-20.png
00000009,161,0,1448391816736,1448391817281,506,291,0,0,0,4,2,2,6,0004-00-0001-35.png,0003-00-0000-55.png
00000009,162,0,1448391820443,1448391820471,919,323,0,0,0,1,2,1,3,0005-00-0001-23.png,0003-00-0001-28.png
00000009,163,0,1448391823585,1448391823636,937,281,0,0,0,0,4,4,4,0001-00-0001-81.png,0004-00-0000-67.png
00000009,164,0,1448391826826,1448391827003,862,373,0,0,0,1,3,2,4,0005-00-0000-21.png,0002-00-0000-73.png
00000009,165,1,1448391830164,1448391830949,939,375,0,0,0,4,1,3,5,0004-00-0001-16.png,0005-00-0000-35.png
00000009,166,1,1448391831895,1448391831975,913,462,0,0,0,3,2,1,5,0002-00-0001-77.png,0003-00-0001-55.png
00000009,167,1,1448391832958,1448391834169,444,259,0,0,0,0,1,1,1,0001-00-0001-13.png,0005-00-0001-48.png
00000009,168,1,1448391835243,1448391835922,1041,265,0,0,0,2,1,1,3,0003-00-0000-17.png,0005-00-0001-88.png
00000009,169,0,1448391836950,1448391836990,861,442,0,0,0,0,3,3,3,0001-00-0001-16.png,0002-00-0001-41.png
00000009,170,1,1448391840149,1448391840169,868,334,0,0,0,3,1,2,4,0002-00-0000-58.png,0005-00-0001-47.png
00000009,171,1,1448391841196,1448391842303,1062,267,0,0,0,4,3,1,7,0004-00-0000-41.png,0002-00-0000-68.png
00000009,172,0,1448391843379,1448391843419,862,528,0,0,0,1,4,3,5,0005-00-0000-77.png,0004-00-0000-75.png
00000009,173,1,1448391848916,1448391849686,474,244,0,0,0,2,4,2,6,0003-00-0000-89.png,0004-00-0000-08.png
00000009,174,1,1448391850594,1448391851432,1016,306,0,0,0,1,0,1,1,0005-00-0001-47.png,0001-00-0001-37.png
00000009,175,0,1448391852462,1448391852502,859,526,0,0,0,2,3,1,5,0003-00-0001-46.png,0002-00-0000-42.png
00000009,176,1,1448391855414,1448391856008,950,358,0,0,0,3,0,3,3,0002-00-0001-14.png,0001-00-0001-21.png
00000009,177,1,1448391856884,1448391856944,888,494,0,0,0,4,0,4,4,0004-00-0001-26.png,0001-00-0001-07.png
00000009,178,1,1448391857970,1448391858823,1034,338,0,0,0,2,0,2,2,0003-00-0001-86.png,0001-00-0001-48.png
00000009,179,0,1448391859776,1448391859816,899,454,0,0,0,0,2,2,2,0001-00-0001-53.png,0003-00-0000-40.png
00000009,180,1,1448391862797,1448391863293,400,349,0,0,0,3,4,1,7,0002-00-0000-15.png,0004-00-0000-09.png
00000009,181,1,1448391864250,1448391864314,862,515,0,0,0,4,3,1,7,0004-00-0000-09.png,0002-00-0001-31.png
00000009,182,0,1448391865503,1448391865539,862,488,0,0,0,1,2,1,3,0005-00-0001-61.png,0003-00-0001-94.png
00000009,183,1,1448391869708,1448391870212,1041,296,0,0,0,2,1,1,3,0003-00-0000-16.png,0005-00-0001-80.png
00000009,184,0,1448391871205,1448391871296,888,462,0,0,0,1,3,2,4,0005-00-0001-01.png,0002-00-0001-99.png
00000009,185,1,1448391874197,1448391874250,892,321,0,0,0,3,0,3,3,0002-00-0001-82.png,0001-00-0001-55.png
00000009,186,0,1448391875907,1448391876543,953,336,0,0,0,3,4,1,7,0002-00-0001-29.png,0004-00-0000-35.png
00000009,187,1,1448391879684,1448391879692,862,332,0,0,0,1,0,1,1,0005-00-0000-99.png,0001-00-0000-09.png
00000009,188,1,1448391881216,1448391881756,416,384,0,0,0,0,4,4,4,0001-00-0000-60.png,0004-00-0001-67.png
00000009,189,1,1448391882758,1448391883535,1040,259,0,0,0,4,2,2,6,0004-00-0001-79.png,0003-00-0000-74.png
00000009,190,1,1448391884595,1448391884627,862,436,0,0,0,2,0,2,2,0003-00-0000-55.png,0001-00-0000-09.png
00000009,191,1,1448391885716,1448391886914,476,265,0,0,0,2,4,2,6,0003-00-0000-83.png,0004-00-0001-13.png
00000009,192,1,1448391887932,1448391888635,487,268,0,0,0,0,2,2,2,0001-00-0000-70.png,0003-00-0001-74.png
00000009,193,1,1448391889838,1448391890530,491,267,0,0,0,1,4,3,5,0005-00-0001-05.png,0004-00-0000-31.png
00000009,194,1,1448391891629,1448391892341,939,375,0,0,0,3,2,1,5,0002-00-0001-84.png,0003-00-0000-48.png
00000009,195,0,1448391893507,1448391893563,888,480,0,0,0,0,1,1,1,0001-00-0000-72.png,0005-00-0000-88.png
00000009,196,1,1448391896426,1448391896990,939,267,0,0,0,4,0,4,4,0004-00-0001-56.png,0001-00-0000-19.png
00000009,197,1,1448391897836,1448391897876,862,462,0,0,0,3,1,2,4,0002-00-0000-25.png,0005-00-0001-40.png
00000009,198,1,1448391898931,1448391899680,929,307,0,0,0,4,1,3,5,0004-00-0000-26.png,0005-00-0001-98.png
00000009,199,0,1448391900673,1448391900717,865,510,0,0,0,0,3,3,3,0001-00-0000-38.png,0002-00-0000-96.png
00000009,200,0,1448391904846,1448391905363,956,358,0,0,0,2,3,1,5,0003-00-0000-28.png,0002-00-0000-81.png
00000009,201,0,1448391908493,1448391908521,872,340,0,0,0,2,3,1,5,0003-00-0001-40.png,0002-00-0000-84.png
00000009,202,1,1448391911358,1448391912022,1092,314,0,0,0,4,2,2,6,0004-00-0001-33.png,0003-00-0001-79.png
00000009,203,0,1448391912967,1448391914006,964,395,0,0,0,0,2,2,2,0001-00-0000-39.png,0003-00-0001-99.png
00000009,204,1,1448391917108,1448391917794,455,275,0,0,0,1,4,3,5,0005-00-0001-99.png,0004-00-0000-67.png
00000009,205,1,1448391918769,1448391919850,427,410,0,0,0,2,4,2,6,0003-00-0001-71.png,0004-00-0001-57.png
00000009,206,1,1448391920894,1448391921754,461,233,0,0,0,0,1,1,1,0001-00-0000-10.png,0005-00-0000-24.png
00000009,207,1,1448391922711,1448391923395,478,245,0,0,0,1,3,2,4,0005-00-0001-60.png,0002-00-0000-00.png
00000009,208,1,1448391925298,1448391925963,913,320,0,0,0,3,1,2,4,0002-00-0000-26.png,0005-00-0000-95.png
00000009,209,1,1448391926935,1448391927760,957,314,0,0,0,4,0,4,4,0004-00-0001-08.png,0001-00-0000-84.png
00000009,210,1,1448391928865,1448391928901,862,504,0,0,0,4,1,3,5,0004-00-0000-51.png,0005-00-0001-39.png
00000009,211,0,1448391930156,1448391930214,868,468,0,0,0,3,4,1,7,0002-00-0001-20.png,0004-00-0001-97.png
00000009,212,1,1448391933134,1448391933847,940,327,0,0,0,4,3,1,7,0004-00-0001-61.png,0002-00-0001-35.png
00000009,213,0,1448391934768,1448391935410,387,348,0,0,0,1,0,1,1,0005-00-0001-50.png,0001-00-0001-51.png
00000009,214,0,1448391938475,1448391939009,1041,263,0,0,0,1,2,1,3,0005-00-0001-64.png,0003-00-0000-72.png
00000009,215,1,1448391941875,1448391942661,936,273,0,0,0,3,2,1,5,0002-00-0001-12.png,0003-00-0001-40.png
00000009,216,1,1448391943663,1448391944327,1016,238,0,0,0,3,0,3,3,0002-00-0000-79.png,0001-00-0000-19.png
00000009,217,0,1448391945282,1448391945318,863,415,0,0,0,0,4,4,4,0001-00-0001-91.png,0004-00-0000-82.png
00000009,218,1,1448391948400,1448391948904,966,304,0,0,0,2,1,1,3,0003-00-0000-70.png,0005-00-0001-77.png
00000009,219,1,1448391949863,1448391950488,967,297,0,0,0,2,0,2,2,0003-00-0001-40.png,0001-00-0000-51.png
00000009,220,0,1448391951509,1448391951549,859,461,0,0,0,0,3,3,3,0001-00-0001-19.png,0002-00-0000-54.png
00000009,221,1,1448391954692,1448391955298,390,358,0,0,0,0,2,2,2,0001-00-0001-41.png,0003-00-0000-87.png
00000009,222,1,1448391956190,1448391957206,1064,286,0,0,0,4,1,3,5,0004-00-0000-67.png,0005-00-0001-23.png
00000009,223,0,1448391958097,1448391958171,861,452,0,0,0,2,3,1,5,0003-00-0000-11.png,0002-00-0000-52.png
00000009,224,1,1448391961607,1448391961635,860,328,0,0,0,4,0,4,4,0004-00-0000-22.png,0001-00-0000-91.png
00000009,225,0,1448391962617,1448391963377,367,314,0,0,0,1,0,1,1,0005-00-0000-18.png,0001-00-0000-61.png
00000009,226,0,1448391966246,1448391966279,876,353,0,0,0,1,3,2,4,0005-00-0000-66.png,0002-00-0000-33.png
00000009,227,1,1448391969478,1448391969954,960,282,0,0,0,2,1,1,3,0003-00-0000-95.png,0005-00-0000-30.png
00000009,228,1,1448391971503,1448391972272,913,375,0,0,0,4,2,2,6,0004-00-0001-64.png,0003-00-0000-01.png
00000009,229,0,1448391973355,1448391973478,881,545,0,0,0,1,4,3,5,0005-00-0000-11.png,0004-00-0000-24.png
00000009,230,1,1448391976603,1448391977035,939,296,0,0,0,2,0,2,2,0003-00-0000-14.png,0001-00-0001-13.png
00000009,231,1,1448391977965,1448391978646,394,339,0,0,0,0,1,1,1,0001-00-0001-13.png,0005-00-0000-35.png
00000009,232,1,1448391979725,1448391980468,1047,297,0,0,0,3,2,1,5,0002-00-0001-72.png,0003-00-0001-70.png
00000009,233,1,1448391981682,1448391982484,511,236,0,0,0,0,3,3,3,0001-00-0001-70.png,0002-00-0001-97.png
00000009,234,1,1448391983679,1448391983773,870,521,0,0,0,3,1,2,4,0002-00-0001-16.png,0005-00-0001-87.png
00000009,235,0,1448391985085,1448391985106,868,413,0,0,0,2,4,2,6,0003-00-0000-98.png,0004-00-0000-84.png
00000009,236,1,1448391987946,1448391988403,939,315,0,0,0,3,0,3,3,0002-00-0000-29.png,0001-00-0000-00.png
00000009,237,0,1448391989312,1448391989345,865,464,0,0,0,3,4,1,7,0002-00-0001-54.png,0004-00-0000-18.png
00000009,238,0,1448391992503,1448391993258,478,262,0,0,0,4,3,1,7,0004-00-0000-53.png,0002-00-0001-89.png
00000009,239,0,1448391996321,1448391996345,902,345,0,0,0,1,2,1,3,0005-00-0001-46.png,0003-00-0000-98.png
00000009,240,1,1448391999489,1448391999985,397,405,0,0,0,0,4,4,4,0001-00-0000-31.png,0004-00-0000-45.png
00000009,241,1,1448392000991,1448392001537,936,315,0,0,0,4,0,4,4,0004-00-0001-21.png,0001-00-0000-70.png
00000009,242,1,1448392002510,1448392003346,478,239,0,0,0,1,2,1,3,0005-00-0001-66.png,0003-00-0001-80.png
00000009,243,0,1448392004497,1448392004517,859,492,0,0,0,0,4,4,4,0001-00-0000-92.png,0004-00-0000-10.png
00000009,244,0,1448392007560,1448392007608,932,355,0,0,0,2,4,2,6,0003-00-0001-62.png,0004-00-0001-34.png
00000009,245,1,1448392010598,1448392011066,939,317,0,0,0,2,1,1,3,0003-00-0001-98.png,0005-00-0001-19.png
00000009,246,1,1448392011982,1448392012623,1041,253,0,0,0,1,0,1,1,0005-00-0001-47.png,0001-00-0000-72.png
00000009,247,0,1448392013771,1448392013828,893,462,0,0,0,3,4,1,7,0002-00-0001-97.png,0004-00-0000-10.png
00000009,248,1,1448392016782,1448392017333,964,291,0,0,0,4,2,2,6,0004-00-0000-52.png,0003-00-0001-54.png
00000009,249,1,1448392018232,1448392019203,1059,273,0,0,0,4,1,3,5,0004-00-0001-30.png,0005-00-0001-97.png
00000009,250,0,1448392020152,1448392020200,888,465,0,0,0,1,4,3,5,0005-00-0000-25.png,0004-00-0001-32.png
00000009,251,1,1448392023271,1448392023887,494,310,0,0,0,1,3,2,4,0005-00-0000-52.png,0002-00-0000-47.png
00000009,252,0,1448392024750,1448392025801,486,227,0,0,0,4,3,1,7,0004-00-0001-65.png,0002-00-0000-06.png
00000009,253,0,1448392028734,1448392028778,857,387,0,0,0,0,1,1,1,0001-00-0000-26.png,0005-00-0001-46.png
00000009,254,0,1448392031807,1448392032280,387,355,0,0,0,3,0,3,3,0002-00-0001-37.png,0001-00-0000-44.png
00000009,255,1,1448392035127,1448392035558,963,272,0,0,0,2,0,2,2,0003-00-0001-80.png,0001-00-0000-89.png
00000009,256,1,1448392037084,1448392037747,939,370,0,0,0,3,2,1,5,0002-00-0000-97.png,0003-00-0000-86.png
00000009,257,1,1448392038733,1448392039407,519,233,0,0,0,0,3,3,3,0001-00-0000-77.png,0002-00-0000-13.png
00000009,258,0,1448392040632,1448392040732,862,541,0,0,0,2,3,1,5,0003-00-0001-41.png,0002-00-0000-28.png
00000009,259,1,1448392043921,1448392044444,982,350,0,0,0,3,1,2,4,0002-00-0000-62.png,0005-00-0001-17.png
00000009,260,0,1448392045381,1448392045442,862,503,0,0,0,0,2,2,2,0001-00-0000-04.png,0003-00-0001-78.png
00000009,261,1,1448392048632,1448392049113,1067,265,0,0,0,4,1,3,5,0004-00-0001-22.png,0005-00-0001-34.png
00000009,262,0,1448392049992,1448392050095,862,550,0,0,0,0,4,4,4,0001-00-0001-00.png,0004-00-0000-08.png
00000009,263,1,1448392053184,1448392053236,862,318,0,0,0,3,0,3,3,0002-00-0001-96.png,0001-00-0000-38.png
00000009,264,1,1448392054820,1448392055380,939,346,0,0,0,2,1,1,3,0003-00-0001-91.png,0005-00-0001-85.png
00000009,265,0,1448392056352,1448392056441,862,488,0,0,0,1,4,3,5,0005-00-0000-16.png,0004-00-0001-33.png
00000009,266,1,1448392059324,1448392059879,983,403,0,0,0,4,2,2,6,0004-00-0001-58.png,0003-00-0000-27.png
00000009,267,1,1448392060855,1448392061542,917,330,0,0,0,3,1,2,4,0002-00-0001-05.png,0005-00-0000-40.png
00000009,268,1,1448392062585,1448392062661,882,453,0,0,0,3,2,1,5,0002-00-0000-27.png,0003-00-0000-82.png
00000009,269,1,1448392063827,1448392063863,888,462,0,0,0,2,0,2,2,0003-00-0001-56.png,0001-00-0000-50.png
00000009,270,0,1448392065046,1448392065939,417,336,0,0,0,4,3,1,7,0004-00-0000-64.png,0002-00-0000-25.png
00000009,271,1,1448392068782,1448392069335,376,346,0,0,0,1,2,1,3,0005-00-0000-00.png,0003-00-0000-74.png
00000009,272,1,1448392070271,1448392071364,480,270,0,0,0,2,4,2,6,0003-00-0001-23.png,0004-00-0000-71.png
00000009,273,0,1448392072363,1448392072399,857,501,0,0,0,0,1,1,1,0001-00-0001-71.png,0005-00-0001-34.png
00000009,274,0,1448392075925,1448392075965,862,332,0,0,0,2,3,1,5,0003-00-0001-21.png,0002-00-0001-45.png
00000009,275,1,1448392079019,1448392079071,965,353,0,0,0,4,0,4,4,0004-00-0001-97.png,0001-00-0001-60.png
00000009,276,1,1448392080669,1448392081188,1036,265,0,0,0,1,0,1,1,0005-00-0001-69.png,0001-00-0001-61.png
00000009,277,1,1448392082141,1448392083029,377,327,0,0,0,0,2,2,2,0001-00-0001-19.png,0003-00-0000-86.png
00000009,278,0,1448392084028,1448392084056,863,519,0,0,0,3,4,1,7,0002-00-0000-93.png,0004-00-0000-02.png
00000009,279,1,1448392087167,1448392087764,487,284,0,0,0,1,3,2,4,0005-00-0001-55.png,0002-00-0001-38.png
00000009,280,1,1448392088709,1448392089484,459,248,0,0,0,0,3,3,3,0001-00-0001-52.png,0002-00-0000-75.png
00000009,281,1,1448392090418,1448392091476,939,297,0,0,0,4,1,3,5,0004-00-0001-74.png,0005-00-0000-56.png
00000009,282,0,1448392092545,1448392093512,913,291,0,0,0,3,4,1,7,0002-00-0000-32.png,0004-00-0001-84.png
00000009,283,1,1448392096535,1448392097048,473,255,0,0,0,1,4,3,5,0005-00-0001-12.png,0004-00-0000-76.png
00000009,284,0,1448392098597,1448392099170,428,357,0,0,0,3,1,2,4,0002-00-0000-38.png,0005-00-0001-69.png
00000009,285,0,1448392102331,1448392102927,963,436,0,0,0,1,2,1,3,0005-00-0001-33.png,0003-00-0000-01.png
00000009,286,0,1448392106376,1448392106872,417,407,0,0,0,1,0,1,1,0005-00-0000-53.png,0001-00-0000-08.png
00000009,287,0,1448392109806,1448392110329,943,300,0,0,0,0,1,1,1,0001-00-0000-68.png,0005-00-0001-86.png
00000009,288,1,1448392113244,1448392113725,939,294,0,0,0,2,1,1,3,0003-00-0001-05.png,0005-00-0001-12.png
00000009,289,1,1448392114778,1448392115706,459,272,0,0,0,2,3,1,5,0003-00-0000-03.png,0002-00-0000-27.png
00000009,290,1,1448392116640,1448392117536,466,241,0,0,0,0,4,4,4,0001-00-0001-93.png,0004-00-0000-22.png
00000009,291,1,1448392118539,1448392118591,862,497,0,0,0,2,0,2,2,0003-00-0000-63.png,0001-00-0001-40.png
00000009,292,0,1448392119702,1448392120807,1091,279,0,0,0,0,2,2,2,0001-00-0000-21.png,0003-00-0000-95.png
00000009,293,1,1448392123957,1448392123992,909,320,0,0,0,3,0,3,3,0002-00-0000-19.png,0001-00-0000-82.png
00000009,294,0,1448392124979,1448392125903,1016,289,0,0,0,0,3,3,3,0001-00-0001-78.png,0002-00-0001-41.png
00000009,295,1,1448392129044,1448392129076,891,310,0,0,0,4,2,2,6,0004-00-0001-97.png,0003-00-0001-10.png
00000009,296,0,1448392130020,1448392130980,511,244,0,0,0,4,3,1,7,0004-00-0001-20.png,0002-00-0000-36.png
00000009,297,1,1448392134111,1448392134154,880,318,0,0,0,4,0,4,4,0004-00-0001-57.png,0001-00-0000-20.png
00000009,298,1,1448392135715,1448392135779,881,281,0,0,0,3,2,1,5,0002-00-0001-27.png,0003-00-0001-83.png
00000009,299,1,1448392136874,1448392137861,465,228,0,0,0,1,3,2,4,0005-00-0001-28.png,0002-00-0000-13.png
00000009,300,0,1448392138963,1448392138979,865,409,0,0,0,2,4,2,6,0003-00-0000-42.png,0004-00-0001-35.png
00000009,301,1,1448392142014,1448392142766,954,310,0,0,0,4,0,4,4,0004-00-0001-91.png,0001-00-0001-37.png
00000009,302,0,1448392143774,1448392143794,866,489,0,0,0,0,4,4,4,0001-00-0001-25.png,0004-00-0000-75.png
00000009,303,1,1448392146885,1448392147420,417,351,0,0,0,1,4,3,5,0005-00-0001-63.png,0004-00-0001-45.png
00000009,304,0,1448392148354,1448392149052,483,253,0,0,0,3,1,2,4,0002-00-0001-14.png,0005-00-0001-71.png
00000009,305,1,1448392152209,1448392152247,892,299,0,0,0,2,0,2,2,0003-00-0001-77.png,0001-00-0001-72.png
00000009,306,1,1448392153223,1448392154017,449,404,0,0,0,0,2,2,2,0001-00-0000-54.png,0003-00-0000-14.png
00000009,307,1,1448392155132,1448392155198,862,505,0,0,0,1,0,1,1,0005-00-0000-47.png,0001-00-0000-02.png
00000009,308,0,1448392156500,1448392156569,897,488,0,0,0,0,3,3,3,0001-00-0001-57.png,0002-00-0000-12.png
00000009,309,0,1448392159633,1448392159657,903,361,0,0,0,1,3,2,4,0005-00-0000-13.png,0002-00-0001-56.png
00000009,310,1,1448392162571,1448392162651,913,355,0,0,0,4,1,3,5,0004-00-0001-63.png,0005-00-0001-91.png
00000009,311,1,1448392164204,1448392164986,919,294,0,0,0,2,1,1,3,0003-00-0000-71.png,0005-00-0001-44.png
00000009,312,1,1448392165941,1448392165981,862,450,0,0,0,4,3,1,7,0004-00-0001-29.png,0002-00-0001-36.png
00000009,313,1,1448392167098,1448392168219,1016,253,0,0,0,4,2,2,6,0004-00-0000-29.png,0003-00-0001-70.png
00000009,314,0,1448392169222,1448392169250,883,488,0,0,0,1,2,1,3,0005-00-0000-64.png,0003-00-0000-79.png
00000009,315,0,1448392172091,1448392172136,884,386,0,0,0,2,3,1,5,0003-00-0000-54.png,0002-00-0001-89.png
00000009,316,1,1448392175266,1448392175314,937,312,0,0,0,3,0,3,3,0002-00-0001-74.png,0001-00-0001-31.png
00000009,317,0,1448392176902,1448392177168,937,338,0,0,0,3,4,1,7,0002-00-0000-85.png,0004-00-0000-58.png
00000009,318,0,1448392180381,1448392180861,420,384,0,0,0,3,2,1,5,0002-00-0000-05.png,0003-00-0001-22.png
00000009,319,0,1448392184030,1448392184058,900,327,0,0,0,2,4,2,6,0003-00-0001-73.png,0004-00-0000-41.png
00000009,320,0,1448392187202,1448392187226,978,306,0,0,0,0,1,1,1,0001-00-0001-70.png,0005-00-0000-41.png
00000009,321,1,1448392190371,1448392190411,914,334,0,0,0,3,0,3,3,0002-00-0000-07.png,0001-00-0000-38.png
00000009,322,1,1448392191987,1448392192728,971,324,0,0,0,4,0,4,4,0004-00-0001-21.png,0001-00-0001-44.png
00000009,323,0,1448392193708,1448392193756,866,458,0,0,0,2,3,1,5,0003-00-0001-51.png,0002-00-0000-75.png
00000009,324,1,1448392196709,1448392197274,964,295,0,0,0,2,1,1,3,0003-00-0001-75.png,0005-00-0000-85.png
00000009,325,1,1448392198179,1448392198209,905,487,0,0,0,3,1,2,4,0002-00-0001-05.png,0005-00-0000-31.png
00000009,326,1,1448392199301,1448392200422,1060,276,0,0,0,4,3,1,7,0004-00-0001-90.png,0002-00-0000-07.png
00000009,327,0,1448392201447,1448392201467,867,449,0,0,0,1,2,1,3,0005-00-0000-42.png,0003-00-0001-27.png
00000009,328,1,1448392204629,1448392204688,913,332,0,0,0,3,2,1,5,0002-00-0000-91.png,0003-00-0000-52.png
00000009,329,1,1448392206187,1448392206207,863,327,0,0,0,1,0,1,1,0005-00-0000-46.png,0001-00-0001-08.png
00000009,330,1,1448392207938,1448392208436,496,247,0,0,0,0,4,4,4,0001-00-0001-99.png,0004-00-0001-97.png
00000009,331,0,1448392210145,1448392210185,888,332,0,0,0,0,2,2,2,0001-00-0000-75.png,0003-00-0001-34.png
00000009,332,0,1448392213390,1448392213490,865,281,0,0,0,3,4,1,7,0002-00-0000-34.png,0004-00-0000-89.png
00000009,333,1,1448392216507,1448392217032,1041,253,0,0,0,4,1,3,5,0004-00-0001-11.png,0005-00-0000-81.png
00000009,334,1,1448392217973,1448392218724,495,242,0,0,0,1,3,2,4,0005-00-0001-23.png,0002-00-0000-32.png
00000009,335,1,1448392220261,1448392220800,478,262,0,0,0,1,4,3,5,0005-00-0000-40.png,0004-00-0001-49.png
00000009,336,0,1448392221999,1448392222760,954,387,0,0,0,0,3,3,3,0001-00-0001-34.png,0002-00-0001-67.png
00000009,337,0,1448392225695,1448392225743,876,384,0,0,0,0,1,1,1,0001-00-0001-11.png,0005-00-0001-50.png
00000009,338,1,1448392228836,1448392229301,969,280,0,0,0,4,2,2,6,0004-00-0001-47.png,0003-00-0000-30.png
00000009,339,1,1448392230228,1448392230357,888,514,0,0,0,2,0,2,2,0003-00-0001-54.png,0001-00-0001-33.png
00000009,340,1,1448392231628,1448392232728,434,347,0,0,0,2,4,2,6,0003-00-0001-69.png,0004-00-0000-29.png
00000009,341,1,1448392233796,1448392234615,964,384,0,0,0,4,2,2,6,0004-00-0000-09.png,0003-00-0001-17.png
00000009,342,1,1448392235666,1448392236465,449,402,0,0,0,0,3,3,3,0001-00-0000-14.png,0002-00-0001-67.png
00000009,343,1,1448392237687,1448392237746,862,451,0,0,0,4,3,1,7,0004-00-0000-09.png,0002-00-0000-16.png
00000009,344,0,1448392239001,1448392239068,862,477,0,0,0,0,1,1,1,0001-00-0000-63.png,0005-00-0001-58.png
00000009,345,1,1448392242281,1448392242816,505,265,0,0,0,0,2,2,2,0001-00-0000-22.png,0003-00-0001-23.png
00000009,346,0,1448392243701,1448392244405,1050,242,0,0,0,2,3,1,5,0003-00-0000-48.png,0002-00-0000-84.png
00000009,347,1,1448392247270,1448392247880,492,253,0,0,0,3,4,1,7,0002-00-0001-03.png,0004-00-0001-83.png
00000009,348,1,1448392248801,1448392249961,412,320,0,0,0,2,4,2,6,0003-00-0000-96.png,0004-00-0001-80.png
00000009,349,1,1448392250915,1448392251647,964,370,0,0,0,3,0,3,3,0002-00-0001-66.png,0001-00-0001-29.png
00000009,350,1,1448392252816,1448392252832,859,463,0,0,0,1,0,1,1,0005-00-0001-79.png,0001-00-0001-67.png
00000009,351,1,1448392254038,1448392255228,938,367,0,0,0,3,2,1,5,0002-00-0001-74.png,0003-00-0000-37.png
00000009,352,1,1448392256202,1448392256984,939,317,0,0,0,4,0,4,4,0004-00-0000-01.png,0001-00-0000-34.png
00000009,353,1,1448392258259,1448392258271,880,461,0,0,0,4,1,3,5,0004-00-0000-15.png,0005-00-0000-64.png
00000009,354,1,1448392260019,1448392260537,494,237,0,0,0,1,2,1,3,0005-00-0000-22.png,0003-00-0001-88.png
00000009,355,0,1448392261541,1448392262323,455,245,0,0,0,2,0,2,2,0003-00-0000-11.png,0001-00-0000-95.png
00000009,356,0,1448392265453,1448392266232,413,383,0,0,0,3,1,2,4,0002-00-0001-80.png,0005-00-0001-25.png
00000009,357,0,1448392269364,1448392269430,963,342,0,0,0,1,4,3,5,0005-00-0001-09.png,0004-00-0000-09.png
00000009,358,1,1448392272642,1448392272856,880,384,0,0,0,2,1,1,3,0003-00-0000-20.png,0005-00-0001-15.png
00000009,359,1,1448392273862,1448392274505,486,241,0,0,0,0,4,4,4,0001-00-0001-86.png,0004-00-0000-62.png
00000009,360,1,1448392275410,1448392276163,414,307,0,0,0,1,3,2,4,0005-00-0001-00.png,0002-00-0001-59.png
00000009,361,0,1448392277201,1448392278064,967,337,0,0,0,1,3,2,4,0005-00-0000-10.png,0002-00-0001-30.png
00000009,362,1,1448392280912,1448392281541,501,268,0,0,0,1,4,3,5,0005-00-0000-41.png,0004-00-0001-77.png
00000009,363,1,1448392282459,1448392283512,964,270,0,0,0,3,1,2,4,0002-00-0000-00.png,0005-00-0001-19.png
00000009,364,0,1448392284424,1448392284476,882,500,0,0,0,0,1,1,1,0001-00-0001-36.png,0005-00-0001-79.png
00000009,365,0,1448392287507,1448392288044,913,399,0,0,0,2,4,2,6,0003-00-0000-22.png,0004-00-0000-36.png
00000009,366,1,1448392291205,1448392291904,1068,290,0,0,0,3,2,1,5,0002-00-0000-69.png,0003-00-0001-93.png
00000009,367,1,1448392292894,1448392293538,1041,262,0,0,0,4,0,4,4,0004-00-0001-98.png,0001-00-0000-78.png
00000009,368,1,1448392294623,1448392294651,862,491,0,0,0,4,3,1,7,0004-00-0001-04.png,0002-00-0001-04.png
00000009,369,1,1448392295697,1448392296950,504,253,0,0,0,3,4,1,7,0002-00-0001-36.png,0004-00-0001-83.png
00000009,370,0,1448392297922,1448392298950,942,365,0,0,0,0,3,3,3,0001-00-0001-24.png,0002-00-0001-10.png
00000009,371,1,1448392302084,1448392302112,866,336,0,0,0,1,0,1,1,0005-00-0000-39.png,0001-00-0001-53.png
00000009,372,1,1448392303070,1448392303920,478,237,0,0,0,0,4,4,4,0001-00-0000-56.png,0004-00-0001-75.png
00000009,373,1,1448392304895,1448392305950,478,236,0,0,0,0,2,2,2,0001-00-0001-29.png,0003-00-0001-25.png
00000009,374,1,1448392306926,1448392306946,888,424,0,0,0,4,1,3,5,0004-00-0000-63.png,0005-00-0001-57.png
00000009,375,1,1448392308000,1448392309225,486,261,0,0,0,2,3,1,5,0003-00-0001-05.png,0002-00-0000-74.png
00000009,376,1,1448392310230,1448392310988,922,305,0,0,0,3,0,3,3,0002-00-0001-15.png,0001-00-0000-25.png
00000009,377,0,1448392312095,1448392313011,467,241,0,0,0,2,0,2,2,0003-00-0001-41.png,0001-00-0000-73.png
00000009,378,1,1448392321372,1448392321440,871,276,0,0,0,2,1,1,3,0003-00-0000-74.png,0005-00-0001-23.png
00000009,379,1,1448392323043,1448392323549,477,235,0,0,0,1,2,1,3,0005-00-0001-06.png,0003-00-0000-22.png
00000009,380,1,1448392324494,1448392325412,939,374,0,0,0,4,2,2,6,0004-00-0000-09.png,0003-00-0001-85.png
00000009,381,1,1448392327030,1448392327574,400,345,0,0,0,0,1,1,1,0001-00-0000-62.png,0005-00-0000-94.png
00000009,382,1,1448392328560,1448392329525,1022,272,0,0,0,4,1,3,5,0004-00-0001-79.png,0005-00-0001-09.png
00000009,383,1,1448392330586,1448392331493,501,238,0,0,0,0,2,2,2,0001-00-0000-21.png,0003-00-0001-47.png
00000009,384,1,1448392332516,1448392333513,921,369,0,0,0,4,2,2,6,0004-00-0000-75.png,0003-00-0001-69.png
00000009,385,1,1448392334534,1448392334570,873,497,0,0,0,4,3,1,7,0004-00-0000-76.png,0002-00-0001-37.png
00000009,386,1,1448392336610,1448392337214,465,384,0,0,0,0,4,4,4,0001-00-0000-01.png,0004-00-0001-97.png
00000009,387,1,1448392338168,1448392338988,488,252,0,0,0,1,3,2,4,0005-00-0000-98.png,0002-00-0001-67.png
00000009,388,0,1448392340007,1448392340935,422,342,0,0,0,1,0,1,1,0005-00-0001-57.png,0001-00-0000-40.png
00000009,389,1,1448392343824,1448392344326,938,300,0,0,0,3,0,3,3,0002-00-0000-46.png,0001-00-0001-02.png
00000009,390,1,1448392345233,1448392346128,913,332,0,0,0,2,1,1,3,0003-00-0000-49.png,0005-00-0000-48.png
00000009,391,1,1448392347151,1448392348336,421,357,0,0,0,3,4,1,7,0002-00-0001-52.png,0004-00-0000-84.png
00000009,392,0,1448392349308,1448392349987,415,328,0,0,0,3,2,1,5,0002-00-0001-62.png,0003-00-0001-73.png
00000009,393,1,1448392352947,1448392353477,501,270,0,0,0,1,4,3,5,0005-00-0001-89.png,0004-00-0000-20.png
00000009,394,1,1448392354345,1448392355279,504,238,0,0,0,2,4,2,6,0003-00-0001-00.png,0004-00-0000-85.png
00000009,395,1,1448392356264,1448392356925,499,244,0,0,0,0,3,3,3,0001-00-0000-19.png,0002-00-0000-11.png
00000009,396,1,1448392358116,1448392358906,939,320,0,0,0,4,0,4,4,0004-00-0001-49.png,0001-00-0000-15.png
00000009,397,0,1448392359961,1448392360823,504,237,0,0,0,3,1,2,4,0002-00-0001-59.png,0005-00-0000-48.png
00000009,398,0,1448392363923,1448392364449,964,279,0,0,0,1,2,1,3,0005-00-0000-26.png,0003-00-0001-14.png
00000009,399,1,1448392367323,1448392367978,522,233,0,0,0,2,3,1,5,0003-00-0001-88.png,0002-00-0001-18.png
00000009,400,0,1448392368893,1448392370755,495,233,0,0,0,2,0,2,2,0003-00-0001-68.png,0001-00-0000-39.png
00000009,401,1,1448392373714,1448392374207,389,357,0,0,0,0,4,4,4,0001-00-0000-50.png,0004-00-0001-16.png
00000009,402,1,1448392375127,1448392375935,437,384,0,0,0,0,2,2,2,0001-00-0001-04.png,0003-00-0000-76.png
00000009,403,1,1448392376955,1448392377982,482,247,0,0,0,2,4,2,6,0003-00-0000-32.png,0004-00-0001-11.png
00000009,404,0,1448392379020,1448392379745,942,299,0,0,0,2,3,1,5,0003-00-0000-31.png,0002-00-0001-66.png
00000009,405,1,1448392382915,1448392383595,1070,288,0,0,0,4,0,4,4,0004-00-0001-57.png,0001-00-0001-68.png
00000009,406,1,1448392384597,1448392384728,869,559,0,0,0,4,1,3,5,0004-00-0000-23.png,0005-00-0001-14.png
00000009,407,1,1448392385978,1448392386985,970,410,0,0,0,3,1,2,4,0002-00-0000-79.png,0005-00-0000-86.png
00000009,408,1,1448392387984,1448392388032,866,432,0,0,0,4,2,2,6,0004-00-0000-02.png,0003-00-0000-77.png
00000009,409,1,1448392389298,1448392389996,496,261,0,0,0,0,3,3,3,0001-00-0001-55.png,0002-00-0000-56.png
00000009,410,0,1448392391592,1448392391608,862,410,0,0,0,1,4,3,5,0005-00-0000-37.png,0004-00-0000-59.png
00000009,411,1,1448392394600,1448392395146,974,324,0,0,0,2,0,2,2,0003-00-0001-12.png,0001-00-0001-74.png
00000009,412,0,1448392396066,1448392396118,913,527,0,0,0,1,3,2,4,0005-00-0000-66.png,0002-00-0001-72.png
00000009,413,1,1448392399193,1448392399261,939,358,0,0,0,3,0,3,3,0002-00-0001-88.png,0001-00-0000-42.png
00000009,414,1,1448392400753,1448392401641,983,455,0,0,0,3,2,1,5,0002-00-0001-53.png,0003-00-0000-11.png
00000009,415,1,1448392402631,1448392402659,903,431,0,0,0,1,0,1,1,0005-00-0001-65.png,0001-00-0000-09.png
00000009,416,0,1448392404431,1448392404499,881,460,0,0,0,0,1,1,1,0001-00-0000-67.png,0005-00-0000-01.png
00000009,417,1,1448392407657,1448392408264,952,279,0,0,0,2,1,1,3,0003-00-0000-67.png,0005-00-0001-44.png
00000009,418,0,1448392409199,1448392409219,860,436,0,0,0,3,4,1,7,0002-00-0001-55.png,0004-00-0001-03.png
00000009,419,1,1448392412172,1448392412661,421,380,0,0,0,1,2,1,3,0005-00-0000-17.png,0003-00-0000-50.png
00000009,420,1,1448392413603,1448392414642,964,306,0,0,0,4,3,1,7,0004-00-0001-77.png,0002-00-0000-82.png
00000009,421,0,1448392415626,1448392415646,879,458,0,0,0,3,4,1,7,0002-00-0000-69.png,0004-00-0000-05.png
00000009,422,1,1448392418808,1448392419308,495,283,0,0,0,1,4,3,5,0005-00-0001-22.png,0004-00-0001-96.png
00000009,423,1,1448392420240,1448392421193,1067,275,0,0,0,4,2,2,6,0004-00-0001-63.png,0003-00-0001-10.png
00000009,424,1,1448392422129,1448392422906,441,384,0,0,0,2,3,1,5,0003-00-0001-96.png,0002-00-0000-58.png
00000009,425,0,1448392423957,1448392424005,862,499,0,0,0,0,3,3,3,0001-00-0000-01.png,0002-00-0000-89.png
00000009,426,1,1448392427126,1448392427870,990,279,0,0,0,3,1,2,4,0002-00-0001-93.png,0005-00-0000-32.png
00000009,427,0,1448392428784,1448392429676,495,260,0,0,0,2,0,2,2,0003-00-0000-37.png,0001-00-0001-37.png
00000009,428,1,1448392432798,1448392432838,894,333,0,0,0,1,0,1,1,0005-00-0001-03.png,0001-00-0000-47.png
00000009,429,1,1448392433832,1448392434471,501,247,0,0,0,0,1,1,1,0001-00-0000-19.png,0005-00-0001-84.png
00000009,430,1,1448392435463,1448392435467,866,508,0,0,0,4,3,1,7,0004-00-0000-72.png,0002-00-0001-81.png
00000009,431,1,1448392436476,1448392436532,885,474,0,0,0,3,2,1,5,0002-00-0000-12.png,0003-00-0000-23.png
00000009,432,1,1448392437717,1448392437749,860,434,0,0,0,3,0,3,3,0002-00-0000-57.png,0001-00-0001-80.png
00000009,433,1,1448392438972,1448392439725,1026,279,0,0,0,4,1,3,5,0004-00-0001-23.png,0005-00-0000-76.png
00000009,434,1,1448392440700,1448392441565,441,331,0,0,0,1,2,1,3,0005-00-0000-72.png,0003-00-0000-14.png
00000009,435,1,1448392442697,1448392443694,478,239,0,0,0,0,4,4,4,0001-00-0000-17.png,0004-00-0001-69.png
00000009,436,0,1448392444732,1448392445499,913,291,0,0,0,0,2,2,2,0001-00-0001-72.png,0003-00-0001-07.png
00000009,437,1,1448392448334,1448392448913,489,257,0,0,0,2,4,2,6,0003-00-0000-85.png,0004-00-0000-45.png
00000009,438,1,1448392449801,1448392449821,872,446,0,0,0,4,0,4,4,0004-00-0000-77.png,0001-00-0000-70.png
00000009,439,1,1448392450971,1448392451838,1041,253,0,0,0,2,1,1,3,0003-00-0000-97.png,0005-00-0001-36.png
00000009,440,0,1448392452780,1448392452832,875,476,0,0,0,1,3,2,4,0005-00-0001-13.png,0002-00-0000-16.png
00000009,441,1,1448392455884,1448392456388,413,377,0,0,0,1,3,2,4,0005-00-0000-33.png,0002-00-0000-04.png
00000009,442,0,1448392458285,1448392459487,494,247,0,0,0,4,3,1,7,0004-00-0001-72.png,0002-00-0001-87.png
00000009,443,1,1448392462336,1448392463025,497,277,0,0,0,0,3,3,3,0001-00-0001-51.png,0002-00-0000-04.png
00000009,444,0,1448392464000,1448392464016,867,458,0,0,0,2,3,1,5,0003-00-0000-36.png,0002-00-0000-94.png
00000009,445,0,1448392467140,1448392467184,945,327,0,0,0,1,4,3,5,0005-00-0000-26.png,0004-00-0000-05.png
00000009,446,0,1448392470937,1448392470957,862,341,0,0,0,1,2,1,3,0005-00-0001-28.png,0003-00-0000-44.png
00000009,447,1,1448392474019,1448392474035,876,403,0,0,0,4,2,2,6,0004-00-0001-90.png,0003-00-0000-47.png
00000009,448,1,1448392475039,1448392475778,515,242,0,0,0,3,4,1,7,0002-00-0001-03.png,0004-00-0000-41.png
00000009,449,0,1448392476779,1448392476811,901,450,0,0,0,0,1,1,1,0001-00-0000-67.png,0005-00-0001-23.png
00000009,450,1,1448392479852,1448392479986,878,384,0,0,0,3,2,1,5,0002-00-0001-10.png,0003-00-0001-22.png
00000009,451,1,1448392481513,1448392482033,990,290,0,0,0,3,1,2,4,0002-00-0001-46.png,0005-00-0000-74.png
00000009,452,1,1448392483005,1448392483824,410,323,0,0,0,2,4,2,6,0003-00-0001-09.png,0004-00-0000-42.png
00000009,453,1,1448392484773,1448392485555,911,410,0,0,0,1,0,1,1,0005-00-0000-73.png,0001-00-0001-39.png
00000009,454,0,1448392486740,1448392486760,888,488,0,0,0,0,2,2,2,0001-00-0000-46.png,0003-00-0000-35.png
00000009,455,1,1448392489598,1448392490097,1019,281,0,0,0,2,1,1,3,0003-00-0000-48.png,0005-00-0000-09.png
00000009,456,1,1448392490992,1448392491711,437,384,0,0,0,0,4,4,4,0001-00-0000-17.png,0004-00-0001-37.png
00000009,457,1,1448392492633,1448392492665,888,478,0,0,0,3,0,3,3,0002-00-0000-67.png,0001-00-0000-82.png
00000009,458,1,1448392493833,1448392493909,888,498,0,0,0,2,0,2,2,0003-00-0001-63.png,0001-00-0001-38.png
00000009,459,1,1448392494917,1448392495726,1016,290,0,0,0,4,1,3,5,0004-00-0000-87.png,0005-00-0000-26.png
00000009,460,1,1448392496845,1448392496892,911,499,0,0,0,4,0,4,4,0004-00-0001-52.png,0001-00-0000-55.png
00000009,461,1,1448392498159,1448392499132,495,265,0,0,0,3,4,1,7,0002-00-0001-53.png,0004-00-0000-49.png
00000009,462,1,1448392500115,1448392500810,496,260,0,0,0,0,4,4,4,0001-00-0001-00.png,0004-00-0001-95.png
00000009,463,1,1448392502639,1448392503427,1019,309,0,0,0,2,0,2,2,0003-00-0000-53.png,0001-00-0000-36.png
00000009,464,1,1448392504332,1448392504360,857,434,0,0,0,4,0,4,4,0004-00-0000-35.png,0001-00-0000-92.png
00000009,465,1,1448392505522,1448392506986,462,248,0,0,0,1,4,3,5,0005-00-0001-37.png,0004-00-0001-62.png
00000009,466,1,1448392508021,1448392508053,862,488,0,0,0,3,2,1,5,0002-00-0001-36.png,0003-00-0000-23.png
00000009,467,1,1448392509205,1448392509221,862,499,0,0,0,3,1,2,4,0002-00-0001-79.png,0005-00-0000-72.png
00000009,468,0,1448392510376,1448392510400,865,435,0,0,0,0,1,1,1,0001-00-0000-69.png,0005-00-0001-66.png
00000009,469,1,1448392513495,1448392514025,939,369,0,0,0,4,2,2,6,0004-00-0000-28.png,0003-00-0000-11.png
00000009,470,0,1448392514929,1448392514941,864,411,0,0,0,0,2,2,2,0001-00-0001-39.png,0003-00-0001-31.png
00000009,471,0,1448392517908,1448392517956,862,399,0,0,0,1,2,1,3,0005-00-0000-74.png,0003-00-0000-07.png
00000009,472,1,1448392521130,1448392521614,1046,275,0,0,0,1,0,1,1,0005-00-0001-72.png,0001-00-0001-14.png
00000009,473,1,1448392522466,1448392523131,437,384,0,0,0,0,3,3,3,0001-00-0001-43.png,0002-00-0001-08.png
00000009,474,1,1448392524081,1448392524180,862,516,0,0,0,3,0,3,3,0002-00-0001-73.png,0001-00-0001-30.png
00000009,475,1,1448392525181,1448392526044,1024,298,0,0,0,2,1,1,3,0003-00-0001-52.png,0005-00-0000-40.png
00000009,476,0,1448392526973,1448392527029,883,448,0,0,0,2,4,2,6,0003-00-0000-19.png,0004-00-0000-94.png
00000009,477,0,1448392530064,1448392530604,965,300,0,0,0,2,3,1,5,0003-00-0000-04.png,0002-00-0000-81.png
00000009,478,1,1448392533969,1448392533985,931,314,0,0,0,4,1,3,5,0004-00-0001-68.png,0005-00-0001-06.png
00000009,479,1,1448392535460,1448392536025,441,410,0,0,0,1,3,2,4,0005-00-0001-29.png,0002-00-0000-51.png
00000009,480,1,1448392536958,1448392537983,950,384,0,0,0,4,3,1,7,0004-00-0000-68.png,0002-00-0000-26.png
00000009,481,0,1448392538968,1448392539875,401,317,0,0,0,3,1,2,4,0002-00-0001-98.png,0005-00-0001-57.png
00000009,482,1,1448392542800,1448392543582,1067,279,0,0,0,4,2,2,6,0004-00-0000-10.png,0003-00-0001-26.png
00000009,483,1,1448392544502,1448392545246,510,218,0,0,0,1,3,2,4,0005-00-0000-46.png,0002-00-0000-34.png
00000009,484,1,1448392546251,1448392546941,498,236,0,0,0,0,3,3,3,0001-00-0000-61.png,0002-00-0001-55.png
00000009,485,1,1448392547939,1448392548737,514,221,0,0,0,0,2,2,2,0001-00-0000-56.png,0003-00-0001-88.png
00000009,486,1,1448392549659,1448392550325,939,282,0,0,0,2,1,1,3,0003-00-0000-19.png,0005-00-0000-39.png
00000009,487,1,1448392551346,1448392552083,494,239,0,0,0,0,1,1,1,0001-00-0001-81.png,0005-00-0000-82.png
00000009,488,1,1448392553885,1448392554552,923,331,0,0,0,2,0,2,2,0003-00-0000-60.png,0001-00-0000-82.png
00000009,489,1,1448392555473,1448392556223,913,288,0,0,0,4,1,3,5,0004-00-0000-19.png,0005-00-0001-51.png
00000009,490,1,1448392557171,1448392557938,522,221,0,0,0,3,4,1,7,0002-00-0001-22.png,0004-00-0000-07.png
00000009,491,1,1448392558902,1448392559825,1034,260,0,0,0,3,2,1,5,0002-00-0001-54.png,0003-00-0001-83.png
00000009,492,0,1448392560839,1448392560895,888,477,0,0,0,1,4,3,5,0005-00-0001-56.png,0004-00-0000-40.png
00000009,493,0,1448392563975,1448392564011,931,335,0,0,0,0,4,4,4,0001-00-0001-59.png,0004-00-0001-39.png
00000009,494,1,1448392567170,1448392567742,1049,289,0,0,0,1,0,1,1,0005-00-0000-57.png,0001-00-0000-11.png
00000009,495,1,1448392568728,1448392569328,447,431,0,0,0,2,3,1,5,0003-00-0000-69.png,0002-00-0000-51.png
00000009,496,1,1448392570327,1448392571110,1025,279,0,0,0,4,3,1,7,0004-00-0000-03.png,0002-00-0001-99.png
00000009,497,0,1448392572136,1448392572921,1067,270,0,0,0,2,4,2,6,0003-00-0000-02.png,0004-00-0001-97.png
00000009,498,1,1448392576051,1448392576532,1054,253,0,0,0,3,0,3,3,0002-00-0001-75.png,0001-00-0000-68.png
00000009,499,1,1448392577881,1448392578407,488,241,0,0,0,1,2,1,3,0005-00-0001-44.png,0003-00-0000-45.png
00000009,500,1,1448392579322,1448392580164,1037,277,0,0,0,4,0,4,4,0004-00-0000-22.png,0001-00-0001-83.png
00000009,501,1,1448392581250,1448392582131,477,253,0,0,0,0,4,4,4,0001-00-0001-41.png,0004-00-0001-06.png
00000009,502,1,1448392583035,1448392583841,466,370,0,0,0,1,3,2,4,0005-00-0001-27.png,0002-00-0001-83.png
00000009,503,0,1448392584994,1448392585101,866,541,0,0,0,1,4,3,5,0005-00-0000-38.png,0004-00-0001-42.png
00000009,504,1,1448392588174,1448392588695,963,301,0,0,0,4,0,4,4,0004-00-0000-06.png,0001-00-0000-24.png
00000009,505,0,1448392589596,1448392590435,1040,254,0,0,0,3,4,1,7,0002-00-0000-69.png,0004-00-0000-96.png
00000009,506,0,1448392593473,1448392594101,964,332,0,0,0,0,1,1,1,0001-00-0000-95.png,0005-00-0001-04.png
00000009,507,1,1448392597395,1448392597905,939,320,0,0,0,4,2,2,6,0004-00-0001-86.png,0003-00-0001-72.png
00000009,508,0,1448392598861,1448392599503,523,264,0,0,0,3,2,1,5,0002-00-0000-34.png,0003-00-0000-14.png
00000009,509,0,1448392602622,1448392603240,479,257,0,0,0,1,0,1,1,0005-00-0001-52.png,0001-00-0000-34.png
00000009,510,0,1448392606322,1448392606338,874,354,0,0,0,2,3,1,5,0003-00-0000-57.png,0002-00-0001-35.png
00000009,511,1,1448392609469,1448392609481,873,332,0,0,0,3,0,3,3,0002-00-0000-27.png,0001-00-0000-65.png
00000009,512,1,1448392610501,1448392611434,910,273,0,0,0,4,1,3,5,0004-00-0000-20.png,0005-00-0000-57.png
00000009,513,0,1448392612355,1448392612379,879,466,0,0,0,2,4,2,6,0003-00-0000-06.png,0004-00-0000-39.png
00000009,514,1,1448392615292,1448392615860,504,262,0,0,0,0,3,3,3,0001-00-0000-67.png,0002-00-0000-24.png
00000009,515,1,1448392616765,1448392617374,504,265,0,0,0,1,2,1,3,0005-00-0001-27.png,0003-00-0001-65.png
00000009,516,1,1448392618325,1448392619120,957,323,0,0,0,2,0,2,2,0003-00-0000-12.png,0001-00-0001-56.png
00000009,517,0,1448392620077,1448392620141,886,519,0,0,0,0,2,2,2,0001-00-0001-88.png,0003-00-0000-16.png
00000009,518,1,1448392623231,1448392623781,1016,306,0,0,0,2,1,1,3,0003-00-0001-80.png,0005-00-0000-70.png
00000009,519,0,1448392624712,1448392625389,521,234,0,0,0,4,3,1,7,0004-00-0000-37.png,0002-00-0000-17.png
00000009,520,1,1448392628582,1448392628616,891,331,0,0,0,3,1,2,4,0002-00-0000-31.png,0005-00-0001-20.png
00000009,521,1,1448392629676,1448392629764,894,528,0,0,0,2,0,2,2,0003-00-0001-63.png,0001-00-0000-85.png
00000009,522,1,1448392630947,1448392631788,955,386,0,0,0,3,1,2,4,0002-00-0001-26.png,0005-00-0000-09.png
00000009,523,1,1448392632784,1448392632843,906,467,0,0,0,3,0,3,3,0002-00-0000-25.png,0001-00-0000-92.png
00000009,524,1,1448392634095,1448392634822,521,261,0,0,0,1,3,2,4,0005-00-0001-07.png,0002-00-0000-93.png
00000009,525,0,1448392635784,1448392636520,522,273,0,0,0,1,0,1,1,0005-00-0001-77.png,0001-00-0001-89.png
00000009,526,1,1448392639550,1448392639572,904,388,0,0,0,2,1,1,3,0003-00-0001-46.png,0005-00-0001-94.png
00000009,527,1,1448392640604,1448392641335,959,302,0,0,0,4,3,1,7,0004-00-0001-96.png,0002-00-0000-52.png
00000009,528,0,1448392642314,1448392642342,925,482,0,0,0,3,4,1,7,0002-00-0000-38.png,0004-00-0000-99.png
00000009,529,0,1448392645482,1448392646026,1038,275,0,0,0,1,2,1,3,0005-00-0000-15.png,0003-00-0001-68.png
00000009,530,1,1448392649259,1448392649784,1041,253,0,0,0,4,2,2,6,0004-00-0001-01.png,0003-00-0001-42.png
00000009,531,1,1448392651174,1448392651355,914,471,0,0,0,4,0,4,4,0004-00-0001-13.png,0001-00-0001-47.png
00000009,532,0,1448392652441,1448392653407,891,396,0,0,0,2,3,1,5,0003-00-0001-30.png,0002-00-0001-20.png
00000009,533,1,1448392656304,1448392656790,1020,302,0,0,0,3,2,1,5,0002-00-0001-54.png,0003-00-0000-56.png
00000009,534,0,1448392657687,1448392657747,862,524,0,0,0,1,4,3,5,0005-00-0001-61.png,0004-00-0000-14.png
00000009,535,1,1448392660995,1448392661678,505,285,0,0,0,2,4,2,6,0003-00-0000-00.png,0004-00-0001-71.png
00000009,536,1,1448392662654,1448392663512,939,345,0,0,0,4,1,3,5,0004-00-0001-76.png,0005-00-0001-43.png
00000009,537,0,1448392664670,1448392664686,865,448,0,0,0,0,4,4,4,0001-00-0001-96.png,0004-00-0000-44.png
00000009,538,1,1448392667812,1448392668293,391,378,0,0,0,0,2,2,2,0001-00-0000-24.png,0003-00-0000-08.png
00000009,539,0,1448392669192,1448392669220,875,495,0,0,0,0,3,3,3,0001-00-0001-76.png,0002-00-0001-36.png
00000009,540,0,1448392672371,1448392672594,928,310,0,0,0,0,1,1,1,0001-00-0001-77.png,0005-00-0001-64.png
00000009,541,1,1448392676437,1448392676939,466,294,0,0,0,1,4,3,5,0005-00-0001-70.png,0004-00-0000-12.png
00000009,542,0,1448392677879,1448392678024,888,550,0,0,0,1,2,1,3,0005-00-0000-93.png,0003-00-0001-51.png
00000009,543,0,1448392681164,1448392681204,919,341,0,0,0,0,3,3,3,0001-00-0001-97.png,0002-00-0000-76.png
00000009,544,1,1448392684078,1448392684542,408,338,0,0,0,0,4,4,4,0001-00-0000-28.png,0004-00-0001-47.png
00000009,545,0,1448392685438,1448392686184,492,246,0,0,0,4,1,3,5,0004-00-0000-71.png,0005-00-0001-61.png
00000009,546,1,1448392689435,1448392690070,504,266,0,0,0,3,4,1,7,0002-00-0000-22.png,0004-00-0000-01.png
00000009,547,1,1448392690965,1448392691870,458,252,0,0,0,0,1,1,1,0001-00-0000-29.png,0005-00-0000-46.png
00000009,548,0,1448392692794,1448392692845,864,461,0,0,0,2,4,2,6,0003-00-0001-85.png,0004-00-0000-10.png
00000009,549,1,1448392695687,1448392696249,486,272,0,0,0,2,3,1,5,0003-00-0001-42.png,0002-00-0000-03.png
00000009,550,1,1448392697176,1448392698047,1041,284,0,0,0,2,1,1,3,0003-00-0001-74.png,0005-00-0001-95.png
00000009,551,1,1448392698975,1448392699828,1048,262,0,0,0,3,0,3,3,0002-00-0001-36.png,0001-00-0000-58.png
00000009,552,1,1448392701378,1448392702010,924,309,0,0,0,4,3,1,7,0004-00-0000-39.png,0002-00-0001-84.png
00000009,553,1,1448392703017,1448392703753,960,296,0,0,0,4,0,4,4,0004-00-0001-94.png,0001-00-0000-69.png
00000009,554,0,1448392704786,1448392704834,908,500,0,0,0,0,2,2,2,0001-00-0001-22.png,0003-00-0001-24.png
00000009,555,1,1448392712851,1448392713297,929,324,0,0,0,2,0,2,2,0003-00-0000-23.png,0001-00-0000-72.png
00000009,556,1,1448392714810,1448392715025,861,317,0,0,0,3,2,1,5,0002-00-0001-90.png,0003-00-0000-05.png
00000009,557,1,1448392716670,1448392717210,939,421,0,0,0,3,1,2,4,0002-00-0000-92.png,0005-00-0000-16.png
00000009,558,1,1448392718259,1448392718319,897,522,0,0,0,1,0,1,1,0005-00-0000-61.png,0001-00-0000-35.png
00000009,559,1,1448392719386,1448392720206,517,267,0,0,0,1,3,2,4,0005-00-0000-09.png,0002-00-0000-16.png
00000009,560,0,1448392721171,1448392721892,516,281,0,0,0,4,2,2,6,0004-00-0000-77.png,0003-00-0000-20.png
00000009,561,0,1448392727053,1448392727122,917,331,0,0,0,1,4,3,5,0005-00-0000-33.png,0004-00-0000-04.png
00000009,562,1,1448392733786,1448392734403,913,344,0,0,0,1,0,1,1,0005-00-0001-01.png,0001-00-0000-34.png
00000009,563,0,1448392735360,1448392736132,489,287,0,0,0,3,0,3,3,0002-00-0000-19.png,0001-00-0001-50.png
00000009,564,0,1448392740470,1448392741083,919,367,0,0,0,1,3,2,4,0005-00-0000-29.png,0002-00-0001-19.png
00000009,565,1,1448392744107,1448392744580,963,406,0,0,0,2,0,2,2,0003-00-0001-85.png,0001-00-0001-20.png
00000009,566,1,1448392745423,1448392745455,902,487,0,0,0,4,3,1,7,0004-00-0000-44.png,0002-00-0000-13.png
00000009,567,1,1448392746511,1448392746559,870,410,0,0,0,4,2,2,6,0004-00-0001-46.png,0003-00-0000-31.png
00000009,568,0,1448392747615,1448392747643,861,384,0,0,0,0,1,1,1,0001-00-0001-85.png,0005-00-0000-95.png
00000009,569,1,1448392750649,1448392751177,1039,279,0,0,0,3,2,1,5,0002-00-0000-10.png,0003-00-0001-57.png
00000009,570,1,1448392752085,1448392753390,470,252,0,0,0,2,4,2,6,0003-00-0000-61.png,0004-00-0000-02.png
00000009,571,0,1448392754302,1448392754352,860,425,0,0,0,2,3,1,5,0003-00-0000-32.png,0002-00-0000-33.png
00000009,572,1,1448392757575,1448392758084,507,245,0,0,0,0,3,3,3,0001-00-0001-81.png,0002-00-0000-69.png
00000009,573,1,1448392759567,1448392760152,916,309,0,0,0,4,0,4,4,0004-00-0001-87.png,0001-00-0000-69.png
00000009,574,1,1448392761141,1448392762045,939,332,0,0,0,4,1,3,5,0004-00-0001-98.png,0005-00-0000-97.png
00000009,575,1,1448392763028,1448392764428,464,256,0,0,0,3,4,1,7,0002-00-0001-64.png,0004-00-0000-22.png
00000009,576,1,1448392766465,1448392766981,478,269,0,0,0,1,2,1,3,0005-00-0001-93.png,0003-00-0000-45.png
00000009,577,1,1448392768006,1448392768727,504,265,0,0,0,0,2,2,2,0001-00-0001-62.png,0003-00-0001-09.png
00000009,578,1,1448392769759,1448392769842,870,514,0,0,0,2,1,1,3,0003-00-0001-06.png,0005-00-0000-06.png
00000009,579,0,1448392770947,1448392770987,870,352,0,0,0,0,4,4,4,0001-00-0000-33.png,0004-00-0001-70.png
00000009,580,1,1448392774167,1448392774680,1041,290,0,0,0,3,1,2,4,0002-00-0000-98.png,0005-00-0001-66.png
00000009,581,1,1448392775567,1448392776431,519,276,0,0,0,1,4,3,5,0005-00-0000-42.png,0004-00-0000-42.png
00000009,582,1,1448392777465,1448392778239,1043,268,0,0,0,1,0,1,1,0005-00-0000-38.png,0001-00-0000-69.png
00000009,583,0,1448392779393,1448392780147,443,312,0,0,0,2,0,2,2,0003-00-0000-06.png,0001-00-0000-79.png
00000009,584,1,1448392783336,1448392784370,493,259,0,0,0,2,3,1,5,0003-00-0001-93.png,0002-00-0000-36.png
00000009,585,1,1448392785393,1448392786392,939,307,0,0,0,4,3,1,7,0004-00-0000-65.png,0002-00-0001-77.png
00000009,586,0,1448392787433,1448392787461,877,420,0,0,0,1,3,2,4,0005-00-0000-94.png,0002-00-0000-14.png
00000009,587,0,1448392790998,1448392791194,858,394,0,0,0,0,3,3,3,0001-00-0001-61.png,0002-00-0000-81.png
00000009,588,0,1448392794327,1448392794365,906,340,0,0,0,0,1,1,1,0001-00-0000-10.png,0005-00-0000-83.png
00000009,589,1,1448392797551,1448392798116,962,333,0,0,0,3,0,3,3,0002-00-0001-95.png,0001-00-0000-22.png
00000009,590,1,1448392799005,1448392799100,868,531,0,0,0,4,2,2,6,0004-00-0000-62.png,0003-00-0001-97.png
00000009,591,0,1448392800253,1448392801502,940,400,0,0,0,0,2,2,2,0001-00-0000-92.png,0003-00-0000-44.png
00000009,592,1,1448392804546,1448392805070,510,278,0,0,0,0,4,4,4,0001-00-0001-96.png,0004-00-0000-99.png
00000009,593,1,1448392805997,1448392806724,1041,253,0,0,0,2,1,1,3,0003-00-0000-54.png,0005-00-0001-51.png
00000009,594,1,1448392807913,1448392808968,455,274,0,0,0,1,2,1,3,0005-00-0001-81.png,0003-00-0000-55.png
00000009,595,1,1448392809991,1448392810047,862,474,0,0,0,4,1,3,5,0004-00-0000-34.png,0005-00-0001-88.png
00000009,596,1,1448392811250,1448392811290,882,479,0,0,0,3,2,1,5,0002-00-0000-34.png,0003-00-0000-30.png
00000009,597,1,1448392812443,1448392812472,868,467,0,0,0,3,1,2,4,0002-00-0001-30.png,0005-00-0001-89.png
00000009,598,1,1448392813672,1448392814981,495,287,0,0,0,2,4,2,6,0003-00-0001-09.png,0004-00-0001-38.png
00000009,599,1,1448392816040,1448392816060,877,478,0,0,0,4,0,4,4,0004-00-0000-52.png,0001-00-0000-11.png
00000009,600,0,1448392817271,1448392817310,862,436,0,0,0,3,4,1,7,0002-00-0000-74.png,0004-00-0001-35.png
00000009,601,1,1448392820551,1448392821101,428,353,0,0,0,1,2,1,3,0005-00-0000-99.png,0003-00-0000-96.png
00000009,602,0,1448392822790,1448392823339,415,347,0,0,0,1,0,1,1,0005-00-0001-30.png,0001-00-0001-83.png
00000009,603,1,1448392826664,1448392827209,939,421,0,0,0,4,1,3,5,0004-00-0001-21.png,0005-00-0000-30.png
00000009,604,0,1448392828125,1448392828145,889,435,0,0,0,2,3,1,5,0003-00-0001-39.png,0002-00-0001-33.png
00000009,605,1,1448392831191,1448392831676,939,336,0,0,0,3,1,2,4,0002-00-0000-24.png,0005-00-0001-00.png
00000009,606,1,1448392833300,1448392833310,862,332,0,0,0,4,3,1,7,0004-00-0001-56.png,0002-00-0001-29.png
00000009,607,1,1448392834384,1448392835132,504,263,0,0,0,1,4,3,5,0005-00-0000-19.png,0004-00-0001-79.png
00000009,608,1,1448392836183,1448392837753,459,260,0,0,0,3,4,1,7,0002-00-0000-20.png,0004-00-0000-11.png
00000009,609,0,1448392838768,1448392839899,385,332,0,0,0,2,0,2,2,0003-00-0000-79.png,0001-00-0001-93.png
00000009,610,1,1448392852240,1448392852675,909,311,0,0,0,4,0,4,4,0004-00-0001-70.png,0001-00-0001-21.png
00000009,611,1,1448392853779,1448392855240,414,358,0,0,0,0,2,2,2,0001-00-0001-01.png,0003-00-0001-35.png
00000009,612,1,1448392856801,1448392857525,1032,306,0,0,0,3,0,3,3,0002-00-0000-85.png,0001-00-0001-16.png
00000009,613,1,1448392858431,1448392859193,401,344,0,0,0,2,4,2,6,0003-00-0000-39.png,0004-00-0001-40.png
00000009,614,1,1448392860259,1448392861050,943,401,0,0,0,4,2,2,6,0004-00-0001-64.png,0003-00-0000-04.png
00000009,615,1,1448392862039,1448392862958,492,239,0,0,0,1,3,2,4,0005-00-0000-76.png,0002-00-0000-32.png
00000009,616,1,1448392863935,1448392864682,383,348,0,0,0,0,3,3,3,0001-00-0001-20.png,0002-00-0001-05.png
00000009,617,1,1448392865743,1448392866648,472,260,0,0,0,0,1,1,1,0001-00-0000-06.png,0005-00-0000-43.png
00000009,618,1,1448392868318,1448392868853,501,241,0,0,0,0,4,4,4,0001-00-0000-38.png,0004-00-0001-23.png
00000009,619,1,1448392869795,1448392870844,933,321,0,0,0,2,1,1,3,0003-00-0000-78.png,0005-00-0001-97.png
00000009,620,1,1448392871897,1448392871981,886,553,0,0,0,3,2,1,5,0002-00-0001-81.png,0003-00-0001-34.png
00000009,621,1,1448392873146,1448392874432,510,234,0,0,0,1,4,3,5,0005-00-0000-59.png,0004-00-0001-17.png
00000009,622,1,1448392875454,1448392876146,449,403,0,0,0,0,4,4,4,0001-00-0001-19.png,0004-00-0000-26.png
00000009,623,1,1448392877304,1448392878017,483,404,0,0,0,2,3,1,5,0003-00-0001-09.png,0002-00-0000-87.png
00000009,624,1,1448392879110,1448392879837,393,380,0,0,0,1,2,1,3,0005-00-0001-18.png,0003-00-0000-75.png
00000009,625,1,1448392880916,1448392881917,921,317,0,0,0,2,1,1,3,0003-00-0001-41.png,0005-00-0001-46.png
00000009,626,0,1448392882946,1448392883006,888,448,0,0,0,0,1,1,1,0001-00-0001-01.png,0005-00-0001-73.png
00000009,627,1,1448392886156,1448392886647,491,267,0,0,0,0,3,3,3,0001-00-0000-50.png,0002-00-0001-15.png
00000009,628,1,1448392887586,1448392888321,943,382,0,0,0,2,0,2,2,0003-00-0000-76.png,0001-00-0000-68.png
00000009,629,1,1448392889245,1448392890001,516,236,0,0,0,0,2,2,2,0001-00-0001-57.png,0003-00-0000-96.png
00000009,630,1,1448392891096,1448392891772,961,280,0,0,0,3,0,3,3,0002-00-0001-88.png,0001-00-0001-38.png
00000009,631,1,1448392892792,1448392892851,907,446,0,0,0,4,1,3,5,0004-00-0000-22.png,0005-00-0001-90.png
00000009,632,1,1448392894075,1448392894135,878,488,0,0,0,3,2,1,5,0002-00-0001-43.png,0003-00-0000-90.png
00000009,633,1,1448392895932,1448392896599,1013,291,0,0,0,4,0,4,4,0004-00-0001-34.png,0001-00-0000-27.png
00000009,634,1,1448392897591,1448392898637,1003,253,0,0,0,4,2,2,6,0004-00-0001-34.png,0003-00-0001-02.png
00000009,635,0,1448392899630,1448392899712,895,524,0,0,0,3,4,1,7,0002-00-0001-60.png,0004-00-0001-73.png
00000009,636,1,1448392902778,1448392902798,898,386,0,0,0,4,3,1,7,0004-00-0000-86.png,0002-00-0001-61.png
00000009,637,1,1448392903841,1448392904741,455,418,0,0,0,1,3,2,4,0005-00-0000-66.png,0002-00-0001-08.png
00000009,638,1,1448392905650,1448392905678,862,474,0,0,0,3,1,2,4,0002-00-0001-45.png,0005-00-0001-67.png
00000009,639,0,1448392906853,1448392906881,877,463,0,0,0,2,4,2,6,0003-00-0000-19.png,0004-00-0000-69.png
00000009,640,1,1448392909785,1448392910339,964,315,0,0,0,1,0,1,1,0005-00-0001-33.png,0001-00-0001-16.png
00000009,641,1,1448392911762,1448392912328,1041,290,0,0,0,1,0,1,1,0005-00-0001-47.png,0001-00-0000-69.png
00000009,642,0,1448392913254,1448392913334,883,482,0,0,0,0,3,3,3,0001-00-0001-15.png,0002-00-0001-81.png
00000009,643,1,1448392916244,1448392916695,964,400,0,0,0,4,0,4,4,0004-00-0000-26.png,0001-00-0001-86.png
00000009,644,0,1448392917605,1448392917624,863,465,0,0,0,3,4,1,7,0002-00-0001-14.png,0004-00-0001-26.png
00000009,645,1,1448392920785,1448392921276,462,403,0,0,0,0,2,2,2,0001-00-0000-47.png,0003-00-0000-55.png
00000009,646,1,1448392922186,1448392923097,941,299,0,0,0,4,3,1,7,0004-00-0001-62.png,0002-00-0001-84.png
00000009,647,1,1448392924790,1448392925276,513,248,0,0,0,2,4,2,6,0003-00-0000-39.png,0004-00-0000-83.png
00000009,648,0,1448392926380,1448392927209,937,410,0,0,0,1,2,1,3,0005-00-0001-69.png,0003-00-0001-01.png
00000009,649,1,1448392930372,1448392930837,453,394,0,0,0,1,3,2,4,0005-00-0001-40.png,0002-00-0001-98.png
00000009,650,0,1448392931804,1448392931832,862,422,0,0,0,2,3,1,5,0003-00-0001-60.png,0002-00-0000-67.png
00000009,651,0,1448392935033,1448392935052,927,331,0,0,0,1,4,3,5,0005-00-0001-26.png,0004-00-0000-45.png
00000009,652,1,1448392938203,1448392938805,486,270,0,0,0,0,1,1,1,0001-00-0001-23.png,0005-00-0001-28.png
00000009,653,0,1448392939712,1448392940388,494,259,0,0,0,2,0,2,2,0003-00-0000-89.png,0001-00-0000-91.png
00000009,654,1,1448392943408,1448392943905,994,275,0,0,0,3,2,1,5,0002-00-0000-64.png,0003-00-0001-43.png
00000009,655,1,1448392944892,1448392945692,1042,251,0,0,0,4,1,3,5,0004-00-0001-72.png,0005-00-0000-78.png
00000009,656,1,1448392946772,1448392946784,885,439,0,0,0,3,0,3,3,0002-00-0000-78.png,0001-00-0001-88.png
00000009,657,1,1448392947866,1448392947908,862,462,0,0,0,3,1,2,4,0002-00-0000-08.png,0005-00-0001-89.png
00000009,658,1,1448392949045,1448392949069,858,413,0,0,0,4,2,2,6,0004-00-0001-06.png,0003-00-0001-92.png
00000009,659,0,1448392950357,1448392950397,865,515,0,0,0,0,4,4,4,0001-00-0001-16.png,0004-00-0000-54.png
00000009,660,1,1448392953469,1448392953985,968,305,0,0,0,2,1,1,3,0003-00-0000-24.png,0005-00-0000-08.png
00000009,661,0,1448392954863,1448392955552,413,410,0,0,0,4,3,1,7,0004-00-0001-73.png,0002-00-0000-22.png
00000009,662,1,1448392958596,1448392959175,494,279,0,0,0,0,1,1,1,0001-00-0000-67.png,0005-00-0000-27.png
00000009,663,1,1448392960094,1448392960838,939,343,0,0,0,4,1,3,5,0004-00-0001-69.png,0005-00-0001-05.png
00000009,664,1,1448392961881,1448392962854,930,306,0,0,0,4,2,2,6,0004-00-0001-64.png,0003-00-0000-92.png
00000009,665,0,1448392963902,1448392963961,862,453,0,0,0,1,4,3,5,0005-00-0000-66.png,0004-00-0001-44.png
00000009,666,1,1448392967148,1448392967700,953,420,0,0,0,4,0,4,4,0004-00-0000-12.png,0001-00-0000-53.png
00000009,667,0,1448392968662,1448392968729,862,500,0,0,0,0,4,4,4,0001-00-0000-69.png,0004-00-0000-64.png
00000009,668,1,1448392971625,1448392972156,504,267,0,0,0,0,2,2,2,0001-00-0001-84.png,0003-00-0001-51.png
00000009,669,1,1448392973073,1448392974233,401,344,0,0,0,2,3,1,5,0003-00-0000-97.png,0002-00-0001-36.png
00000009,670,0,1448392975220,1448392976124,1027,253,0,0,0,0,3,3,3,0001-00-0000-07.png,0002-00-0001-31.png
00000009,671,1,1448392978995,1448392979605,510,280,0,0,0,3,4,1,7,0002-00-0001-86.png,0004-00-0001-78.png
00000009,672,0,1448392980565,1448392981268,426,318,0,0,0,1,0,1,1,0005-00-0001-65.png,0001-00-0001-38.png
00000009,673,1,1448392985928,1448392986466,1056,279,0,0,0,2,0,2,2,0003-00-0001-92.png,0001-00-0001-64.png
00000009,674,1,1448392987900,1448392988814,480,264,0,0,0,1,2,1,3,0005-00-0001-57.png,0003-00-0001-00.png
00000009,675,1,1448392989769,1448392989869,885,487,0,0,0,3,2,1,5,0002-00-0001-70.png,0003-00-0000-44.png
00000009,676,0,1448392990970,1448392991795,501,260,0,0,0,3,0,3,3,0002-00-0000-56.png,0001-00-0001-89.png
00000009,677,1,1448392994890,1448392995110,862,419,0,0,0,3,1,2,4,0002-00-0000-99.png,0005-00-0000-06.png
00000009,678,0,1448392996118,1448392997137,939,343,0,0,0,1,3,2,4,0005-00-0001-37.png,0002-00-0000-81.png
00000009,679,0,1448393000266,1448393000795,508,284,0,0,0,2,1,1,3,0003-00-0001-94.png,0005-00-0001-24.png
00000009,680,0,1448393114804,1448393115354,1072,275,0,0,0,2,4,2,6,0003-00-0001-34.png,0004-00-0001-82.png
00000009,681,1,1448393118534,1448393119157,990,348,0,0,0,4,1,3,5,0004-00-0001-75.png,0005-00-0001-72.png
00000009,682,1,1448393120156,1448393120325,913,528,0,0,0,4,2,2,6,0004-00-0001-67.png,0003-00-0000-32.png
00000009,683,0,1448393121494,1448393121582,869,489,0,0,0,1,4,3,5,0005-00-0001-20.png,0004-00-0000-29.png
00000009,684,1,1448393124743,1448393125298,955,306,0,0,0,3,1,2,4,0002-00-0001-79.png,0005-00-0000-02.png
00000009,685,1,1448393126265,1448393127185,488,295,0,0,0,0,1,1,1,0001-00-0001-00.png,0005-00-0000-23.png
00000009,686,1,1448393128052,1448393128850,503,265,0,0,0,1,2,1,3,0005-00-0000-70.png,0003-00-0000-46.png
00000009,687,1,1448393129951,1448393130706,510,283,0,0,0,0,3,3,3,0001-00-0001-55.png,0002-00-0001-74.png
00000009,688,1,1448393131722,1448393132450,1045,261,0,0,0,3,0,3,3,0002-00-0001-71.png,0001-00-0000-33.png
00000009,689,0,1448393133468,1448393133500,934,420,0,0,0,1,3,2,4,0005-00-0001-22.png,0002-00-0001-24.png
00000009,690,1,1448393136513,1448393136541,862,323,0,0,0,4,0,4,4,0004-00-0001-67.png,0001-00-0001-12.png
00000009,691,1,1448393137634,1448393138388,407,350,0,0,0,0,4,4,4,0001-00-0001-28.png,0004-00-0000-03.png
00000009,692,0,1448393139441,1448393140334,417,352,0,0,0,3,2,1,5,0002-00-0000-90.png,0003-00-0001-77.png
00000009,693,1,1448393143707,1448393143975,886,289,0,0,0,1,0,1,1,0005-00-0000-42.png,0001-00-0001-36.png
00000009,694,1,1448393145049,1448393146058,488,273,0,0,0,0,2,2,2,0001-00-0000-44.png,0003-00-0000-37.png
00000009,695,1,1448393147085,1448393147936,973,383,0,0,0,2,1,1,3,0003-00-0000-28.png,0005-00-0000-24.png
00000009,696,1,1448393148930,1448393148982,895,503,0,0,0,4,3,1,7,0004-00-0001-87.png,0002-00-0000-13.png
00000009,697,0,1448393149977,1448393150045,862,462,0,0,0,2,3,1,5,0003-00-0001-56.png,0002-00-0001-39.png
00000009,698,1,1448393153178,1448393153899,435,353,0,0,0,2,4,2,6,0003-00-0000-04.png,0004-00-0001-22.png
00000009,699,1,1448393155461,1448393155996,928,334,0,0,0,2,0,2,2,0003-00-0001-56.png,0001-00-0001-14.png
00000009,700,0,1448393157459,1448393158053,954,390,0,0,0,3,4,1,7,0002-00-0000-80.png,0004-00-0000-47.png
00000009,701,1,1448393161394,1448393162074,1059,315,0,0,0,1,0,1,1,0005-00-0001-86.png,0001-00-0000-53.png
00000009,702,1,1448393163072,1448393163104,895,507,0,0,0,3,1,2,4,0002-00-0000-63.png,0005-00-0000-92.png
00000009,703,0,1448393164175,1448393164359,890,565,0,0,0,1,4,3,5,0005-00-0000-67.png,0004-00-0000-68.png
00000009,704,1,1448393167652,1448393168616,478,292,0,0,0,0,4,4,4,0001-00-0001-68.png,0004-00-0000-68.png
00000009,705,1,1448393169732,1448393169808,862,529,0,0,0,4,3,1,7,0004-00-0001-24.png,0002-00-0001-86.png
00000009,706,1,1448393170892,1448393171744,435,325,0,0,0,0,2,2,2,0001-00-0000-82.png,0003-00-0001-68.png
00000009,707,1,1448393172733,1448393173391,937,304,0,0,0,2,0,2,2,0003-00-0000-05.png,0001-00-0001-74.png
00000009,708,0,1448393174521,1448393175258,1040,284,0,0,0,0,1,1,1,0001-00-0000-12.png,0005-00-0000-50.png
00000009,709,0,1448393178965,1448393179575,1044,278,0,0,0,2,3,1,5,0003-00-0001-73.png,0002-00-0000-31.png
00000009,710,1,1448393182661,1448393183256,487,277,0,0,0,3,4,1,7,0002-00-0001-33.png,0004-00-0001-30.png
00000009,711,1,1448393184222,1448393185059,491,263,0,0,0,1,3,2,4,0005-00-0001-06.png,0002-00-0001-74.png
00000009,712,1,1448393186008,1448393186951,486,220,0,0,0,2,4,2,6,0003-00-0000-41.png,0004-00-0000-23.png
00000009,713,1,1448393187933,1448393188678,1044,246,0,0,0,3,0,3,3,0002-00-0000-11.png,0001-00-0000-90.png
00000009,714,0,1448393189722,1448393189795,892,523,0,0,0,1,2,1,3,0005-00-0001-75.png,0003-00-0001-72.png
00000009,715,1,1448393192875,1448393193372,478,268,0,0,0,0,3,3,3,0001-00-0000-66.png,0002-00-0000-92.png
00000009,716,1,1448393194346,1448393195126,957,339,0,0,0,4,2,2,6,0004-00-0000-98.png,0003-00-0001-85.png
00000009,717,0,1448393196152,1448393196838,496,234,0,0,0,4,0,4,4,0004-00-0001-12.png,0001-00-0000-85.png
00000009,718,1,1448393199820,1448393200289,946,402,0,0,0,4,1,3,5,0004-00-0001-70.png,0005-00-0001-48.png
00000009,719,1,1448393201214,1448393201309,918,557,0,0,0,2,1,1,3,0003-00-0000-68.png,0005-00-0001-16.png
00000009,720,1,1448393202434,1448393203377,935,315,0,0,0,3,2,1,5,0002-00-0001-95.png,0003-00-0001-08.png
00000009,721,0,1448393204492,1448393204583,904,444,0,0,0,3,4,1,7,0002-00-0001-46.png,0004-00-0000-36.png
00000009,722,0,1448393207455,1448393207978,1070,281,0,0,0,2,3,1,5,0003-00-0001-53.png,0002-00-0001-62.png
00000009,723,1,1448393211120,1448393211632,427,369,0,0,0,0,3,3,3,0001-00-0000-55.png,0002-00-0001-91.png
00000009,724,1,1448393213178,1448393213693,918,327,0,0,0,3,0,3,3,0002-00-0001-70.png,0001-00-0001-02.png
00000009,725,0,1448393214667,1448393215338,491,264,0,0,0,4,1,3,5,0004-00-0000-82.png,0005-00-0001-26.png
00000009,726,1,1448393218332,1448393218812,1016,283,0,0,0,3,2,1,5,0002-00-0000-36.png,0003-00-0000-89.png
00000009,727,1,1448393220399,1448393220970,416,375,0,0,0,1,2,1,3,0005-00-0000-02.png,0003-00-0001-98.png
00000009,728,1,1448393223054,1448393223098,913,279,0,0,0,2,0,2,2,0003-00-0000-74.png,0001-00-0000-21.png
00000009,729,1,1448393224218,1448393224982,1024,296,0,0,0,2,1,1,3,0003-00-0001-29.png,0005-00-0000-93.png
00000009,730,1,1448393226156,1448393226204,895,397,0,0,0,4,0,4,4,0004-00-0001-02.png,0001-00-0000-96.png
00000009,731,0,1448393227319,1448393227355,874,462,0,0,0,0,1,1,1,0001-00-0000-81.png,0005-00-0001-03.png
00000009,732,1,1448393230539,1448393231207,460,272,0,0,0,1,3,2,4,0005-00-0000-71.png,0002-00-0000-90.png
00000009,733,1,1448393232136,1448393233113,492,244,0,0,0,2,4,2,6,0003-00-0001-71.png,0004-00-0000-90.png
00000009,734,1,1448393234316,1448393235078,484,242,0,0,0,0,2,2,2,0001-00-0000-52.png,0003-00-0001-32.png
00000009,735,1,1448393236100,1448393236144,860,452,0,0,0,4,2,2,6,0004-00-0000-88.png,0003-00-0000-00.png
00000009,736,0,1448393237393,1448393238188,498,245,0,0,0,1,0,1,1,0005-00-0001-58.png,0001-00-0001-21.png
00000009,737,1,1448393241331,1448393241868,478,410,0,0,0,1,4,3,5,0005-00-0000-19.png,0004-00-0001-63.png
00000009,738,1,1448393242799,1448393243833,479,253,0,0,0,0,4,4,4,0001-00-0001-17.png,0004-00-0000-37.png
00000009,739,1,1448393244854,1448393245868,1051,307,0,0,0,4,3,1,7,0004-00-0000-38.png,0002-00-0000-45.png
00000009,740,1,1448393246923,1448393247003,888,492,0,0,0,3,1,2,4,0002-00-0001-48.png,0005-00-0001-18.png
00000009,741,1,1448393248076,1448393249155,507,250,0,0,0,2,3,1,5,0003-00-0001-10.png,0002-00-0000-82.png
00000009,742,1,1448393250154,1448393250858,511,220,0,0,0,0,2,2,2,0001-00-0000-54.png,0003-00-0000-54.png
00000009,743,1,1448393251889,1448393252679,463,358,0,0,0,2,4,2,6,0003-00-0001-64.png,0004-00-0001-13.png
00000009,744,1,1448393253749,1448393254468,518,241,0,0,0,1,4,3,5,0005-00-0000-21.png,0004-00-0001-83.png
00000009,745,1,1448393255624,1448393256293,516,241,0,0,0,0,1,1,1,0001-00-0001-49.png,0005-00-0001-81.png
00000009,746,1,1448393257387,1448393258646,951,346,0,0,0,3,0,3,3,0002-00-0000-03.png,0001-00-0000-30.png
00000009,747,0,1448393259640,1448393259664,908,462,0,0,0,3,4,1,7,0002-00-0000-39.png,0004-00-0000-01.png
00000009,748,1,1448393262757,1448393263259,1066,269,0,0,0,3,1,2,4,0002-00-0000-27.png,0005-00-0001-18.png
00000009,749,1,1448393264262,1448393264314,904,462,0,0,0,4,1,3,5,0004-00-0000-72.png,0005-00-0001-31.png
00000009,750,1,1448393265322,1448393265395,913,498,0,0,0,1,0,1,1,0005-00-0001-04.png,0001-00-0001-10.png
00000009,751,1,1448393266516,1448393266576,897,507,0,0,0,3,2,1,5,0002-00-0000-27.png,0003-00-0000-96.png
00000009,752,1,1448393267820,1448393268598,393,330,0,0,0,0,3,3,3,0001-00-0000-18.png,0002-00-0000-16.png
00000009,753,1,1448393269551,1448393270233,1052,279,0,0,0,2,1,1,3,0003-00-0001-62.png,0005-00-0000-27.png
00000009,754,1,1448393271478,1448393272241,510,245,0,0,0,1,2,1,3,0005-00-0000-06.png,0003-00-0000-71.png
00000009,755,1,1448393307684,1448393308361,1004,291,0,0,0,4,2,2,6,0004-00-0001-62.png,0003-00-0001-60.png
00000009,756,1,1448393309327,1448393309966,467,275,0,0,0,0,4,4,4,0001-00-0000-71.png,0004-00-0001-14.png
00000009,757,0,1448393310845,1448393311973,426,433,0,0,0,4,3,1,7,0004-00-0000-44.png,0002-00-0001-19.png
00000009,758,1,1448393315031,1448393315787,1041,279,0,0,0,2,0,2,2,0003-00-0001-41.png,0001-00-0001-87.png
00000009,759,1,1448393316815,1448393317493,488,248,0,0,0,1,3,2,4,0005-00-0000-32.png,0002-00-0001-51.png
00000009,760,1,1448393318397,1448393319227,1021,277,0,0,0,4,0,4,4,0004-00-0000-85.png,0001-00-0000-39.png
00000009,761,1,1448393320373,1448393320455,882,497,0,0,0,2,0,2,2,0003-00-0001-79.png,0001-00-0001-34.png
00000009,762,1,1448393321508,1448393322196,493,259,0,0,0,0,3,3,3,0001-00-0000-97.png,0002-00-0000-57.png
00000009,763,0,1448393323813,1448393323861,888,332,0,0,0,1,3,2,4,0005-00-0001-63.png,0002-00-0000-91.png
00000009,764,1,1448393326867,1448393326934,879,358,0,0,0,2,1,1,3,0003-00-0000-14.png,0005-00-0001-88.png
00000009,765,1,1448393327959,1448393328714,468,242,0,0,0,0,4,4,4,0001-00-0001-23.png,0004-00-0000-96.png
00000009,766,1,1448393329836,1448393330710,983,286,0,0,0,4,3,1,7,0004-00-0001-86.png,0002-00-0000-00.png
00000009,767,0,1448393331806,1448393331862,875,544,0,0,0,3,4,1,7,0002-00-0000-06.png,0004-00-0001-68.png
00000009,768,0,1448393334845,1448393334881,909,341,0,0,0,2,3,1,5,0003-00-0000-54.png,0002-00-0001-89.png
00000009,769,1,1448393337760,1448393338323,1057,282,0,0,0,3,2,1,5,0002-00-0001-49.png,0003-00-0000-82.png
00000009,770,1,1448393339423,1448393340413,981,302,0,0,0,4,2,2,6,0004-00-0001-99.png,0003-00-0000-74.png
00000009,771,1,1448393341683,1448393342542,498,260,0,0,0,1,2,1,3,0005-00-0001-05.png,0003-00-0000-23.png
00000009,772,0,1448393343512,1448393344272,507,285,0,0,0,4,0,4,4,0004-00-0000-63.png,0001-00-0000-47.png
00000009,773,0,1448393347208,1448393347264,884,326,0,0,0,0,1,1,1,0001-00-0001-24.png,0005-00-0000-82.png
00000009,774,1,1448393350430,1448393350952,427,332,0,0,0,0,2,2,2,0001-00-0001-12.png,0003-00-0001-74.png
00000009,775,1,1448393351980,1448393352789,1050,267,0,0,0,3,1,2,4,0002-00-0001-18.png,0005-00-0001-91.png
00000009,776,0,1448393353819,1448393353867,863,460,0,0,0,2,4,2,6,0003-00-0001-57.png,0004-00-0001-96.png
00000009,777,0,1448393357047,1448393357107,939,317,0,0,0,1,4,3,5,0005-00-0000-37.png,0004-00-0000-28.png
00000009,778,1,1448393360180,1448393360794,1065,313,0,0,0,4,1,3,5,0004-00-0000-33.png,0005-00-0000-14.png
00000009,779,1,1448393361778,1448393362673,962,400,0,0,0,3,0,3,3,0002-00-0001-16.png,0001-00-0001-64.png
00000009,780,1,1448393363756,1448393364522,946,402,0,0,0,1,0,1,1,0005-00-0001-08.png,0001-00-0001-62.png
00000009,781,1,1448393365474,1448393366237,512,251,0,0,0,1,4,3,5,0005-00-0001-66.png,0004-00-0000-28.png
00000009,782,1,1448393367213,1448393367898,495,266,0,0,0,0,3,3,3,0001-00-0001-62.png,0002-00-0000-20.png
00000009,783,1,1448393368949,1448393369830,945,415,0,0,0,2,1,1,3,0003-00-0001-88.png,0005-00-0001-81.png
00000009,784,0,1448393370838,1448393371068,915,543,0,0,0,2,4,2,6,0003-00-0000-46.png,0004-00-0000-53.png
00000009,785,0,1448393374141,1448393374208,912,329,0,0,0,1,2,1,3,0005-00-0000-48.png,0003-00-0000-13.png
00000009,786,1,1448393377405,1448393378112,1031,279,0,0,0,4,3,1,7,0004-00-0001-72.png,0002-00-0001-51.png
00000009,787,1,1448393379054,1448393379933,504,252,0,0,0,0,1,1,1,0001-00-0001-84.png,0005-00-0000-98.png
00000009,788,1,1448393380984,1448393381710,945,377,0,0,0,4,2,2,6,0004-00-0001-68.png,0003-00-0001-35.png
00000009,789,1,1448393382796,1448393383499,512,272,0,0,0,0,4,4,4,0001-00-0000-10.png,0004-00-0000-17.png
00000009,790,1,1448393384515,1448393385288,934,417,0,0,0,2,0,2,2,0003-00-0001-01.png,0001-00-0000-94.png
00000009,791,0,1448393386314,1448393387056,461,403,0,0,0,1,0,1,1,0005-00-0000-79.png,0001-00-0001-77.png
00000009,792,0,1448393390348,1448393390426,913,347,0,0,0,0,2,2,2,0001-00-0001-86.png,0003-00-0001-87.png
00000009,793,0,1448393393449,1448393394035,513,286,0,0,0,3,2,1,5,0002-00-0000-73.png,0003-00-0000-32.png
00000009,794,0,1448393396975,1448393397011,869,408,0,0,0,3,4,1,7,0002-00-0001-50.png,0004-00-0000-70.png
00000009,795,0,1448393400070,1448393400830,919,339,0,0,0,2,3,1,5,0003-00-0001-78.png,0002-00-0000-97.png
00000009,796,1,1448393404322,1448393404362,933,352,0,0,0,4,0,4,4,0004-00-0000-69.png,0001-00-0001-03.png
00000009,797,1,1448393405499,1448393405543,862,462,0,0,0,3,1,2,4,0002-00-0000-47.png,0005-00-0001-78.png
00000009,798,1,1448393406485,1448393407210,414,366,0,0,0,1,3,2,4,0005-00-0001-27.png,0002-00-0000-74.png
00000009,799,1,1448393408184,1448393409176,945,399,0,0,0,4,1,3,5,0004-00-0000-07.png,0005-00-0000-89.png
00000009,800,0,1448393410093,1448393410967,509,235,0,0,0,3,0,3,3,0002-00-0001-32.png,0001-00-0000-27.png
00000009,801,1,1448393414430,1448393414486,902,299,0,0,0,3,2,1,5,0002-00-0000-31.png,0003-00-0001-72.png
00000009,802,1,1448393415500,1448393416441,468,268,0,0,0,2,4,2,6,0003-00-0001-91.png,0004-00-0001-01.png
00000009,803,0,1448393417375,1448393417439,888,473,0,0,0,1,4,3,5,0005-00-0000-34.png,0004-00-0001-51.png
00000009,804,1,1448393420309,1448393420867,984,276,0,0,0,2,0,2,2,0003-00-0001-06.png,0001-00-0001-23.png
00000009,805,1,1448393421872,1448393421888,870,407,0,0,0,4,3,1,7,0004-00-0001-96.png,0002-00-0001-51.png
00000009,806,1,1448393422863,1448393424099,489,268,0,0,0,0,3,3,3,0001-00-0001-56.png,0002-00-0000-44.png
00000009,807,1,1448393425170,1448393425210,872,436,0,0,0,3,1,2,4,0002-00-0000-14.png,0005-00-0000-15.png
00000009,808,1,1448393426193,1448393427356,1022,268,0,0,0,4,2,2,6,0004-00-0000-41.png,0003-00-0000-08.png
00000009,809,1,1448393428477,1448393429227,504,243,0,0,0,0,4,4,4,0001-00-0000-63.png,0004-00-0000-61.png
00000009,810,0,1448393430255,1448393430307,888,410,0,0,0,1,2,1,3,0005-00-0000-76.png,0003-00-0000-70.png
00000009,811,1,1448393433260,1448393433778,504,237,0,0,0,1,3,2,4,0005-00-0000-34.png,0002-00-0000-71.png
00000009,812,0,1448393434711,1448393434779,862,476,0,0,0,0,2,2,2,0001-00-0000-99.png,0003-00-0000-27.png
00000009,813,1,1448393438367,1448393439015,505,265,0,0,0,3,4,1,7,0002-00-0000-05.png,0004-00-0000-54.png
00000009,814,0,1448393441055,1448393441628,445,340,0,0,0,1,0,1,1,0005-00-0001-90.png,0001-00-0000-87.png
00000009,815,1,1448393444705,1448393445199,1044,250,0,0,0,2,1,1,3,0003-00-0001-87.png,0005-00-0000-30.png
00000009,816,0,1448393446694,1448393447325,517,246,0,0,0,4,1,3,5,0004-00-0000-97.png,0005-00-0001-78.png
00000009,817,0,1448393450469,1448393451110,964,342,0,0,0,0,1,1,1,0001-00-0001-22.png,0005-00-0000-35.png
00000009,818,0,1448393454093,1448393454657,420,363,0,0,0,3,0,3,3,0002-00-0000-15.png,0001-00-0001-62.png
00000009,819,0,1448393457807,1448393457831,908,355,0,0,0,2,3,1,5,0003-00-0001-54.png,0002-00-0000-49.png
00000009,820,1,1448393460977,1448393461021,902,329,0,0,0,4,0,4,4,0004-00-0000-99.png,0001-00-0001-56.png
00000009,821,1,1448393462080,1448393462980,485,255,0,0,0,0,3,3,3,0001-00-0001-28.png,0002-00-0000-78.png
00000009,822,1,1448393463956,1448393463996,862,410,0,0,0,2,0,2,2,0003-00-0000-54.png,0001-00-0001-62.png
00000009,823,1,1448393464962,1448393466047,964,394,0,0,0,1,0,1,1,0005-00-0001-35.png,0001-00-0001-29.png
00000009,824,1,1448393467039,1448393467828,1036,273,0,0,0,3,0,3,3,0002-00-0000-29.png,0001-00-0000-45.png
00000009,825,1,1448393469453,1448393470002,487,246,0,0,0,1,2,1,3,0005-00-0000-42.png,0003-00-0001-61.png
00000009,826,1,1448393471062,1448393471697,518,242,0,0,0,0,4,4,4,0001-00-0001-36.png,0004-00-0000-37.png
00000009,827,0,1448393472769,1448393473596,1020,304,0,0,0,2,3,1,5,0003-00-0000-06.png,0002-00-0001-97.png
00000009,828,1,1448393476497,1448393477385,481,254,0,0,0,2,4,2,6,0003-00-0000-54.png,0004-00-0000-93.png
00000009,829,1,1448393478295,1448393479207,509,233,0,0,0,1,3,2,4,0005-00-0000-21.png,0002-00-0000-54.png
00000009,830,1,1448393480136,1448393480808,515,241,0,0,0,1,4,3,5,0005-00-0000-94.png,0004-00-0000-33.png
00000009,831,1,1448393481822,1448393482686,1022,249,0,0,0,4,3,1,7,0004-00-0000-26.png,0002-00-0001-31.png
00000009,832,0,1448393483712,1448393484745,1016,283,0,0,0,3,4,1,7,0002-00-0000-93.png,0004-00-0000-06.png
00000009,833,1,1448393487915,1448393488536,1067,281,0,0,0,4,2,2,6,0004-00-0000-35.png,0003-00-0000-03.png
00000009,834,1,1448393489456,1448393489536,860,490,0,0,0,2,1,1,3,0003-00-0000-46.png,0005-00-0001-13.png
00000009,835,1,1448393490746,1448393490826,859,490,0,0,0,3,1,2,4,0002-00-0001-24.png,0005-00-0000-37.png
00000009,836,1,1448393492039,1448393492823,954,308,0,0,0,4,1,3,5,0004-00-0000-97.png,0005-00-0001-85.png
00000009,837,0,1448393493907,1448393493927,873,475,0,0,0,0,2,2,2,0001-00-0001-94.png,0003-00-0000-61.png
00000009,838,0,1448393500025,1448393500576,438,375,0,0,0,3,2,1,5,0002-00-0000-19.png,0003-00-0001-09.png
00000009,839,1,1448393506123,1448393506735,1065,253,0,0,0,4,0,4,4,0004-00-0000-34.png,0001-00-0000-40.png
00000009,840,1,1448393507672,1448393508317,489,272,0,0,0,0,1,1,1,0001-00-0000-25.png,0005-00-0001-00.png
00000009,841,0,1448393509283,1448393510164,964,414,0,0,0,2,4,2,6,0003-00-0001-52.png,0004-00-0000-38.png
00000009,842,1,1448393513387,1448393513935,1045,267,0,0,0,4,0,4,4,0004-00-0001-55.png,0001-00-0000-43.png
00000009,843,0,1448393514887,1448393514931,895,432,0,0,0,2,3,1,5,0003-00-0000-48.png,0002-00-0000-81.png
00000009,844,1,1448393518009,1448393518037,898,386,0,0,0,3,1,2,4,0002-00-0001-47.png,0005-00-0001-24.png
00000009,845,1,1448393519038,1448393520151,932,324,0,0,0,4,2,2,6,0004-00-0000-43.png,0003-00-0001-66.png
00000009,846,1,1448393521138,1448393522001,519,259,0,0,0,1,3,2,4,0005-00-0000-58.png,0002-00-0000-97.png
00000009,847,1,1448393523006,1448393523078,877,469,0,0,0,3,2,1,5,0002-00-0000-04.png,0003-00-0001-16.png
00000009,848,1,1448393524089,1448393525065,516,242,0,0,0,3,4,1,7,0002-00-0001-94.png,0004-00-0000-67.png
00000009,849,1,1448393526085,1448393527018,923,322,0,0,0,3,0,3,3,0002-00-0000-44.png,0001-00-0000-27.png
00000009,850,1,1448393528124,1448393528196,880,493,0,0,0,4,1,3,5,0004-00-0001-70.png,0005-00-0001-76.png
00000009,851,0,1448393529326,1448393529362,906,445,0,0,0,0,1,1,1,0001-00-0001-06.png,0005-00-0000-03.png
00000009,852,0,1448393532556,1448393533252,492,273,0,0,0,2,0,2,2,0003-00-0000-34.png,0001-00-0001-50.png
00000009,853,1,1448393536689,1448393536717,895,364,0,0,0,4,3,1,7,0004-00-0000-93.png,0002-00-0000-09.png
00000009,854,1,1448393537742,1448393538403,939,291,0,0,0,1,0,1,1,0005-00-0001-42.png,0001-00-0000-55.png
00000009,855,0,1448393703297,1448393703802,964,395,0,0,0,0,2,2,2,0001-00-0001-30.png,0003-00-0001-57.png
00000009,856,0,1448393706929,1448393706969,888,332,0,0,0,0,4,4,4,0001-00-0000-89.png,0004-00-0000-62.png
00000009,857,1,1448393710171,1448393710691,496,245,0,0,0,1,4,3,5,0005-00-0001-46.png,0004-00-0001-79.png
00000009,858,1,1448393711748,1448393712442,486,240,0,0,0,1,2,1,3,0005-00-0001-45.png,0003-00-0001-00.png
00000009,859,1,1448393713406,1448393714271,946,400,0,0,0,2,1,1,3,0003-00-0000-58.png,0005-00-0001-19.png
00000009,860,0,1448393715322,1448393715415,859,468,0,0,0,0,3,3,3,0001-00-0001-28.png,0002-00-0000-33.png
00000009,861,1,1448393730932,1448393731557,460,260,0,0,0,1,2,1,3,0005-00-0001-97.png,0003-00-0001-37.png
00000009,862,1,1448393732611,1448393733323,936,328,0,0,0,4,0,4,4,0004-00-0000-12.png,0001-00-0001-32.png
00000009,863,0,1448393734348,1448393734404,882,438,0,0,0,2,3,1,5,0003-00-0001-47.png,0002-00-0000-62.png
00000009,864,0,1448393737392,1448393737644,939,253,0,0,0,1,3,2,4,0005-00-0001-62.png,0002-00-0000-58.png
00000009,865,1,1448393741216,1448393741256,906,299,0,0,0,3,0,3,3,0002-00-0001-77.png,0001-00-0001-01.png
00000009,866,1,1448393742339,1448393743347,490,239,0,0,0,1,4,3,5,0005-00-0001-73.png,0004-00-0000-46.png
00000009,867,1,1448393744468,1448393745242,466,260,0,0,0,0,3,3,3,0001-00-0000-00.png,0002-00-0001-43.png
00000009,868,1,1448393746326,1448393747109,490,233,0,0,0,2,4,2,6,0003-00-0000-05.png,0004-00-0000-38.png
00000009,869,1,1448393748153,1448393748840,369,362,0,0,0,0,2,2,2,0001-00-0001-52.png,0003-00-0000-58.png
00000009,870,1,1448393749874,1448393750597,1029,318,0,0,0,1,0,1,1,0005-00-0000-57.png,0001-00-0001-45.png
00000009,871,1,1448393751540,1448393751615,857,440,0,0,0,2,1,1,3,0003-00-0001-88.png,0005-00-0000-48.png
00000009,872,0,1448393752686,1448393753388,510,269,0,0,0,3,2,1,5,0002-00-0001-35.png,0003-00-0000-87.png
00000009,873,1,1448393756342,1448393756906,1039,284,0,0,0,2,0,2,2,0003-00-0000-49.png,0001-00-0001-66.png
00000009,874,1,1448393757913,1448393758675,953,314,0,0,0,4,1,3,5,0004-00-0001-57.png,0005-00-0000-16.png
00000009,875,0,1448393759671,1448393759711,887,377,0,0,0,0,4,4,4,0001-00-0000-06.png,0004-00-0000-53.png
00000009,876,0,1448393762879,1448393763799,1039,289,0,0,0,3,4,1,7,0002-00-0000-74.png,0004-00-0001-05.png
00000009,877,1,1448393766807,1448393767512,964,306,0,0,0,4,2,2,6,0004-00-0000-32.png,0003-00-0000-66.png
00000009,878,1,1448393768505,1448393769537,941,306,0,0,0,4,3,1,7,0004-00-0001-78.png,0002-00-0001-40.png
00000009,879,1,1448393770503,1448393770598,873,488,0,0,0,3,1,2,4,0002-00-0001-74.png,0005-00-0000-73.png
00000009,880,0,1448393771724,1448393771854,939,514,0,0,0,0,1,1,1,0001-00-0000-23.png,0005-00-0001-07.png
00000009,881,1,1448393775101,1448393775141,878,347,0,0,0,4,1,3,5,0004-00-0000-07.png,0005-00-0001-71.png
00000009,882,1,1448393776189,1448393777142,955,332,0,0,0,4,0,4,4,0004-00-0001-44.png,0001-00-0000-92.png
00000009,883,0,1448393778176,1448393778260,888,501,0,0,0,0,1,1,1,0001-00-0001-66.png,0005-00-0000-32.png
00000009,884,1,1448393781433,1448393782013,497,262,0,0,0,1,4,3,5,0005-00-0000-39.png,0004-00-0000-65.png
00000009,885,1,1448393782975,1448393783868,1041,279,0,0,0,4,2,2,6,0004-00-0001-67.png,0003-00-0000-11.png
00000009,886,1,1448393785022,1448393785050,873,436,0,0,0,3,2,1,5,0002-00-0000-33.png,0003-00-0001-68.png
00000009,887,1,1448393786062,1448393786760,916,332,0,0,0,2,0,2,2,0003-00-0001-74.png,0001-00-0001-05.png
00000009,888,1,1448393787785,1448393788515,409,317,0,0,0,2,3,1,5,0003-00-0000-10.png,0002-00-0001-05.png
00000009,889,1,1448393789780,1448393790484,408,324,0,0,0,1,2,1,3,0005-00-0000-37.png,0003-00-0001-34.png
00000009,890,1,1448393792169,1448393792709,1017,276,0,0,0,2,1,1,3,0003-00-0001-32.png,0005-00-0001-06.png
00000009,891,0,1448393793697,1448393793762,895,452,0,0,0,0,4,4,4,0001-00-0000-60.png,0004-00-0000-03.png
00000009,892,1,1448393796796,1448393797310,939,315,0,0,0,3,0,3,3,0002-00-0000-14.png,0001-00-0000-19.png
00000009,893,0,1448393798225,1448393798277,888,447,0,0,0,2,4,2,6,0003-00-0000-68.png,0004-00-0001-55.png
00000009,894,1,1448393801510,1448393802174,497,262,0,0,0,3,4,1,7,0002-00-0001-97.png,0004-00-0001-54.png
00000009,895,1,1448393803237,1448393803371,867,489,0,0,0,4,3,1,7,0004-00-0001-01.png,0002-00-0001-07.png
00000009,896,1,1448393804456,1448393805129,509,285,0,0,0,0,3,3,3,0001-00-0000-15.png,0002-00-0000-62.png
00000009,897,1,1448393806249,1448393806999,1030,279,0,0,0,3,1,2,4,0002-00-0000-27.png,0005-00-0001-16.png
00000009,898,0,1448393807997,1448393808049,862,446,0,0,0,1,3,2,4,0005-00-0000-56.png,0002-00-0000-50.png
00000009,899,0,1448393811016,1448393811114,892,385,0,0,0,0,2,2,2,0001-00-0001-17.png,0003-00-0000-36.png
00000009,900,0,1448393814254,1448393814883,466,275,0,0,0,1,0,1,1,0005-00-0000-98.png,0001-00-0000-52.png
00000009,901,1,1448393817893,1448393818441,937,314,0,0,0,4,0,4,4,0004-00-0001-32.png,0001-00-0001-69.png
00000009,902,1,1448393819560,1448393819604,869,454,0,0,0,4,2,2,6,0004-00-0001-66.png,0003-00-0000-49.png
00000009,903,1,1448393820645,1448393821370,1030,279,0,0,0,2,0,2,2,0003-00-0001-85.png,0001-00-0001-27.png
00000009,904,0,1448393822402,1448393822462,878,462,0,0,0,1,2,1,3,0005-00-0001-04.png,0003-00-0000-09.png
00000009,905,1,1448393825527,1448393826052,504,263,0,0,0,0,2,2,2,0001-00-0000-07.png,0003-00-0001-58.png
00000009,906,1,1448393827026,1448393827800,488,261,0,0,0,1,4,3,5,0005-00-0001-14.png,0004-00-0000-55.png
00000009,907,1,1448393828806,1448393829907,1051,296,0,0,0,2,1,1,3,0003-00-0001-59.png,0005-00-0001-68.png
00000009,908,0,1448393830870,1448393831744,943,350,0,0,0,3,4,1,7,0002-00-0001-20.png,0004-00-0000-39.png
00000009,909,1,1448393835210,1448393835242,862,347,0,0,0,1,0,1,1,0005-00-0000-31.png,0001-00-0000-89.png
00000009,910,1,1448393836269,1448393837187,459,243,0,0,0,0,4,4,4,0001-00-0000-67.png,0004-00-0000-68.png
00000009,911,1,1448393838196,1448393839014,1041,308,0,0,0,4,1,3,5,0004-00-0000-12.png,0005-00-0000-28.png
00000009,912,0,1448393840124,1448393840209,899,488,0,0,0,2,3,1,5,0003-00-0000-54.png,0002-00-0000-82.png
00000009,913,1,1448393843648,1448393844208,512,267,0,0,0,0,1,1,1,0001-00-0001-64.png,0005-00-0000-60.png
00000009,914,1,1448393845172,1448393845808,1049,253,0,0,0,3,1,2,4,0002-00-0001-36.png,0005-00-0001-49.png
00000009,915,1,1448393846740,1448393847580,493,253,0,0,0,1,3,2,4,0005-00-0000-96.png,0002-00-0001-71.png
00000009,916,1,1448393848538,1448393849178,499,243,0,0,0,0,3,3,3,0001-00-0000-58.png,0002-00-0001-21.png
00000009,917,1,1448393850386,1448393851066,1041,240,0,0,0,3,0,3,3,0002-00-0001-43.png,0001-00-0000-97.png
00000009,918,1,1448393852017,1448393852920,468,233,0,0,0,2,4,2,6,0003-00-0000-95.png,0004-00-0001-67.png
00000009,919,1,1448393853996,1448393854903,1027,284,0,0,0,3,2,1,5,0002-00-0001-03.png,0003-00-0001-69.png
00000009,920,1,1448393855941,1448393857008,1041,261,0,0,0,4,3,1,7,0004-00-0001-01.png,0002-00-0000-45.png
00000009,921,0,1448393857998,1448393859074,498,235,0,0,0,4,3,1,7,0004-00-0001-35.png,0002-00-0000-97.png
00000009,922,0,1448393862290,1448393863262,489,236,0,0,0,2,0,2,2,0003-00-0000-78.png,0001-00-0000-39.png
00000009,923,1,1448393866416,1448393866537,868,287,0,0,0,3,2,1,5,0002-00-0000-64.png,0003-00-0000-97.png
00000009,924,1,1448393867697,1448393868480,943,307,0,0,0,3,0,3,3,0002-00-0000-33.png,0001-00-0000-04.png
00000009,925,1,1448393869419,1448393870210,438,410,0,0,0,1,3,2,4,0005-00-0000-68.png,0002-00-0000-12.png
00000009,926,1,1448393871195,1448393872025,511,243,0,0,0,0,4,4,4,0001-00-0000-04.png,0004-00-0001-72.png
00000009,927,1,1448393872957,1448393873705,1029,253,0,0,0,4,0,4,4,0004-00-0000-25.png,0001-00-0000-38.png
00000009,928,1,1448393874744,1448393874792,862,447,0,0,0,1,0,1,1,0005-00-0001-27.png,0001-00-0001-26.png
00000009,929,1,1448393875768,1448393876708,938,333,0,0,0,2,1,1,3,0003-00-0000-43.png,0005-00-0001-97.png
00000009,930,1,1448393877675,1448393878340,495,252,0,0,0,0,3,3,3,0001-00-0001-23.png,0002-00-0000-56.png
00000009,931,1,1448393879305,1448393880098,496,260,0,0,0,0,2,2,2,0001-00-0000-47.png,0003-00-0000-16.png
00000009,932,1,1448393881209,1448393881900,438,329,0,0,0,0,1,1,1,0001-00-0000-45.png,0005-00-0001-77.png
00000009,933,1,1448393882958,1448393883920,487,257,0,0,0,1,4,3,5,0005-00-0001-02.png,0004-00-0001-18.png
00000009,934,0,1448393884950,1448393885738,1048,245,0,0,0,2,3,1,5,0003-00-0000-64.png,0002-00-0001-62.png
00000009,935,1,1448393888696,1448393889570,510,243,0,0,0,2,4,2,6,0003-00-0000-15.png,0004-00-0000-74.png
00000009,936,1,1448393890554,1448393890610,865,465,0,0,0,3,1,2,4,0002-00-0000-30.png,0005-00-0000-94.png
00000009,937,1,1448393891717,1448393892854,507,262,0,0,0,3,4,1,7,0002-00-0001-06.png,0004-00-0000-38.png
00000009,938,1,1448393893852,1448393894630,490,257,0,0,0,1,2,1,3,0005-00-0000-98.png,0003-00-0000-89.png
00000009,939,1,1448393895622,1448393896419,1041,272,0,0,0,4,2,2,6,0004-00-0001-14.png,0003-00-0000-68.png
00000009,940,0,1448393897483,1448393898193,517,230,0,0,0,4,1,3,5,0004-00-0000-64.png,0005-00-0001-99.png
00000009,941,1,1448393901351,1448393901392,888,347,0,0,0,2,1,1,3,0003-00-0000-15.png,0005-00-0001-16.png
00000009,942,1,1448393902398,1448393903353,488,266,0,0,0,1,4,3,5,0005-00-0000-49.png,0004-00-0000-46.png
00000009,943,0,1448393904293,1448393905064,422,336,0,0,0,4,0,4,4,0004-00-0000-63.png,0001-00-0000-37.png
00000009,944,1,1448393908309,1448393908333,878,312,0,0,0,4,1,3,5,0004-00-0001-44.png,0005-00-0000-03.png
00000009,945,1,1448393909285,1448393910112,496,248,0,0,0,0,4,4,4,0001-00-0001-70.png,0004-00-0000-81.png
00000009,946,1,1448393911071,1448393911888,943,341,0,0,0,3,2,1,5,0002-00-0000-38.png,0003-00-0001-47.png
00000009,947,1,1448393912876,1448393913572,516,254,0,0,0,0,2,2,2,0001-00-0000-23.png,0003-00-0001-94.png
00000009,948,1,1448393914663,1448393915991,464,374,0,0,0,2,3,1,5,0003-00-0000-46.png,0002-00-0000-80.png
00000009,949,1,1448393916978,1448393917725,926,316,0,0,0,2,0,2,2,0003-00-0000-71.png,0001-00-0000-22.png
00000009,950,1,1448393918767,1448393919484,516,252,0,0,0,3,4,1,7,0002-00-0000-27.png,0004-00-0001-27.png
