subject_id,trial,correct_response,stim_time,response_time,x_coord,y_coord,trial_timeout,timeout_time,interTrial_timeout,left_rank,right_rank,distance,joint_rank,left_image,right_image
00000014,1,1,1447430399874,1447430401080,441,518,0,0,0,1,4,3,5,0005-00-0000-82.png,0004-00-0000-64.png
00000014,2,0,1447430402341,1447430402700,400,406,0,0,0,4,3,1,7,0004-00-0000-00.png,0002-00-0001-88.png
00000014,3,1,1447430406273,1447430406632,403,403,0,0,0,0,4,4,4,0001-00-0001-40.png,0004-00-0000-87.png
00000014,4,0,1447430408013,1447430408434,444,479,0,0,0,2,0,2,2,0003-00-0000-23.png,0001-00-0001-93.png
00000014,5,1,1447430411353,1447430411808,896,489,0,0,0,4,1,3,5,0004-00-0000-87.png,0005-00-0001-71.png
00000014,6,0,1447430412843,1447430413386,929,416,0,0,0,1,2,1,3,0005-00-0001-69.png,0003-00-0001-07.png
00000014,7,0,1447430416493,1447430416855,432,400,0,0,0,3,2,1,5,0002-00-0001-72.png,0003-00-0000-26.png
00000014,8,1,1447430421778,1447430422162,384,449,0,0,0,0,1,1,1,0001-00-0000-47.png,0005-00-0001-72.png
00000014,9,1,1447430423038,1447430423454,390,416,0,0,0,0,2,2,2,0001-00-0001-13.png,0003-00-0001-26.png
00000014,10,1,1447430424521,1447430425006,932,501,0,0,0,3,0,3,3,0002-00-0001-83.png,0001-00-0001-64.png
00000014,11,0,1447430426012,1447430426426,442,460,0,0,0,3,1,2,4,0002-00-0001-30.png,0005-00-0001-54.png
00000014,12,0,1447430431394,1447430431855,904,511,0,0,0,2,4,2,6,0003-00-0000-10.png,0004-00-0001-03.png
00000014,13,1,1447430435117,1447430435579,971,397,0,0,0,1,0,1,1,0005-00-0000-25.png,0001-00-0000-30.png
00000014,14,1,1447430437204,1447430437694,925,489,0,0,0,2,1,1,3,0003-00-0001-46.png,0005-00-0000-39.png
00000014,15,0,1447430438805,1447430439274,352,410,0,0,0,4,0,4,4,0004-00-0000-56.png,0001-00-0000-43.png
00000014,16,0,1447430443216,1447430443632,380,466,0,0,0,4,2,2,6,0004-00-0000-02.png,0003-00-0000-14.png
00000014,17,1,1447430446664,1447430447113,418,428,0,0,0,1,3,2,4,0005-00-0001-20.png,0002-00-0001-92.png
00000014,18,0,1447430448166,1447430448708,860,456,0,0,0,3,4,1,7,0002-00-0000-78.png,0004-00-0001-20.png
00000014,19,1,1447430451924,1447430452341,376,462,0,0,0,0,3,3,3,0001-00-0000-75.png,0002-00-0000-26.png
00000014,20,0,1447430453489,1447430454066,896,524,0,0,0,2,3,1,5,0003-00-0001-99.png,0002-00-0000-65.png
00000014,21,0,1447430457411,1447430457870,977,371,0,0,0,2,4,2,6,0003-00-0001-88.png,0004-00-0001-86.png
00000014,22,1,1447430460721,1447430461116,388,359,0,0,0,0,3,3,3,0001-00-0001-86.png,0002-00-0001-90.png
00000014,23,0,1447430462470,1447430462893,394,395,0,0,0,4,1,3,5,0004-00-0001-95.png,0005-00-0001-68.png
00000014,24,0,1447430466384,1447430466810,438,533,0,0,0,4,0,4,4,0004-00-0001-86.png,0001-00-0000-65.png
00000014,25,1,1447430469754,1447430469762,504,462,0,0,0,1,4,3,5,0005-00-0001-50.png,0004-00-0001-64.png
00000014,26,1,1447430471334,1447430471838,926,397,0,0,0,4,2,2,6,0004-00-0000-30.png,0003-00-0001-45.png
00000014,27,0,1447430473178,1447430473628,939,404,0,0,0,2,3,1,5,0003-00-0001-42.png,0002-00-0001-13.png
00000014,28,1,1447430479047,1447430479439,373,394,0,0,0,1,2,1,3,0005-00-0000-17.png,0003-00-0001-92.png
00000014,29,0,1447430481076,1447430481571,440,449,0,0,0,2,1,1,3,0003-00-0001-38.png,0005-00-0001-10.png
00000014,30,0,1447430486990,1447430487718,350,449,0,0,0,4,3,1,7,0004-00-0001-92.png,0002-00-0001-17.png
00000014,31,1,1447430495570,1447430495998,926,462,0,0,0,2,0,2,2,0003-00-0000-91.png,0001-00-0000-15.png
00000014,32,1,1447430497653,1447430498220,926,493,0,0,0,3,2,1,5,0002-00-0001-39.png,0003-00-0001-66.png
00000014,33,1,1447430499819,1447430500293,940,397,0,0,0,3,0,3,3,0002-00-0001-41.png,0001-00-0001-55.png
00000014,34,1,1447430501893,1447430502407,418,547,0,0,0,1,3,2,4,0005-00-0001-78.png,0002-00-0000-89.png
00000014,35,1,1447430504209,1447430504680,427,501,0,0,0,3,4,1,7,0002-00-0001-53.png,0004-00-0000-95.png
00000014,36,0,1447430506409,1447430506942,944,461,0,0,0,0,4,4,4,0001-00-0000-48.png,0004-00-0000-40.png
00000014,37,1,1447430511921,1447430512389,914,562,0,0,0,1,0,1,1,0005-00-0000-19.png,0001-00-0001-91.png
00000014,38,1,1447430513932,1447430514437,947,419,0,0,0,3,1,2,4,0002-00-0000-11.png,0005-00-0001-26.png
00000014,39,1,1447430516046,1447430516591,352,421,0,0,0,0,1,1,1,0001-00-0001-36.png,0005-00-0001-53.png
00000014,40,1,1447430517824,1447430518230,390,535,0,0,0,0,2,2,2,0001-00-0000-93.png,0003-00-0000-44.png
00000014,41,1,1447430519431,1447430519973,936,424,0,0,0,4,2,2,6,0004-00-0000-25.png,0003-00-0001-43.png
00000014,42,1,1447430521477,1447430521976,951,411,0,0,0,3,1,2,4,0002-00-0000-67.png,0005-00-0001-75.png
00000014,43,1,1447430523103,1447430523588,888,528,0,0,0,2,1,1,3,0003-00-0001-88.png,0005-00-0000-91.png
00000014,44,1,1447430524664,1447430525563,401,397,0,0,0,0,2,2,2,0001-00-0000-54.png,0003-00-0001-88.png
00000014,45,1,1447430526691,1447430527205,913,449,0,0,0,4,3,1,7,0004-00-0001-57.png,0002-00-0000-25.png
00000014,46,1,1447430528171,1447430528591,373,455,0,0,0,1,4,3,5,0005-00-0001-01.png,0004-00-0000-71.png
00000014,47,0,1447430529753,1447430530266,461,536,0,0,0,3,2,1,5,0002-00-0000-57.png,0003-00-0000-16.png
00000014,48,1,1447430535029,1447430535668,356,383,0,0,0,0,3,3,3,0001-00-0000-19.png,0002-00-0001-07.png
00000014,49,0,1447430536569,1447430537021,376,446,0,0,0,3,0,3,3,0002-00-0000-64.png,0001-00-0001-78.png
00000014,50,0,1447430539968,1447430540452,902,391,0,0,0,1,3,2,4,0005-00-0001-09.png,0002-00-0001-94.png
00000014,51,1,1447430543635,1447430544096,882,490,0,0,0,2,0,2,2,0003-00-0001-24.png,0001-00-0000-07.png
00000014,52,0,1447430545057,1447430545540,921,394,0,0,0,2,4,2,6,0003-00-0001-80.png,0004-00-0001-81.png
00000014,53,0,1447430548381,1447430548777,407,465,0,0,0,4,0,4,4,0004-00-0001-45.png,0001-00-0000-02.png
00000014,54,1,1447430551685,1447430552113,359,345,0,0,0,0,1,1,1,0001-00-0001-80.png,0005-00-0000-88.png
00000014,55,1,1447430553067,1447430553605,956,427,0,0,0,4,1,3,5,0004-00-0000-30.png,0005-00-0001-68.png
00000014,56,0,1447430554678,1447430555314,893,404,0,0,0,2,3,1,5,0003-00-0001-66.png,0002-00-0001-11.png
00000014,57,1,1447430558323,1447430558730,368,419,0,0,0,0,4,4,4,0001-00-0000-23.png,0004-00-0001-94.png
00000014,58,0,1447430559770,1447430560222,930,403,0,0,0,3,4,1,7,0002-00-0000-89.png,0004-00-0001-73.png
00000014,59,0,1447430563393,1447430564040,937,501,0,0,0,1,2,1,3,0005-00-0000-46.png,0003-00-0001-72.png
00000014,60,0,1447430567110,1447430567514,427,516,0,0,0,1,0,1,1,0005-00-0001-97.png,0001-00-0001-63.png
00000014,61,1,1447430570876,1447430571294,348,393,0,0,0,0,4,4,4,0001-00-0000-69.png,0004-00-0000-51.png
00000014,62,1,1447430572238,1447430572685,397,508,0,0,0,0,3,3,3,0001-00-0000-72.png,0002-00-0000-24.png
00000014,63,0,1447430573689,1447430574323,922,465,0,0,0,1,4,3,5,0005-00-0001-35.png,0004-00-0000-11.png
00000014,64,1,1447430577388,1447430577929,921,472,0,0,0,4,1,3,5,0004-00-0000-01.png,0005-00-0001-19.png
00000014,65,0,1447430578948,1447430579488,951,440,0,0,0,1,2,1,3,0005-00-0000-95.png,0003-00-0000-79.png
00000014,66,0,1447430582675,1447430583320,330,331,0,0,0,3,2,1,5,0002-00-0000-04.png,0003-00-0001-60.png
00000014,67,1,1447430586420,1447430586886,895,524,0,0,0,2,0,2,2,0003-00-0000-33.png,0001-00-0001-25.png
00000014,68,0,1447430587853,1447430588279,393,454,0,0,0,3,0,3,3,0002-00-0000-63.png,0001-00-0001-32.png
00000014,69,1,1447430591609,1447430592080,385,377,0,0,0,0,1,1,1,0001-00-0000-77.png,0005-00-0000-12.png
00000014,70,0,1447430593118,1447430593557,331,427,0,0,0,4,3,1,7,0004-00-0001-06.png,0002-00-0000-96.png
00000014,71,0,1447430596424,1447430596444,513,418,0,0,0,1,0,1,1,0005-00-0000-58.png,0001-00-0001-43.png
00000014,72,0,1447430599310,1447430599807,930,402,0,0,0,2,4,2,6,0003-00-0001-90.png,0004-00-0000-32.png
00000014,73,0,1447430602665,1447430603083,334,391,0,0,0,4,2,2,6,0004-00-0001-88.png,0003-00-0001-02.png
00000014,74,1,1447430606183,1447430606643,964,436,0,0,0,2,1,1,3,0003-00-0000-34.png,0005-00-0000-80.png
00000014,75,0,1447430607719,1447430608213,939,448,0,0,0,2,3,1,5,0003-00-0000-97.png,0002-00-0001-20.png
00000014,76,1,1447430611443,1447430612059,397,390,0,0,0,1,3,2,4,0005-00-0000-27.png,0002-00-0000-01.png
00000014,77,0,1447430613086,1447430613592,879,402,0,0,0,3,4,1,7,0002-00-0000-47.png,0004-00-0000-48.png
00000014,78,1,1447430616892,1447430617435,363,398,0,0,0,0,2,2,2,0001-00-0000-84.png,0003-00-0001-16.png
00000014,79,1,1447430618478,1447430618989,914,418,0,0,0,3,1,2,4,0002-00-0001-74.png,0005-00-0000-96.png
00000014,80,1,1447430620014,1447430620544,936,472,0,0,0,4,0,4,4,0004-00-0001-83.png,0001-00-0001-49.png
00000014,81,1,1447430621644,1447430622072,350,554,0,0,0,0,3,3,3,0001-00-0000-35.png,0002-00-0001-56.png
00000014,82,1,1447430623603,1447430624015,934,448,0,0,0,4,0,4,4,0004-00-0000-51.png,0001-00-0000-00.png
00000014,83,0,1447430625164,1447430625564,407,487,0,0,0,3,2,1,5,0002-00-0001-25.png,0003-00-0001-78.png
00000014,84,0,1447430628700,1447430629163,926,474,0,0,0,1,2,1,3,0005-00-0001-83.png,0003-00-0001-87.png
00000014,85,0,1447430632018,1447430632470,939,397,0,0,0,2,3,1,5,0003-00-0000-44.png,0002-00-0001-14.png
00000014,86,1,1447430635377,1447430636009,337,334,0,0,0,1,4,3,5,0005-00-0001-31.png,0004-00-0001-76.png
00000014,87,1,1447430637089,1447430637587,913,404,0,0,0,4,2,2,6,0004-00-0001-04.png,0003-00-0001-31.png
00000014,88,0,1447430638649,1447430639527,417,390,0,0,0,2,1,1,3,0003-00-0001-34.png,0005-00-0001-84.png
00000014,89,1,1447430642456,1447430642890,365,377,0,0,0,0,4,4,4,0001-00-0001-39.png,0004-00-0000-22.png
00000014,90,1,1447430643952,1447430644434,386,393,0,0,0,0,2,2,2,0001-00-0000-02.png,0003-00-0001-11.png
00000014,91,0,1447430645562,1447430646281,428,351,0,0,0,4,3,1,7,0004-00-0001-09.png,0002-00-0000-57.png
00000014,92,1,1447430649223,1447430649775,926,413,0,0,0,4,1,3,5,0004-00-0000-54.png,0005-00-0000-53.png
00000014,93,1,1447430650833,1447430651281,453,462,0,0,0,2,4,2,6,0003-00-0001-76.png,0004-00-0001-91.png
00000014,94,1,1447430652343,1447430653006,899,462,0,0,0,1,0,1,1,0005-00-0001-47.png,0001-00-0001-61.png
00000014,95,1,1447430654074,1447430654592,902,443,0,0,0,2,0,2,2,0003-00-0000-75.png,0001-00-0000-30.png
00000014,96,0,1447430655675,1447430656164,899,430,0,0,0,3,4,1,7,0002-00-0000-82.png,0004-00-0000-46.png
00000014,97,1,1447430661300,1447430662022,441,466,0,0,0,1,3,2,4,0005-00-0001-85.png,0002-00-0001-47.png
00000014,98,1,1447430663209,1447430663718,896,524,0,0,0,3,1,2,4,0002-00-0000-17.png,0005-00-0001-23.png
00000014,99,0,1447430664775,1447430665225,445,506,0,0,0,3,0,3,3,0002-00-0001-87.png,0001-00-0000-81.png
00000014,100,0,1447430668247,1447430668734,893,513,0,0,0,0,1,1,1,0001-00-0001-76.png,0005-00-0001-35.png
00000014,101,1,1447430672009,1447430672439,950,436,0,0,0,1,0,1,1,0005-00-0000-88.png,0001-00-0001-42.png
00000014,102,1,1447430673426,1447430673965,947,444,0,0,0,2,0,2,2,0003-00-0001-73.png,0001-00-0000-30.png
00000014,103,1,1447430675026,1447430675650,925,431,0,0,0,3,0,3,3,0002-00-0001-78.png,0001-00-0001-72.png
00000014,104,1,1447430676745,1447430677152,356,459,0,0,0,0,2,2,2,0001-00-0001-33.png,0003-00-0001-05.png
00000014,105,0,1447430678283,1447430678830,927,424,0,0,0,1,3,2,4,0005-00-0001-38.png,0002-00-0000-01.png
00000014,106,0,1447430681841,1447430682306,921,419,0,0,0,3,4,1,7,0002-00-0001-60.png,0004-00-0001-85.png
00000014,107,0,1447430685236,1447430685742,949,431,0,0,0,1,2,1,3,0005-00-0000-39.png,0003-00-0001-07.png
00000014,108,0,1447430688888,1447430689339,444,427,0,0,0,2,1,1,3,0003-00-0001-84.png,0005-00-0000-21.png
00000014,109,0,1447430692428,1447430692875,446,416,0,0,0,3,2,1,5,0002-00-0001-32.png,0003-00-0001-54.png
00000014,110,1,1447430695918,1447430696414,401,396,0,0,0,0,3,3,3,0001-00-0000-91.png,0002-00-0000-36.png
00000014,111,1,1447430697504,1447430697960,337,432,0,0,0,1,4,3,5,0005-00-0001-69.png,0004-00-0000-38.png
00000014,112,1,1447430699059,1447430699540,862,547,0,0,0,4,3,1,7,0004-00-0001-91.png,0002-00-0001-49.png
00000014,113,1,1447430700651,1447430701159,889,403,0,0,0,4,0,4,4,0004-00-0001-12.png,0001-00-0000-21.png
00000014,114,0,1447430702260,1447430702937,407,382,0,0,0,4,1,3,5,0004-00-0000-60.png,0005-00-0000-48.png
00000014,115,1,1447430706018,1447430706548,927,400,0,0,0,3,1,2,4,0002-00-0001-27.png,0005-00-0000-83.png
00000014,116,0,1447430707587,1447430708104,888,384,0,0,0,2,4,2,6,0003-00-0000-95.png,0004-00-0000-36.png
00000014,117,1,1447430711107,1447430711692,919,400,0,0,0,4,2,2,6,0004-00-0001-30.png,0003-00-0000-05.png
00000014,118,1,1447430712717,1447430713201,402,423,0,0,0,0,4,4,4,0001-00-0001-88.png,0004-00-0000-52.png
00000014,119,1,1447430714291,1447430714718,401,470,0,0,0,2,3,1,5,0003-00-0001-44.png,0002-00-0001-82.png
00000014,120,1,1447430715797,1447430716184,347,458,0,0,0,0,1,1,1,0001-00-0001-09.png,0005-00-0001-13.png
00000014,121,1,1447430717313,1447430717829,898,433,0,0,0,3,2,1,5,0002-00-0000-88.png,0003-00-0001-36.png
00000014,122,1,1447430718962,1447430719580,903,420,0,0,0,4,3,1,7,0004-00-0001-21.png,0002-00-0000-86.png
00000014,123,1,1447430720698,1447430721332,401,436,0,0,0,1,2,1,3,0005-00-0000-49.png,0003-00-0000-13.png
00000014,124,0,1447430722408,1447430722893,358,428,0,0,0,4,1,3,5,0004-00-0001-17.png,0005-00-0000-37.png
00000014,125,1,1447430726337,1447430726840,926,462,0,0,0,2,0,2,2,0003-00-0001-94.png,0001-00-0001-20.png
00000014,126,0,1447430727834,1447430728399,427,525,0,0,0,4,2,2,6,0004-00-0001-31.png,0003-00-0001-46.png
00000014,127,0,1447430731391,1447430731888,939,424,0,0,0,2,3,1,5,0003-00-0000-78.png,0002-00-0000-37.png
00000014,128,0,1447430735233,1447430735782,926,424,0,0,0,2,4,2,6,0003-00-0000-81.png,0004-00-0001-69.png
00000014,129,1,1447430738715,1447430739163,340,358,0,0,0,0,4,4,4,0001-00-0001-18.png,0004-00-0001-41.png
00000014,130,1,1447430740227,1447430740727,862,396,0,0,0,3,0,3,3,0002-00-0000-90.png,0001-00-0000-40.png
00000014,131,1,1447430741896,1447430742677,401,358,0,0,0,3,4,1,7,0002-00-0000-93.png,0004-00-0000-71.png
00000014,132,1,1447430743789,1447430744279,888,450,0,0,0,2,1,1,3,0003-00-0000-95.png,0005-00-0000-42.png
00000014,133,1,1447430745355,1447430745782,394,453,0,0,0,0,2,2,2,0001-00-0000-46.png,0003-00-0000-60.png
00000014,134,1,1447430746861,1447430747533,873,539,0,0,0,3,1,2,4,0002-00-0000-02.png,0005-00-0001-98.png
00000014,135,1,1447430748622,1447430749669,862,476,0,0,0,1,0,1,1,0005-00-0000-54.png,0001-00-0000-67.png
00000014,136,1,1447430750803,1447430751208,402,467,0,0,0,0,1,1,1,0001-00-0000-26.png,0005-00-0001-74.png
00000014,137,1,1447430752343,1447430752815,401,462,0,0,0,0,3,3,3,0001-00-0001-50.png,0002-00-0000-31.png
00000014,138,0,1447430753894,1447430754394,403,411,0,0,0,4,0,4,4,0004-00-0001-29.png,0001-00-0000-57.png
00000014,139,1,1447430757582,1447430758096,307,385,0,0,0,1,3,2,4,0005-00-0000-61.png,0002-00-0001-02.png
00000014,140,1,1447430759178,1447430759715,400,496,0,0,0,1,4,3,5,0005-00-0001-50.png,0004-00-0001-77.png
00000014,141,1,1447430760742,1447430761218,401,462,0,0,0,0,1,1,1,0001-00-0001-98.png,0005-00-0000-51.png
00000014,142,1,1447430762412,1447430763089,885,432,0,0,0,4,3,1,7,0004-00-0001-79.png,0002-00-0001-02.png
00000014,143,1,1447430764211,1447430764654,401,464,0,0,0,1,2,1,3,0005-00-0001-90.png,0003-00-0000-39.png
00000014,144,1,1447430765762,1447430766269,875,436,0,0,0,4,0,4,4,0004-00-0000-16.png,0001-00-0001-14.png
00000014,145,0,1447430767392,1447430768433,920,420,0,0,0,2,3,1,5,0003-00-0001-51.png,0002-00-0000-36.png
00000014,146,0,1447430771684,1447430772191,926,480,0,0,0,2,4,2,6,0003-00-0000-84.png,0004-00-0000-37.png
00000014,147,1,1447430778848,1447430779350,904,402,0,0,0,4,2,2,6,0004-00-0001-70.png,0003-00-0000-98.png
00000014,148,1,1447430780298,1447430780733,314,440,0,0,0,0,3,3,3,0001-00-0000-20.png,0002-00-0000-55.png
00000014,149,1,1447430781785,1447430782173,405,471,0,0,0,0,2,2,2,0001-00-0001-77.png,0003-00-0001-68.png
00000014,150,1,1447430783221,1447430783762,899,458,0,0,0,3,1,2,4,0002-00-0001-27.png,0005-00-0001-97.png
00000014,151,1,1447430784792,1447430785187,382,446,0,0,0,1,3,2,4,0005-00-0001-38.png,0002-00-0000-73.png
00000014,152,0,1447430786272,1447430786795,901,424,0,0,0,3,4,1,7,0002-00-0001-92.png,0004-00-0000-40.png
00000014,153,1,1447430789687,1447430790100,421,512,0,0,0,1,4,3,5,0005-00-0000-34.png,0004-00-0000-21.png
00000014,154,1,1447430790999,1447430791526,873,430,0,0,0,4,1,3,5,0004-00-0001-26.png,0005-00-0000-90.png
00000014,155,1,1447430792540,1447430793074,875,544,0,0,0,1,0,1,1,0005-00-0000-85.png,0001-00-0000-00.png
00000014,156,1,1447430794096,1447430794568,859,526,0,0,0,2,0,2,2,0003-00-0001-97.png,0001-00-0000-45.png
00000014,157,1,1447430795555,1447430795974,401,450,0,0,0,0,4,4,4,0001-00-0001-27.png,0004-00-0001-55.png
00000014,158,1,1447430796977,1447430797513,899,454,0,0,0,3,0,3,3,0002-00-0000-68.png,0001-00-0001-24.png
00000014,159,0,1447430798508,1447430798916,376,424,0,0,0,3,2,1,5,0002-00-0000-04.png,0003-00-0000-82.png
00000014,160,1,1447430809743,1447430810175,903,494,0,0,0,2,1,1,3,0003-00-0000-95.png,0005-00-0001-44.png
00000014,161,0,1447430811133,1447430811687,912,451,0,0,0,1,4,3,5,0005-00-0001-11.png,0004-00-0001-67.png
00000014,162,1,1447430815140,1447430815616,867,530,0,0,0,3,1,2,4,0002-00-0000-97.png,0005-00-0001-09.png
00000014,163,0,1447430816534,1447430817063,899,456,0,0,0,2,3,1,5,0003-00-0001-82.png,0002-00-0000-87.png
00000014,164,1,1447430820279,1447430820741,927,487,0,0,0,3,0,3,3,0002-00-0001-67.png,0001-00-0001-92.png
00000014,165,0,1447430821659,1447430822073,397,439,0,0,0,3,2,1,5,0002-00-0001-31.png,0003-00-0000-24.png
00000014,166,1,1447430825065,1447430825449,377,385,0,0,0,0,3,3,3,0001-00-0001-89.png,0002-00-0000-53.png
00000014,167,1,1447430826397,1447430826939,898,460,0,0,0,4,0,4,4,0004-00-0000-00.png,0001-00-0000-21.png
00000014,168,0,1447430827955,1447430828347,376,462,0,0,0,2,1,1,3,0003-00-0000-73.png,0005-00-0000-97.png
00000014,169,0,1447430831528,1447430832030,881,539,0,0,0,1,3,2,4,0005-00-0001-39.png,0002-00-0001-78.png
00000014,170,1,1447430835374,1447430835886,857,366,0,0,0,4,3,1,7,0004-00-0001-88.png,0002-00-0001-74.png
00000014,171,1,1447430836870,1447430837332,384,428,0,0,0,0,2,2,2,0001-00-0001-50.png,0003-00-0001-86.png
00000014,172,1,1447430838356,1447430838749,394,453,0,0,0,2,4,2,6,0003-00-0000-51.png,0004-00-0001-21.png
00000014,173,0,1447430839807,1447430840717,397,413,0,0,0,4,1,3,5,0004-00-0000-16.png,0005-00-0001-31.png
00000014,174,0,1447430844854,1447430845245,375,419,0,0,0,4,2,2,6,0004-00-0000-13.png,0003-00-0001-63.png
00000014,175,0,1447430850759,1447430851257,913,430,0,0,0,0,1,1,1,0001-00-0001-24.png,0005-00-0001-29.png
00000014,176,0,1447430854145,1447430854560,913,502,0,0,0,3,4,1,7,0002-00-0001-31.png,0004-00-0000-37.png
00000014,177,0,1447430857894,1447430858373,929,441,0,0,0,1,2,1,3,0005-00-0000-65.png,0003-00-0000-27.png
00000014,178,1,1447430861591,1447430862064,878,506,0,0,0,2,0,2,2,0003-00-0001-12.png,0001-00-0000-49.png
00000014,179,1,1447430863022,1447430863585,893,516,0,0,0,1,0,1,1,0005-00-0000-51.png,0001-00-0000-40.png
00000014,180,0,1447430865048,1447430865595,925,437,0,0,0,0,4,4,4,0001-00-0001-30.png,0004-00-0001-10.png
00000014,181,1,1447430868526,1447430868939,951,411,0,0,0,2,1,1,3,0003-00-0000-51.png,0005-00-0000-78.png
00000014,182,1,1447430869949,1447430870363,368,401,0,0,0,0,1,1,1,0001-00-0001-94.png,0005-00-0001-32.png
00000014,183,0,1447430871358,1447430871745,407,461,0,0,0,4,0,4,4,0004-00-0000-63.png,0001-00-0000-65.png
00000014,184,1,1447430875470,1447430875950,883,475,0,0,0,4,3,1,7,0004-00-0000-29.png,0002-00-0000-50.png
00000014,185,1,1447430876965,1447430877420,465,495,0,0,0,0,2,2,2,0001-00-0000-12.png,0003-00-0000-65.png
00000014,186,0,1447430878386,1447430878802,390,457,0,0,0,4,2,2,6,0004-00-0000-43.png,0003-00-0000-18.png
00000014,187,1,1447430881895,1447430882462,893,374,0,0,0,3,0,3,3,0002-00-0001-94.png,0001-00-0000-33.png
00000014,188,0,1447430883515,1447430884261,899,386,0,0,0,3,4,1,7,0002-00-0000-87.png,0004-00-0001-65.png
00000014,189,0,1447430888238,1447430888661,367,427,0,0,0,1,0,1,1,0005-00-0000-33.png,0001-00-0000-92.png
00000014,190,0,1447430891636,1447430892180,926,423,0,0,0,1,3,2,4,0005-00-0000-81.png,0002-00-0000-16.png
00000014,191,0,1447430896802,1447430897266,927,450,0,0,0,2,4,2,6,0003-00-0000-47.png,0004-00-0001-54.png
00000014,192,1,1447430900670,1447430901224,888,501,0,0,0,3,1,2,4,0002-00-0001-22.png,0005-00-0001-04.png
00000014,193,1,1447430902309,1447430902744,395,442,0,0,0,0,3,3,3,0001-00-0000-64.png,0002-00-0001-68.png
00000014,194,1,1447430903906,1447430904304,374,452,0,0,0,1,2,1,3,0005-00-0000-36.png,0003-00-0000-50.png
00000014,195,0,1447430905327,1447430905862,905,428,0,0,0,1,4,3,5,0005-00-0000-38.png,0004-00-0001-42.png
00000014,196,0,1447430908978,1447430909422,384,420,0,0,0,3,2,1,5,0002-00-0001-37.png,0003-00-0001-38.png
00000014,197,0,1447430912447,1447430912840,390,423,0,0,0,2,0,2,2,0003-00-0001-15.png,0001-00-0000-84.png
00000014,198,1,1447430915747,1447430916131,414,410,0,0,0,0,4,4,4,0001-00-0001-98.png,0004-00-0001-10.png
00000014,199,0,1447430917157,1447430917640,913,450,0,0,0,2,3,1,5,0003-00-0001-67.png,0002-00-0001-47.png
00000014,200,1,1447430920886,1447430921371,883,506,0,0,0,4,1,3,5,0004-00-0000-80.png,0005-00-0001-69.png
00000014,201,1,1447430922374,1447430922807,350,474,0,0,0,0,3,3,3,0001-00-0000-70.png,0002-00-0001-99.png
00000014,202,1,1447430923834,1447430924446,927,423,0,0,0,1,0,1,1,0005-00-0000-55.png,0001-00-0000-03.png
00000014,203,0,1447430925467,1447430925993,860,534,0,0,0,1,3,2,4,0005-00-0000-87.png,0002-00-0000-21.png
00000014,204,0,1447430928966,1447430929588,379,342,0,0,0,4,0,4,4,0004-00-0000-55.png,0001-00-0000-92.png
00000014,205,0,1447430932743,1447430933923,386,353,0,0,0,4,2,2,6,0004-00-0001-44.png,0003-00-0000-57.png
00000014,206,0,1447430936768,1447430937303,364,345,0,0,0,3,0,3,3,0002-00-0000-51.png,0001-00-0001-95.png
00000014,207,1,1447430940306,1447430940766,951,416,0,0,0,2,0,2,2,0003-00-0000-06.png,0001-00-0000-73.png
00000014,208,0,1447430941824,1447430942349,913,450,0,0,0,2,4,2,6,0003-00-0001-31.png,0004-00-0000-04.png
00000014,209,0,1447430947331,1447430947899,387,383,0,0,0,4,3,1,7,0004-00-0001-48.png,0002-00-0001-25.png
00000014,210,1,1447430950891,1447430951326,401,438,0,0,0,0,2,2,2,0001-00-0001-77.png,0003-00-0001-49.png
00000014,211,1,1447430952331,1447430952763,356,424,0,0,0,3,4,1,7,0002-00-0000-18.png,0004-00-0001-30.png
00000014,212,1,1447430953861,1447430954483,894,498,0,0,0,4,1,3,5,0004-00-0001-60.png,0005-00-0000-75.png
00000014,213,1,1447430955509,1447430955918,370,434,0,0,0,0,4,4,4,0001-00-0000-28.png,0004-00-0000-73.png
00000014,214,1,1447430956993,1447430957417,392,466,0,0,0,1,2,1,3,0005-00-0000-30.png,0003-00-0001-46.png
00000014,215,1,1447430958545,1447430959312,886,424,0,0,0,2,1,1,3,0003-00-0001-56.png,0005-00-0000-02.png
00000014,216,1,1447430960428,1447430960797,376,462,0,0,0,2,3,1,5,0003-00-0001-40.png,0002-00-0001-90.png
00000014,217,1,1447430961935,1447430962361,421,470,0,0,0,1,4,3,5,0005-00-0000-04.png,0004-00-0000-38.png
00000014,218,1,1447430963386,1447430963917,870,472,0,0,0,3,1,2,4,0002-00-0001-47.png,0005-00-0000-63.png
00000014,219,1,1447430964966,1447430965369,401,474,0,0,0,0,1,1,1,0001-00-0001-41.png,0005-00-0000-87.png
00000014,220,0,1447430966468,1447430966927,433,463,0,0,0,3,2,1,5,0002-00-0000-26.png,0003-00-0001-94.png
00000014,221,1,1447430970204,1447430970676,923,458,0,0,0,2,1,1,3,0003-00-0000-86.png,0005-00-0001-97.png
00000014,222,1,1447430971765,1447430972358,916,459,0,0,0,3,0,3,3,0002-00-0000-39.png,0001-00-0000-18.png
00000014,223,0,1447430973401,1447430973805,454,476,0,0,0,4,2,2,6,0004-00-0001-69.png,0003-00-0000-94.png
00000014,224,0,1447430976864,1447430977339,427,410,0,0,0,3,1,2,4,0002-00-0000-19.png,0005-00-0000-83.png
00000014,225,1,1447430980516,1447430980967,366,534,0,0,0,0,1,1,1,0001-00-0001-48.png,0005-00-0001-91.png
00000014,226,0,1447430981942,1447430982464,926,449,0,0,0,3,4,1,7,0002-00-0000-29.png,0004-00-0001-01.png
00000014,227,1,1447430985785,1447430986273,950,410,0,0,0,4,1,3,5,0004-00-0000-82.png,0005-00-0001-39.png
00000014,228,1,1447430987310,1447430987792,874,543,0,0,0,2,0,2,2,0003-00-0001-66.png,0001-00-0001-12.png
00000014,229,1,1447430988950,1447430989503,867,537,0,0,0,4,0,4,4,0004-00-0001-75.png,0001-00-0000-42.png
00000014,230,1,1447430990630,1447430991289,347,367,0,0,0,1,2,1,3,0005-00-0001-62.png,0003-00-0000-89.png
00000014,231,0,1447430992319,1447430992968,880,427,0,0,0,0,4,4,4,0001-00-0000-94.png,0004-00-0000-92.png
00000014,232,0,1447430995938,1447430996389,873,365,0,0,0,2,3,1,5,0003-00-0000-05.png,0002-00-0001-66.png
00000014,233,0,1447430999893,1447431000341,934,421,0,0,0,2,4,2,6,0003-00-0001-74.png,0004-00-0000-97.png
00000014,234,0,1447431004037,1447431004604,939,397,0,0,0,1,3,2,4,0005-00-0001-45.png,0002-00-0001-41.png
00000014,235,1,1447431007675,1447431008208,394,529,0,0,0,1,4,3,5,0005-00-0000-28.png,0004-00-0000-12.png
00000014,236,0,1447431009235,1447431009701,401,463,0,0,0,1,0,1,1,0005-00-0001-63.png,0001-00-0000-31.png
00000014,237,1,1447431012645,1447431013218,939,384,0,0,0,4,3,1,7,0004-00-0000-49.png,0002-00-0001-41.png
00000014,238,1,1447431014265,1447431014671,435,486,0,0,0,0,2,2,2,0001-00-0000-73.png,0003-00-0001-42.png
00000014,239,0,1447431015715,1447431016137,401,464,0,0,0,3,2,1,5,0002-00-0000-73.png,0003-00-0001-65.png
00000014,240,0,1447431019155,1447431019612,925,430,0,0,0,0,3,3,3,0001-00-0000-03.png,0002-00-0000-93.png
00000014,241,1,1447431022832,1447431023276,414,443,0,0,0,0,3,3,3,0001-00-0001-84.png,0002-00-0000-97.png
00000014,242,1,1447431024252,1447431024785,900,423,0,0,0,4,1,3,5,0004-00-0000-51.png,0005-00-0000-86.png
00000014,243,1,1447431025834,1447431026262,325,449,0,0,0,1,4,3,5,0005-00-0000-60.png,0004-00-0000-32.png
00000014,244,1,1447431027354,1447431027766,379,462,0,0,0,0,1,1,1,0001-00-0000-34.png,0005-00-0000-87.png
00000014,245,0,1447431028834,1447431029766,390,527,0,0,0,4,0,4,4,0004-00-0000-37.png,0001-00-0000-22.png
00000014,246,0,1447431032900,1447431033401,919,415,0,0,0,2,3,1,5,0003-00-0001-72.png,0002-00-0001-10.png
00000014,247,0,1447431036424,1447431036902,926,423,0,0,0,2,4,2,6,0003-00-0000-52.png,0004-00-0001-23.png
00000014,248,1,1447431039876,1447431040335,873,482,0,0,0,4,2,2,6,0004-00-0001-32.png,0003-00-0001-32.png
00000014,249,0,1447431041328,1447431041928,385,398,0,0,0,3,2,1,5,0002-00-0001-64.png,0003-00-0001-00.png
00000014,250,1,1447431045225,1447431045674,951,422,0,0,0,2,0,2,2,0003-00-0001-85.png,0001-00-0001-60.png
00000014,251,1,1447431046674,1447431047257,873,508,0,0,0,4,3,1,7,0004-00-0001-79.png,0002-00-0000-65.png
00000014,252,1,1447431048265,1447431048631,409,450,0,0,0,0,2,2,2,0001-00-0000-14.png,0003-00-0001-99.png
00000014,253,1,1447431050145,1447431050597,907,470,0,0,0,3,0,3,3,0002-00-0001-68.png,0001-00-0001-71.png
00000014,254,1,1447431051624,1447431052068,369,453,0,0,0,0,4,4,4,0001-00-0000-37.png,0004-00-0001-98.png
00000014,255,1,1447431053107,1447431053586,912,450,0,0,0,1,0,1,1,0005-00-0001-92.png,0001-00-0001-91.png
00000014,256,1,1447431054660,1447431055039,381,475,0,0,0,1,2,1,3,0005-00-0000-17.png,0003-00-0000-13.png
00000014,257,1,1447431056149,1447431056748,899,490,0,0,0,2,1,1,3,0003-00-0000-37.png,0005-00-0001-88.png
00000014,258,0,1447431057828,1447431058251,421,459,0,0,0,3,1,2,4,0002-00-0001-65.png,0005-00-0000-66.png
00000014,259,1,1447431061177,1447431061583,376,410,0,0,0,3,4,1,7,0002-00-0000-74.png,0004-00-0001-12.png
00000014,260,0,1447431062594,1447431063160,918,440,0,0,0,1,3,2,4,0005-00-0000-40.png,0002-00-0001-16.png
00000014,261,1,1447431066247,1447431066771,354,375,0,0,0,0,2,2,2,0001-00-0000-79.png,0003-00-0001-61.png
00000014,262,0,1447431067947,1447431068471,927,449,0,0,0,2,3,1,5,0003-00-0001-61.png,0002-00-0001-26.png
00000014,263,1,1447431071653,1447431072080,377,415,0,0,0,1,3,2,4,0005-00-0000-77.png,0002-00-0001-48.png
00000014,264,1,1447431073094,1447431073589,927,449,0,0,0,2,0,2,2,0003-00-0000-22.png,0001-00-0001-31.png
00000014,265,1,1447431074667,1447431075105,401,450,0,0,0,0,3,3,3,0001-00-0000-10.png,0002-00-0000-56.png
00000014,266,1,1447431076182,1447431076710,876,475,0,0,0,2,1,1,3,0003-00-0000-04.png,0005-00-0001-02.png
00000014,267,0,1447431077863,1447431078421,900,410,0,0,0,3,4,1,7,0002-00-0000-77.png,0004-00-0000-77.png
00000014,268,0,1447431081479,1447431082011,925,412,0,0,0,2,4,2,6,0003-00-0000-90.png,0004-00-0001-67.png
00000014,269,0,1447431085241,1447431085694,404,559,0,0,0,3,2,1,5,0002-00-0000-29.png,0003-00-0001-49.png
00000014,270,1,1447431088669,1447431089141,951,423,0,0,0,4,3,1,7,0004-00-0000-46.png,0002-00-0001-53.png
00000014,271,0,1447431090180,1447431090645,889,449,0,0,0,0,4,4,4,0001-00-0000-26.png,0004-00-0001-08.png
00000014,272,1,1447431093678,1447431094364,379,371,0,0,0,1,4,3,5,0005-00-0000-23.png,0004-00-0000-18.png
00000014,273,1,1447431095385,1447431096332,344,375,0,0,0,1,2,1,3,0005-00-0001-10.png,0003-00-0001-03.png
00000014,274,1,1447431097365,1447431097788,405,473,0,0,0,0,1,1,1,0001-00-0000-80.png,0005-00-0000-35.png
00000014,275,1,1447431098917,1447431099480,900,449,0,0,0,4,0,4,4,0004-00-0000-73.png,0001-00-0001-21.png
00000014,276,0,1447431100612,1447431101167,382,402,0,0,0,4,1,3,5,0004-00-0000-49.png,0005-00-0000-69.png
00000014,277,1,1447431104323,1447431104867,862,410,0,0,0,3,0,3,3,0002-00-0001-29.png,0001-00-0000-79.png
00000014,278,0,1447431105913,1447431106813,339,397,0,0,0,4,2,2,6,0004-00-0000-85.png,0003-00-0000-51.png
00000014,279,0,1447431109867,1447431110369,408,391,0,0,0,3,1,2,4,0002-00-0001-74.png,0005-00-0000-76.png
00000014,280,0,1447431113470,1447431113903,332,418,0,0,0,1,0,1,1,0005-00-0001-37.png,0001-00-0001-51.png
00000014,281,1,1447431117045,1447431117483,896,488,0,0,0,2,0,2,2,0003-00-0001-34.png,0001-00-0001-94.png
00000014,282,1,1447431118475,1447431118892,376,462,0,0,0,1,2,1,3,0005-00-0001-85.png,0003-00-0001-21.png
00000014,283,0,1447431119897,1447431120300,444,480,0,0,0,4,2,2,6,0004-00-0000-64.png,0003-00-0000-00.png
00000014,284,0,1447431123207,1447431123695,896,497,0,0,0,2,3,1,5,0003-00-0000-38.png,0002-00-0001-34.png
00000014,285,0,1447431126656,1447431127161,875,540,0,0,0,0,4,4,4,0001-00-0001-93.png,0004-00-0001-43.png
00000014,286,1,1447431130711,1447431131165,921,472,0,0,0,3,1,2,4,0002-00-0000-47.png,0005-00-0000-88.png
00000014,287,1,1447431132197,1447431132800,862,410,0,0,0,3,2,1,5,0002-00-0000-94.png,0003-00-0000-98.png
00000014,288,1,1447431133916,1447431134376,325,450,0,0,0,0,2,2,2,0001-00-0000-62.png,0003-00-0000-41.png
00000014,289,1,1447431135548,1447431136083,921,446,0,0,0,1,0,1,1,0005-00-0001-20.png,0001-00-0001-30.png
00000014,290,1,1447431137146,1447431137543,392,460,0,0,0,1,3,2,4,0005-00-0001-07.png,0002-00-0000-17.png
00000014,291,1,1447431138633,1447431139037,409,472,0,0,0,0,3,3,3,0001-00-0001-85.png,0002-00-0000-82.png
00000014,292,0,1447431140131,1447431140780,875,423,0,0,0,0,1,1,1,0001-00-0001-07.png,0005-00-0000-19.png
00000014,293,0,1447431143728,1447431144213,891,485,0,0,0,2,4,2,6,0003-00-0000-97.png,0004-00-0000-69.png
00000014,294,1,1447431147656,1447431148128,925,422,0,0,0,4,3,1,7,0004-00-0000-91.png,0002-00-0000-76.png
00000014,295,0,1447431149148,1447431149762,879,454,0,0,0,3,4,1,7,0002-00-0001-65.png,0004-00-0000-54.png
00000014,296,1,1447431153388,1447431153914,939,423,0,0,0,4,1,3,5,0004-00-0001-92.png,0005-00-0000-64.png
00000014,297,1,1447431154934,1447431155893,466,395,0,0,0,1,4,3,5,0005-00-0001-58.png,0004-00-0001-60.png
00000014,298,1,1447431156933,1447431157472,902,469,0,0,0,4,0,4,4,0004-00-0001-04.png,0001-00-0001-42.png
00000014,299,1,1447431158558,1447431159127,918,462,0,0,0,2,1,1,3,0003-00-0000-68.png,0005-00-0001-96.png
00000014,300,1,1447431160138,1447431161102,923,432,0,0,0,3,0,3,3,0002-00-0001-64.png,0001-00-0001-72.png
00000014,301,1,1447431162127,1447431162704,899,448,0,0,0,4,0,4,4,0004-00-0001-13.png,0001-00-0001-93.png
00000014,302,0,1447431163696,1447431164236,901,461,0,0,0,3,4,1,7,0002-00-0000-03.png,0004-00-0000-52.png
00000014,303,1,1447431167423,1447431167872,317,428,0,0,0,0,1,1,1,0001-00-0000-78.png,0005-00-0000-16.png
00000014,304,1,1447431168903,1447431169519,881,448,0,0,0,4,1,3,5,0004-00-0001-88.png,0005-00-0001-71.png
00000014,305,1,1447431170555,1447431171475,391,498,0,0,0,2,4,2,6,0003-00-0000-93.png,0004-00-0001-03.png
00000014,306,1,1447431172970,1447431173496,897,459,0,0,0,3,1,2,4,0002-00-0001-01.png,0005-00-0001-28.png
00000014,307,1,1447431174489,1447431175208,897,432,0,0,0,4,2,2,6,0004-00-0001-51.png,0003-00-0001-77.png
00000014,308,1,1447431176251,1447431176651,405,468,0,0,0,1,2,1,3,0005-00-0000-13.png,0003-00-0000-16.png
00000014,309,1,1447431177741,1447431178136,432,488,0,0,0,1,4,3,5,0005-00-0000-03.png,0004-00-0001-77.png
00000014,310,1,1447431179212,1447431179685,899,448,0,0,0,2,0,2,2,0003-00-0000-16.png,0001-00-0001-86.png
00000014,311,1,1447431180771,1447431181318,410,424,0,0,0,1,3,2,4,0005-00-0001-11.png,0002-00-0001-18.png
00000014,312,0,1447431182512,1447431182925,396,473,0,0,0,3,2,1,5,0002-00-0001-14.png,0003-00-0001-40.png
00000014,313,1,1447431186888,1447431187384,874,515,0,0,0,4,3,1,7,0004-00-0000-37.png,0002-00-0001-23.png
00000014,314,1,1447431188435,1447431188958,886,467,0,0,0,2,1,1,3,0003-00-0001-51.png,0005-00-0001-68.png
00000014,315,1,1447431190018,1447431190414,362,475,0,0,0,0,3,3,3,0001-00-0000-79.png,0002-00-0001-67.png
00000014,316,0,1447431191657,1447431192078,415,501,0,0,0,3,0,3,3,0002-00-0001-95.png,0001-00-0001-97.png
00000014,317,1,1447431195381,1447431195759,367,481,0,0,0,0,2,2,2,0001-00-0000-45.png,0003-00-0001-52.png
00000014,318,0,1447431196796,1447431197287,373,468,0,0,0,1,0,1,1,0005-00-0000-44.png,0001-00-0001-08.png
00000014,319,0,1447431200156,1447431200712,888,472,0,0,0,2,3,1,5,0003-00-0001-13.png,0002-00-0001-05.png
00000014,320,1,1447431203604,1447431204316,429,329,0,0,0,0,4,4,4,0001-00-0000-07.png,0004-00-0000-96.png
00000014,321,1,1447431205399,1447431205779,383,472,0,0,0,1,4,3,5,0005-00-0001-97.png,0004-00-0001-91.png
00000014,322,1,1447431206823,1447431207575,887,449,0,0,0,4,1,3,5,0004-00-0000-67.png,0005-00-0001-06.png
00000014,323,0,1447431208653,1447431209177,878,467,0,0,0,2,3,1,5,0003-00-0000-32.png,0002-00-0001-28.png
00000014,324,1,1447431212301,1447431212726,393,402,0,0,0,0,1,1,1,0001-00-0001-16.png,0005-00-0000-07.png
00000014,325,0,1447431213730,1447431214299,921,445,0,0,0,0,3,3,3,0001-00-0001-56.png,0002-00-0000-42.png
00000014,326,1,1447431217391,1447431217824,337,396,0,0,0,0,2,2,2,0001-00-0001-54.png,0003-00-0000-45.png
00000014,327,1,1447431218999,1447431219521,914,423,0,0,0,4,3,1,7,0004-00-0000-23.png,0002-00-0000-18.png
00000014,328,0,1447431220597,1447431221152,435,446,0,0,0,2,0,2,2,0003-00-0001-62.png,0001-00-0000-53.png
00000014,329,1,1447431224149,1447431224611,890,520,0,0,0,4,0,4,4,0004-00-0000-13.png,0001-00-0001-32.png
00000014,330,0,1447431225638,1447431226022,385,473,0,0,0,4,2,2,6,0004-00-0000-83.png,0003-00-0001-73.png
00000014,331,1,1447431228922,1447431229339,370,397,0,0,0,1,2,1,3,0005-00-0001-98.png,0003-00-0001-24.png
00000014,332,1,1447431230400,1447431230794,406,460,0,0,0,3,4,1,7,0002-00-0001-06.png,0004-00-0001-86.png
00000014,333,1,1447431231940,1447431232536,891,463,0,0,0,2,1,1,3,0003-00-0001-31.png,0005-00-0001-71.png
00000014,334,1,1447431233612,1447431234120,874,475,0,0,0,3,1,2,4,0002-00-0001-68.png,0005-00-0000-36.png
00000014,335,0,1447431235201,1447431235714,889,449,0,0,0,2,4,2,6,0003-00-0000-68.png,0004-00-0000-80.png
00000014,336,0,1447431238779,1447431239475,374,368,0,0,0,1,0,1,1,0005-00-0000-20.png,0001-00-0001-95.png
00000014,337,1,1447431242526,1447431242999,908,503,0,0,0,3,0,3,3,0002-00-0001-72.png,0001-00-0001-94.png
00000014,338,0,1447431243973,1447431244448,469,506,0,0,0,3,2,1,5,0002-00-0000-55.png,0003-00-0001-81.png
00000014,339,0,1447431247557,1447431248031,874,384,0,0,0,1,3,2,4,0005-00-0001-98.png,0002-00-0001-37.png
00000014,340,1,1447431251462,1447431251937,389,436,0,0,0,0,4,4,4,0001-00-0001-70.png,0004-00-0000-82.png
00000014,341,0,1447431252912,1447431253598,885,521,0,0,0,1,2,1,3,0005-00-0000-97.png,0003-00-0001-05.png
00000014,342,1,1447431256809,1447431257305,924,483,0,0,0,1,0,1,1,0005-00-0001-48.png,0001-00-0000-21.png
00000014,343,1,1447431258329,1447431258824,913,475,0,0,0,2,1,1,3,0003-00-0000-25.png,0005-00-0000-95.png
00000014,344,0,1447431259830,1447431260263,467,513,0,0,0,2,0,2,2,0003-00-0001-17.png,0001-00-0000-47.png
00000014,345,0,1447431263673,1447431264146,877,520,0,0,0,1,3,2,4,0005-00-0001-27.png,0002-00-0000-28.png
00000014,346,0,1447431267505,1447431267936,401,540,0,0,0,3,0,3,3,0002-00-0001-86.png,0001-00-0000-64.png
00000014,347,1,1447431270942,1447431271465,898,503,0,0,0,4,3,1,7,0004-00-0001-25.png,0002-00-0000-13.png
00000014,348,0,1447431272502,1447431273351,924,458,0,0,0,3,4,1,7,0002-00-0001-06.png,0004-00-0000-95.png
00000014,349,0,1447431276399,1447431276840,950,431,0,0,0,2,3,1,5,0003-00-0001-00.png,0002-00-0000-69.png
00000014,350,0,1447431279849,1447431280320,925,461,0,0,0,1,4,3,5,0005-00-0000-08.png,0004-00-0000-49.png
00000014,351,0,1447431283224,1447431283676,906,498,0,0,0,0,1,1,1,0001-00-0001-88.png,0005-00-0000-22.png
00000014,352,0,1447431286551,1447431286993,401,384,0,0,0,3,2,1,5,0002-00-0001-16.png,0003-00-0000-26.png
00000014,353,0,1447431290120,1447431290597,895,446,0,0,0,0,3,3,3,0001-00-0000-96.png,0002-00-0001-98.png
00000014,354,1,1447431293648,1447431294175,359,366,0,0,0,0,2,2,2,0001-00-0001-17.png,0003-00-0001-39.png
00000014,355,1,1447431295180,1447431295679,900,450,0,0,0,4,0,4,4,0004-00-0000-90.png,0001-00-0001-72.png
00000014,356,1,1447431296751,1447431297287,874,515,0,0,0,3,1,2,4,0002-00-0000-48.png,0005-00-0001-45.png
00000014,357,1,1447431298362,1447431298770,350,460,0,0,0,0,4,4,4,0001-00-0000-31.png,0004-00-0000-70.png
00000014,358,0,1447431299884,1447431300389,909,448,0,0,0,2,4,2,6,0003-00-0001-01.png,0004-00-0001-81.png
00000014,359,0,1447431303230,1447431303632,371,384,0,0,0,4,2,2,6,0004-00-0001-07.png,0003-00-0001-39.png
00000014,360,0,1447431306500,1447431306923,394,417,0,0,0,4,1,3,5,0004-00-0000-06.png,0005-00-0001-82.png
00000014,361,0,1447431310335,1447431310994,387,347,0,0,0,2,0,2,2,0003-00-0001-67.png,0001-00-0001-95.png
00000014,362,1,1447431313958,1447431314406,929,415,0,0,0,1,0,1,1,0005-00-0001-91.png,0001-00-0001-35.png
00000014,363,1,1447431315454,1447431315994,917,474,0,0,0,4,0,4,4,0004-00-0000-42.png,0001-00-0000-53.png
00000014,364,1,1447431317089,1447431317459,376,456,0,0,0,0,4,4,4,0001-00-0001-35.png,0004-00-0000-91.png
00000014,365,0,1447431318531,1447431319214,369,407,0,0,0,4,2,2,6,0004-00-0001-02.png,0003-00-0001-00.png
00000014,366,0,1447431322087,1447431322601,900,423,0,0,0,1,3,2,4,0005-00-0000-71.png,0002-00-0000-39.png
00000014,367,1,1447431325485,1447431325988,354,420,0,0,0,0,1,1,1,0001-00-0001-76.png,0005-00-0000-79.png
00000014,368,1,1447431327035,1447431327541,919,446,0,0,0,3,0,3,3,0002-00-0000-93.png,0001-00-0000-56.png
00000014,369,0,1447431328549,1447431329170,889,449,0,0,0,1,4,3,5,0005-00-0001-97.png,0004-00-0001-00.png
00000014,370,0,1447431332126,1447431333102,950,387,0,0,0,2,4,2,6,0003-00-0001-84.png,0004-00-0000-78.png
00000014,371,0,1447431335942,1447431336492,874,489,0,0,0,0,2,2,2,0001-00-0001-15.png,0003-00-0000-16.png
00000014,372,0,1447431339421,1447431339920,453,410,0,0,0,3,2,1,5,0002-00-0001-55.png,0003-00-0000-53.png
00000014,373,1,1447431343039,1447431343654,427,399,0,0,0,1,2,1,3,0005-00-0001-43.png,0003-00-0000-25.png
00000014,374,1,1447431344847,1447431345417,872,535,0,0,0,3,1,2,4,0002-00-0001-19.png,0005-00-0001-53.png
00000014,375,0,1447431346478,1447431347113,929,449,0,0,0,2,3,1,5,0003-00-0000-22.png,0002-00-0001-13.png
00000014,376,0,1447431350518,1447431350966,897,535,0,0,0,0,3,3,3,0001-00-0001-54.png,0002-00-0001-87.png
00000014,377,1,1447431353922,1447431354402,900,476,0,0,0,4,3,1,7,0004-00-0000-40.png,0002-00-0001-79.png
00000014,378,0,1447431355443,1447431356071,888,436,0,0,0,3,4,1,7,0002-00-0001-52.png,0004-00-0000-71.png
00000014,379,1,1447431358990,1447431359466,912,478,0,0,0,2,1,1,3,0003-00-0001-42.png,0005-00-0001-30.png
00000014,380,1,1447431360471,1447431361081,916,438,0,0,0,4,1,3,5,0004-00-0001-89.png,0005-00-0000-32.png
00000014,381,0,1447431362112,1447431362587,446,497,0,0,0,4,2,2,6,0004-00-0000-58.png,0003-00-0001-23.png
00000014,382,1,1447431365779,1447431366254,951,449,0,0,0,3,1,2,4,0002-00-0001-13.png,0005-00-0000-71.png
00000014,383,0,1447431367272,1447431367819,874,437,0,0,0,2,4,2,6,0003-00-0001-53.png,0004-00-0000-51.png
00000014,384,1,1447431370879,1447431371351,938,423,0,0,0,2,0,2,2,0003-00-0000-43.png,0001-00-0001-57.png
00000014,385,0,1447431372368,1447431372944,382,383,0,0,0,3,2,1,5,0002-00-0000-67.png,0003-00-0000-09.png
00000014,386,1,1447431376085,1447431376533,870,443,0,0,0,2,1,1,3,0003-00-0001-82.png,0005-00-0000-69.png
00000014,387,1,1447431377547,1447431378041,900,464,0,0,0,3,0,3,3,0002-00-0001-29.png,0001-00-0000-38.png
00000014,388,0,1447431379168,1447431380087,401,410,0,0,0,4,0,4,4,0004-00-0000-65.png,0001-00-0000-37.png
00000014,389,1,1447431383202,1447431383599,336,423,0,0,0,0,4,4,4,0001-00-0000-38.png,0004-00-0001-65.png
00000014,390,1,1447431384913,1447431385373,381,475,0,0,0,0,1,1,1,0001-00-0001-92.png,0005-00-0000-37.png
00000014,391,0,1447431386573,1447431387164,896,445,0,0,0,1,2,1,3,0005-00-0001-54.png,0003-00-0000-94.png
00000014,392,0,1447431390270,1447431390742,927,478,0,0,0,0,3,3,3,0001-00-0001-10.png,0002-00-0001-74.png
00000014,393,0,1447431394376,1447431394907,923,464,0,0,0,1,3,2,4,0005-00-0000-09.png,0002-00-0001-33.png
00000014,394,1,1447431398956,1447431399387,384,451,0,0,0,0,2,2,2,0001-00-0000-64.png,0003-00-0000-92.png
00000014,395,0,1447431400436,1447431401079,374,368,0,0,0,4,1,3,5,0004-00-0001-44.png,0005-00-0000-21.png
00000014,396,1,1447431408035,1447431408462,925,397,0,0,0,4,3,1,7,0004-00-0000-92.png,0002-00-0000-48.png
00000014,397,1,1447431409500,1447431409909,384,471,0,0,0,1,4,3,5,0005-00-0001-89.png,0004-00-0000-66.png
00000014,398,0,1447431411020,1447431411541,895,462,0,0,0,2,3,1,5,0003-00-0001-37.png,0002-00-0001-89.png
00000014,399,1,1447431414597,1447431414999,915,448,0,0,0,1,0,1,1,0005-00-0000-34.png,0001-00-0001-43.png
00000014,400,0,1447431415988,1447431416960,924,455,0,0,0,3,4,1,7,0002-00-0000-93.png,0004-00-0001-29.png
00000014,401,0,1447431421235,1447431421691,951,424,0,0,0,2,3,1,5,0003-00-0000-96.png,0002-00-0000-61.png
00000014,402,0,1447431427247,1447431427939,422,367,0,0,0,3,2,1,5,0002-00-0000-06.png,0003-00-0000-64.png
00000014,403,1,1447431430954,1447431431371,414,463,0,0,0,0,2,2,2,0001-00-0000-19.png,0003-00-0000-67.png
00000014,404,1,1447431432605,1447431433267,900,397,0,0,0,1,0,1,1,0005-00-0000-07.png,0001-00-0000-44.png
00000014,405,0,1447431434454,1447431434848,413,475,0,0,0,4,2,2,6,0004-00-0001-96.png,0003-00-0000-94.png
00000014,406,1,1447431438051,1447431438575,951,448,0,0,0,3,1,2,4,0002-00-0000-93.png,0005-00-0000-08.png
00000014,407,1,1447431439759,1447431440288,904,491,0,0,0,2,1,1,3,0003-00-0000-73.png,0005-00-0000-75.png
00000014,408,0,1447431441420,1447431442070,885,553,0,0,0,1,3,2,4,0005-00-0001-95.png,0002-00-0001-26.png
00000014,409,1,1447431445119,1447431445579,926,410,0,0,0,2,0,2,2,0003-00-0000-34.png,0001-00-0001-90.png
00000014,410,0,1447431446650,1447431447123,901,476,0,0,0,2,4,2,6,0003-00-0000-45.png,0004-00-0001-43.png
00000014,411,1,1447431450067,1447431450533,366,442,0,0,0,1,4,3,5,0005-00-0000-64.png,0004-00-0001-26.png
00000014,412,1,1447431451758,1447431452243,376,450,0,0,0,1,2,1,3,0005-00-0000-89.png,0003-00-0001-28.png
00000014,413,1,1447431453390,1447431453880,357,430,0,0,0,0,3,3,3,0001-00-0001-79.png,0002-00-0000-55.png
00000014,414,0,1447431455087,1447431455901,399,398,0,0,0,4,3,1,7,0004-00-0001-63.png,0002-00-0001-48.png
00000014,415,0,1447431458995,1447431459495,398,458,0,0,0,4,1,3,5,0004-00-0001-66.png,0005-00-0001-67.png
00000014,416,1,1447431462440,1447431462921,925,449,0,0,0,3,0,3,3,0002-00-0001-54.png,0001-00-0001-26.png
00000014,417,0,1447431463960,1447431464426,900,476,0,0,0,3,4,1,7,0002-00-0001-21.png,0004-00-0000-63.png
00000014,418,1,1447431469321,1447431469710,374,441,0,0,0,0,4,4,4,0001-00-0001-00.png,0004-00-0000-11.png
00000014,419,1,1447431470687,1447431471175,897,471,0,0,0,4,0,4,4,0004-00-0000-48.png,0001-00-0001-27.png
00000014,420,1,1447431472340,1447431472762,352,447,0,0,0,0,1,1,1,0001-00-0001-36.png,0005-00-0001-23.png
00000014,421,1,1447431473971,1447431474588,370,399,0,0,0,0,3,3,3,0001-00-0000-27.png,0002-00-0000-86.png
00000014,422,0,1447431475749,1447431476293,371,453,0,0,0,4,2,2,6,0004-00-0000-17.png,0003-00-0000-28.png
00000014,423,0,1447431479509,1447431480137,875,527,0,0,0,2,3,1,5,0003-00-0001-23.png,0002-00-0000-90.png
00000014,424,1,1447431483343,1447431483786,872,537,0,0,0,2,0,2,2,0003-00-0000-83.png,0001-00-0001-60.png
00000014,425,0,1447431484885,1447431485282,381,472,0,0,0,3,1,2,4,0002-00-0001-33.png,0005-00-0001-38.png
00000014,426,1,1447431489896,1447431490434,378,385,0,0,0,1,4,3,5,0005-00-0001-58.png,0004-00-0000-02.png
00000014,427,1,1447431491697,1447431492102,399,472,0,0,0,3,4,1,7,0002-00-0000-58.png,0004-00-0000-29.png
00000014,428,1,1447431493342,1447431493947,368,434,0,0,0,1,2,1,3,0005-00-0000-04.png,0003-00-0001-03.png
00000014,429,0,1447431495121,1447431496322,299,371,0,0,0,4,0,4,4,0004-00-0000-00.png,0001-00-0001-15.png
00000014,430,1,1447431499575,1447431500021,941,443,0,0,0,1,0,1,1,0005-00-0001-69.png,0001-00-0000-06.png
00000014,431,1,1447431501109,1447431501704,901,468,0,0,0,3,2,1,5,0002-00-0001-69.png,0003-00-0000-47.png
00000014,432,1,1447431502812,1447431503198,407,463,0,0,0,0,1,1,1,0001-00-0001-79.png,0005-00-0000-75.png
00000014,433,1,1447431504346,1447431505417,907,471,0,0,0,2,1,1,3,0003-00-0000-03.png,0005-00-0001-99.png
00000014,434,0,1447431506485,1447431507054,871,472,0,0,0,2,4,2,6,0003-00-0000-25.png,0004-00-0000-76.png
00000014,435,1,1447431510013,1447431510407,379,424,0,0,0,0,2,2,2,0001-00-0001-66.png,0003-00-0001-48.png
00000014,436,1,1447431511673,1447431512177,893,470,0,0,0,3,0,3,3,0002-00-0000-66.png,0001-00-0000-72.png
00000014,437,1,1447431513261,1447431513673,419,506,0,0,0,0,4,4,4,0001-00-0001-11.png,0004-00-0000-41.png
00000014,438,0,1447431514861,1447431515362,874,489,0,0,0,1,3,2,4,0005-00-0000-65.png,0002-00-0000-13.png
00000014,439,1,1447431519164,1447431519584,926,462,0,0,0,4,1,3,5,0004-00-0001-31.png,0005-00-0001-88.png
00000014,440,1,1447431520756,1447431521410,930,456,0,0,0,4,3,1,7,0004-00-0000-10.png,0002-00-0001-22.png
00000014,441,1,1447431522504,1447431523039,896,472,0,0,0,1,0,1,1,0005-00-0000-93.png,0001-00-0000-13.png
00000014,442,0,1447431524144,1447431524636,429,477,0,0,0,2,0,2,2,0003-00-0000-50.png,0001-00-0001-01.png
00000014,443,1,1447431527802,1447431528305,379,387,0,0,0,0,3,3,3,0001-00-0000-07.png,0002-00-0001-25.png
00000014,444,1,1447431529532,1447431530041,375,445,0,0,0,1,2,1,3,0005-00-0001-45.png,0003-00-0000-03.png
00000014,445,1,1447431531281,1447431531842,876,466,0,0,0,2,1,1,3,0003-00-0001-68.png,0005-00-0000-86.png
00000014,446,0,1447431533309,1447431533719,374,472,0,0,0,4,2,2,6,0004-00-0000-07.png,0003-00-0000-69.png
00000014,447,1,1447431536744,1447431537193,870,393,0,0,0,4,0,4,4,0004-00-0000-68.png,0001-00-0001-94.png
00000014,448,1,1447431538459,1447431538903,361,449,0,0,0,3,4,1,7,0002-00-0000-07.png,0004-00-0000-26.png
00000014,449,1,1447431540007,1447431540433,444,506,0,0,0,0,1,1,1,0001-00-0000-94.png,0005-00-0000-50.png
00000014,450,1,1447431541529,1447431542097,871,497,0,0,0,4,1,3,5,0004-00-0000-91.png,0005-00-0000-38.png
00000014,451,1,1447431543210,1447431543655,360,470,0,0,0,0,4,4,4,0001-00-0000-41.png,0004-00-0001-64.png
00000014,452,1,1447431545076,1447431545997,401,414,0,0,0,1,3,2,4,0005-00-0001-16.png,0002-00-0001-45.png
00000014,453,0,1447431547095,1447431547621,389,526,0,0,0,3,1,2,4,0002-00-0000-56.png,0005-00-0001-03.png
00000014,454,1,1447431550674,1447431551157,319,425,0,0,0,0,2,2,2,0001-00-0001-96.png,0003-00-0001-13.png
00000014,455,1,1447431552324,1447431553002,922,458,0,0,0,4,3,1,7,0004-00-0000-38.png,0002-00-0001-08.png
00000014,456,0,1447431554016,1447431554505,410,470,0,0,0,3,2,1,5,0002-00-0000-26.png,0003-00-0000-81.png
00000014,457,1,1447431557650,1447431558215,924,458,0,0,0,3,0,3,3,0002-00-0001-98.png,0001-00-0000-98.png
00000014,458,0,1447431559350,1447431559872,874,475,0,0,0,1,4,3,5,0005-00-0000-29.png,0004-00-0000-80.png
00000014,459,0,1447431562759,1447431563226,898,456,0,0,0,2,4,2,6,0003-00-0001-53.png,0004-00-0001-99.png
00000014,460,0,1447431566436,1447431567025,923,439,0,0,0,2,3,1,5,0003-00-0000-65.png,0002-00-0000-07.png
00000014,461,1,1447431569994,1447431570468,938,440,0,0,0,4,0,4,4,0004-00-0001-57.png,0001-00-0000-14.png
00000014,462,1,1447431571535,1447431571979,900,449,0,0,0,3,0,3,3,0002-00-0000-20.png,0001-00-0001-94.png
00000014,463,1,1447431573035,1447431573457,345,451,0,0,0,3,4,1,7,0002-00-0000-99.png,0004-00-0000-34.png
00000014,464,0,1447431574686,1447431575172,861,476,0,0,0,2,3,1,5,0003-00-0000-75.png,0002-00-0000-27.png
00000014,465,1,1447431578411,1447431578899,899,553,0,0,0,2,1,1,3,0003-00-0000-78.png,0005-00-0001-17.png
00000014,466,1,1447431580172,1447431580551,382,487,0,0,0,0,4,4,4,0001-00-0000-74.png,0004-00-0001-65.png
00000014,467,1,1447431581940,1447431582906,918,425,0,0,0,1,0,1,1,0005-00-0000-05.png,0001-00-0000-42.png
00000014,468,1,1447431583972,1447431584362,337,474,0,0,0,1,4,3,5,0005-00-0001-37.png,0004-00-0001-83.png
00000014,469,1,1447431585498,1447431586213,401,410,0,0,0,1,2,1,3,0005-00-0000-10.png,0003-00-0000-60.png
00000014,470,0,1447431587411,1447431588005,875,508,0,0,0,2,4,2,6,0003-00-0001-48.png,0004-00-0000-13.png
00000014,471,0,1447431591085,1447431591558,350,399,0,0,0,4,2,2,6,0004-00-0000-45.png,0003-00-0001-89.png
00000014,472,1,1447431594743,1447431595208,925,449,0,0,0,2,0,2,2,0003-00-0000-49.png,0001-00-0000-89.png
00000014,473,1,1447431596335,1447431596760,416,481,0,0,0,0,3,3,3,0001-00-0001-55.png,0002-00-0001-67.png
00000014,474,0,1447431597983,1447431598447,372,471,0,0,0,3,2,1,5,0002-00-0001-81.png,0003-00-0000-87.png
00000014,475,1,1447431602039,1447431602530,397,465,0,0,0,0,2,2,2,0001-00-0001-58.png,0003-00-0001-35.png
00000014,476,0,1447431603569,1447431604102,896,497,0,0,0,1,3,2,4,0005-00-0000-38.png,0002-00-0001-92.png
00000014,477,0,1447431607127,1447431607550,373,451,0,0,0,4,1,3,5,0004-00-0000-07.png,0005-00-0000-20.png
00000014,478,0,1447431610397,1447431610839,867,535,0,0,0,0,1,1,1,0001-00-0000-23.png,0005-00-0000-27.png
00000014,479,0,1447431614342,1447431614743,401,476,0,0,0,3,1,2,4,0002-00-0000-78.png,0005-00-0001-74.png
00000014,480,1,1447431617829,1447431618335,913,484,0,0,0,4,3,1,7,0004-00-0001-36.png,0002-00-0001-59.png
00000014,481,1,1447431619406,1447431619938,899,458,0,0,0,2,1,1,3,0003-00-0000-10.png,0005-00-0000-29.png
00000014,482,1,1447431620990,1447431621573,920,463,0,0,0,4,3,1,7,0004-00-0000-78.png,0002-00-0000-70.png
00000014,483,1,1447431622651,1447431623037,401,488,0,0,0,0,1,1,1,0001-00-0001-97.png,0005-00-0001-50.png
00000014,484,1,1447431624103,1447431624604,863,462,0,0,0,3,1,2,4,0002-00-0001-58.png,0005-00-0000-37.png
00000014,485,1,1447431625683,1447431626053,404,502,0,0,0,0,4,4,4,0001-00-0000-17.png,0004-00-0000-76.png
00000014,486,1,1447431627170,1447431627635,374,481,0,0,0,1,3,2,4,0005-00-0001-36.png,0002-00-0001-43.png
00000014,487,1,1447431628783,1447431629207,395,469,0,0,0,0,2,2,2,0001-00-0000-82.png,0003-00-0001-11.png
00000014,488,0,1447431630356,1447431630756,369,466,0,0,0,4,2,2,6,0004-00-0001-59.png,0003-00-0000-36.png
00000014,489,0,1447431633692,1447431634232,864,434,0,0,0,3,4,1,7,0002-00-0000-64.png,0004-00-0001-52.png
00000014,490,0,1447431637100,1447431637684,381,414,0,0,0,4,1,3,5,0004-00-0000-02.png,0005-00-0000-43.png
00000014,491,1,1447431641078,1447431641600,948,436,0,0,0,3,0,3,3,0002-00-0001-65.png,0001-00-0001-18.png
00000014,492,0,1447431642748,1447431643332,899,475,0,0,0,0,3,3,3,0001-00-0001-62.png,0002-00-0001-72.png
00000014,493,1,1447431646508,1447431646918,888,410,0,0,0,4,0,4,4,0004-00-0001-36.png,0001-00-0001-27.png
00000014,494,1,1447431648026,1447431648566,925,471,0,0,0,2,0,2,2,0003-00-0001-09.png,0001-00-0000-55.png
00000014,495,0,1447431649632,1447431650198,898,485,0,0,0,1,4,3,5,0005-00-0001-04.png,0004-00-0001-10.png
00000014,496,0,1447431653241,1447431653741,912,452,0,0,0,2,4,2,6,0003-00-0000-88.png,0004-00-0000-60.png
00000014,497,1,1447431656794,1447431657257,898,431,0,0,0,3,2,1,5,0002-00-0000-09.png,0003-00-0001-18.png
00000014,498,0,1447431658454,1447431659035,907,447,0,0,0,1,2,1,3,0005-00-0000-13.png,0003-00-0001-53.png
00000014,499,1,1447431661880,1447431662432,934,474,0,0,0,1,0,1,1,0005-00-0001-83.png,0001-00-0000-77.png
00000014,500,0,1447431663421,1447431663943,898,459,0,0,0,2,3,1,5,0003-00-0000-58.png,0002-00-0001-05.png
00000014,501,1,1447431666959,1447431667415,927,442,0,0,0,3,1,2,4,0002-00-0001-58.png,0005-00-0000-13.png
00000014,502,1,1447431668451,1447431668905,899,475,0,0,0,4,0,4,4,0004-00-0000-01.png,0001-00-0000-71.png
00000014,503,1,1447431669980,1447431670471,917,490,0,0,0,3,0,3,3,0002-00-0001-06.png,0001-00-0000-51.png
00000014,504,1,1447431671601,1447431672007,392,481,0,0,0,0,3,3,3,0001-00-0000-58.png,0002-00-0001-15.png
00000014,505,1,1447431673303,1447431674486,311,398,0,0,0,2,3,1,5,0003-00-0001-54.png,0002-00-0000-75.png
00000014,506,1,1447431675599,1447431675991,399,491,0,0,0,3,4,1,7,0002-00-0001-08.png,0004-00-0000-70.png
00000014,507,1,1447431677146,1447431678012,381,427,0,0,0,0,1,1,1,0001-00-0000-96.png,0005-00-0001-91.png
00000014,508,0,1447431679126,1447431679651,873,482,0,0,0,1,4,3,5,0005-00-0000-76.png,0004-00-0000-67.png
00000014,509,0,1447431682944,1447431683372,898,486,0,0,0,1,2,1,3,0005-00-0000-05.png,0003-00-0000-73.png
00000014,510,1,1447431686260,1447431686856,880,401,0,0,0,2,0,2,2,0003-00-0001-48.png,0001-00-0001-88.png
00000014,511,1,1447431688042,1447431688597,875,489,0,0,0,2,1,1,3,0003-00-0001-16.png,0005-00-0000-83.png
00000014,512,1,1447431689662,1447431690084,361,477,0,0,0,0,2,2,2,0001-00-0001-65.png,0003-00-0000-28.png
00000014,513,1,1447431691647,1447431692105,876,488,0,0,0,4,3,1,7,0004-00-0000-28.png,0002-00-0001-66.png
00000014,514,0,1447431693168,1447431693607,382,504,0,0,0,1,0,1,1,0005-00-0001-16.png,0001-00-0000-07.png
00000014,515,1,1447431696529,1447431696937,402,540,0,0,0,0,4,4,4,0001-00-0001-63.png,0004-00-0001-83.png
00000014,516,1,1447431698011,1447431698648,380,406,0,0,0,1,3,2,4,0005-00-0000-07.png,0002-00-0001-01.png
00000014,517,0,1447431699727,1447431700554,338,391,0,0,0,4,1,3,5,0004-00-0001-90.png,0005-00-0000-17.png
00000014,518,0,1447431703383,1447431703870,367,434,0,0,0,4,2,2,6,0004-00-0001-57.png,0003-00-0000-35.png
00000014,519,0,1447431707015,1447431707470,933,473,0,0,0,2,4,2,6,0003-00-0000-85.png,0004-00-0001-88.png
00000014,520,0,1447431710420,1447431711046,413,410,0,0,0,3,2,1,5,0002-00-0001-31.png,0003-00-0000-23.png
00000014,521,0,1447431714110,1447431714594,901,434,0,0,0,1,2,1,3,0005-00-0000-87.png,0003-00-0000-42.png
00000014,522,1,1447431717649,1447431718081,409,428,0,0,0,0,1,1,1,0001-00-0001-34.png,0005-00-0001-61.png
00000014,523,0,1447431719230,1447431719642,401,483,0,0,0,4,3,1,7,0004-00-0001-34.png,0002-00-0000-29.png
00000014,524,0,1447431722857,1447431723290,375,456,0,0,0,4,2,2,6,0004-00-0001-52.png,0003-00-0001-42.png
00000014,525,1,1447431726326,1447431726744,862,384,0,0,0,3,0,3,3,0002-00-0001-96.png,0001-00-0001-65.png
00000014,526,0,1447431727787,1447431728482,898,488,0,0,0,0,3,3,3,0001-00-0001-98.png,0002-00-0001-45.png
00000014,527,0,1447431732099,1447431732579,899,487,0,0,0,2,4,2,6,0003-00-0000-74.png,0004-00-0000-49.png
00000014,528,1,1447431736117,1447431736607,862,436,0,0,0,3,2,1,5,0002-00-0001-39.png,0003-00-0000-58.png
00000014,529,1,1447431737686,1447431738223,890,469,0,0,0,2,0,2,2,0003-00-0001-28.png,0001-00-0001-88.png
00000014,530,1,1447431739235,1447431739651,469,481,0,0,0,1,4,3,5,0005-00-0001-41.png,0004-00-0001-27.png
00000014,531,1,1447431740837,1447431741232,384,458,0,0,0,0,4,4,4,0001-00-0001-06.png,0004-00-0000-22.png
00000014,532,0,1447431742436,1447431743358,383,401,0,0,0,1,0,1,1,0005-00-0000-70.png,0001-00-0001-75.png
00000014,533,1,1447431756467,1447431756929,391,515,0,0,0,2,3,1,5,0003-00-0000-37.png,0002-00-0001-95.png
00000014,534,1,1447431758126,1447431758626,913,502,0,0,0,4,1,3,5,0004-00-0001-12.png,0005-00-0000-57.png
00000014,535,1,1447431759720,1447431760255,931,506,0,0,0,2,1,1,3,0003-00-0001-94.png,0005-00-0000-32.png
00000014,536,0,1447431761357,1447431761732,384,461,0,0,0,3,1,2,4,0002-00-0001-45.png,0005-00-0001-53.png
00000014,537,1,1447431764950,1447431765387,871,564,0,0,0,4,0,4,4,0004-00-0001-05.png,0001-00-0001-93.png
00000014,538,1,1447431766369,1447431766764,349,450,0,0,0,0,2,2,2,0001-00-0001-13.png,0003-00-0001-81.png
00000014,539,1,1447431767913,1447431768501,374,444,0,0,0,3,4,1,7,0002-00-0001-49.png,0004-00-0000-17.png
00000014,540,1,1447431769571,1447431769987,397,497,0,0,0,1,3,2,4,0005-00-0001-04.png,0002-00-0000-00.png
00000014,541,1,1447431771170,1447431771675,881,504,0,0,0,4,3,1,7,0004-00-0001-22.png,0002-00-0000-35.png
00000014,542,1,1447431772692,1447431773039,400,488,0,0,0,1,4,3,5,0005-00-0000-67.png,0004-00-0001-02.png
00000014,543,0,1447431774199,1447431775167,427,398,0,0,0,4,2,2,6,0004-00-0001-58.png,0003-00-0001-26.png
00000014,544,1,1447431778050,1447431778972,912,423,0,0,0,2,0,2,2,0003-00-0001-40.png,0001-00-0001-27.png
00000014,545,1,1447431780047,1447431780469,895,472,0,0,0,4,0,4,4,0004-00-0001-48.png,0001-00-0000-98.png
00000014,546,1,1447431781507,1447431782050,880,480,0,0,0,2,1,1,3,0003-00-0001-81.png,0005-00-0000-29.png
00000014,547,1,1447431783194,1447431783619,312,463,0,0,0,0,2,2,2,0001-00-0000-62.png,0003-00-0001-93.png
00000014,548,0,1447431784729,1447431785169,373,462,0,0,0,3,1,2,4,0002-00-0000-99.png,0005-00-0001-86.png
00000014,549,1,1447431788296,1447431788662,363,462,0,0,0,0,4,4,4,0001-00-0001-90.png,0004-00-0000-18.png
00000014,550,0,1447431789704,1447431790174,870,450,0,0,0,2,3,1,5,0003-00-0000-23.png,0002-00-0000-25.png
00000014,551,0,1447431793244,1447431793729,905,427,0,0,0,1,3,2,4,0005-00-0001-14.png,0002-00-0001-37.png
00000014,552,1,1447431796832,1447431797275,890,462,0,0,0,3,0,3,3,0002-00-0000-91.png,0001-00-0001-49.png
00000014,553,1,1447431798375,1447431798748,397,472,0,0,0,0,3,3,3,0001-00-0001-39.png,0002-00-0001-93.png
00000014,554,1,1447431799865,1447431800278,350,475,0,0,0,1,2,1,3,0005-00-0000-36.png,0003-00-0001-41.png
00000014,555,0,1447431801362,1447431801882,874,475,0,0,0,2,4,2,6,0003-00-0000-46.png,0004-00-0001-36.png
00000014,556,0,1447431805599,1447431806122,906,434,0,0,0,0,1,1,1,0001-00-0000-04.png,0005-00-0001-57.png
00000014,557,0,1447431809078,1447431809488,413,462,0,0,0,4,1,3,5,0004-00-0000-06.png,0005-00-0000-40.png
00000014,558,1,1447431812695,1447431813150,901,488,0,0,0,1,0,1,1,0005-00-0000-97.png,0001-00-0000-18.png
00000014,559,0,1447431814125,1447431814585,367,455,0,0,0,3,2,1,5,0002-00-0000-31.png,0003-00-0001-33.png
00000014,560,0,1447431818521,1447431818954,874,541,0,0,0,3,4,1,7,0002-00-0001-03.png,0004-00-0000-64.png
00000014,561,1,1447431823013,1447431823407,924,482,0,0,0,4,0,4,4,0004-00-0001-69.png,0001-00-0000-55.png
00000014,562,1,1447431824403,1447431824829,335,475,0,0,0,0,3,3,3,0001-00-0000-46.png,0002-00-0001-87.png
00000014,563,0,1447431825794,1447431826341,880,480,0,0,0,2,4,2,6,0003-00-0000-73.png,0004-00-0001-65.png
00000014,564,0,1447431829631,1447431830049,931,454,0,0,0,1,3,2,4,0005-00-0001-68.png,0002-00-0000-74.png
00000014,565,1,1447431833230,1447431833663,873,535,0,0,0,2,0,2,2,0003-00-0000-53.png,0001-00-0001-16.png
00000014,566,0,1447431834696,1447431835194,874,483,0,0,0,0,1,1,1,0001-00-0001-08.png,0005-00-0000-38.png
00000014,567,1,1447431838053,1447431838452,890,536,0,0,0,2,1,1,3,0003-00-0000-83.png,0005-00-0001-49.png
00000014,568,1,1447431839429,1447431839948,889,461,0,0,0,4,1,3,5,0004-00-0000-26.png,0005-00-0000-51.png
00000014,569,0,1447431840978,1447431841531,875,476,0,0,0,1,4,3,5,0005-00-0000-24.png,0004-00-0000-50.png
00000014,570,1,1447431844640,1447431845044,903,440,0,0,0,3,0,3,3,0002-00-0001-32.png,0001-00-0001-70.png
00000014,571,1,1447431845980,1447431846472,898,459,0,0,0,4,3,1,7,0004-00-0000-69.png,0002-00-0000-28.png
00000014,572,0,1447431847511,1447431848324,344,425,0,0,0,3,1,2,4,0002-00-0001-75.png,0005-00-0000-08.png
00000014,573,1,1447431855300,1447431855711,370,452,0,0,0,1,2,1,3,0005-00-0000-27.png,0003-00-0001-42.png
00000014,574,0,1447431856729,1447431857243,877,468,0,0,0,3,4,1,7,0002-00-0001-14.png,0004-00-0000-62.png
00000014,575,1,1447431860307,1447431860772,925,464,0,0,0,1,0,1,1,0005-00-0001-38.png,0001-00-0000-89.png
00000014,576,1,1447431861729,1447431862291,867,462,0,0,0,3,2,1,5,0002-00-0000-18.png,0003-00-0001-74.png
00000014,577,1,1447431863319,1447431863684,427,502,0,0,0,2,3,1,5,0003-00-0000-51.png,0002-00-0000-40.png
00000014,578,1,1447431864762,1447431865183,414,514,0,0,0,0,4,4,4,0001-00-0001-24.png,0004-00-0001-48.png
00000014,579,1,1447431866238,1447431866650,368,478,0,0,0,0,2,2,2,0001-00-0001-98.png,0003-00-0001-26.png
00000014,580,0,1447431867910,1447431868333,401,488,0,0,0,4,2,2,6,0004-00-0000-00.png,0003-00-0000-80.png
00000014,581,0,1447431872126,1447431872546,384,519,0,0,0,4,0,4,4,0004-00-0000-12.png,0001-00-0000-90.png
00000014,582,1,1447431875941,1447431876354,393,471,0,0,0,0,4,4,4,0001-00-0000-57.png,0004-00-0000-00.png
00000014,583,1,1447431877422,1447431877827,370,558,0,0,0,0,2,2,2,0001-00-0001-63.png,0003-00-0000-55.png
00000014,584,0,1447431878803,1447431879215,363,462,0,0,0,4,3,1,7,0004-00-0001-27.png,0002-00-0001-77.png
00000014,585,0,1447431905663,1447431906097,881,494,0,0,0,2,3,1,5,0003-00-0000-14.png,0002-00-0001-42.png
00000014,586,0,1447431911764,1447431912110,361,332,0,0,0,4,2,2,6,0004-00-0000-31.png,0003-00-0001-53.png
00000014,587,0,1447431915692,1447431916158,952,449,0,0,0,1,2,1,3,0005-00-0001-01.png,0003-00-0001-47.png
00000014,588,1,1447431919398,1447431919865,929,467,0,0,0,4,1,3,5,0004-00-0000-36.png,0005-00-0001-60.png
00000014,589,0,1447431920871,1447431921385,894,460,0,0,0,2,4,2,6,0003-00-0000-81.png,0004-00-0000-11.png
00000014,590,1,1447431924566,1447431924982,337,397,0,0,0,0,3,3,3,0001-00-0000-54.png,0002-00-0001-34.png
00000014,591,1,1447431925948,1447431926453,902,468,0,0,0,1,0,1,1,0005-00-0000-33.png,0001-00-0000-31.png
00000014,592,0,1447431927533,1447431928376,310,423,0,0,0,3,1,2,4,0002-00-0000-53.png,0005-00-0001-74.png
00000014,593,0,1447431938608,1447431938997,950,370,0,0,0,1,3,2,4,0005-00-0000-48.png,0002-00-0001-97.png
00000014,594,1,1447431946076,1447431946478,946,445,0,0,0,2,0,2,2,0003-00-0001-49.png,0001-00-0000-89.png
00000014,595,1,1447431947463,1447431947926,928,468,0,0,0,3,0,3,3,0002-00-0000-53.png,0001-00-0001-23.png
00000014,596,1,1447431948935,1447431949375,402,495,0,0,0,0,1,1,1,0001-00-0000-98.png,0005-00-0001-60.png
00000014,597,1,1447431950410,1447431950901,873,491,0,0,0,2,1,1,3,0003-00-0001-18.png,0005-00-0000-87.png
00000014,598,1,1447431951946,1447431952330,413,490,0,0,0,1,4,3,5,0005-00-0001-79.png,0004-00-0001-48.png
00000014,599,0,1447431953346,1447431953872,439,436,0,0,0,3,2,1,5,0002-00-0000-58.png,0003-00-0001-75.png
00000014,600,0,1447431958246,1447431958710,857,456,0,0,0,3,4,1,7,0002-00-0001-00.png,0004-00-0001-19.png
00000014,601,1,1447431962248,1447431962739,371,478,0,0,0,0,2,2,2,0001-00-0001-59.png,0003-00-0000-58.png
00000014,602,1,1447431963734,1447431964266,900,464,0,0,0,2,0,2,2,0003-00-0000-59.png,0001-00-0000-96.png
00000014,603,1,1447431965335,1447431965826,873,457,0,0,0,3,1,2,4,0002-00-0000-49.png,0005-00-0001-35.png
00000014,604,1,1447431966907,1447431967349,409,476,0,0,0,3,4,1,7,0002-00-0001-84.png,0004-00-0000-24.png
00000014,605,1,1447431968484,1447431968859,360,479,0,0,0,1,4,3,5,0005-00-0000-99.png,0004-00-0001-13.png
00000014,606,0,1447431969925,1447431970353,393,480,0,0,0,3,0,3,3,0002-00-0000-00.png,0001-00-0000-37.png
00000014,607,1,1447431975009,1447431975401,339,475,0,0,0,0,3,3,3,0001-00-0001-84.png,0002-00-0000-31.png
00000014,608,0,1447431976415,1447431977040,376,541,0,0,0,4,2,2,6,0004-00-0000-25.png,0003-00-0000-15.png
00000014,609,0,1447431981306,1447431981775,907,488,0,0,0,0,4,4,4,0001-00-0000-92.png,0004-00-0001-85.png
00000014,610,0,1447431985072,1447431985516,919,466,0,0,0,1,3,2,4,0005-00-0000-75.png,0002-00-0001-81.png
00000014,611,0,1447431988469,1447431988854,902,495,0,0,0,2,4,2,6,0003-00-0000-65.png,0004-00-0000-68.png
00000014,612,0,1447431992221,1447431992662,862,410,0,0,0,2,3,1,5,0003-00-0000-93.png,0002-00-0001-47.png
00000014,613,1,1447431996830,1447431997302,900,450,0,0,0,4,3,1,7,0004-00-0001-86.png,0002-00-0001-08.png
00000014,614,1,1447431998395,1447431998831,899,449,0,0,0,4,0,4,4,0004-00-0000-28.png,0001-00-0000-04.png
00000014,615,1,1447431999881,1447432000342,888,449,0,0,0,1,0,1,1,0005-00-0000-69.png,0001-00-0000-60.png
00000014,616,0,1447432001343,1447432001725,409,480,0,0,0,3,2,1,5,0002-00-0001-53.png,0003-00-0001-98.png
00000014,617,0,1447432006877,1447432007254,359,443,0,0,0,4,1,3,5,0004-00-0001-17.png,0005-00-0001-54.png
00000014,618,0,1447432011007,1447432011424,888,528,0,0,0,1,2,1,3,0005-00-0001-45.png,0003-00-0000-31.png
00000014,619,1,1447432014789,1447432015193,401,476,0,0,0,0,1,1,1,0001-00-0000-04.png,0005-00-0000-20.png
00000014,620,1,1447432016220,1447432016693,876,461,0,0,0,2,1,1,3,0003-00-0000-52.png,0005-00-0000-27.png
00000014,621,1,1447432017919,1447432018417,899,490,0,0,0,4,1,3,5,0004-00-0000-91.png,0005-00-0001-27.png
00000014,622,0,1447432019530,1447432019899,409,490,0,0,0,3,1,2,4,0002-00-0000-32.png,0005-00-0000-88.png
00000014,623,1,1447432023620,1447432024029,939,502,0,0,0,2,0,2,2,0003-00-0001-15.png,0001-00-0001-35.png
00000014,624,1,1447432025066,1447432025665,899,481,0,0,0,4,3,1,7,0004-00-0001-44.png,0002-00-0001-31.png
00000014,625,1,1447432026735,1447432027102,355,472,0,0,0,0,3,3,3,0001-00-0000-28.png,0002-00-0001-98.png
00000014,626,0,1447432028197,1447432028694,893,463,0,0,0,1,4,3,5,0005-00-0001-68.png,0004-00-0001-80.png
00000014,627,0,1447432032091,1447432032499,913,476,0,0,0,2,3,1,5,0003-00-0001-26.png,0002-00-0000-17.png
00000014,628,1,1447432036566,1447432036951,371,446,0,0,0,1,2,1,3,0005-00-0000-22.png,0003-00-0001-71.png
00000014,629,1,1447432038017,1447432038408,371,449,0,0,0,0,4,4,4,0001-00-0000-71.png,0004-00-0001-79.png
00000014,630,0,1447432039486,1447432039860,413,514,0,0,0,4,2,2,6,0004-00-0000-64.png,0003-00-0001-08.png
00000014,631,1,1447432044094,1447432044606,916,478,0,0,0,2,1,1,3,0003-00-0001-95.png,0005-00-0000-70.png
00000014,632,0,1447432045630,1447432046069,388,515,0,0,0,3,2,1,5,0002-00-0000-92.png,0003-00-0000-66.png
00000014,633,1,1447432050971,1447432051402,947,445,0,0,0,1,0,1,1,0005-00-0001-93.png,0001-00-0001-84.png
00000014,634,1,1447432052538,1447432053061,478,450,0,0,0,3,4,1,7,0002-00-0000-75.png,0004-00-0000-94.png
00000014,635,1,1447432054079,1447432054462,361,475,0,0,0,0,1,1,1,0001-00-0001-97.png,0005-00-0000-66.png
00000014,636,1,1447432055556,1447432056426,427,413,0,0,0,0,2,2,2,0001-00-0000-12.png,0003-00-0000-61.png
00000014,637,1,1447432057466,1447432057928,900,490,0,0,0,4,0,4,4,0004-00-0000-13.png,0001-00-0001-92.png
00000014,638,0,1447432058998,1447432059599,390,409,0,0,0,3,0,3,3,0002-00-0000-16.png,0001-00-0000-73.png
00000014,639,1,1447432063183,1447432063582,378,461,0,0,0,1,3,2,4,0005-00-0001-66.png,0002-00-0001-88.png
00000014,640,0,1447432064582,1447432065083,899,465,0,0,0,2,4,2,6,0003-00-0001-65.png,0004-00-0000-87.png
00000014,641,1,1447432077348,1447432077818,892,506,0,0,0,4,1,3,5,0004-00-0001-15.png,0005-00-0000-64.png
00000014,642,1,1447432078820,1447432079313,888,465,0,0,0,1,0,1,1,0005-00-0001-91.png,0001-00-0001-24.png
00000014,643,1,1447432080330,1447432081241,464,534,0,0,0,0,1,1,1,0001-00-0000-32.png,0005-00-0000-72.png
00000014,644,1,1447432082218,1447432082619,360,470,0,0,0,2,4,2,6,0003-00-0001-66.png,0004-00-0000-26.png
00000014,645,1,1447432083700,1447432084176,898,482,0,0,0,4,0,4,4,0004-00-0000-59.png,0001-00-0001-62.png
00000014,646,0,1447432085142,1447432085534,418,482,0,0,0,3,2,1,5,0002-00-0001-49.png,0003-00-0001-12.png
00000014,647,1,1447432096305,1447432096704,913,510,0,0,0,4,3,1,7,0004-00-0001-41.png,0002-00-0001-79.png
00000014,648,0,1447432097810,1447432098257,901,475,0,0,0,1,2,1,3,0005-00-0000-01.png,0003-00-0000-89.png
00000014,649,1,1447432101471,1447432101992,453,436,0,0,0,0,2,2,2,0001-00-0001-37.png,0003-00-0000-60.png
00000014,650,1,1447432102979,1447432103462,925,475,0,0,0,2,0,2,2,0003-00-0000-11.png,0001-00-0000-97.png
00000014,651,1,1447432104539,1447432104939,402,474,0,0,0,2,3,1,5,0003-00-0001-82.png,0002-00-0000-11.png
00000014,652,0,1447432105920,1447432106435,912,465,0,0,0,1,3,2,4,0005-00-0000-49.png,0002-00-0000-81.png
00000014,653,1,1447432111845,1447432112294,917,493,0,0,0,2,1,1,3,0003-00-0001-77.png,0005-00-0001-51.png
00000014,654,0,1447432113356,1447432113841,897,485,0,0,0,0,4,4,4,0001-00-0000-39.png,0004-00-0001-42.png
00000014,655,1,1447432117233,1447432117689,903,468,0,0,0,3,0,3,3,0002-00-0001-55.png,0001-00-0000-81.png
00000014,656,0,1447432118691,1447432119037,407,477,0,0,0,4,2,2,6,0004-00-0000-60.png,0003-00-0000-53.png
00000014,657,1,1447432123322,1447432123338,520,400,0,0,0,0,3,3,3,0001-00-0001-10.png,0002-00-0001-84.png
00000014,658,0,1447432124416,1447432124891,875,449,0,0,0,3,4,1,7,0002-00-0001-41.png,0004-00-0001-84.png
00000014,659,0,1447432127883,1447432128338,401,436,0,0,0,3,1,2,4,0002-00-0001-98.png,0005-00-0000-03.png
00000014,660,0,1447432132268,1447432132722,927,450,0,0,0,1,4,3,5,0005-00-0001-40.png,0004-00-0001-03.png
00000014,661,1,1447432135861,1447432136299,410,561,0,0,0,3,4,1,7,0002-00-0001-30.png,0004-00-0001-59.png
00000014,662,0,1447432137436,1447432137952,858,497,0,0,0,1,2,1,3,0005-00-0000-08.png,0003-00-0001-87.png
00000014,663,1,1447432141143,1447432141656,374,426,0,0,0,0,2,2,2,0001-00-0000-83.png,0003-00-0000-02.png
00000014,664,1,1447432142665,1447432143241,862,529,0,0,0,4,0,4,4,0004-00-0000-16.png,0001-00-0000-37.png
00000014,665,1,1447432144325,1447432144730,358,471,0,0,0,0,1,1,1,0001-00-0001-34.png,0005-00-0000-39.png
00000014,666,0,1447432145805,1447432146278,429,419,0,0,0,3,1,2,4,0002-00-0001-18.png,0005-00-0000-79.png
00000014,667,0,1447432149591,1447432150016,900,475,0,0,0,2,3,1,5,0003-00-0001-42.png,0002-00-0001-81.png
00000014,668,0,1447432153100,1447432153545,413,436,0,0,0,3,0,3,3,0002-00-0000-19.png,0001-00-0001-04.png
00000014,669,1,1447432156878,1447432157461,874,509,0,0,0,4,2,2,6,0004-00-0000-54.png,0003-00-0001-61.png
00000014,670,1,1447432158477,1447432158961,905,480,0,0,0,2,0,2,2,0003-00-0001-96.png,0001-00-0000-25.png
00000014,671,1,1447432159997,1447432167314,453,552,0,0,0,2,4,2,6,0003-00-0000-25.png,0004-00-0000-14.png
00000014,672,0,1447432168413,1447432169052,384,417,0,0,0,4,3,1,7,0004-00-0001-49.png,0002-00-0001-52.png
00000014,673,1,1447432173035,1447432173466,898,435,0,0,0,2,1,1,3,0003-00-0001-52.png,0005-00-0000-14.png
00000014,674,1,1447432174476,1447432174899,392,467,0,0,0,0,3,3,3,0001-00-0000-35.png,0002-00-0001-21.png
00000014,675,0,1447432175918,1447432176385,869,420,0,0,0,1,3,2,4,0005-00-0000-71.png,0002-00-0001-73.png
00000014,676,1,1447432185182,1447432185605,875,423,0,0,0,4,1,3,5,0004-00-0001-05.png,0005-00-0001-68.png
00000014,677,1,1447432186554,1447432187079,875,554,0,0,0,1,0,1,1,0005-00-0000-36.png,0001-00-0000-87.png
00000014,678,0,1447432188115,1447432188604,900,502,0,0,0,1,4,3,5,0005-00-0000-38.png,0004-00-0000-11.png
00000014,679,1,1447432192332,1447432192850,924,380,0,0,0,3,2,1,5,0002-00-0001-22.png,0003-00-0000-34.png
00000014,680,1,1447432193989,1447432194390,370,565,0,0,0,0,4,4,4,0001-00-0001-93.png,0004-00-0001-50.png
00000014,681,1,1447432195391,1447432195846,878,443,0,0,0,4,0,4,4,0004-00-0000-10.png,0001-00-0000-46.png
00000014,682,1,1447432196952,1447432197452,874,496,0,0,0,2,1,1,3,0003-00-0000-70.png,0005-00-0000-44.png
00000014,683,0,1447432198412,1447432198909,890,474,0,0,0,3,4,1,7,0002-00-0001-55.png,0004-00-0001-57.png
00000014,684,1,1447432202316,1447432202773,919,490,0,0,0,4,3,1,7,0004-00-0000-01.png,0002-00-0000-37.png
00000014,685,1,1447432203781,1447432204190,393,559,0,0,0,0,3,3,3,0001-00-0001-47.png,0002-00-0001-91.png
00000014,686,1,1447432205200,1447432205602,386,489,0,0,0,1,3,2,4,0005-00-0000-10.png,0002-00-0000-07.png
00000014,687,1,1447432206600,1447432207519,926,410,0,0,0,3,1,2,4,0002-00-0000-67.png,0005-00-0001-80.png
00000014,688,0,1447432208534,1447432209024,900,464,0,0,0,0,1,1,1,0001-00-0001-68.png,0005-00-0000-91.png
00000014,689,1,1447432212721,1447432213160,926,476,0,0,0,1,0,1,1,0005-00-0000-87.png,0001-00-0001-64.png
00000014,690,0,1447432214044,1447432214590,921,497,0,0,0,2,3,1,5,0003-00-0000-23.png,0002-00-0001-12.png
00000014,691,0,1447432218160,1447432218252,486,549,0,0,0,4,2,2,6,0004-00-0001-80.png,0003-00-0001-27.png
00000014,692,0,1447432223187,1447432223596,350,424,0,0,0,3,0,3,3,0002-00-0000-33.png,0001-00-0000-33.png
00000014,693,1,1447432226798,1447432227223,349,408,0,0,0,0,4,4,4,0001-00-0001-41.png,0004-00-0000-61.png
00000014,694,1,1447432228367,1447432228792,346,471,0,0,0,1,2,1,3,0005-00-0001-31.png,0003-00-0000-55.png
00000014,695,0,1447432229887,1447432230364,898,483,0,0,0,2,4,2,6,0003-00-0000-39.png,0004-00-0000-49.png
00000014,696,1,1447432233632,1447432234094,387,436,0,0,0,1,4,3,5,0005-00-0001-80.png,0004-00-0001-10.png
00000014,697,1,1447432235134,1447432235480,356,471,0,0,0,0,2,2,2,0001-00-0001-13.png,0003-00-0001-59.png
00000014,698,1,1447432236507,1447432237008,875,489,0,0,0,4,1,3,5,0004-00-0000-17.png,0005-00-0001-89.png
00000014,699,1,1447432237978,1447432238460,882,474,0,0,0,2,0,2,2,0003-00-0001-27.png,0001-00-0000-31.png
00000014,700,0,1447432239448,1447432239875,388,450,0,0,0,3,2,1,5,0002-00-0000-76.png,0003-00-0001-52.png
00000014,701,1,1447432243474,1447432243900,440,462,0,0,0,1,4,3,5,0005-00-0001-68.png,0004-00-0000-32.png
00000014,702,1,1447432244886,1447432245279,363,475,0,0,0,0,2,2,2,0001-00-0000-25.png,0003-00-0000-64.png
00000014,703,1,1447432246318,1447432246730,368,476,0,0,0,0,3,3,3,0001-00-0001-43.png,0002-00-0000-41.png
00000014,704,0,1447432248155,1447432248576,898,483,0,0,0,2,4,2,6,0003-00-0000-90.png,0004-00-0000-80.png
00000014,705,1,1447432251684,1447432252082,341,412,0,0,0,0,1,1,1,0001-00-0001-27.png,0005-00-0001-60.png
00000014,706,0,1447432253035,1447432253397,394,463,0,0,0,3,2,1,5,0002-00-0001-64.png,0003-00-0000-19.png
00000014,707,0,1447432256974,1447432257461,896,446,0,0,0,3,4,1,7,0002-00-0000-93.png,0004-00-0000-72.png
00000014,708,0,1447432260572,1447432261044,926,449,0,0,0,0,4,4,4,0001-00-0000-63.png,0004-00-0000-15.png
00000014,709,1,1447432266354,1447432266860,902,496,0,0,0,4,3,1,7,0004-00-0000-37.png,0002-00-0001-03.png
00000014,710,1,1447432267883,1447432268329,898,482,0,0,0,4,1,3,5,0004-00-0001-76.png,0005-00-0001-06.png
00000014,711,1,1447432269325,1447432269860,888,450,0,0,0,3,0,3,3,0002-00-0000-40.png,0001-00-0001-25.png
00000014,712,0,1447432270825,1447432271310,896,471,0,0,0,2,3,1,5,0003-00-0000-77.png,0002-00-0001-59.png
00000014,713,1,1447432282772,1447432283188,955,417,0,0,0,1,0,1,1,0005-00-0000-78.png,0001-00-0001-39.png
00000014,714,1,1447432284145,1447432284586,928,469,0,0,0,2,0,2,2,0003-00-0000-67.png,0001-00-0000-38.png
00000014,715,1,1447432285751,1447432286627,393,403,0,0,0,1,2,1,3,0005-00-0000-48.png,0003-00-0001-95.png
00000014,716,0,1447432287611,1447432287996,370,489,0,0,0,2,1,1,3,0003-00-0000-99.png,0005-00-0000-53.png
00000014,717,1,1447432291649,1447432292077,877,543,0,0,0,3,1,2,4,0002-00-0000-94.png,0005-00-0000-84.png
00000014,718,0,1447432293061,1447432293571,927,460,0,0,0,1,3,2,4,0005-00-0001-42.png,0002-00-0001-38.png
00000014,719,1,1447432297583,1447432297995,898,483,0,0,0,4,2,2,6,0004-00-0000-11.png,0003-00-0001-01.png
00000014,720,1,1447432298996,1447432299469,901,462,0,0,0,4,0,4,4,0004-00-0000-24.png,0001-00-0000-15.png
00000014,721,0,1447432300524,1447432300963,383,480,0,0,0,4,3,1,7,0004-00-0000-56.png,0002-00-0000-02.png
00000014,722,0,1447432303924,1447432304340,422,445,0,0,0,4,1,3,5,0004-00-0000-84.png,0005-00-0001-54.png
00000014,723,1,1447432313206,1447432313744,416,528,0,0,0,0,4,4,4,0001-00-0000-21.png,0004-00-0000-15.png
00000014,724,1,1447432314656,1447432315272,875,554,0,0,0,3,1,2,4,0002-00-0000-47.png,0005-00-0001-92.png
00000014,725,0,1447432316276,1447432316659,364,475,0,0,0,4,2,2,6,0004-00-0000-78.png,0003-00-0001-38.png
00000014,726,0,1447432319707,1447432320153,925,438,0,0,0,2,3,1,5,0003-00-0001-56.png,0002-00-0000-27.png
00000014,727,1,1447432323608,1447432324246,862,332,0,0,0,2,1,1,3,0003-00-0001-36.png,0005-00-0000-68.png
00000014,728,1,1447432325332,1447432325773,921,471,0,0,0,4,0,4,4,0004-00-0001-75.png,0001-00-0001-13.png
00000014,729,1,1447432326785,1447432327230,419,427,0,0,0,1,2,1,3,0005-00-0000-71.png,0003-00-0001-22.png
00000014,730,1,1447432328282,1447432328780,898,487,0,0,0,3,2,1,5,0002-00-0001-85.png,0003-00-0000-58.png
00000014,731,1,1447432329895,1447432330311,359,471,0,0,0,0,3,3,3,0001-00-0000-40.png,0002-00-0001-56.png
00000014,732,1,1447432331293,1447432331689,338,449,0,0,0,0,2,2,2,0001-00-0001-73.png,0003-00-0000-19.png
00000014,733,1,1447432332758,1447432333181,878,467,0,0,0,3,0,3,3,0002-00-0001-41.png,0001-00-0001-38.png
00000014,734,0,1447432334187,1447432334668,903,467,0,0,0,2,4,2,6,0003-00-0001-39.png,0004-00-0001-03.png
00000014,735,1,1447432337906,1447432338288,414,488,0,0,0,1,3,2,4,0005-00-0001-77.png,0002-00-0000-85.png
00000014,736,0,1447432339306,1447432339751,889,501,0,0,0,3,4,1,7,0002-00-0001-28.png,0004-00-0001-70.png
00000014,737,1,1447432342775,1447432343224,925,464,0,0,0,2,0,2,2,0003-00-0000-03.png,0001-00-0001-98.png
00000014,738,1,1447432344215,1447432344685,907,448,0,0,0,1,0,1,1,0005-00-0000-64.png,0001-00-0001-34.png
00000014,739,1,1447432345736,1447432346140,478,516,0,0,0,1,4,3,5,0005-00-0001-74.png,0004-00-0000-13.png
00000014,740,1,1447432347164,1447432347555,418,480,0,0,0,0,1,1,1,0001-00-0001-84.png,0005-00-0001-65.png
00000014,741,1,1447432348570,1447432349034,891,462,0,0,0,4,0,4,4,0004-00-0001-04.png,0001-00-0001-04.png
00000014,742,0,1447432350070,1447432350470,408,478,0,0,0,4,3,1,7,0004-00-0000-17.png,0002-00-0001-15.png
00000014,743,1,1447432353590,1447432353953,395,464,0,0,0,0,2,2,2,0001-00-0001-55.png,0003-00-0001-61.png
00000014,744,1,1447432354943,1447432355458,376,448,0,0,0,1,2,1,3,0005-00-0001-85.png,0003-00-0000-93.png
00000014,745,0,1447432356512,1447432357504,904,439,0,0,0,2,3,1,5,0003-00-0000-89.png,0002-00-0000-09.png
00000014,746,1,1447432361304,1447432361809,895,498,0,0,0,4,1,3,5,0004-00-0000-00.png,0005-00-0000-78.png
00000014,747,0,1447432362812,1447432363210,419,506,0,0,0,3,0,3,3,0002-00-0001-81.png,0001-00-0001-53.png
00000014,748,1,1447432366189,1447432366603,876,555,0,0,0,1,0,1,1,0005-00-0001-48.png,0001-00-0000-38.png
00000014,749,0,1447432367562,1447432368092,887,476,0,0,0,0,4,4,4,0001-00-0001-51.png,0004-00-0000-61.png
00000014,750,0,1447432371220,1447432371654,951,474,0,0,0,2,4,2,6,0003-00-0001-86.png,0004-00-0000-03.png
00000014,751,1,1447432376139,1447432376568,921,470,0,0,0,3,1,2,4,0002-00-0000-77.png,0005-00-0000-83.png
00000014,752,0,1447432377598,1447432378051,403,496,0,0,0,4,2,2,6,0004-00-0001-12.png,0003-00-0001-69.png
00000014,753,1,1447432381252,1447432381691,350,421,0,0,0,0,1,1,1,0001-00-0001-71.png,0005-00-0000-02.png
00000014,754,0,1447432382750,1447432383273,880,480,0,0,0,3,4,1,7,0002-00-0000-77.png,0004-00-0000-50.png
00000014,755,1,1447432386180,1447432386672,921,419,0,0,0,3,2,1,5,0002-00-0001-41.png,0003-00-0000-88.png
00000014,756,1,1447432387689,1447432388233,890,493,0,0,0,2,0,2,2,0003-00-0000-24.png,0001-00-0000-03.png
00000014,757,1,1447432389268,1447432389615,413,508,0,0,0,1,4,3,5,0005-00-0000-20.png,0004-00-0001-27.png
00000014,758,0,1447432390639,1447432391136,911,477,0,0,0,1,3,2,4,0005-00-0000-63.png,0002-00-0001-19.png
00000014,759,1,1447432394080,1447432394513,383,419,0,0,0,0,3,3,3,0001-00-0001-04.png,0002-00-0001-51.png
00000014,760,1,1447432395483,1447432395973,899,482,0,0,0,2,1,1,3,0003-00-0000-86.png,0005-00-0001-42.png
00000014,761,1,1447432397011,1447432397395,440,502,0,0,0,1,2,1,3,0005-00-0000-94.png,0003-00-0001-76.png
00000014,762,1,1447432398482,1447432399008,902,450,0,0,0,3,1,2,4,0002-00-0000-43.png,0005-00-0000-57.png
00000014,763,0,1447432400023,1447432400527,880,479,0,0,0,1,4,3,5,0005-00-0001-01.png,0004-00-0000-28.png
00000014,764,0,1447432403432,1447432403852,433,561,0,0,0,1,0,1,1,0005-00-0001-81.png,0001-00-0000-07.png
00000014,765,0,1447432406879,1447432407307,388,450,0,0,0,2,1,1,3,0003-00-0000-79.png,0005-00-0000-07.png
00000014,766,0,1447432410328,1447432410753,944,416,0,0,0,2,3,1,5,0003-00-0001-35.png,0002-00-0000-05.png
00000014,767,0,1447432413819,1447432414234,874,516,0,0,0,2,4,2,6,0003-00-0000-57.png,0004-00-0001-65.png
00000014,768,1,1447432417517,1447432417981,927,460,0,0,0,4,1,3,5,0004-00-0001-86.png,0005-00-0001-53.png
00000014,769,0,1447432419007,1447432419889,401,424,0,0,0,3,2,1,5,0002-00-0001-34.png,0003-00-0000-59.png
00000014,770,1,1447432422949,1447432423506,873,501,0,0,0,4,2,2,6,0004-00-0000-81.png,0003-00-0000-93.png
00000014,771,0,1447432424545,1447432424981,875,462,0,0,0,3,4,1,7,0002-00-0001-87.png,0004-00-0000-54.png
00000014,772,0,1447432428031,1447432428576,376,384,0,0,0,3,0,3,3,0002-00-0001-76.png,0001-00-0001-89.png
00000014,773,1,1447432431892,1447432432353,364,424,0,0,0,0,1,1,1,0001-00-0001-70.png,0005-00-0000-21.png
00000014,774,1,1447432433401,1447432433794,388,488,0,0,0,0,2,2,2,0001-00-0001-56.png,0003-00-0000-47.png
00000014,775,1,1447432434895,1447432435386,902,465,0,0,0,2,0,2,2,0003-00-0001-27.png,0001-00-0001-77.png
00000014,776,1,1447432436410,1447432436803,413,501,0,0,0,0,3,3,3,0001-00-0001-46.png,0002-00-0001-11.png
00000014,777,0,1447432437851,1447432438618,439,463,0,0,0,4,3,1,7,0004-00-0000-13.png,0002-00-0001-90.png
00000014,778,1,1447432441637,1447432442047,439,488,0,0,0,0,4,4,4,0001-00-0000-96.png,0004-00-0001-05.png
00000014,779,1,1447432443030,1447432443554,876,495,0,0,0,4,0,4,4,0004-00-0000-38.png,0001-00-0001-06.png
00000014,780,0,1447432444590,1447432445040,888,476,0,0,0,1,3,2,4,0005-00-0001-74.png,0002-00-0000-44.png
00000014,781,0,1447432447978,1447432448418,383,428,0,0,0,4,2,2,6,0004-00-0000-56.png,0003-00-0001-42.png
00000014,782,1,1447432451467,1447432452013,389,410,0,0,0,1,4,3,5,0005-00-0001-14.png,0004-00-0001-10.png
00000014,783,1,1447432453017,1447432453435,414,514,0,0,0,0,4,4,4,0001-00-0000-68.png,0004-00-0001-75.png
00000014,784,1,1447432454489,1447432454956,898,481,0,0,0,3,1,2,4,0002-00-0000-01.png,0005-00-0001-98.png
00000014,785,1,1447432455988,1447432456461,899,475,0,0,0,2,0,2,2,0003-00-0001-16.png,0001-00-0001-12.png
00000014,786,1,1447432457532,1447432458025,407,427,0,0,0,1,2,1,3,0005-00-0000-87.png,0003-00-0000-43.png
00000014,787,1,1447432459103,1447432459597,899,489,0,0,0,1,0,1,1,0005-00-0001-78.png,0001-00-0001-91.png
00000014,788,1,1447432460624,1447432460981,398,463,0,0,0,0,2,2,2,0001-00-0000-69.png,0003-00-0000-84.png
00000014,789,1,1447432462133,1447432462868,396,357,0,0,0,3,4,1,7,0002-00-0001-02.png,0004-00-0000-02.png
00000014,790,0,1447432463902,1447432464370,426,436,0,0,0,4,1,3,5,0004-00-0000-60.png,0005-00-0000-31.png
00000014,791,0,1447432467543,1447432468014,917,494,0,0,0,0,1,1,1,0001-00-0000-53.png,0005-00-0001-26.png
00000014,792,1,1447432470923,1447432471423,860,422,0,0,0,4,0,4,4,0004-00-0000-36.png,0001-00-0001-11.png
00000014,793,0,1447432472439,1447432472938,902,494,0,0,0,2,4,2,6,0003-00-0001-01.png,0004-00-0000-26.png
00000014,794,1,1447432476058,1447432476590,401,396,0,0,0,1,3,2,4,0005-00-0000-59.png,0002-00-0001-72.png
00000014,795,1,1447432477687,1447432478210,896,498,0,0,0,2,1,1,3,0003-00-0000-69.png,0005-00-0001-49.png
00000014,796,1,1447432479238,1447432479779,899,464,0,0,0,3,0,3,3,0002-00-0000-10.png,0001-00-0000-09.png
00000014,797,1,1447432480870,1447432481283,361,449,0,0,0,0,3,3,3,0001-00-0000-91.png,0002-00-0000-97.png
00000014,798,0,1447432482351,1447432482916,874,482,0,0,0,2,3,1,5,0003-00-0000-47.png,0002-00-0000-40.png
00000014,799,0,1447432485818,1447432486272,427,488,0,0,0,3,2,1,5,0002-00-0000-08.png,0003-00-0001-63.png
00000014,800,1,1447432489459,1447432489880,924,462,0,0,0,4,3,1,7,0004-00-0000-98.png,0002-00-0001-57.png
00000014,801,1,1447432490897,1447432491442,906,489,0,0,0,4,1,3,5,0004-00-0000-05.png,0005-00-0000-67.png
00000014,802,0,1447432492485,1447432492881,383,479,0,0,0,4,2,2,6,0004-00-0000-32.png,0003-00-0000-42.png
00000014,803,1,1447432495977,1447432496400,890,548,0,0,0,2,0,2,2,0003-00-0001-27.png,0001-00-0000-40.png
00000014,804,0,1447432497388,1447432497872,912,476,0,0,0,2,4,2,6,0003-00-0001-65.png,0004-00-0001-36.png
00000014,805,0,1447432501065,1447432501590,857,500,0,0,0,3,4,1,7,0002-00-0000-97.png,0004-00-0001-26.png
00000014,806,1,1447432504730,1447432505209,879,426,0,0,0,2,1,1,3,0003-00-0001-86.png,0005-00-0000-80.png
00000014,807,1,1447432506224,1447432506889,385,435,0,0,0,0,3,3,3,0001-00-0001-76.png,0002-00-0000-24.png
00000014,808,0,1447432507943,1447432508296,418,480,0,0,0,1,0,1,1,0005-00-0000-78.png,0001-00-0001-10.png
00000014,809,1,1447432511462,1447432512056,427,436,0,0,0,0,2,2,2,0001-00-0000-83.png,0003-00-0001-35.png
00000014,810,1,1447432513062,1447432513568,388,410,0,0,0,1,2,1,3,0005-00-0000-24.png,0003-00-0001-26.png
00000014,811,1,1447432514663,1447432515247,888,462,0,0,0,4,0,4,4,0004-00-0001-95.png,0001-00-0001-00.png
00000014,812,1,1447432516324,1447432516687,410,497,0,0,0,1,3,2,4,0005-00-0001-66.png,0002-00-0001-34.png
00000014,813,1,1447432517775,1447432518397,401,423,0,0,0,0,4,4,4,0001-00-0001-25.png,0004-00-0001-30.png
00000014,814,0,1447432519482,1447432519945,888,475,0,0,0,1,4,3,5,0005-00-0000-55.png,0004-00-0000-54.png
00000014,815,1,1447432523062,1447432523529,899,429,0,0,0,3,0,3,3,0002-00-0000-04.png,0001-00-0000-93.png
00000014,816,0,1447432524483,1447432524851,430,506,0,0,0,3,2,1,5,0002-00-0001-92.png,0003-00-0001-47.png
00000014,817,0,1447432530209,1447432530659,875,554,0,0,0,2,3,1,5,0003-00-0000-55.png,0002-00-0000-57.png
00000014,818,1,1447432533565,1447432534502,896,524,0,0,0,3,1,2,4,0002-00-0000-51.png,0005-00-0001-98.png
00000014,819,1,1447432535519,1447432535888,417,470,0,0,0,0,1,1,1,0001-00-0000-33.png,0005-00-0001-26.png
00000014,820,1,1447432536948,1447432537453,875,489,0,0,0,4,3,1,7,0004-00-0001-05.png,0002-00-0001-17.png
00000014,821,0,1447432538438,1447432538922,874,463,0,0,0,2,3,1,5,0003-00-0000-33.png,0002-00-0001-94.png
00000014,822,1,1447432542183,1447432542685,387,517,0,0,0,0,2,2,2,0001-00-0000-06.png,0003-00-0001-15.png
00000014,823,1,1447432543682,1447432544089,381,487,0,0,0,0,1,1,1,0001-00-0001-62.png,0005-00-0001-92.png
00000014,824,1,1447432545165,1447432545643,439,450,0,0,0,1,4,3,5,0005-00-0001-65.png,0004-00-0000-17.png
00000014,825,0,1447432546785,1447432547288,890,458,0,0,0,2,4,2,6,0003-00-0000-31.png,0004-00-0000-50.png
00000014,826,1,1447432550506,1447432550884,362,449,0,0,0,1,2,1,3,0005-00-0001-40.png,0003-00-0001-71.png
00000014,827,0,1447432551955,1447432552316,425,500,0,0,0,4,3,1,7,0004-00-0000-16.png,0002-00-0000-27.png
00000014,828,1,1447432555882,1447432556475,919,441,0,0,0,4,2,2,6,0004-00-0001-95.png,0003-00-0000-44.png
00000014,829,1,1447432557485,1447432557953,913,476,0,0,0,3,0,3,3,0002-00-0000-60.png,0001-00-0001-64.png
00000014,830,1,1447432559001,1447432559438,338,475,0,0,0,0,4,4,4,0001-00-0000-29.png,0004-00-0001-33.png
00000014,831,1,1447432560461,1447432561131,899,449,0,0,0,2,0,2,2,0003-00-0001-51.png,0001-00-0000-86.png
00000014,832,1,1447432562198,1447432563195,913,410,0,0,0,3,1,2,4,0002-00-0000-07.png,0005-00-0000-53.png
00000014,833,1,1447432564179,1447432564575,401,476,0,0,0,3,4,1,7,0002-00-0001-25.png,0004-00-0001-45.png
00000014,834,1,1447432565650,1447432566114,890,462,0,0,0,2,1,1,3,0003-00-0001-18.png,0005-00-0001-23.png
00000014,835,1,1447432567130,1447432567526,367,455,0,0,0,0,3,3,3,0001-00-0000-55.png,0002-00-0000-59.png
00000014,836,0,1447432568611,1447432569003,389,485,0,0,0,3,2,1,5,0002-00-0001-88.png,0003-00-0001-05.png
00000014,837,0,1447432572568,1447432573028,874,554,0,0,0,1,3,2,4,0005-00-0001-55.png,0002-00-0000-62.png
00000014,838,0,1447432575988,1447432576371,355,418,0,0,0,1,0,1,1,0005-00-0000-68.png,0001-00-0000-63.png
00000014,839,1,1447432579506,1447432579931,913,476,0,0,0,4,1,3,5,0004-00-0001-25.png,0005-00-0001-08.png
00000014,840,1,1447432581053,1447432581626,919,443,0,0,0,4,0,4,4,0004-00-0000-75.png,0001-00-0001-77.png
00000014,841,0,1447432582625,1447432583166,864,481,0,0,0,0,4,4,4,0001-00-0000-02.png,0004-00-0000-27.png
00000014,842,1,1447432586079,1447432586563,878,403,0,0,0,2,0,2,2,0003-00-0000-66.png,0001-00-0001-96.png
00000014,843,1,1447432587576,1447432588023,898,481,0,0,0,4,3,1,7,0004-00-0000-56.png,0002-00-0000-07.png
00000014,844,1,1447432589107,1447432590004,364,436,0,0,0,0,3,3,3,0001-00-0001-83.png,0002-00-0001-94.png
00000014,845,1,1447432591085,1447432591554,387,449,0,0,0,0,1,1,1,0001-00-0000-03.png,0005-00-0000-88.png
00000014,846,1,1447432592675,1447432593148,868,451,0,0,0,4,2,2,6,0004-00-0000-92.png,0003-00-0001-23.png
00000014,847,1,1447432594187,1447432594668,874,449,0,0,0,4,1,3,5,0004-00-0000-26.png,0005-00-0001-93.png
00000014,848,1,1447432595667,1447432596215,875,436,0,0,0,2,1,1,3,0003-00-0001-73.png,0005-00-0000-31.png
00000014,849,1,1447432597197,1447432597547,445,541,0,0,0,2,4,2,6,0003-00-0001-51.png,0004-00-0000-28.png
00000014,850,0,1447432598628,1447432599122,890,460,0,0,0,2,3,1,5,0003-00-0001-29.png,0002-00-0001-37.png
00000014,851,1,1447432602147,1447432602580,870,524,0,0,0,3,0,3,3,0002-00-0001-61.png,0001-00-0000-98.png
00000014,852,1,1447432603657,1447432604143,916,489,0,0,0,3,1,2,4,0002-00-0001-01.png,0005-00-0000-41.png
00000014,853,1,1447432605189,1447432605558,421,503,0,0,0,1,2,1,3,0005-00-0000-09.png,0003-00-0000-26.png
00000014,854,1,1447432606689,1447432607370,439,528,0,0,0,1,3,2,4,0005-00-0000-08.png,0002-00-0001-84.png
00000014,855,1,1447432608449,1447432608936,892,468,0,0,0,4,0,4,4,0004-00-0001-51.png,0001-00-0001-25.png
00000014,856,0,1447432610126,1447432610611,876,487,0,0,0,1,4,3,5,0005-00-0001-11.png,0004-00-0001-79.png
00000014,857,0,1447432613528,1447432613917,404,402,0,0,0,3,2,1,5,0002-00-0000-66.png,0003-00-0000-94.png
00000014,858,0,1447432617015,1447432617465,342,401,0,0,0,1,0,1,1,0005-00-0000-40.png,0001-00-0001-82.png
00000014,859,0,1447432620712,1447432621155,904,480,0,0,0,3,4,1,7,0002-00-0001-77.png,0004-00-0000-49.png
00000014,860,1,1447432624341,1447432624754,414,450,0,0,0,0,2,2,2,0001-00-0000-08.png,0003-00-0000-72.png
00000014,861,1,1447432625829,1447432626305,876,450,0,0,0,4,3,1,7,0004-00-0000-15.png,0002-00-0000-64.png
00000014,862,0,1447432627401,1447432627826,367,484,0,0,0,4,2,2,6,0004-00-0001-11.png,0003-00-0000-62.png
00000014,863,1,1447432631276,1447432631660,363,384,0,0,0,0,4,4,4,0001-00-0000-24.png,0004-00-0000-65.png
00000014,864,1,1447432632776,1447432633290,365,434,0,0,0,3,4,1,7,0002-00-0001-31.png,0004-00-0000-61.png
00000014,865,1,1447432634289,1447432634752,876,490,0,0,0,3,1,2,4,0002-00-0000-61.png,0005-00-0000-45.png
00000014,866,0,1447432635829,1447432636342,876,468,0,0,0,1,3,2,4,0005-00-0001-30.png,0002-00-0001-22.png
00000014,867,0,1447432639598,1447432640030,924,484,0,0,0,2,4,2,6,0003-00-0000-87.png,0004-00-0001-57.png
00000014,868,0,1447432643216,1447432643670,915,475,0,0,0,1,4,3,5,0005-00-0000-96.png,0004-00-0000-55.png
00000014,869,1,1447432646551,1447432646965,361,402,0,0,0,0,1,1,1,0001-00-0001-79.png,0005-00-0000-97.png
00000014,870,0,1447432647975,1447432648825,417,519,0,0,0,4,1,3,5,0004-00-0000-13.png,0005-00-0000-55.png
00000014,871,1,1447432652965,1447432653362,325,410,0,0,0,0,2,2,2,0001-00-0001-71.png,0003-00-0001-91.png
00000014,872,1,1447432654337,1447432654742,376,475,0,0,0,2,3,1,5,0003-00-0001-36.png,0002-00-0000-87.png
00000014,873,1,1447432655819,1447432656281,899,475,0,0,0,2,0,2,2,0003-00-0000-88.png,0001-00-0000-74.png
00000014,874,1,1447432657309,1447432658230,904,447,0,0,0,2,1,1,3,0003-00-0001-49.png,0005-00-0001-49.png
00000014,875,1,1447432659346,1447432659839,901,476,0,0,0,1,0,1,1,0005-00-0000-08.png,0001-00-0000-42.png
00000014,876,0,1447432660837,1447432661181,415,504,0,0,0,4,0,4,4,0004-00-0001-88.png,0001-00-0000-62.png
00000014,877,1,1447432664107,1447432664987,409,508,0,0,0,1,2,1,3,0005-00-0001-27.png,0003-00-0001-33.png
00000014,878,1,1447432666096,1447432666579,921,477,0,0,0,3,0,3,3,0002-00-0000-52.png,0001-00-0000-66.png
00000014,879,0,1447432667567,1447432667942,406,498,0,0,0,3,2,1,5,0002-00-0000-71.png,0003-00-0000-28.png
00000014,880,0,1447432670890,1447432671572,883,527,0,0,0,0,3,3,3,0001-00-0001-40.png,0002-00-0001-79.png
00000014,881,1,1447432674676,1447432675127,909,484,0,0,0,2,0,2,2,0003-00-0000-13.png,0001-00-0000-78.png
00000014,882,0,1447432676132,1447432676635,888,475,0,0,0,1,4,3,5,0005-00-0000-21.png,0004-00-0001-77.png
00000014,883,0,1447432679594,1447432680077,925,438,0,0,0,1,2,1,3,0005-00-0000-66.png,0003-00-0000-06.png
00000014,884,0,1447432683234,1447432683690,875,566,0,0,0,2,3,1,5,0003-00-0000-34.png,0002-00-0000-38.png
00000014,885,1,1447432686567,1447432686984,449,390,0,0,0,0,4,4,4,0001-00-0001-43.png,0004-00-0000-61.png
00000014,886,0,1447432687913,1447432688410,888,475,0,0,0,2,4,2,6,0003-00-0000-49.png,0004-00-0000-80.png
00000014,887,1,1447432691258,1447432691647,345,393,0,0,0,0,1,1,1,0001-00-0001-63.png,0005-00-0001-29.png
00000014,888,1,1447432692614,1447432692987,395,474,0,0,0,1,3,2,4,0005-00-0000-89.png,0002-00-0000-05.png
00000014,889,1,1447432694083,1447432694447,376,488,0,0,0,0,2,2,2,0001-00-0001-25.png,0003-00-0000-85.png
00000014,890,1,1447432695523,1447432695993,887,476,0,0,0,2,1,1,3,0003-00-0000-25.png,0005-00-0001-88.png
00000014,891,1,1447432697034,1447432697470,369,477,0,0,0,0,3,3,3,0001-00-0001-49.png,0002-00-0000-50.png
00000014,892,0,1447432698515,1447432699488,368,401,0,0,0,4,1,3,5,0004-00-0001-39.png,0005-00-0001-34.png
00000014,893,1,1447432702408,1447432702871,916,501,0,0,0,4,3,1,7,0004-00-0001-92.png,0002-00-0001-26.png
00000014,894,0,1447432703906,1447432704491,478,410,0,0,0,3,1,2,4,0002-00-0001-42.png,0005-00-0001-59.png
00000014,895,1,1447432707453,1447432707870,925,449,0,0,0,4,0,4,4,0004-00-0000-06.png,0001-00-0001-44.png
00000014,896,1,1447432708834,1447432709377,893,455,0,0,0,4,2,2,6,0004-00-0001-34.png,0003-00-0000-35.png
00000014,897,1,1447432710470,1447432710897,873,484,0,0,0,3,0,3,3,0002-00-0001-72.png,0001-00-0001-37.png
00000014,898,0,1447432711975,1447432712359,419,507,0,0,0,3,2,1,5,0002-00-0000-68.png,0003-00-0000-55.png
00000014,899,1,1447432715614,1447432716064,923,460,0,0,0,1,0,1,1,0005-00-0001-85.png,0001-00-0000-00.png
00000014,900,1,1447432716919,1447432717355,388,475,0,0,0,3,4,1,7,0002-00-0001-21.png,0004-00-0000-69.png
00000014,901,1,1447432718405,1447432718848,876,442,0,0,0,2,1,1,3,0003-00-0000-38.png,0005-00-0001-46.png
00000014,902,1,1447432719924,1447432720426,891,460,0,0,0,3,0,3,3,0002-00-0000-76.png,0001-00-0001-63.png
00000014,903,0,1447432721426,1447432721796,381,471,0,0,0,1,0,1,1,0005-00-0001-87.png,0001-00-0000-03.png
00000014,904,1,1447432725238,1447432726374,373,374,0,0,0,0,2,2,2,0001-00-0001-22.png,0003-00-0001-76.png
00000014,905,1,1447432727499,1447432727851,395,475,0,0,0,1,2,1,3,0005-00-0000-50.png,0003-00-0000-32.png
00000014,906,0,1447432728910,1447432729322,385,451,0,0,0,4,2,2,6,0004-00-0000-00.png,0003-00-0000-94.png
00000014,907,0,1447432732374,1447432732740,410,443,0,0,0,3,2,1,5,0002-00-0001-05.png,0003-00-0000-97.png
00000014,908,1,1447432735708,1447432736202,941,441,0,0,0,2,0,2,2,0003-00-0001-43.png,0001-00-0001-75.png
00000014,909,1,1447432737249,1447432737626,381,456,0,0,0,0,3,3,3,0001-00-0000-41.png,0002-00-0000-30.png
00000014,910,0,1447432738669,1447432739147,895,472,0,0,0,2,3,1,5,0003-00-0000-52.png,0002-00-0000-40.png
00000014,911,0,1447432742315,1447432742723,924,433,0,0,0,2,4,2,6,0003-00-0001-71.png,0004-00-0001-89.png
00000014,912,0,1447432745885,1447432746319,873,561,0,0,0,1,4,3,5,0005-00-0000-86.png,0004-00-0001-29.png
00000014,913,1,1447432749692,1447432750262,913,423,0,0,0,4,0,4,4,0004-00-0001-63.png,0001-00-0000-86.png
00000014,914,0,1447432751341,1447432752291,900,489,0,0,0,3,4,1,7,0002-00-0001-94.png,0004-00-0000-17.png
00000014,915,1,1447432755953,1447432756437,386,441,0,0,0,0,4,4,4,0001-00-0000-82.png,0004-00-0000-23.png
00000014,916,1,1447432757394,1447432757895,900,475,0,0,0,3,1,2,4,0002-00-0000-53.png,0005-00-0000-64.png
00000014,917,0,1447432758974,1447432759442,877,476,0,0,0,0,1,1,1,0001-00-0000-07.png,0005-00-0000-16.png
00000014,918,0,1447432762775,1447432763175,926,449,0,0,0,1,3,2,4,0005-00-0001-31.png,0002-00-0000-52.png
00000014,919,1,1447432766248,1447432766763,915,469,0,0,0,4,1,3,5,0004-00-0001-02.png,0005-00-0001-76.png
00000014,920,1,1447432767781,1447432768305,876,493,0,0,0,4,3,1,7,0004-00-0000-62.png,0002-00-0001-91.png
00000014,921,1,1447432769353,1447432769852,865,466,0,0,0,4,0,4,4,0004-00-0001-41.png,0001-00-0000-79.png
00000014,922,1,1447432770902,1447432771499,384,419,0,0,0,1,3,2,4,0005-00-0001-51.png,0002-00-0001-09.png
00000014,923,0,1447432772552,1447432773457,395,401,0,0,0,4,2,2,6,0004-00-0001-94.png,0003-00-0000-98.png
00000014,924,1,1447432776609,1447432777546,913,423,0,0,0,2,0,2,2,0003-00-0000-11.png,0001-00-0001-42.png
00000014,925,1,1447432778526,1447432778924,412,493,0,0,0,1,4,3,5,0005-00-0001-03.png,0004-00-0000-12.png
00000014,926,1,1447432780028,1447432780927,913,424,0,0,0,4,3,1,7,0004-00-0000-82.png,0002-00-0001-14.png
00000014,927,1,1447432781975,1447432782489,401,423,0,0,0,3,4,1,7,0002-00-0001-99.png,0004-00-0000-89.png
00000014,928,0,1447432783446,1447432784436,897,458,0,0,0,0,2,2,2,0001-00-0001-10.png,0003-00-0000-60.png
00000014,929,1,1447432788227,1447432788626,332,418,0,0,0,0,1,1,1,0001-00-0001-42.png,0005-00-0001-11.png
00000014,930,1,1447432789551,1447432790521,871,535,0,0,0,1,0,1,1,0005-00-0001-47.png,0001-00-0001-53.png
00000014,931,1,1447432791537,1447432792517,427,424,0,0,0,2,4,2,6,0003-00-0000-64.png,0004-00-0001-76.png
00000014,932,0,1447432793645,1447432794147,881,437,0,0,0,2,3,1,5,0003-00-0000-95.png,0002-00-0000-18.png
00000014,933,1,1447432797249,1447432797688,861,560,0,0,0,2,1,1,3,0003-00-0000-37.png,0005-00-0000-95.png
00000014,934,1,1447432798743,1447432799108,350,471,0,0,0,0,3,3,3,0001-00-0000-58.png,0002-00-0001-62.png
00000014,935,1,1447432800193,1447432800596,401,514,0,0,0,1,2,1,3,0005-00-0000-20.png,0003-00-0001-89.png
00000014,936,1,1447432801669,1447432802212,862,502,0,0,0,3,2,1,5,0002-00-0000-51.png,0003-00-0000-87.png
00000014,937,1,1447432803196,1447432803698,887,476,0,0,0,3,0,3,3,0002-00-0000-45.png,0001-00-0001-13.png
00000014,938,1,1447432805132,1447432805611,912,528,0,0,0,4,1,3,5,0004-00-0000-53.png,0005-00-0000-84.png
00000014,939,0,1447432806676,1447432807081,370,471,0,0,0,3,1,2,4,0002-00-0000-37.png,0005-00-0001-19.png
00000014,940,1,1447432810174,1447432810589,376,436,0,0,0,0,4,4,4,0001-00-0001-60.png,0004-00-0000-50.png
00000014,941,1,1447432811648,1447432812147,889,501,0,0,0,4,3,1,7,0004-00-0001-36.png,0002-00-0001-23.png
00000014,942,1,1447432813176,1447432813534,412,497,0,0,0,2,3,1,5,0003-00-0001-47.png,0002-00-0000-79.png
00000014,943,1,1447432814634,1447432814972,444,554,0,0,0,0,4,4,4,0001-00-0001-81.png,0004-00-0000-75.png
00000014,944,1,1447432816121,1447432816581,875,475,0,0,0,4,0,4,4,0004-00-0001-28.png,0001-00-0001-71.png
00000014,945,0,1447432817641,1447432818542,314,456,0,0,0,4,2,2,6,0004-00-0001-78.png,0003-00-0000-10.png
00000014,946,1,1447432821438,1447432822059,394,397,0,0,0,1,2,1,3,0005-00-0000-07.png,0003-00-0000-62.png
00000014,947,1,1447432823077,1447432823563,864,501,0,0,0,2,1,1,3,0003-00-0000-74.png,0005-00-0000-96.png
00000014,948,0,1447432824639,1447432825004,427,501,0,0,0,3,2,1,5,0002-00-0001-76.png,0003-00-0001-28.png
00000014,949,0,1447432827999,1447432828434,952,475,0,0,0,2,4,2,6,0003-00-0000-18.png,0004-00-0001-57.png
00000014,950,0,1447432831416,1447432831902,889,561,0,0,0,1,4,3,5,0005-00-0000-49.png,0004-00-0001-30.png
00000014,951,0,1447432834954,1447432835360,871,417,0,0,0,1,3,2,4,0005-00-0000-48.png,0002-00-0000-15.png
