subject_id,trial,correct_response,stim_time,response_time,x_coord,y_coord,trial_timeout,timeout_time,interTrial_timeout,left_rank,right_rank,distance,joint_rank,left_image,right_image
00000014,1,0,1447861129544,1447861129959,364,462,0,0,0,3,0,3,3,0002-00-0001-44.png,0001-00-0001-96.png
00000014,2,1,1447861133203,1447861133612,364,476,0,0,0,0,1,1,1,0001-00-0000-81.png,0005-00-0000-51.png
00000014,3,1,1447861134705,1447861135339,919,388,0,0,0,3,1,2,4,0002-00-0000-56.png,0005-00-0001-93.png
00000014,4,1,1447861136290,1447861136867,998,445,0,0,0,4,0,4,4,0004-00-0000-62.png,0001-00-0001-69.png
00000014,5,1,1447861137732,1447861138274,928,443,0,0,0,4,1,3,5,0004-00-0001-19.png,0005-00-0000-57.png
00000014,6,1,1447861139125,1447861139690,973,393,0,0,0,4,3,1,7,0004-00-0001-22.png,0002-00-0000-18.png
00000014,7,1,1447861140531,1447861141054,976,466,0,0,0,1,0,1,1,0005-00-0000-62.png,0001-00-0001-39.png
00000014,8,1,1447861142283,1447861142752,406,361,0,0,0,1,3,2,4,0005-00-0001-27.png,0002-00-0001-99.png
00000014,9,1,1447861143624,1447861144122,442,519,0,0,0,1,2,1,3,0005-00-0000-79.png,0003-00-0000-67.png
00000014,10,0,1447861144986,1447861145522,875,384,0,0,0,3,4,1,7,0002-00-0000-13.png,0004-00-0001-29.png
00000014,11,1,1447861148384,1447861148812,365,378,0,0,0,0,3,3,3,0001-00-0001-18.png,0002-00-0001-01.png
00000014,12,1,1447861150062,1447861150485,316,402,0,0,0,0,4,4,4,0001-00-0000-50.png,0004-00-0000-38.png
00000014,13,0,1447861151648,1447861152205,916,510,0,0,0,2,3,1,5,0003-00-0001-70.png,0002-00-0000-73.png
00000014,14,1,1447861155404,1447861155843,951,464,0,0,0,2,1,1,3,0003-00-0001-54.png,0005-00-0001-38.png
00000014,15,1,1447861156845,1447861157376,364,410,0,0,0,1,4,3,5,0005-00-0001-90.png,0004-00-0000-09.png
00000014,16,1,1447861158577,1447861159169,926,475,0,0,0,3,2,1,5,0002-00-0000-21.png,0003-00-0001-86.png
00000014,17,1,1447861160168,1447861160790,971,430,0,0,0,4,2,2,6,0004-00-0001-50.png,0003-00-0001-62.png
00000014,18,1,1447861161756,1447861162248,421,427,0,0,0,0,2,2,2,0001-00-0000-29.png,0003-00-0001-72.png
00000014,19,0,1447861163196,1447861163799,939,449,0,0,0,2,4,2,6,0003-00-0001-44.png,0004-00-0000-24.png
00000014,20,0,1447861167175,1447861167199,504,410,0,0,0,2,0,2,2,0003-00-0000-52.png,0001-00-0000-87.png
00000014,21,0,1447861171231,1447861171693,895,487,0,0,0,0,1,1,1,0001-00-0000-59.png,0005-00-0000-29.png
00000014,22,0,1447861174945,1447861175436,371,381,0,0,0,4,0,4,4,0004-00-0001-27.png,0001-00-0000-09.png
00000014,23,0,1447861178532,1447861179042,363,342,0,0,0,4,3,1,7,0004-00-0001-86.png,0002-00-0001-47.png
00000014,24,0,1447861182777,1447861183248,928,468,0,0,0,2,4,2,6,0003-00-0001-23.png,0004-00-0000-63.png
00000014,25,0,1447861186334,1447861186790,899,463,0,0,0,2,3,1,5,0003-00-0001-64.png,0002-00-0000-89.png
00000014,26,1,1447861189861,1447861190309,951,385,0,0,0,2,0,2,2,0003-00-0000-86.png,0001-00-0000-57.png
00000014,27,1,1447861191381,1447861191884,426,387,0,0,0,1,2,1,3,0005-00-0000-18.png,0003-00-0000-99.png
00000014,28,1,1447861192982,1447861193491,949,433,0,0,0,1,0,1,1,0005-00-0001-77.png,0001-00-0000-45.png
00000014,29,0,1447861194679,1447861195151,372,432,0,0,0,3,2,1,5,0002-00-0000-31.png,0003-00-0000-63.png
00000014,30,1,1447861201631,1447861202173,928,469,0,0,0,3,0,3,3,0002-00-0000-46.png,0001-00-0000-56.png
00000014,31,1,1447861203936,1447861204571,975,466,0,0,0,3,1,2,4,0002-00-0000-29.png,0005-00-0000-82.png
00000014,32,0,1447861206591,1447861207114,880,557,0,0,0,0,4,4,4,0001-00-0000-23.png,0004-00-0001-60.png
00000014,33,0,1447861210055,1447861210531,965,423,0,0,0,1,3,2,4,0005-00-0001-00.png,0002-00-0000-67.png
00000014,34,0,1447861213845,1447861214340,948,464,0,0,0,0,3,3,3,0001-00-0001-87.png,0002-00-0001-76.png
00000014,35,1,1447861218824,1447861219306,973,393,0,0,0,2,1,1,3,0003-00-0001-30.png,0005-00-0001-18.png
00000014,36,0,1447861221438,1447861222602,927,517,0,0,0,1,4,3,5,0005-00-0000-33.png,0004-00-0001-73.png
00000014,37,0,1447861225479,1447861225968,325,372,0,0,0,4,2,2,6,0004-00-0001-78.png,0003-00-0000-05.png
00000014,38,1,1447861229797,1447861230287,977,403,0,0,0,4,1,3,5,0004-00-0000-58.png,0005-00-0001-20.png
00000014,39,1,1447861233067,1447861233601,378,410,0,0,0,3,4,1,7,0002-00-0000-00.png,0004-00-0001-88.png
00000014,40,1,1447861235114,1447861235648,334,372,0,0,0,0,2,2,2,0001-00-0001-37.png,0003-00-0001-14.png
00000014,41,1,1447861237579,1447861238081,907,553,0,0,0,4,0,4,4,0004-00-0001-19.png,0001-00-0000-49.png
00000014,42,1,1447861240054,1447861240560,921,524,0,0,0,4,1,3,5,0004-00-0000-25.png,0005-00-0001-35.png
00000014,43,1,1447861242411,1447861243006,932,500,0,0,0,4,3,1,7,0004-00-0001-13.png,0002-00-0001-78.png
00000014,44,1,1447861244915,1447861245375,956,428,0,0,0,2,0,2,2,0003-00-0001-11.png,0001-00-0001-02.png
00000014,45,0,1447861246784,1447861247298,973,470,0,0,0,2,4,2,6,0003-00-0001-12.png,0004-00-0000-10.png
00000014,46,0,1447861251761,1447861252288,934,547,0,0,0,2,3,1,5,0003-00-0000-57.png,0002-00-0001-27.png
00000014,47,0,1447861255319,1447861255822,353,340,0,0,0,4,2,2,6,0004-00-0001-67.png,0003-00-0000-10.png
00000014,48,1,1447861259684,1447861260161,429,357,0,0,0,0,3,3,3,0001-00-0000-79.png,0002-00-0001-02.png
00000014,49,1,1447861261759,1447861262260,900,410,0,0,0,2,1,1,3,0003-00-0000-45.png,0005-00-0000-71.png
00000014,50,1,1447861263291,1447861263848,369,415,0,0,0,0,1,1,1,0001-00-0001-45.png,0005-00-0000-20.png
00000014,51,1,1447861265427,1447861265994,330,418,0,0,0,1,3,2,4,0005-00-0001-35.png,0002-00-0001-09.png
00000014,52,1,1447861267417,1447861267961,350,421,0,0,0,1,4,3,5,0005-00-0001-34.png,0004-00-0000-61.png
00000014,53,1,1447861270377,1447861270780,387,412,0,0,0,0,2,2,2,0001-00-0001-39.png,0003-00-0000-32.png
00000014,54,1,1447861272596,1447861273101,359,402,0,0,0,1,2,1,3,0005-00-0000-73.png,0003-00-0000-66.png
00000014,55,0,1447861276370,1447861276790,964,475,0,0,0,3,4,1,7,0002-00-0001-69.png,0004-00-0001-52.png
00000014,56,1,1447861280440,1447861280888,365,418,0,0,0,0,4,4,4,0001-00-0001-22.png,0004-00-0000-29.png
00000014,57,1,1447861283398,1447861283934,975,462,0,0,0,3,0,3,3,0002-00-0000-10.png,0001-00-0001-59.png
00000014,58,0,1447861285664,1447861286096,403,465,0,0,0,3,2,1,5,0002-00-0000-74.png,0003-00-0000-84.png
00000014,59,1,1447861289649,1447861290130,975,405,0,0,0,1,0,1,1,0005-00-0001-42.png,0001-00-0000-51.png
00000014,60,0,1447861291935,1447861292698,360,354,0,0,0,3,1,2,4,0002-00-0000-73.png,0005-00-0001-93.png
00000014,61,1,1447861295850,1447861296354,362,348,0,0,0,2,4,2,6,0003-00-0001-74.png,0004-00-0000-32.png
00000014,62,1,1447861297749,1447861298233,921,445,0,0,0,2,0,2,2,0003-00-0001-14.png,0001-00-0000-38.png
00000014,63,1,1447861299735,1447861300139,432,462,0,0,0,0,4,4,4,0001-00-0001-55.png,0004-00-0000-32.png
00000014,64,0,1447861301414,1447861301960,871,391,0,0,0,2,3,1,5,0003-00-0000-19.png,0002-00-0000-75.png
00000014,65,0,1447861308314,1447861308782,370,345,0,0,0,3,0,3,3,0002-00-0000-67.png,0001-00-0000-97.png
00000014,66,1,1447861312813,1447861313338,875,397,0,0,0,4,3,1,7,0004-00-0000-72.png,0002-00-0000-00.png
00000014,67,0,1447861314518,1447861315082,898,404,0,0,0,3,4,1,7,0002-00-0001-58.png,0004-00-0001-45.png
00000014,68,1,1447861318163,1447861318666,409,393,0,0,0,0,1,1,1,0001-00-0000-26.png,0005-00-0001-06.png
00000014,69,0,1447861319785,1447861320283,378,412,0,0,0,3,1,2,4,0002-00-0000-66.png,0005-00-0000-97.png
00000014,70,0,1447861324278,1447861324753,958,447,0,0,0,1,3,2,4,0005-00-0000-71.png,0002-00-0000-81.png
00000014,71,1,1447861328987,1447861329483,419,401,0,0,0,0,2,2,2,0001-00-0001-49.png,0003-00-0001-31.png
00000014,72,1,1447861330599,1447861331105,376,402,0,0,0,0,3,3,3,0001-00-0000-34.png,0002-00-0001-81.png
00000014,73,1,1447861332337,1447861332772,399,472,0,0,0,1,2,1,3,0005-00-0001-57.png,0003-00-0000-67.png
00000014,74,0,1447861333780,1447861334752,386,421,0,0,0,4,2,2,6,0004-00-0001-08.png,0003-00-0000-03.png
00000014,75,1,1447861337898,1447861338543,427,380,0,0,0,1,4,3,5,0005-00-0000-19.png,0004-00-0001-80.png
00000014,76,1,1447861339647,1447861340170,951,449,0,0,0,2,1,1,3,0003-00-0000-47.png,0005-00-0000-51.png
00000014,77,1,1447861341633,1447861342187,891,538,0,0,0,4,0,4,4,0004-00-0001-64.png,0001-00-0000-98.png
00000014,78,0,1447861343134,1447861343624,455,552,0,0,0,3,2,1,5,0002-00-0000-63.png,0003-00-0000-14.png
00000014,79,0,1447861347170,1447861347629,426,400,0,0,0,4,1,3,5,0004-00-0001-07.png,0005-00-0001-13.png
00000014,80,1,1447861350544,1447861351049,990,405,0,0,0,1,0,1,1,0005-00-0001-82.png,0001-00-0000-96.png
00000014,81,0,1447861352107,1447861352730,377,384,0,0,0,4,0,4,4,0004-00-0000-49.png,0001-00-0000-92.png
00000014,82,0,1447861356294,1447861356758,926,395,0,0,0,1,3,2,4,0005-00-0000-93.png,0002-00-0000-81.png
00000014,83,1,1447861360098,1447861360739,385,495,0,0,0,0,4,4,4,0001-00-0000-67.png,0004-00-0000-89.png
00000014,84,1,1447861361966,1447861362456,925,449,0,0,0,3,0,3,3,0002-00-0001-91.png,0001-00-0000-95.png
00000014,85,1,1447861363537,1447861364356,926,436,0,0,0,4,3,1,7,0004-00-0000-86.png,0002-00-0001-49.png
00000014,86,0,1447861365408,1447861365958,924,432,0,0,0,3,4,1,7,0002-00-0001-77.png,0004-00-0000-05.png
00000014,87,1,1447861369799,1447861370273,928,520,0,0,0,2,0,2,2,0003-00-0001-56.png,0001-00-0000-74.png
00000014,88,1,1447861371424,1447861372009,401,423,0,0,0,2,3,1,5,0003-00-0001-78.png,0002-00-0001-53.png
00000014,89,0,1447861373019,1447861373591,880,555,0,0,0,2,4,2,6,0003-00-0001-71.png,0004-00-0000-57.png
00000014,90,1,1447861376435,1447861377101,399,333,0,0,0,1,4,3,5,0005-00-0000-39.png,0004-00-0000-47.png
00000014,91,1,1447861378257,1447861378771,398,446,0,0,0,0,1,1,1,0001-00-0001-03.png,0005-00-0001-68.png
00000014,92,1,1447861379836,1447861380774,343,408,0,0,0,1,2,1,3,0005-00-0001-41.png,0003-00-0000-41.png
00000014,93,0,1447861381774,1447861382398,394,408,0,0,0,3,1,2,4,0002-00-0000-59.png,0005-00-0001-63.png
00000014,94,1,1447861386228,1447861386976,951,388,0,0,0,3,2,1,5,0002-00-0001-95.png,0003-00-0001-35.png
00000014,95,1,1447861388145,1447861388574,374,431,0,0,0,0,2,2,2,0001-00-0001-53.png,0003-00-0000-54.png
00000014,96,1,1447861389636,1447861390157,383,418,0,0,0,0,3,3,3,0001-00-0000-59.png,0002-00-0000-86.png
00000014,97,1,1447861391254,1447861391863,927,441,0,0,0,2,1,1,3,0003-00-0000-58.png,0005-00-0000-17.png
00000014,98,1,1447861392865,1447861393508,946,437,0,0,0,1,0,1,1,0005-00-0000-07.png,0001-00-0000-40.png
00000014,99,1,1447861394516,1447861395046,904,533,0,0,0,4,2,2,6,0004-00-0001-53.png,0003-00-0000-11.png
00000014,100,0,1447861396046,1447861396482,405,460,0,0,0,4,1,3,5,0004-00-0001-01.png,0005-00-0001-92.png
00000014,101,0,1447861399599,1447861400128,952,450,0,0,0,1,2,1,3,0005-00-0000-41.png,0003-00-0000-85.png
00000014,102,1,1447861403632,1447861404132,383,438,0,0,0,0,1,1,1,0001-00-0001-61.png,0005-00-0001-87.png
00000014,103,1,1447861405260,1447861405812,951,475,0,0,0,2,0,2,2,0003-00-0000-06.png,0001-00-0000-72.png
00000014,104,1,1447861406866,1447861407299,350,422,0,0,0,0,4,4,4,0001-00-0001-92.png,0004-00-0000-98.png
00000014,105,1,1447861408369,1447861408913,925,482,0,0,0,2,1,1,3,0003-00-0001-67.png,0005-00-0001-44.png
00000014,106,0,1447861409931,1447861410412,422,449,0,0,0,4,2,2,6,0004-00-0001-80.png,0003-00-0001-60.png
00000014,107,1,1447861413617,1447861414162,393,364,0,0,0,3,4,1,7,0002-00-0001-16.png,0004-00-0001-48.png
00000014,108,0,1447861415359,1447861415758,408,556,0,0,0,3,1,2,4,0002-00-0001-97.png,0005-00-0000-57.png
00000014,109,1,1447861419841,1447861420291,898,392,0,0,0,1,0,1,1,0005-00-0001-38.png,0001-00-0000-86.png
00000014,110,0,1447861421436,1447861421957,867,563,0,0,0,2,3,1,5,0003-00-0000-55.png,0002-00-0000-29.png
00000014,111,1,1447861425181,1447861425632,965,423,0,0,0,3,0,3,3,0002-00-0001-60.png,0001-00-0000-89.png
00000014,112,0,1447861426700,1447861427154,424,446,0,0,0,3,2,1,5,0002-00-0000-47.png,0003-00-0001-78.png
00000014,113,0,1447861430894,1447861431372,992,411,0,0,0,1,3,2,4,0005-00-0001-93.png,0002-00-0001-42.png
00000014,114,1,1447861435275,1447861435739,391,383,0,0,0,0,3,3,3,0001-00-0001-69.png,0002-00-0000-54.png
00000014,115,0,1447861436886,1447861437460,911,476,0,0,0,2,4,2,6,0003-00-0001-78.png,0004-00-0001-34.png
00000014,116,1,1447861440569,1447861440969,377,414,0,0,0,1,4,3,5,0005-00-0000-99.png,0004-00-0000-31.png
00000014,117,1,1447861442113,1447861442589,350,424,0,0,0,0,2,2,2,0001-00-0001-79.png,0003-00-0000-24.png
00000014,118,1,1447861443815,1447861444376,926,475,0,0,0,4,1,3,5,0004-00-0000-95.png,0005-00-0000-69.png
00000014,119,1,1447861445493,1447861446137,920,420,0,0,0,4,0,4,4,0004-00-0001-48.png,0001-00-0000-01.png
00000014,120,0,1447861447154,1447861447578,415,461,0,0,0,4,3,1,7,0004-00-0000-25.png,0002-00-0001-69.png
00000014,121,1,1447861451058,1447861451516,893,504,0,0,0,4,3,1,7,0004-00-0000-96.png,0002-00-0000-32.png
00000014,122,1,1447861452560,1447861452960,427,467,0,0,0,1,4,3,5,0005-00-0000-68.png,0004-00-0000-96.png
00000014,123,0,1447861454070,1447861454680,925,449,0,0,0,2,4,2,6,0003-00-0000-90.png,0004-00-0001-83.png
00000014,124,0,1447861457700,1447861458214,981,403,0,0,0,0,4,4,4,0001-00-0001-02.png,0004-00-0001-62.png
00000014,125,1,1447861461943,1447861462388,407,391,0,0,0,0,2,2,2,0001-00-0001-01.png,0003-00-0001-06.png
00000014,126,1,1447861463502,1447861464056,951,457,0,0,0,3,0,3,3,0002-00-0000-19.png,0001-00-0000-91.png
00000014,127,1,1447861465123,1447861465688,889,542,0,0,0,1,0,1,1,0005-00-0001-06.png,0001-00-0000-68.png
00000014,128,1,1447861466690,1447861467186,922,468,0,0,0,2,1,1,3,0003-00-0000-19.png,0005-00-0001-87.png
00000014,129,1,1447861468195,1447861468926,914,438,0,0,0,4,0,4,4,0004-00-0000-19.png,0001-00-0000-44.png
00000014,130,0,1447861469893,1447861470506,913,448,0,0,0,2,3,1,5,0003-00-0000-75.png,0002-00-0000-60.png
00000014,131,0,1447861474303,1447861474768,958,528,0,0,0,3,4,1,7,0002-00-0001-55.png,0004-00-0000-38.png
00000014,132,1,1447861478101,1447861478639,932,527,0,0,0,3,2,1,5,0002-00-0000-75.png,0003-00-0000-76.png
00000014,133,1,1447861479662,1447861480653,971,456,0,0,0,3,1,2,4,0002-00-0000-25.png,0005-00-0001-86.png
00000014,134,0,1447861481637,1447861482232,962,465,0,0,0,0,1,1,1,0001-00-0000-92.png,0005-00-0000-51.png
00000014,135,0,1447861485674,1447861486156,393,401,0,0,0,4,2,2,6,0004-00-0001-59.png,0003-00-0000-43.png
00000014,136,1,1447861489442,1447861489954,401,387,0,0,0,1,2,1,3,0005-00-0000-17.png,0003-00-0001-46.png
00000014,137,0,1447861491021,1447861491544,899,410,0,0,0,1,3,2,4,0005-00-0001-89.png,0002-00-0000-46.png
00000014,138,1,1447861494438,1447861494881,395,437,0,0,0,0,3,3,3,0001-00-0001-59.png,0002-00-0001-66.png
00000014,139,1,1447861496011,1447861496504,940,449,0,0,0,2,0,2,2,0003-00-0000-35.png,0001-00-0000-36.png
00000014,140,1,1447861497542,1447861498085,877,523,0,0,0,4,1,3,5,0004-00-0000-51.png,0005-00-0000-32.png
00000014,141,0,1447861499103,1447861499795,889,521,0,0,0,1,3,2,4,0005-00-0000-06.png,0002-00-0000-54.png
00000014,142,0,1447861503297,1447861503787,410,444,0,0,0,3,2,1,5,0002-00-0001-57.png,0003-00-0000-37.png
00000014,143,1,1447861507738,1447861508211,900,540,0,0,0,2,0,2,2,0003-00-0001-86.png,0001-00-0001-35.png
00000014,144,1,1447861509127,1447861509731,946,472,0,0,0,4,1,3,5,0004-00-0000-89.png,0005-00-0000-14.png
00000014,145,0,1447861510717,1447861511221,401,474,0,0,0,4,2,2,6,0004-00-0001-82.png,0003-00-0001-18.png
00000014,146,1,1447861514379,1447861514852,891,535,0,0,0,3,1,2,4,0002-00-0001-09.png,0005-00-0001-25.png
00000014,147,1,1447861515908,1447861516360,376,448,0,0,0,0,2,2,2,0001-00-0001-47.png,0003-00-0001-48.png
00000014,148,1,1447861517677,1447861518150,411,468,0,0,0,0,4,4,4,0001-00-0000-00.png,0004-00-0001-36.png
00000014,149,1,1447861519215,1447861519673,388,449,0,0,0,1,2,1,3,0005-00-0001-68.png,0003-00-0001-12.png
00000014,150,0,1447861520628,1447861521335,958,448,0,0,0,3,4,1,7,0002-00-0001-31.png,0004-00-0000-74.png
00000014,151,1,1447861524799,1447861525398,407,504,0,0,0,1,4,3,5,0005-00-0000-58.png,0004-00-0000-36.png
00000014,152,1,1447861526492,1447861526964,385,470,0,0,0,0,1,1,1,0001-00-0001-29.png,0005-00-0000-81.png
00000014,153,1,1447861527959,1447861528697,953,466,0,0,0,4,3,1,7,0004-00-0000-64.png,0002-00-0001-12.png
00000014,154,1,1447861529703,1447861530218,923,456,0,0,0,2,1,1,3,0003-00-0000-14.png,0005-00-0001-15.png
00000014,155,0,1447861531233,1447861531637,436,453,0,0,0,3,0,3,3,0002-00-0000-51.png,0001-00-0000-40.png
00000014,156,1,1447861534553,1447861535098,400,511,0,0,0,0,3,3,3,0001-00-0000-35.png,0002-00-0001-14.png
00000014,157,0,1447861536150,1447861536716,953,468,0,0,0,2,4,2,6,0003-00-0001-68.png,0004-00-0000-76.png
00000014,158,0,1447861539871,1447861540427,374,400,0,0,0,4,0,4,4,0004-00-0000-55.png,0001-00-0000-97.png
00000014,159,1,1447861543963,1447861544483,976,434,0,0,0,1,0,1,1,0005-00-0000-70.png,0001-00-0001-40.png
00000014,160,0,1447861545658,1447861546274,927,450,0,0,0,2,3,1,5,0003-00-0001-02.png,0002-00-0001-40.png
00000014,161,0,1447861549210,1447861549820,918,509,0,0,0,3,4,1,7,0002-00-0000-97.png,0004-00-0000-66.png
00000014,162,1,1447861552822,1447861553306,437,405,0,0,0,0,1,1,1,0001-00-0000-15.png,0005-00-0000-03.png
00000014,163,1,1447861554371,1447861554939,938,476,0,0,0,3,0,3,3,0002-00-0001-74.png,0001-00-0001-97.png
00000014,164,1,1447861556144,1447861556699,923,431,0,0,0,2,0,2,2,0003-00-0001-53.png,0001-00-0001-77.png
00000014,165,1,1447861557660,1447861558270,900,423,0,0,0,3,1,2,4,0002-00-0000-10.png,0005-00-0000-81.png
00000014,166,0,1447861559249,1447861559653,445,475,0,0,0,4,1,3,5,0004-00-0000-48.png,0005-00-0000-09.png
00000014,167,1,1447861562669,1447861563212,361,394,0,0,0,1,2,1,3,0005-00-0000-08.png,0003-00-0001-66.png
00000014,168,1,1447861564259,1447861564654,406,467,0,0,0,0,2,2,2,0001-00-0000-38.png,0003-00-0000-08.png
00000014,169,1,1447861565650,1447861566182,942,460,0,0,0,4,0,4,4,0004-00-0001-12.png,0001-00-0001-89.png
00000014,170,0,1447861567190,1447861567795,901,462,0,0,0,2,4,2,6,0003-00-0001-53.png,0004-00-0001-20.png
00000014,171,1,1447861571652,1447861572190,378,530,0,0,0,0,3,3,3,0001-00-0000-62.png,0002-00-0000-98.png
00000014,172,0,1447861573413,1447861573946,948,457,0,0,0,2,3,1,5,0003-00-0000-51.png,0002-00-0000-00.png
00000014,173,1,1447861576933,1447861577403,325,384,0,0,0,1,4,3,5,0005-00-0001-20.png,0004-00-0000-27.png
00000014,174,1,1447861578533,1447861579118,951,463,0,0,0,2,1,1,3,0003-00-0000-80.png,0005-00-0001-75.png
00000014,175,0,1447861580081,1447861580797,363,450,0,0,0,4,2,2,6,0004-00-0001-38.png,0003-00-0000-22.png
00000014,176,1,1447861583966,1447861584435,975,460,0,0,0,1,0,1,1,0005-00-0001-75.png,0001-00-0000-89.png
00000014,177,1,1447861585479,1447861586104,898,536,0,0,0,3,2,1,5,0002-00-0000-49.png,0003-00-0000-54.png
00000014,178,1,1447861587240,1447861587928,349,418,0,0,0,1,3,2,4,0005-00-0001-40.png,0002-00-0000-17.png
00000014,179,1,1447861589027,1447861589459,402,458,0,0,0,0,4,4,4,0001-00-0000-33.png,0004-00-0000-12.png
00000014,180,1,1447861590519,1447861591103,947,471,0,0,0,4,3,1,7,0004-00-0001-92.png,0002-00-0001-67.png
00000014,181,1,1447861592299,1447861592875,947,471,0,0,0,3,0,3,3,0002-00-0001-30.png,0001-00-0000-66.png
00000014,182,0,1447861593855,1447861594586,927,476,0,0,0,2,4,2,6,0003-00-0000-83.png,0004-00-0000-70.png
00000014,183,1,1447861598428,1447861598978,895,550,0,0,0,3,2,1,5,0002-00-0000-05.png,0003-00-0001-06.png
00000014,184,1,1447861600137,1447861600732,940,474,0,0,0,2,0,2,2,0003-00-0000-68.png,0001-00-0000-84.png
00000014,185,0,1447861601645,1447861602204,902,436,0,0,0,0,1,1,1,0001-00-0001-89.png,0005-00-0001-18.png
00000014,186,1,1447861605336,1447861605790,411,400,0,0,0,3,4,1,7,0002-00-0000-52.png,0004-00-0000-82.png
00000014,187,1,1447861606946,1447861607416,398,436,0,0,0,0,3,3,3,0001-00-0000-31.png,0002-00-0000-10.png
00000014,188,0,1447861608398,1447861609086,913,384,0,0,0,1,3,2,4,0005-00-0000-98.png,0002-00-0001-05.png
00000014,189,1,1447861611972,1447861612466,950,432,0,0,0,4,2,2,6,0004-00-0001-37.png,0003-00-0000-79.png
00000014,190,1,1447861613507,1447861613878,431,452,0,0,0,0,2,2,2,0001-00-0001-55.png,0003-00-0001-80.png
00000014,191,1,1447861615126,1447861615690,902,469,0,0,0,3,1,2,4,0002-00-0000-11.png,0005-00-0000-87.png
00000014,192,1,1447861616798,1447861617205,388,467,0,0,0,0,4,4,4,0001-00-0001-45.png,0004-00-0001-08.png
00000014,193,1,1447861618246,1447861618783,916,444,0,0,0,4,1,3,5,0004-00-0000-27.png,0005-00-0000-99.png
00000014,194,1,1447861619918,1447861620494,914,449,0,0,0,4,3,1,7,0004-00-0001-70.png,0002-00-0001-30.png
00000014,195,1,1447861621547,1447861622120,883,473,0,0,0,4,0,4,4,0004-00-0001-36.png,0001-00-0001-08.png
00000014,196,1,1447861623181,1447861623781,875,475,0,0,0,1,0,1,1,0005-00-0001-90.png,0001-00-0001-01.png
00000014,197,1,1447861625023,1447861625574,866,563,0,0,0,2,1,1,3,0003-00-0000-88.png,0005-00-0001-97.png
00000014,198,0,1447861626617,1447861627186,898,483,0,0,0,2,3,1,5,0003-00-0000-19.png,0002-00-0000-88.png
00000014,199,0,1447861631597,1447861632095,934,472,0,0,0,1,4,3,5,0005-00-0001-51.png,0004-00-0001-81.png
00000014,200,1,1447861635162,1447861635689,379,400,0,0,0,1,2,1,3,0005-00-0001-81.png,0003-00-0000-87.png
00000014,201,0,1447861637122,1447861637645,874,562,0,0,0,0,4,4,4,0001-00-0001-78.png,0004-00-0001-63.png
00000014,202,0,1447861641133,1447861641799,417,370,0,0,0,4,2,2,6,0004-00-0001-12.png,0003-00-0000-99.png
00000014,203,0,1447861645002,1447861645496,918,520,0,0,0,2,3,1,5,0003-00-0001-53.png,0002-00-0001-72.png
00000014,204,1,1447861648609,1447861649266,389,348,0,0,0,2,4,2,6,0003-00-0000-48.png,0004-00-0000-53.png
00000014,205,0,1447861650467,1447861650977,404,433,0,0,0,1,0,1,1,0005-00-0001-32.png,0001-00-0000-88.png
00000014,206,1,1447861654284,1447861654850,870,443,0,0,0,4,1,3,5,0004-00-0001-37.png,0005-00-0000-55.png
00000014,207,1,1447861656193,1447861656776,888,410,0,0,0,2,1,1,3,0003-00-0001-59.png,0005-00-0000-63.png
00000014,208,1,1447861657763,1447861658347,427,447,0,0,0,1,4,3,5,0005-00-0000-59.png,0004-00-0001-32.png
00000014,209,0,1447861659602,1447861660180,351,433,0,0,0,3,0,3,3,0002-00-0000-95.png,0001-00-0000-17.png
00000014,210,0,1447861663244,1447861663743,949,469,0,0,0,0,1,1,1,0001-00-0000-22.png,0005-00-0000-24.png
00000014,211,0,1447861667170,1447861667564,879,401,0,0,0,1,3,2,4,0005-00-0000-08.png,0002-00-0000-74.png
00000014,212,1,1447861671111,1447861671754,925,502,0,0,0,3,2,1,5,0002-00-0000-72.png,0003-00-0001-17.png
00000014,213,1,1447861673141,1447861673684,926,449,0,0,0,3,1,2,4,0002-00-0000-75.png,0005-00-0001-68.png
00000014,214,1,1447861674877,1447861675347,391,463,0,0,0,0,3,3,3,0001-00-0001-88.png,0002-00-0001-75.png
00000014,215,0,1447861676746,1447861677471,909,476,0,0,0,3,4,1,7,0002-00-0001-81.png,0004-00-0000-83.png
00000014,216,1,1447861680721,1447861681238,925,541,0,0,0,4,0,4,4,0004-00-0000-20.png,0001-00-0001-62.png
00000014,217,1,1447861682478,1447861683081,923,432,0,0,0,2,0,2,2,0003-00-0001-57.png,0001-00-0001-10.png
00000014,218,1,1447861684206,1447861684602,373,425,0,0,0,0,2,2,2,0001-00-0001-79.png,0003-00-0001-67.png
00000014,219,1,1447861685843,1447861686408,902,469,0,0,0,4,3,1,7,0004-00-0001-77.png,0002-00-0000-09.png
00000014,220,0,1447861687488,1447861688150,927,410,0,0,0,1,2,1,3,0005-00-0000-87.png,0003-00-0001-65.png
00000014,221,1,1447861691765,1447861692242,415,529,0,0,0,0,3,3,3,0001-00-0001-05.png,0002-00-0001-52.png
00000014,222,0,1447861693395,1447861693929,944,484,0,0,0,1,3,2,4,0005-00-0000-20.png,0002-00-0000-81.png
00000014,223,1,1447861697071,1447861697675,950,431,0,0,0,4,1,3,5,0004-00-0001-91.png,0005-00-0001-36.png
00000014,224,1,1447861698759,1447861699326,914,475,0,0,0,4,3,1,7,0004-00-0001-21.png,0002-00-0001-19.png
00000014,225,1,1447861700471,1447861700912,464,479,0,0,0,2,3,1,5,0003-00-0001-79.png,0002-00-0000-71.png
00000014,226,0,1447861701923,1447861702679,898,413,0,0,0,1,4,3,5,0005-00-0001-78.png,0004-00-0000-44.png
00000014,227,0,1447861706804,1447861707305,937,474,0,0,0,3,4,1,7,0002-00-0001-01.png,0004-00-0001-74.png
00000014,228,0,1447861710396,1447861710949,369,377,0,0,0,3,1,2,4,0002-00-0001-26.png,0005-00-0001-25.png
00000014,229,1,1447861713918,1447861714401,925,384,0,0,0,1,0,1,1,0005-00-0000-83.png,0001-00-0001-43.png
00000014,230,1,1447861715789,1447861716248,411,500,0,0,0,0,2,2,2,0001-00-0001-91.png,0003-00-0001-08.png
00000014,231,1,1447861717807,1447861718472,907,499,0,0,0,4,2,2,6,0004-00-0001-23.png,0003-00-0001-76.png
00000014,232,0,1447861719544,1447861720241,893,545,0,0,0,1,2,1,3,0005-00-0001-52.png,0003-00-0001-34.png
00000014,233,1,1447861726290,1447861726727,342,377,0,0,0,0,1,1,1,0001-00-0001-05.png,0005-00-0000-38.png
00000014,234,1,1447861727954,1447861728640,977,436,0,0,0,3,2,1,5,0002-00-0000-38.png,0003-00-0000-83.png
00000014,235,0,1447861729771,1447861730264,942,458,0,0,0,2,4,2,6,0003-00-0001-56.png,0004-00-0000-40.png
00000014,236,1,1447861733311,1447861733787,901,547,0,0,0,4,0,4,4,0004-00-0000-39.png,0001-00-0001-27.png
00000014,237,1,1447861734922,1447861735441,952,502,0,0,0,2,1,1,3,0003-00-0001-42.png,0005-00-0001-95.png
00000014,238,1,1447861736540,1447861737260,943,503,0,0,0,3,0,3,3,0002-00-0001-33.png,0001-00-0001-68.png
00000014,239,1,1447861738270,1447861738757,430,454,0,0,0,0,4,4,4,0001-00-0001-58.png,0004-00-0000-16.png
00000014,240,1,1447861739821,1447861740408,898,454,0,0,0,2,0,2,2,0003-00-0000-07.png,0001-00-0001-56.png
00000014,241,0,1447861741630,1447861742306,952,450,0,0,0,1,2,1,3,0005-00-0000-30.png,0003-00-0001-88.png
00000014,242,1,1447861745408,1447861745922,871,392,0,0,0,2,1,1,3,0003-00-0000-09.png,0005-00-0001-36.png
00000014,243,1,1447861747186,1447861747751,913,462,0,0,0,1,0,1,1,0005-00-0000-49.png,0001-00-0001-06.png
00000014,244,1,1447861748814,1447861749392,900,462,0,0,0,3,0,3,3,0002-00-0001-54.png,0001-00-0001-26.png
00000014,245,1,1447861750386,1447861751149,919,467,0,0,0,4,2,2,6,0004-00-0000-09.png,0003-00-0000-30.png
00000014,246,0,1447861752206,1447861752765,899,457,0,0,0,2,4,2,6,0003-00-0001-14.png,0004-00-0000-56.png
00000014,247,1,1447861755982,1447861756440,940,448,0,0,0,4,3,1,7,0004-00-0000-13.png,0002-00-0001-33.png
00000014,248,0,1447861757584,1447861758040,435,483,0,0,0,3,1,2,4,0002-00-0001-93.png,0005-00-0001-41.png
00000014,249,0,1447861760990,1447861761738,939,449,0,0,0,1,3,2,4,0005-00-0000-69.png,0002-00-0001-02.png
00000014,250,1,1447861765350,1447861765819,966,474,0,0,0,4,1,3,5,0004-00-0001-07.png,0005-00-0000-61.png
00000014,251,0,1447861767243,1447861767704,406,475,0,0,0,3,2,1,5,0002-00-0001-32.png,0003-00-0001-39.png
00000014,252,0,1447861771148,1447861771663,977,476,0,0,0,0,4,4,4,0001-00-0000-90.png,0004-00-0001-61.png
00000014,253,1,1447861775013,1447861775514,937,424,0,0,0,2,0,2,2,0003-00-0001-81.png,0001-00-0001-68.png
00000014,254,1,1447861776929,1447861777545,340,444,0,0,0,0,2,2,2,0001-00-0001-45.png,0003-00-0000-51.png
00000014,255,0,1447861778652,1447861779356,951,475,0,0,0,0,3,3,3,0001-00-0001-64.png,0002-00-0000-70.png
00000014,256,1,1447861783970,1447861784512,978,449,0,0,0,4,0,4,4,0004-00-0000-88.png,0001-00-0000-73.png
00000014,257,0,1447861785819,1447861786601,888,475,0,0,0,3,4,1,7,0002-00-0000-55.png,0004-00-0000-83.png
00000014,258,0,1447861789523,1447861790206,946,424,0,0,0,0,1,1,1,0001-00-0000-64.png,0005-00-0000-12.png
00000014,259,0,1447861797428,1447861797852,922,393,0,0,0,2,3,1,5,0003-00-0000-58.png,0002-00-0000-65.png
00000014,260,1,1447861804836,1447861805412,376,366,0,0,0,1,4,3,5,0005-00-0001-42.png,0004-00-0001-01.png
00000014,261,1,1447861806540,1447861807129,918,468,0,0,0,2,0,2,2,0003-00-0001-35.png,0001-00-0000-17.png
00000014,262,1,1447861808158,1447861808634,375,429,0,0,0,0,1,1,1,0001-00-0001-09.png,0005-00-0001-05.png
00000014,263,1,1447861809560,1447861810154,903,493,0,0,0,1,0,1,1,0005-00-0001-64.png,0001-00-0001-15.png
00000014,264,1,1447861811098,1447861811748,926,436,0,0,0,4,3,1,7,0004-00-0001-69.png,0002-00-0001-73.png
00000014,265,1,1447861812709,1447861813119,401,447,0,0,0,3,4,1,7,0002-00-0000-82.png,0004-00-0000-38.png
00000014,266,1,1447861814150,1447861815456,931,470,0,0,0,2,1,1,3,0003-00-0000-58.png,0005-00-0001-46.png
00000014,267,1,1447861816459,1447861817116,913,501,0,0,0,4,0,4,4,0004-00-0001-44.png,0001-00-0000-83.png
00000014,268,1,1447861818108,1447861818601,925,463,0,0,0,3,0,3,3,0002-00-0001-33.png,0001-00-0000-85.png
00000014,269,1,1447861819657,1447861820087,411,463,0,0,0,0,2,2,2,0001-00-0000-64.png,0003-00-0000-27.png
00000014,270,0,1447861821128,1447861821716,407,501,0,0,0,3,1,2,4,0002-00-0001-04.png,0005-00-0000-01.png
00000014,271,1,1447861826417,1447861826981,923,484,0,0,0,4,1,3,5,0004-00-0000-75.png,0005-00-0000-80.png
00000014,272,1,1447861828103,1447861828651,926,450,0,0,0,3,2,1,5,0002-00-0001-19.png,0003-00-0000-30.png
00000014,273,1,1447861829774,1447861830203,410,497,0,0,0,0,3,3,3,0001-00-0001-09.png,0002-00-0001-87.png
00000014,274,0,1447861831263,1447861831907,935,500,0,0,0,2,3,1,5,0003-00-0001-68.png,0002-00-0000-30.png
00000014,275,1,1447861835281,1447861835767,411,547,0,0,0,0,4,4,4,0001-00-0001-74.png,0004-00-0000-96.png
00000014,276,1,1447861837128,1447861837616,396,445,0,0,0,1,2,1,3,0005-00-0000-18.png,0003-00-0000-54.png
00000014,277,1,1447861838697,1447861839153,441,467,0,0,0,1,3,2,4,0005-00-0000-79.png,0002-00-0000-31.png
00000014,278,1,1447861840150,1447861840767,880,505,0,0,0,4,2,2,6,0004-00-0000-33.png,0003-00-0000-60.png
00000014,279,1,1447861841839,1447861842299,423,469,0,0,0,1,4,3,5,0005-00-0000-33.png,0004-00-0001-94.png
00000014,280,0,1447861843250,1447861843846,899,490,0,0,0,2,4,2,6,0003-00-0000-87.png,0004-00-0001-31.png
00000014,281,0,1447861847405,1447861847899,939,449,0,0,0,0,2,2,2,0001-00-0001-76.png,0003-00-0001-79.png
00000014,282,1,1447861850812,1447861851309,927,474,0,0,0,4,1,3,5,0004-00-0000-47.png,0005-00-0000-87.png
00000014,283,1,1447861852373,1447861852911,369,438,0,0,0,3,4,1,7,0002-00-0000-21.png,0004-00-0000-68.png
00000014,284,0,1447861853924,1447861854379,434,454,0,0,0,4,2,2,6,0004-00-0000-15.png,0003-00-0000-63.png
00000014,285,1,1447861857563,1447861858127,937,472,0,0,0,3,1,2,4,0002-00-0001-62.png,0005-00-0000-28.png
00000014,286,1,1447861859351,1447861859985,871,470,0,0,0,2,1,1,3,0003-00-0000-14.png,0005-00-0001-14.png
00000014,287,0,1447861860960,1447861861523,922,471,0,0,0,2,4,2,6,0003-00-0000-62.png,0004-00-0001-21.png
00000014,288,1,1447861865252,1447861865798,393,404,0,0,0,1,2,1,3,0005-00-0001-61.png,0003-00-0001-52.png
00000014,289,1,1447861866904,1447861867504,966,450,0,0,0,3,2,1,5,0002-00-0000-01.png,0003-00-0000-97.png
00000014,290,1,1447861868693,1447861869249,899,481,0,0,0,2,0,2,2,0003-00-0000-96.png,0001-00-0001-82.png
00000014,291,0,1447861870353,1447861870986,943,539,0,0,0,1,3,2,4,0005-00-0001-07.png,0002-00-0000-98.png
00000014,292,1,1447861874109,1447861874549,387,554,0,0,0,0,4,4,4,0001-00-0000-64.png,0004-00-0000-68.png
00000014,293,1,1447861875621,1447861876166,938,488,0,0,0,4,0,4,4,0004-00-0000-62.png,0001-00-0000-49.png
00000014,294,0,1447861877240,1447861877797,901,487,0,0,0,2,3,1,5,0003-00-0001-77.png,0002-00-0000-65.png
00000014,295,1,1447861881038,1447861881533,903,384,0,0,0,3,0,3,3,0002-00-0001-12.png,0001-00-0000-72.png
00000014,296,0,1447861882927,1447861883663,900,436,0,0,0,0,3,3,3,0001-00-0001-98.png,0002-00-0001-33.png
00000014,297,1,1447861887638,1447861888110,442,440,0,0,0,1,4,3,5,0005-00-0001-11.png,0004-00-0000-02.png
00000014,298,1,1447861889207,1447861889700,859,552,0,0,0,4,3,1,7,0004-00-0001-13.png,0002-00-0000-91.png
00000014,299,1,1447861890778,1447861891329,903,410,0,0,0,1,0,1,1,0005-00-0001-12.png,0001-00-0001-50.png
00000014,300,0,1447861892339,1447861892912,899,464,0,0,0,0,1,1,1,0001-00-0000-43.png,0005-00-0001-78.png
00000014,301,1,1447861895845,1447861896320,384,419,0,0,0,3,4,1,7,0002-00-0000-84.png,0004-00-0000-20.png
00000014,302,1,1447861897447,1447861898004,927,487,0,0,0,4,0,4,4,0004-00-0001-57.png,0001-00-0000-54.png
00000014,303,1,1447861899105,1447861899648,435,543,0,0,0,0,4,4,4,0001-00-0001-31.png,0004-00-0000-06.png
00000014,304,1,1447861900687,1447861901157,340,437,0,0,0,0,2,2,2,0001-00-0000-71.png,0003-00-0001-57.png
00000014,305,1,1447861902151,1447861902748,857,443,0,0,0,3,0,3,3,0002-00-0001-93.png,0001-00-0001-82.png
00000014,306,1,1447861903787,1447861904407,359,418,0,0,0,0,3,3,3,0001-00-0001-41.png,0002-00-0001-83.png
00000014,307,1,1447861905515,1447861906072,862,436,0,0,0,3,1,2,4,0002-00-0001-84.png,0005-00-0000-94.png
00000014,308,0,1447861907177,1447861907829,916,452,0,0,0,2,3,1,5,0003-00-0000-56.png,0002-00-0001-16.png
00000014,309,1,1447861911432,1447861911943,899,384,0,0,0,2,1,1,3,0003-00-0001-04.png,0005-00-0000-94.png
00000014,310,1,1447861913088,1447861913540,391,474,0,0,0,1,2,1,3,0005-00-0001-92.png,0003-00-0000-70.png
00000014,311,0,1447861914520,1447861915086,406,459,0,0,0,4,3,1,7,0004-00-0000-23.png,0002-00-0001-67.png
00000014,312,1,1447861920234,1447861920824,957,470,0,0,0,4,2,2,6,0004-00-0001-50.png,0003-00-0000-76.png
00000014,313,1,1447861921944,1447861922395,437,511,0,0,0,2,4,2,6,0003-00-0000-00.png,0004-00-0000-71.png
00000014,314,1,1447861923394,1447861923832,351,483,0,0,0,1,4,3,5,0005-00-0001-63.png,0004-00-0001-92.png
00000014,315,1,1447861924936,1447861925460,898,483,0,0,0,2,0,2,2,0003-00-0001-74.png,0001-00-0000-83.png
00000014,316,0,1447861926706,1447861927288,927,436,0,0,0,1,3,2,4,0005-00-0000-42.png,0002-00-0000-69.png
00000014,317,1,1447861930374,1447861930932,949,487,0,0,0,4,1,3,5,0004-00-0001-39.png,0005-00-0000-65.png
00000014,318,1,1447861932073,1447861932525,391,469,0,0,0,0,1,1,1,0001-00-0000-55.png,0005-00-0000-38.png
00000014,319,1,1447861933599,1447861934128,931,480,0,0,0,1,0,1,1,0005-00-0001-89.png,0001-00-0001-80.png
00000014,320,0,1447861935096,1447861935572,424,473,0,0,0,3,2,1,5,0002-00-0000-43.png,0003-00-0001-24.png
00000014,321,1,1447861939099,1447861939531,950,457,0,0,0,2,1,1,3,0003-00-0001-56.png,0005-00-0000-72.png
00000014,322,1,1447861940627,1447861941140,901,487,0,0,0,4,0,4,4,0004-00-0001-50.png,0001-00-0000-15.png
00000014,323,1,1447861942218,1447861942798,953,494,0,0,0,4,1,3,5,0004-00-0001-40.png,0005-00-0000-77.png
00000014,324,1,1447861943779,1447861944306,926,488,0,0,0,2,0,2,2,0003-00-0000-65.png,0001-00-0001-42.png
00000014,325,1,1447861945240,1447861945878,914,484,0,0,0,3,0,3,3,0002-00-0001-78.png,0001-00-0000-83.png
00000014,326,0,1447861947069,1447861947622,893,469,0,0,0,2,3,1,5,0003-00-0001-45.png,0002-00-0000-50.png
00000014,327,0,1447861952043,1447861952545,913,410,0,0,0,1,3,2,4,0005-00-0000-76.png,0002-00-0001-54.png
00000014,328,1,1447861955705,1447861956234,950,456,0,0,0,1,0,1,1,0005-00-0001-04.png,0001-00-0001-73.png
00000014,329,0,1447861957653,1447861958344,905,479,0,0,0,3,4,1,7,0002-00-0001-91.png,0004-00-0000-27.png
00000014,330,1,1447861961282,1447861961757,892,407,0,0,0,4,2,2,6,0004-00-0001-60.png,0003-00-0001-59.png
00000014,331,1,1447861962804,1447861963272,376,462,0,0,0,0,4,4,4,0001-00-0001-04.png,0004-00-0001-11.png
00000014,332,0,1447861964334,1447861964898,898,481,0,0,0,2,4,2,6,0003-00-0001-92.png,0004-00-0001-14.png
00000014,333,1,1447861968718,1447861969262,376,410,0,0,0,1,2,1,3,0005-00-0000-97.png,0003-00-0000-65.png
00000014,334,1,1447861970575,1447861971573,335,414,0,0,0,0,2,2,2,0001-00-0000-34.png,0003-00-0000-95.png
00000014,335,0,1447861972633,1447861973103,422,468,0,0,0,3,1,2,4,0002-00-0000-99.png,0005-00-0001-80.png
00000014,336,0,1447861976398,1447861976888,922,471,0,0,0,0,1,1,1,0001-00-0000-79.png,0005-00-0000-22.png
00000014,337,0,1447861980276,1447861980791,436,548,0,0,0,4,3,1,7,0004-00-0001-06.png,0002-00-0000-90.png
00000014,338,1,1447861983755,1447861984372,342,401,0,0,0,1,4,3,5,0005-00-0000-45.png,0004-00-0000-25.png
00000014,339,1,1447861985534,1447861986077,404,437,0,0,0,0,3,3,3,0001-00-0001-51.png,0002-00-0001-27.png
00000014,340,1,1447861987154,1447861987798,950,490,0,0,0,3,2,1,5,0002-00-0001-13.png,0003-00-0000-94.png
00000014,341,1,1447861988914,1447861989505,376,541,0,0,0,1,4,3,5,0005-00-0001-90.png,0004-00-0000-53.png
00000014,342,0,1447861990513,1447861990917,423,472,0,0,0,3,2,1,5,0002-00-0000-51.png,0003-00-0000-74.png
00000014,343,0,1447861994173,1447861994749,956,466,0,0,0,1,3,2,4,0005-00-0001-19.png,0002-00-0000-99.png
00000014,344,0,1447861997818,1447861998295,940,475,0,0,0,0,1,1,1,0001-00-0000-88.png,0005-00-0001-90.png
00000014,345,1,1447862001555,1447862002190,938,498,0,0,0,4,0,4,4,0004-00-0001-25.png,0001-00-0000-36.png
00000014,346,1,1447862003353,1447862003913,950,486,0,0,0,4,3,1,7,0004-00-0000-42.png,0002-00-0000-95.png
00000014,347,1,1447862005015,1447862005557,925,449,0,0,0,2,0,2,2,0003-00-0000-02.png,0001-00-0000-28.png
00000014,348,1,1447862006646,1447862007171,943,465,0,0,0,1,0,1,1,0005-00-0000-47.png,0001-00-0001-19.png
00000014,349,1,1447862008619,1447862009263,869,550,0,0,0,4,1,3,5,0004-00-0000-34.png,0005-00-0001-92.png
00000014,350,0,1447862010293,1447862010847,913,501,0,0,0,2,3,1,5,0003-00-0001-10.png,0002-00-0000-81.png
00000014,351,0,1447862016236,1447862016724,944,455,0,0,0,1,2,1,3,0005-00-0000-06.png,0003-00-0001-59.png
00000014,352,1,1447862019741,1447862020204,954,468,0,0,0,3,0,3,3,0002-00-0001-94.png,0001-00-0000-78.png
00000014,353,0,1447862021186,1447862021831,907,499,0,0,0,2,4,2,6,0003-00-0000-24.png,0004-00-0000-04.png
00000014,354,1,1447862025279,1447862025744,384,445,0,0,0,0,2,2,2,0001-00-0001-31.png,0003-00-0001-98.png
00000014,355,1,1447862026904,1447862027376,339,474,0,0,0,0,3,3,3,0001-00-0000-70.png,0002-00-0000-82.png
00000014,356,1,1447862028470,1447862029137,918,494,0,0,0,4,2,2,6,0004-00-0001-74.png,0003-00-0001-56.png
00000014,357,0,1447862030232,1447862030819,939,552,0,0,0,3,4,1,7,0002-00-0000-01.png,0004-00-0001-16.png
00000014,358,1,1447862034413,1447862034937,373,394,0,0,0,0,4,4,4,0001-00-0000-14.png,0004-00-0000-37.png
00000014,359,1,1447862036082,1447862036728,909,464,0,0,0,2,1,1,3,0003-00-0000-08.png,0005-00-0000-16.png
00000014,360,0,1447862037841,1447862038327,428,462,0,0,0,3,1,2,4,0002-00-0000-33.png,0005-00-0000-01.png
00000014,361,0,1447862043408,1447862043836,325,420,0,0,0,4,2,2,6,0004-00-0000-63.png,0003-00-0000-56.png
00000014,362,1,1447862047382,1447862047833,441,443,0,0,0,3,4,1,7,0002-00-0000-84.png,0004-00-0001-30.png
00000014,363,1,1447862049192,1447862049675,997,497,0,0,0,2,0,2,2,0003-00-0001-18.png,0001-00-0001-48.png
00000014,364,1,1447862050674,1447862051248,900,475,0,0,0,3,1,2,4,0002-00-0000-59.png,0005-00-0000-28.png
00000014,365,0,1447862052219,1447862052736,875,449,0,0,0,1,3,2,4,0005-00-0001-35.png,0002-00-0001-37.png
00000014,366,1,1447862056418,1447862056934,414,561,0,0,0,0,2,2,2,0001-00-0001-86.png,0003-00-0001-49.png
00000014,367,1,1447862058218,1447862058686,397,467,0,0,0,0,4,4,4,0001-00-0000-96.png,0004-00-0001-09.png
00000014,368,1,1447862059697,1447862060229,914,527,0,0,0,4,3,1,7,0004-00-0001-60.png,0002-00-0001-72.png
00000014,369,1,1447862061207,1447862061723,917,487,0,0,0,4,0,4,4,0004-00-0001-00.png,0001-00-0000-51.png
00000014,370,0,1447862062727,1447862063280,427,449,0,0,0,3,0,3,3,0002-00-0000-16.png,0001-00-0001-68.png
00000014,371,1,1447862066825,1447862067336,952,449,0,0,0,2,1,1,3,0003-00-0001-41.png,0005-00-0000-23.png
00000014,372,1,1447862068497,1447862069055,903,519,0,0,0,4,1,3,5,0004-00-0001-33.png,0005-00-0001-97.png
00000014,373,1,1447862070012,1447862070431,376,475,0,0,0,2,4,2,6,0003-00-0001-68.png,0004-00-0001-45.png
00000014,374,1,1447862071464,1447862072009,477,525,0,0,0,1,2,1,3,0005-00-0000-75.png,0003-00-0000-69.png
00000014,375,1,1447862072984,1447862073526,427,476,0,0,0,0,1,1,1,0001-00-0001-71.png,0005-00-0000-77.png
00000014,376,0,1447862074584,1447862075058,427,502,0,0,0,1,0,1,1,0005-00-0000-77.png,0001-00-0000-03.png
00000014,377,1,1447862079628,1447862080109,935,473,0,0,0,3,2,1,5,0002-00-0001-41.png,0003-00-0000-98.png
00000014,378,0,1447862081292,1447862081755,905,454,0,0,0,1,4,3,5,0005-00-0000-95.png,0004-00-0000-37.png
00000014,379,1,1447862085043,1447862085493,350,386,0,0,0,0,3,3,3,0001-00-0001-82.png,0002-00-0001-34.png
00000014,380,0,1447862086543,1447862087070,923,484,0,0,0,2,3,1,5,0003-00-0000-85.png,0002-00-0001-95.png
00000014,381,0,1447862090641,1447862091160,376,359,0,0,0,2,1,1,3,0003-00-0000-53.png,0005-00-0001-10.png
00000014,382,1,1447862095253,1447862095751,892,482,0,0,0,4,3,1,7,0004-00-0000-96.png,0002-00-0000-07.png
00000014,383,1,1447862096793,1447862097206,402,478,0,0,0,1,4,3,5,0005-00-0001-87.png,0004-00-0000-08.png
00000014,384,1,1447862098131,1447862098860,937,476,0,0,0,3,2,1,5,0002-00-0000-91.png,0003-00-0001-73.png
00000014,385,0,1447862099765,1447862100278,394,423,0,0,0,4,1,3,5,0004-00-0000-69.png,0005-00-0001-03.png
00000014,386,1,1447862103576,1447862104048,404,414,0,0,0,0,4,4,4,0001-00-0001-73.png,0004-00-0001-46.png
00000014,387,0,1447862104987,1447862105583,401,424,0,0,0,3,1,2,4,0002-00-0000-45.png,0005-00-0000-36.png
00000014,388,1,1447862109618,1447862110266,925,439,0,0,0,2,0,2,2,0003-00-0001-31.png,0001-00-0000-44.png
00000014,389,0,1447862111378,1447862111787,445,506,0,0,0,4,2,2,6,0004-00-0000-21.png,0003-00-0000-30.png
00000014,390,1,1447862115057,1447862115564,345,511,0,0,0,0,3,3,3,0001-00-0000-11.png,0002-00-0000-22.png
00000014,391,1,1447862116628,1447862117122,406,449,0,0,0,0,1,1,1,0001-00-0000-82.png,0005-00-0000-30.png
00000014,392,1,1447862118117,1447862118670,902,494,0,0,0,1,0,1,1,0005-00-0000-31.png,0001-00-0001-17.png
00000014,393,0,1447862119637,1447862120103,416,494,0,0,0,4,0,4,4,0004-00-0001-00.png,0001-00-0001-87.png
00000014,394,0,1447862123882,1447862124384,938,412,0,0,0,2,3,1,5,0003-00-0001-84.png,0002-00-0000-23.png
00000014,395,1,1447862127479,1447862127967,898,561,0,0,0,3,0,3,3,0002-00-0000-59.png,0001-00-0001-21.png
00000014,396,1,1447862128890,1447862129317,431,486,0,0,0,3,4,1,7,0002-00-0000-17.png,0004-00-0000-77.png
00000014,397,1,1447862130240,1447862130712,460,471,0,0,0,1,3,2,4,0005-00-0000-28.png,0002-00-0001-64.png
00000014,398,1,1447862131691,1447862132088,415,464,0,0,0,0,2,2,2,0001-00-0000-98.png,0003-00-0000-35.png
00000014,399,1,1447862133044,1447862133602,453,501,0,0,0,2,4,2,6,0003-00-0000-20.png,0004-00-0000-89.png
00000014,400,1,1447862134503,1447862135042,397,419,0,0,0,1,2,1,3,0005-00-0000-03.png,0003-00-0001-55.png
00000014,401,1,1447862135970,1447862140423,357,424,0,0,0,1,2,1,3,0005-00-0001-64.png,0003-00-0001-08.png
00000014,402,0,1447862141454,1447862141877,399,464,0,0,0,4,0,4,4,0004-00-0001-73.png,0001-00-0001-56.png
00000014,403,1,1447862145793,1447862146441,397,393,0,0,0,0,3,3,3,0001-00-0001-52.png,0002-00-0000-12.png
00000014,404,1,1447862147452,1447862148023,923,508,0,0,0,4,1,3,5,0004-00-0001-84.png,0005-00-0000-30.png
00000014,405,1,1447862148861,1447862149431,926,488,0,0,0,4,3,1,7,0004-00-0000-11.png,0002-00-0001-24.png
00000014,406,1,1447862150284,1447862155804,401,346,0,0,0,0,4,4,4,0001-00-0000-97.png,0004-00-0001-03.png
00000014,407,0,1447862157156,1447862157596,416,384,0,0,0,3,2,1,5,0002-00-0001-81.png,0003-00-0001-28.png
00000014,408,1,1447862160509,1447862160559,522,452,0,0,0,0,2,2,2,0001-00-0001-81.png,0003-00-0001-73.png
00000014,409,1,1447862161476,1447862161954,870,445,0,0,0,2,1,1,3,0003-00-0001-34.png,0005-00-0000-65.png
00000014,410,0,1447862162786,1447862163451,399,391,0,0,0,3,1,2,4,0002-00-0001-32.png,0005-00-0000-83.png
00000014,411,1,1447862170963,1447862171383,376,371,0,0,0,3,4,1,7,0002-00-0001-20.png,0004-00-0000-04.png
00000014,412,0,1447862172407,1447862172978,879,453,0,0,0,2,3,1,5,0003-00-0000-91.png,0002-00-0001-18.png
00000014,413,0,1447862176255,1447862176720,950,483,0,0,0,1,3,2,4,0005-00-0000-71.png,0002-00-0001-81.png
00000014,414,1,1447862179569,1447862179986,901,528,0,0,0,2,0,2,2,0003-00-0001-51.png,0001-00-0000-77.png
00000014,415,0,1447862181231,1447862181789,901,449,0,0,0,2,4,2,6,0003-00-0000-26.png,0004-00-0001-68.png
00000014,416,0,1447862186221,1447862187268,344,347,0,0,0,4,2,2,6,0004-00-0001-04.png,0003-00-0000-16.png
00000014,417,1,1447862191170,1447862191720,398,413,0,0,0,0,1,1,1,0001-00-0001-32.png,0005-00-0000-53.png
00000014,418,1,1447862192831,1447862193291,367,447,0,0,0,1,4,3,5,0005-00-0000-83.png,0004-00-0000-47.png
00000014,419,1,1447862194168,1447862195179,937,416,0,0,0,3,0,3,3,0002-00-0001-76.png,0001-00-0000-75.png
00000014,420,1,1447862196058,1447862196680,921,472,0,0,0,1,0,1,1,0005-00-0000-07.png,0001-00-0000-83.png
00000014,421,1,1447862197590,1447862198297,900,488,0,0,0,4,2,2,6,0004-00-0001-64.png,0003-00-0001-03.png
00000014,422,0,1447862199200,1447862199829,365,346,0,0,0,2,1,1,3,0003-00-0001-43.png,0005-00-0000-47.png
00000014,423,0,1447862205497,1447862205916,901,384,0,0,0,2,4,2,6,0003-00-0000-32.png,0004-00-0001-77.png
00000014,424,1,1447862210079,1447862210546,453,408,0,0,0,0,3,3,3,0001-00-0000-07.png,0002-00-0000-65.png
00000014,425,1,1447862211713,1447862212223,936,477,0,0,0,4,0,4,4,0004-00-0001-50.png,0001-00-0001-30.png
00000014,426,1,1447862213261,1447862213783,901,540,0,0,0,2,0,2,2,0003-00-0000-88.png,0001-00-0001-60.png
00000014,427,1,1447862214681,1447862215234,422,440,0,0,0,3,4,1,7,0002-00-0000-69.png,0004-00-0001-95.png
00000014,428,1,1447862216144,1447862216600,384,560,0,0,0,0,2,2,2,0001-00-0001-67.png,0003-00-0001-20.png
00000014,429,1,1447862217470,1447862218103,901,514,0,0,0,3,1,2,4,0002-00-0000-02.png,0005-00-0000-45.png
00000014,430,1,1447862219083,1447862219557,393,454,0,0,0,0,4,4,4,0001-00-0001-48.png,0004-00-0000-52.png
00000014,431,1,1447862220464,1447862220861,376,450,0,0,0,0,1,1,1,0001-00-0000-66.png,0005-00-0001-17.png
00000014,432,0,1447862221834,1447862222356,427,488,0,0,0,1,0,1,1,0005-00-0000-72.png,0001-00-0000-37.png
00000014,433,0,1447862226735,1447862227409,429,382,0,0,0,4,3,1,7,0004-00-0001-00.png,0002-00-0000-27.png
00000014,434,1,1447862232326,1447862232881,956,480,0,0,0,4,1,3,5,0004-00-0001-15.png,0005-00-0000-40.png
00000014,435,0,1447862233938,1447862234424,369,450,0,0,0,3,2,1,5,0002-00-0000-00.png,0003-00-0000-50.png
00000014,436,1,1447862237564,1447862238807,409,367,0,0,0,1,2,1,3,0005-00-0000-00.png,0003-00-0001-16.png
00000014,437,0,1447862239985,1447862240487,945,482,0,0,0,2,3,1,5,0003-00-0000-56.png,0002-00-0001-65.png
00000014,438,1,1447862247064,1447862247458,409,392,0,0,0,1,4,3,5,0005-00-0000-10.png,0004-00-0000-09.png
00000014,439,0,1447862248373,1447862249005,879,453,0,0,0,1,3,2,4,0005-00-0000-25.png,0002-00-0001-56.png
00000014,440,1,1447862252915,1447862253440,940,426,0,0,0,3,0,3,3,0002-00-0001-67.png,0001-00-0001-94.png
00000014,441,1,1447862254662,1447862255240,925,509,0,0,0,4,3,1,7,0004-00-0001-02.png,0002-00-0001-71.png
00000014,442,1,1447862256180,1447862256757,873,437,0,0,0,4,0,4,4,0004-00-0000-65.png,0001-00-0001-69.png
00000014,443,0,1447862257685,1447862258382,874,411,0,0,0,0,4,4,4,0001-00-0000-43.png,0004-00-0001-29.png
00000014,444,1,1447862261470,1447862262054,940,494,0,0,0,4,1,3,5,0004-00-0000-35.png,0005-00-0001-89.png
00000014,445,1,1447862263178,1447862263672,366,480,0,0,0,0,1,1,1,0001-00-0001-83.png,0005-00-0001-23.png
00000014,446,1,1447862264783,1447862265318,926,476,0,0,0,3,0,3,3,0002-00-0000-37.png,0001-00-0001-25.png
00000014,447,1,1447862266303,1447862266768,384,455,0,0,0,1,2,1,3,0005-00-0000-63.png,0003-00-0000-79.png
00000014,448,0,1447862267744,1447862268427,939,447,0,0,0,1,4,3,5,0005-00-0000-86.png,0004-00-0000-53.png
00000014,449,0,1447862273634,1447862274220,948,436,0,0,0,0,3,3,3,0001-00-0001-83.png,0002-00-0000-02.png
00000014,450,1,1447862280739,1447862281206,966,464,0,0,0,3,2,1,5,0002-00-0000-75.png,0003-00-0000-81.png
00000014,451,1,1447862282196,1447862282955,907,553,0,0,0,2,1,1,3,0003-00-0001-83.png,0005-00-0001-12.png
00000014,452,0,1447862283918,1447862284437,895,445,0,0,0,2,4,2,6,0003-00-0001-09.png,0004-00-0000-19.png
00000014,453,0,1447862288159,1447862288631,427,462,0,0,0,4,2,2,6,0004-00-0000-59.png,0003-00-0001-49.png
00000014,454,1,1447862291757,1447862292270,899,490,0,0,0,1,0,1,1,0005-00-0001-08.png,0001-00-0001-52.png
00000014,455,1,1447862293421,1447862293910,951,501,0,0,0,2,0,2,2,0003-00-0001-24.png,0001-00-0000-36.png
00000014,456,1,1447862294922,1447862295365,399,491,0,0,0,1,3,2,4,0005-00-0001-85.png,0002-00-0001-20.png
00000014,457,1,1447862296372,1447862296803,407,481,0,0,0,0,2,2,2,0001-00-0001-81.png,0003-00-0001-11.png
00000014,458,1,1447862297720,1447862298196,398,487,0,0,0,3,4,1,7,0002-00-0001-94.png,0004-00-0000-26.png
00000014,459,1,1447862299175,1447862299732,899,508,0,0,0,3,1,2,4,0002-00-0000-54.png,0005-00-0000-17.png
00000014,460,1,1447862300685,1447862301307,415,438,0,0,0,2,3,1,5,0003-00-0000-60.png,0002-00-0001-83.png
00000014,461,1,1447862302760,1447862303426,888,476,0,0,0,3,0,3,3,0002-00-0000-65.png,0001-00-0000-12.png
00000014,462,0,1447862304392,1447862305151,929,481,0,0,0,0,1,1,1,0001-00-0001-30.png,0005-00-0001-80.png
00000014,463,0,1447862324581,1447862325141,412,475,0,0,0,3,1,2,4,0002-00-0000-61.png,0005-00-0000-56.png
00000014,464,1,1447862328107,1447862328684,1000,486,0,0,0,1,0,1,1,0005-00-0001-54.png,0001-00-0000-41.png
00000014,465,1,1447862329591,1447862330490,401,410,0,0,0,0,2,2,2,0001-00-0001-82.png,0003-00-0001-84.png
00000014,466,1,1447862331648,1447862332197,922,498,0,0,0,2,0,2,2,0003-00-0001-83.png,0001-00-0000-11.png
00000014,467,0,1447862333167,1447862333734,927,461,0,0,0,3,4,1,7,0002-00-0000-09.png,0004-00-0001-49.png
00000014,468,0,1447862336784,1447862337401,380,398,0,0,0,4,2,2,6,0004-00-0000-90.png,0003-00-0001-21.png
00000014,469,0,1447862341557,1447862342373,339,371,0,0,0,3,2,1,5,0002-00-0000-08.png,0003-00-0001-20.png
00000014,470,1,1447862345744,1447862346376,392,401,0,0,0,0,4,4,4,0001-00-0001-00.png,0004-00-0001-33.png
00000014,471,1,1447862347535,1447862348044,952,502,0,0,0,4,0,4,4,0004-00-0001-93.png,0001-00-0000-30.png
00000014,472,1,1447862349039,1447862350119,953,450,0,0,0,2,1,1,3,0003-00-0000-43.png,0005-00-0000-13.png
00000014,473,1,1447862351039,1447862351480,427,472,0,0,0,1,3,2,4,0005-00-0000-40.png,0002-00-0001-16.png
00000014,474,0,1447862352479,1447862353088,901,475,0,0,0,2,4,2,6,0003-00-0000-27.png,0004-00-0001-06.png
00000014,475,0,1447862356060,1447862356632,408,389,0,0,0,4,3,1,7,0004-00-0001-91.png,0002-00-0001-41.png
00000014,476,1,1447862361964,1447862362491,464,476,0,0,0,1,4,3,5,0005-00-0001-88.png,0004-00-0001-11.png
00000014,477,1,1447862363670,1447862364145,332,445,0,0,0,0,3,3,3,0001-00-0001-74.png,0002-00-0000-39.png
00000014,478,0,1447862365118,1447862365683,407,470,0,0,0,4,1,3,5,0004-00-0001-58.png,0005-00-0000-90.png
00000014,479,1,1447862368628,1447862369231,371,418,0,0,0,1,2,1,3,0005-00-0000-79.png,0003-00-0001-60.png
00000014,480,0,1447862370251,1447862370814,913,502,0,0,0,2,3,1,5,0003-00-0001-22.png,0002-00-0001-29.png
00000014,481,1,1447862374903,1447862375475,956,444,0,0,0,4,0,4,4,0004-00-0001-61.png,0001-00-0000-74.png
00000014,482,0,1447862376580,1447862377124,926,501,0,0,0,2,3,1,5,0003-00-0001-63.png,0002-00-0000-16.png
00000014,483,1,1447862380993,1447862381467,380,404,0,0,0,0,1,1,1,0001-00-0000-32.png,0005-00-0000-79.png
00000014,484,1,1447862382534,1447862383084,365,494,0,0,0,0,2,2,2,0001-00-0001-69.png,0003-00-0000-85.png
00000014,485,1,1447862384056,1447862384510,364,472,0,0,0,0,3,3,3,0001-00-0001-09.png,0002-00-0000-76.png
00000014,486,1,1447862385515,1447862386184,880,506,0,0,0,4,3,1,7,0004-00-0000-77.png,0002-00-0001-55.png
00000014,487,1,1447862387143,1447862387652,914,475,0,0,0,2,0,2,2,0003-00-0000-14.png,0001-00-0000-93.png
00000014,488,0,1447862388595,1447862389279,417,444,0,0,0,4,1,3,5,0004-00-0001-79.png,0005-00-0001-84.png
00000014,489,0,1447862392492,1447862393183,404,344,0,0,0,3,2,1,5,0002-00-0001-29.png,0003-00-0001-82.png
00000014,490,0,1447862396992,1447862397575,979,445,0,0,0,1,3,2,4,0005-00-0001-25.png,0002-00-0001-10.png
00000014,491,1,1447862400805,1447862401285,972,445,0,0,0,4,2,2,6,0004-00-0000-94.png,0003-00-0001-50.png
00000014,492,1,1447862402332,1447862402812,939,501,0,0,0,1,0,1,1,0005-00-0000-00.png,0001-00-0001-67.png
00000014,493,0,1447862403699,1447862404266,925,475,0,0,0,2,4,2,6,0003-00-0001-02.png,0004-00-0001-47.png
00000014,494,0,1447862408615,1447862409127,395,402,0,0,0,2,1,1,3,0003-00-0001-43.png,0005-00-0001-21.png
00000014,495,1,1447862412417,1447862413136,938,449,0,0,0,3,0,3,3,0002-00-0000-02.png,0001-00-0000-59.png
00000014,496,1,1447862414138,1447862414624,400,467,0,0,0,3,4,1,7,0002-00-0001-00.png,0004-00-0000-26.png
00000014,497,1,1447862415567,1447862416182,876,488,0,0,0,3,1,2,4,0002-00-0000-16.png,0005-00-0001-43.png
00000014,498,1,1447862417150,1447862417684,376,424,0,0,0,0,4,4,4,0001-00-0001-01.png,0004-00-0001-03.png
00000014,499,1,1447862418601,1447862419031,417,482,0,0,0,1,4,3,5,0005-00-0000-99.png,0004-00-0001-91.png
00000014,500,0,1447862420003,1447862420729,952,462,0,0,0,1,2,1,3,0005-00-0000-53.png,0003-00-0000-70.png
00000014,501,1,1447862425109,1447862425660,927,450,0,0,0,4,2,2,6,0004-00-0000-75.png,0003-00-0001-77.png
00000014,502,0,1447862426661,1447862427089,406,474,0,0,0,2,0,2,2,0003-00-0001-44.png,0001-00-0001-08.png
00000014,503,0,1447862430883,1447862431367,910,434,0,0,0,1,3,2,4,0005-00-0001-64.png,0002-00-0001-74.png
00000014,504,1,1447862435604,1447862436235,400,368,0,0,0,1,2,1,3,0005-00-0000-20.png,0003-00-0001-71.png
00000014,505,0,1447862437339,1447862437902,879,427,0,0,0,2,4,2,6,0003-00-0000-69.png,0004-00-0000-72.png
00000014,506,1,1447862441170,1447862441781,444,444,0,0,0,3,4,1,7,0002-00-0001-69.png,0004-00-0001-75.png
00000014,507,0,1447862443068,1447862443590,944,467,0,0,0,0,1,1,1,0001-00-0001-01.png,0005-00-0001-60.png
00000014,508,1,1447862446883,1447862447416,895,498,0,0,0,4,1,3,5,0004-00-0000-11.png,0005-00-0001-85.png
00000014,509,1,1447862448485,1447862449121,945,488,0,0,0,4,3,1,7,0004-00-0001-99.png,0002-00-0000-22.png
00000014,510,1,1447862450031,1447862450477,332,453,0,0,0,0,2,2,2,0001-00-0000-66.png,0003-00-0000-06.png
00000014,511,1,1447862451427,1447862452039,928,520,0,0,0,3,1,2,4,0002-00-0001-36.png,0005-00-0001-91.png
00000014,512,1,1447862452985,1447862453408,417,468,0,0,0,0,4,4,4,0001-00-0001-39.png,0004-00-0000-89.png
00000014,513,1,1447862454301,1447862454845,439,462,0,0,0,1,4,3,5,0005-00-0001-47.png,0004-00-0000-13.png
00000014,514,1,1447862455838,1447862456332,415,468,0,0,0,0,3,3,3,0001-00-0000-67.png,0002-00-0001-75.png
00000014,515,0,1447862457300,1447862458368,472,418,0,0,0,2,1,1,3,0003-00-0000-90.png,0005-00-0000-72.png
00000014,516,0,1447862461822,1447862462277,437,541,0,0,0,4,0,4,4,0004-00-0001-78.png,0001-00-0001-15.png
00000014,517,0,1447862465636,1447862466184,395,397,0,0,0,3,2,1,5,0002-00-0001-31.png,0003-00-0001-31.png
00000014,518,1,1447862472694,1447862473173,958,446,0,0,0,3,0,3,3,0002-00-0001-44.png,0001-00-0001-36.png
00000014,519,1,1447862474276,1447862474861,938,475,0,0,0,1,0,1,1,0005-00-0001-84.png,0001-00-0000-40.png
00000014,520,0,1447862475736,1447862476312,926,515,0,0,0,2,3,1,5,0003-00-0000-37.png,0002-00-0000-51.png
00000014,521,1,1447862479499,1447862480020,376,450,0,0,0,0,3,3,3,0001-00-0001-12.png,0002-00-0000-10.png
00000014,522,1,1447862481080,1447862481620,924,490,0,0,0,4,1,3,5,0004-00-0001-35.png,0005-00-0000-70.png
00000014,523,0,1447862482577,1447862483008,397,489,0,0,0,4,3,1,7,0004-00-0000-76.png,0002-00-0001-11.png
00000014,524,1,1447862486730,1447862487223,939,419,0,0,0,2,0,2,2,0003-00-0000-05.png,0001-00-0000-95.png
00000014,525,1,1447862488231,1447862488690,368,453,0,0,0,1,4,3,5,0005-00-0001-77.png,0004-00-0001-91.png
00000014,526,1,1447862489742,1447862490237,362,462,0,0,0,0,4,4,4,0001-00-0001-57.png,0004-00-0001-56.png
00000014,527,0,1447862491293,1447862491892,465,450,0,0,0,4,2,2,6,0004-00-0001-81.png,0003-00-0000-55.png
00000014,528,1,1447862495957,1447862496450,409,388,0,0,0,0,1,1,1,0001-00-0000-99.png,0005-00-0001-29.png
00000014,529,0,1447862497495,1447862498164,949,509,0,0,0,1,2,1,3,0005-00-0001-85.png,0003-00-0000-37.png
00000014,530,1,1447862501617,1447862502159,862,395,0,0,0,4,0,4,4,0004-00-0001-97.png,0001-00-0001-33.png
00000014,531,1,1447862503211,1447862503904,955,471,0,0,0,2,1,1,3,0003-00-0000-69.png,0005-00-0000-25.png
00000014,532,0,1447862504811,1447862505346,900,474,0,0,0,2,4,2,6,0003-00-0000-67.png,0004-00-0000-63.png
00000014,533,1,1447862509669,1447862510127,424,399,0,0,0,3,4,1,7,0002-00-0001-94.png,0004-00-0000-96.png
00000014,534,1,1447862511196,1447862511766,927,475,0,0,0,3,2,1,5,0002-00-0001-85.png,0003-00-0001-62.png
00000014,535,0,1447862512779,1447862513336,924,484,0,0,0,2,3,1,5,0003-00-0001-41.png,0002-00-0000-60.png
00000014,536,1,1447862516718,1447862517193,902,521,0,0,0,1,0,1,1,0005-00-0001-38.png,0001-00-0000-51.png
00000014,537,0,1447862518148,1447862518916,900,474,0,0,0,1,3,2,4,0005-00-0000-56.png,0002-00-0000-49.png
00000014,538,1,1447862522758,1447862523208,372,393,0,0,0,0,2,2,2,0001-00-0001-47.png,0003-00-0001-75.png
00000014,539,1,1447862524598,1447862525169,924,456,0,0,0,3,0,3,3,0002-00-0000-87.png,0001-00-0001-29.png
00000014,540,1,1447862526285,1447862526910,900,489,0,0,0,3,1,2,4,0002-00-0001-87.png,0005-00-0000-03.png
00000014,541,0,1447862527907,1447862528506,870,445,0,0,0,1,2,1,3,0005-00-0000-49.png,0003-00-0001-99.png
00000014,542,1,1447862532520,1447862533039,889,410,0,0,0,2,1,1,3,0003-00-0000-10.png,0005-00-0000-93.png
00000014,543,0,1447862534020,1447862534679,914,469,0,0,0,2,4,2,6,0003-00-0000-54.png,0004-00-0001-90.png
00000014,544,0,1447862538726,1447862539222,929,376,0,0,0,1,4,3,5,0005-00-0000-70.png,0004-00-0001-82.png
00000014,545,0,1447862544248,1447862544753,877,493,0,0,0,2,3,1,5,0003-00-0001-43.png,0002-00-0001-71.png
00000014,546,1,1447862548310,1447862548804,926,455,0,0,0,4,0,4,4,0004-00-0001-51.png,0001-00-0001-53.png
00000014,547,0,1447862549777,1447862550396,899,384,0,0,0,0,4,4,4,0001-00-0000-53.png,0004-00-0000-39.png
00000014,548,1,1447862554007,1447862554481,398,374,0,0,0,3,4,1,7,0002-00-0001-10.png,0004-00-0000-95.png
00000014,549,1,1447862555430,1447862556001,399,425,0,0,0,0,1,1,1,0001-00-0000-44.png,0005-00-0000-36.png
00000014,550,1,1447862556907,1447862557409,879,480,0,0,0,3,0,3,3,0002-00-0001-75.png,0001-00-0000-91.png
00000014,551,0,1447862558260,1447862558875,405,439,0,0,0,2,0,2,2,0003-00-0000-23.png,0001-00-0001-40.png
00000014,552,1,1447862563597,1447862564063,878,417,0,0,0,4,2,2,6,0004-00-0000-61.png,0003-00-0000-17.png
00000014,553,1,1447862565082,1447862565727,375,406,0,0,0,1,3,2,4,0005-00-0001-04.png,0002-00-0001-71.png
00000014,554,0,1447862567323,1447862567852,445,437,0,0,0,4,1,3,5,0004-00-0000-00.png,0005-00-0001-94.png
00000014,555,0,1447862572797,1447862573311,398,360,0,0,0,4,3,1,7,0004-00-0001-71.png,0002-00-0001-08.png
00000014,556,1,1447862577397,1447862577867,350,357,0,0,0,0,3,3,3,0001-00-0000-35.png,0002-00-0001-17.png
00000014,557,1,1447862578732,1447862579320,942,466,0,0,0,1,0,1,1,0005-00-0001-09.png,0001-00-0001-63.png
00000014,558,1,1447862580229,1447862580919,889,448,0,0,0,3,1,2,4,0002-00-0000-00.png,0005-00-0000-29.png
00000014,559,0,1447862581763,1447862582363,396,455,0,0,0,3,2,1,5,0002-00-0001-94.png,0003-00-0000-76.png
00000014,560,1,1447862586853,1447862587336,419,405,0,0,0,0,2,2,2,0001-00-0001-21.png,0003-00-0001-02.png
00000014,561,0,1447862588384,1447862588864,911,476,0,0,0,2,3,1,5,0003-00-0001-03.png,0002-00-0001-79.png
00000014,562,1,1447862592539,1447862593120,905,391,0,0,0,4,1,3,5,0004-00-0000-25.png,0005-00-0001-41.png
00000014,563,1,1447862594286,1447862594728,370,460,0,0,0,0,2,2,2,0001-00-0000-54.png,0003-00-0000-70.png
00000014,564,1,1447862595770,1447862596391,383,472,0,0,0,1,4,3,5,0005-00-0001-58.png,0004-00-0001-50.png
00000014,565,1,1447862597384,1447862597908,401,507,0,0,0,2,4,2,6,0003-00-0001-79.png,0004-00-0000-83.png
00000014,566,1,1447862598777,1447862599232,421,488,0,0,0,0,3,3,3,0001-00-0000-41.png,0002-00-0001-96.png
00000014,567,1,1447862600197,1447862600861,952,465,0,0,0,1,0,1,1,0005-00-0000-96.png,0001-00-0001-53.png
00000014,568,1,1447862601862,1447862602408,921,498,0,0,0,3,0,3,3,0002-00-0001-78.png,0001-00-0001-11.png
00000014,569,0,1447862603357,1447862603994,419,453,0,0,0,3,1,2,4,0002-00-0000-96.png,0005-00-0000-11.png
00000014,570,1,1447862608118,1447862608607,407,371,0,0,0,3,4,1,7,0002-00-0000-65.png,0004-00-0000-23.png
00000014,571,1,1447862609669,1447862610248,897,482,0,0,0,4,2,2,6,0004-00-0000-55.png,0003-00-0001-34.png
00000014,572,1,1447862611120,1447862611781,964,470,0,0,0,3,2,1,5,0002-00-0000-19.png,0003-00-0000-61.png
00000014,573,1,1447862612683,1447862613105,418,454,0,0,0,0,4,4,4,0001-00-0001-59.png,0004-00-0001-40.png
00000014,574,0,1447862614068,1447862614745,921,524,0,0,0,0,1,1,1,0001-00-0000-17.png,0005-00-0000-61.png
00000014,575,1,1447862618387,1447862618806,939,424,0,0,0,2,1,1,3,0003-00-0001-80.png,0005-00-0000-82.png
00000014,576,1,1447862619789,1447862620319,926,475,0,0,0,4,0,4,4,0004-00-0000-74.png,0001-00-0001-94.png
00000014,577,1,1447862621279,1447862621906,914,501,0,0,0,2,0,2,2,0003-00-0001-94.png,0001-00-0000-67.png
00000014,578,1,1447862622953,1447862623374,411,472,0,0,0,1,2,1,3,0005-00-0001-77.png,0003-00-0000-36.png
00000014,579,0,1447862624299,1447862624764,444,471,0,0,0,4,3,1,7,0004-00-0001-09.png,0002-00-0001-77.png
00000014,580,1,1447862628636,1447862629490,390,436,0,0,0,1,3,2,4,0005-00-0000-03.png,0002-00-0000-13.png
00000014,581,0,1447862630704,1447862631203,901,502,0,0,0,2,3,1,5,0003-00-0001-12.png,0002-00-0000-27.png
00000014,582,1,1447862634769,1447862635383,937,386,0,0,0,3,0,3,3,0002-00-0001-94.png,0001-00-0001-33.png
00000014,583,1,1447862636397,1447862636930,905,479,0,0,0,1,0,1,1,0005-00-0001-51.png,0001-00-0001-23.png
00000014,584,1,1447862637857,1447862638986,465,449,0,0,0,2,4,2,6,0003-00-0001-91.png,0004-00-0001-79.png
00000014,585,0,1447862639904,1447862640425,424,463,0,0,0,3,1,2,4,0002-00-0000-35.png,0005-00-0001-94.png
00000014,586,1,1447862643780,1447862644315,442,417,0,0,0,1,3,2,4,0005-00-0000-10.png,0002-00-0000-02.png
00000014,587,1,1447862645341,1447862645764,388,462,0,0,0,0,3,3,3,0001-00-0001-43.png,0002-00-0001-30.png
00000014,588,1,1447862646802,1447862647411,890,491,0,0,0,4,1,3,5,0004-00-0000-43.png,0005-00-0001-60.png
00000014,589,1,1447862648320,1447862648968,923,457,0,0,0,2,1,1,3,0003-00-0000-22.png,0005-00-0001-43.png
00000014,590,1,1447862649964,1447862650492,873,510,0,0,0,2,0,2,2,0003-00-0001-23.png,0001-00-0001-82.png
00000014,591,1,1447862651466,1447862652061,438,530,0,0,0,1,2,1,3,0005-00-0000-82.png,0003-00-0001-26.png
00000014,592,0,1447862653002,1447862653588,875,449,0,0,0,3,4,1,7,0002-00-0000-57.png,0004-00-0000-10.png
00000014,593,0,1447862656739,1447862657488,385,350,0,0,0,3,2,1,5,0002-00-0001-64.png,0003-00-0001-06.png
00000014,594,1,1447862660935,1447862661446,939,423,0,0,0,4,2,2,6,0004-00-0001-64.png,0003-00-0000-51.png
00000014,595,0,1447862662406,1447862662954,423,469,0,0,0,4,0,4,4,0004-00-0000-85.png,0001-00-0000-27.png
00000014,596,1,1447862666384,1447862666992,402,408,0,0,0,0,1,1,1,0001-00-0001-76.png,0005-00-0001-23.png
00000014,597,0,1447862667993,1447862668655,938,475,0,0,0,0,4,4,4,0001-00-0001-83.png,0004-00-0001-45.png
00000014,598,1,1447862672445,1447862673002,964,436,0,0,0,4,3,1,7,0004-00-0001-57.png,0002-00-0000-97.png
00000014,599,1,1447862674044,1447862674489,360,485,0,0,0,0,2,2,2,0001-00-0001-42.png,0003-00-0000-13.png
00000014,600,1,1447862675342,1447862675994,374,443,0,0,0,1,4,3,5,0005-00-0000-91.png,0004-00-0000-23.png
00000014,601,0,1447862676924,1447862677538,899,465,0,0,0,1,3,2,4,0005-00-0001-85.png,0002-00-0000-44.png
00000014,602,0,1447862681371,1447862681860,920,467,0,0,0,2,4,2,6,0003-00-0000-55.png,0004-00-0001-54.png
00000014,603,1,1447862685115,1447862685547,427,410,0,0,0,0,3,3,3,0001-00-0001-09.png,0002-00-0000-79.png
00000014,604,0,1447862686804,1447862687377,928,489,0,0,0,2,3,1,5,0003-00-0000-60.png,0002-00-0000-26.png
00000014,605,1,1447862690600,1447862691243,926,397,0,0,0,3,2,1,5,0002-00-0000-77.png,0003-00-0001-08.png
00000014,606,1,1447862692252,1447862692721,395,461,0,0,0,0,4,4,4,0001-00-0000-06.png,0004-00-0000-96.png
00000014,607,0,1447862693652,1447862694437,879,427,0,0,0,3,4,1,7,0002-00-0000-68.png,0004-00-0000-99.png
00000014,608,0,1447862698032,1447862698562,401,397,0,0,0,4,3,1,7,0004-00-0000-56.png,0002-00-0000-01.png
00000014,609,1,1447862702418,1447862703039,941,384,0,0,0,3,1,2,4,0002-00-0001-76.png,0005-00-0001-50.png
00000014,610,1,1447862704080,1447862704713,930,453,0,0,0,4,2,2,6,0004-00-0000-82.png,0003-00-0001-85.png
00000014,611,1,1447862705656,1447862706123,419,454,0,0,0,1,4,3,5,0005-00-0000-84.png,0004-00-0000-15.png
00000014,612,1,1447862707038,1447862707635,896,472,0,0,0,3,0,3,3,0002-00-0000-17.png,0001-00-0001-38.png
00000014,613,1,1447862708557,1447862709036,405,475,0,0,0,0,2,2,2,0001-00-0000-50.png,0003-00-0001-58.png
00000014,614,1,1447862710018,1447862710505,876,429,0,0,0,1,0,1,1,0005-00-0001-34.png,0001-00-0001-98.png
00000014,615,1,1447862711500,1447862712135,876,460,0,0,0,2,1,1,3,0003-00-0001-23.png,0005-00-0001-55.png
00000014,616,0,1447862713030,1447862713472,465,477,0,0,0,4,0,4,4,0004-00-0000-67.png,0001-00-0000-23.png
00000014,617,1,1447862717461,1447862717962,895,525,0,0,0,2,0,2,2,0003-00-0000-23.png,0001-00-0000-04.png
00000014,618,0,1447862718894,1447862720082,424,441,0,0,0,4,1,3,5,0004-00-0000-92.png,0005-00-0001-43.png
00000014,619,1,1447862723458,1447862723949,436,535,0,0,0,0,1,1,1,0001-00-0001-63.png,0005-00-0001-85.png
00000014,620,1,1447862725246,1447862725717,395,465,0,0,0,1,2,1,3,0005-00-0001-79.png,0003-00-0000-35.png
00000014,621,1,1447862726664,1447862727294,896,420,0,0,0,4,2,2,6,0004-00-0000-87.png,0003-00-0001-01.png
00000014,622,0,1447862728296,1447862729031,907,474,0,0,0,1,4,3,5,0005-00-0000-07.png,0004-00-0001-04.png
00000014,623,1,1447862731974,1447862732507,950,431,0,0,0,4,0,4,4,0004-00-0001-12.png,0001-00-0000-92.png
00000014,624,0,1447862733594,1447862734149,898,431,0,0,0,0,2,2,2,0001-00-0001-33.png,0003-00-0001-80.png
00000014,625,0,1447862737221,1447862737844,407,423,0,0,0,4,1,3,5,0004-00-0001-83.png,0005-00-0000-36.png
00000014,626,1,1447862741078,1447862741573,906,527,0,0,0,4,3,1,7,0004-00-0000-03.png,0002-00-0001-70.png
00000014,627,1,1447862742531,1447862742974,378,484,0,0,0,1,2,1,3,0005-00-0001-63.png,0003-00-0001-22.png
00000014,628,0,1447862743848,1447862744519,909,531,0,0,0,0,3,3,3,0001-00-0001-66.png,0002-00-0000-72.png
00000014,629,0,1447862748315,1447862748911,409,401,0,0,0,3,1,2,4,0002-00-0001-23.png,0005-00-0001-13.png
00000014,630,1,1447862752608,1447862753107,359,418,0,0,0,3,4,1,7,0002-00-0000-15.png,0004-00-0001-90.png
00000014,631,0,1447862754207,1447862754751,906,505,0,0,0,2,4,2,6,0003-00-0001-97.png,0004-00-0001-76.png
00000014,632,1,1447862759267,1447862759863,921,524,0,0,0,1,0,1,1,0005-00-0000-60.png,0001-00-0000-36.png
00000014,633,0,1447862760901,1447862761521,915,474,0,0,0,2,3,1,5,0003-00-0000-43.png,0002-00-0000-04.png
00000014,634,1,1447862764822,1447862765302,954,439,0,0,0,2,1,1,3,0003-00-0001-64.png,0005-00-0001-13.png
00000014,635,0,1447862766301,1447862766752,402,435,0,0,0,3,2,1,5,0002-00-0001-38.png,0003-00-0000-06.png
00000014,636,1,1447862770490,1447862771029,953,416,0,0,0,3,0,3,3,0002-00-0000-32.png,0001-00-0001-77.png
00000014,637,1,1447862772019,1447862772521,389,497,0,0,0,0,4,4,4,0001-00-0000-66.png,0004-00-0000-48.png
00000014,638,1,1447862773457,1447862774290,905,506,0,0,0,2,0,2,2,0003-00-0000-18.png,0001-00-0000-22.png
00000014,639,0,1447862775264,1447862775844,901,486,0,0,0,1,3,2,4,0005-00-0001-24.png,0002-00-0000-28.png
00000014,640,1,1447862779344,1447862779873,439,538,0,0,0,0,1,1,1,0001-00-0000-41.png,0005-00-0000-12.png
00000014,641,1,1447862780872,1447862781422,897,458,0,0,0,3,0,3,3,0002-00-0001-94.png,0001-00-0001-78.png
00000014,642,1,1447862782410,1447862782872,380,480,0,0,0,0,4,4,4,0001-00-0001-16.png,0004-00-0000-17.png
00000014,643,0,1447862783731,1447862784359,913,476,0,0,0,1,2,1,3,0005-00-0001-61.png,0003-00-0000-59.png
00000014,644,0,1447862787837,1447862788322,382,428,0,0,0,4,2,2,6,0004-00-0000-48.png,0003-00-0000-63.png
00000014,645,0,1447862791901,1447862792498,929,415,0,0,0,2,3,1,5,0003-00-0000-02.png,0002-00-0001-85.png
00000014,646,1,1447862795779,1447862796314,338,371,0,0,0,1,3,2,4,0005-00-0001-99.png,0002-00-0001-66.png
00000014,647,1,1447862797531,1447862798149,862,447,0,0,0,4,1,3,5,0004-00-0000-77.png,0005-00-0000-17.png
00000014,648,1,1447862799114,1447862799776,920,424,0,0,0,3,2,1,5,0002-00-0001-89.png,0003-00-0001-25.png
00000014,649,1,1447862800738,1447862801310,900,489,0,0,0,2,1,1,3,0003-00-0001-01.png,0005-00-0001-46.png
00000014,650,0,1447862802260,1447862803048,878,469,0,0,0,3,4,1,7,0002-00-0001-79.png,0004-00-0000-58.png
00000014,651,1,1447862806691,1447862807206,937,535,0,0,0,4,3,1,7,0004-00-0001-29.png,0002-00-0001-42.png
00000014,652,1,1447862808211,1447862808681,368,480,0,0,0,0,1,1,1,0001-00-0001-60.png,0005-00-0000-99.png
00000014,653,1,1447862809662,1447862810148,401,541,0,0,0,0,2,2,2,0001-00-0001-59.png,0003-00-0000-34.png
00000014,654,0,1447862811113,1447862811603,399,458,0,0,0,3,1,2,4,0002-00-0000-70.png,0005-00-0001-38.png
00000014,655,1,1447862815725,1447862816247,401,462,0,0,0,0,3,3,3,0001-00-0000-13.png,0002-00-0001-49.png
00000014,656,1,1447862817614,1447862818118,917,452,0,0,0,2,0,2,2,0003-00-0001-65.png,0001-00-0001-86.png
00000014,657,1,1447862819135,1447862819679,925,483,0,0,0,1,0,1,1,0005-00-0000-53.png,0001-00-0001-29.png
00000014,658,1,1447862820667,1447862821173,473,473,0,0,0,2,4,2,6,0003-00-0001-83.png,0004-00-0001-23.png
00000014,659,1,1447862822178,1447862822683,425,472,0,0,0,1,4,3,5,0005-00-0000-80.png,0004-00-0001-80.png
00000014,660,1,1447862823626,1447862824291,922,484,0,0,0,4,0,4,4,0004-00-0000-87.png,0001-00-0001-08.png
00000014,661,1,1447862825229,1447862825671,393,484,0,0,0,0,2,2,2,0001-00-0001-81.png,0003-00-0001-24.png
00000014,662,1,1447862826617,1447862827246,448,472,0,0,0,0,1,1,1,0001-00-0001-95.png,0005-00-0000-05.png
00000014,663,0,1447862828243,1447862828845,870,445,0,0,0,2,4,2,6,0003-00-0001-80.png,0004-00-0001-77.png
00000014,664,0,1447862832569,1447862833246,923,454,0,0,0,1,3,2,4,0005-00-0000-27.png,0002-00-0000-99.png
00000014,665,1,1447862837028,1447862837536,357,471,0,0,0,0,4,4,4,0001-00-0000-60.png,0004-00-0000-00.png
00000014,666,1,1447862838830,1447862839495,939,499,0,0,0,1,0,1,1,0005-00-0000-30.png,0001-00-0001-68.png
00000014,667,0,1447862840430,1447862841006,908,487,0,0,0,3,4,1,7,0002-00-0001-90.png,0004-00-0000-61.png
00000014,668,1,1447862845076,1447862845595,874,502,0,0,0,2,1,1,3,0003-00-0000-55.png,0005-00-0000-01.png
00000014,669,1,1447862846705,1447862847218,923,481,0,0,0,4,1,3,5,0004-00-0001-40.png,0005-00-0001-22.png
00000014,670,1,1447862848203,1447862848829,921,471,0,0,0,3,1,2,4,0002-00-0001-55.png,0005-00-0000-08.png
00000014,671,0,1447862849840,1447862850345,444,482,0,0,0,4,3,1,7,0004-00-0001-66.png,0002-00-0001-80.png
00000014,672,0,1447862853986,1447862854540,402,414,0,0,0,3,2,1,5,0002-00-0001-40.png,0003-00-0001-11.png
00000014,673,0,1447862858927,1447862859461,376,370,0,0,0,4,2,2,6,0004-00-0000-81.png,0003-00-0000-22.png
00000014,674,1,1447862862795,1447862863362,952,385,0,0,0,2,0,2,2,0003-00-0000-60.png,0001-00-0001-85.png
00000014,675,1,1447862864475,1447862865029,888,501,0,0,0,3,0,3,3,0002-00-0001-88.png,0001-00-0000-79.png
00000014,676,1,1447862865987,1447862866585,911,477,0,0,0,4,0,4,4,0004-00-0000-33.png,0001-00-0000-77.png
00000014,677,1,1447862867577,1447862868007,342,455,0,0,0,0,3,3,3,0001-00-0000-91.png,0002-00-0001-80.png
00000014,678,0,1447862868947,1447862870207,916,547,0,0,0,1,2,1,3,0005-00-0001-98.png,0003-00-0001-87.png
00000014,679,1,1447862873656,1447862874189,343,349,0,0,0,1,4,3,5,0005-00-0000-13.png,0004-00-0001-16.png
00000014,680,0,1447862875250,1447862875849,881,479,0,0,0,2,3,1,5,0003-00-0001-69.png,0002-00-0001-44.png
00000014,681,1,1447862879544,1447862880005,913,384,0,0,0,4,1,3,5,0004-00-0001-23.png,0005-00-0000-64.png
00000014,682,1,1447862881007,1447862881582,939,476,0,0,0,2,1,1,3,0003-00-0000-51.png,0005-00-0001-23.png
00000014,683,1,1447862882554,1447862882966,350,462,0,0,0,0,1,1,1,0001-00-0000-40.png,0005-00-0001-55.png
00000014,684,0,1447862883850,1447862884329,406,467,0,0,0,3,2,1,5,0002-00-0001-95.png,0003-00-0000-43.png
00000014,685,1,1447862887844,1447862888298,339,434,0,0,0,0,4,4,4,0001-00-0001-92.png,0004-00-0001-65.png
00000014,686,0,1447862889593,1447862890136,928,492,0,0,0,2,4,2,6,0003-00-0001-27.png,0004-00-0001-92.png
00000014,687,1,1447862893851,1447862894292,400,411,0,0,0,0,2,2,2,0001-00-0001-02.png,0003-00-0001-84.png
00000014,688,0,1447862895299,1447862895875,898,560,0,0,0,1,4,3,5,0005-00-0001-15.png,0004-00-0001-80.png
00000014,689,1,1447862899494,1447862899971,350,410,0,0,0,0,3,3,3,0001-00-0001-26.png,0002-00-0000-42.png
00000014,690,1,1447862901055,1447862901556,858,551,0,0,0,3,1,2,4,0002-00-0000-79.png,0005-00-0000-50.png
00000014,691,1,1447862902474,1447862902938,393,491,0,0,0,1,2,1,3,0005-00-0001-62.png,0003-00-0000-00.png
00000014,692,1,1447862903843,1447862904392,923,481,0,0,0,1,0,1,1,0005-00-0000-16.png,0001-00-0000-25.png
00000014,693,1,1447862905294,1447862905766,482,488,0,0,0,1,3,2,4,0005-00-0001-79.png,0002-00-0001-43.png
00000014,694,0,1447862906707,1447862907109,433,483,0,0,0,4,3,1,7,0004-00-0000-76.png,0002-00-0000-90.png
00000014,695,0,1447862910596,1447862911060,875,358,0,0,0,2,3,1,5,0003-00-0000-88.png,0002-00-0000-27.png
00000014,696,1,1447862915235,1447862915708,932,442,0,0,0,4,2,2,6,0004-00-0000-49.png,0003-00-0000-73.png
00000014,697,1,1447862917009,1447862917540,897,484,0,0,0,3,0,3,3,0002-00-0001-20.png,0001-00-0001-12.png
00000014,698,1,1447862918595,1447862919293,925,463,0,0,0,4,0,4,4,0004-00-0000-74.png,0001-00-0000-16.png
00000014,699,1,1447862920961,1447862921543,900,449,0,0,0,2,0,2,2,0003-00-0001-94.png,0001-00-0001-77.png
00000014,700,0,1447862923124,1447862923807,878,441,0,0,0,3,4,1,7,0002-00-0000-99.png,0004-00-0000-86.png
00000014,701,0,1447862926864,1447862927350,894,525,0,0,0,2,4,2,6,0003-00-0000-86.png,0004-00-0000-30.png
00000014,702,1,1447862930960,1447862931672,473,382,0,0,0,0,3,3,3,0001-00-0000-79.png,0002-00-0001-27.png
00000014,703,1,1447862932808,1447862933433,951,527,0,0,0,4,3,1,7,0004-00-0000-31.png,0002-00-0000-35.png
00000014,704,0,1447862934317,1447862934871,919,456,0,0,0,2,3,1,5,0003-00-0000-75.png,0002-00-0001-14.png
00000014,705,1,1447862938369,1447862938837,435,394,0,0,0,1,2,1,3,0005-00-0001-63.png,0003-00-0000-54.png
00000014,706,1,1447862939953,1447862940838,925,517,0,0,0,3,2,1,5,0002-00-0000-82.png,0003-00-0001-94.png
00000014,707,1,1447862941732,1447862942167,417,493,0,0,0,0,2,2,2,0001-00-0001-83.png,0003-00-0001-64.png
00000014,708,1,1447862943133,1447862943677,414,485,0,0,0,0,4,4,4,0001-00-0000-48.png,0004-00-0001-98.png
00000014,709,1,1447862944645,1447862945168,925,489,0,0,0,1,0,1,1,0005-00-0000-03.png,0001-00-0001-67.png
00000014,710,0,1447862946038,1447862946569,376,449,0,0,0,3,1,2,4,0002-00-0001-13.png,0005-00-0001-94.png
00000014,711,0,1447862949917,1447862950461,863,547,0,0,0,1,3,2,4,0005-00-0001-71.png,0002-00-0000-96.png
00000014,712,1,1447862953489,1447862953998,905,415,0,0,0,4,0,4,4,0004-00-0000-36.png,0001-00-0001-74.png
00000014,713,0,1447862954971,1447862955474,418,461,0,0,0,4,1,3,5,0004-00-0001-58.png,0005-00-0001-41.png
00000014,714,1,1447862959227,1447862959738,939,449,0,0,0,2,1,1,3,0003-00-0000-80.png,0005-00-0001-66.png
00000014,715,0,1447862960724,1447862961697,413,462,0,0,0,2,0,2,2,0003-00-0000-89.png,0001-00-0000-53.png
00000014,716,1,1447862964829,1447862965364,940,474,0,0,0,4,2,2,6,0004-00-0001-29.png,0003-00-0000-09.png
00000014,717,1,1447862966371,1447862966891,913,477,0,0,0,3,0,3,3,0002-00-0000-91.png,0001-00-0001-60.png
00000014,718,1,1447862967852,1447862968241,462,456,0,0,0,3,4,1,7,0002-00-0001-89.png,0004-00-0000-30.png
00000014,719,1,1447862969207,1447862969741,496,479,0,0,0,1,4,3,5,0005-00-0000-47.png,0004-00-0000-91.png
00000014,720,1,1447862970650,1447862971083,426,470,0,0,0,0,1,1,1,0001-00-0001-58.png,0005-00-0001-05.png
00000014,721,1,1447862971995,1447862972573,442,496,0,0,0,2,4,2,6,0003-00-0000-33.png,0004-00-0000-27.png
00000014,722,1,1447862973506,1447862973988,412,463,0,0,0,0,4,4,4,0001-00-0001-09.png,0004-00-0001-24.png
00000014,723,1,1447862974938,1447862975507,427,474,0,0,0,0,2,2,2,0001-00-0000-97.png,0003-00-0000-47.png
00000014,724,1,1447862976450,1447862976976,444,559,0,0,0,1,3,2,4,0005-00-0001-66.png,0002-00-0000-33.png
00000014,725,1,1447862978016,1447862978774,928,495,0,0,0,4,3,1,7,0004-00-0000-78.png,0002-00-0001-72.png
00000014,726,1,1447862979755,1447862980352,898,507,0,0,0,2,1,1,3,0003-00-0000-41.png,0005-00-0001-44.png
00000014,727,1,1447862981267,1447862981830,900,489,0,0,0,2,0,2,2,0003-00-0001-14.png,0001-00-0001-80.png
00000014,728,0,1447862982754,1447862983207,401,474,0,0,0,4,2,2,6,0004-00-0001-68.png,0003-00-0001-29.png
00000014,729,1,1447862986325,1447862986880,908,535,0,0,0,4,0,4,4,0004-00-0000-09.png,0001-00-0000-18.png
00000014,730,1,1447862987835,1447862988479,871,419,0,0,0,1,0,1,1,0005-00-0000-46.png,0001-00-0001-46.png
00000014,731,1,1447862989426,1447862989887,469,483,0,0,0,3,4,1,7,0002-00-0001-67.png,0004-00-0001-89.png
00000014,732,1,1447862990797,1447862991428,889,475,0,0,0,4,1,3,5,0004-00-0000-86.png,0005-00-0000-69.png
00000014,733,0,1447862992343,1447862992843,422,463,0,0,0,3,1,2,4,0002-00-0001-97.png,0005-00-0000-78.png
00000014,734,1,1447862996228,1447862996814,442,417,0,0,0,1,4,3,5,0005-00-0000-15.png,0004-00-0000-18.png
00000014,735,1,1447862997860,1447862998424,901,521,0,0,0,3,0,3,3,0002-00-0000-57.png,0001-00-0000-48.png
00000014,736,1,1447862999259,1447862999833,401,475,0,0,0,0,3,3,3,0001-00-0000-30.png,0002-00-0001-81.png
00000014,737,0,1447863000804,1447863001413,420,454,0,0,0,3,2,1,5,0002-00-0000-88.png,0003-00-0001-12.png
00000014,738,1,1447863007809,1447863008270,410,417,0,0,0,2,3,1,5,0003-00-0001-35.png,0002-00-0000-93.png
00000014,739,1,1447863009353,1447863010004,377,393,0,0,0,1,2,1,3,0005-00-0000-82.png,0003-00-0000-34.png
00000014,740,0,1447863010972,1447863011554,964,502,0,0,0,0,1,1,1,0001-00-0000-57.png,0005-00-0001-53.png
00000014,741,0,1447863015485,1447863015965,352,386,0,0,0,3,2,1,5,0002-00-0000-56.png,0003-00-0000-50.png
00000014,742,1,1447863019249,1447863019721,464,476,0,0,0,0,3,3,3,0001-00-0001-94.png,0002-00-0000-34.png
00000014,743,1,1447863020787,1447863021329,927,489,0,0,0,2,0,2,2,0003-00-0000-09.png,0001-00-0000-98.png
00000014,744,1,1447863022218,1447863022804,882,474,0,0,0,2,1,1,3,0003-00-0001-62.png,0005-00-0000-70.png
00000014,745,1,1447863023757,1447863024301,440,451,0,0,0,0,2,2,2,0001-00-0000-84.png,0003-00-0000-59.png
00000014,746,0,1447863025356,1447863025978,901,476,0,0,0,3,4,1,7,0002-00-0001-15.png,0004-00-0000-74.png
00000014,747,1,1447863029257,1447863029868,875,371,0,0,0,3,0,3,3,0002-00-0000-38.png,0001-00-0000-09.png
00000014,748,1,1447863030878,1447863031659,402,440,0,0,0,0,1,1,1,0001-00-0001-61.png,0005-00-0000-84.png
00000014,749,1,1447863032521,1447863033084,913,489,0,0,0,1,0,1,1,0005-00-0000-01.png,0001-00-0001-19.png
00000014,750,0,1447863034039,1447863034603,877,442,0,0,0,2,3,1,5,0003-00-0000-17.png,0002-00-0001-62.png
00000014,751,0,1447863038503,1447863039016,465,438,0,0,0,4,2,2,6,0004-00-0000-74.png,0003-00-0001-58.png
00000014,752,1,1447863045300,1447863047029,328,323,0,0,0,1,4,3,5,0005-00-0000-69.png,0004-00-0000-35.png
00000014,753,1,1447863048269,1447863048745,901,545,0,0,0,4,0,4,4,0004-00-0001-44.png,0001-00-0000-14.png
00000014,754,0,1447863049857,1447863050442,879,558,0,0,0,0,4,4,4,0001-00-0000-59.png,0004-00-0000-11.png
00000014,755,1,1447863053623,1447863054104,973,471,0,0,0,4,3,1,7,0004-00-0000-47.png,0002-00-0000-39.png
00000014,756,1,1447863055053,1447863055605,862,410,0,0,0,3,1,2,4,0002-00-0001-40.png,0005-00-0001-26.png
00000014,757,1,1447863056655,1447863057149,912,491,0,0,0,4,1,3,5,0004-00-0000-66.png,0005-00-0001-34.png
00000014,758,1,1447863058095,1447863058569,383,454,0,0,0,2,4,2,6,0003-00-0000-71.png,0004-00-0000-94.png
00000014,759,1,1447863059488,1447863060006,390,457,0,0,0,1,3,2,4,0005-00-0001-90.png,0002-00-0000-96.png
00000014,760,1,1447863060915,1447863061437,406,475,0,0,0,1,2,1,3,0005-00-0001-54.png,0003-00-0001-37.png
00000014,761,1,1447863062369,1447863062971,416,500,0,0,0,3,4,1,7,0002-00-0001-34.png,0004-00-0000-81.png
00000014,762,1,1447863063887,1447863064362,344,454,0,0,0,0,2,2,2,0001-00-0000-15.png,0003-00-0000-09.png
00000014,763,1,1447863065322,1447863065766,445,480,0,0,0,1,2,1,3,0005-00-0000-75.png,0003-00-0001-74.png
00000014,764,1,1447863066743,1447863067341,912,502,0,0,0,4,0,4,4,0004-00-0000-53.png,0001-00-0001-21.png
00000014,765,1,1447863068661,1447863069313,931,480,0,0,0,3,0,3,3,0002-00-0000-64.png,0001-00-0000-12.png
00000014,766,1,1447863070253,1447863070800,900,521,0,0,0,4,1,3,5,0004-00-0001-64.png,0005-00-0001-31.png
00000014,767,1,1447863071711,1447863072280,453,503,0,0,0,2,3,1,5,0003-00-0001-41.png,0002-00-0000-45.png
00000014,768,1,1447863073256,1447863073765,899,489,0,0,0,2,0,2,2,0003-00-0000-55.png,0001-00-0000-75.png
00000014,769,1,1447863074690,1447863075172,393,480,0,0,0,0,1,1,1,0001-00-0001-80.png,0005-00-0001-26.png
00000014,770,0,1447863076099,1447863076568,421,485,0,0,0,3,2,1,5,0002-00-0000-88.png,0003-00-0001-91.png
00000014,771,1,1447863079648,1447863080188,347,444,0,0,0,0,3,3,3,0001-00-0000-93.png,0002-00-0000-43.png
00000014,772,0,1447863081405,1447863081874,899,508,0,0,0,2,4,2,6,0003-00-0000-86.png,0004-00-0001-15.png
00000014,773,0,1447863085047,1447863085660,952,449,0,0,0,0,4,4,4,0001-00-0001-61.png,0004-00-0000-49.png
00000014,774,1,1447863088762,1447863089271,388,384,0,0,0,1,4,3,5,0005-00-0000-46.png,0004-00-0000-95.png
00000014,775,0,1447863090284,1447863090694,381,460,0,0,0,3,1,2,4,0002-00-0000-34.png,0005-00-0001-73.png
00000014,776,1,1447863094111,1447863094608,964,410,0,0,0,4,2,2,6,0004-00-0001-59.png,0003-00-0000-42.png
00000014,777,0,1447863095661,1447863096702,466,409,0,0,0,2,1,1,3,0003-00-0000-21.png,0005-00-0000-53.png
00000014,778,1,1447863100048,1447863100542,972,443,0,0,0,1,0,1,1,0005-00-0001-80.png,0001-00-0000-93.png
00000014,779,0,1447863101671,1447863102184,888,449,0,0,0,1,3,2,4,0005-00-0000-70.png,0002-00-0000-13.png
00000014,780,1,1447863106051,1447863106733,918,535,0,0,0,4,3,1,7,0004-00-0001-20.png,0002-00-0000-91.png
00000014,781,1,1447863107867,1447863108389,871,419,0,0,0,3,0,3,3,0002-00-0000-14.png,0001-00-0000-15.png
00000014,782,1,1447863109280,1447863109871,913,501,0,0,0,1,0,1,1,0005-00-0001-92.png,0001-00-0001-01.png
00000014,783,0,1447863110748,1447863111342,927,502,0,0,0,1,4,3,5,0005-00-0000-41.png,0004-00-0001-18.png
00000014,784,0,1447863114843,1447863115337,422,452,0,0,0,3,2,1,5,0002-00-0001-74.png,0003-00-0001-45.png
00000014,785,1,1447863119056,1447863119565,905,433,0,0,0,2,1,1,3,0003-00-0001-01.png,0005-00-0001-55.png
00000014,786,1,1447863120648,1447863121117,418,480,0,0,0,0,4,4,4,0001-00-0001-17.png,0004-00-0000-49.png
00000014,787,1,1447863122038,1447863122627,870,452,0,0,0,3,1,2,4,0002-00-0000-10.png,0005-00-0000-45.png
00000014,788,1,1447863123558,1447863124010,356,437,0,0,0,0,1,1,1,0001-00-0001-55.png,0005-00-0000-50.png
00000014,789,1,1447863124847,1447863125532,383,469,0,0,0,1,2,1,3,0005-00-0000-33.png,0003-00-0001-71.png
00000014,790,0,1447863126501,1447863127103,872,538,0,0,0,2,3,1,5,0003-00-0001-56.png,0002-00-0001-94.png
00000014,791,1,1447863130155,1447863130702,410,468,0,0,0,0,3,3,3,0001-00-0000-96.png,0002-00-0001-51.png
00000014,792,1,1447863131738,1447863132407,878,428,0,0,0,4,3,1,7,0004-00-0000-32.png,0002-00-0000-82.png
00000014,793,1,1447863133296,1447863133986,435,453,0,0,0,0,2,2,2,0001-00-0001-10.png,0003-00-0001-12.png
00000014,794,0,1447863134875,1447863135487,453,462,0,0,0,4,2,2,6,0004-00-0000-85.png,0003-00-0001-05.png
00000014,795,1,1447863139182,1447863139735,895,488,0,0,0,2,0,2,2,0003-00-0001-13.png,0001-00-0001-34.png
00000014,796,1,1447863140770,1447863141233,393,482,0,0,0,1,3,2,4,0005-00-0001-20.png,0002-00-0001-71.png
00000014,797,1,1447863142101,1447863142903,402,417,0,0,0,3,4,1,7,0002-00-0000-56.png,0004-00-0001-14.png
00000014,798,1,1447863143882,1447863144361,439,476,0,0,0,2,4,2,6,0003-00-0000-86.png,0004-00-0001-51.png
00000014,799,1,1447863145326,1447863146451,930,427,0,0,0,4,0,4,4,0004-00-0001-04.png,0001-00-0001-62.png
00000014,800,1,1447863147338,1447863147892,898,484,0,0,0,4,1,3,5,0004-00-0001-49.png,0005-00-0001-41.png
00000014,801,0,1447863148796,1447863149296,464,450,0,0,0,4,3,1,7,0004-00-0000-08.png,0002-00-0001-47.png
00000014,802,1,1447863152869,1447863153420,926,384,0,0,0,4,2,2,6,0004-00-0000-13.png,0003-00-0000-29.png
00000014,803,0,1447863154407,1447863154870,446,509,0,0,0,4,1,3,5,0004-00-0000-76.png,0005-00-0000-47.png
00000014,804,1,1447863158273,1447863158850,409,519,0,0,0,0,1,1,1,0001-00-0000-45.png,0005-00-0000-30.png
00000014,805,1,1447863160193,1447863160720,918,495,0,0,0,2,0,2,2,0003-00-0000-24.png,0001-00-0001-56.png
00000014,806,1,1447863161610,1447863162087,444,479,0,0,0,0,2,2,2,0001-00-0000-22.png,0003-00-0000-97.png
00000014,807,1,1447863163083,1447863163664,894,502,0,0,0,3,0,3,3,0002-00-0000-88.png,0001-00-0001-15.png
00000014,808,1,1447863164573,1447863165011,453,476,0,0,0,2,4,2,6,0003-00-0001-13.png,0004-00-0001-23.png
00000014,809,1,1447863166045,1447863166507,517,529,0,0,0,0,4,4,4,0001-00-0000-55.png,0004-00-0000-91.png
00000014,810,0,1447863167518,1447863168004,456,490,0,0,0,3,2,1,5,0002-00-0000-58.png,0003-00-0000-19.png
00000014,811,1,1447863171128,1447863171854,392,403,0,0,0,1,4,3,5,0005-00-0001-87.png,0004-00-0001-65.png
00000014,812,0,1447863172905,1447863173456,899,491,0,0,0,1,2,1,3,0005-00-0001-23.png,0003-00-0000-98.png
00000014,813,1,1447863177036,1447863177536,976,489,0,0,0,2,1,1,3,0003-00-0000-24.png,0005-00-0000-71.png
00000014,814,1,1447863178661,1447863179164,440,508,0,0,0,1,3,2,4,0005-00-0000-71.png,0002-00-0001-13.png
00000014,815,1,1447863180069,1447863180564,436,443,0,0,0,2,3,1,5,0003-00-0001-43.png,0002-00-0001-56.png
00000014,816,1,1447863181520,1447863182006,899,464,0,0,0,1,0,1,1,0005-00-0001-49.png,0001-00-0000-75.png
00000014,817,0,1447863182981,1447863183662,898,482,0,0,0,3,4,1,7,0002-00-0001-12.png,0004-00-0000-51.png
00000014,818,1,1447863188426,1447863188951,951,437,0,0,0,3,1,2,4,0002-00-0001-84.png,0005-00-0001-42.png
00000014,819,1,1447863189994,1447863190535,924,482,0,0,0,4,0,4,4,0004-00-0001-13.png,0001-00-0001-80.png
00000014,820,1,1447863191465,1447863191894,401,450,0,0,0,0,3,3,3,0001-00-0001-34.png,0002-00-0000-72.png
00000014,821,1,1447863192858,1447863193437,903,519,0,0,0,3,0,3,3,0002-00-0001-52.png,0001-00-0001-56.png
00000014,822,1,1447863194438,1447863195014,903,469,0,0,0,1,0,1,1,0005-00-0001-03.png,0001-00-0000-58.png
00000014,823,0,1447863195844,1447863196487,899,440,0,0,0,3,4,1,7,0002-00-0001-73.png,0004-00-0001-76.png
00000014,824,0,1447863201135,1447863201624,919,414,0,0,0,1,2,1,3,0005-00-0000-70.png,0003-00-0000-17.png
00000014,825,1,1447863204700,1447863205180,919,543,0,0,0,4,0,4,4,0004-00-0001-57.png,0001-00-0000-55.png
00000014,826,1,1447863206068,1447863206916,969,512,0,0,0,4,1,3,5,0004-00-0001-55.png,0005-00-0001-95.png
00000014,827,0,1447863207913,1447863208343,406,459,0,0,0,4,2,2,6,0004-00-0001-40.png,0003-00-0001-88.png
00000014,828,1,1447863211653,1447863212233,895,392,0,0,0,3,1,2,4,0002-00-0000-78.png,0005-00-0000-83.png
00000014,829,1,1447863213231,1447863213935,870,446,0,0,0,3,2,1,5,0002-00-0001-87.png,0003-00-0000-15.png
00000014,830,1,1447863214847,1447863215310,416,509,0,0,0,0,4,4,4,0001-00-0001-87.png,0004-00-0001-31.png
00000014,831,1,1447863216208,1447863216780,444,461,0,0,0,0,2,2,2,0001-00-0000-17.png,0003-00-0001-01.png
00000014,832,1,1447863217683,1447863218387,899,423,0,0,0,2,1,1,3,0003-00-0000-01.png,0005-00-0001-38.png
00000014,833,1,1447863219291,1447863219800,434,456,0,0,0,0,3,3,3,0001-00-0000-89.png,0002-00-0001-22.png
00000014,834,1,1447863220729,1447863221324,441,433,0,0,0,2,4,2,6,0003-00-0001-11.png,0004-00-0001-60.png
00000014,835,0,1447863222229,1447863222870,900,437,0,0,0,1,4,3,5,0005-00-0000-95.png,0004-00-0001-35.png
00000014,836,1,1447863226914,1447863227397,465,551,0,0,0,0,1,1,1,0001-00-0001-25.png,0005-00-0000-66.png
00000014,837,0,1447863228618,1447863229163,401,411,0,0,0,4,3,1,7,0004-00-0000-52.png,0002-00-0000-98.png
00000014,838,1,1447863232737,1447863233253,905,518,0,0,0,2,0,2,2,0003-00-0001-05.png,0001-00-0000-45.png
00000014,839,0,1447863234194,1447863234836,903,494,0,0,0,2,3,1,5,0003-00-0000-53.png,0002-00-0001-70.png
00000014,840,0,1447863238581,1447863239045,900,489,0,0,0,1,3,2,4,0005-00-0000-88.png,0002-00-0000-70.png
00000014,841,1,1447863242377,1447863242926,368,391,0,0,0,1,4,3,5,0005-00-0001-75.png,0004-00-0001-24.png
00000014,842,1,1447863244009,1447863244472,398,469,0,0,0,1,2,1,3,0005-00-0000-44.png,0003-00-0001-41.png
00000014,843,0,1447863245356,1447863245849,418,458,0,0,0,3,1,2,4,0002-00-0001-47.png,0005-00-0000-11.png
00000014,844,1,1447863249276,1447863249986,379,415,0,0,0,0,1,1,1,0001-00-0001-37.png,0005-00-0001-70.png
00000014,845,1,1447863251045,1447863251479,375,476,0,0,0,1,3,2,4,0005-00-0001-07.png,0002-00-0000-63.png
00000014,846,1,1447863252381,1447863253097,390,473,0,0,0,2,4,2,6,0003-00-0000-21.png,0004-00-0000-83.png
00000014,847,1,1447863253970,1447863254457,902,459,0,0,0,1,0,1,1,0005-00-0001-59.png,0001-00-0000-78.png
00000014,848,1,1447863255366,1447863255905,913,476,0,0,0,4,0,4,4,0004-00-0001-83.png,0001-00-0001-47.png
00000014,849,0,1447863256866,1447863257345,471,480,0,0,0,3,2,1,5,0002-00-0001-32.png,0003-00-0001-33.png
00000014,850,1,1447863260933,1447863261390,434,468,0,0,0,0,3,3,3,0001-00-0000-81.png,0002-00-0000-31.png
00000014,851,1,1447863262633,1447863263175,871,418,0,0,0,2,1,1,3,0003-00-0000-76.png,0005-00-0000-87.png
00000014,852,1,1447863264093,1447863264533,363,461,0,0,0,0,4,4,4,0001-00-0000-50.png,0004-00-0001-72.png
00000014,853,1,1447863265423,1447863265905,412,502,0,0,0,0,2,2,2,0001-00-0000-41.png,0003-00-0001-74.png
00000014,854,0,1447863266816,1447863267535,427,462,0,0,0,4,3,1,7,0004-00-0000-59.png,0002-00-0000-01.png
00000014,855,0,1447863271028,1447863271503,881,531,0,0,0,3,4,1,7,0002-00-0000-94.png,0004-00-0001-40.png
00000014,856,1,1447863275261,1447863275765,952,475,0,0,0,4,1,3,5,0004-00-0001-41.png,0005-00-0001-76.png
00000014,857,1,1447863276826,1447863277374,438,491,0,0,0,2,3,1,5,0003-00-0001-17.png,0002-00-0001-68.png
00000014,858,1,1447863278295,1447863279143,911,491,0,0,0,3,0,3,3,0002-00-0001-00.png,0001-00-0001-10.png
00000014,859,0,1447863280105,1447863280630,393,446,0,0,0,2,0,2,2,0003-00-0001-04.png,0001-00-0000-03.png
00000014,860,1,1447863284124,1447863284742,965,397,0,0,0,4,2,2,6,0004-00-0001-84.png,0003-00-0001-05.png
00000014,861,1,1447863286219,1447863286765,895,446,0,0,0,4,3,1,7,0004-00-0001-16.png,0002-00-0001-48.png
00000014,862,1,1447863287728,1447863288362,898,429,0,0,0,2,0,2,2,0003-00-0000-56.png,0001-00-0000-43.png
00000014,863,1,1447863289316,1447863289874,871,470,0,0,0,4,2,2,6,0004-00-0001-68.png,0003-00-0001-44.png
00000014,864,1,1447863290854,1447863291360,469,534,0,0,0,2,4,2,6,0003-00-0000-66.png,0004-00-0001-91.png
00000014,865,1,1447863292326,1447863293520,401,500,0,0,0,1,2,1,3,0005-00-0000-94.png,0003-00-0001-36.png
00000014,866,0,1447863294495,1447863295020,459,427,0,0,0,1,0,1,1,0005-00-0000-79.png,0001-00-0000-56.png
00000014,867,1,1447863298180,1447863298846,965,449,0,0,0,3,2,1,5,0002-00-0001-18.png,0003-00-0001-97.png
00000014,868,1,1447863299788,1447863300402,376,415,0,0,0,1,4,3,5,0005-00-0000-64.png,0004-00-0000-90.png
00000014,869,1,1447863301377,1447863301876,386,466,0,0,0,0,1,1,1,0001-00-0000-04.png,0005-00-0001-94.png
00000014,870,0,1447863302808,1447863303363,443,481,0,0,0,4,1,3,5,0004-00-0001-18.png,0005-00-0000-16.png
00000014,871,1,1447863307540,1447863308014,461,506,0,0,0,1,3,2,4,0005-00-0000-31.png,0002-00-0000-20.png
00000014,872,0,1447863309211,1447863309729,404,456,0,0,0,3,0,3,3,0002-00-0001-18.png,0001-00-0001-51.png
00000014,873,1,1447863312979,1447863313447,936,446,0,0,0,2,1,1,3,0003-00-0000-85.png,0005-00-0001-53.png
00000014,874,1,1447863314450,1447863315155,875,528,0,0,0,3,1,2,4,0002-00-0001-24.png,0005-00-0001-13.png
00000014,875,1,1447863316069,1447863316572,420,445,0,0,0,3,4,1,7,0002-00-0001-76.png,0004-00-0000-40.png
00000014,876,1,1447863317489,1447863317933,407,462,0,0,0,0,2,2,2,0001-00-0001-57.png,0003-00-0001-42.png
00000014,877,0,1447863318841,1447863319453,891,486,0,0,0,2,3,1,5,0003-00-0001-70.png,0002-00-0000-08.png
00000014,878,1,1447863322888,1447863323392,423,480,0,0,0,0,4,4,4,0001-00-0001-63.png,0004-00-0000-75.png
00000014,879,0,1447863324538,1447863325051,926,456,0,0,0,0,3,3,3,0001-00-0001-56.png,0002-00-0001-24.png
00000014,880,1,1447863328336,1447863328908,902,521,0,0,0,4,0,4,4,0004-00-0000-89.png,0001-00-0000-06.png
00000014,881,0,1447863329895,1447863330478,877,467,0,0,0,2,3,1,5,0003-00-0000-00.png,0002-00-0001-21.png
00000014,882,1,1447863333486,1447863334053,931,428,0,0,0,2,1,1,3,0003-00-0001-77.png,0005-00-0000-38.png
00000014,883,1,1447863335029,1447863335444,413,480,0,0,0,0,2,2,2,0001-00-0000-57.png,0003-00-0001-52.png
00000014,884,1,1447863336457,1447863337039,876,492,0,0,0,3,1,2,4,0002-00-0000-83.png,0005-00-0001-86.png
00000014,885,0,1447863338036,1447863338426,459,489,0,0,0,4,1,3,5,0004-00-0000-68.png,0005-00-0001-17.png
00000014,886,0,1447863341523,1447863341930,950,457,0,0,0,2,4,2,6,0003-00-0001-24.png,0004-00-0000-74.png
00000014,887,1,1447863347815,1447863348255,366,481,0,0,0,0,3,3,3,0001-00-0000-40.png,0002-00-0000-09.png
00000014,888,1,1447863349605,1447863350356,877,494,0,0,0,3,2,1,5,0002-00-0000-79.png,0003-00-0001-17.png
00000014,889,0,1447863351414,1447863352019,902,493,0,0,0,1,4,3,5,0005-00-0000-31.png,0004-00-0000-84.png
00000014,890,0,1447863355259,1447863355784,953,467,0,0,0,1,2,1,3,0005-00-0000-44.png,0003-00-0001-02.png
00000014,891,1,1447863358748,1447863359330,929,440,0,0,0,4,0,4,4,0004-00-0000-35.png,0001-00-0000-32.png
00000014,892,1,1447863360269,1447863360766,905,480,0,0,0,4,3,1,7,0004-00-0001-04.png,0002-00-0001-24.png
00000014,893,1,1447863362010,1447863362614,925,475,0,0,0,1,0,1,1,0005-00-0001-80.png,0001-00-0001-49.png
00000014,894,1,1447863363507,1447863363925,442,495,0,0,0,0,4,4,4,0001-00-0000-25.png,0004-00-0000-51.png
00000014,895,1,1447863364766,1447863365346,898,535,0,0,0,2,0,2,2,0003-00-0000-27.png,0001-00-0000-65.png
00000014,896,1,1447863366247,1447863366777,453,514,0,0,0,1,3,2,4,0005-00-0001-43.png,0002-00-0000-20.png
00000014,897,1,1447863367710,1447863368151,388,449,0,0,0,3,4,1,7,0002-00-0001-30.png,0004-00-0000-15.png
00000014,898,0,1447863369083,1447863369558,452,502,0,0,0,4,2,2,6,0004-00-0001-15.png,0003-00-0001-38.png
00000014,899,0,1447863373250,1447863373763,348,416,0,0,0,3,0,3,3,0002-00-0001-18.png,0001-00-0001-29.png
00000014,900,1,1447863382038,1447863383848,229,403,0,0,0,0,1,1,1,0001-00-0001-37.png,0005-00-0000-19.png
00000014,901,1,1447863385397,1447863385918,918,565,0,0,0,3,2,1,5,0002-00-0000-11.png,0003-00-0001-44.png
00000014,902,0,1447863387089,1447863387596,952,481,0,0,0,1,3,2,4,0005-00-0001-23.png,0002-00-0001-24.png
00000014,903,0,1447863391005,1447863391440,871,357,0,0,0,2,4,2,6,0003-00-0001-90.png,0004-00-0000-39.png
00000014,904,1,1447863395915,1447863396340,344,373,0,0,0,0,3,3,3,0001-00-0001-53.png,0002-00-0001-05.png
00000014,905,1,1447863397734,1447863398265,913,450,0,0,0,4,3,1,7,0004-00-0000-06.png,0002-00-0000-46.png
00000014,906,1,1447863399354,1447863399840,376,552,0,0,0,0,2,2,2,0001-00-0000-04.png,0003-00-0001-13.png
00000014,907,1,1447863400886,1447863401475,928,497,0,0,0,2,1,1,3,0003-00-0000-46.png,0005-00-0000-78.png
00000014,908,1,1447863402494,1447863402973,401,475,0,0,0,1,2,1,3,0005-00-0001-16.png,0003-00-0001-53.png
00000014,909,1,1447863404238,1447863404693,427,552,0,0,0,0,1,1,1,0001-00-0001-00.png,0005-00-0001-15.png
00000014,910,1,1447863405935,1447863406476,461,445,0,0,0,0,4,4,4,0001-00-0000-36.png,0004-00-0000-62.png
00000014,911,0,1447863408589,1447863409074,925,462,0,0,0,3,4,1,7,0002-00-0001-78.png,0004-00-0001-55.png
00000014,912,1,1447863446490,1447863446928,424,381,0,0,0,1,4,3,5,0005-00-0001-29.png,0004-00-0000-24.png
00000014,913,0,1447863448081,1447863448518,414,437,0,0,0,4,2,2,6,0004-00-0001-58.png,0003-00-0001-08.png
00000014,914,0,1447863451751,1447863452171,476,378,0,0,0,1,0,1,1,0005-00-0001-05.png,0001-00-0000-18.png
00000014,915,1,1447863473074,1447863473642,933,489,0,0,0,3,1,2,4,0002-00-0001-38.png,0005-00-0000-58.png
00000014,916,0,1447863474799,1447863475381,933,503,0,0,0,2,3,1,5,0003-00-0000-35.png,0002-00-0001-58.png
00000014,917,1,1447863478637,1447863479046,921,340,0,0,0,4,0,4,4,0004-00-0001-83.png,0001-00-0001-73.png
00000014,918,1,1447863480065,1447863480572,952,463,0,0,0,3,0,3,3,0002-00-0000-68.png,0001-00-0000-78.png
00000014,919,1,1447863481486,1447863482023,878,454,0,0,0,2,0,2,2,0003-00-0001-64.png,0001-00-0000-63.png
00000014,920,1,1447863482917,1447863483553,922,432,0,0,0,4,1,3,5,0004-00-0001-08.png,0005-00-0000-49.png
00000014,921,1,1447863484473,1447863485046,864,563,0,0,0,3,1,2,4,0002-00-0000-60.png,0005-00-0001-93.png
00000014,922,0,1447863485990,1447863486617,899,481,0,0,0,1,3,2,4,0005-00-0000-21.png,0002-00-0001-20.png
00000014,923,1,1447863492042,1447863492544,959,424,0,0,0,2,1,1,3,0003-00-0000-93.png,0005-00-0000-53.png
00000014,924,1,1447863493720,1447863494135,410,471,0,0,0,1,4,3,5,0005-00-0001-20.png,0004-00-0001-82.png
00000014,925,1,1447863494984,1447863495489,949,484,0,0,0,2,0,2,2,0003-00-0000-74.png,0001-00-0000-82.png
00000014,926,1,1447863496332,1447863496751,430,465,0,0,0,0,4,4,4,0001-00-0001-73.png,0004-00-0001-60.png
00000014,927,1,1447863497605,1447863498130,415,436,0,0,0,2,4,2,6,0003-00-0000-65.png,0004-00-0001-00.png
00000014,928,1,1447863498995,1447863499409,372,427,0,0,0,0,2,2,2,0001-00-0001-46.png,0003-00-0000-25.png
00000014,929,0,1447863500375,1447863500954,453,423,0,0,0,1,0,1,1,0005-00-0001-08.png,0001-00-0000-24.png
00000014,930,1,1447863569223,1447863569620,367,341,0,0,0,0,1,1,1,0001-00-0001-36.png,0005-00-0001-02.png
00000014,931,0,1447863571045,1447863571477,388,431,0,0,0,3,0,3,3,0002-00-0000-53.png,0001-00-0001-75.png
00000014,932,1,1447863615901,1447863615957,310,253,0,0,0,3,4,1,7,0002-00-0001-03.png,0004-00-0000-09.png
00000014,933,1,1447863618736,1447863619144,357,444,0,0,0,0,3,3,3,0001-00-0001-76.png,0002-00-0001-17.png
00000014,934,0,1447863620386,1447863620856,915,562,0,0,0,2,3,1,5,0003-00-0001-84.png,0002-00-0000-15.png
00000014,935,0,1447863624898,1447863625353,468,498,0,0,0,4,1,3,5,0004-00-0000-91.png,0005-00-0001-60.png
00000014,936,1,1447863630571,1447863630971,975,438,0,0,0,4,2,2,6,0004-00-0000-50.png,0003-00-0000-91.png
00000014,937,1,1447863632012,1447863632457,421,477,0,0,0,1,2,1,3,0005-00-0001-51.png,0003-00-0001-81.png
00000014,938,1,1447863633344,1447863633874,950,475,0,0,0,3,2,1,5,0002-00-0001-36.png,0003-00-0001-28.png
00000014,939,1,1447863636104,1447863636577,944,495,0,0,0,4,0,4,4,0004-00-0001-57.png,0001-00-0001-50.png
00000014,940,1,1447863637686,1447863638211,909,474,0,0,0,4,3,1,7,0004-00-0000-42.png,0002-00-0000-50.png
00000014,941,0,1447863639505,1447863639932,419,427,0,0,0,4,1,3,5,0004-00-0000-50.png,0005-00-0000-65.png
00000014,942,0,1447863644694,1447863645140,913,528,0,0,0,2,3,1,5,0003-00-0000-10.png,0002-00-0000-71.png
00000014,943,1,1447863651555,1447863651995,964,420,0,0,0,3,1,2,4,0002-00-0001-78.png,0005-00-0001-19.png
00000014,944,1,1447863652986,1447863653473,924,484,0,0,0,4,0,4,4,0004-00-0001-71.png,0001-00-0001-46.png
00000014,945,1,1447863654386,1447863654887,927,501,0,0,0,2,1,1,3,0003-00-0001-73.png,0005-00-0001-62.png
00000014,946,0,1447863655778,1447863656466,901,424,0,0,0,1,4,3,5,0005-00-0000-97.png,0004-00-0001-25.png
00000014,947,1,1447863659859,1447863660272,443,413,0,0,0,0,4,4,4,0001-00-0000-31.png,0004-00-0000-82.png
00000014,948,1,1447863661468,1447863661911,396,460,0,0,0,1,3,2,4,0005-00-0001-71.png,0002-00-0001-18.png
00000014,949,1,1447863663145,1447863663730,414,410,0,0,0,1,2,1,3,0005-00-0001-82.png,0003-00-0000-66.png
00000014,950,1,1447863664725,1447863665233,450,473,0,0,0,2,4,2,6,0003-00-0000-70.png,0004-00-0000-71.png
00000014,951,0,1447863666089,1447863666553,453,477,0,0,0,1,0,1,1,0005-00-0000-84.png,0001-00-0000-04.png
