subject_id,trial,correct_response,stim_time,response_time,x_coord,y_coord,trial_timeout,timeout_time,interTrial_timeout,left_rank,right_rank,distance,joint_rank,left_image,right_image
00000014,1,1,1448293929228,1448293929637,366,376,0,0,0,0,3,3,3,0001-00-0001-29.png,0002-00-0000-44.png
00000014,2,0,1448293930785,1448293931257,950,511,0,0,0,3,4,1,7,0002-00-0000-13.png,0004-00-0001-56.png
00000014,3,0,1448293934810,1448293935222,401,422,0,0,0,1,0,1,1,0005-00-0000-52.png,0001-00-0001-23.png
00000014,4,1,1448293938536,1448293938992,925,528,0,0,0,4,1,3,5,0004-00-0000-45.png,0005-00-0001-76.png
00000014,5,1,1448293940236,1448293940919,970,446,0,0,0,3,1,2,4,0002-00-0001-07.png,0005-00-0000-66.png
00000014,6,1,1448293944292,1448293944768,978,434,0,0,0,2,1,1,3,0003-00-0001-62.png,0005-00-0000-20.png
00000014,7,0,1448293946594,1448293947073,971,427,0,0,0,2,4,2,6,0003-00-0001-70.png,0004-00-0001-56.png
00000014,8,1,1448293950185,1448293950571,401,436,0,0,0,0,4,4,4,0001-00-0001-81.png,0004-00-0001-11.png
00000014,9,1,1448293952583,1448293953070,964,399,0,0,0,4,0,4,4,0004-00-0001-53.png,0001-00-0000-57.png
00000014,10,0,1448293955150,1448293955545,383,397,0,0,0,3,2,1,5,0002-00-0000-67.png,0003-00-0000-20.png
00000014,11,1,1448293960232,1448293960642,416,555,0,0,0,1,4,3,5,0005-00-0001-79.png,0004-00-0001-61.png
00000014,12,0,1448293962469,1448293962930,953,417,0,0,0,2,3,1,5,0003-00-0001-49.png,0002-00-0000-23.png
00000014,13,1,1448293966633,1448293966980,425,435,0,0,0,0,2,2,2,0001-00-0000-92.png,0003-00-0001-97.png
00000014,14,1,1448293968988,1448293969531,957,471,0,0,0,2,0,2,2,0003-00-0000-57.png,0001-00-0000-23.png
00000014,15,1,1448293971536,1448293972077,921,391,0,0,0,3,0,3,3,0002-00-0001-27.png,0001-00-0001-89.png
00000014,16,1,1448293973552,1448293973980,382,429,0,0,0,1,2,1,3,0005-00-0001-75.png,0003-00-0000-76.png
00000014,17,1,1448293975706,1448293976115,336,355,0,0,0,0,1,1,1,0001-00-0001-18.png,0005-00-0000-82.png
00000014,18,1,1448293977843,1448293978333,926,377,0,0,0,4,3,1,7,0004-00-0001-25.png,0002-00-0001-93.png
00000014,19,0,1448293980630,1448293981101,411,449,0,0,0,4,2,2,6,0004-00-0001-65.png,0003-00-0000-19.png
00000014,20,0,1448293984166,1448293984592,957,392,0,0,0,1,3,2,4,0005-00-0001-93.png,0002-00-0000-07.png
00000014,21,1,1448293990686,1448293991122,950,527,0,0,0,2,1,1,3,0003-00-0001-68.png,0005-00-0000-81.png
00000014,22,0,1448293992926,1448293993443,906,401,0,0,0,0,1,1,1,0001-00-0000-53.png,0005-00-0000-03.png
00000014,23,1,1448294002015,1448294002538,950,501,0,0,0,4,3,1,7,0004-00-0001-33.png,0002-00-0000-20.png
00000014,24,0,1448294004801,1448294005390,378,408,0,0,0,4,2,2,6,0004-00-0001-11.png,0003-00-0000-79.png
00000014,25,1,1448294009483,1448294010038,925,467,0,0,0,4,1,3,5,0004-00-0000-56.png,0005-00-0000-82.png
00000014,26,0,1448294011868,1448294012331,951,488,0,0,0,2,4,2,6,0003-00-0000-68.png,0004-00-0001-64.png
00000014,27,1,1448294017273,1448294017766,997,419,0,0,0,2,0,2,2,0003-00-0000-88.png,0001-00-0001-26.png
00000014,28,0,1448294019600,1448294020089,956,401,0,0,0,2,3,1,5,0003-00-0001-02.png,0002-00-0001-78.png
00000014,29,1,1448294022995,1448294023502,388,344,0,0,0,1,4,3,5,0005-00-0001-22.png,0004-00-0000-29.png
00000014,30,1,1448294025621,1448294026126,291,390,0,0,0,0,4,4,4,0001-00-0001-27.png,0004-00-0000-83.png
00000014,31,0,1448294028109,1448294028605,950,438,0,0,0,0,2,2,2,0001-00-0001-25.png,0003-00-0001-79.png
00000014,32,1,1448294032946,1448294033445,893,513,0,0,0,3,2,1,5,0002-00-0001-85.png,0003-00-0000-06.png
00000014,33,1,1448294034585,1448294035097,899,554,0,0,0,3,0,3,3,0002-00-0001-80.png,0001-00-0001-27.png
00000014,34,1,1448294036435,1448294036958,888,410,0,0,0,4,0,4,4,0004-00-0000-30.png,0001-00-0000-93.png
00000014,35,1,1448294038185,1448294038695,932,479,0,0,0,3,1,2,4,0002-00-0001-99.png,0005-00-0000-10.png
00000014,36,1,1448294039778,1448294040259,364,423,0,0,0,0,3,3,3,0001-00-0001-32.png,0002-00-0001-36.png
00000014,37,0,1448294041318,1448294041923,924,536,0,0,0,3,4,1,7,0002-00-0001-19.png,0004-00-0000-87.png
00000014,38,1,1448294045174,1448294045632,370,438,0,0,0,1,2,1,3,0005-00-0001-83.png,0003-00-0001-30.png
00000014,39,1,1448294046771,1448294047290,954,443,0,0,0,1,0,1,1,0005-00-0001-18.png,0001-00-0000-13.png
00000014,40,0,1448294048224,1448294048871,913,397,0,0,0,1,3,2,4,0005-00-0000-87.png,0002-00-0001-32.png
00000014,41,1,1448294052060,1448294052556,357,472,0,0,0,0,4,4,4,0001-00-0000-27.png,0004-00-0001-42.png
00000014,42,1,1448294053588,1448294054103,367,471,0,0,0,1,3,2,4,0005-00-0000-36.png,0002-00-0001-92.png
00000014,43,1,1448294055031,1448294055708,926,462,0,0,0,3,1,2,4,0002-00-0001-70.png,0005-00-0000-85.png
00000014,44,1,1448294056659,1448294057252,905,453,0,0,0,2,1,1,3,0003-00-0000-82.png,0005-00-0001-41.png
00000014,45,1,1448294058200,1448294058904,898,537,0,0,0,4,1,3,5,0004-00-0000-95.png,0005-00-0001-25.png
00000014,46,0,1448294059879,1448294060487,875,429,0,0,0,2,4,2,6,0003-00-0000-87.png,0004-00-0001-81.png
00000014,47,1,1448294063331,1448294063802,939,410,0,0,0,4,0,4,4,0004-00-0000-38.png,0001-00-0001-62.png
00000014,48,1,1448294064901,1448294065485,879,401,0,0,0,4,2,2,6,0004-00-0001-60.png,0003-00-0001-54.png
00000014,49,1,1448294066460,1448294067031,929,441,0,0,0,2,0,2,2,0003-00-0001-77.png,0001-00-0001-97.png
00000014,50,0,1448294067969,1448294068659,922,394,0,0,0,1,4,3,5,0005-00-0000-95.png,0004-00-0000-78.png
00000014,51,1,1448294071703,1448294072182,875,397,0,0,0,3,0,3,3,0002-00-0000-17.png,0001-00-0000-82.png
00000014,52,0,1448294073247,1448294074291,926,461,0,0,0,0,1,1,1,0001-00-0001-03.png,0005-00-0000-90.png
00000014,53,1,1448294077150,1448294077576,923,431,0,0,0,4,3,1,7,0004-00-0001-30.png,0002-00-0000-76.png
00000014,54,1,1448294078515,1448294079158,927,433,0,0,0,3,2,1,5,0002-00-0000-57.png,0003-00-0000-68.png
00000014,55,0,1448294080086,1448294080646,922,432,0,0,0,2,3,1,5,0003-00-0001-24.png,0002-00-0001-76.png
00000014,56,0,1448294083741,1448294084356,888,410,0,0,0,3,4,1,7,0002-00-0000-74.png,0004-00-0000-47.png
00000014,57,0,1448294087456,1448294087927,934,447,0,0,0,1,2,1,3,0005-00-0000-49.png,0003-00-0001-73.png
00000014,58,1,1448294091862,1448294092363,346,390,0,0,0,0,2,2,2,0001-00-0000-63.png,0003-00-0000-07.png
00000014,59,1,1448294093312,1448294093917,341,431,0,0,0,0,3,3,3,0001-00-0001-69.png,0002-00-0001-33.png
00000014,60,0,1448294094893,1448294095435,365,403,0,0,0,1,0,1,1,0005-00-0000-96.png,0001-00-0000-02.png
00000014,61,1,1448294098538,1448294099023,358,388,0,0,0,1,4,3,5,0005-00-0001-42.png,0004-00-0001-41.png
00000014,62,0,1448294099981,1448294100542,431,448,0,0,0,3,2,1,5,0002-00-0001-22.png,0003-00-0000-25.png
00000014,63,1,1448294106233,1448294106691,951,449,0,0,0,4,1,3,5,0004-00-0000-70.png,0005-00-0001-62.png
00000014,64,0,1448294107623,1448294108065,435,480,0,0,0,3,1,2,4,0002-00-0000-09.png,0005-00-0001-22.png
00000014,65,1,1448294111585,1448294112052,951,462,0,0,0,1,0,1,1,0005-00-0001-11.png,0001-00-0000-99.png
00000014,66,1,1448294113000,1448294113551,903,519,0,0,0,4,3,1,7,0004-00-0001-14.png,0002-00-0001-05.png
00000014,67,0,1448294114513,1448294114925,433,473,0,0,0,4,2,2,6,0004-00-0000-37.png,0003-00-0001-71.png
00000014,68,1,1448294117849,1448294118398,431,539,0,0,0,1,2,1,3,0005-00-0000-94.png,0003-00-0000-08.png
00000014,69,1,1448294119351,1448294119790,387,410,0,0,0,0,1,1,1,0001-00-0001-39.png,0005-00-0001-14.png
00000014,70,1,1448294120734,1448294121196,400,457,0,0,0,0,3,3,3,0001-00-0000-46.png,0002-00-0001-23.png
00000014,71,1,1448294122245,1448294122684,414,488,0,0,0,2,4,2,6,0003-00-0000-79.png,0004-00-0000-92.png
00000014,72,1,1448294123696,1448294124245,878,426,0,0,0,2,0,2,2,0003-00-0001-09.png,0001-00-0000-43.png
00000014,73,1,1448294125175,1448294125722,927,461,0,0,0,3,0,3,3,0002-00-0000-80.png,0001-00-0001-74.png
00000014,74,0,1448294126707,1448294127323,862,398,0,0,0,3,4,1,7,0002-00-0000-87.png,0004-00-0001-99.png
00000014,75,1,1448294130544,1448294130968,421,424,0,0,0,0,4,4,4,0001-00-0001-23.png,0004-00-0001-44.png
00000014,76,1,1448294132041,1448294132478,427,478,0,0,0,1,3,2,4,0005-00-0001-16.png,0002-00-0000-68.png
00000014,77,1,1448294133456,1448294134030,915,461,0,0,0,2,1,1,3,0003-00-0000-47.png,0005-00-0000-22.png
00000014,78,1,1448294134985,1448294135485,431,486,0,0,0,0,2,2,2,0001-00-0001-08.png,0003-00-0000-40.png
00000014,79,1,1448294136437,1448294137112,903,467,0,0,0,4,0,4,4,0004-00-0001-98.png,0001-00-0000-64.png
00000014,80,1,1448294138046,1448294138504,452,486,0,0,0,2,3,1,5,0003-00-0000-57.png,0002-00-0001-34.png
00000014,81,1,1448294139446,1448294140064,900,476,0,0,0,2,1,1,3,0003-00-0001-61.png,0005-00-0000-74.png
00000014,82,1,1448294141019,1448294141599,453,501,0,0,0,1,3,2,4,0005-00-0001-21.png,0002-00-0000-46.png
00000014,83,1,1448294142837,1448294143265,376,455,0,0,0,0,2,2,2,0001-00-0001-57.png,0003-00-0001-31.png
00000014,84,0,1448294144293,1448294144733,413,555,0,0,0,4,3,1,7,0004-00-0000-52.png,0002-00-0000-08.png
00000014,85,1,1448294148343,1448294148779,929,442,0,0,0,3,0,3,3,0002-00-0000-18.png,0001-00-0000-83.png
00000014,86,0,1448294149695,1448294150286,882,542,0,0,0,2,4,2,6,0003-00-0001-99.png,0004-00-0001-05.png
00000014,87,1,1448294153362,1448294153800,435,535,0,0,0,0,3,3,3,0001-00-0001-32.png,0002-00-0001-30.png
00000014,88,1,1448294154724,1448294155160,401,499,0,0,0,1,4,3,5,0005-00-0001-98.png,0004-00-0001-66.png
00000014,89,1,1448294156117,1448294156681,905,453,0,0,0,3,1,2,4,0002-00-0001-40.png,0005-00-0001-07.png
00000014,90,1,1448294157605,1448294158227,911,476,0,0,0,4,0,4,4,0004-00-0000-84.png,0001-00-0000-34.png
00000014,91,1,1448294159241,1448294159771,398,445,0,0,0,0,4,4,4,0001-00-0000-97.png,0004-00-0000-59.png
00000014,92,0,1448294173397,1448294173860,979,519,0,0,0,2,3,1,5,0003-00-0000-75.png,0002-00-0000-43.png
00000014,93,1,1448294176837,1448294177253,376,384,0,0,0,3,4,1,7,0002-00-0000-12.png,0004-00-0001-74.png
00000014,94,1,1448294178230,1448294178623,401,450,0,0,0,1,2,1,3,0005-00-0001-88.png,0003-00-0000-62.png
00000014,95,0,1448294179508,1448294179984,376,448,0,0,0,4,2,2,6,0004-00-0000-02.png,0003-00-0001-20.png
00000014,96,0,1448294184599,1448294185043,386,407,0,0,0,3,2,1,5,0002-00-0001-22.png,0003-00-0000-38.png
00000014,97,1,1448294187913,1448294188367,902,434,0,0,0,1,0,1,1,0005-00-0000-09.png,0001-00-0001-31.png
00000014,98,1,1448294189268,1448294189809,888,553,0,0,0,2,0,2,2,0003-00-0001-28.png,0001-00-0000-01.png
00000014,99,1,1448294190750,1448294191249,388,475,0,0,0,0,1,1,1,0001-00-0001-20.png,0005-00-0001-33.png
00000014,100,1,1448294192129,1448294192650,914,476,0,0,0,4,1,3,5,0004-00-0000-15.png,0005-00-0001-76.png
00000014,101,0,1448294193552,1448294194132,903,440,0,0,0,2,3,1,5,0003-00-0001-70.png,0002-00-0001-63.png
00000014,102,1,1448294196988,1448294197430,888,398,0,0,0,4,2,2,6,0004-00-0000-19.png,0003-00-0000-37.png
00000014,103,1,1448294198382,1448294198896,925,464,0,0,0,4,1,3,5,0004-00-0000-87.png,0005-00-0000-92.png
00000014,104,1,1448294199954,1448294200514,926,455,0,0,0,4,3,1,7,0004-00-0001-68.png,0002-00-0000-97.png
00000014,105,1,1448294201442,1448294202439,401,475,0,0,0,0,4,4,4,0001-00-0001-28.png,0004-00-0000-04.png
00000014,106,1,1448294203361,1448294203875,338,423,0,0,0,0,1,1,1,0001-00-0000-96.png,0005-00-0001-86.png
00000014,107,1,1448294204791,1448294205317,920,455,0,0,0,3,1,2,4,0002-00-0000-67.png,0005-00-0001-27.png
00000014,108,1,1448294206251,1448294206904,872,419,0,0,0,2,1,1,3,0003-00-0001-04.png,0005-00-0001-42.png
00000014,109,1,1448294207844,1448294208291,394,453,0,0,0,0,3,3,3,0001-00-0001-16.png,0002-00-0001-33.png
00000014,110,1,1448294209304,1448294209862,898,536,0,0,0,4,0,4,4,0004-00-0000-89.png,0001-00-0000-54.png
00000014,111,1,1448294210843,1448294211318,418,480,0,0,0,3,4,1,7,0002-00-0000-99.png,0004-00-0001-17.png
00000014,112,1,1448294212264,1448294212870,900,437,0,0,0,2,0,2,2,0003-00-0000-03.png,0001-00-0000-61.png
00000014,113,1,1448294213837,1448294214437,880,480,0,0,0,3,0,3,3,0002-00-0000-95.png,0001-00-0000-61.png
00000014,114,1,1448294215406,1448294215813,445,480,0,0,0,1,2,1,3,0005-00-0000-03.png,0003-00-0001-30.png
00000014,115,1,1448294216786,1448294217279,401,475,0,0,0,0,2,2,2,0001-00-0001-88.png,0003-00-0001-84.png
00000014,116,0,1448294218409,1448294219048,937,476,0,0,0,1,3,2,4,0005-00-0000-56.png,0002-00-0001-46.png
00000014,117,0,1448294222332,1448294222730,406,394,0,0,0,3,2,1,5,0002-00-0001-45.png,0003-00-0000-28.png
00000014,118,0,1448294225830,1448294226203,400,408,0,0,0,1,0,1,1,0005-00-0001-88.png,0001-00-0000-90.png
00000014,119,1,1448294229058,1448294229495,335,409,0,0,0,1,4,3,5,0005-00-0001-83.png,0004-00-0000-90.png
00000014,120,1,1448294230611,1448294231717,467,522,0,0,0,2,4,2,6,0003-00-0001-14.png,0004-00-0000-32.png
00000014,121,1,1448294233473,1448294233917,424,435,0,0,0,1,2,1,3,0005-00-0000-75.png,0003-00-0001-21.png
00000014,122,1,1448294235101,1448294235814,435,410,0,0,0,1,4,3,5,0005-00-0000-28.png,0004-00-0000-27.png
00000014,123,1,1448294237019,1448294237464,381,409,0,0,0,0,4,4,4,0001-00-0001-42.png,0004-00-0000-68.png
00000014,124,1,1448294239367,1448294239831,943,456,0,0,0,4,1,3,5,0004-00-0001-87.png,0005-00-0001-37.png
00000014,125,0,1448294241006,1448294241568,990,502,0,0,0,2,3,1,5,0003-00-0000-82.png,0002-00-0001-96.png
00000014,126,1,1448294244902,1448294245326,952,436,0,0,0,4,3,1,7,0004-00-0000-80.png,0002-00-0000-27.png
00000014,127,1,1448294246575,1448294246947,360,465,0,0,0,0,3,3,3,0001-00-0001-39.png,0002-00-0000-51.png
00000014,128,1,1448294248134,1448294248580,317,429,0,0,0,0,2,2,2,0001-00-0001-12.png,0003-00-0001-89.png
00000014,129,0,1448294249815,1448294250316,331,428,0,0,0,1,0,1,1,0005-00-0000-33.png,0001-00-0001-08.png
00000014,130,1,1448294256505,1448294256926,876,553,0,0,0,3,0,3,3,0002-00-0000-14.png,0001-00-0000-15.png
00000014,131,0,1448294258474,1448294258992,976,476,0,0,0,2,4,2,6,0003-00-0000-78.png,0004-00-0000-54.png
00000014,132,0,1448294263670,1448294264078,408,419,0,0,0,3,2,1,5,0002-00-0000-31.png,0003-00-0001-24.png
00000014,133,0,1448294267231,1448294267654,949,433,0,0,0,1,3,2,4,0005-00-0001-56.png,0002-00-0001-80.png
00000014,134,1,1448294270857,1448294271270,953,495,0,0,0,2,0,2,2,0003-00-0000-34.png,0001-00-0000-58.png
00000014,135,1,1448294272397,1448294272932,933,448,0,0,0,2,1,1,3,0003-00-0000-71.png,0005-00-0001-69.png
00000014,136,0,1448294273976,1448294274581,397,396,0,0,0,4,2,2,6,0004-00-0001-11.png,0003-00-0000-65.png
00000014,137,1,1448294277465,1448294277921,939,449,0,0,0,4,0,4,4,0004-00-0001-40.png,0001-00-0001-37.png
00000014,138,0,1448294279085,1448294279553,913,450,0,0,0,3,4,1,7,0002-00-0000-68.png,0004-00-0000-41.png
00000014,139,1,1448294282633,1448294283057,913,384,0,0,0,3,1,2,4,0002-00-0000-44.png,0005-00-0001-44.png
00000014,140,1,1448294284184,1448294284630,344,454,0,0,0,0,1,1,1,0001-00-0001-76.png,0005-00-0001-43.png
00000014,141,1,1448294286201,1448294286668,927,488,0,0,0,3,2,1,5,0002-00-0000-85.png,0003-00-0000-48.png
00000014,142,1,1448294287811,1448294288288,350,423,0,0,0,1,4,3,5,0005-00-0001-17.png,0004-00-0001-40.png
00000014,143,1,1448294289469,1448294289956,900,443,0,0,0,2,1,1,3,0003-00-0000-59.png,0005-00-0000-01.png
00000014,144,1,1448294291002,1448294291532,900,423,0,0,0,2,0,2,2,0003-00-0000-21.png,0001-00-0000-07.png
00000014,145,1,1448294292615,1448294293067,346,452,0,0,0,1,3,2,4,0005-00-0000-07.png,0002-00-0000-18.png
00000014,146,1,1448294294052,1448294294503,426,476,0,0,0,0,3,3,3,0001-00-0001-59.png,0002-00-0001-62.png
00000014,147,1,1448294295674,1448294296242,888,462,0,0,0,4,2,2,6,0004-00-0001-77.png,0003-00-0001-66.png
00000014,148,1,1448294297255,1448294297900,916,448,0,0,0,4,3,1,7,0004-00-0001-67.png,0002-00-0000-54.png
00000014,149,1,1448294298885,1448294299979,395,394,0,0,0,3,4,1,7,0002-00-0001-08.png,0004-00-0000-34.png
00000014,150,0,1448294301014,1448294301439,400,463,0,0,0,4,1,3,5,0004-00-0000-34.png,0005-00-0001-36.png
00000014,151,1,1448294304381,1448294304812,401,462,0,0,0,0,1,1,1,0001-00-0000-49.png,0005-00-0000-87.png
00000014,152,1,1448294305701,1448294306180,343,419,0,0,0,0,4,4,4,0001-00-0000-22.png,0004-00-0000-28.png
00000014,153,0,1448294307334,1448294307896,901,437,0,0,0,2,3,1,5,0003-00-0000-22.png,0002-00-0000-36.png
00000014,154,0,1448294310760,1448294310824,478,449,0,0,0,4,0,4,4,0004-00-0000-02.png,0001-00-0000-18.png
00000014,155,1,1448294313739,1448294314204,949,458,0,0,0,3,1,2,4,0002-00-0001-28.png,0005-00-0001-19.png
00000014,156,1,1448294315290,1448294315696,376,436,0,0,0,0,2,2,2,0001-00-0001-79.png,0003-00-0000-89.png
00000014,157,1,1448294316796,1448294317260,356,423,0,0,0,1,2,1,3,0005-00-0001-00.png,0003-00-0000-57.png
00000014,158,1,1448294318227,1448294318792,875,541,0,0,0,1,0,1,1,0005-00-0001-91.png,0001-00-0001-44.png
00000014,159,0,1448294319806,1448294320418,903,463,0,0,0,2,4,2,6,0003-00-0001-90.png,0004-00-0001-36.png
00000014,160,1,1448294323492,1448294323947,929,442,0,0,0,3,0,3,3,0002-00-0000-47.png,0001-00-0000-66.png
00000014,161,1,1448294324914,1448294325309,358,437,0,0,0,0,4,4,4,0001-00-0001-26.png,0004-00-0001-58.png
00000014,162,1,1448294326345,1448294326813,349,457,0,0,0,1,2,1,3,0005-00-0001-85.png,0003-00-0000-45.png
00000014,163,1,1448294327807,1448294328228,405,473,0,0,0,0,3,3,3,0001-00-0000-97.png,0002-00-0001-25.png
00000014,164,1,1448294329228,1448294329698,390,459,0,0,0,3,4,1,7,0002-00-0001-66.png,0004-00-0000-47.png
00000014,165,0,1448294330839,1448294331262,392,465,0,0,0,4,3,1,7,0004-00-0000-15.png,0002-00-0001-33.png
00000014,166,1,1448294334364,1448294334896,356,394,0,0,0,1,3,2,4,0005-00-0000-13.png,0002-00-0001-86.png
00000014,167,1,1448294335927,1448294336471,925,438,0,0,0,2,0,2,2,0003-00-0001-85.png,0001-00-0001-05.png
00000014,168,0,1448294337448,1448294337970,871,472,0,0,0,2,4,2,6,0003-00-0000-60.png,0004-00-0001-25.png
00000014,169,1,1448294340802,1448294341270,928,440,0,0,0,4,1,3,5,0004-00-0001-94.png,0005-00-0001-27.png
00000014,170,1,1448294342208,1448294342697,872,410,0,0,0,2,1,1,3,0003-00-0001-85.png,0005-00-0001-88.png
00000014,171,1,1448294343688,1448294344355,902,443,0,0,0,3,2,1,5,0002-00-0001-52.png,0003-00-0000-36.png
00000014,172,1,1448294345330,1448294345742,380,431,0,0,0,0,2,2,2,0001-00-0001-86.png,0003-00-0000-64.png
00000014,173,1,1448294346771,1448294347323,382,409,0,0,0,2,3,1,5,0003-00-0000-28.png,0002-00-0000-11.png
00000014,174,1,1448294348349,1448294348842,376,426,0,0,0,1,4,3,5,0005-00-0000-98.png,0004-00-0001-39.png
00000014,175,1,1448294349840,1448294350385,924,434,0,0,0,1,0,1,1,0005-00-0001-23.png,0001-00-0001-79.png
00000014,176,0,1448294351411,1448294351892,325,448,0,0,0,4,0,4,4,0004-00-0001-07.png,0001-00-0000-22.png
00000014,177,1,1448294354737,1448294355404,938,449,0,0,0,4,2,2,6,0004-00-0000-92.png,0003-00-0001-19.png
00000014,178,1,1448294356447,1448294356918,900,439,0,0,0,3,0,3,3,0002-00-0001-92.png,0001-00-0000-04.png
00000014,179,1,1448294357899,1448294358470,900,449,0,0,0,3,1,2,4,0002-00-0001-51.png,0005-00-0000-84.png
00000014,180,1,1448294359469,1448294360080,409,392,0,0,0,0,1,1,1,0001-00-0000-92.png,0005-00-0001-93.png
00000014,181,0,1448294361029,1448294361456,436,470,0,0,0,2,1,1,3,0003-00-0001-82.png,0005-00-0000-33.png
00000014,182,1,1448294364445,1448294364913,368,401,0,0,0,0,2,2,2,0001-00-0000-55.png,0003-00-0000-56.png
00000014,183,1,1448294365980,1448294366436,401,436,0,0,0,0,1,1,1,0001-00-0001-69.png,0005-00-0000-13.png
00000014,184,1,1448294367391,1448294367927,902,417,0,0,0,3,0,3,3,0002-00-0000-02.png,0001-00-0001-18.png
00000014,185,0,1448294368931,1448294369475,875,463,0,0,0,1,4,3,5,0005-00-0000-15.png,0004-00-0000-79.png
00000014,186,1,1448294372511,1448294373008,390,416,0,0,0,1,2,1,3,0005-00-0000-18.png,0003-00-0001-10.png
00000014,187,1,1448294373991,1448294374551,903,468,0,0,0,4,1,3,5,0004-00-0000-37.png,0005-00-0001-08.png
00000014,188,0,1448294375530,1448294376082,879,428,0,0,0,2,3,1,5,0003-00-0001-42.png,0002-00-0000-18.png
00000014,189,1,1448294379138,1448294379609,862,521,0,0,0,4,0,4,4,0004-00-0000-48.png,0001-00-0001-40.png
00000014,190,0,1448294380809,1448294381249,341,455,0,0,0,3,1,2,4,0002-00-0000-66.png,0005-00-0000-72.png
00000014,191,0,1448294384227,1448294384681,370,398,0,0,0,4,2,2,6,0004-00-0000-79.png,0003-00-0000-99.png
00000014,192,0,1448294387754,1448294388217,447,400,0,0,0,3,2,1,5,0002-00-0000-25.png,0003-00-0000-10.png
00000014,193,1,1448294393856,1448294394659,350,423,0,0,0,2,4,2,6,0003-00-0000-15.png,0004-00-0001-54.png
00000014,194,1,1448294395657,1448294396173,915,527,0,0,0,4,3,1,7,0004-00-0000-42.png,0002-00-0000-55.png
00000014,195,0,1448294397107,1448294397696,896,446,0,0,0,3,4,1,7,0002-00-0000-34.png,0004-00-0000-41.png
00000014,196,1,1448294400754,1448294401280,952,435,0,0,0,2,0,2,2,0003-00-0000-79.png,0001-00-0000-49.png
00000014,197,1,1448294402236,1448294402699,372,541,0,0,0,0,3,3,3,0001-00-0001-03.png,0002-00-0001-68.png
00000014,198,1,1448294403766,1448294404312,926,462,0,0,0,1,0,1,1,0005-00-0000-30.png,0001-00-0001-60.png
00000014,199,1,1448294405296,1448294405757,427,450,0,0,0,1,3,2,4,0005-00-0000-55.png,0002-00-0001-69.png
00000014,200,1,1448294406700,1448294407152,434,446,0,0,0,0,4,4,4,0001-00-0000-47.png,0004-00-0001-89.png
00000014,201,0,1448294408189,1448294408650,453,449,0,0,0,3,2,1,5,0002-00-0001-15.png,0003-00-0001-34.png
00000014,202,0,1448294412065,1448294412478,964,450,0,0,0,2,3,1,5,0003-00-0000-21.png,0002-00-0000-16.png
00000014,203,1,1448294415981,1448294416393,939,441,0,0,0,3,0,3,3,0002-00-0000-00.png,0001-00-0000-77.png
00000014,204,0,1448294419151,1448294419528,414,453,0,0,0,2,1,1,3,0003-00-0000-99.png,0005-00-0000-41.png
00000014,205,0,1448294422878,1448294423859,406,433,0,0,0,4,1,3,5,0004-00-0001-03.png,0005-00-0001-04.png
00000014,206,0,1448294426763,1448294427292,972,493,0,0,0,0,1,1,1,0001-00-0001-51.png,0005-00-0001-86.png
00000014,207,0,1448294430326,1448294430907,334,390,0,0,0,1,0,1,1,0005-00-0001-62.png,0001-00-0001-55.png
00000014,208,1,1448294433909,1448294434352,346,384,0,0,0,0,2,2,2,0001-00-0000-37.png,0003-00-0000-84.png
00000014,209,0,1448294435433,1448294435922,915,449,0,0,0,0,4,4,4,0001-00-0001-54.png,0004-00-0001-08.png
00000014,210,1,1448294439137,1448294439590,951,437,0,0,0,4,0,4,4,0004-00-0000-64.png,0001-00-0000-10.png
00000014,211,1,1448294440650,1448294441127,895,451,0,0,0,2,0,2,2,0003-00-0000-76.png,0001-00-0001-29.png
00000014,212,1,1448294442080,1448294442524,438,465,0,0,0,2,4,2,6,0003-00-0000-30.png,0004-00-0001-35.png
00000014,213,1,1448294443461,1448294443953,394,416,0,0,0,3,4,1,7,0002-00-0000-47.png,0004-00-0001-12.png
00000014,214,0,1448294444892,1448294445408,427,488,0,0,0,3,1,2,4,0002-00-0001-14.png,0005-00-0000-87.png
00000014,215,0,1448294448245,1448294448697,882,541,0,0,0,1,3,2,4,0005-00-0000-74.png,0002-00-0001-04.png
00000014,216,1,1448294451699,1448294452172,406,421,0,0,0,0,3,3,3,0001-00-0001-43.png,0002-00-0000-69.png
00000014,217,1,1448294453152,1448294453582,401,529,0,0,0,1,2,1,3,0005-00-0001-23.png,0003-00-0000-99.png
00000014,218,1,1448294454562,1448294455321,903,441,0,0,0,4,3,1,7,0004-00-0000-37.png,0002-00-0001-85.png
00000014,219,1,1448294456311,1448294457093,857,406,0,0,0,4,2,2,6,0004-00-0000-28.png,0003-00-0001-95.png
00000014,220,1,1448294458020,1448294458503,461,445,0,0,0,1,4,3,5,0005-00-0000-16.png,0004-00-0000-69.png
00000014,221,1,1448294459531,1448294459962,390,435,0,0,0,0,1,1,1,0001-00-0001-96.png,0005-00-0000-75.png
00000014,222,1,1448294460991,1448294461517,923,432,0,0,0,3,0,3,3,0002-00-0000-50.png,0001-00-0001-45.png
00000014,223,0,1448294462471,1448294462954,453,461,0,0,0,2,1,1,3,0003-00-0000-92.png,0005-00-0000-03.png
00000014,224,1,1448294466140,1448294466591,447,435,0,0,0,1,2,1,3,0005-00-0001-02.png,0003-00-0001-21.png
00000014,225,1,1448294467640,1448294468166,939,462,0,0,0,4,3,1,7,0004-00-0000-20.png,0002-00-0000-55.png
00000014,226,1,1448294469131,1448294469648,420,559,0,0,0,1,3,2,4,0005-00-0000-46.png,0002-00-0001-06.png
00000014,227,1,1448294470650,1448294471130,406,544,0,0,0,0,2,2,2,0001-00-0000-27.png,0003-00-0001-32.png
00000014,228,1,1448294472144,1448294472569,413,452,0,0,0,0,3,3,3,0001-00-0001-63.png,0002-00-0000-27.png
00000014,229,1,1448294473574,1448294474189,875,554,0,0,0,4,1,3,5,0004-00-0000-72.png,0005-00-0001-40.png
00000014,230,0,1448294475292,1448294475680,406,461,0,0,0,4,2,2,6,0004-00-0000-74.png,0003-00-0001-84.png
00000014,231,0,1448294478674,1448294479109,870,525,0,0,0,2,3,1,5,0003-00-0000-10.png,0002-00-0001-39.png
00000014,232,0,1448294482023,1448294482495,388,398,0,0,0,3,2,1,5,0002-00-0001-73.png,0003-00-0001-33.png
00000014,233,1,1448294485570,1448294485993,370,400,0,0,0,0,4,4,4,0001-00-0001-28.png,0004-00-0000-68.png
00000014,234,1,1448294487071,1448294487604,903,442,0,0,0,3,1,2,4,0002-00-0000-04.png,0005-00-0001-02.png
00000014,235,0,1448294488600,1448294489165,888,462,0,0,0,3,4,1,7,0002-00-0001-39.png,0004-00-0001-38.png
00000014,236,1,1448294492138,1448294492696,882,552,0,0,0,1,0,1,1,0005-00-0001-25.png,0001-00-0001-98.png
00000014,237,0,1448294493638,1448294494224,901,461,0,0,0,2,4,2,6,0003-00-0000-37.png,0004-00-0000-29.png
00000014,238,1,1448294497117,1448294497638,952,449,0,0,0,4,0,4,4,0004-00-0001-88.png,0001-00-0000-32.png
00000014,239,1,1448294498628,1448294499181,952,455,0,0,0,2,0,2,2,0003-00-0001-24.png,0001-00-0001-50.png
00000014,240,1,1448294500179,1448294500759,352,401,0,0,0,1,4,3,5,0005-00-0000-50.png,0004-00-0001-59.png
00000014,241,1,1448294501727,1448294502813,931,401,0,0,0,2,0,2,2,0003-00-0001-47.png,0001-00-0000-10.png
00000014,242,0,1448294503855,1448294504430,879,401,0,0,0,2,3,1,5,0003-00-0001-84.png,0002-00-0000-14.png
00000014,243,0,1448294507353,1448294507789,924,482,0,0,0,1,3,2,4,0005-00-0001-16.png,0002-00-0000-62.png
00000014,244,1,1448294510891,1448294511423,416,397,0,0,0,1,2,1,3,0005-00-0001-33.png,0003-00-0001-46.png
00000014,245,1,1448294512412,1448294513000,887,554,0,0,0,4,1,3,5,0004-00-0000-54.png,0005-00-0000-16.png
00000014,246,1,1448294514033,1448294514598,873,535,0,0,0,3,0,3,3,0002-00-0001-52.png,0001-00-0000-35.png
00000014,247,1,1448294515602,1448294516195,915,475,0,0,0,4,0,4,4,0004-00-0000-97.png,0001-00-0001-01.png
00000014,248,0,1448294517152,1448294517775,860,560,0,0,0,3,4,1,7,0002-00-0001-23.png,0004-00-0001-43.png
00000014,249,1,1448294520647,1448294521094,421,426,0,0,0,0,4,4,4,0001-00-0000-67.png,0004-00-0001-50.png
00000014,250,1,1448294522121,1448294522635,913,437,0,0,0,3,1,2,4,0002-00-0001-91.png,0005-00-0001-96.png
00000014,251,0,1448294523622,1448294524165,857,565,0,0,0,2,4,2,6,0003-00-0000-49.png,0004-00-0000-59.png
00000014,252,1,1448294527308,1448294527767,413,423,0,0,0,0,3,3,3,0001-00-0000-31.png,0002-00-0001-65.png
00000014,253,1,1448294528792,1448294529258,286,422,0,0,0,0,1,1,1,0001-00-0000-42.png,0005-00-0001-71.png
00000014,254,1,1448294530262,1448294530873,898,457,0,0,0,4,3,1,7,0004-00-0000-05.png,0002-00-0001-69.png
00000014,255,0,1448294531871,1448294532404,913,450,0,0,0,1,4,3,5,0005-00-0001-78.png,0004-00-0000-97.png
00000014,256,1,1448294535370,1448294535818,926,435,0,0,0,2,1,1,3,0003-00-0001-19.png,0005-00-0000-91.png
00000014,257,1,1448294536780,1448294537328,889,449,0,0,0,4,2,2,6,0004-00-0000-99.png,0003-00-0001-44.png
00000014,258,0,1448294538342,1448294538766,376,449,0,0,0,1,0,1,1,0005-00-0000-85.png,0001-00-0000-48.png
00000014,259,0,1448294542020,1448294542493,408,394,0,0,0,3,2,1,5,0002-00-0000-78.png,0003-00-0001-88.png
00000014,260,1,1448294545667,1448294546089,390,396,0,0,0,0,2,2,2,0001-00-0000-89.png,0003-00-0001-33.png
00000014,261,1,1448294547197,1448294547748,919,456,0,0,0,2,1,1,3,0003-00-0000-74.png,0005-00-0001-14.png
00000014,262,1,1448294548687,1448294549181,413,424,0,0,0,1,3,2,4,0005-00-0001-01.png,0002-00-0000-23.png
00000014,263,0,1448294550190,1448294550704,900,464,0,0,0,0,1,1,1,0001-00-0000-09.png,0005-00-0000-49.png
00000014,264,1,1448294553596,1448294553652,513,436,0,0,0,3,4,1,7,0002-00-0000-19.png,0004-00-0000-51.png
00000014,265,1,1448294554660,1448294555211,925,457,0,0,0,1,0,1,1,0005-00-0000-72.png,0001-00-0001-35.png
00000014,266,1,1448294556193,1448294556635,369,452,0,0,0,0,2,2,2,0001-00-0000-06.png,0003-00-0000-13.png
00000014,267,1,1448294557592,1448294558026,407,450,0,0,0,1,4,3,5,0005-00-0001-05.png,0004-00-0001-76.png
00000014,268,1,1448294559054,1448294559566,907,460,0,0,0,3,0,3,3,0002-00-0000-51.png,0001-00-0001-74.png
00000014,269,1,1448294560504,1448294561017,453,475,0,0,0,1,2,1,3,0005-00-0001-32.png,0003-00-0001-91.png
00000014,270,0,1448294561975,1448294562583,406,515,0,0,0,3,2,1,5,0002-00-0000-79.png,0003-00-0000-25.png
00000014,271,1,1448294565711,1448294566166,390,398,0,0,0,0,3,3,3,0001-00-0001-36.png,0002-00-0000-05.png
00000014,272,0,1448294567131,1448294567789,880,479,0,0,0,2,4,2,6,0003-00-0000-96.png,0004-00-0000-40.png
00000014,273,1,1448294570632,1448294571086,899,517,0,0,0,4,2,2,6,0004-00-0001-24.png,0003-00-0000-44.png
00000014,274,0,1448294572042,1448294572582,873,534,0,0,0,2,3,1,5,0003-00-0000-77.png,0002-00-0000-56.png
00000014,275,1,1448294575600,1448294576170,933,473,0,0,0,3,1,2,4,0002-00-0001-94.png,0005-00-0000-53.png
00000014,276,1,1448294577221,1448294577794,925,488,0,0,0,4,0,4,4,0004-00-0000-53.png,0001-00-0000-48.png
00000014,277,1,1448294578790,1448294579234,365,560,0,0,0,0,4,4,4,0001-00-0000-28.png,0004-00-0000-08.png
00000014,278,1,1448294580280,1448294580811,903,467,0,0,0,2,0,2,2,0003-00-0001-77.png,0001-00-0001-73.png
00000014,279,0,1448294581822,1448294582281,376,450,0,0,0,4,1,3,5,0004-00-0001-92.png,0005-00-0001-45.png
00000014,280,0,1448294585281,1448294585734,420,428,0,0,0,4,3,1,7,0004-00-0000-89.png,0002-00-0000-11.png
00000014,281,1,1448294588698,1448294588718,518,384,0,0,0,0,1,1,1,0001-00-0000-68.png,0005-00-0000-66.png
00000014,282,1,1448294589684,1448294590129,392,417,0,0,0,0,2,2,2,0001-00-0001-99.png,0003-00-0001-45.png
00000014,283,0,1448294591126,1448294591652,893,454,0,0,0,1,4,3,5,0005-00-0001-19.png,0004-00-0001-03.png
00000014,284,0,1448294594762,1448294595214,431,397,0,0,0,3,1,2,4,0002-00-0001-80.png,0005-00-0000-08.png
00000014,285,1,1448294598221,1448294598899,899,384,0,0,0,4,2,2,6,0004-00-0000-81.png,0003-00-0001-92.png
00000014,286,0,1448294599941,1448294600464,343,405,0,0,0,4,3,1,7,0004-00-0001-29.png,0002-00-0001-04.png
00000014,287,1,1448294603365,1448294604017,382,355,0,0,0,3,4,1,7,0002-00-0001-08.png,0004-00-0001-09.png
00000014,288,0,1448294605029,1448294605551,413,467,0,0,0,4,1,3,5,0004-00-0000-65.png,0005-00-0001-11.png
00000014,289,1,1448294608677,1448294609119,888,410,0,0,0,1,0,1,1,0005-00-0001-32.png,0001-00-0001-74.png
00000014,290,1,1448294610079,1448294610554,427,463,0,0,0,0,3,3,3,0001-00-0001-72.png,0002-00-0000-74.png
00000014,291,1,1448294611539,1448294612145,921,446,0,0,0,3,2,1,5,0002-00-0001-27.png,0003-00-0000-92.png
00000014,292,1,1448294613069,1448294613661,876,543,0,0,0,4,0,4,4,0004-00-0000-31.png,0001-00-0000-32.png
00000014,293,0,1448294614619,1448294615164,394,419,0,0,0,2,1,1,3,0003-00-0001-73.png,0005-00-0001-02.png
00000014,294,0,1448294617987,1448294618531,895,550,0,0,0,2,3,1,5,0003-00-0001-58.png,0002-00-0000-40.png
00000014,295,1,1448294622012,1448294622448,881,554,0,0,0,2,0,2,2,0003-00-0001-25.png,0001-00-0001-57.png
00000014,296,0,1448294623423,1448294623970,921,472,0,0,0,2,4,2,6,0003-00-0000-47.png,0004-00-0000-76.png
00000014,297,1,1448294626832,1448294627252,876,554,0,0,0,3,0,3,3,0002-00-0001-58.png,0001-00-0001-52.png
00000014,298,1,1448294628233,1448294628662,350,449,0,0,0,1,2,1,3,0005-00-0000-87.png,0003-00-0000-73.png
00000014,299,1,1448294629665,1448294630571,340,401,0,0,0,1,3,2,4,0005-00-0001-23.png,0002-00-0001-38.png
00000014,300,1,1448294631555,1448294631985,440,450,0,0,0,0,4,4,4,0001-00-0000-31.png,0004-00-0000-55.png
00000014,301,1,1448294633004,1448294633692,405,406,0,0,0,1,4,3,5,0005-00-0000-76.png,0004-00-0000-47.png
00000014,302,1,1448294634771,1448294635180,420,453,0,0,0,0,3,3,3,0001-00-0000-14.png,0002-00-0000-69.png
00000014,303,1,1448294636206,1448294636773,893,494,0,0,0,3,1,2,4,0002-00-0000-50.png,0005-00-0000-16.png
00000014,304,0,1448294637753,1448294638212,419,454,0,0,0,4,2,2,6,0004-00-0001-99.png,0003-00-0001-42.png
00000014,305,0,1448294641213,1448294641765,325,372,0,0,0,3,2,1,5,0002-00-0001-64.png,0003-00-0001-27.png
00000014,306,0,1448294644952,1448294645376,403,392,0,0,0,4,0,4,4,0004-00-0000-56.png,0001-00-0001-15.png
00000014,307,0,1448294648419,1448294648436,504,447,0,0,0,4,1,3,5,0004-00-0001-37.png,0005-00-0001-09.png
00000014,308,1,1448294651442,1448294651928,926,475,0,0,0,3,0,3,3,0002-00-0001-24.png,0001-00-0000-75.png
00000014,309,0,1448294652883,1448294653532,928,441,0,0,0,3,4,1,7,0002-00-0001-65.png,0004-00-0001-40.png
00000014,310,1,1448294656490,1448294656978,881,559,0,0,0,4,3,1,7,0004-00-0001-15.png,0002-00-0001-45.png
00000014,311,1,1448294657960,1448294658419,325,436,0,0,0,0,2,2,2,0001-00-0001-17.png,0003-00-0000-82.png
00000014,312,1,1448294659391,1448294659982,906,454,0,0,0,2,0,2,2,0003-00-0000-01.png,0001-00-0000-72.png
00000014,313,1,1448294661050,1448294661442,389,462,0,0,0,1,3,2,4,0005-00-0001-00.png,0002-00-0001-98.png
00000014,314,1,1448294662432,1448294662890,351,441,0,0,0,0,1,1,1,0001-00-0001-74.png,0005-00-0000-52.png
00000014,315,0,1448294663934,1448294664357,331,436,0,0,0,1,0,1,1,0005-00-0000-38.png,0001-00-0000-22.png
00000014,316,0,1448294667325,1448294667876,925,528,0,0,0,2,3,1,5,0003-00-0000-78.png,0002-00-0001-26.png
00000014,317,1,1448294670729,1448294671292,418,530,0,0,0,2,4,2,6,0003-00-0000-89.png,0004-00-0000-00.png
00000014,318,1,1448294672479,1448294672888,350,424,0,0,0,1,2,1,3,0005-00-0000-89.png,0003-00-0000-39.png
00000014,319,1,1448294674009,1448294674470,395,558,0,0,0,0,4,4,4,0001-00-0001-49.png,0004-00-0000-61.png
00000014,320,1,1448294675553,1448294676116,878,491,0,0,0,2,1,1,3,0003-00-0000-11.png,0005-00-0001-06.png
00000014,321,0,1448294677323,1448294677857,917,469,0,0,0,2,3,1,5,0003-00-0001-18.png,0002-00-0001-08.png
00000014,322,0,1448294680809,1448294681315,389,400,0,0,0,2,0,2,2,0003-00-0000-44.png,0001-00-0000-02.png
00000014,323,1,1448294684494,1448294684954,939,449,0,0,0,2,1,1,3,0003-00-0001-44.png,0005-00-0000-67.png
00000014,324,1,1448294686257,1448294686661,367,454,0,0,0,1,3,2,4,0005-00-0001-15.png,0002-00-0001-58.png
00000014,325,1,1448294687696,1448294688164,419,480,0,0,0,0,2,2,2,0001-00-0001-38.png,0003-00-0000-23.png
00000014,326,1,1448294689218,1448294689673,368,547,0,0,0,0,3,3,3,0001-00-0001-04.png,0002-00-0001-93.png
00000014,327,1,1448294690637,1448294691360,950,475,0,0,0,4,0,4,4,0004-00-0001-52.png,0001-00-0001-59.png
00000014,328,1,1448294692347,1448294692971,922,472,0,0,0,1,0,1,1,0005-00-0000-01.png,0001-00-0001-02.png
00000014,329,0,1448294693937,1448294694371,418,480,0,0,0,4,3,1,7,0004-00-0000-55.png,0002-00-0000-20.png
00000014,330,0,1448294697427,1448294697930,926,488,0,0,0,0,1,1,1,0001-00-0000-16.png,0005-00-0000-32.png
00000014,331,1,1448294700778,1448294701188,396,385,0,0,0,1,2,1,3,0005-00-0001-46.png,0003-00-0001-28.png
00000014,332,1,1448294702318,1448294702743,406,485,0,0,0,3,4,1,7,0002-00-0001-32.png,0004-00-0001-80.png
00000014,333,1,1448294703728,1448294704120,367,454,0,0,0,0,4,4,4,0001-00-0000-51.png,0004-00-0001-98.png
00000014,334,0,1448294705130,1448294705549,411,483,0,0,0,4,1,3,5,0004-00-0000-64.png,0005-00-0000-08.png
00000014,335,1,1448294708478,1448294708985,388,410,0,0,0,1,4,3,5,0005-00-0001-52.png,0004-00-0000-32.png
00000014,336,0,1448294709940,1448294710386,373,443,0,0,0,4,2,2,6,0004-00-0001-73.png,0003-00-0001-10.png
00000014,337,0,1448294713231,1448294713703,899,384,0,0,0,2,4,2,6,0003-00-0001-83.png,0004-00-0001-93.png
00000014,338,0,1448294716697,1448294717217,423,429,0,0,0,3,0,3,3,0002-00-0001-76.png,0001-00-0001-66.png
00000014,339,1,1448294720395,1448294720987,958,453,0,0,0,3,1,2,4,0002-00-0000-76.png,0005-00-0001-41.png
00000014,340,0,1448294722116,1448294722644,356,410,0,0,0,3,2,1,5,0002-00-0001-77.png,0003-00-0001-76.png
00000014,341,1,1448294725603,1448294726029,900,396,0,0,0,1,0,1,1,0005-00-0001-12.png,0001-00-0001-27.png
00000014,342,1,1448294727563,1448294728026,418,480,0,0,0,1,4,3,5,0005-00-0001-49.png,0004-00-0001-71.png
00000014,343,1,1448294728952,1448294729484,340,440,0,0,0,2,3,1,5,0003-00-0001-13.png,0002-00-0000-86.png
00000014,344,0,1448294730513,1448294731129,925,475,0,0,0,1,2,1,3,0005-00-0000-40.png,0003-00-0000-57.png
00000014,345,1,1448294734200,1448294734684,876,398,0,0,0,2,0,2,2,0003-00-0001-37.png,0001-00-0001-90.png
00000014,346,0,1448294735692,1448294736103,325,449,0,0,0,3,2,1,5,0002-00-0000-23.png,0003-00-0001-53.png
00000014,347,1,1448294739151,1448294739621,954,416,0,0,0,2,1,1,3,0003-00-0001-15.png,0005-00-0001-71.png
00000014,348,0,1448294740781,1448294741238,344,408,0,0,0,4,2,2,6,0004-00-0001-68.png,0003-00-0001-76.png
00000014,349,1,1448294744294,1448294744734,413,423,0,0,0,0,4,4,4,0001-00-0000-32.png,0004-00-0000-11.png
00000014,350,1,1448294745730,1448294746145,382,462,0,0,0,1,3,2,4,0005-00-0001-70.png,0002-00-0001-94.png
00000014,351,1,1448294747154,1448294747741,913,476,0,0,0,4,0,4,4,0004-00-0000-86.png,0001-00-0000-33.png
00000014,352,1,1448294748701,1448294749145,435,462,0,0,0,0,2,2,2,0001-00-0001-83.png,0003-00-0001-58.png
00000014,353,0,1448294750284,1448294750749,426,464,0,0,0,4,1,3,5,0004-00-0000-21.png,0005-00-0000-44.png
00000014,354,1,1448294753869,1448294754358,949,431,0,0,0,4,3,1,7,0004-00-0001-23.png,0002-00-0001-02.png
00000014,355,0,1448294755330,1448294755915,874,424,0,0,0,3,4,1,7,0002-00-0000-34.png,0004-00-0000-11.png
00000014,356,1,1448294758946,1448294759392,364,398,0,0,0,0,3,3,3,0001-00-0001-44.png,0002-00-0001-25.png
00000014,357,0,1448294760439,1448294761018,904,454,0,0,0,2,4,2,6,0003-00-0001-05.png,0004-00-0001-85.png
00000014,358,1,1448294764078,1448294764521,960,421,0,0,0,3,1,2,4,0002-00-0001-20.png,0005-00-0000-76.png
00000014,359,1,1448294765628,1448294766038,341,454,0,0,0,0,1,1,1,0001-00-0001-03.png,0005-00-0000-33.png
00000014,360,1,1448294767058,1448294767675,900,449,0,0,0,3,0,3,3,0002-00-0001-96.png,0001-00-0001-72.png
00000014,361,1,1448294768688,1448294769118,421,469,0,0,0,0,3,3,3,0001-00-0001-64.png,0002-00-0000-16.png
00000014,362,1,1448294770150,1448294770697,928,469,0,0,0,1,0,1,1,0005-00-0001-36.png,0001-00-0001-71.png
00000014,363,0,1448294771640,1448294772115,426,460,0,0,0,3,1,2,4,0002-00-0001-99.png,0005-00-0000-23.png
00000014,364,1,1448294775336,1448294775798,951,489,0,0,0,4,1,3,5,0004-00-0001-94.png,0005-00-0000-78.png
00000014,365,0,1448294777037,1448294777532,937,476,0,0,0,2,3,1,5,0003-00-0001-11.png,0002-00-0001-93.png
00000014,366,1,1448294780477,1448294780900,369,376,0,0,0,0,2,2,2,0001-00-0000-31.png,0003-00-0000-67.png
00000014,367,0,1448294781857,1448294782468,895,441,0,0,0,2,4,2,6,0003-00-0001-90.png,0004-00-0000-70.png
00000014,368,1,1448294785583,1448294786041,953,441,0,0,0,4,3,1,7,0004-00-0001-71.png,0002-00-0001-08.png
00000014,369,0,1448294787095,1448294787650,896,446,0,0,0,3,4,1,7,0002-00-0001-63.png,0004-00-0000-09.png
00000014,370,1,1448294790533,1448294790945,949,430,0,0,0,3,0,3,3,0002-00-0000-97.png,0001-00-0000-15.png
00000014,371,1,1448294791944,1448294792338,418,428,0,0,0,0,1,1,1,0001-00-0001-49.png,0005-00-0001-61.png
00000014,372,0,1448294793406,1448294793957,903,442,0,0,0,1,3,2,4,0005-00-0000-59.png,0002-00-0001-62.png
00000014,373,1,1448294796994,1448294797456,877,418,0,0,0,3,2,1,5,0002-00-0000-69.png,0003-00-0001-74.png
00000014,374,1,1448294798485,1448294798904,398,462,0,0,0,1,4,3,5,0005-00-0001-90.png,0004-00-0001-75.png
00000014,375,1,1448294799952,1448294800548,877,467,0,0,0,4,2,2,6,0004-00-0001-16.png,0003-00-0001-73.png
00000014,376,1,1448294801505,1448294801925,453,473,0,0,0,1,2,1,3,0005-00-0000-68.png,0003-00-0000-10.png
00000014,377,1,1448294802936,1448294803547,877,549,0,0,0,4,0,4,4,0004-00-0000-54.png,0001-00-0000-37.png
00000014,378,1,1448294804495,1448294804954,406,465,0,0,0,0,4,4,4,0001-00-0001-77.png,0004-00-0000-16.png
00000014,379,1,1448294806027,1448294806630,892,564,0,0,0,2,1,1,3,0003-00-0001-91.png,0005-00-0001-88.png
00000014,380,1,1448294807606,1448294808191,888,450,0,0,0,2,0,2,2,0003-00-0001-66.png,0001-00-0000-43.png
00000014,381,1,1448294809188,1448294809788,432,566,0,0,0,3,4,1,7,0002-00-0000-25.png,0004-00-0001-70.png
00000014,382,1,1448294810834,1448294811383,918,469,0,0,0,2,1,1,3,0003-00-0001-66.png,0005-00-0001-75.png
00000014,383,0,1448294812346,1448294812841,446,479,0,0,0,4,2,2,6,0004-00-0000-45.png,0003-00-0000-98.png
00000014,384,0,1448294815715,1448294816187,929,467,0,0,0,1,2,1,3,0005-00-0001-63.png,0003-00-0000-27.png
00000014,385,0,1448294819283,1448294819745,394,374,0,0,0,3,2,1,5,0002-00-0001-69.png,0003-00-0001-91.png
00000014,386,1,1448294823139,1448294823587,948,470,0,0,0,1,0,1,1,0005-00-0001-09.png,0001-00-0001-41.png
00000014,387,0,1448294824700,1448294825122,413,479,0,0,0,4,1,3,5,0004-00-0000-16.png,0005-00-0001-26.png
00000014,388,0,1448294828009,1448294828381,952,435,0,0,0,1,4,3,5,0005-00-0001-14.png,0004-00-0001-43.png
00000014,389,1,1448294831369,1448294831904,942,459,0,0,0,3,1,2,4,0002-00-0000-91.png,0005-00-0000-12.png
00000014,390,1,1448294832890,1448294833320,370,479,0,0,0,0,3,3,3,0001-00-0001-50.png,0002-00-0000-19.png
00000014,391,1,1448294834332,1448294834712,393,453,0,0,0,0,2,2,2,0001-00-0000-46.png,0003-00-0000-87.png
00000014,392,1,1448294835709,1448294836384,419,427,0,0,0,1,3,2,4,0005-00-0001-88.png,0002-00-0001-05.png
00000014,393,1,1448294837412,1448294838080,869,550,0,0,0,4,0,4,4,0004-00-0000-02.png,0001-00-0000-65.png
00000014,394,0,1448294839070,1448294839693,896,472,0,0,0,2,4,2,6,0003-00-0001-50.png,0004-00-0001-06.png
00000014,395,1,1448294842674,1448294843154,927,462,0,0,0,3,0,3,3,0002-00-0000-59.png,0001-00-0000-29.png
00000014,396,1,1448294844127,1448294844681,875,410,0,0,0,4,3,1,7,0004-00-0000-40.png,0002-00-0000-44.png
00000014,397,1,1448294845649,1448294846113,376,451,0,0,0,0,1,1,1,0001-00-0000-99.png,0005-00-0001-72.png
00000014,398,1,1448294847159,1448294847740,904,467,0,0,0,2,0,2,2,0003-00-0001-69.png,0001-00-0001-85.png
00000014,399,0,1448294848739,1448294849374,877,441,0,0,0,2,3,1,5,0003-00-0001-28.png,0002-00-0001-51.png
00000014,400,1,1448294852801,1448294853266,370,454,0,0,0,0,4,4,4,0001-00-0000-91.png,0004-00-0001-68.png
00000014,401,1,1448294854246,1448294854696,363,448,0,0,0,3,4,1,7,0002-00-0000-31.png,0004-00-0000-21.png
00000014,402,1,1448294855758,1448294856258,422,556,0,0,0,0,3,3,3,0001-00-0000-97.png,0002-00-0001-43.png
00000014,403,1,1448294857325,1448294857836,367,469,0,0,0,0,4,4,4,0001-00-0001-40.png,0004-00-0001-37.png
00000014,404,1,1448294858768,1448294859404,928,470,0,0,0,3,0,3,3,0002-00-0000-64.png,0001-00-0000-10.png
00000014,405,1,1448294860437,1448294860923,358,471,0,0,0,1,2,1,3,0005-00-0001-50.png,0003-00-0001-15.png
00000014,406,1,1448294861928,1448294862547,870,445,0,0,0,3,2,1,5,0002-00-0000-74.png,0003-00-0000-69.png
00000014,407,1,1448294863538,1448294863941,383,428,0,0,0,0,2,2,2,0001-00-0000-37.png,0003-00-0000-63.png
00000014,408,1,1448294864926,1448294865535,902,442,0,0,0,3,1,2,4,0002-00-0001-17.png,0005-00-0001-57.png
00000014,409,1,1448294866499,1448294866954,453,475,0,0,0,0,1,1,1,0001-00-0000-83.png,0005-00-0000-53.png
00000014,410,1,1448294868009,1448294868658,921,472,0,0,0,4,3,1,7,0004-00-0001-01.png,0002-00-0000-45.png
00000014,411,0,1448294869631,1448294870082,438,475,0,0,0,1,0,1,1,0005-00-0000-64.png,0001-00-0000-16.png
00000014,412,1,1448294873269,1448294873672,392,441,0,0,0,1,3,2,4,0005-00-0000-78.png,0002-00-0001-81.png
00000014,413,1,1448294874690,1448294875175,907,483,0,0,0,2,1,1,3,0003-00-0001-75.png,0005-00-0000-84.png
00000014,414,1,1448294876249,1448294876773,387,437,0,0,0,1,4,3,5,0005-00-0001-92.png,0004-00-0000-18.png
00000014,415,1,1448294877769,1448294878319,896,472,0,0,0,4,1,3,5,0004-00-0000-92.png,0005-00-0000-40.png
00000014,416,0,1448294879309,1448294879950,922,472,0,0,0,2,3,1,5,0003-00-0001-26.png,0002-00-0000-29.png
00000014,417,0,1448294889711,1448294890181,971,441,0,0,0,2,4,2,6,0003-00-0000-10.png,0004-00-0000-66.png
00000014,418,0,1448294893400,1448294893827,411,487,0,0,0,4,2,2,6,0004-00-0001-01.png,0003-00-0001-21.png
00000014,419,1,1448294897162,1448294897601,931,452,0,0,0,4,0,4,4,0004-00-0000-62.png,0001-00-0000-42.png
00000014,420,1,1448294898592,1448294899194,886,560,0,0,0,2,0,2,2,0003-00-0000-38.png,0001-00-0000-03.png
00000014,421,1,1448294900091,1448294900601,441,435,0,0,0,1,4,3,5,0005-00-0000-38.png,0004-00-0001-77.png
00000014,422,0,1448294901613,1448294902099,367,415,0,0,0,3,2,1,5,0002-00-0000-44.png,0003-00-0000-18.png
00000014,423,1,1448294904988,1448294905403,464,398,0,0,0,1,3,2,4,0005-00-0000-17.png,0002-00-0001-68.png
00000014,424,0,1448294906331,1448294906905,926,475,0,0,0,1,2,1,3,0005-00-0000-93.png,0003-00-0000-79.png
00000014,425,1,1448294909841,1448294910354,922,470,0,0,0,3,0,3,3,0002-00-0000-83.png,0001-00-0001-07.png
00000014,426,1,1448294911282,1448294911798,928,469,0,0,0,2,1,1,3,0003-00-0000-91.png,0005-00-0001-52.png
00000014,427,0,1448294913238,1448294913767,896,472,0,0,0,2,3,1,5,0003-00-0000-56.png,0002-00-0001-40.png
00000014,428,1,1448294916728,1448294917280,958,440,0,0,0,4,2,2,6,0004-00-0000-72.png,0003-00-0000-29.png
00000014,429,0,1448294918230,1448294918667,401,461,0,0,0,1,0,1,1,0005-00-0000-32.png,0001-00-0001-81.png
00000014,430,1,1448294922063,1448294922598,406,340,0,0,0,0,1,1,1,0001-00-0001-93.png,0005-00-0000-81.png
00000014,431,1,1448294923618,1448294924130,925,464,0,0,0,4,0,4,4,0004-00-0001-66.png,0001-00-0000-04.png
00000014,432,1,1448294925161,1448294925616,374,459,0,0,0,0,3,3,3,0001-00-0001-31.png,0002-00-0000-73.png
00000014,433,1,1448294926619,1448294927031,376,410,0,0,0,0,4,4,4,0001-00-0000-57.png,0004-00-0000-86.png
00000014,434,0,1448294928037,1448294928614,873,463,0,0,0,2,4,2,6,0003-00-0000-48.png,0004-00-0000-71.png
00000014,435,1,1448294931693,1448294932173,913,449,0,0,0,3,1,2,4,0002-00-0001-28.png,0005-00-0000-16.png
00000014,436,1,1448294933217,1448294933807,904,402,0,0,0,4,1,3,5,0004-00-0001-02.png,0005-00-0001-02.png
00000014,437,1,1448294935036,1448294935440,350,423,0,0,0,0,2,2,2,0001-00-0000-35.png,0003-00-0001-00.png
00000014,438,1,1448294936498,1448294937131,926,462,0,0,0,4,3,1,7,0004-00-0001-46.png,0002-00-0000-69.png
00000014,439,1,1448294938113,1448294938633,926,449,0,0,0,2,0,2,2,0003-00-0001-44.png,0001-00-0000-57.png
00000014,440,1,1448294939623,1448294940081,485,491,0,0,0,3,4,1,7,0002-00-0000-94.png,0004-00-0000-86.png
00000014,441,0,1448294941084,1448294941693,439,559,0,0,0,1,0,1,1,0005-00-0000-83.png,0001-00-0001-83.png
00000014,442,1,1448294944785,1448294945312,363,370,0,0,0,0,4,4,4,0001-00-0001-21.png,0004-00-0000-25.png
00000014,443,0,1448294946333,1448294946743,410,468,0,0,0,3,2,1,5,0002-00-0000-38.png,0003-00-0001-73.png
00000014,444,0,1448294949584,1448294950242,453,410,0,0,0,4,0,4,4,0004-00-0000-18.png,0001-00-0001-87.png
00000014,445,1,1448294953334,1448294953812,376,358,0,0,0,0,2,2,2,0001-00-0001-87.png,0003-00-0001-75.png
00000014,446,1,1448294954836,1448294955405,905,453,0,0,0,3,0,3,3,0002-00-0001-88.png,0001-00-0001-12.png
00000014,447,0,1448294956431,1448294957264,909,539,0,0,0,2,4,2,6,0003-00-0001-47.png,0004-00-0000-48.png
00000014,448,1,1448294960447,1448294960941,350,369,0,0,0,0,1,1,1,0001-00-0000-06.png,0005-00-0001-00.png
00000014,449,1,1448294961951,1448294962546,887,476,0,0,0,4,1,3,5,0004-00-0001-22.png,0005-00-0000-30.png
00000014,450,0,1448294963477,1448294964123,884,557,0,0,0,1,2,1,3,0005-00-0000-36.png,0003-00-0000-78.png
00000014,451,0,1448294967279,1448294967733,930,427,0,0,0,1,4,3,5,0005-00-0000-49.png,0004-00-0001-57.png
00000014,452,1,1448294970876,1448294971299,411,433,0,0,0,0,3,3,3,0001-00-0000-37.png,0002-00-0001-76.png
00000014,453,1,1448294972306,1448294972739,376,488,0,0,0,3,4,1,7,0002-00-0000-19.png,0004-00-0001-79.png
00000014,454,0,1448294973726,1448294974194,419,480,0,0,0,2,0,2,2,0003-00-0001-80.png,0001-00-0000-90.png
00000014,455,1,1448294977053,1448294977583,392,376,0,0,0,1,3,2,4,0005-00-0001-54.png,0002-00-0000-35.png
00000014,456,1,1448294978760,1448294979258,919,468,0,0,0,2,1,1,3,0003-00-0001-52.png,0005-00-0001-70.png
00000014,457,0,1448294980249,1448294980825,439,522,0,0,0,3,1,2,4,0002-00-0001-16.png,0005-00-0001-40.png
00000014,458,0,1448294983737,1448294984172,926,398,0,0,0,2,3,1,5,0003-00-0000-66.png,0002-00-0001-16.png
00000014,459,0,1448294987723,1448294988214,325,398,0,0,0,4,2,2,6,0004-00-0000-32.png,0003-00-0001-45.png
00000014,460,1,1448294991192,1448294991672,889,527,0,0,0,4,3,1,7,0004-00-0001-62.png,0002-00-0001-73.png
00000014,461,1,1448294992691,1448294993247,939,459,0,0,0,3,0,3,3,0002-00-0001-93.png,0001-00-0000-71.png
00000014,462,1,1448294994242,1448294995087,383,360,0,0,0,1,4,3,5,0005-00-0001-22.png,0004-00-0000-80.png
00000014,463,1,1448294996092,1448294996585,419,427,0,0,0,0,1,1,1,0001-00-0000-11.png,0005-00-0000-51.png
00000014,464,1,1448294997588,1448294998033,362,462,0,0,0,1,2,1,3,0005-00-0001-54.png,0003-00-0001-10.png
00000014,465,0,1448294999108,1448295000082,421,365,0,0,0,4,1,3,5,0004-00-0001-49.png,0005-00-0000-65.png
00000014,466,1,1448295003255,1448295003680,931,413,0,0,0,2,1,1,3,0003-00-0001-84.png,0005-00-0001-43.png
00000014,467,1,1448295004791,1448295004886,504,436,0,0,0,0,4,4,4,0001-00-0000-02.png,0004-00-0001-44.png
00000014,468,1,1448295006099,1448295006667,900,488,0,0,0,3,2,1,5,0002-00-0000-03.png,0003-00-0000-89.png
00000014,469,1,1448295007627,1448295008070,338,424,0,0,0,0,3,3,3,0001-00-0001-74.png,0002-00-0001-70.png
00000014,470,1,1448295009237,1448295009693,391,463,0,0,0,1,3,2,4,0005-00-0001-87.png,0002-00-0001-66.png
00000014,471,0,1448295010751,1448295011260,880,480,0,0,0,3,4,1,7,0002-00-0001-70.png,0004-00-0001-81.png
00000014,472,1,1448295014278,1448295014354,509,442,0,0,0,2,4,2,6,0003-00-0001-10.png,0004-00-0001-52.png
00000014,473,1,1448295015361,1448295015922,933,397,0,0,0,2,0,2,2,0003-00-0000-03.png,0001-00-0000-96.png
00000014,474,0,1448295016942,1448295017373,383,480,0,0,0,4,2,2,6,0004-00-0001-62.png,0003-00-0000-92.png
00000014,475,1,1448295020579,1448295021070,925,437,0,0,0,1,0,1,1,0005-00-0000-11.png,0001-00-0001-04.png
00000014,476,1,1448295022076,1448295022679,879,479,0,0,0,3,1,2,4,0002-00-0000-42.png,0005-00-0001-38.png
00000014,477,0,1448295023659,1448295024130,384,496,0,0,0,4,0,4,4,0004-00-0000-77.png,0001-00-0000-53.png
00000014,478,1,1448295027563,1448295028081,888,449,0,0,0,4,3,1,7,0004-00-0000-54.png,0002-00-0001-92.png
00000014,479,1,1448295029116,1448295029536,354,448,0,0,0,0,2,2,2,0001-00-0001-53.png,0003-00-0000-47.png
00000014,480,0,1448295030627,1448295031193,922,472,0,0,0,2,3,1,5,0003-00-0000-23.png,0002-00-0001-14.png
00000014,481,1,1448295034337,1448295034909,928,437,0,0,0,4,3,1,7,0004-00-0000-01.png,0002-00-0000-26.png
00000014,482,1,1448295035869,1448295036372,356,435,0,0,0,0,4,4,4,0001-00-0001-01.png,0004-00-0000-08.png
00000014,483,1,1448295037446,1448295038051,899,554,0,0,0,1,0,1,1,0005-00-0001-60.png,0001-00-0001-54.png
00000014,484,1,1448295039026,1448295039662,872,410,0,0,0,3,0,3,3,0002-00-0001-43.png,0001-00-0000-08.png
00000014,485,1,1448295040616,1448295041188,344,410,0,0,0,3,4,1,7,0002-00-0000-13.png,0004-00-0001-43.png
00000014,486,1,1448295042226,1448295042810,876,460,0,0,0,4,2,2,6,0004-00-0001-72.png,0003-00-0000-99.png
00000014,487,1,1448295043755,1448295044144,520,557,0,0,0,1,2,1,3,0005-00-0000-18.png,0003-00-0001-88.png
00000014,488,0,1448295045237,1448295045890,902,461,0,0,0,1,4,3,5,0005-00-0001-05.png,0004-00-0001-92.png
00000014,489,1,1448295049561,1448295049991,877,410,0,0,0,2,1,1,3,0003-00-0001-88.png,0005-00-0000-36.png
00000014,490,0,1448295050989,1448295051535,887,442,0,0,0,2,4,2,6,0003-00-0001-56.png,0004-00-0000-59.png
00000014,491,1,1448295054577,1448295055043,879,532,0,0,0,4,0,4,4,0004-00-0001-88.png,0001-00-0000-23.png
00000014,492,1,1448295056015,1448295056582,438,410,0,0,0,2,3,1,5,0003-00-0000-43.png,0002-00-0000-94.png
00000014,493,1,1448295057590,1448295058000,383,445,0,0,0,0,2,2,2,0001-00-0001-57.png,0003-00-0001-40.png
00000014,494,1,1448295058967,1448295059624,906,453,0,0,0,2,0,2,2,0003-00-0000-99.png,0001-00-0001-07.png
00000014,495,1,1448295060619,1448295061032,385,440,0,0,0,0,1,1,1,0001-00-0001-47.png,0005-00-0000-31.png
00000014,496,0,1448295062037,1448295062660,440,528,0,0,0,3,1,2,4,0002-00-0000-85.png,0005-00-0000-20.png
00000014,497,1,1448295065539,1448295066065,414,486,0,0,0,1,3,2,4,0005-00-0001-44.png,0002-00-0000-98.png
00000014,498,1,1448295066977,1448295067567,912,450,0,0,0,4,1,3,5,0004-00-0001-20.png,0005-00-0001-55.png
00000014,499,0,1448295068496,1448295068936,427,488,0,0,0,3,2,1,5,0002-00-0000-71.png,0003-00-0001-82.png
00000014,500,1,1448295072213,1448295072639,418,455,0,0,0,0,3,3,3,0001-00-0000-80.png,0002-00-0001-93.png
00000014,501,1,1448295073726,1448295074241,952,470,0,0,0,4,0,4,4,0004-00-0001-04.png,0001-00-0001-12.png
00000014,502,1,1448295075244,1448295075755,923,471,0,0,0,1,0,1,1,0005-00-0001-59.png,0001-00-0001-70.png
00000014,503,1,1448295076705,1448295077086,360,477,0,0,0,1,3,2,4,0005-00-0001-23.png,0002-00-0001-79.png
00000014,504,1,1448295078040,1448295078599,924,457,0,0,0,2,0,2,2,0003-00-0001-41.png,0001-00-0000-65.png
00000014,505,1,1448295079533,1448295079959,389,462,0,0,0,1,4,3,5,0005-00-0000-39.png,0004-00-0001-38.png
00000014,506,0,1448295081016,1448295081419,371,457,0,0,0,3,1,2,4,0002-00-0000-70.png,0005-00-0001-38.png
00000014,507,1,1448295084804,1448295085295,955,441,0,0,0,3,2,1,5,0002-00-0000-22.png,0003-00-0000-01.png
00000014,508,0,1448295086336,1448295086729,430,453,0,0,0,3,0,3,3,0002-00-0000-76.png,0001-00-0001-83.png
00000014,509,1,1448295089613,1448295090141,397,393,0,0,0,2,4,2,6,0003-00-0000-11.png,0004-00-0000-42.png
00000014,510,1,1448295091136,1448295091712,877,440,0,0,0,4,3,1,7,0004-00-0001-96.png,0002-00-0000-08.png
00000014,511,0,1448295092775,1448295093320,901,461,0,0,0,2,3,1,5,0003-00-0001-51.png,0002-00-0000-58.png
00000014,512,1,1448295096250,1448295096792,414,500,0,0,0,0,4,4,4,0001-00-0001-06.png,0004-00-0000-52.png
00000014,513,0,1448295097825,1448295098189,504,523,0,0,0,4,2,2,6,0004-00-0001-36.png,0003-00-0001-91.png
00000014,514,1,1448295101083,1448295101491,376,384,0,0,0,0,3,3,3,0001-00-0000-05.png,0002-00-0000-80.png
00000014,515,0,1448295102494,1448295102949,331,382,0,0,0,4,1,3,5,0004-00-0000-29.png,0005-00-0000-20.png
00000014,516,1,1448295106312,1448295106778,381,423,0,0,0,0,2,2,2,0001-00-0001-17.png,0003-00-0000-26.png
00000014,517,1,1448295107874,1448295108303,385,528,0,0,0,0,1,1,1,0001-00-0001-65.png,0005-00-0000-36.png
00000014,518,0,1448295109344,1448295109905,897,460,0,0,0,3,4,1,7,0002-00-0000-53.png,0004-00-0001-99.png
00000014,519,1,1448295112811,1448295112847,478,424,0,0,0,1,2,1,3,0005-00-0000-35.png,0003-00-0000-72.png
00000014,520,1,1448295113937,1448295114572,981,453,0,0,0,2,1,1,3,0003-00-0001-04.png,0005-00-0000-11.png
00000014,521,0,1448295115529,1448295116162,909,530,0,0,0,2,3,1,5,0003-00-0000-69.png,0002-00-0000-62.png
00000014,522,1,1448295119012,1448295119478,919,442,0,0,0,2,1,1,3,0003-00-0000-06.png,0005-00-0001-44.png
00000014,523,1,1448295120385,1448295120885,950,463,0,0,0,2,0,2,2,0003-00-0000-29.png,0001-00-0000-81.png
00000014,524,1,1448295121877,1448295122555,924,481,0,0,0,3,0,3,3,0002-00-0001-73.png,0001-00-0001-23.png
00000014,525,1,1448295123466,1448295124062,869,561,0,0,0,1,0,1,1,0005-00-0001-92.png,0001-00-0001-85.png
00000014,526,0,1448295125062,1448295125504,355,464,0,0,0,3,2,1,5,0002-00-0000-82.png,0003-00-0000-55.png
00000014,527,1,1448295128475,1448295128914,462,433,0,0,0,0,4,4,4,0001-00-0000-79.png,0004-00-0001-66.png
00000014,528,0,1448295129926,1448295130419,899,464,0,0,0,1,3,2,4,0005-00-0000-20.png,0002-00-0001-36.png
00000014,529,0,1448295133372,1448295133921,975,457,0,0,0,3,4,1,7,0002-00-0000-21.png,0004-00-0000-78.png
00000014,530,1,1448295145287,1448295145663,331,393,0,0,0,0,2,2,2,0001-00-0000-40.png,0003-00-0000-91.png
00000014,531,1,1448295147266,1448295147796,393,472,0,0,0,1,2,1,3,0005-00-0000-69.png,0003-00-0001-39.png
00000014,532,1,1448295149453,1448295149988,947,497,0,0,0,4,2,2,6,0004-00-0000-49.png,0003-00-0001-07.png
00000014,533,1,1448295151442,1448295152013,861,483,0,0,0,4,1,3,5,0004-00-0000-94.png,0005-00-0001-24.png
00000014,534,1,1448295153052,1448295153490,358,428,0,0,0,1,4,3,5,0005-00-0000-19.png,0004-00-0000-00.png
00000014,535,1,1448295154503,1448295155046,871,419,0,0,0,4,3,1,7,0004-00-0000-03.png,0002-00-0001-71.png
00000014,536,0,1448295156112,1448295156548,385,477,0,0,0,3,1,2,4,0002-00-0001-74.png,0005-00-0000-48.png
00000014,537,0,1448295164291,1448295165037,975,461,0,0,0,0,1,1,1,0001-00-0001-46.png,0005-00-0000-97.png
00000014,538,1,1448295168129,1448295168541,931,427,0,0,0,4,0,4,4,0004-00-0000-04.png,0001-00-0001-78.png
00000014,539,0,1448295169608,1448295170303,896,446,0,0,0,2,4,2,6,0003-00-0000-58.png,0004-00-0000-86.png
00000014,540,1,1448295196859,1448295197249,298,385,0,0,0,0,3,3,3,0001-00-0000-81.png,0002-00-0000-24.png
00000014,541,1,1448295198962,1448295199427,350,450,0,0,0,0,1,1,1,0001-00-0001-68.png,0005-00-0001-93.png
00000014,542,1,1448295200475,1448295201165,897,453,0,0,0,2,0,2,2,0003-00-0000-69.png,0001-00-0000-80.png
00000014,543,0,1448295202226,1448295202876,873,527,0,0,0,3,4,1,7,0002-00-0001-09.png,0004-00-0001-33.png
00000014,544,0,1448295218076,1448295218409,352,391,0,0,0,3,2,1,5,0002-00-0000-36.png,0003-00-0000-84.png
00000014,545,0,1448295227453,1448295227847,376,462,0,0,0,4,1,3,5,0004-00-0001-29.png,0005-00-0001-91.png
00000014,546,0,1448295232086,1448295232538,965,466,0,0,0,2,4,2,6,0003-00-0001-11.png,0004-00-0001-61.png
00000014,547,0,1448295235593,1448295236040,411,379,0,0,0,3,0,3,3,0002-00-0000-84.png,0001-00-0000-31.png
00000014,548,0,1448295239710,1448295241067,316,362,0,0,0,1,0,1,1,0005-00-0001-58.png,0001-00-0001-39.png
00000014,549,0,1448295247495,1448295247861,361,413,0,0,0,4,2,2,6,0004-00-0000-96.png,0003-00-0001-16.png
00000014,550,0,1448295250963,1448295251379,424,390,0,0,0,4,3,1,7,0004-00-0001-48.png,0002-00-0001-96.png
00000014,551,1,1448295254682,1448295255104,904,506,0,0,0,4,0,4,4,0004-00-0000-26.png,0001-00-0000-90.png
00000014,552,1,1448295256192,1448295256616,337,437,0,0,0,1,4,3,5,0005-00-0000-75.png,0004-00-0000-69.png
00000014,553,1,1448295257504,1448295258047,388,559,0,0,0,2,3,1,5,0003-00-0000-20.png,0002-00-0000-68.png
00000014,554,1,1448295258974,1448295259590,901,555,0,0,0,3,1,2,4,0002-00-0000-46.png,0005-00-0000-12.png
00000014,555,1,1448295260510,1448295261015,369,440,0,0,0,1,2,1,3,0005-00-0001-30.png,0003-00-0000-85.png
00000014,556,1,1448295261975,1448295262375,401,410,0,0,0,0,3,3,3,0001-00-0001-63.png,0002-00-0000-38.png
00000014,557,1,1448295263315,1448295263809,414,443,0,0,0,1,3,2,4,0005-00-0000-46.png,0002-00-0000-42.png
00000014,558,1,1448295264736,1448295265369,922,498,0,0,0,2,1,1,3,0003-00-0000-73.png,0005-00-0001-97.png
00000014,559,1,1448295266577,1448295267020,415,450,0,0,0,0,2,2,2,0001-00-0001-18.png,0003-00-0000-67.png
00000014,560,1,1448295268008,1448295268438,401,546,0,0,0,0,4,4,4,0001-00-0000-37.png,0004-00-0000-80.png
00000014,561,1,1448295269398,1448295269839,420,453,0,0,0,0,2,2,2,0001-00-0001-03.png,0003-00-0000-55.png
00000014,562,1,1448295270788,1448295271433,925,489,0,0,0,2,1,1,3,0003-00-0001-48.png,0005-00-0000-41.png
00000014,563,1,1448295272379,1448295273002,926,460,0,0,0,1,0,1,1,0005-00-0001-40.png,0001-00-0000-33.png
00000014,564,1,1448295273934,1448295274404,436,462,0,0,0,0,3,3,3,0001-00-0001-42.png,0002-00-0001-60.png
00000014,565,1,1448295275377,1448295275946,926,450,0,0,0,3,0,3,3,0002-00-0000-93.png,0001-00-0000-05.png
00000014,566,1,1448295276981,1448295277622,905,472,0,0,0,4,2,2,6,0004-00-0000-28.png,0003-00-0000-43.png
00000014,567,1,1448295278610,1448295279869,977,436,0,0,0,2,0,2,2,0003-00-0000-53.png,0001-00-0001-28.png
00000014,568,1,1448295281045,1448295281498,410,538,0,0,0,1,2,1,3,0005-00-0001-45.png,0003-00-0001-22.png
00000014,569,1,1448295282465,1448295283126,953,475,0,0,0,4,0,4,4,0004-00-0001-24.png,0001-00-0000-84.png
00000014,570,0,1448295284270,1448295284710,393,453,0,0,0,3,2,1,5,0002-00-0001-92.png,0003-00-0001-96.png
00000014,571,1,1448295287542,1448295288060,409,524,0,0,0,1,3,2,4,0005-00-0000-29.png,0002-00-0001-64.png
00000014,572,1,1448295289176,1448295289581,416,460,0,0,0,0,4,4,4,0001-00-0000-87.png,0004-00-0001-20.png
00000014,573,1,1448295290775,1448295291239,401,462,0,0,0,2,4,2,6,0003-00-0001-19.png,0004-00-0001-87.png
00000014,574,0,1448295292251,1448295292871,925,489,0,0,0,2,3,1,5,0003-00-0001-15.png,0002-00-0001-54.png
00000014,575,1,1448295295901,1448295296390,977,463,0,0,0,4,1,3,5,0004-00-0001-82.png,0005-00-0001-40.png
00000014,576,1,1448295297463,1448295297938,350,475,0,0,0,1,4,3,5,0005-00-0001-29.png,0004-00-0000-22.png
00000014,577,0,1448295298944,1448295299376,381,463,0,0,0,4,3,1,7,0004-00-0001-81.png,0002-00-0001-90.png
00000014,578,0,1448295302333,1448295302397,488,384,0,0,0,3,1,2,4,0002-00-0001-65.png,0005-00-0000-73.png
00000014,579,0,1448295307033,1448295307559,880,505,0,0,0,0,1,1,1,0001-00-0001-91.png,0005-00-0000-50.png
00000014,580,0,1448295313864,1448295314296,906,524,0,0,0,3,4,1,7,0002-00-0000-61.png,0004-00-0000-16.png
00000014,581,1,1448295317502,1448295317970,954,439,0,0,0,2,0,2,2,0003-00-0001-48.png,0001-00-0000-05.png
00000014,582,1,1448295318902,1448295319325,393,454,0,0,0,0,3,3,3,0001-00-0001-23.png,0002-00-0001-09.png
00000014,583,1,1448295320287,1448295320760,466,462,0,0,0,1,2,1,3,0005-00-0000-87.png,0003-00-0001-70.png
00000014,584,1,1448295321723,1448295322398,928,460,0,0,0,4,2,2,6,0004-00-0001-96.png,0003-00-0001-57.png
00000014,585,1,1448295323319,1448295323885,926,514,0,0,0,3,1,2,4,0002-00-0001-96.png,0005-00-0001-45.png
00000014,586,1,1448295324823,1448295325209,466,462,0,0,0,1,3,2,4,0005-00-0000-85.png,0002-00-0001-10.png
00000014,587,0,1448295326117,1448295326722,901,487,0,0,0,2,3,1,5,0003-00-0001-46.png,0002-00-0000-93.png
00000014,588,0,1448295332559,1448295333011,390,386,0,0,0,4,1,3,5,0004-00-0000-32.png,0005-00-0001-12.png
00000014,589,1,1448295336127,1448295336551,925,542,0,0,0,1,0,1,1,0005-00-0000-86.png,0001-00-0001-26.png
00000014,590,1,1448295337507,1448295338284,359,397,0,0,0,1,4,3,5,0005-00-0000-77.png,0004-00-0001-54.png
00000014,591,1,1448295339247,1448295339839,898,560,0,0,0,2,1,1,3,0003-00-0000-52.png,0005-00-0001-39.png
00000014,592,1,1448295340786,1448295341339,896,419,0,0,0,3,0,3,3,0002-00-0001-47.png,0001-00-0001-59.png
00000014,593,1,1448295342237,1448295342651,386,410,0,0,0,0,2,2,2,0001-00-0001-70.png,0003-00-0001-99.png
00000014,594,1,1448295343658,1448295344101,339,410,0,0,0,0,4,4,4,0001-00-0000-63.png,0004-00-0001-69.png
00000014,595,1,1448295345040,1448295345800,922,471,0,0,0,3,2,1,5,0002-00-0000-50.png,0003-00-0000-80.png
00000014,596,1,1448295346759,1448295347371,926,488,0,0,0,4,3,1,7,0004-00-0000-70.png,0002-00-0001-37.png
00000014,597,0,1448295348357,1448295348950,925,483,0,0,0,3,4,1,7,0002-00-0000-26.png,0004-00-0000-77.png
00000014,598,1,1448295352305,1448295352780,970,481,0,0,0,4,0,4,4,0004-00-0000-90.png,0001-00-0001-98.png
00000014,599,1,1448295354182,1448295355262,485,470,0,0,0,2,4,2,6,0003-00-0000-28.png,0004-00-0001-27.png
00000014,600,1,1448295356408,1448295356788,346,446,0,0,0,0,1,1,1,0001-00-0001-86.png,0005-00-0000-64.png
00000014,601,0,1448295364516,1448295364909,362,346,0,0,0,4,0,4,4,0004-00-0000-41.png,0001-00-0001-85.png
00000014,602,0,1448295368637,1448295370068,365,381,0,0,0,1,0,1,1,0005-00-0000-35.png,0001-00-0000-52.png
00000014,603,0,1448295373546,1448295374017,947,524,0,0,0,0,2,2,2,0001-00-0000-95.png,0003-00-0001-04.png
00000014,604,0,1448295376882,1448295377251,378,365,0,0,0,3,1,2,4,0002-00-0000-62.png,0005-00-0001-24.png
00000014,605,1,1448295386810,1448295387144,410,381,0,0,0,2,4,2,6,0003-00-0000-85.png,0004-00-0001-44.png
00000014,606,1,1448295389058,1448295389533,376,422,0,0,0,0,1,1,1,0001-00-0000-50.png,0005-00-0001-01.png
00000014,607,1,1448295390510,1448295391346,391,501,0,0,0,1,3,2,4,0005-00-0001-23.png,0002-00-0001-61.png
00000014,608,0,1448295392217,1448295392789,893,463,0,0,0,3,4,1,7,0002-00-0001-52.png,0004-00-0001-14.png
00000014,609,1,1448295396263,1448295396745,378,351,0,0,0,1,4,3,5,0005-00-0001-85.png,0004-00-0000-30.png
00000014,610,1,1448295398182,1448295398669,911,525,0,0,0,2,1,1,3,0003-00-0000-30.png,0005-00-0000-73.png
00000014,611,0,1448295399563,1448295400112,883,474,0,0,0,1,2,1,3,0005-00-0000-05.png,0003-00-0000-72.png
00000014,612,0,1448295403154,1448295403186,502,452,0,0,0,3,0,3,3,0002-00-0000-76.png,0001-00-0001-63.png
00000014,613,1,1448295406471,1448295406909,895,523,0,0,0,4,2,2,6,0004-00-0000-97.png,0003-00-0001-36.png
00000014,614,0,1448295407982,1448295408386,364,452,0,0,0,4,3,1,7,0004-00-0000-50.png,0002-00-0001-04.png
00000014,615,1,1448295411219,1448295411607,403,371,0,0,0,0,4,4,4,0001-00-0001-96.png,0004-00-0000-38.png
00000014,616,1,1448295412633,1448295413272,924,483,0,0,0,2,0,2,2,0003-00-0001-72.png,0001-00-0000-31.png
00000014,617,0,1448295414164,1448295414712,907,435,0,0,0,2,3,1,5,0003-00-0000-95.png,0002-00-0001-66.png
00000014,618,1,1448295417742,1448295418212,945,472,0,0,0,3,2,1,5,0002-00-0000-35.png,0003-00-0000-58.png
00000014,619,0,1448295419243,1448295419777,862,448,0,0,0,0,3,3,3,0001-00-0001-54.png,0002-00-0000-17.png
00000014,620,1,1448295423158,1448295423648,888,423,0,0,0,4,1,3,5,0004-00-0000-33.png,0005-00-0000-50.png
00000014,621,1,1448295424689,1448295425143,350,449,0,0,0,0,2,2,2,0001-00-0001-85.png,0003-00-0001-57.png
00000014,622,1,1448295426151,1448295426584,425,449,0,0,0,1,2,1,3,0005-00-0001-91.png,0003-00-0001-65.png
00000014,623,1,1448295427632,1448295428160,887,423,0,0,0,4,0,4,4,0004-00-0000-80.png,0001-00-0001-20.png
00000014,624,0,1448295429222,1448295429643,376,448,0,0,0,3,1,2,4,0002-00-0001-38.png,0005-00-0001-10.png
00000014,625,1,1448295432899,1448295433313,442,443,0,0,0,3,4,1,7,0002-00-0001-24.png,0004-00-0000-81.png
00000014,626,1,1448295434372,1448295434758,366,434,0,0,0,0,1,1,1,0001-00-0001-16.png,0005-00-0000-65.png
00000014,627,1,1448295435748,1448295436354,370,416,0,0,0,0,4,4,4,0001-00-0000-07.png,0004-00-0001-35.png
00000014,628,0,1448295437292,1448295437906,376,462,0,0,0,3,0,3,3,0002-00-0001-15.png,0001-00-0000-86.png
00000014,629,1,1448295440870,1448295441473,956,487,0,0,0,3,2,1,5,0002-00-0001-35.png,0003-00-0001-08.png
00000014,630,0,1448295442850,1448295443389,878,453,0,0,0,2,4,2,6,0003-00-0000-90.png,0004-00-0001-42.png
00000014,631,0,1448295446616,1448295447088,925,485,0,0,0,1,4,3,5,0005-00-0000-87.png,0004-00-0001-79.png
00000014,632,0,1448295450104,1448295450128,488,416,0,0,0,4,2,2,6,0004-00-0000-26.png,0003-00-0000-18.png
00000014,633,0,1448295453870,1448295454285,356,359,0,0,0,4,3,1,7,0004-00-0001-85.png,0002-00-0000-73.png
00000014,634,0,1448295457165,1448295457668,902,457,0,0,0,2,3,1,5,0003-00-0001-75.png,0002-00-0000-45.png
00000014,635,1,1448295460827,1448295461330,952,461,0,0,0,1,0,1,1,0005-00-0000-35.png,0001-00-0001-36.png
00000014,636,1,1448295462277,1448295462898,929,468,0,0,0,2,0,2,2,0003-00-0001-55.png,0001-00-0001-37.png
00000014,637,1,1448295463987,1448295464390,368,453,0,0,0,1,3,2,4,0005-00-0001-33.png,0002-00-0001-94.png
00000014,638,0,1448295465379,1448295465995,898,483,0,0,0,0,3,3,3,0001-00-0000-34.png,0002-00-0001-56.png
00000014,639,1,1448295468935,1448295469392,965,449,0,0,0,2,1,1,3,0003-00-0000-02.png,0005-00-0001-14.png
00000014,640,0,1448295471633,1448295472669,314,388,0,0,0,4,1,3,5,0004-00-0001-08.png,0005-00-0000-84.png
00000014,641,1,1448295475624,1448295476063,417,410,0,0,0,0,1,1,1,0001-00-0001-43.png,0005-00-0000-08.png
00000014,642,1,1448295477086,1448295477607,927,500,0,0,0,2,1,1,3,0003-00-0000-27.png,0005-00-0000-36.png
00000014,643,1,1448295478634,1448295479022,377,445,0,0,0,1,2,1,3,0005-00-0001-24.png,0003-00-0001-83.png
00000014,644,1,1448295480596,1448295481050,950,486,0,0,0,3,1,2,4,0002-00-0000-47.png,0005-00-0000-53.png
00000014,645,0,1448295482036,1448295482430,368,450,0,0,0,4,2,2,6,0004-00-0000-30.png,0003-00-0001-56.png
00000014,646,1,1448295485713,1448295486154,948,471,0,0,0,2,0,2,2,0003-00-0001-71.png,0001-00-0001-30.png
00000014,647,1,1448295487114,1448295487563,372,406,0,0,0,0,4,4,4,0001-00-0001-48.png,0004-00-0000-91.png
00000014,648,1,1448295488606,1448295489127,932,468,0,0,0,3,0,3,3,0002-00-0000-58.png,0001-00-0001-27.png
00000014,649,1,1448295490095,1448295490530,356,473,0,0,0,2,4,2,6,0003-00-0001-72.png,0004-00-0000-36.png
00000014,650,0,1448295491548,1448295491930,407,466,0,0,0,1,0,1,1,0005-00-0001-07.png,0001-00-0001-11.png
00000014,651,1,1448295495193,1448295495653,397,393,0,0,0,1,3,2,4,0005-00-0001-01.png,0002-00-0000-97.png
00000014,652,1,1448295497300,1448295497669,376,358,0,0,0,0,2,2,2,0001-00-0000-45.png,0003-00-0000-01.png
00000014,653,0,1448295507925,1448295507999,498,479,0,0,0,4,0,4,4,0004-00-0000-44.png,0001-00-0001-71.png
00000014,654,0,1448295511135,1448295511560,394,389,0,0,0,4,3,1,7,0004-00-0001-62.png,0002-00-0001-89.png
00000014,655,1,1448295516268,1448295516683,341,376,0,0,0,0,3,3,3,0001-00-0001-91.png,0002-00-0000-08.png
00000014,656,1,1448295518913,1448295520538,290,357,0,0,0,1,4,3,5,0005-00-0000-16.png,0004-00-0000-07.png
00000014,657,1,1448295522448,1448295522831,405,394,0,0,0,3,4,1,7,0002-00-0000-39.png,0004-00-0000-30.png
00000014,658,1,1448295524094,1448295524582,942,473,0,0,0,4,1,3,5,0004-00-0000-93.png,0005-00-0001-55.png
00000014,659,0,1448295525608,1448295526144,927,486,0,0,0,2,3,1,5,0003-00-0001-25.png,0002-00-0001-30.png
00000014,660,0,1448295529693,1448295530163,427,396,0,0,0,3,2,1,5,0002-00-0000-65.png,0003-00-0000-34.png
00000014,661,1,1448295533392,1448295533794,381,400,0,0,0,0,3,3,3,0001-00-0001-86.png,0002-00-0000-20.png
00000014,662,1,1448295534771,1448295535637,378,394,0,0,0,1,4,3,5,0005-00-0000-34.png,0004-00-0001-08.png
00000014,663,1,1448295537048,1448295537772,949,456,0,0,0,1,0,1,1,0005-00-0000-71.png,0001-00-0000-11.png
00000014,664,0,1448295538767,1448295539179,376,476,0,0,0,3,2,1,5,0002-00-0000-52.png,0003-00-0001-04.png
00000014,665,0,1448295542563,1448295543042,383,409,0,0,0,3,0,3,3,0002-00-0000-89.png,0001-00-0001-80.png
00000014,666,1,1448295546566,1448295547102,954,478,0,0,0,3,1,2,4,0002-00-0000-58.png,0005-00-0000-36.png
00000014,667,0,1448295549599,1448295550114,950,488,0,0,0,0,1,1,1,0001-00-0000-30.png,0005-00-0000-35.png
00000014,668,1,1448295552977,1448295553454,436,493,0,0,0,3,4,1,7,0002-00-0000-59.png,0004-00-0001-56.png
00000014,669,0,1448295555095,1448295555535,901,450,0,0,0,0,2,2,2,0001-00-0001-95.png,0003-00-0001-29.png
00000014,670,0,1448295559041,1448295559433,363,371,0,0,0,4,2,2,6,0004-00-0001-88.png,0003-00-0001-25.png
00000014,671,0,1448295563155,1448295563652,970,491,0,0,0,0,4,4,4,0001-00-0001-66.png,0004-00-0000-19.png
00000014,672,1,1448295567060,1448295567508,945,469,0,0,0,4,1,3,5,0004-00-0000-42.png,0005-00-0001-31.png
00000014,673,1,1448295569377,1448295569824,427,512,0,0,0,1,2,1,3,0005-00-0000-46.png,0003-00-0001-30.png
00000014,674,0,1448295571565,1448295572040,940,492,0,0,0,2,3,1,5,0003-00-0001-62.png,0002-00-0000-69.png
00000014,675,0,1448295587453,1448295587877,376,371,0,0,0,4,3,1,7,0004-00-0001-99.png,0002-00-0000-10.png
00000014,676,1,1448295590844,1448295591266,950,462,0,0,0,2,0,2,2,0003-00-0000-43.png,0001-00-0000-70.png
00000014,677,1,1448295592314,1448295592739,356,461,0,0,0,1,3,2,4,0005-00-0000-64.png,0002-00-0000-02.png
00000014,678,1,1448295593934,1448295594436,949,485,0,0,0,2,1,1,3,0003-00-0000-95.png,0005-00-0001-51.png
00000014,679,0,1448295595307,1448295595790,393,401,0,0,0,4,0,4,4,0004-00-0001-95.png,0001-00-0000-15.png
00000014,680,0,1448295598894,1448295599360,900,565,0,0,0,2,4,2,6,0003-00-0000-34.png,0004-00-0001-15.png
00000014,681,1,1448295602670,1448295603107,414,449,0,0,0,0,2,2,2,0001-00-0001-44.png,0003-00-0001-91.png
00000014,682,1,1448295604320,1448295604852,937,477,0,0,0,3,0,3,3,0002-00-0001-34.png,0001-00-0001-47.png
00000014,683,1,1448295605852,1448295606291,419,564,0,0,0,0,1,1,1,0001-00-0000-59.png,0005-00-0001-63.png
00000014,684,0,1448295607315,1448295608027,384,392,0,0,0,4,2,2,6,0004-00-0001-48.png,0003-00-0001-63.png
00000014,685,1,1448295612084,1448295612494,900,528,0,0,0,1,0,1,1,0005-00-0001-72.png,0001-00-0000-45.png
00000014,686,1,1448295613464,1448295614011,928,469,0,0,0,4,0,4,4,0004-00-0001-85.png,0001-00-0001-04.png
00000014,687,1,1448295615026,1448295615500,427,436,0,0,0,1,4,3,5,0005-00-0000-58.png,0004-00-0001-41.png
00000014,688,0,1448295616628,1448295617301,920,463,0,0,0,2,4,2,6,0003-00-0001-88.png,0004-00-0000-11.png
00000014,689,1,1448295620702,1448295621309,433,487,0,0,0,0,3,3,3,0001-00-0001-07.png,0002-00-0001-07.png
00000014,690,1,1448295622409,1448295622871,427,528,0,0,0,0,4,4,4,0001-00-0001-41.png,0004-00-0001-85.png
00000014,691,1,1448295624012,1448295624530,902,502,0,0,0,2,0,2,2,0003-00-0001-00.png,0001-00-0000-22.png
00000014,692,1,1448295625501,1448295626045,880,480,0,0,0,4,1,3,5,0004-00-0001-12.png,0005-00-0001-53.png
00000014,693,1,1448295627051,1448295627708,897,483,0,0,0,4,3,1,7,0004-00-0000-04.png,0002-00-0001-92.png
00000014,694,1,1448295628782,1448295629162,393,442,0,0,0,1,2,1,3,0005-00-0000-97.png,0003-00-0001-28.png
00000014,695,1,1448295630243,1448295630790,913,488,0,0,0,2,1,1,3,0003-00-0000-03.png,0005-00-0001-98.png
00000014,696,0,1448295631833,1448295632287,380,436,0,0,0,3,1,2,4,0002-00-0000-15.png,0005-00-0000-81.png
00000014,697,1,1448295635748,1448295636235,950,484,0,0,0,3,2,1,5,0002-00-0000-53.png,0003-00-0000-69.png
00000014,698,0,1448295637328,1448295637889,886,461,0,0,0,1,3,2,4,0005-00-0000-02.png,0002-00-0001-33.png
00000014,699,0,1448295641166,1448295641636,900,555,0,0,0,2,3,1,5,0003-00-0000-51.png,0002-00-0000-05.png
00000014,700,1,1448295645147,1448295645675,344,433,0,0,0,3,4,1,7,0002-00-0000-44.png,0004-00-0001-41.png
00000014,701,0,1448295646812,1448295647820,442,392,0,0,0,3,0,3,3,0002-00-0000-98.png,0001-00-0000-32.png
00000014,702,1,1448295650785,1448295651205,427,384,0,0,0,0,3,3,3,0001-00-0000-45.png,0002-00-0000-61.png
00000014,703,1,1448295652213,1448295652820,926,455,0,0,0,2,0,2,2,0003-00-0000-70.png,0001-00-0001-75.png
00000014,704,1,1448295653748,1448295654150,416,458,0,0,0,0,4,4,4,0001-00-0000-42.png,0004-00-0000-07.png
00000014,705,0,1448295655249,1448295655917,393,429,0,0,0,2,1,1,3,0003-00-0000-81.png,0005-00-0000-04.png
00000014,706,0,1448295659602,1448295660055,924,458,0,0,0,1,2,1,3,0005-00-0000-21.png,0003-00-0000-17.png
00000014,707,1,1448295663348,1448295663921,896,470,0,0,0,4,2,2,6,0004-00-0001-61.png,0003-00-0000-76.png
00000014,708,0,1448295665383,1448295665873,859,552,0,0,0,3,4,1,7,0002-00-0001-65.png,0004-00-0001-07.png
00000014,709,1,1448295668781,1448295669290,950,384,0,0,0,4,0,4,4,0004-00-0001-26.png,0001-00-0000-73.png
00000014,710,0,1448295670307,1448295670872,896,472,0,0,0,2,4,2,6,0003-00-0001-51.png,0004-00-0000-61.png
00000014,711,1,1448295675753,1448295676279,950,486,0,0,0,3,1,2,4,0002-00-0000-78.png,0005-00-0001-70.png
00000014,712,1,1448295677361,1448295677772,346,435,0,0,0,0,1,1,1,0001-00-0001-99.png,0005-00-0000-19.png
00000014,713,1,1448295678873,1448295679529,876,513,0,0,0,4,1,3,5,0004-00-0001-13.png,0005-00-0001-08.png
00000014,714,0,1448295680531,1448295680939,356,435,0,0,0,3,2,1,5,0002-00-0001-67.png,0003-00-0001-33.png
00000014,715,0,1448295684428,1448295684879,964,476,0,0,0,2,3,1,5,0003-00-0001-27.png,0002-00-0001-67.png
00000014,716,1,1448295687975,1448295688378,442,443,0,0,0,0,2,2,2,0001-00-0000-70.png,0003-00-0001-75.png
00000014,717,1,1448295689456,1448295690029,895,472,0,0,0,4,3,1,7,0004-00-0001-60.png,0002-00-0000-43.png
00000014,718,1,1448295690978,1448295691531,928,467,0,0,0,1,0,1,1,0005-00-0001-40.png,0001-00-0001-35.png
00000014,719,1,1448295692576,1448295692982,358,480,0,0,0,1,4,3,5,0005-00-0001-91.png,0004-00-0000-08.png
00000014,720,1,1448295694101,1448295694741,374,411,0,0,0,1,3,2,4,0005-00-0001-55.png,0002-00-0001-18.png
00000014,721,1,1448295695789,1448295696218,344,452,0,0,0,0,2,2,2,0001-00-0000-15.png,0003-00-0000-60.png
00000014,722,1,1448295697218,1448295697776,376,410,0,0,0,1,4,3,5,0005-00-0000-47.png,0004-00-0000-77.png
00000014,723,1,1448295698819,1448295699256,383,449,0,0,0,1,3,2,4,0005-00-0001-68.png,0002-00-0001-48.png
00000014,724,0,1448295700361,1448295700777,368,442,0,0,0,3,2,1,5,0002-00-0000-32.png,0003-00-0001-59.png
00000014,725,0,1448295703967,1448295704439,939,472,0,0,0,3,4,1,7,0002-00-0000-98.png,0004-00-0001-10.png
00000014,726,1,1448295707516,1448295707950,381,388,0,0,0,0,4,4,4,0001-00-0000-65.png,0004-00-0000-96.png
00000014,727,1,1448295709422,1448295709878,928,467,0,0,0,4,0,4,4,0004-00-0000-72.png,0001-00-0000-74.png
00000014,728,0,1448295710868,1448295711264,390,483,0,0,0,4,2,2,6,0004-00-0001-45.png,0003-00-0000-00.png
00000014,729,1,1448295714444,1448295714922,913,410,0,0,0,2,1,1,3,0003-00-0001-84.png,0005-00-0001-17.png
00000014,730,0,1448295716093,1448295716873,921,425,0,0,0,0,1,1,1,0001-00-0001-62.png,0005-00-0001-59.png
00000014,731,0,1448295719979,1448295720895,356,357,0,0,0,4,3,1,7,0004-00-0001-23.png,0002-00-0001-06.png
00000014,732,1,1448295725614,1448295726288,387,472,0,0,0,1,2,1,3,0005-00-0001-90.png,0003-00-0000-09.png
00000014,733,1,1448295729089,1448295729539,964,436,0,0,0,4,1,3,5,0004-00-0000-44.png,0005-00-0000-00.png
00000014,734,0,1448295730681,1448295731254,958,462,0,0,0,2,4,2,6,0003-00-0000-83.png,0004-00-0000-05.png
00000014,735,1,1448295735498,1448295735937,978,513,0,0,0,2,0,2,2,0003-00-0001-63.png,0001-00-0001-52.png
00000014,736,1,1448295762393,1448295762935,1013,443,0,0,0,3,0,3,3,0002-00-0000-85.png,0001-00-0001-34.png
00000014,737,1,1448295764926,1448295765342,383,428,0,0,0,0,3,3,3,0001-00-0000-13.png,0002-00-0000-91.png
00000014,738,0,1448295766984,1448295767445,950,483,0,0,0,2,3,1,5,0003-00-0001-83.png,0002-00-0000-25.png
00000014,739,0,1448295770880,1448295771407,369,382,0,0,0,1,0,1,1,0005-00-0000-26.png,0001-00-0000-74.png
00000014,740,0,1448295779743,1448295780171,346,454,0,0,0,3,1,2,4,0002-00-0001-66.png,0005-00-0000-44.png
00000014,741,1,1448295784858,1448295785387,966,438,0,0,0,3,0,3,3,0002-00-0001-54.png,0001-00-0001-13.png
00000014,742,1,1448295787287,1448295787735,410,441,0,0,0,1,3,2,4,0005-00-0000-15.png,0002-00-0001-43.png
00000014,743,1,1448295789006,1448295789526,956,471,0,0,0,4,0,4,4,0004-00-0000-65.png,0001-00-0000-95.png
00000014,744,0,1448295791033,1448295791141,512,550,0,0,0,1,0,1,1,0005-00-0000-34.png,0001-00-0001-76.png
00000014,745,1,1448295794330,1448295794754,983,479,0,0,0,2,0,2,2,0003-00-0000-39.png,0001-00-0001-79.png
00000014,746,1,1448295796380,1448295796830,970,436,0,0,0,2,1,1,3,0003-00-0001-98.png,0005-00-0000-70.png
00000014,747,0,1448295798496,1448295798931,376,429,0,0,0,3,2,1,5,0002-00-0001-19.png,0003-00-0001-30.png
00000014,748,1,1448295802451,1448295803000,438,397,0,0,0,1,4,3,5,0005-00-0001-49.png,0004-00-0001-36.png
00000014,749,0,1448295804355,1448295804984,392,429,0,0,0,4,3,1,7,0004-00-0000-65.png,0002-00-0001-03.png
00000014,750,0,1448295808157,1448295808604,478,398,0,0,0,4,2,2,6,0004-00-0001-70.png,0003-00-0001-09.png
00000014,751,1,1448295814766,1448295815201,347,430,0,0,0,0,1,1,1,0001-00-0001-52.png,0005-00-0001-24.png
00000014,752,0,1448295816587,1448295817065,924,410,0,0,0,2,4,2,6,0003-00-0001-63.png,0004-00-0001-88.png
00000014,753,0,1448295820880,1448295821374,952,462,0,0,0,3,4,1,7,0002-00-0001-28.png,0004-00-0001-12.png
00000014,754,1,1448295824385,1448295824831,342,419,0,0,0,0,2,2,2,0001-00-0001-63.png,0003-00-0000-37.png
00000014,755,1,1448295826672,1448295827102,908,552,0,0,0,3,1,2,4,0002-00-0001-42.png,0005-00-0001-00.png
00000014,756,1,1448295828050,1448295828485,414,475,0,0,0,0,3,3,3,0001-00-0000-24.png,0002-00-0000-73.png
00000014,757,0,1448295829514,1448295829934,404,507,0,0,0,4,1,3,5,0004-00-0000-22.png,0005-00-0001-23.png
00000014,758,1,1448295834019,1448295834522,381,391,0,0,0,1,2,1,3,0005-00-0000-56.png,0003-00-0000-86.png
00000014,759,0,1448295835740,1448295836491,936,472,0,0,0,0,4,4,4,0001-00-0000-42.png,0004-00-0000-79.png
00000014,760,0,1448295839635,1448295840115,954,499,0,0,0,2,3,1,5,0003-00-0000-59.png,0002-00-0000-74.png
00000014,761,1,1448295843956,1448295844440,959,468,0,0,0,4,0,4,4,0004-00-0001-47.png,0001-00-0001-74.png
00000014,762,1,1448295845675,1448295846341,955,512,0,0,0,4,1,3,5,0004-00-0001-15.png,0005-00-0000-85.png
00000014,763,1,1448295847507,1448295848997,436,469,0,0,0,2,4,2,6,0003-00-0000-52.png,0004-00-0000-12.png
00000014,764,1,1448295850408,1448295850781,311,423,0,0,0,0,2,2,2,0001-00-0001-55.png,0003-00-0001-34.png
00000014,765,0,1448295852284,1448295853218,466,409,0,0,0,4,2,2,6,0004-00-0000-18.png,0003-00-0000-04.png
00000014,766,1,1448295858428,1448295858913,355,383,0,0,0,1,3,2,4,0005-00-0000-99.png,0002-00-0001-78.png
00000014,767,1,1448295860627,1448295861050,447,410,0,0,0,1,2,1,3,0005-00-0000-54.png,0003-00-0001-79.png
00000014,768,1,1448295862914,1448295863331,378,384,0,0,0,0,3,3,3,0001-00-0000-02.png,0002-00-0001-84.png
00000014,769,0,1448295864617,1448295865066,898,456,0,0,0,2,3,1,5,0003-00-0001-51.png,0002-00-0000-72.png
00000014,770,0,1448295868205,1448295868723,872,522,0,0,0,3,4,1,7,0002-00-0001-01.png,0004-00-0001-70.png
00000014,771,0,1448295871886,1448295872387,405,381,0,0,0,3,2,1,5,0002-00-0000-27.png,0003-00-0000-25.png
00000014,772,0,1448295875285,1448295875819,965,468,0,0,0,0,1,1,1,0001-00-0001-24.png,0005-00-0000-07.png
00000014,773,1,1448295880193,1448295880666,977,489,0,0,0,1,0,1,1,0005-00-0001-95.png,0001-00-0001-60.png
00000014,774,1,1448295882481,1448295882930,376,404,0,0,0,0,4,4,4,0001-00-0001-89.png,0004-00-0000-02.png
00000014,775,1,1448295884777,1448295885250,918,547,0,0,0,2,0,2,2,0003-00-0000-19.png,0001-00-0001-96.png
00000014,776,1,1448295886853,1448295887427,401,394,0,0,0,1,4,3,5,0005-00-0000-19.png,0004-00-0000-46.png
00000014,777,0,1448295889298,1448295889745,401,384,0,0,0,3,1,2,4,0002-00-0000-64.png,0005-00-0001-97.png
00000014,778,0,1448295893215,1448295893699,396,391,0,0,0,3,0,3,3,0002-00-0001-62.png,0001-00-0000-36.png
00000014,779,1,1448295897119,1448295897572,928,441,0,0,0,4,3,1,7,0004-00-0000-04.png,0002-00-0000-22.png
00000014,780,1,1448295898759,1448295899271,926,488,0,0,0,2,1,1,3,0003-00-0001-05.png,0005-00-0000-66.png
00000014,781,1,1448295900322,1448295900723,379,484,0,0,0,1,2,1,3,0005-00-0001-62.png,0003-00-0001-57.png
00000014,782,1,1448295901832,1448295902416,916,485,0,0,0,4,0,4,4,0004-00-0000-84.png,0001-00-0001-26.png
00000014,783,1,1448295903363,1448295903885,881,495,0,0,0,2,1,1,3,0003-00-0000-39.png,0005-00-0000-91.png
00000014,784,0,1448295904892,1448295905402,876,462,0,0,0,3,4,1,7,0002-00-0001-16.png,0004-00-0000-34.png
00000014,785,1,1448295908611,1448295909034,364,397,0,0,0,0,4,4,4,0001-00-0001-91.png,0004-00-0000-76.png
00000014,786,1,1448295910269,1448295911059,948,523,0,0,0,4,1,3,5,0004-00-0000-01.png,0005-00-0000-56.png
00000014,787,1,1448295912089,1448295912774,926,481,0,0,0,3,2,1,5,0002-00-0000-77.png,0003-00-0000-99.png
00000014,788,0,1448295913818,1448295914197,418,480,0,0,0,4,2,2,6,0004-00-0001-77.png,0003-00-0000-52.png
00000014,789,1,1448295917094,1448295917173,487,461,0,0,0,0,2,2,2,0001-00-0000-91.png,0003-00-0000-04.png
00000014,790,1,1448295918141,1448295918546,365,452,0,0,0,0,3,3,3,0001-00-0001-70.png,0002-00-0000-90.png
00000014,791,1,1448295919554,1448295920240,935,498,0,0,0,2,0,2,2,0003-00-0000-35.png,0001-00-0001-75.png
00000014,792,1,1448295921211,1448295921765,875,495,0,0,0,1,0,1,1,0005-00-0000-48.png,0001-00-0001-96.png
00000014,793,0,1448295922744,1448295923179,414,555,0,0,0,3,1,2,4,0002-00-0001-24.png,0005-00-0000-89.png
00000014,794,1,1448295926092,1448295926633,927,488,0,0,0,4,3,1,7,0004-00-0000-45.png,0002-00-0000-17.png
00000014,795,1,1448295927652,1448295928067,368,469,0,0,0,0,1,1,1,0001-00-0001-14.png,0005-00-0000-92.png
00000014,796,1,1448295929094,1448295929798,387,414,0,0,0,1,4,3,5,0005-00-0001-16.png,0004-00-0001-23.png
00000014,797,0,1448295930825,1448295931368,900,488,0,0,0,2,3,1,5,0003-00-0001-39.png,0002-00-0000-91.png
00000014,798,1,1448295934319,1448295934829,973,445,0,0,0,3,0,3,3,0002-00-0000-85.png,0001-00-0001-32.png
00000014,799,0,1448295935833,1448295936334,880,505,0,0,0,2,4,2,6,0003-00-0001-75.png,0004-00-0001-62.png
00000014,800,1,1448295939271,1448295939287,504,369,0,0,0,1,3,2,4,0005-00-0001-63.png,0002-00-0001-24.png
00000014,801,1,1448295940305,1448295940925,875,423,0,0,0,4,1,3,5,0004-00-0000-57.png,0005-00-0001-49.png
00000014,802,1,1448295941826,1448295942379,913,476,0,0,0,4,2,2,6,0004-00-0000-81.png,0003-00-0001-44.png
00000014,803,1,1448295943367,1448295943915,899,474,0,0,0,4,3,1,7,0004-00-0000-09.png,0002-00-0000-99.png
00000014,804,0,1448295944925,1448295945560,868,509,0,0,0,3,4,1,7,0002-00-0001-27.png,0004-00-0000-52.png
00000014,805,0,1448295949498,1448295949976,938,450,0,0,0,2,3,1,5,0003-00-0000-22.png,0002-00-0001-96.png
00000014,806,1,1448295953196,1448295953835,378,414,0,0,0,0,3,3,3,0001-00-0000-74.png,0002-00-0001-44.png
00000014,807,1,1448295954865,1448295955812,377,393,0,0,0,1,3,2,4,0005-00-0000-49.png,0002-00-0001-49.png
00000014,808,1,1448295956787,1448295957333,922,457,0,0,0,4,0,4,4,0004-00-0001-44.png,0001-00-0001-99.png
00000014,809,0,1448295958383,1448295958995,389,448,0,0,0,2,1,1,3,0003-00-0001-92.png,0005-00-0001-03.png
00000014,810,1,1448295969991,1448295970614,878,454,0,0,0,1,0,1,1,0005-00-0000-95.png,0001-00-0000-94.png
00000014,811,1,1448295973542,1448295974004,936,486,0,0,0,3,0,3,3,0002-00-0000-56.png,0001-00-0001-35.png
00000014,812,1,1448295975710,1448295976119,389,414,0,0,0,1,2,1,3,0005-00-0000-04.png,0003-00-0001-92.png
00000014,813,1,1448295977309,1448295977723,367,469,0,0,0,2,4,2,6,0003-00-0000-05.png,0004-00-0001-40.png
00000014,814,1,1448295978811,1448295979257,377,456,0,0,0,0,4,4,4,0001-00-0000-86.png,0004-00-0001-75.png
00000014,815,1,1448295980331,1448295980727,401,488,0,0,0,0,1,1,1,0001-00-0001-16.png,0005-00-0000-52.png
00000014,816,1,1448295981824,1448295982338,926,488,0,0,0,2,0,2,2,0003-00-0000-46.png,0001-00-0000-38.png
00000014,817,0,1448295983333,1448295983822,427,410,0,0,0,3,2,1,5,0002-00-0000-79.png,0003-00-0000-17.png
00000014,818,1,1448295988630,1448295989117,955,495,0,0,0,3,1,2,4,0002-00-0000-57.png,0005-00-0000-26.png
00000014,819,1,1448295990331,1448295990782,273,462,0,0,0,0,2,2,2,0001-00-0001-73.png,0003-00-0001-52.png
00000014,820,1,1448295991821,1448295992366,401,436,0,0,0,1,4,3,5,0005-00-0000-04.png,0004-00-0000-85.png
00000014,821,0,1448295993640,1448295994292,346,393,0,0,0,4,3,1,7,0004-00-0000-22.png,0002-00-0001-63.png
00000014,822,1,1448295997528,1448295997997,395,439,0,0,0,1,4,3,5,0005-00-0000-00.png,0004-00-0000-28.png
00000014,823,0,1448295999198,1448296000015,876,436,0,0,0,0,4,4,4,0001-00-0000-73.png,0004-00-0001-89.png
00000014,824,1,1448296003232,1448296003794,403,409,0,0,0,1,3,2,4,0005-00-0001-25.png,0002-00-0000-34.png
00000014,825,0,1448296004912,1448296005367,325,436,0,0,0,3,1,2,4,0002-00-0001-76.png,0005-00-0001-95.png
00000014,826,1,1448296009124,1448296009538,411,405,0,0,0,0,2,2,2,0001-00-0000-71.png,0003-00-0000-01.png
00000014,827,1,1448296010618,1448296011398,372,419,0,0,0,1,2,1,3,0005-00-0000-89.png,0003-00-0000-09.png
00000014,828,1,1448296012716,1448296013217,901,487,0,0,0,2,0,2,2,0003-00-0001-48.png,0001-00-0000-72.png
00000014,829,0,1448296014475,1448296014929,339,439,0,0,0,3,2,1,5,0002-00-0000-50.png,0003-00-0000-20.png
00000014,830,1,1448296022862,1448296023152,503,346,0,0,0,2,3,1,5,0003-00-0000-03.png,0002-00-0000-78.png
00000014,831,0,1448296025551,1448296026205,458,389,0,0,0,2,1,1,3,0003-00-0001-15.png,0005-00-0001-67.png
00000014,832,1,1448296030550,1448296031056,930,537,0,0,0,4,0,4,4,0004-00-0000-46.png,0001-00-0000-02.png
00000014,833,1,1448296032360,1448296033168,953,435,0,0,0,1,0,1,1,0005-00-0000-11.png,0001-00-0001-56.png
00000014,834,0,1448296034367,1448296035059,916,486,0,0,0,2,4,2,6,0003-00-0001-33.png,0004-00-0000-03.png
00000014,835,1,1448296038294,1448296038732,947,471,0,0,0,3,0,3,3,0002-00-0001-00.png,0001-00-0000-30.png
00000014,836,1,1448296039715,1448296040268,932,470,0,0,0,4,1,3,5,0004-00-0000-25.png,0005-00-0000-75.png
00000014,837,1,1448296041228,1448296041628,397,442,0,0,0,3,4,1,7,0002-00-0000-56.png,0004-00-0001-83.png
00000014,838,0,1448296042667,1448296043144,405,435,0,0,0,4,2,2,6,0004-00-0001-05.png,0003-00-0000-33.png
00000014,839,1,1448296047080,1448296047601,386,516,0,0,0,0,1,1,1,0001-00-0000-68.png,0005-00-0000-74.png
00000014,840,1,1448296049306,1448296049920,435,428,0,0,0,0,3,3,3,0001-00-0000-01.png,0002-00-0000-58.png
00000014,841,1,1448296051889,1448296052270,444,402,0,0,0,0,3,3,3,0001-00-0000-51.png,0002-00-0000-58.png
00000014,842,1,1448296053399,1448296054443,918,470,0,0,0,4,0,4,4,0004-00-0000-35.png,0001-00-0000-43.png
00000014,843,1,1448296055459,1448296055981,902,493,0,0,0,4,1,3,5,0004-00-0001-79.png,0005-00-0000-02.png
00000014,844,1,1448296057118,1448296057546,389,469,0,0,0,1,4,3,5,0005-00-0000-81.png,0004-00-0001-12.png
00000014,845,0,1448296058638,1448296059213,401,424,0,0,0,3,1,2,4,0002-00-0000-98.png,0005-00-0001-95.png
00000014,846,1,1448296062314,1448296062767,928,442,0,0,0,2,1,1,3,0003-00-0001-10.png,0005-00-0001-01.png
00000014,847,1,1448296063748,1448296064118,404,448,0,0,0,1,2,1,3,0005-00-0000-20.png,0003-00-0000-44.png
00000014,848,1,1448296065189,1448296065774,903,468,0,0,0,3,0,3,3,0002-00-0001-21.png,0001-00-0000-73.png
00000014,849,1,1448296066718,1448296067134,369,453,0,0,0,2,3,1,5,0003-00-0000-00.png,0002-00-0000-35.png
00000014,850,0,1448296068187,1448296068778,898,484,0,0,0,2,4,2,6,0003-00-0001-63.png,0004-00-0001-48.png
00000014,851,1,1448296075213,1448296075586,387,407,0,0,0,0,2,2,2,0001-00-0000-87.png,0003-00-0001-83.png
00000014,852,1,1448296076687,1448296077276,351,414,0,0,0,0,4,4,4,0001-00-0000-59.png,0004-00-0000-02.png
00000014,853,0,1448296078294,1448296078740,366,468,0,0,0,3,2,1,5,0002-00-0001-30.png,0003-00-0001-53.png
00000014,854,1,1448296081643,1448296082097,974,435,0,0,0,2,0,2,2,0003-00-0001-62.png,0001-00-0000-08.png
00000014,855,1,1448296083027,1448296083433,361,428,0,0,0,0,1,1,1,0001-00-0000-82.png,0005-00-0000-90.png
00000014,856,0,1448296084398,1448296085032,325,410,0,0,0,4,2,2,6,0004-00-0001-38.png,0003-00-0000-80.png
00000014,857,0,1448296090983,1448296091379,979,415,0,0,0,1,3,2,4,0005-00-0001-93.png,0002-00-0000-46.png
00000014,858,0,1448296095040,1448296095522,963,474,0,0,0,3,4,1,7,0002-00-0000-68.png,0004-00-0001-06.png
00000014,859,1,1448296099136,1448296099749,925,410,0,0,0,1,0,1,1,0005-00-0001-25.png,0001-00-0000-63.png
00000014,860,0,1448296100787,1448296101392,420,431,0,0,0,4,3,1,7,0004-00-0000-27.png,0002-00-0000-26.png
00000014,861,1,1448296104442,1448296104894,899,384,0,0,0,1,0,1,1,0005-00-0000-43.png,0001-00-0000-15.png
00000014,862,1,1448296105965,1448296106607,933,469,0,0,0,3,1,2,4,0002-00-0001-86.png,0005-00-0000-85.png
00000014,863,1,1448296107595,1448296108297,912,503,0,0,0,4,1,3,5,0004-00-0001-24.png,0005-00-0001-70.png
00000014,864,1,1448296109214,1448296109628,370,436,0,0,0,3,4,1,7,0002-00-0000-70.png,0004-00-0001-70.png
00000014,865,0,1448296110515,1448296111125,922,472,0,0,0,0,1,1,1,0001-00-0001-89.png,0005-00-0001-65.png
00000014,866,1,1448296119499,1448296120000,440,527,0,0,0,0,3,3,3,0001-00-0000-47.png,0002-00-0000-70.png
00000014,867,1,1448296121059,1448296122013,350,359,0,0,0,2,4,2,6,0003-00-0000-16.png,0004-00-0000-03.png
00000014,868,1,1448296123029,1448296123805,881,476,0,0,0,4,2,2,6,0004-00-0000-28.png,0003-00-0001-18.png
00000014,869,1,1448296124814,1448296125419,928,469,0,0,0,4,3,1,7,0004-00-0000-44.png,0002-00-0000-81.png
00000014,870,1,1448296126408,1448296127157,914,501,0,0,0,3,2,1,5,0002-00-0000-80.png,0003-00-0000-40.png
00000014,871,1,1448296128167,1448296128784,888,475,0,0,0,2,1,1,3,0003-00-0001-08.png,0005-00-0000-55.png
00000014,872,1,1448296129826,1448296130255,358,480,0,0,0,0,4,4,4,0001-00-0000-34.png,0004-00-0001-94.png
00000014,873,0,1448296131247,1448296131770,886,476,0,0,0,1,4,3,5,0005-00-0001-32.png,0004-00-0001-95.png
00000014,874,0,1448296135801,1448296136371,925,457,0,0,0,1,3,2,4,0005-00-0001-07.png,0002-00-0001-37.png
00000014,875,1,1448296139347,1448296139395,522,507,0,0,0,0,2,2,2,0001-00-0000-24.png,0003-00-0000-25.png
00000014,876,1,1448296140441,1448296140896,427,475,0,0,0,1,2,1,3,0005-00-0001-65.png,0003-00-0000-32.png
00000014,877,1,1448296141832,1448296142379,926,463,0,0,0,4,0,4,4,0004-00-0001-76.png,0001-00-0001-72.png
00000014,878,1,1448296143283,1448296143776,931,485,0,0,0,3,0,3,3,0002-00-0000-74.png,0001-00-0000-16.png
00000014,879,0,1448296144707,1448296145377,896,472,0,0,0,2,3,1,5,0003-00-0000-36.png,0002-00-0001-32.png
00000014,880,1,1448296148750,1448296149182,953,467,0,0,0,2,0,2,2,0003-00-0000-67.png,0001-00-0001-07.png
00000014,881,1,1448296150142,1448296150674,413,462,0,0,0,0,3,3,3,0001-00-0000-53.png,0002-00-0000-45.png
00000014,882,1,1448296151601,1448296152006,376,462,0,0,0,1,4,3,5,0005-00-0001-65.png,0004-00-0001-86.png
00000014,883,0,1448296152964,1448296153627,918,469,0,0,0,2,4,2,6,0003-00-0000-75.png,0004-00-0000-73.png
00000014,884,1,1448296156749,1448296157202,452,378,0,0,0,0,1,1,1,0001-00-0001-11.png,0005-00-0001-56.png
00000014,885,0,1448296158091,1448296158610,938,452,0,0,0,1,3,2,4,0005-00-0001-67.png,0002-00-0000-55.png
00000014,886,1,1448296167483,1448296167905,977,449,0,0,0,2,0,2,2,0003-00-0001-96.png,0001-00-0000-18.png
00000014,887,0,1448296170399,1448296170875,376,449,0,0,0,3,2,1,5,0002-00-0001-83.png,0003-00-0000-29.png
00000014,888,1,1448296175646,1448296176070,900,411,0,0,0,3,0,3,3,0002-00-0000-34.png,0001-00-0000-83.png
00000014,889,0,1448296177146,1448296177756,389,489,0,0,0,3,1,2,4,0002-00-0001-62.png,0005-00-0000-57.png
00000014,890,1,1448296181825,1448296182390,440,464,0,0,0,1,2,1,3,0005-00-0000-91.png,0003-00-0000-07.png
00000014,891,0,1448296183597,1448296184586,337,397,0,0,0,4,2,2,6,0004-00-0001-21.png,0003-00-0000-81.png
00000014,892,0,1448296190767,1448296191187,958,472,0,0,0,2,3,1,5,0003-00-0001-05.png,0002-00-0000-61.png
00000014,893,1,1448296196904,1448296197405,448,532,0,0,0,3,4,1,7,0002-00-0000-27.png,0004-00-0000-91.png
00000014,894,0,1448296198441,1448296199281,375,357,0,0,0,2,1,1,3,0003-00-0001-39.png,0005-00-0000-72.png
00000014,895,1,1448296202612,1448296203147,972,467,0,0,0,4,0,4,4,0004-00-0001-73.png,0001-00-0000-98.png
00000014,896,1,1448296204303,1448296204813,335,409,0,0,0,0,4,4,4,0001-00-0001-97.png,0004-00-0001-83.png
00000014,897,1,1448296206064,1448296206723,979,443,0,0,0,4,1,3,5,0004-00-0000-63.png,0005-00-0001-84.png
00000014,898,0,1448296207921,1448296208381,925,463,0,0,0,0,2,2,2,0001-00-0001-50.png,0003-00-0000-98.png
00000014,899,0,1448296211779,1448296212261,373,415,0,0,0,4,3,1,7,0004-00-0001-27.png,0002-00-0000-52.png
00000014,900,1,1448296217582,1448296218115,975,483,0,0,0,1,0,1,1,0005-00-0001-45.png,0001-00-0001-77.png
00000014,901,1,1448296219243,1448296219631,384,471,0,0,0,0,3,3,3,0001-00-0000-81.png,0002-00-0001-08.png
00000014,902,1,1448296220532,1448296220935,364,475,0,0,0,1,3,2,4,0005-00-0000-68.png,0002-00-0000-68.png
00000014,903,0,1448296221853,1448296222351,386,498,0,0,0,4,1,3,5,0004-00-0000-44.png,0005-00-0000-63.png
00000014,904,1,1448296226237,1448296226779,431,475,0,0,0,1,2,1,3,0005-00-0000-46.png,0003-00-0000-30.png
00000014,905,1,1448296227847,1448296228428,875,423,0,0,0,3,0,3,3,0002-00-0001-08.png,0001-00-0000-81.png
00000014,906,1,1448296229484,1448296229891,427,436,0,0,0,0,1,1,1,0001-00-0000-11.png,0005-00-0001-73.png
00000014,907,1,1448296230959,1448296231491,900,488,0,0,0,4,2,2,6,0004-00-0001-51.png,0003-00-0000-93.png
00000014,908,1,1448296232600,1448296233013,362,475,0,0,0,0,4,4,4,0001-00-0001-43.png,0004-00-0000-67.png
00000014,909,1,1448296234007,1448296234764,928,492,0,0,0,4,3,1,7,0004-00-0000-75.png,0002-00-0001-88.png
00000014,910,0,1448296235740,1448296236127,418,475,0,0,0,4,0,4,4,0004-00-0000-89.png,0001-00-0001-23.png
00000014,911,0,1448296241185,1448296241590,930,427,0,0,0,2,4,2,6,0003-00-0001-78.png,0004-00-0001-74.png
00000014,912,0,1448296245636,1448296246087,951,437,0,0,0,2,3,1,5,0003-00-0001-51.png,0002-00-0000-40.png
00000014,913,1,1448296250528,1448296250981,925,554,0,0,0,2,0,2,2,0003-00-0000-83.png,0001-00-0001-08.png
00000014,914,1,1448296252167,1448296252725,875,423,0,0,0,2,1,1,3,0003-00-0001-82.png,0005-00-0000-27.png
00000014,915,1,1448296253729,1448296254446,946,493,0,0,0,3,1,2,4,0002-00-0001-43.png,0005-00-0001-97.png
00000014,916,1,1448296255426,1448296255893,330,470,0,0,0,0,2,2,2,0001-00-0001-17.png,0003-00-0001-17.png
00000014,917,0,1448296256806,1448296257603,870,492,0,0,0,1,4,3,5,0005-00-0000-11.png,0004-00-0001-44.png
00000014,918,1,1448296262172,1448296262636,952,470,0,0,0,1,0,1,1,0005-00-0001-49.png,0001-00-0001-32.png
00000014,919,1,1448296263586,1448296264179,923,479,0,0,0,3,2,1,5,0002-00-0000-10.png,0003-00-0000-24.png
00000014,920,0,1448296265188,1448296265790,913,502,0,0,0,3,4,1,7,0002-00-0001-96.png,0004-00-0000-14.png
00000014,921,1,1448296271462,1448296271840,399,393,0,0,0,1,4,3,5,0005-00-0001-98.png,0004-00-0001-12.png
00000014,922,1,1448296273034,1448296273578,955,480,0,0,0,4,3,1,7,0004-00-0000-45.png,0002-00-0000-62.png
00000014,923,0,1448296274515,1448296274966,397,504,0,0,0,3,0,3,3,0002-00-0000-45.png,0001-00-0001-60.png
00000014,924,0,1448296278312,1448296278698,926,411,0,0,0,2,3,1,5,0003-00-0001-41.png,0002-00-0001-36.png
00000014,925,1,1448296282990,1448296283393,409,367,0,0,0,2,4,2,6,0003-00-0000-17.png,0004-00-0001-31.png
00000014,926,1,1448296284474,1448296284899,363,449,0,0,0,0,2,2,2,0001-00-0001-16.png,0003-00-0001-78.png
00000014,927,0,1448296285975,1448296286488,902,487,0,0,0,1,3,2,4,0005-00-0001-81.png,0002-00-0001-61.png
00000014,928,1,1448296290826,1448296291358,377,360,0,0,0,1,2,1,3,0005-00-0000-91.png,0003-00-0001-89.png
00000014,929,0,1448296292356,1448296292769,371,481,0,0,0,4,2,2,6,0004-00-0001-80.png,0003-00-0000-59.png
00000014,930,1,1448296297038,1448296297491,960,518,0,0,0,2,1,1,3,0003-00-0000-29.png,0005-00-0001-27.png
00000014,931,0,1448296298469,1448296299044,927,476,0,0,0,3,4,1,7,0002-00-0001-78.png,0004-00-0001-80.png
00000014,932,1,1448296303368,1448296303843,960,473,0,0,0,3,1,2,4,0002-00-0000-51.png,0005-00-0000-20.png
00000014,933,1,1448296304876,1448296305323,326,459,0,0,0,0,3,3,3,0001-00-0001-29.png,0002-00-0000-26.png
00000014,934,1,1448296306300,1448296306712,334,457,0,0,0,0,1,1,1,0001-00-0001-47.png,0005-00-0001-67.png
00000014,935,1,1448296307752,1448296308286,870,433,0,0,0,1,0,1,1,0005-00-0001-76.png,0001-00-0001-80.png
00000014,936,1,1448296309332,1448296309865,901,460,0,0,0,4,1,3,5,0004-00-0001-87.png,0005-00-0000-99.png
00000014,937,1,1448296313316,1448296314215,413,423,0,0,0,0,4,4,4,0001-00-0000-23.png,0004-00-0001-26.png
00000014,938,1,1448296315330,1448296315978,949,456,0,0,0,4,0,4,4,0004-00-0000-16.png,0001-00-0000-12.png
00000014,939,0,1448296317108,1448296317519,425,496,0,0,0,3,2,1,5,0002-00-0001-42.png,0003-00-0001-97.png
00000014,940,1,1448296322710,1448296323163,963,424,0,0,0,2,0,2,2,0003-00-0000-14.png,0001-00-0001-10.png
00000014,941,0,1448296324339,1448296325114,916,495,0,0,0,1,2,1,3,0005-00-0000-21.png,0003-00-0001-67.png
00000014,942,1,1448296329330,1448296329906,951,449,0,0,0,4,0,4,4,0004-00-0000-63.png,0001-00-0000-05.png
00000014,943,1,1448296331008,1448296331449,389,501,0,0,0,0,4,4,4,0001-00-0000-37.png,0004-00-0001-89.png
00000014,944,1,1448296332326,1448296332709,373,448,0,0,0,1,4,3,5,0005-00-0000-12.png,0004-00-0001-26.png
00000014,945,0,1448296333652,1448296334195,949,483,0,0,0,1,3,2,4,0005-00-0000-42.png,0002-00-0001-38.png
00000014,946,0,1448296337139,1448296337537,385,382,0,0,0,3,2,1,5,0002-00-0001-04.png,0003-00-0001-63.png
00000014,947,0,1448296348170,1448296348536,975,429,0,0,0,2,3,1,5,0003-00-0000-06.png,0002-00-0001-98.png
00000014,948,0,1448296351670,1448296352106,460,550,0,0,0,4,3,1,7,0004-00-0001-76.png,0002-00-0001-43.png
00000014,949,1,1448296355625,1448296356101,926,502,0,0,0,4,1,3,5,0004-00-0000-28.png,0005-00-0001-46.png
00000014,950,1,1448296357167,1448296357680,925,489,0,0,0,3,1,2,4,0002-00-0000-21.png,0005-00-0001-20.png
00000014,951,1,1448296358576,1448296359145,401,449,0,0,0,3,4,1,7,0002-00-0000-90.png,0004-00-0001-17.png
