subject_id,trial,correct_response,stim_time,response_time,x_coord,y_coord,trial_timeout,timeout_time,interTrial_timeout,left_rank,right_rank,distance,joint_rank,left_image,right_image
00000014,1,0,1448386277867,1448386278753,359,431,0,0,0,3,0,3,3,0002-00-0001-47.png,0001-00-0001-02.png
00000014,2,1,1448386282250,1448386284000,438,426,0,0,0,1,4,3,5,0005-00-0000-41.png,0004-00-0000-62.png
00000014,3,0,1448386292264,1448386293270,433,457,0,0,0,2,1,1,3,0003-00-0001-76.png,0005-00-0001-65.png
00000014,4,1,1448386296618,1448386297805,390,433,0,0,0,3,4,1,7,0002-00-0000-85.png,0004-00-0001-11.png
00000014,5,1,1448386309158,1448386309869,448,416,0,0,0,0,1,1,1,0001-00-0001-42.png,0005-00-0000-36.png
00000014,6,0,1448386325137,1448386326145,376,399,0,0,0,2,0,2,2,0003-00-0000-78.png,0001-00-0001-05.png
00000014,7,1,1448386330629,1448386332376,974,380,0,0,0,4,2,2,6,0004-00-0001-74.png,0003-00-0000-44.png
00000014,8,0,1448387319819,1448387321832,440,398,0,0,0,1,0,1,1,0005-00-0000-29.png,0001-00-0001-29.png
00000014,9,1,1448387324805,1448387325159,342,374,0,0,0,0,4,4,4,0001-00-0000-10.png,0004-00-0001-69.png
00000014,10,1,1448387326246,1448387326751,913,436,0,0,0,4,1,3,5,0004-00-0001-39.png,0005-00-0001-26.png
00000014,11,1,1448387328134,1448387328729,925,509,0,0,0,4,3,1,7,0004-00-0001-61.png,0002-00-0001-29.png
00000014,12,1,1448387330033,1448387330570,977,478,0,0,0,4,0,4,4,0004-00-0000-21.png,0001-00-0000-21.png
00000014,13,1,1448387331712,1448387332158,350,423,0,0,0,1,2,1,3,0005-00-0001-42.png,0003-00-0001-98.png
00000014,14,1,1448387333839,1448387334326,899,517,0,0,0,3,1,2,4,0002-00-0000-53.png,0005-00-0001-13.png
00000014,15,1,1448387335779,1448387336337,337,346,0,0,0,0,2,2,2,0001-00-0000-57.png,0003-00-0000-94.png
00000014,16,1,1448387337789,1448387338388,360,529,0,0,0,1,3,2,4,0005-00-0000-53.png,0002-00-0001-69.png
00000014,17,0,1448387339335,1448387339985,957,479,0,0,0,2,3,1,5,0003-00-0000-81.png,0002-00-0000-47.png
00000014,18,0,1448387342978,1448387343415,376,384,0,0,0,3,2,1,5,0002-00-0001-33.png,0003-00-0001-89.png
00000014,19,0,1448387346488,1448387346895,877,495,0,0,0,2,4,2,6,0003-00-0000-97.png,0004-00-0001-92.png
00000014,20,1,1448387349770,1448387349830,499,452,0,0,0,0,3,3,3,0001-00-0001-98.png,0002-00-0001-70.png
00000014,21,1,1448387350789,1448387351340,900,554,0,0,0,4,1,3,5,0004-00-0000-69.png,0005-00-0001-98.png
00000014,22,1,1448387352177,1448387352614,367,424,0,0,0,0,4,4,4,0001-00-0000-26.png,0004-00-0001-14.png
00000014,23,1,1448387353578,1448387354033,348,442,0,0,0,1,4,3,5,0005-00-0000-65.png,0004-00-0000-03.png
00000014,24,1,1448387354942,1448387355343,370,423,0,0,0,0,3,3,3,0001-00-0001-75.png,0002-00-0001-71.png
00000014,25,1,1448387356274,1448387356824,902,547,0,0,0,1,0,1,1,0005-00-0000-76.png,0001-00-0000-98.png
00000014,26,1,1448387357776,1448387358223,393,422,0,0,0,3,4,1,7,0002-00-0001-13.png,0004-00-0001-16.png
00000014,27,0,1448387359136,1448387359643,877,546,0,0,0,2,4,2,6,0003-00-0000-22.png,0004-00-0001-21.png
00000014,28,0,1448387362714,1448387363137,917,401,0,0,0,1,3,2,4,0005-00-0000-12.png,0002-00-0001-24.png
00000014,29,0,1448387366114,1448387366495,400,392,0,0,0,3,0,3,3,0002-00-0001-44.png,0001-00-0000-90.png
00000014,30,1,1448387369611,1448387370067,888,527,0,0,0,4,3,1,7,0004-00-0001-45.png,0002-00-0001-02.png
00000014,31,0,1448387370942,1448387371456,427,537,0,0,0,3,1,2,4,0002-00-0001-50.png,0005-00-0000-47.png
00000014,32,0,1448387374286,1448387374749,381,405,0,0,0,3,2,1,5,0002-00-0001-66.png,0003-00-0001-21.png
00000014,33,0,1448387377955,1448387378393,915,512,0,0,0,2,3,1,5,0003-00-0000-83.png,0002-00-0000-73.png
00000014,34,0,1448387381244,1448387381777,370,319,0,0,0,4,2,2,6,0004-00-0001-62.png,0003-00-0000-21.png
00000014,35,1,1448387384972,1448387385427,391,441,0,0,0,0,2,2,2,0001-00-0000-78.png,0003-00-0001-39.png
00000014,36,1,1448387386353,1448387386992,347,390,0,0,0,1,2,1,3,0005-00-0001-08.png,0003-00-0000-15.png
00000014,37,1,1448387387963,1448387388502,948,432,0,0,0,4,0,4,4,0004-00-0001-73.png,0001-00-0001-29.png
00000014,38,1,1448387389532,1448387390085,946,455,0,0,0,2,1,1,3,0003-00-0000-37.png,0005-00-0001-27.png
00000014,39,1,1448387391063,1448387391595,411,522,0,0,0,0,1,1,1,0001-00-0000-06.png,0005-00-0001-64.png
00000014,40,1,1448387392625,1448387393129,898,538,0,0,0,2,0,2,2,0003-00-0001-53.png,0001-00-0000-79.png
00000014,41,1,1448387394055,1448387394644,330,433,0,0,0,1,3,2,4,0005-00-0000-31.png,0002-00-0000-06.png
00000014,42,1,1448387395634,1448387396222,917,437,0,0,0,4,1,3,5,0004-00-0001-04.png,0005-00-0001-51.png
00000014,43,1,1448387397226,1448387397665,405,459,0,0,0,1,4,3,5,0005-00-0001-03.png,0004-00-0000-56.png
00000014,44,1,1448387398630,1448387399070,453,476,0,0,0,0,2,2,2,0001-00-0001-78.png,0003-00-0001-76.png
00000014,45,0,1448387400048,1448387400547,407,540,0,0,0,1,0,1,1,0005-00-0000-72.png,0001-00-0001-16.png
00000014,46,1,1448387405011,1448387405456,952,475,0,0,0,3,1,2,4,0002-00-0000-72.png,0005-00-0000-00.png
00000014,47,0,1448387406412,1448387407043,874,554,0,0,0,3,4,1,7,0002-00-0001-61.png,0004-00-0001-79.png
00000014,48,1,1448387409930,1448387410390,927,462,0,0,0,4,2,2,6,0004-00-0001-71.png,0003-00-0000-56.png
00000014,49,0,1448387411291,1448387411901,883,459,0,0,0,2,4,2,6,0003-00-0001-66.png,0004-00-0001-48.png
00000014,50,1,1448387415019,1448387415490,940,471,0,0,0,2,1,1,3,0003-00-0001-00.png,0005-00-0000-58.png
00000014,51,0,1448387416446,1448387416936,446,562,0,0,0,3,0,3,3,0002-00-0001-93.png,0001-00-0001-46.png
00000014,52,1,1448387420067,1448387420555,404,383,0,0,0,0,1,1,1,0001-00-0000-41.png,0005-00-0001-53.png
00000014,53,1,1448387421413,1448387421981,875,521,0,0,0,2,0,2,2,0003-00-0001-09.png,0001-00-0001-83.png
00000014,54,1,1448387422918,1448387423389,381,554,0,0,0,2,3,1,5,0003-00-0001-93.png,0002-00-0000-04.png
00000014,55,0,1448387424414,1448387424905,350,437,0,0,0,4,0,4,4,0004-00-0001-46.png,0001-00-0000-08.png
00000014,56,1,1448387427808,1448387428467,438,405,0,0,0,0,4,4,4,0001-00-0001-28.png,0004-00-0001-39.png
00000014,57,1,1448387429385,1448387429841,367,428,0,0,0,0,3,3,3,0001-00-0001-01.png,0002-00-0001-00.png
00000014,58,0,1448387430771,1448387431308,365,415,0,0,0,4,3,1,7,0004-00-0000-27.png,0002-00-0000-80.png
00000014,59,1,1448387434389,1448387434863,410,492,0,0,0,1,2,1,3,0005-00-0001-40.png,0003-00-0001-98.png
00000014,60,1,1448387435715,1448387436257,925,412,0,0,0,3,2,1,5,0002-00-0000-68.png,0003-00-0000-17.png
00000014,61,0,1448387437191,1448387437754,491,411,0,0,0,1,0,1,1,0005-00-0000-17.png,0001-00-0001-35.png
00000014,62,1,1448387440671,1448387441380,363,410,0,0,0,0,3,3,3,0001-00-0001-54.png,0002-00-0001-97.png
00000014,63,0,1448387442248,1448387442774,903,442,0,0,0,2,4,2,6,0003-00-0000-72.png,0004-00-0001-01.png
00000014,64,1,1448387445718,1448387446168,402,407,0,0,0,1,4,3,5,0005-00-0000-22.png,0004-00-0001-84.png
00000014,65,0,1448387447525,1448387448415,387,476,0,0,0,4,2,2,6,0004-00-0000-77.png,0003-00-0000-16.png
00000014,66,0,1448387451342,1448387452284,368,375,0,0,0,3,1,2,4,0002-00-0001-67.png,0005-00-0001-08.png
00000014,67,1,1448387455151,1448387455669,904,429,0,0,0,3,0,3,3,0002-00-0000-49.png,0001-00-0000-90.png
00000014,68,1,1448387456549,1448387456995,354,434,0,0,0,1,2,1,3,0005-00-0001-34.png,0003-00-0000-94.png
00000014,69,0,1448387458011,1448387458623,875,397,0,0,0,3,4,1,7,0002-00-0000-28.png,0004-00-0001-22.png
00000014,70,1,1448387461789,1448387462211,896,392,0,0,0,4,0,4,4,0004-00-0001-11.png,0001-00-0001-86.png
00000014,71,1,1448387463142,1448387463614,358,460,0,0,0,0,1,1,1,0001-00-0001-27.png,0005-00-0000-12.png
00000014,72,0,1448387464457,1448387464964,392,450,0,0,0,2,0,2,2,0003-00-0001-10.png,0001-00-0000-61.png
00000014,73,0,1448387471551,1448387471909,421,418,0,0,0,4,3,1,7,0004-00-0000-02.png,0002-00-0000-08.png
00000014,74,0,1448387475027,1448387475442,954,469,0,0,0,2,3,1,5,0003-00-0001-42.png,0002-00-0000-24.png
00000014,75,0,1448387483283,1448387485628,432,425,0,0,0,2,1,1,3,0003-00-0000-37.png,0005-00-0001-98.png
00000014,76,1,1448387489537,1448387489976,459,413,0,0,0,1,3,2,4,0005-00-0000-93.png,0002-00-0001-54.png
00000014,77,1,1448387490925,1448387491544,886,528,0,0,0,4,1,3,5,0004-00-0000-37.png,0005-00-0001-48.png
00000014,78,1,1448387492469,1448387492854,380,436,0,0,0,0,4,4,4,0001-00-0000-76.png,0004-00-0001-52.png
00000014,79,0,1448387493748,1448387494201,412,455,0,0,0,3,2,1,5,0002-00-0001-42.png,0003-00-0000-41.png
00000014,80,1,1448387497169,1448387497615,366,428,0,0,0,0,2,2,2,0001-00-0001-67.png,0003-00-0001-07.png
00000014,81,0,1448387498468,1448387499024,893,544,0,0,0,2,3,1,5,0003-00-0000-71.png,0002-00-0001-35.png
00000014,82,0,1448387502352,1448387502812,989,450,0,0,0,0,1,1,1,0001-00-0000-84.png,0005-00-0001-68.png
00000014,83,0,1448387505677,1448387506153,402,396,0,0,0,4,2,2,6,0004-00-0001-09.png,0003-00-0000-95.png
00000014,84,0,1448387509554,1448387510022,424,358,0,0,0,3,0,3,3,0002-00-0000-38.png,0001-00-0001-66.png
00000014,85,1,1448387513122,1448387513539,928,443,0,0,0,4,3,1,7,0004-00-0000-73.png,0002-00-0000-78.png
00000014,86,1,1448387514430,1448387514980,873,534,0,0,0,3,2,1,5,0002-00-0001-65.png,0003-00-0000-69.png
00000014,87,1,1448387515894,1448387516389,919,430,0,0,0,3,1,2,4,0002-00-0001-69.png,0005-00-0001-88.png
00000014,88,1,1448387517341,1448387517836,343,446,0,0,0,0,3,3,3,0001-00-0000-44.png,0002-00-0001-34.png
00000014,89,0,1448387518815,1448387519388,876,461,0,0,0,0,2,2,2,0001-00-0000-52.png,0003-00-0000-37.png
00000014,90,1,1448387524380,1448387524876,906,526,0,0,0,4,1,3,5,0004-00-0001-08.png,0005-00-0001-51.png
00000014,91,1,1448387525757,1448387526256,913,469,0,0,0,2,0,2,2,0003-00-0001-11.png,0001-00-0001-46.png
00000014,92,1,1448387527203,1448387527802,926,429,0,0,0,4,0,4,4,0004-00-0000-93.png,0001-00-0000-09.png
00000014,93,0,1448387528893,1448387529357,369,482,0,0,0,1,0,1,1,0005-00-0000-95.png,0001-00-0000-91.png
00000014,94,0,1448387532452,1448387532940,939,401,0,0,0,3,4,1,7,0002-00-0000-25.png,0004-00-0001-33.png
00000014,95,1,1448387536108,1448387536562,442,425,0,0,0,1,3,2,4,0005-00-0000-50.png,0002-00-0001-00.png
00000014,96,1,1448387537437,1448387537903,400,440,0,0,0,1,2,1,3,0005-00-0000-47.png,0003-00-0001-56.png
00000014,97,0,1448387538877,1448387539478,952,429,0,0,0,1,4,3,5,0005-00-0000-56.png,0004-00-0000-12.png
00000014,98,1,1448387542301,1448387542786,403,405,0,0,0,0,4,4,4,0001-00-0000-97.png,0004-00-0001-27.png
00000014,99,0,1448387543669,1448387544144,945,456,0,0,0,2,4,2,6,0003-00-0000-82.png,0004-00-0000-64.png
00000014,100,1,1448387560524,1448387561032,980,428,0,0,0,2,1,1,3,0003-00-0000-58.png,0005-00-0001-12.png
00000014,101,1,1448387561903,1448387562436,904,547,0,0,0,3,1,2,4,0002-00-0000-54.png,0005-00-0000-58.png
00000014,102,1,1448387563386,1448387564013,947,446,0,0,0,2,1,1,3,0003-00-0000-90.png,0005-00-0000-55.png
00000014,103,1,1448387564945,1448387565373,409,470,0,0,0,1,4,3,5,0005-00-0000-79.png,0004-00-0000-62.png
00000014,104,1,1448387566277,1448387566802,940,449,0,0,0,4,0,4,4,0004-00-0000-22.png,0001-00-0001-39.png
00000014,105,1,1448387567928,1448387568370,364,446,0,0,0,0,2,2,2,0001-00-0000-87.png,0003-00-0000-91.png
00000014,106,1,1448387569280,1448387569885,382,408,0,0,0,1,3,2,4,0005-00-0000-12.png,0002-00-0001-90.png
00000014,107,1,1448387570850,1448387571277,376,450,0,0,0,0,4,4,4,0001-00-0000-61.png,0004-00-0000-97.png
00000014,108,0,1448387572231,1448387572658,415,430,0,0,0,3,2,1,5,0002-00-0000-52.png,0003-00-0001-49.png
00000014,109,1,1448387576128,1448387576557,457,444,0,0,0,0,3,3,3,0001-00-0000-31.png,0002-00-0000-38.png
00000014,110,1,1448387577456,1448387578091,890,563,0,0,0,1,0,1,1,0005-00-0000-25.png,0001-00-0001-72.png
00000014,111,1,1448387578964,1448387579382,413,544,0,0,0,0,1,1,1,0001-00-0001-92.png,0005-00-0001-64.png
00000014,112,1,1448387580426,1448387580946,428,428,0,0,0,3,4,1,7,0002-00-0001-03.png,0004-00-0000-39.png
00000014,113,1,1448387581930,1448387582498,898,560,0,0,0,2,0,2,2,0003-00-0001-19.png,0001-00-0000-58.png
00000014,114,0,1448387583468,1448387584117,957,453,0,0,0,2,3,1,5,0003-00-0001-80.png,0002-00-0000-65.png
00000014,115,0,1448387588221,1448387588641,949,457,0,0,0,2,4,2,6,0003-00-0001-01.png,0004-00-0001-88.png
00000014,116,1,1448387591909,1448387592366,900,436,0,0,0,4,1,3,5,0004-00-0000-98.png,0005-00-0001-65.png
00000014,117,1,1448387593300,1448387593998,865,432,0,0,0,3,0,3,3,0002-00-0001-80.png,0001-00-0001-33.png
00000014,118,1,1448387594879,1448387595479,879,453,0,0,0,4,3,1,7,0004-00-0000-28.png,0002-00-0000-35.png
00000014,119,1,1448387596421,1448387596851,427,474,0,0,0,1,2,1,3,0005-00-0001-62.png,0003-00-0000-32.png
00000014,120,0,1448387597850,1448387598319,398,445,0,0,0,4,2,2,6,0004-00-0000-12.png,0003-00-0000-17.png
00000014,121,1,1448387601707,1448387602241,899,542,0,0,0,2,1,1,3,0003-00-0000-65.png,0005-00-0001-02.png
00000014,122,0,1448387603203,1448387603819,927,468,0,0,0,1,2,1,3,0005-00-0001-47.png,0003-00-0000-75.png
00000014,123,1,1448387606887,1448387607309,951,449,0,0,0,4,0,4,4,0004-00-0000-43.png,0001-00-0000-10.png
00000014,124,1,1448387608165,1448387608707,915,448,0,0,0,1,0,1,1,0005-00-0001-38.png,0001-00-0000-04.png
00000014,125,1,1448387609708,1448387610118,403,434,0,0,0,0,2,2,2,0001-00-0000-09.png,0003-00-0001-85.png
00000014,126,1,1448387611118,1448387611723,937,450,0,0,0,3,1,2,4,0002-00-0000-25.png,0005-00-0001-45.png
00000014,127,1,1448387612677,1448387613313,901,435,0,0,0,4,2,2,6,0004-00-0001-83.png,0003-00-0001-14.png
00000014,128,1,1448387614287,1448387614690,435,446,0,0,0,0,3,3,3,0001-00-0000-81.png,0002-00-0001-82.png
00000014,129,1,1448387615745,1448387616245,386,413,0,0,0,0,1,1,1,0001-00-0001-93.png,0005-00-0001-22.png
00000014,130,1,1448387617225,1448387617708,874,541,0,0,0,3,0,3,3,0002-00-0001-84.png,0001-00-0000-60.png
00000014,131,1,1448387618766,1448387619253,406,471,0,0,0,1,4,3,5,0005-00-0001-56.png,0004-00-0001-32.png
00000014,132,1,1448387620310,1448387620812,875,555,0,0,0,4,1,3,5,0004-00-0001-75.png,0005-00-0000-93.png
00000014,133,0,1448387621850,1448387622500,860,563,0,0,0,2,4,2,6,0003-00-0001-65.png,0004-00-0001-86.png
00000014,134,1,1448387626317,1448387626779,438,414,0,0,0,3,4,1,7,0002-00-0001-31.png,0004-00-0000-44.png
00000014,135,1,1448387627726,1448387628331,927,494,0,0,0,4,3,1,7,0004-00-0000-53.png,0002-00-0000-09.png
00000014,136,0,1448387629316,1448387629813,407,435,0,0,0,3,2,1,5,0002-00-0001-40.png,0003-00-0000-25.png
00000014,137,1,1448387632942,1448387633485,387,384,0,0,0,1,3,2,4,0005-00-0001-87.png,0002-00-0000-08.png
00000014,138,0,1448387634343,1448387634868,862,554,0,0,0,2,3,1,5,0003-00-0001-88.png,0002-00-0001-62.png
00000014,139,1,1448387637782,1448387638259,427,528,0,0,0,0,4,4,4,0001-00-0001-77.png,0004-00-0000-59.png
00000014,140,1,1448387639164,1448387639721,868,562,0,0,0,2,0,2,2,0003-00-0000-52.png,0001-00-0001-44.png
00000014,141,1,1448387640697,1448387641211,866,562,0,0,0,4,0,4,4,0004-00-0001-53.png,0001-00-0000-19.png
00000014,142,1,1448387642685,1448387643166,900,476,0,0,0,2,1,1,3,0003-00-0000-10.png,0005-00-0000-49.png
00000014,143,1,1448387644125,1448387644521,376,423,0,0,0,0,3,3,3,0001-00-0000-59.png,0002-00-0000-68.png
00000014,144,1,1448387645582,1448387646100,894,455,0,0,0,1,0,1,1,0005-00-0000-24.png,0001-00-0000-58.png
00000014,145,0,1448387647137,1448387647613,375,460,0,0,0,4,1,3,5,0004-00-0000-96.png,0005-00-0001-61.png
00000014,146,0,1448387650484,1448387651052,917,511,0,0,0,1,3,2,4,0005-00-0001-59.png,0002-00-0001-65.png
00000014,147,0,1448387653913,1448387654592,433,373,0,0,0,3,0,3,3,0002-00-0001-26.png,0001-00-0001-66.png
00000014,148,0,1448387657431,1448387658016,389,395,0,0,0,3,1,2,4,0002-00-0001-10.png,0005-00-0000-86.png
00000014,149,0,1448387660960,1448387661444,939,474,0,0,0,2,4,2,6,0003-00-0000-12.png,0004-00-0001-59.png
00000014,150,1,1448387664650,1448387665089,442,390,0,0,0,1,2,1,3,0005-00-0000-63.png,0003-00-0001-17.png
00000014,151,1,1448387666009,1448387666485,924,459,0,0,0,2,0,2,2,0003-00-0001-72.png,0001-00-0000-85.png
00000014,152,1,1448387667452,1448387667886,427,477,0,0,0,1,4,3,5,0005-00-0000-28.png,0004-00-0000-40.png
00000014,153,1,1448387668918,1448387669337,388,417,0,0,0,0,1,1,1,0001-00-0000-88.png,0005-00-0000-22.png
00000014,154,1,1448387670344,1448387670740,427,463,0,0,0,0,4,4,4,0001-00-0001-44.png,0004-00-0000-28.png
00000014,155,0,1448387671775,1448387672214,453,476,0,0,0,4,2,2,6,0004-00-0000-36.png,0003-00-0001-49.png
00000014,156,0,1448387675323,1448387675767,930,473,0,0,0,2,3,1,5,0003-00-0000-59.png,0002-00-0001-36.png
00000014,157,1,1448387678870,1448387679343,390,392,0,0,0,0,2,2,2,0001-00-0001-45.png,0003-00-0001-52.png
00000014,158,1,1448387680267,1448387680791,372,419,0,0,0,3,4,1,7,0002-00-0000-26.png,0004-00-0001-44.png
00000014,159,0,1448387681792,1448387682224,376,528,0,0,0,4,3,1,7,0004-00-0001-07.png,0002-00-0001-11.png
00000014,160,0,1448387685079,1448387685626,342,376,0,0,0,3,2,1,5,0002-00-0001-39.png,0003-00-0000-74.png
00000014,161,1,1448387688858,1448387689282,902,546,0,0,0,3,1,2,4,0002-00-0001-91.png,0005-00-0000-10.png
00000014,162,0,1448387690209,1448387690628,467,475,0,0,0,4,1,3,5,0004-00-0000-91.png,0005-00-0000-29.png
00000014,163,1,1448387694175,1448387694588,874,554,0,0,0,2,1,1,3,0003-00-0000-75.png,0005-00-0001-91.png
00000014,164,1,1448387695454,1448387695922,380,564,0,0,0,0,4,4,4,0001-00-0000-56.png,0004-00-0001-13.png
00000014,165,1,1448387696998,1448387697448,925,463,0,0,0,2,0,2,2,0003-00-0001-56.png,0001-00-0001-81.png
00000014,166,1,1448387698429,1448387698857,376,450,0,0,0,3,4,1,7,0002-00-0001-81.png,0004-00-0001-79.png
00000014,167,0,1448387699912,1448387700835,391,469,0,0,0,4,2,2,6,0004-00-0001-20.png,0003-00-0001-92.png
00000014,168,1,1448387703806,1448387704220,416,418,0,0,0,0,2,2,2,0001-00-0001-45.png,0003-00-0001-04.png
00000014,169,1,1448387705052,1448387705581,390,514,0,0,0,0,1,1,1,0001-00-0000-96.png,0005-00-0000-73.png
00000014,170,0,1448387706517,1448387707061,876,462,0,0,0,2,3,1,5,0003-00-0000-05.png,0002-00-0000-95.png
00000014,171,0,1448387709912,1448387710403,393,401,0,0,0,3,2,1,5,0002-00-0001-54.png,0003-00-0001-38.png
00000014,172,1,1448387713633,1448387714089,414,383,0,0,0,1,3,2,4,0005-00-0000-76.png,0002-00-0001-93.png
00000014,173,0,1448387715055,1448387715659,946,462,0,0,0,2,4,2,6,0003-00-0001-68.png,0004-00-0001-71.png
00000014,174,1,1448387718553,1448387718978,900,541,0,0,0,3,0,3,3,0002-00-0000-81.png,0001-00-0001-20.png
00000014,175,0,1448387719895,1448387720368,419,453,0,0,0,1,0,1,1,0005-00-0001-84.png,0001-00-0001-69.png
00000014,176,1,1448387723445,1448387724080,372,393,0,0,0,1,4,3,5,0005-00-0000-33.png,0004-00-0000-15.png
00000014,177,1,1448387724963,1448387725374,393,559,0,0,0,1,2,1,3,0005-00-0001-45.png,0003-00-0001-75.png
00000014,178,1,1448387726405,1448387726918,923,483,0,0,0,4,0,4,4,0004-00-0000-44.png,0001-00-0001-80.png
00000014,179,0,1448387727966,1448387728329,458,462,0,0,0,4,3,1,7,0004-00-0001-33.png,0002-00-0000-79.png
00000014,180,1,1448387731395,1448387731876,364,384,0,0,0,0,3,3,3,0001-00-0001-23.png,0002-00-0000-81.png
00000014,181,1,1448387732752,1448387733180,439,450,0,0,0,1,4,3,5,0005-00-0001-74.png,0004-00-0000-17.png
00000014,182,1,1448387734258,1448387734771,901,487,0,0,0,2,1,1,3,0003-00-0000-94.png,0005-00-0000-84.png
00000014,183,1,1448387735776,1448387736198,413,434,0,0,0,1,2,1,3,0005-00-0001-16.png,0003-00-0000-63.png
00000014,184,0,1448387737217,1448387737744,419,438,0,0,0,4,2,2,6,0004-00-0001-48.png,0003-00-0001-71.png
00000014,185,1,1448387740945,1448387741347,930,428,0,0,0,3,1,2,4,0002-00-0001-49.png,0005-00-0000-22.png
00000014,186,1,1448387742245,1448387742708,398,474,0,0,0,1,3,2,4,0005-00-0000-40.png,0002-00-0000-14.png
00000014,187,1,1448387743696,1448387744095,420,453,0,0,0,0,2,2,2,0001-00-0000-78.png,0003-00-0000-84.png
00000014,188,0,1448387745127,1448387745661,328,409,0,0,0,1,0,1,1,0005-00-0000-08.png,0001-00-0000-54.png
00000014,189,1,1448387748523,1448387748991,358,393,0,0,0,0,4,4,4,0001-00-0000-23.png,0004-00-0001-09.png
00000014,190,0,1448387750058,1448387750470,378,401,0,0,0,3,2,1,5,0002-00-0001-21.png,0003-00-0001-26.png
00000014,191,0,1448387753555,1448387754070,939,449,0,0,0,2,3,1,5,0003-00-0001-59.png,0002-00-0000-73.png
00000014,192,1,1448387756914,1448387757420,390,354,0,0,0,3,4,1,7,0002-00-0000-66.png,0004-00-0001-14.png
00000014,193,1,1448387758401,1448387758845,900,449,0,0,0,4,0,4,4,0004-00-0000-33.png,0001-00-0000-56.png
00000014,194,1,1448387759877,1448387760418,900,489,0,0,0,3,0,3,3,0002-00-0000-06.png,0001-00-0001-64.png
00000014,195,1,1448387761395,1448387761779,407,444,0,0,0,0,1,1,1,0001-00-0000-35.png,0005-00-0000-17.png
00000014,196,0,1448387762858,1448387763401,874,475,0,0,0,2,4,2,6,0003-00-0001-88.png,0004-00-0001-84.png
00000014,197,1,1448387766247,1448387766739,925,437,0,0,0,2,0,2,2,0003-00-0001-41.png,0001-00-0001-63.png
00000014,198,1,1448387767649,1448387768080,453,448,0,0,0,0,3,3,3,0001-00-0000-97.png,0002-00-0000-89.png
00000014,199,1,1448387769100,1448387769881,913,398,0,0,0,4,3,1,7,0004-00-0001-88.png,0002-00-0000-63.png
00000014,200,1,1448387770917,1448387771420,870,472,0,0,0,4,1,3,5,0004-00-0001-09.png,0005-00-0001-76.png
00000014,201,1,1448387772388,1448387772917,900,462,0,0,0,4,0,4,4,0004-00-0000-03.png,0001-00-0000-15.png
00000014,202,1,1448387773925,1448387774483,894,455,0,0,0,3,0,3,3,0002-00-0001-56.png,0001-00-0001-41.png
00000014,203,1,1448387775490,1448387775877,410,442,0,0,0,1,2,1,3,0005-00-0000-22.png,0003-00-0001-78.png
00000014,204,0,1448387776870,1448387777427,432,565,0,0,0,1,0,1,1,0005-00-0001-93.png,0001-00-0000-64.png
00000014,205,1,1448387781889,1448387782312,384,428,0,0,0,0,2,2,2,0001-00-0000-61.png,0003-00-0001-06.png
00000014,206,1,1448387783209,1448387783708,879,462,0,0,0,2,1,1,3,0003-00-0000-63.png,0005-00-0001-54.png
00000014,207,1,1448387784697,1448387785111,427,462,0,0,0,2,3,1,5,0003-00-0001-04.png,0002-00-0001-34.png
00000014,208,1,1448387786148,1448387786595,388,419,0,0,0,0,1,1,1,0001-00-0001-55.png,0005-00-0001-82.png
00000014,209,0,1448387787563,1448387788204,905,453,0,0,0,3,4,1,7,0002-00-0000-31.png,0004-00-0000-85.png
00000014,210,0,1448387791340,1448387791789,940,491,0,0,0,0,4,4,4,0001-00-0001-85.png,0004-00-0001-07.png
00000014,211,1,1448387796021,1448387796486,308,417,0,0,0,0,3,3,3,0001-00-0000-22.png,0002-00-0000-08.png
00000014,212,0,1448387797371,1448387797951,875,410,0,0,0,1,4,3,5,0005-00-0001-79.png,0004-00-0000-22.png
00000014,213,0,1448387801218,1448387801683,899,554,0,0,0,2,4,2,6,0003-00-0000-80.png,0004-00-0001-89.png
00000014,214,0,1448387804547,1448387804976,417,492,0,0,0,3,2,1,5,0002-00-0001-48.png,0003-00-0001-65.png
00000014,215,1,1448387807927,1448387808423,898,435,0,0,0,2,0,2,2,0003-00-0000-31.png,0001-00-0000-01.png
00000014,216,1,1448387809347,1448387809779,401,476,0,0,0,1,3,2,4,0005-00-0000-77.png,0002-00-0001-22.png
00000014,217,1,1448387810769,1448387811317,901,476,0,0,0,4,3,1,7,0004-00-0001-74.png,0002-00-0001-36.png
00000014,218,0,1448387812299,1448387812678,513,485,0,0,0,4,2,2,6,0004-00-0001-50.png,0003-00-0000-26.png
00000014,219,0,1448387815608,1448387816367,417,495,0,0,0,4,1,3,5,0004-00-0000-37.png,0005-00-0001-08.png
00000014,220,1,1448387820134,1448387820566,952,449,0,0,0,3,1,2,4,0002-00-0000-64.png,0005-00-0001-44.png
00000014,221,1,1448387821462,1448387821867,350,404,0,0,0,0,3,3,3,0001-00-0001-12.png,0002-00-0001-08.png
00000014,222,0,1448387822814,1448387823352,903,468,0,0,0,2,4,2,6,0003-00-0001-48.png,0004-00-0001-10.png
00000014,223,1,1448387826264,1448387826778,370,415,0,0,0,1,4,3,5,0005-00-0001-43.png,0004-00-0000-37.png
00000014,224,0,1448387827729,1448387828205,898,543,0,0,0,2,3,1,5,0003-00-0001-40.png,0002-00-0000-78.png
00000014,225,1,1448387831091,1448387831444,382,385,0,0,0,0,4,4,4,0001-00-0000-04.png,0004-00-0001-53.png
00000014,226,1,1448387832344,1448387832979,900,489,0,0,0,4,3,1,7,0004-00-0000-48.png,0002-00-0001-55.png
00000014,227,1,1448387833909,1448387834336,408,469,0,0,0,0,1,1,1,0001-00-0001-58.png,0005-00-0001-99.png
00000014,228,1,1448387835282,1448387835791,924,482,0,0,0,1,0,1,1,0005-00-0000-04.png,0001-00-0000-15.png
00000014,229,1,1448387836716,1448387837101,466,476,0,0,0,3,4,1,7,0002-00-0001-07.png,0004-00-0000-89.png
00000014,230,1,1448387838028,1448387838465,427,434,0,0,0,1,3,2,4,0005-00-0000-83.png,0002-00-0001-03.png
00000014,231,1,1448387839461,1448387839961,894,455,0,0,0,3,1,2,4,0002-00-0000-24.png,0005-00-0000-33.png
00000014,232,0,1448387840941,1448387841383,380,436,0,0,0,4,1,3,5,0004-00-0001-96.png,0005-00-0000-14.png
00000014,233,1,1448387845442,1448387845921,950,458,0,0,0,2,1,1,3,0003-00-0000-36.png,0005-00-0001-80.png
00000014,234,1,1448387846771,1448387847288,924,456,0,0,0,3,0,3,3,0002-00-0001-94.png,0001-00-0000-40.png
00000014,235,0,1448387848280,1448387849009,925,475,0,0,0,1,2,1,3,0005-00-0000-59.png,0003-00-0001-28.png
00000014,236,1,1448387852845,1448387853313,963,476,0,0,0,3,2,1,5,0002-00-0000-30.png,0003-00-0000-69.png
00000014,237,1,1448387854276,1448387854789,876,546,0,0,0,4,0,4,4,0004-00-0000-25.png,0001-00-0001-74.png
00000014,238,1,1448387855743,1448387856209,426,488,0,0,0,0,2,2,2,0001-00-0000-74.png,0003-00-0000-49.png
00000014,239,1,1448387857218,1448387857673,914,473,0,0,0,2,0,2,2,0003-00-0001-44.png,0001-00-0001-67.png
00000014,240,0,1448387858675,1448387859093,325,436,0,0,0,4,2,2,6,0004-00-0001-46.png,0003-00-0001-87.png
00000014,241,0,1448387862278,1448387862681,926,462,0,0,0,1,4,3,5,0005-00-0001-09.png,0004-00-0001-73.png
00000014,242,1,1448387865776,1448387866201,879,427,0,0,0,4,1,3,5,0004-00-0001-10.png,0005-00-0001-69.png
00000014,243,1,1448387867182,1448387867657,875,528,0,0,0,2,0,2,2,0003-00-0001-11.png,0001-00-0001-56.png
00000014,244,1,1448387868604,1448387869008,419,453,0,0,0,1,2,1,3,0005-00-0000-00.png,0003-00-0001-60.png
00000014,245,1,1448387869977,1448387870500,862,450,0,0,0,4,3,1,7,0004-00-0000-86.png,0002-00-0001-36.png
00000014,246,1,1448387871588,1448387872105,900,461,0,0,0,4,0,4,4,0004-00-0000-23.png,0001-00-0000-66.png
00000014,247,1,1448387873123,1448387873664,896,472,0,0,0,2,1,1,3,0003-00-0000-84.png,0005-00-0001-66.png
00000014,248,0,1448387874675,1448387875158,368,402,0,0,0,1,0,1,1,0005-00-0000-52.png,0001-00-0000-54.png
00000014,249,0,1448387878167,1448387878911,453,384,0,0,0,4,2,2,6,0004-00-0001-32.png,0003-00-0000-18.png
00000014,250,0,1448387882134,1448387882600,445,472,0,0,0,3,2,1,5,0002-00-0001-59.png,0003-00-0001-84.png
00000014,251,1,1448387885651,1448387886101,401,540,0,0,0,0,4,4,4,0001-00-0000-24.png,0004-00-0000-24.png
00000014,252,1,1448387887042,1448387887564,907,474,0,0,0,3,1,2,4,0002-00-0000-86.png,0005-00-0001-75.png
00000014,253,1,1448387888572,1448387888983,427,462,0,0,0,0,3,3,3,0001-00-0001-99.png,0002-00-0001-83.png
00000014,254,1,1448387890054,1448387890547,401,436,0,0,0,3,4,1,7,0002-00-0000-32.png,0004-00-0000-32.png
00000014,255,0,1448387891523,1448387892097,913,450,0,0,0,2,3,1,5,0003-00-0000-19.png,0002-00-0001-36.png
00000014,256,1,1448387894981,1448387895395,376,384,0,0,0,0,2,2,2,0001-00-0000-41.png,0003-00-0001-17.png
00000014,257,0,1448387896503,1448387897032,901,487,0,0,0,2,4,2,6,0003-00-0001-83.png,0004-00-0000-23.png
00000014,258,0,1448387899870,1448387900344,393,403,0,0,0,3,0,3,3,0002-00-0000-00.png,0001-00-0000-32.png
00000014,259,0,1448387903768,1448387904216,873,460,0,0,0,1,3,2,4,0005-00-0000-59.png,0002-00-0001-25.png
00000014,260,1,1448387907345,1448387907814,391,361,0,0,0,0,1,1,1,0001-00-0000-08.png,0005-00-0000-89.png
00000014,261,1,1448387908776,1448387909168,406,466,0,0,0,3,4,1,7,0002-00-0001-14.png,0004-00-0001-14.png
00000014,262,1,1448387910132,1448387910513,402,464,0,0,0,0,1,1,1,0001-00-0001-92.png,0005-00-0001-51.png
00000014,263,1,1448387911531,1448387912066,923,483,0,0,0,4,0,4,4,0004-00-0000-21.png,0001-00-0001-68.png
00000014,264,0,1448387913008,1448387913424,413,450,0,0,0,4,3,1,7,0004-00-0000-75.png,0002-00-0000-79.png
00000014,265,1,1448387916450,1448387916873,877,546,0,0,0,1,0,1,1,0005-00-0001-44.png,0001-00-0001-35.png
00000014,266,1,1448387917798,1448387918372,900,438,0,0,0,4,1,3,5,0004-00-0001-27.png,0005-00-0000-46.png
00000014,267,0,1448387919343,1448387919869,907,474,0,0,0,1,3,2,4,0005-00-0001-94.png,0002-00-0000-23.png
00000014,268,0,1448387922959,1448387923451,464,464,0,0,0,4,2,2,6,0004-00-0000-65.png,0003-00-0000-49.png
00000014,269,1,1448387927483,1448387927942,443,522,0,0,0,0,3,3,3,0001-00-0000-27.png,0002-00-0000-79.png
00000014,270,1,1448387928972,1448387929486,925,449,0,0,0,2,0,2,2,0003-00-0001-31.png,0001-00-0001-83.png
00000014,271,0,1448387930465,1448387930980,880,452,0,0,0,2,3,1,5,0003-00-0001-85.png,0002-00-0000-17.png
00000014,272,1,1448387933901,1448387934334,927,450,0,0,0,3,0,3,3,0002-00-0000-37.png,0001-00-0000-67.png
00000014,273,1,1448387935254,1448387935658,350,429,0,0,0,0,4,4,4,0001-00-0000-81.png,0004-00-0001-43.png
00000014,274,1,1448387936675,1448387937067,438,475,0,0,0,1,4,3,5,0005-00-0001-16.png,0004-00-0000-69.png
00000014,275,1,1448387938127,1448387938534,399,551,0,0,0,1,2,1,3,0005-00-0000-18.png,0003-00-0001-78.png
00000014,276,1,1448387939496,1448387940010,901,487,0,0,0,2,1,1,3,0003-00-0001-03.png,0005-00-0000-01.png
00000014,277,1,1448387941048,1448387941614,899,448,0,0,0,3,2,1,5,0002-00-0000-83.png,0003-00-0000-83.png
00000014,278,1,1448387942628,1448387943030,369,435,0,0,0,0,2,2,2,0001-00-0000-87.png,0003-00-0001-45.png
00000014,279,0,1448387944009,1448387944790,949,507,0,0,0,2,4,2,6,0003-00-0001-22.png,0004-00-0001-48.png
00000014,280,1,1448387948188,1448387948603,956,506,0,0,0,3,1,2,4,0002-00-0000-21.png,0005-00-0001-96.png
00000014,281,1,1448387949544,1448387949956,350,474,0,0,0,1,2,1,3,0005-00-0001-87.png,0003-00-0001-94.png
00000014,282,1,1448387950954,1448387951357,346,439,0,0,0,0,2,2,2,0001-00-0001-27.png,0003-00-0000-68.png
00000014,283,1,1448387952346,1448387952756,371,541,0,0,0,0,4,4,4,0001-00-0000-29.png,0004-00-0001-19.png
00000014,284,1,1448387953784,1448387954159,409,468,0,0,0,0,1,1,1,0001-00-0000-81.png,0005-00-0001-06.png
00000014,285,1,1448387955149,1448387955771,932,474,0,0,0,4,0,4,4,0004-00-0000-02.png,0001-00-0000-84.png
00000014,286,1,1448387956759,1448387957260,902,469,0,0,0,2,1,1,3,0003-00-0001-93.png,0005-00-0000-17.png
00000014,287,1,1448387958259,1448387958666,368,453,0,0,0,1,3,2,4,0005-00-0000-84.png,0002-00-0001-30.png
00000014,288,0,1448387959629,1448387960078,371,436,0,0,0,4,3,1,7,0004-00-0001-95.png,0002-00-0000-54.png
00000014,289,1,1448387963179,1448387963623,929,465,0,0,0,1,0,1,1,0005-00-0000-89.png,0001-00-0000-74.png
00000014,290,0,1448387964579,1448387965096,900,502,0,0,0,1,4,3,5,0005-00-0001-94.png,0004-00-0000-96.png
00000014,291,1,1448387968005,1448387968413,388,526,0,0,0,0,3,3,3,0001-00-0000-40.png,0002-00-0001-43.png
00000014,292,0,1448387969298,1448387969884,408,527,0,0,0,3,2,1,5,0002-00-0001-78.png,0003-00-0000-92.png
00000014,293,1,1448387972742,1448387973122,449,493,0,0,0,2,4,2,6,0003-00-0001-94.png,0004-00-0001-84.png
00000014,294,0,1448387974170,1448387974643,925,482,0,0,0,2,3,1,5,0003-00-0001-02.png,0002-00-0000-92.png
00000014,295,0,1448387977700,1448387977744,503,439,0,0,0,4,1,3,5,0004-00-0000-94.png,0005-00-0001-24.png
00000014,296,1,1448387980870,1448387981294,952,468,0,0,0,4,2,2,6,0004-00-0001-21.png,0003-00-0000-62.png
00000014,297,1,1448387982229,1448387982785,341,403,0,0,0,3,4,1,7,0002-00-0000-51.png,0004-00-0000-52.png
00000014,298,1,1448387983770,1448387984307,900,476,0,0,0,3,1,2,4,0002-00-0001-53.png,0005-00-0000-61.png
00000014,299,1,1448387985321,1448387985855,905,479,0,0,0,2,0,2,2,0003-00-0001-81.png,0001-00-0001-98.png
00000014,300,1,1448387986820,1448387987385,898,496,0,0,0,3,0,3,3,0002-00-0000-67.png,0001-00-0000-77.png
00000014,301,1,1448387988302,1448387988886,898,458,0,0,0,2,0,2,2,0003-00-0000-47.png,0001-00-0000-02.png
00000014,302,0,1448387989911,1448387990438,889,501,0,0,0,2,3,1,5,0003-00-0001-06.png,0002-00-0001-58.png
00000014,303,1,1448387993287,1448387993734,421,423,0,0,0,1,2,1,3,0005-00-0000-19.png,0003-00-0001-23.png
00000014,304,0,1448387994803,1448387995356,950,481,0,0,0,3,4,1,7,0002-00-0000-75.png,0004-00-0001-27.png
00000014,305,1,1448387998362,1448387998901,403,381,0,0,0,1,3,2,4,0005-00-0000-13.png,0002-00-0001-99.png
00000014,306,1,1448387999907,1448388000312,427,475,0,0,0,0,3,3,3,0001-00-0001-19.png,0002-00-0000-89.png
00000014,307,1,1448388001347,1448388001839,901,487,0,0,0,4,1,3,5,0004-00-0001-75.png,0005-00-0001-55.png
00000014,308,1,1448388002798,1448388003332,898,484,0,0,0,4,0,4,4,0004-00-0000-86.png,0001-00-0001-24.png
00000014,309,0,1448388004288,1448388004741,376,451,0,0,0,4,3,1,7,0004-00-0001-78.png,0002-00-0001-41.png
00000014,310,1,1448388008133,1448388008554,948,446,0,0,0,3,0,3,3,0002-00-0000-08.png,0001-00-0001-02.png
00000014,311,1,1448388009730,1448388010328,926,502,0,0,0,1,0,1,1,0005-00-0001-63.png,0001-00-0001-49.png
00000014,312,0,1448388011241,1448388011764,862,436,0,0,0,2,4,2,6,0003-00-0001-56.png,0004-00-0000-55.png
00000014,313,1,1448388014698,1448388015114,427,423,0,0,0,0,2,2,2,0001-00-0001-74.png,0003-00-0001-54.png
00000014,314,1,1448388016049,1448388016573,925,482,0,0,0,3,1,2,4,0002-00-0000-78.png,0005-00-0001-15.png
00000014,315,1,1448388017597,1448388018034,401,436,0,0,0,1,4,3,5,0005-00-0001-89.png,0004-00-0001-45.png
00000014,316,1,1448388018991,1448388019402,409,446,0,0,0,0,4,4,4,0001-00-0000-86.png,0004-00-0000-20.png
00000014,317,0,1448388020472,1448388020900,382,479,0,0,0,3,2,1,5,0002-00-0001-14.png,0003-00-0001-29.png
00000014,318,0,1448388023870,1448388024331,926,464,0,0,0,0,1,1,1,0001-00-0001-83.png,0005-00-0001-78.png
00000014,319,0,1448388027176,1448388027621,402,385,0,0,0,4,2,2,6,0004-00-0000-71.png,0003-00-0001-56.png
00000014,320,1,1448388030737,1448388031140,888,541,0,0,0,2,1,1,3,0003-00-0000-40.png,0005-00-0000-14.png
00000014,321,1,1448388032067,1448388032593,886,561,0,0,0,4,0,4,4,0004-00-0001-34.png,0001-00-0001-40.png
00000014,322,1,1448388033597,1448388033996,409,467,0,0,0,1,2,1,3,0005-00-0001-76.png,0003-00-0000-71.png
00000014,323,1,1448388035012,1448388035482,861,476,0,0,0,3,0,3,3,0002-00-0000-77.png,0001-00-0000-22.png
00000014,324,0,1448388036531,1448388037080,913,462,0,0,0,3,4,1,7,0002-00-0001-10.png,0004-00-0001-47.png
00000014,325,1,1448388041442,1448388041955,427,409,0,0,0,1,3,2,4,0005-00-0001-84.png,0002-00-0000-08.png
00000014,326,1,1448388042883,1448388043368,934,474,0,0,0,2,0,2,2,0003-00-0000-09.png,0001-00-0001-01.png
00000014,327,1,1448388044305,1448388044757,371,488,0,0,0,2,4,2,6,0003-00-0001-12.png,0004-00-0001-95.png
00000014,328,0,1448388045674,1448388046169,431,541,0,0,0,1,0,1,1,0005-00-0001-65.png,0001-00-0000-23.png
00000014,329,1,1448388049297,1448388049746,423,445,0,0,0,1,4,3,5,0005-00-0001-57.png,0004-00-0000-49.png
00000014,330,1,1448388050902,1448388051452,887,450,0,0,0,4,2,2,6,0004-00-0000-74.png,0003-00-0000-49.png
00000014,331,0,1448388052472,1448388052869,375,477,0,0,0,2,1,1,3,0003-00-0001-36.png,0005-00-0000-64.png
00000014,332,1,1448388056261,1448388056777,422,409,0,0,0,0,1,1,1,0001-00-0000-42.png,0005-00-0000-58.png
00000014,333,1,1448388057891,1448388058475,923,481,0,0,0,3,1,2,4,0002-00-0000-47.png,0005-00-0000-76.png
00000014,334,1,1448388059411,1448388059783,411,432,0,0,0,0,3,3,3,0001-00-0000-60.png,0002-00-0000-93.png
00000014,335,1,1448388060881,1448388061405,922,482,0,0,0,4,3,1,7,0004-00-0001-44.png,0002-00-0000-46.png
00000014,336,1,1448388062430,1448388062811,444,453,0,0,0,0,4,4,4,0001-00-0001-62.png,0004-00-0000-48.png
00000014,337,1,1448388063832,1448388064477,938,476,0,0,0,4,1,3,5,0004-00-0001-33.png,0005-00-0001-34.png
00000014,338,1,1448388065538,1448388066125,861,500,0,0,0,3,2,1,5,0002-00-0000-34.png,0003-00-0000-88.png
00000014,339,1,1448388067091,1448388067514,359,444,0,0,0,0,2,2,2,0001-00-0001-47.png,0003-00-0000-40.png
00000014,340,1,1448388068553,1448388068997,445,453,0,0,0,2,3,1,5,0003-00-0001-55.png,0002-00-0001-63.png
00000014,341,0,1448388070031,1448388070531,453,540,0,0,0,4,3,1,7,0004-00-0001-70.png,0002-00-0001-89.png
00000014,342,1,1448388073581,1448388074023,897,434,0,0,0,4,0,4,4,0004-00-0000-19.png,0001-00-0001-63.png
00000014,343,1,1448388075001,1448388075383,316,428,0,0,0,0,2,2,2,0001-00-0001-12.png,0003-00-0001-46.png
00000014,344,1,1448388076393,1448388076933,905,505,0,0,0,2,0,2,2,0003-00-0000-96.png,0001-00-0001-70.png
00000014,345,1,1448388077954,1448388078531,918,486,0,0,0,3,0,3,3,0002-00-0001-92.png,0001-00-0000-57.png
00000014,346,0,1448388079533,1448388080015,442,422,0,0,0,3,2,1,5,0002-00-0000-21.png,0003-00-0000-52.png
00000014,347,1,1448388083280,1448388083684,879,427,0,0,0,3,1,2,4,0002-00-0000-30.png,0005-00-0000-62.png
00000014,348,1,1448388084661,1448388085079,380,454,0,0,0,0,4,4,4,0001-00-0001-73.png,0004-00-0000-99.png
00000014,349,1,1448388086109,1448388087156,888,448,0,0,0,4,2,2,6,0004-00-0000-73.png,0003-00-0001-94.png
00000014,350,1,1448388088614,1448388089067,414,448,0,0,0,0,3,3,3,0001-00-0000-18.png,0002-00-0001-49.png
00000014,351,1,1448388090057,1448388090470,379,438,0,0,0,1,4,3,5,0005-00-0001-66.png,0004-00-0000-74.png
00000014,352,1,1448388091450,1448388091921,872,458,0,0,0,4,1,3,5,0004-00-0001-23.png,0005-00-0000-49.png
00000014,353,1,1448388092949,1448388093383,433,446,0,0,0,1,2,1,3,0005-00-0000-18.png,0003-00-0000-63.png
00000014,354,1,1448388094337,1448388094855,886,476,0,0,0,2,1,1,3,0003-00-0000-78.png,0005-00-0001-60.png
00000014,355,0,1448388095850,1448388096388,898,485,0,0,0,3,4,1,7,0002-00-0000-24.png,0004-00-0000-12.png
00000014,356,1,1448388099385,1448388099799,365,384,0,0,0,0,1,1,1,0001-00-0000-46.png,0005-00-0001-24.png
00000014,357,0,1448388100760,1448388101237,901,476,0,0,0,2,4,2,6,0003-00-0001-12.png,0004-00-0000-20.png
00000014,358,1,1448388104552,1448388104928,948,497,0,0,0,1,0,1,1,0005-00-0001-56.png,0001-00-0000-56.png
00000014,359,1,1448388106167,1448388106552,413,450,0,0,0,1,3,2,4,0005-00-0000-35.png,0002-00-0000-06.png
00000014,360,0,1448388107665,1448388108164,875,502,0,0,0,2,3,1,5,0003-00-0001-40.png,0002-00-0000-86.png
00000014,361,1,1448388111105,1448388111507,920,483,0,0,0,4,0,4,4,0004-00-0000-20.png,0001-00-0000-39.png
00000014,362,1,1448388112470,1448388112886,395,462,0,0,0,1,2,1,3,0005-00-0000-85.png,0003-00-0001-15.png
00000014,363,0,1448388113859,1448388114416,899,484,0,0,0,2,4,2,6,0003-00-0000-42.png,0004-00-0000-60.png
00000014,364,1,1448388117476,1448388117941,933,482,0,0,0,4,3,1,7,0004-00-0000-04.png,0002-00-0000-74.png
00000014,365,1,1448388118991,1448388119471,901,475,0,0,0,3,0,3,3,0002-00-0000-94.png,0001-00-0001-13.png
00000014,366,1,1448388120455,1448388120868,396,537,0,0,0,0,2,2,2,0001-00-0001-34.png,0003-00-0001-93.png
00000014,367,1,1448388121939,1448388122497,898,510,0,0,0,4,1,3,5,0004-00-0000-09.png,0005-00-0000-97.png
00000014,368,1,1448388123509,1448388123871,481,480,0,0,0,3,4,1,7,0002-00-0001-99.png,0004-00-0000-38.png
00000014,369,1,1448388124965,1448388125448,924,484,0,0,0,2,1,1,3,0003-00-0000-95.png,0005-00-0001-53.png
00000014,370,1,1448388126460,1448388126852,423,446,0,0,0,1,4,3,5,0005-00-0000-41.png,0004-00-0000-02.png
00000014,371,1,1448388127882,1448388128261,427,464,0,0,0,0,1,1,1,0001-00-0001-42.png,0005-00-0000-86.png
00000014,372,1,1448388129322,1448388129884,915,500,0,0,0,4,2,2,6,0004-00-0001-10.png,0003-00-0001-45.png
00000014,373,0,1448388130861,1448388131434,892,490,0,0,0,1,3,2,4,0005-00-0001-81.png,0002-00-0000-94.png
00000014,374,0,1448388134460,1448388134915,930,506,0,0,0,2,3,1,5,0003-00-0001-90.png,0002-00-0000-74.png
00000014,375,1,1448388137827,1448388138270,421,437,0,0,0,0,3,3,3,0001-00-0001-56.png,0002-00-0001-64.png
00000014,376,1,1448388139269,1448388139740,924,483,0,0,0,2,0,2,2,0003-00-0000-19.png,0001-00-0000-62.png
00000014,377,1,1448388140761,1448388141815,899,542,0,0,0,3,1,2,4,0002-00-0000-93.png,0005-00-0001-41.png
00000014,378,1,1448388142807,1448388143739,940,475,0,0,0,1,0,1,1,0005-00-0000-22.png,0001-00-0001-20.png
00000014,379,1,1448388144691,1448388145083,414,450,0,0,0,0,4,4,4,0001-00-0001-91.png,0004-00-0000-25.png
00000014,380,1,1448388146086,1448388146735,924,483,0,0,0,3,2,1,5,0002-00-0001-21.png,0003-00-0001-00.png
00000014,381,1,1448388147707,1448388148223,900,464,0,0,0,4,3,1,7,0004-00-0000-15.png,0002-00-0000-61.png
00000014,382,1,1448388149273,1448388149789,901,476,0,0,0,4,1,3,5,0004-00-0001-74.png,0005-00-0001-70.png
00000014,383,1,1448388150807,1448388151341,902,495,0,0,0,4,2,2,6,0004-00-0001-20.png,0003-00-0001-13.png
00000014,384,1,1448388152358,1448388152870,890,484,0,0,0,2,1,1,3,0003-00-0000-81.png,0005-00-0001-52.png
00000014,385,1,1448388153899,1448388154290,436,457,0,0,0,0,3,3,3,0001-00-0001-67.png,0002-00-0000-16.png
00000014,386,0,1448388155360,1448388155787,453,476,0,0,0,3,2,1,5,0002-00-0001-05.png,0003-00-0000-82.png
00000014,387,1,1448388158632,1448388159142,419,412,0,0,0,0,2,2,2,0001-00-0000-99.png,0003-00-0000-84.png
00000014,388,1,1448388160226,1448388160705,922,472,0,0,0,3,0,3,3,0002-00-0001-47.png,0001-00-0000-22.png
00000014,389,0,1448388161979,1448388162501,925,501,0,0,0,0,4,4,4,0001-00-0001-25.png,0004-00-0000-74.png
00000014,390,1,1448388165706,1448388166106,418,446,0,0,0,1,2,1,3,0005-00-0000-07.png,0003-00-0000-90.png
00000014,391,0,1448388167111,1448388167694,939,475,0,0,0,2,4,2,6,0003-00-0001-79.png,0004-00-0001-34.png
00000014,392,1,1448388170873,1448388171328,960,473,0,0,0,2,0,2,2,0003-00-0000-51.png,0001-00-0001-38.png
00000014,393,0,1448388172543,1448388173011,941,493,0,0,0,2,3,1,5,0003-00-0001-85.png,0002-00-0001-67.png
00000014,394,1,1448388175982,1448388176443,941,498,0,0,0,3,1,2,4,0002-00-0001-78.png,0005-00-0001-70.png
00000014,395,1,1448388177472,1448388177987,924,482,0,0,0,4,0,4,4,0004-00-0001-37.png,0001-00-0001-00.png
00000014,396,1,1448388179024,1448388179377,462,475,0,0,0,1,3,2,4,0005-00-0001-22.png,0002-00-0000-84.png
00000014,397,1,1448388180464,1448388180900,369,479,0,0,0,0,1,1,1,0001-00-0000-72.png,0005-00-0000-82.png
00000014,398,1,1448388181861,1448388182337,441,477,0,0,0,1,4,3,5,0005-00-0000-20.png,0004-00-0000-89.png
00000014,399,1,1448388183385,1448388183921,913,488,0,0,0,1,0,1,1,0005-00-0001-98.png,0001-00-0000-43.png
00000014,400,1,1448388184977,1448388185387,452,489,0,0,0,3,4,1,7,0002-00-0001-32.png,0004-00-0000-13.png
00000014,401,1,1448388186438,1448388186983,886,503,0,0,0,3,1,2,4,0002-00-0000-41.png,0005-00-0000-80.png
00000014,402,0,1448388188028,1448388188543,900,490,0,0,0,2,4,2,6,0003-00-0000-33.png,0004-00-0001-15.png
00000014,403,0,1448388191914,1448388192362,414,396,0,0,0,4,1,3,5,0004-00-0001-25.png,0005-00-0000-65.png
00000014,404,1,1448388195708,1448388196154,974,496,0,0,0,2,1,1,3,0003-00-0000-77.png,0005-00-0001-86.png
00000014,405,1,1448388197480,1448388197944,947,498,0,0,0,4,3,1,7,0004-00-0000-38.png,0002-00-0000-14.png
00000014,406,0,1448388198947,1448388199480,440,546,0,0,0,4,2,2,6,0004-00-0001-16.png,0003-00-0001-46.png
00000014,407,1,1448388202877,1448388203327,959,488,0,0,0,2,0,2,2,0003-00-0000-66.png,0001-00-0001-72.png
00000014,408,1,1448388204394,1448388204821,413,467,0,0,0,1,4,3,5,0005-00-0001-36.png,0004-00-0000-95.png
00000014,409,0,1448388205858,1448388206382,900,490,0,0,0,0,4,4,4,0001-00-0001-54.png,0004-00-0000-29.png
00000014,410,0,1448388209795,1448388210752,913,436,0,0,0,3,4,1,7,0002-00-0000-14.png,0004-00-0000-75.png
00000014,411,1,1448388214146,1448388214558,940,397,0,0,0,3,0,3,3,0002-00-0000-75.png,0001-00-0000-16.png
00000014,412,0,1448388215577,1448388216048,925,462,0,0,0,1,3,2,4,0005-00-0001-45.png,0002-00-0000-12.png
00000014,413,1,1448388219433,1448388219832,488,406,0,0,0,0,1,1,1,0001-00-0001-39.png,0005-00-0000-66.png
00000014,414,1,1448388220694,1448388221130,338,423,0,0,0,0,2,2,2,0001-00-0001-01.png,0003-00-0000-64.png
00000014,415,1,1448388222217,1448388222758,907,474,0,0,0,4,0,4,4,0004-00-0000-87.png,0001-00-0000-26.png
00000014,416,0,1448388223799,1448388224352,900,490,0,0,0,2,3,1,5,0003-00-0000-04.png,0002-00-0001-27.png
00000014,417,0,1448388227212,1448388227730,408,410,0,0,0,1,0,1,1,0005-00-0000-14.png,0001-00-0000-48.png
00000014,418,1,1448388230931,1448388231391,364,398,0,0,0,0,3,3,3,0001-00-0000-37.png,0002-00-0001-64.png
00000014,419,1,1448388232464,1448388233128,947,466,0,0,0,3,2,1,5,0002-00-0000-88.png,0003-00-0001-59.png
00000014,420,1,1448388234244,1448388234627,376,465,0,0,0,1,2,1,3,0005-00-0000-13.png,0003-00-0001-49.png
00000014,421,1,1448388235685,1448388236208,899,501,0,0,0,3,0,3,3,0002-00-0001-02.png,0001-00-0001-40.png
00000014,422,0,1448388237215,1448388237830,950,482,0,0,0,0,2,2,2,0001-00-0000-85.png,0003-00-0001-87.png
00000014,423,1,1448388240963,1448388241407,413,422,0,0,0,1,2,1,3,0005-00-0000-33.png,0003-00-0001-63.png
00000014,424,0,1448388242503,1448388242933,401,424,0,0,0,3,2,1,5,0002-00-0000-18.png,0003-00-0001-22.png
00000014,425,1,1448388246269,1448388246793,376,398,0,0,0,1,4,3,5,0005-00-0001-43.png,0004-00-0000-98.png
00000014,426,1,1448388247920,1448388248714,389,398,0,0,0,0,4,4,4,0001-00-0001-87.png,0004-00-0001-64.png
00000014,427,1,1448388249798,1448388250230,473,495,0,0,0,3,4,1,7,0002-00-0001-95.png,0004-00-0000-85.png
00000014,428,0,1448388251253,1448388251790,888,501,0,0,0,2,3,1,5,0003-00-0001-14.png,0002-00-0000-15.png
00000014,429,1,1448388254757,1448388255242,376,423,0,0,0,0,3,3,3,0001-00-0001-79.png,0002-00-0000-49.png
00000014,430,1,1448388256266,1448388256753,924,481,0,0,0,4,1,3,5,0004-00-0000-03.png,0005-00-0001-96.png
00000014,431,1,1448388257767,1448388258325,902,495,0,0,0,2,0,2,2,0003-00-0000-39.png,0001-00-0000-79.png
00000014,432,1,1448388259398,1448388260073,951,475,0,0,0,1,0,1,1,0005-00-0001-60.png,0001-00-0001-66.png
00000014,433,1,1448388261277,1448388261757,427,436,0,0,0,1,3,2,4,0005-00-0001-57.png,0002-00-0001-06.png
00000014,434,1,1448388262767,1448388263168,427,463,0,0,0,2,4,2,6,0003-00-0000-61.png,0004-00-0001-87.png
00000014,435,1,1448388264239,1448388265230,925,491,0,0,0,4,2,2,6,0004-00-0000-93.png,0003-00-0000-73.png
00000014,436,1,1448388266255,1448388266680,381,566,0,0,0,0,1,1,1,0001-00-0001-48.png,0005-00-0001-02.png
00000014,437,1,1448388267813,1448388268277,900,515,0,0,0,2,1,1,3,0003-00-0001-65.png,0005-00-0001-01.png
00000014,438,1,1448388269316,1448388269837,896,472,0,0,0,4,3,1,7,0004-00-0000-45.png,0002-00-0000-15.png
00000014,439,1,1448388270818,1448388271402,870,461,0,0,0,3,1,2,4,0002-00-0001-63.png,0005-00-0000-91.png
00000014,440,1,1448388272436,1448388272997,891,477,0,0,0,4,0,4,4,0004-00-0000-18.png,0001-00-0000-36.png
00000014,441,0,1448388274034,1448388274592,893,494,0,0,0,2,3,1,5,0003-00-0001-22.png,0002-00-0000-74.png
00000014,442,0,1448388277895,1448388278315,950,511,0,0,0,2,4,2,6,0003-00-0000-32.png,0004-00-0001-70.png
00000014,443,1,1448388281413,1448388281830,952,491,0,0,0,4,0,4,4,0004-00-0001-52.png,0001-00-0001-45.png
00000014,444,1,1448388282712,1448388283242,938,476,0,0,0,4,3,1,7,0004-00-0001-67.png,0002-00-0000-72.png
00000014,445,1,1448388284245,1448388284816,915,490,0,0,0,3,2,1,5,0002-00-0000-76.png,0003-00-0000-79.png
00000014,446,1,1448388285825,1448388286348,874,490,0,0,0,3,1,2,4,0002-00-0000-49.png,0005-00-0001-95.png
00000014,447,1,1448388287401,1448388287978,924,483,0,0,0,2,1,1,3,0003-00-0001-15.png,0005-00-0000-04.png
00000014,448,0,1448388288914,1448388289278,489,478,0,0,0,4,2,2,6,0004-00-0001-37.png,0003-00-0001-53.png
00000014,449,1,1448388292514,1448388292957,923,535,0,0,0,4,1,3,5,0004-00-0001-44.png,0005-00-0001-67.png
00000014,450,1,1448388294044,1448388294465,433,455,0,0,0,0,3,3,3,0001-00-0001-83.png,0002-00-0000-30.png
00000014,451,0,1448388295516,1448388296089,907,500,0,0,0,3,4,1,7,0002-00-0001-36.png,0004-00-0001-70.png
00000014,452,0,1448388299609,1448388300053,381,410,0,0,0,3,0,3,3,0002-00-0001-73.png,0001-00-0001-33.png
00000014,453,1,1448388303385,1448388303811,415,479,0,0,0,0,2,2,2,0001-00-0001-25.png,0003-00-0000-42.png
00000014,454,1,1448388305000,1448388305512,384,408,0,0,0,1,2,1,3,0005-00-0001-46.png,0003-00-0001-61.png
00000014,455,1,1448388306655,1448388307056,350,449,0,0,0,1,4,3,5,0005-00-0001-63.png,0004-00-0000-46.png
00000014,456,1,1448388308052,1448388308549,922,458,0,0,0,2,0,2,2,0003-00-0001-90.png,0001-00-0000-76.png
00000014,457,1,1448388309638,1448388310019,320,435,0,0,0,0,1,1,1,0001-00-0000-66.png,0005-00-0001-19.png
00000014,458,1,1448388311079,1448388311534,409,547,0,0,0,0,4,4,4,0001-00-0001-43.png,0004-00-0000-55.png
00000014,459,1,1448388312559,1448388313097,926,489,0,0,0,1,0,1,1,0005-00-0001-21.png,0001-00-0000-74.png
00000014,460,1,1448388314110,1448388314611,449,560,0,0,0,1,3,2,4,0005-00-0001-41.png,0002-00-0001-44.png
00000014,461,0,1448388315580,1448388316020,504,502,0,0,0,3,1,2,4,0002-00-0000-89.png,0005-00-0000-92.png
00000014,462,0,1448388319189,1448388319570,427,403,0,0,0,4,2,2,6,0004-00-0001-76.png,0003-00-0001-83.png
00000014,463,1,1448388322657,1448388323080,924,482,0,0,0,4,1,3,5,0004-00-0000-96.png,0005-00-0001-76.png
00000014,464,0,1448388324167,1448388324583,401,476,0,0,0,1,0,1,1,0005-00-0000-60.png,0001-00-0000-09.png
00000014,465,0,1448388330832,1448388331234,965,475,0,0,0,2,4,2,6,0003-00-0000-22.png,0004-00-0001-52.png
00000014,466,1,1448388334399,1448388334871,446,417,0,0,0,1,3,2,4,0005-00-0001-44.png,0002-00-0001-59.png
00000014,467,1,1448388335990,1448388336385,381,440,0,0,0,0,3,3,3,0001-00-0000-60.png,0002-00-0000-60.png
00000014,468,0,1448388337482,1448388338058,908,499,0,0,0,0,4,4,4,0001-00-0000-88.png,0004-00-0001-61.png
00000014,469,1,1448388341100,1448388341866,378,416,0,0,0,0,1,1,1,0001-00-0000-30.png,0005-00-0001-72.png
00000014,470,1,1448388342905,1448388343320,427,449,0,0,0,1,2,1,3,0005-00-0000-05.png,0003-00-0001-71.png
00000014,471,1,1448388344358,1448388344739,393,450,0,0,0,0,2,2,2,0001-00-0001-10.png,0003-00-0000-36.png
00000014,472,1,1448388345780,1448388346332,908,466,0,0,0,4,3,1,7,0004-00-0000-25.png,0002-00-0000-00.png
00000014,473,1,1448388347348,1448388347724,434,463,0,0,0,1,4,3,5,0005-00-0001-75.png,0004-00-0001-32.png
00000014,474,1,1448388348770,1448388349302,896,473,0,0,0,4,0,4,4,0004-00-0001-44.png,0001-00-0000-88.png
00000014,475,1,1448388350289,1448388350808,920,487,0,0,0,2,1,1,3,0003-00-0000-38.png,0005-00-0000-62.png
00000014,476,0,1448388351812,1448388352310,388,422,0,0,0,3,2,1,5,0002-00-0000-25.png,0003-00-0001-26.png
00000014,477,0,1448388355169,1448388355619,928,494,0,0,0,2,3,1,5,0003-00-0000-99.png,0002-00-0001-54.png
00000014,478,1,1448388358521,1448388358928,951,501,0,0,0,3,0,3,3,0002-00-0001-02.png,0001-00-0001-09.png
00000014,479,1,1448388360102,1448388360705,925,465,0,0,0,2,0,2,2,0003-00-0000-61.png,0001-00-0000-12.png
00000014,480,1,1448388361767,1448388362195,434,472,0,0,0,3,4,1,7,0002-00-0001-31.png,0004-00-0000-76.png
00000014,481,0,1448388363222,1448388363758,925,509,0,0,0,0,3,3,3,0001-00-0001-84.png,0002-00-0001-59.png
00000014,482,0,1448388368181,1448388368650,958,526,0,0,0,2,3,1,5,0003-00-0000-54.png,0002-00-0001-08.png
00000014,483,1,1448388374345,1448388374742,1023,478,0,0,0,2,0,2,2,0003-00-0001-30.png,0001-00-0001-21.png
00000014,484,1,1448388375726,1448388376703,392,440,0,0,0,3,4,1,7,0002-00-0001-46.png,0004-00-0001-63.png
00000014,485,0,1448388377655,1448388378127,365,410,0,0,0,4,0,4,4,0004-00-0000-02.png,0001-00-0001-25.png
00000014,486,1,1448388381116,1448388381162,504,436,0,0,0,1,2,1,3,0005-00-0000-34.png,0003-00-0000-18.png
00000014,487,1,1448388382157,1448388382546,401,488,0,0,0,0,2,2,2,0001-00-0000-68.png,0003-00-0001-59.png
00000014,488,1,1448388383512,1448388384029,897,492,0,0,0,4,2,2,6,0004-00-0001-41.png,0003-00-0000-34.png
00000014,489,1,1448388385170,1448388385566,389,555,0,0,0,0,4,4,4,0001-00-0000-28.png,0004-00-0000-53.png
00000014,490,1,1448388386555,1448388387030,876,487,0,0,0,3,1,2,4,0002-00-0000-82.png,0005-00-0000-86.png
00000014,491,1,1448388388409,1448388388846,926,476,0,0,0,2,1,1,3,0003-00-0000-80.png,0005-00-0000-52.png
00000014,492,1,1448388389771,1448388390317,925,475,0,0,0,3,0,3,3,0002-00-0000-18.png,0001-00-0001-05.png
00000014,493,1,1448388391363,1448388392372,934,447,0,0,0,1,0,1,1,0005-00-0000-32.png,0001-00-0001-57.png
00000014,494,0,1448388393387,1448388393884,899,482,0,0,0,1,4,3,5,0005-00-0001-67.png,0004-00-0000-16.png
00000014,495,0,1448388397089,1448388397520,931,494,0,0,0,0,1,1,1,0001-00-0001-33.png,0005-00-0000-58.png
00000014,496,1,1448388400437,1448388400879,938,470,0,0,0,3,2,1,5,0002-00-0000-54.png,0003-00-0001-55.png
00000014,497,0,1448388401949,1448388402651,901,494,0,0,0,1,3,2,4,0005-00-0000-28.png,0002-00-0001-67.png
00000014,498,1,1448388405556,1448388406041,950,517,0,0,0,4,1,3,5,0004-00-0001-93.png,0005-00-0000-27.png
00000014,499,0,1448388407016,1448388407598,899,465,0,0,0,2,4,2,6,0003-00-0001-55.png,0004-00-0001-57.png
00000014,500,0,1448388410464,1448388411060,427,410,0,0,0,4,3,1,7,0004-00-0001-68.png,0002-00-0001-64.png
00000014,501,1,1448388415214,1448388415728,369,363,0,0,0,0,3,3,3,0001-00-0000-90.png,0002-00-0001-83.png
00000014,502,0,1448388416698,1448388417302,910,465,0,0,0,3,4,1,7,0002-00-0001-55.png,0004-00-0001-12.png
00000014,503,0,1448388424174,1448388424559,436,375,0,0,0,3,1,2,4,0002-00-0001-57.png,0005-00-0001-23.png
00000014,504,1,1448388427532,1448388427944,952,496,0,0,0,3,0,3,3,0002-00-0001-00.png,0001-00-0001-56.png
00000014,505,0,1448388428857,1448388429354,889,475,0,0,0,2,4,2,6,0003-00-0001-92.png,0004-00-0001-34.png
00000014,506,1,1448388432306,1448388432762,926,462,0,0,0,3,2,1,5,0002-00-0000-67.png,0003-00-0000-71.png
00000014,507,0,1448388433697,1448388434128,376,476,0,0,0,4,3,1,7,0004-00-0000-08.png,0002-00-0001-27.png
00000014,508,1,1448388437255,1448388437706,388,423,0,0,0,1,3,2,4,0005-00-0000-22.png,0002-00-0001-85.png
00000014,509,1,1448388438825,1448388439284,952,489,0,0,0,1,0,1,1,0005-00-0001-54.png,0001-00-0000-19.png
00000014,510,1,1448388440285,1448388440724,913,500,0,0,0,2,0,2,2,0003-00-0001-45.png,0001-00-0000-28.png
00000014,511,1,1448388441828,1448388442181,411,465,0,0,0,0,2,2,2,0001-00-0001-74.png,0003-00-0000-06.png
00000014,512,1,1448388443219,1448388443737,921,498,0,0,0,4,2,2,6,0004-00-0000-45.png,0003-00-0000-79.png
00000014,513,1,1448388444769,1448388445206,461,459,0,0,0,2,3,1,5,0003-00-0001-77.png,0002-00-0001-47.png
00000014,514,1,1448388446258,1448388446745,877,469,0,0,0,4,1,3,5,0004-00-0000-61.png,0005-00-0001-28.png
00000014,515,1,1448388447826,1448388448229,392,467,0,0,0,1,2,1,3,0005-00-0000-53.png,0003-00-0001-23.png
00000014,516,1,1448388449251,1448388449662,427,465,0,0,0,0,4,4,4,0001-00-0001-96.png,0004-00-0000-22.png
00000014,517,0,1448388450668,1448388451035,463,484,0,0,0,2,1,1,3,0003-00-0001-87.png,0005-00-0000-13.png
00000014,518,1,1448388454419,1448388454862,951,501,0,0,0,4,0,4,4,0004-00-0001-30.png,0001-00-0000-98.png
00000014,519,1,1448388456019,1448388456431,378,462,0,0,0,1,4,3,5,0005-00-0000-63.png,0004-00-0000-47.png
00000014,520,1,1448388457512,1448388457932,427,461,0,0,0,0,1,1,1,0001-00-0000-46.png,0005-00-0001-63.png
00000014,521,1,1448388459051,1448388459596,899,516,0,0,0,4,3,1,7,0004-00-0001-32.png,0002-00-0000-06.png
00000014,522,1,1448388460611,1448388461003,452,485,0,0,0,3,4,1,7,0002-00-0000-46.png,0004-00-0001-67.png
00000014,523,1,1448388462043,1448388463030,950,457,0,0,0,2,1,1,3,0003-00-0000-95.png,0005-00-0001-38.png
00000014,524,1,1448388464040,1448388464416,460,472,0,0,0,0,2,2,2,0001-00-0001-27.png,0003-00-0001-53.png
00000014,525,1,1448388465476,1448388465996,920,493,0,0,0,3,0,3,3,0002-00-0001-43.png,0001-00-0000-35.png
00000014,526,1,1448388466980,1448388467353,382,454,0,0,0,0,1,1,1,0001-00-0000-60.png,0005-00-0001-53.png
00000014,527,1,1448388468393,1448388468887,901,514,0,0,0,2,0,2,2,0003-00-0000-34.png,0001-00-0001-70.png
00000014,528,0,1448388469943,1448388470343,414,476,0,0,0,4,2,2,6,0004-00-0000-15.png,0003-00-0000-08.png
00000014,529,1,1448388473439,1448388473893,914,475,0,0,0,3,1,2,4,0002-00-0001-96.png,0005-00-0000-42.png
00000014,530,0,1448388474912,1448388475295,440,498,0,0,0,3,2,1,5,0002-00-0001-69.png,0003-00-0001-30.png
00000014,531,0,1448388479364,1448388479797,876,436,0,0,0,2,4,2,6,0003-00-0001-70.png,0004-00-0000-62.png
00000014,532,0,1448388482683,1448388483101,946,445,0,0,0,2,3,1,5,0003-00-0001-53.png,0002-00-0000-60.png
00000014,533,1,1448388486053,1448388486481,468,468,0,0,0,1,3,2,4,0005-00-0000-18.png,0002-00-0001-85.png
00000014,534,1,1448388487505,1448388487904,359,462,0,0,0,0,4,4,4,0001-00-0000-54.png,0004-00-0001-13.png
00000014,535,0,1448388488896,1448388489588,888,488,0,0,0,1,4,3,5,0005-00-0000-29.png,0004-00-0001-58.png
00000014,536,0,1448388492644,1448388493087,961,492,0,0,0,0,3,3,3,0001-00-0000-02.png,0002-00-0001-37.png
00000014,537,1,1448388496466,1448388496906,959,473,0,0,0,1,0,1,1,0005-00-0001-80.png,0001-00-0000-82.png
00000014,538,1,1448388497935,1448388498433,923,460,0,0,0,4,0,4,4,0004-00-0000-49.png,0001-00-0000-49.png
00000014,539,1,1448388499417,1448388499822,427,436,0,0,0,1,2,1,3,0005-00-0001-07.png,0003-00-0001-91.png
00000014,540,1,1448388500879,1448388501386,882,474,0,0,0,4,1,3,5,0004-00-0000-09.png,0005-00-0001-95.png
00000014,541,1,1448388502431,1448388502840,345,462,0,0,0,0,2,2,2,0001-00-0001-97.png,0003-00-0000-52.png
00000014,542,1,1448388503830,1448388504302,900,488,0,0,0,3,0,3,3,0002-00-0001-85.png,0001-00-0000-41.png
00000014,543,1,1448388505273,1448388505691,382,471,0,0,0,1,3,2,4,0005-00-0001-05.png,0002-00-0001-30.png
00000014,544,0,1448388506746,1448388507178,464,510,0,0,0,2,0,2,2,0003-00-0000-79.png,0001-00-0000-16.png
00000014,545,1,1448388510163,1448388510614,395,408,0,0,0,0,4,4,4,0001-00-0000-87.png,0004-00-0001-95.png
00000014,546,1,1448388511624,1448388512067,427,503,0,0,0,0,3,3,3,0001-00-0000-50.png,0002-00-0000-61.png
00000014,547,1,1448388513025,1448388513495,924,510,0,0,0,4,0,4,4,0004-00-0000-65.png,0001-00-0000-18.png
00000014,548,1,1448388514517,1448388515059,895,470,0,0,0,4,3,1,7,0004-00-0000-22.png,0002-00-0001-20.png
00000014,549,1,1448388516514,1448388516969,867,452,0,0,0,3,1,2,4,0002-00-0001-06.png,0005-00-0000-03.png
00000014,550,0,1448388517936,1448388518528,862,436,0,0,0,1,2,1,3,0005-00-0000-13.png,0003-00-0000-92.png
00000014,551,0,1448388521492,1448388521559,520,488,0,0,0,4,2,2,6,0004-00-0001-46.png,0003-00-0001-65.png
00000014,552,1,1448388525009,1448388525427,977,502,0,0,0,2,1,1,3,0003-00-0000-04.png,0005-00-0001-79.png
00000014,553,1,1448388526761,1448388527128,376,451,0,0,0,0,1,1,1,0001-00-0000-79.png,0005-00-0000-03.png
00000014,554,0,1448388528333,1448388528834,902,493,0,0,0,2,4,2,6,0003-00-0001-64.png,0004-00-0001-63.png
00000014,555,1,1448388531881,1448388531907,519,410,0,0,0,3,4,1,7,0002-00-0001-52.png,0004-00-0001-09.png
00000014,556,1,1448388533122,1448388533606,925,475,0,0,0,1,0,1,1,0005-00-0000-69.png,0001-00-0000-20.png
00000014,557,1,1448388534741,1448388535291,918,477,0,0,0,3,2,1,5,0002-00-0001-17.png,0003-00-0001-32.png
00000014,558,0,1448388536428,1448388536918,882,500,0,0,0,2,3,1,5,0003-00-0001-88.png,0002-00-0000-14.png
00000014,559,0,1448388539773,1448388539857,488,442,0,0,0,4,1,3,5,0004-00-0000-72.png,0005-00-0000-71.png
00000014,560,1,1448388543199,1448388543619,408,368,0,0,0,1,4,3,5,0005-00-0001-34.png,0004-00-0000-40.png
00000014,561,1,1448388544822,1448388545278,916,489,0,0,0,2,0,2,2,0003-00-0000-39.png,0001-00-0001-26.png
00000014,562,1,1448388546239,1448388546786,951,463,0,0,0,3,1,2,4,0002-00-0001-34.png,0005-00-0000-49.png
00000014,563,0,1448388547848,1448388548430,887,476,0,0,0,1,3,2,4,0005-00-0001-28.png,0002-00-0001-20.png
00000014,564,1,1448388551310,1448388551784,921,445,0,0,0,4,0,4,4,0004-00-0001-30.png,0001-00-0000-23.png
00000014,565,1,1448388552780,1448388553233,901,526,0,0,0,2,1,1,3,0003-00-0000-97.png,0005-00-0001-62.png
00000014,566,1,1448388554329,1448388554839,921,524,0,0,0,4,1,3,5,0004-00-0000-86.png,0005-00-0000-22.png
00000014,567,0,1448388555915,1448388556312,445,479,0,0,0,4,2,2,6,0004-00-0000-92.png,0003-00-0000-50.png
00000014,568,1,1448388559300,1448388559758,964,476,0,0,0,4,3,1,7,0004-00-0000-85.png,0002-00-0000-06.png
00000014,569,1,1448388560932,1448388561308,369,450,0,0,0,0,2,2,2,0001-00-0000-38.png,0003-00-0000-18.png
00000014,570,0,1448388562383,1448388562908,887,528,0,0,0,0,4,4,4,0001-00-0000-01.png,0004-00-0001-18.png
00000014,571,1,1448388565871,1448388566361,410,403,0,0,0,3,4,1,7,0002-00-0001-76.png,0004-00-0000-34.png
00000014,572,0,1448388567413,1448388567903,887,499,0,0,0,2,4,2,6,0003-00-0001-26.png,0004-00-0001-57.png
00000014,573,1,1448388571020,1448388571536,884,475,0,0,0,3,0,3,3,0002-00-0000-97.png,0001-00-0001-03.png
00000014,574,1,1448388572720,1448388573113,404,466,0,0,0,0,1,1,1,0001-00-0000-98.png,0005-00-0001-38.png
00000014,575,1,1448388574242,1448388574643,453,462,0,0,0,1,4,3,5,0005-00-0001-34.png,0004-00-0000-86.png
00000014,576,0,1448388575659,1448388576278,910,497,0,0,0,1,2,1,3,0005-00-0000-62.png,0003-00-0001-00.png
00000014,577,1,1448388579687,1448388580163,934,526,0,0,0,3,2,1,5,0002-00-0001-07.png,0003-00-0001-39.png
00000014,578,1,1448388581188,1448388581662,925,475,0,0,0,1,0,1,1,0005-00-0001-73.png,0001-00-0000-46.png
00000014,579,1,1448388582670,1448388583030,395,473,0,0,0,0,3,3,3,0001-00-0001-09.png,0002-00-0000-99.png
00000014,580,0,1448388584056,1448388584544,901,476,0,0,0,2,3,1,5,0003-00-0000-91.png,0002-00-0000-14.png
00000014,581,1,1448388587548,1448388588008,900,488,0,0,0,2,1,1,3,0003-00-0000-17.png,0005-00-0001-29.png
00000014,582,1,1448388589099,1448388589548,913,502,0,0,0,3,0,3,3,0002-00-0000-11.png,0001-00-0001-46.png
00000014,583,1,1448388590560,1448388591060,874,476,0,0,0,4,0,4,4,0004-00-0001-31.png,0001-00-0001-76.png
00000014,584,1,1448388592066,1448388592674,915,491,0,0,0,3,1,2,4,0002-00-0000-48.png,0005-00-0000-27.png
00000014,585,1,1448388593629,1448388594020,438,476,0,0,0,0,2,2,2,0001-00-0001-37.png,0003-00-0000-14.png
00000014,586,1,1448388595151,1448388595576,391,467,0,0,0,1,4,3,5,0005-00-0000-63.png,0004-00-0001-62.png
00000014,587,0,1448388596643,1448388597062,434,434,0,0,0,1,0,1,1,0005-00-0001-87.png,0001-00-0001-04.png
00000014,588,1,1448388600031,1448388600476,453,410,0,0,0,1,2,1,3,0005-00-0000-73.png,0003-00-0000-95.png
00000014,589,0,1448388601592,1448388602103,878,494,0,0,0,2,4,2,6,0003-00-0000-67.png,0004-00-0000-82.png
00000014,590,0,1448388605049,1448388605522,927,504,0,0,0,0,4,4,4,0001-00-0000-08.png,0004-00-0000-76.png
00000014,591,1,1448388608596,1448388609034,935,463,0,0,0,3,2,1,5,0002-00-0001-00.png,0003-00-0000-22.png
00000014,592,0,1448388610069,1448388610590,911,477,0,0,0,2,3,1,5,0003-00-0001-57.png,0002-00-0000-01.png
00000014,593,1,1448388613723,1448388614135,925,463,0,0,0,4,1,3,5,0004-00-0001-80.png,0005-00-0001-83.png
00000014,594,0,1448388615452,1448388615835,408,442,0,0,0,4,2,2,6,0004-00-0001-18.png,0003-00-0000-25.png
00000014,595,1,1448388618965,1448388619525,415,408,0,0,0,3,4,1,7,0002-00-0001-91.png,0004-00-0000-96.png
00000014,596,1,1448388620603,1448388621116,913,475,0,0,0,2,0,2,2,0003-00-0000-01.png,0001-00-0001-22.png
00000014,597,0,1448388622104,1448388622672,862,436,0,0,0,0,3,3,3,0001-00-0000-75.png,0002-00-0000-49.png
00000014,598,1,1448388625833,1448388626265,388,398,0,0,0,0,1,1,1,0001-00-0001-88.png,0005-00-0001-02.png
00000014,599,1,1448388627329,1448388627753,382,466,0,0,0,1,3,2,4,0005-00-0001-48.png,0002-00-0000-30.png
00000014,600,1,1448388628744,1448388629245,900,489,0,0,0,4,3,1,7,0004-00-0000-59.png,0002-00-0000-54.png
00000014,601,1,1448388630384,1448388630779,404,487,0,0,0,0,3,3,3,0001-00-0000-71.png,0002-00-0000-76.png
00000014,602,0,1448388631876,1448388632374,901,501,0,0,0,1,3,2,4,0005-00-0000-46.png,0002-00-0001-05.png
00000014,603,1,1448388635369,1448388636281,376,384,0,0,0,1,2,1,3,0005-00-0000-30.png,0003-00-0000-69.png
00000014,604,1,1448388637427,1448388638038,896,524,0,0,0,4,1,3,5,0004-00-0001-23.png,0005-00-0000-65.png
00000014,605,1,1448388639067,1448388639423,445,479,0,0,0,1,4,3,5,0005-00-0001-23.png,0004-00-0001-50.png
00000014,606,1,1448388640472,1448388640852,411,468,0,0,0,0,1,1,1,0001-00-0001-85.png,0005-00-0001-14.png
00000014,607,1,1448388641964,1448388642512,902,495,0,0,0,2,0,2,2,0003-00-0000-61.png,0001-00-0001-15.png
00000014,608,1,1448388643584,1448388644735,434,419,0,0,0,2,4,2,6,0003-00-0000-56.png,0004-00-0001-10.png
00000014,609,0,1448388645849,1448388646230,432,476,0,0,0,3,0,3,3,0002-00-0000-14.png,0001-00-0001-82.png
00000014,610,1,1448388649427,1448388649950,925,475,0,0,0,4,3,1,7,0004-00-0001-97.png,0002-00-0000-68.png
00000014,611,1,1448388650978,1448388651512,874,501,0,0,0,4,2,2,6,0004-00-0000-33.png,0003-00-0000-49.png
00000014,612,1,1448388652599,1448388653136,926,477,0,0,0,3,2,1,5,0002-00-0000-12.png,0003-00-0000-97.png
00000014,613,1,1448388654571,1448388654982,413,449,0,0,0,0,2,2,2,0001-00-0000-31.png,0003-00-0000-04.png
00000014,614,1,1448388655993,1448388656465,896,498,0,0,0,2,1,1,3,0003-00-0001-10.png,0005-00-0000-28.png
00000014,615,1,1448388657578,1448388658064,925,501,0,0,0,4,0,4,4,0004-00-0001-48.png,0001-00-0001-13.png
00000014,616,0,1448388659188,1448388659641,899,489,0,0,0,3,4,1,7,0002-00-0001-40.png,0004-00-0000-64.png
00000014,617,0,1448388662905,1448388663499,435,440,0,0,0,1,0,1,1,0005-00-0001-16.png,0001-00-0000-21.png
00000014,618,1,1448388666343,1448388666795,444,454,0,0,0,0,4,4,4,0001-00-0000-89.png,0004-00-0000-60.png
00000014,619,0,1448388667945,1448388668420,946,497,0,0,0,2,3,1,5,0003-00-0001-34.png,0002-00-0000-20.png
00000014,620,1,1448388671551,1448388671972,947,497,0,0,0,3,1,2,4,0002-00-0000-78.png,0005-00-0000-36.png
00000014,621,0,1448388673054,1448388673438,368,480,0,0,0,4,1,3,5,0004-00-0001-74.png,0005-00-0001-03.png
00000014,622,1,1448388676602,1448388677065,398,452,0,0,0,0,3,3,3,0001-00-0000-70.png,0002-00-0001-79.png
00000014,623,0,1448388678312,1448388678752,406,479,0,0,0,4,2,2,6,0004-00-0000-36.png,0003-00-0000-02.png
00000014,624,0,1448388681831,1448388682375,381,418,0,0,0,1,0,1,1,0005-00-0001-13.png,0001-00-0001-66.png
00000014,625,0,1448388686029,1448388686908,427,306,0,0,0,3,0,3,3,0002-00-0000-94.png,0001-00-0000-53.png
00000014,626,1,1448388689874,1448388689942,487,462,0,0,0,1,3,2,4,0005-00-0000-16.png,0002-00-0000-00.png
00000014,627,1,1448388691797,1448388692265,948,490,0,0,0,3,1,2,4,0002-00-0000-31.png,0005-00-0001-55.png
00000014,628,0,1448388693706,1448388694193,926,488,0,0,0,2,4,2,6,0003-00-0001-74.png,0004-00-0001-81.png
00000014,629,1,1448388697134,1448388697588,951,463,0,0,0,2,1,1,3,0003-00-0001-96.png,0005-00-0000-26.png
00000014,630,1,1448388698545,1448388698953,484,499,0,0,0,1,4,3,5,0005-00-0001-06.png,0004-00-0000-77.png
00000014,631,1,1448388699973,1448388700351,386,443,0,0,0,0,2,2,2,0001-00-0001-33.png,0003-00-0001-01.png
00000014,632,1,1448388701477,1448388701963,882,499,0,0,0,4,0,4,4,0004-00-0001-71.png,0001-00-0000-90.png
00000014,633,1,1448388702948,1448388703336,440,462,0,0,0,1,2,1,3,0005-00-0000-41.png,0003-00-0000-63.png
00000014,634,1,1448388704349,1448388704771,350,450,0,0,0,0,4,4,4,0001-00-0000-91.png,0004-00-0000-51.png
00000014,635,0,1448388705841,1448388706401,899,490,0,0,0,2,3,1,5,0003-00-0001-43.png,0002-00-0001-98.png
00000014,636,0,1448388709318,1448388709730,439,462,0,0,0,3,2,1,5,0002-00-0001-17.png,0003-00-0000-84.png
00000014,637,1,1448388712796,1448388713223,941,475,0,0,0,2,0,2,2,0003-00-0001-81.png,0001-00-0000-09.png
00000014,638,0,1448388714188,1448388714595,511,498,0,0,0,4,3,1,7,0004-00-0001-35.png,0002-00-0001-73.png
00000014,639,0,1448388717508,1448388718082,909,552,0,0,0,3,4,1,7,0002-00-0001-53.png,0004-00-0000-08.png
00000014,640,1,1448388721314,1448388721714,376,462,0,0,0,0,1,1,1,0001-00-0000-98.png,0005-00-0000-04.png
00000014,641,1,1448388722681,1448388723068,435,471,0,0,0,0,2,2,2,0001-00-0001-71.png,0003-00-0001-88.png
00000014,642,1,1448388724096,1448388724860,874,438,0,0,0,4,1,3,5,0004-00-0001-76.png,0005-00-0001-21.png
00000014,643,1,1448388725822,1448388726302,348,439,0,0,0,0,3,3,3,0001-00-0000-57.png,0002-00-0001-74.png
00000014,644,1,1448388727253,1448388727632,419,453,0,0,0,1,4,3,5,0005-00-0001-17.png,0004-00-0001-45.png
00000014,645,1,1448388729077,1448388729781,925,500,0,0,0,4,0,4,4,0004-00-0001-79.png,0001-00-0000-86.png
00000014,646,0,1448388730799,1448388731241,899,483,0,0,0,2,4,2,6,0003-00-0001-85.png,0004-00-0001-35.png
00000014,647,1,1448388734599,1448388735037,922,418,0,0,0,4,2,2,6,0004-00-0001-90.png,0003-00-0000-75.png
00000014,648,1,1448388736080,1448388736609,938,502,0,0,0,2,0,2,2,0003-00-0001-97.png,0001-00-0000-55.png
00000014,649,0,1448388737610,1448388737995,423,565,0,0,0,3,2,1,5,0002-00-0000-56.png,0003-00-0001-38.png
00000014,650,1,1448388740867,1448388740896,505,456,0,0,0,0,1,1,1,0001-00-0000-11.png,0005-00-0001-93.png
00000014,651,1,1448388741873,1448388742288,468,493,0,0,0,1,3,2,4,0005-00-0000-36.png,0002-00-0000-36.png
00000014,652,0,1448388743373,1448388743847,874,474,0,0,0,2,3,1,5,0003-00-0000-28.png,0002-00-0000-25.png
00000014,653,1,1448388747054,1448388747490,414,451,0,0,0,1,2,1,3,0005-00-0000-00.png,0003-00-0001-02.png
00000014,654,1,1448388748506,1448388749000,905,480,0,0,0,4,3,1,7,0004-00-0000-41.png,0002-00-0001-79.png
00000014,655,1,1448388750010,1448388750410,418,454,0,0,0,0,4,4,4,0001-00-0001-83.png,0004-00-0001-58.png
00000014,656,1,1448388751458,1448388751979,889,475,0,0,0,3,0,3,3,0002-00-0000-59.png,0001-00-0000-95.png
00000014,657,0,1448388753563,1448388754004,862,410,0,0,0,3,4,1,7,0002-00-0001-47.png,0004-00-0001-06.png
00000014,658,1,1448388756851,1448388757322,942,463,0,0,0,3,1,2,4,0002-00-0000-18.png,0005-00-0000-54.png
00000014,659,1,1448388758385,1448388758936,925,475,0,0,0,1,0,1,1,0005-00-0000-74.png,0001-00-0000-23.png
00000014,660,0,1448388759941,1448388760326,454,462,0,0,0,2,1,1,3,0003-00-0000-98.png,0005-00-0001-10.png
00000014,661,0,1448388763461,1448388763877,872,470,0,0,0,0,1,1,1,0001-00-0000-84.png,0005-00-0000-75.png
00000014,662,0,1448388766982,1448388767405,433,423,0,0,0,4,0,4,4,0004-00-0000-55.png,0001-00-0001-87.png
00000014,663,1,1448388770431,1448388770831,952,475,0,0,0,4,2,2,6,0004-00-0001-95.png,0003-00-0000-76.png
00000014,664,0,1448388771880,1448388772337,899,490,0,0,0,2,4,2,6,0003-00-0000-95.png,0004-00-0000-91.png
00000014,665,1,1448388775326,1448388775741,956,494,0,0,0,2,0,2,2,0003-00-0001-92.png,0001-00-0000-15.png
00000014,666,0,1448388776722,1448388777266,925,475,0,0,0,1,3,2,4,0005-00-0000-89.png,0002-00-0001-97.png
00000014,667,1,1448388780370,1448388780824,932,499,0,0,0,3,1,2,4,0002-00-0001-41.png,0005-00-0000-20.png
00000014,668,0,1448388781862,1448388782378,944,481,0,0,0,3,4,1,7,0002-00-0000-86.png,0004-00-0000-73.png
00000014,669,1,1448388785368,1448388785840,415,434,0,0,0,0,4,4,4,0001-00-0001-64.png,0004-00-0001-39.png
00000014,670,1,1448388786970,1448388787467,935,473,0,0,0,4,3,1,7,0004-00-0001-86.png,0002-00-0000-22.png
00000014,671,0,1448388789002,1448388789439,938,476,0,0,0,2,3,1,5,0003-00-0000-39.png,0002-00-0001-26.png
00000014,672,1,1448388792276,1448388792777,390,407,0,0,0,0,3,3,3,0001-00-0001-72.png,0002-00-0001-41.png
00000014,673,1,1448388793748,1448388794239,865,562,0,0,0,3,2,1,5,0002-00-0001-82.png,0003-00-0001-84.png
00000014,674,1,1448388795319,1448388795707,427,462,0,0,0,0,2,2,2,0001-00-0001-27.png,0003-00-0001-53.png
00000014,675,0,1448388796818,1448388797353,386,400,0,0,0,4,1,3,5,0004-00-0000-22.png,0005-00-0001-11.png
00000014,676,1,1448388800349,1448388800813,940,501,0,0,0,2,1,1,3,0003-00-0000-55.png,0005-00-0000-70.png
00000014,677,1,1448388801797,1448388802190,453,463,0,0,0,1,4,3,5,0005-00-0001-16.png,0004-00-0001-28.png
00000014,678,1,1448388803260,1448388803642,404,485,0,0,0,1,2,1,3,0005-00-0000-91.png,0003-00-0000-05.png
00000014,679,1,1448388804675,1448388805122,925,514,0,0,0,1,0,1,1,0005-00-0000-52.png,0001-00-0000-62.png
00000014,680,1,1448388806257,1448388806731,914,476,0,0,0,3,0,3,3,0002-00-0001-47.png,0001-00-0000-72.png
00000014,681,1,1448388807789,1448388808266,887,476,0,0,0,4,1,3,5,0004-00-0000-88.png,0005-00-0000-31.png
00000014,682,1,1448388809366,1448388809858,888,501,0,0,0,1,0,1,1,0005-00-0000-79.png,0001-00-0000-85.png
00000014,683,1,1448388810901,1448388811441,862,528,0,0,0,4,3,1,7,0004-00-0001-69.png,0002-00-0000-80.png
00000014,684,1,1448388812457,1448388813032,898,508,0,0,0,2,1,1,3,0003-00-0000-68.png,0005-00-0000-87.png
00000014,685,1,1448388814073,1448388814433,481,498,0,0,0,2,3,1,5,0003-00-0001-50.png,0002-00-0001-77.png
00000014,686,1,1448388815422,1448388815865,418,455,0,0,0,0,4,4,4,0001-00-0000-24.png,0004-00-0000-97.png
00000014,687,1,1448388816870,1448388817274,490,501,0,0,0,1,4,3,5,0005-00-0000-18.png,0004-00-0000-20.png
00000014,688,1,1448388818291,1448388818820,911,491,0,0,0,2,0,2,2,0003-00-0001-43.png,0001-00-0001-05.png
00000014,689,0,1448388819922,1448388820440,886,502,0,0,0,2,4,2,6,0003-00-0001-58.png,0004-00-0001-34.png
00000014,690,1,1448388823284,1448388823782,974,509,0,0,0,3,0,3,3,0002-00-0000-03.png,0001-00-0001-89.png
00000014,691,1,1448388824846,1448388825370,875,476,0,0,0,3,2,1,5,0002-00-0000-31.png,0003-00-0001-04.png
00000014,692,1,1448388826367,1448388826775,463,501,0,0,0,1,2,1,3,0005-00-0001-00.png,0003-00-0000-22.png
00000014,693,0,1448388827802,1448388829332,915,543,0,0,0,3,4,1,7,0002-00-0000-31.png,0004-00-0001-07.png
00000014,694,1,1448388832989,1448388833392,360,418,0,0,0,0,1,1,1,0001-00-0001-74.png,0005-00-0000-61.png
00000014,695,1,1448388834385,1448388834806,363,474,0,0,0,0,2,2,2,0001-00-0000-58.png,0003-00-0000-69.png
00000014,696,1,1448388835787,1448388836256,427,436,0,0,0,0,3,3,3,0001-00-0000-73.png,0002-00-0001-04.png
00000014,697,1,1448388837303,1448388837868,899,509,0,0,0,3,1,2,4,0002-00-0000-05.png,0005-00-0001-39.png
00000014,698,0,1448388838926,1448388839339,465,501,0,0,0,4,2,2,6,0004-00-0001-65.png,0003-00-0000-26.png
00000014,699,1,1448388842587,1448388843031,437,405,0,0,0,1,3,2,4,0005-00-0001-96.png,0002-00-0001-36.png
00000014,700,1,1448388844034,1448388844517,919,480,0,0,0,4,0,4,4,0004-00-0000-43.png,0001-00-0000-10.png
00000014,701,0,1448388845864,1448388846328,908,499,0,0,0,1,2,1,3,0005-00-0001-29.png,0003-00-0001-35.png
00000014,702,1,1448388849327,1448388849777,935,514,0,0,0,4,2,2,6,0004-00-0000-19.png,0003-00-0000-77.png
00000014,703,1,1448388850792,1448388851175,399,467,0,0,0,1,4,3,5,0005-00-0000-86.png,0004-00-0001-58.png
00000014,704,1,1448388852301,1448388852723,466,476,0,0,0,1,3,2,4,0005-00-0001-88.png,0002-00-0000-64.png
00000014,705,1,1448388853754,1448388854256,881,500,0,0,0,4,1,3,5,0004-00-0000-56.png,0005-00-0000-81.png
00000014,706,0,1448388855267,1448388855678,484,498,0,0,0,4,3,1,7,0004-00-0000-59.png,0002-00-0001-73.png
00000014,707,1,1448388858566,1448388859099,393,406,0,0,0,0,4,4,4,0001-00-0000-59.png,0004-00-0001-89.png
00000014,708,1,1448388860137,1448388860579,876,476,0,0,0,3,2,1,5,0002-00-0001-87.png,0003-00-0001-36.png
00000014,709,1,1448388861660,1448388862220,901,476,0,0,0,3,0,3,3,0002-00-0000-72.png,0001-00-0000-34.png
00000014,710,1,1448388863217,1448388863549,435,473,0,0,0,0,2,2,2,0001-00-0000-78.png,0003-00-0001-93.png
00000014,711,1,1448388864696,1448388865161,877,494,0,0,0,2,1,1,3,0003-00-0000-80.png,0005-00-0001-47.png
00000014,712,1,1448388866261,1448388866719,874,490,0,0,0,2,0,2,2,0003-00-0000-15.png,0001-00-0001-46.png
00000014,713,0,1448388867786,1448388868171,350,462,0,0,0,1,0,1,1,0005-00-0001-37.png,0001-00-0001-20.png
00000014,714,0,1448388871111,1448388871759,950,486,0,0,0,0,3,3,3,0001-00-0001-61.png,0002-00-0001-49.png
00000014,715,0,1448388874764,1448388875165,913,397,0,0,0,3,4,1,7,0002-00-0001-36.png,0004-00-0001-56.png
00000014,716,0,1448388878286,1448388878757,904,454,0,0,0,2,4,2,6,0003-00-0001-24.png,0004-00-0000-22.png
00000014,717,1,1448388882160,1448388882616,927,488,0,0,0,3,1,2,4,0002-00-0000-91.png,0005-00-0001-59.png
00000014,718,0,1448388883708,1448388884205,899,475,0,0,0,0,1,1,1,0001-00-0000-01.png,0005-00-0001-87.png
00000014,719,0,1448388887537,1448388887940,392,387,0,0,0,4,0,4,4,0004-00-0000-90.png,0001-00-0001-14.png
00000014,720,0,1448388891097,1448388891521,951,475,0,0,0,2,3,1,5,0003-00-0001-26.png,0002-00-0001-92.png
00000014,721,0,1448388894541,1448388894967,925,458,0,0,0,2,4,2,6,0003-00-0001-31.png,0004-00-0001-06.png
00000014,722,1,1448388898004,1448388898392,879,402,0,0,0,4,1,3,5,0004-00-0001-01.png,0005-00-0000-88.png
00000014,723,1,1448388899505,1448388899931,385,547,0,0,0,1,4,3,5,0005-00-0000-03.png,0004-00-0001-23.png
00000014,724,1,1448388900904,1448388901286,453,477,0,0,0,1,2,1,3,0005-00-0000-80.png,0003-00-0000-65.png
00000014,725,1,1448388902307,1448388903408,875,371,0,0,0,2,0,2,2,0003-00-0001-86.png,0001-00-0001-59.png
00000014,726,1,1448388904414,1448388904770,432,462,0,0,0,0,3,3,3,0001-00-0000-30.png,0002-00-0001-55.png
00000014,727,1,1448388905813,1448388906364,882,474,0,0,0,2,1,1,3,0003-00-0000-91.png,0005-00-0001-76.png
00000014,728,1,1448388907397,1448388907794,408,458,0,0,0,0,1,1,1,0001-00-0000-25.png,0005-00-0000-55.png
00000014,729,1,1448388908937,1448388909451,904,519,0,0,0,3,1,2,4,0002-00-0000-92.png,0005-00-0001-27.png
00000014,730,1,1448388910477,1448388910962,926,489,0,0,0,4,0,4,4,0004-00-0000-77.png,0001-00-0000-58.png
00000014,731,1,1448388911999,1448388912327,428,498,0,0,0,0,4,4,4,0001-00-0001-48.png,0004-00-0000-01.png
00000014,732,1,1448388913498,1448388914011,874,462,0,0,0,3,0,3,3,0002-00-0001-98.png,0001-00-0000-40.png
00000014,733,1,1448388915139,1448388915528,375,482,0,0,0,3,4,1,7,0002-00-0000-73.png,0004-00-0000-09.png
00000014,734,0,1448388916591,1448388916995,453,488,0,0,0,4,2,2,6,0004-00-0001-79.png,0003-00-0001-23.png
00000014,735,0,1448388919838,1448388920395,392,409,0,0,0,3,2,1,5,0002-00-0001-99.png,0003-00-0000-49.png
00000014,736,0,1448388923791,1448388924199,871,472,0,0,0,1,3,2,4,0005-00-0001-61.png,0002-00-0001-63.png
00000014,737,0,1448388927303,1448388927871,430,362,0,0,0,1,0,1,1,0005-00-0000-45.png,0001-00-0001-88.png
00000014,738,1,1448388931587,1448388932151,950,482,0,0,0,4,3,1,7,0004-00-0001-88.png,0002-00-0000-04.png
00000014,739,1,1448388933148,1448388933640,427,410,0,0,0,0,2,2,2,0001-00-0001-40.png,0003-00-0001-07.png
00000014,740,0,1448388934655,1448388935220,901,462,0,0,0,2,3,1,5,0003-00-0000-11.png,0002-00-0000-49.png
00000014,741,1,1448388940103,1448388940601,394,401,0,0,0,2,4,2,6,0003-00-0000-79.png,0004-00-0001-45.png
00000014,742,1,1448388941596,1448388942010,392,549,0,0,0,0,3,3,3,0001-00-0000-04.png,0002-00-0001-04.png
00000014,743,0,1448388943058,1448388943604,926,501,0,0,0,2,3,1,5,0003-00-0001-36.png,0002-00-0000-28.png
00000014,744,1,1448388946595,1448388947066,901,436,0,0,0,1,0,1,1,0005-00-0001-05.png,0001-00-0000-07.png
00000014,745,1,1448388948136,1448388948516,376,433,0,0,0,0,2,2,2,0001-00-0000-51.png,0003-00-0000-22.png
00000014,746,1,1448388949634,1448388950108,900,502,0,0,0,3,1,2,4,0002-00-0001-00.png,0005-00-0001-99.png
00000014,747,1,1448388951097,1448388951639,877,495,0,0,0,3,2,1,5,0002-00-0000-78.png,0003-00-0000-42.png
00000014,748,1,1448388952695,1448388953188,863,475,0,0,0,2,1,1,3,0003-00-0001-43.png,0005-00-0001-94.png
00000014,749,1,1448388954217,1448388954740,917,479,0,0,0,4,3,1,7,0004-00-0001-26.png,0002-00-0001-26.png
00000014,750,0,1448388955737,1448388956092,434,456,0,0,0,2,0,2,2,0003-00-0001-38.png,0001-00-0001-69.png
00000014,751,1,1448388959147,1448388959613,420,445,0,0,0,1,4,3,5,0005-00-0001-15.png,0004-00-0001-72.png
00000014,752,1,1448388960676,1448388961093,337,449,0,0,0,0,4,4,4,0001-00-0000-38.png,0004-00-0000-03.png
00000014,753,1,1448388962188,1448388962632,913,502,0,0,0,4,0,4,4,0004-00-0000-66.png,0001-00-0001-26.png
00000014,754,1,1448388963680,1448388964670,940,449,0,0,0,3,0,3,3,0002-00-0001-17.png,0001-00-0000-38.png
00000014,755,1,1448388965671,1448388966080,368,453,0,0,0,0,1,1,1,0001-00-0000-00.png,0005-00-0000-92.png
00000014,756,1,1448388967229,1448388967693,873,508,0,0,0,4,1,3,5,0004-00-0000-03.png,0005-00-0001-12.png
00000014,757,1,1448388968679,1448388969737,950,501,0,0,0,4,2,2,6,0004-00-0000-20.png,0003-00-0001-66.png
00000014,758,0,1448388970765,1448388971367,915,511,0,0,0,1,3,2,4,0005-00-0000-44.png,0002-00-0001-02.png
00000014,759,0,1448388974364,1448388974969,922,497,0,0,0,3,4,1,7,0002-00-0001-72.png,0004-00-0000-85.png
00000014,760,0,1448388978126,1448388978518,928,520,0,0,0,1,2,1,3,0005-00-0000-01.png,0003-00-0001-76.png
00000014,761,1,1448388981432,1448388981924,951,492,0,0,0,4,1,3,5,0004-00-0001-03.png,0005-00-0001-90.png
00000014,762,1,1448388982988,1448388984332,444,375,0,0,0,1,4,3,5,0005-00-0000-88.png,0004-00-0001-60.png
00000014,763,1,1448388985357,1448388985767,390,476,0,0,0,0,1,1,1,0001-00-0000-71.png,0005-00-0000-33.png
00000014,764,1,1448388987322,1448388987731,478,464,0,0,0,0,3,3,3,0001-00-0001-91.png,0002-00-0000-57.png
00000014,765,1,1448388988844,1448388989352,866,487,0,0,0,4,2,2,6,0004-00-0001-08.png,0003-00-0001-84.png
00000014,766,1,1448388990425,1448388990959,914,475,0,0,0,2,0,2,2,0003-00-0000-83.png,0001-00-0001-59.png
00000014,767,1,1448388992146,1448388992643,892,502,0,0,0,3,1,2,4,0002-00-0000-03.png,0005-00-0000-66.png
00000014,768,1,1448388993696,1448388994440,880,507,0,0,0,4,3,1,7,0004-00-0000-89.png,0002-00-0000-88.png
00000014,769,1,1448388995415,1448388995902,862,436,0,0,0,3,0,3,3,0002-00-0001-19.png,0001-00-0000-46.png
00000014,770,0,1448388996867,1448388997383,872,484,0,0,0,2,3,1,5,0003-00-0001-73.png,0002-00-0001-29.png
00000014,771,1,1448389000375,1448389000948,488,410,0,0,0,1,3,2,4,0005-00-0001-32.png,0002-00-0001-06.png
00000014,772,0,1448389002045,1448389002481,908,500,0,0,0,2,4,2,6,0003-00-0000-56.png,0004-00-0001-65.png
00000014,773,0,1448389005414,1448389005874,896,497,0,0,0,3,4,1,7,0002-00-0000-92.png,0004-00-0001-60.png
00000014,774,1,1448389009151,1448389009616,449,480,0,0,0,0,4,4,4,0001-00-0000-14.png,0004-00-0000-51.png
00000014,775,1,1448389010662,1448389011214,947,471,0,0,0,2,1,1,3,0003-00-0001-64.png,0005-00-0001-14.png
00000014,776,0,1448389012412,1448389012844,376,554,0,0,0,1,0,1,1,0005-00-0000-68.png,0001-00-0000-21.png
00000014,777,1,1448389015771,1448389016374,950,512,0,0,0,3,2,1,5,0002-00-0001-46.png,0003-00-0001-75.png
00000014,778,1,1448389017471,1448389017811,382,463,0,0,0,1,2,1,3,0005-00-0000-84.png,0003-00-0000-64.png
00000014,779,1,1448389018943,1448389019350,408,508,0,0,0,0,2,2,2,0001-00-0001-10.png,0003-00-0000-07.png
00000014,780,1,1448389020494,1448389021007,875,462,0,0,0,4,0,4,4,0004-00-0001-00.png,0001-00-0001-80.png
00000014,781,1,1448389022024,1448389022539,875,488,0,0,0,3,1,2,4,0002-00-0000-42.png,0005-00-0000-90.png
00000014,782,1,1448389023606,1448389024526,927,474,0,0,0,3,2,1,5,0002-00-0000-01.png,0003-00-0001-32.png
00000014,783,1,1448389025630,1448389026082,401,476,0,0,0,1,4,3,5,0005-00-0000-09.png,0004-00-0000-02.png
00000014,784,0,1448389027151,1448389027547,446,472,0,0,0,4,2,2,6,0004-00-0001-01.png,0003-00-0000-65.png
00000014,785,1,1448389030689,1448389031101,950,474,0,0,0,4,3,1,7,0004-00-0000-80.png,0002-00-0000-06.png
00000014,786,1,1448389032220,1448389032735,857,525,0,0,0,3,0,3,3,0002-00-0001-28.png,0001-00-0000-43.png
00000014,787,1,1448389033866,1448389034235,410,469,0,0,0,0,2,2,2,0001-00-0000-99.png,0003-00-0000-26.png
00000014,788,0,1448389035362,1448389036320,921,434,0,0,0,2,3,1,5,0003-00-0000-14.png,0002-00-0001-90.png
00000014,789,1,1448389039333,1448389039779,952,501,0,0,0,4,1,3,5,0004-00-0001-32.png,0005-00-0001-14.png
00000014,790,0,1448389040843,1448389041272,354,431,0,0,0,1,0,1,1,0005-00-0000-34.png,0001-00-0000-48.png
00000014,791,1,1448389044734,1448389045229,391,424,0,0,0,1,3,2,4,0005-00-0001-11.png,0002-00-0000-31.png
00000014,792,1,1448389046303,1448389046804,898,508,0,0,0,4,0,4,4,0004-00-0001-93.png,0001-00-0000-88.png
00000014,793,1,1448389048359,1448389048796,917,500,0,0,0,2,0,2,2,0003-00-0001-24.png,0001-00-0000-49.png
00000014,794,1,1448389049911,1448389050229,384,479,0,0,0,0,3,3,3,0001-00-0000-67.png,0002-00-0000-02.png
00000014,795,0,1448389051314,1448389051768,900,501,0,0,0,2,4,2,6,0003-00-0001-23.png,0004-00-0000-30.png
00000014,796,1,1448389054827,1448389055256,939,502,0,0,0,2,1,1,3,0003-00-0001-69.png,0005-00-0001-90.png
00000014,797,1,1448389056507,1448389056899,365,450,0,0,0,0,1,1,1,0001-00-0001-64.png,0005-00-0000-20.png
00000014,798,0,1448389057997,1448389058500,875,517,0,0,0,1,2,1,3,0005-00-0000-57.png,0003-00-0000-87.png
00000014,799,1,1448389061469,1448389061895,440,449,0,0,0,0,4,4,4,0001-00-0001-63.png,0004-00-0001-33.png
00000014,800,1,1448389063115,1448389063561,391,434,0,0,0,3,4,1,7,0002-00-0000-31.png,0004-00-0001-41.png
00000014,801,0,1448389064631,1448389065263,925,501,0,0,0,1,2,1,3,0005-00-0000-70.png,0003-00-0001-21.png
00000014,802,1,1448389068114,1448389068540,407,390,0,0,0,0,2,2,2,0001-00-0000-77.png,0003-00-0001-12.png
00000014,803,1,1448389069689,1448389070882,409,395,0,0,0,1,4,3,5,0005-00-0000-70.png,0004-00-0000-68.png
00000014,804,1,1448389071976,1448389072447,888,527,0,0,0,4,3,1,7,0004-00-0000-85.png,0002-00-0000-35.png
00000014,805,1,1448389073556,1448389073947,408,479,0,0,0,1,3,2,4,0005-00-0000-22.png,0002-00-0000-69.png
00000014,806,1,1448389075062,1448389075524,899,487,0,0,0,4,0,4,4,0004-00-0000-25.png,0001-00-0001-10.png
00000014,807,0,1448389076559,1448389077495,925,475,0,0,0,2,3,1,5,0003-00-0001-58.png,0002-00-0001-82.png
00000014,808,0,1448389080415,1448389080829,947,497,0,0,0,0,1,1,1,0001-00-0000-80.png,0005-00-0001-37.png
00000014,809,0,1448389083733,1448389083777,507,480,0,0,0,3,0,3,3,0002-00-0001-11.png,0001-00-0000-97.png
00000014,810,1,1448389086784,1448389087231,478,410,0,0,0,3,4,1,7,0002-00-0001-16.png,0004-00-0001-53.png
00000014,811,1,1448389088256,1448389089230,379,409,0,0,0,2,4,2,6,0003-00-0000-91.png,0004-00-0000-54.png
00000014,812,1,1448389090263,1448389090757,917,488,0,0,0,1,0,1,1,0005-00-0001-87.png,0001-00-0001-58.png
00000014,813,0,1448389091745,1448389092139,445,479,0,0,0,4,1,3,5,0004-00-0001-12.png,0005-00-0001-74.png
00000014,814,1,1448389095131,1448389095520,972,472,0,0,0,2,0,2,2,0003-00-0001-93.png,0001-00-0001-36.png
00000014,815,1,1448389096591,1448389097049,875,488,0,0,0,3,2,1,5,0002-00-0001-19.png,0003-00-0000-77.png
00000014,816,0,1448389098117,1448389098473,364,450,0,0,0,3,1,2,4,0002-00-0000-00.png,0005-00-0000-25.png
00000014,817,1,1448389101390,1448389101893,440,529,0,0,0,0,4,4,4,0001-00-0001-89.png,0004-00-0000-33.png
00000014,818,1,1448389102925,1448389103287,434,472,0,0,0,0,3,3,3,0001-00-0000-07.png,0002-00-0001-22.png
00000014,819,1,1448389104346,1448389104850,899,475,0,0,0,2,1,1,3,0003-00-0001-27.png,0005-00-0001-75.png
00000014,820,1,1448389105829,1448389106841,877,547,0,0,0,4,2,2,6,0004-00-0000-51.png,0003-00-0000-00.png
00000014,821,0,1448389108033,1448389108485,887,502,0,0,0,3,4,1,7,0002-00-0000-28.png,0004-00-0000-04.png
00000014,822,1,1448389111512,1448389112068,425,368,0,0,0,0,1,1,1,0001-00-0000-53.png,0005-00-0001-74.png
00000014,823,1,1448389113125,1448389113528,411,460,0,0,0,0,4,4,4,0001-00-0000-45.png,0004-00-0000-05.png
00000014,824,1,1448389114681,1448389115231,924,483,0,0,0,2,0,2,2,0003-00-0001-18.png,0001-00-0001-75.png
00000014,825,1,1448389116215,1448389116698,401,451,0,0,0,1,4,3,5,0005-00-0001-68.png,0004-00-0000-42.png
00000014,826,1,1448389117806,1448389118172,427,476,0,0,0,0,3,3,3,0001-00-0000-91.png,0002-00-0001-54.png
00000014,827,0,1448389119336,1448389119863,884,496,0,0,0,2,3,1,5,0003-00-0000-23.png,0002-00-0000-45.png
00000014,828,1,1448389122735,1448389123182,947,497,0,0,0,2,1,1,3,0003-00-0001-75.png,0005-00-0001-91.png
00000014,829,0,1448389124297,1448389124721,419,454,0,0,0,4,3,1,7,0004-00-0001-92.png,0002-00-0001-52.png
00000014,830,1,1448389127725,1448389128232,926,502,0,0,0,4,0,4,4,0004-00-0000-71.png,0001-00-0000-59.png
00000014,831,1,1448389129537,1448389129999,918,507,0,0,0,4,1,3,5,0004-00-0000-18.png,0005-00-0001-54.png
00000014,832,0,1448389131017,1448389131366,419,506,0,0,0,3,1,2,4,0002-00-0000-55.png,0005-00-0001-26.png
00000014,833,1,1448389134230,1448389134700,407,388,0,0,0,1,3,2,4,0005-00-0001-31.png,0002-00-0001-12.png
00000014,834,0,1448389135778,1448389136286,900,488,0,0,0,2,4,2,6,0003-00-0001-74.png,0004-00-0000-60.png
00000014,835,1,1448389139375,1448389139798,968,488,0,0,0,1,0,1,1,0005-00-0001-28.png,0001-00-0000-78.png
00000014,836,1,1448389141044,1448389141397,402,451,0,0,0,1,2,1,3,0005-00-0000-12.png,0003-00-0000-87.png
00000014,837,0,1448389142785,1448389143233,383,392,0,0,0,4,2,2,6,0004-00-0000-71.png,0003-00-0000-36.png
00000014,838,1,1448389147058,1448389147471,365,423,0,0,0,0,2,2,2,0001-00-0001-63.png,0003-00-0001-15.png
00000014,839,1,1448389148677,1448389149129,900,489,0,0,0,3,0,3,3,0002-00-0001-37.png,0001-00-0001-76.png
00000014,840,1,1448389150231,1448389150691,905,480,0,0,0,3,2,1,5,0002-00-0000-07.png,0003-00-0000-79.png
00000014,841,0,1448389151740,1448389152290,874,527,0,0,0,0,2,2,2,0001-00-0001-78.png,0003-00-0001-05.png
00000014,842,1,1448389155398,1448389155870,350,410,0,0,0,0,4,4,4,0001-00-0001-06.png,0004-00-0000-89.png
00000014,843,0,1448389157049,1448389157501,359,439,0,0,0,3,2,1,5,0002-00-0001-09.png,0003-00-0000-33.png
00000014,844,1,1448389160494,1448389160915,952,501,0,0,0,2,0,2,2,0003-00-0000-42.png,0001-00-0000-84.png
00000014,845,1,1448389162097,1448389162676,947,497,0,0,0,3,1,2,4,0002-00-0001-58.png,0005-00-0001-49.png
00000014,846,1,1448389163913,1448389164351,390,461,0,0,0,1,4,3,5,0005-00-0001-33.png,0004-00-0001-99.png
00000014,847,1,1448389165575,1448389166068,923,484,0,0,0,3,0,3,3,0002-00-0001-40.png,0001-00-0001-29.png
00000014,848,0,1448389167296,1448389167810,400,429,0,0,0,4,1,3,5,0004-00-0000-43.png,0005-00-0001-30.png
00000014,849,1,1448389170809,1448389171372,951,491,0,0,0,4,2,2,6,0004-00-0000-30.png,0003-00-0001-40.png
00000014,850,0,1448389172413,1448389172915,914,494,0,0,0,2,4,2,6,0003-00-0001-27.png,0004-00-0001-84.png
00000014,851,1,1448389175978,1448389176500,900,476,0,0,0,4,0,4,4,0004-00-0001-91.png,0001-00-0001-75.png
00000014,852,0,1448389177653,1448389178154,926,502,0,0,0,0,3,3,3,0001-00-0000-54.png,0002-00-0000-62.png
00000014,853,0,1448389181538,1448389181991,914,510,0,0,0,3,4,1,7,0002-00-0000-91.png,0004-00-0001-46.png
00000014,854,1,1448389185086,1448389185723,379,382,0,0,0,1,3,2,4,0005-00-0001-92.png,0002-00-0000-09.png
00000014,855,1,1448389186945,1448389187338,402,500,0,0,0,1,2,1,3,0005-00-0000-23.png,0003-00-0001-40.png
00000014,856,1,1448389188496,1448389188976,862,436,0,0,0,1,0,1,1,0005-00-0000-01.png,0001-00-0001-62.png
00000014,857,0,1448389190153,1448389191062,470,444,0,0,0,4,3,1,7,0004-00-0000-10.png,0002-00-0000-98.png
00000014,858,0,1448389193972,1448389194387,901,384,0,0,0,0,1,1,1,0001-00-0000-59.png,0005-00-0000-79.png
00000014,859,0,1448389197662,1448389198151,951,527,0,0,0,2,3,1,5,0003-00-0001-44.png,0002-00-0001-70.png
00000014,860,1,1448389201178,1448389201597,913,436,0,0,0,2,1,1,3,0003-00-0000-26.png,0005-00-0001-46.png
00000014,861,0,1448389202658,1448389203124,401,476,0,0,0,3,0,3,3,0002-00-0000-32.png,0001-00-0000-17.png
00000014,862,1,1448389206346,1448389206907,427,398,0,0,0,1,2,1,3,0005-00-0000-41.png,0003-00-0001-59.png
00000014,863,1,1448389208034,1448389208589,932,496,0,0,0,4,1,3,5,0004-00-0000-66.png,0005-00-0000-53.png
00000014,864,1,1448389209711,1448389210230,903,493,0,0,0,4,0,4,4,0004-00-0000-48.png,0001-00-0000-92.png
00000014,865,1,1448389211475,1448389211871,440,469,0,0,0,0,4,4,4,0001-00-0001-74.png,0004-00-0000-49.png
00000014,866,0,1448389212876,1448389213401,874,516,0,0,0,1,4,3,5,0005-00-0000-50.png,0004-00-0000-46.png
00000014,867,1,1448389216453,1448389216906,952,476,0,0,0,1,0,1,1,0005-00-0001-55.png,0001-00-0000-59.png
00000014,868,1,1448389218055,1448389218510,453,410,0,0,0,1,3,2,4,0005-00-0000-83.png,0002-00-0001-67.png
00000014,869,1,1448389219536,1448389220024,937,495,0,0,0,2,0,2,2,0003-00-0000-03.png,0001-00-0001-74.png
00000014,870,1,1448389221136,1448389221608,924,480,0,0,0,4,2,2,6,0004-00-0000-38.png,0003-00-0001-89.png
00000014,871,1,1448389222677,1448389223071,350,448,0,0,0,0,3,3,3,0001-00-0001-28.png,0002-00-0000-84.png
00000014,872,1,1448389224214,1448389224738,905,506,0,0,0,2,1,1,3,0003-00-0001-89.png,0005-00-0001-97.png
00000014,873,1,1448389225848,1448389226321,891,499,0,0,0,4,3,1,7,0004-00-0001-97.png,0002-00-0000-76.png
00000014,874,1,1448389227617,1448389228089,411,475,0,0,0,0,2,2,2,0001-00-0000-50.png,0003-00-0000-44.png
00000014,875,0,1448389229208,1448389229690,900,502,0,0,0,3,4,1,7,0002-00-0001-06.png,0004-00-0001-73.png
00000014,876,1,1448389232586,1448389233129,946,453,0,0,0,3,1,2,4,0002-00-0000-47.png,0005-00-0000-11.png
00000014,877,0,1448389234188,1448389234627,874,436,0,0,0,2,3,1,5,0003-00-0001-22.png,0002-00-0000-07.png
00000014,878,1,1448389238045,1448389238627,433,401,0,0,0,2,4,2,6,0003-00-0000-57.png,0004-00-0001-74.png
00000014,879,0,1448389239760,1448389240672,466,425,0,0,0,3,2,1,5,0002-00-0001-12.png,0003-00-0001-47.png
00000014,880,0,1448389243639,1448389244071,955,522,0,0,0,0,1,1,1,0001-00-0000-02.png,0005-00-0000-89.png
00000014,881,1,1448389247018,1448389247569,956,506,0,0,0,4,3,1,7,0004-00-0001-61.png,0002-00-0000-69.png
00000014,882,0,1448389248626,1448389249106,897,510,0,0,0,1,3,2,4,0005-00-0000-29.png,0002-00-0000-17.png
00000014,883,1,1448389254796,1448389255262,949,539,0,0,0,3,2,1,5,0002-00-0000-03.png,0003-00-0000-27.png
00000014,884,1,1448389256358,1448389256828,898,485,0,0,0,1,0,1,1,0005-00-0000-12.png,0001-00-0001-99.png
00000014,885,1,1448389257947,1448389258601,382,399,0,0,0,1,4,3,5,0005-00-0000-29.png,0004-00-0000-62.png
00000014,886,1,1448389259673,1448389260065,362,462,0,0,0,0,1,1,1,0001-00-0001-70.png,0005-00-0000-68.png
00000014,887,1,1448389261187,1448389261671,887,528,0,0,0,2,0,2,2,0003-00-0001-60.png,0001-00-0001-33.png
00000014,888,0,1448389262717,1448389263098,458,487,0,0,0,3,0,3,3,0002-00-0000-38.png,0001-00-0000-23.png
00000014,889,1,1448389265991,1448389266398,458,463,0,0,0,1,2,1,3,0005-00-0001-43.png,0003-00-0001-27.png
00000014,890,0,1448389267439,1448389267852,383,480,0,0,0,4,1,3,5,0004-00-0000-63.png,0005-00-0000-02.png
00000014,891,0,1448389270798,1448389271292,411,410,0,0,0,4,2,2,6,0004-00-0001-89.png,0003-00-0001-22.png
00000014,892,1,1448389274224,1448389274641,420,418,0,0,0,0,4,4,4,0001-00-0000-50.png,0004-00-0001-72.png
00000014,893,1,1448389275697,1448389276171,863,449,0,0,0,3,1,2,4,0002-00-0000-40.png,0005-00-0001-44.png
00000014,894,1,1448389277246,1448389277724,863,527,0,0,0,2,1,1,3,0003-00-0000-01.png,0005-00-0000-65.png
00000014,895,0,1448389278884,1448389279347,902,501,0,0,0,2,4,2,6,0003-00-0001-17.png,0004-00-0000-70.png
00000014,896,0,1448389282410,1448389282916,928,547,0,0,0,2,3,1,5,0003-00-0000-58.png,0002-00-0000-82.png
00000014,897,0,1448389285894,1448389286588,925,515,0,0,0,3,4,1,7,0002-00-0001-61.png,0004-00-0001-34.png
00000014,898,1,1448389289593,1448389290019,390,423,0,0,0,0,2,2,2,0001-00-0001-80.png,0003-00-0001-85.png
00000014,899,1,1448389291114,1448389291477,343,436,0,0,0,0,3,3,3,0001-00-0000-18.png,0002-00-0001-63.png
00000014,900,1,1448389292575,1448389293044,893,493,0,0,0,4,0,4,4,0004-00-0001-91.png,0001-00-0000-45.png
00000014,901,0,1448389294106,1448389294940,887,502,0,0,0,1,3,2,4,0005-00-0000-71.png,0002-00-0000-10.png
00000014,902,1,1448389297880,1448389298294,459,427,0,0,0,0,1,1,1,0001-00-0000-15.png,0005-00-0001-48.png
00000014,903,1,1448389299859,1448389300277,417,443,0,0,0,1,2,1,3,0005-00-0000-95.png,0003-00-0000-86.png
00000014,904,0,1448389301328,1448389301720,424,472,0,0,0,3,2,1,5,0002-00-0001-81.png,0003-00-0000-74.png
00000014,905,1,1448389305486,1448389305971,437,436,0,0,0,0,4,4,4,0001-00-0000-07.png,0004-00-0001-02.png
00000014,906,0,1448389306960,1448389307509,924,516,0,0,0,2,4,2,6,0003-00-0000-56.png,0004-00-0000-43.png
00000014,907,0,1448389310356,1448389310871,381,409,0,0,0,4,2,2,6,0004-00-0000-22.png,0003-00-0000-39.png
00000014,908,1,1448389313896,1448389314355,940,501,0,0,0,4,3,1,7,0004-00-0001-75.png,0002-00-0001-79.png
00000014,909,0,1448389315406,1448389315880,862,502,0,0,0,2,3,1,5,0003-00-0000-06.png,0002-00-0001-18.png
00000014,910,0,1448389318790,1448389318819,504,409,0,0,0,3,1,2,4,0002-00-0001-15.png,0005-00-0000-65.png
00000014,911,1,1448389322005,1448389322423,905,453,0,0,0,2,0,2,2,0003-00-0000-55.png,0001-00-0001-88.png
00000014,912,1,1448389323426,1448389323963,925,475,0,0,0,4,0,4,4,0004-00-0001-63.png,0001-00-0001-68.png
00000014,913,1,1448389325047,1448389325532,899,510,0,0,0,4,1,3,5,0004-00-0000-76.png,0005-00-0001-32.png
00000014,914,1,1448389326600,1448389326985,383,447,0,0,0,0,3,3,3,0001-00-0001-73.png,0002-00-0001-04.png
00000014,915,1,1448389328107,1448389328557,918,488,0,0,0,1,0,1,1,0005-00-0001-31.png,0001-00-0000-45.png
00000014,916,1,1448389329609,1448389330084,913,485,0,0,0,2,1,1,3,0003-00-0001-68.png,0005-00-0000-05.png
00000014,917,1,1448389331121,1448389331617,914,502,0,0,0,3,0,3,3,0002-00-0001-12.png,0001-00-0001-30.png
00000014,918,1,1448389332648,1448389333024,469,497,0,0,0,0,2,2,2,0001-00-0000-24.png,0003-00-0001-65.png
00000014,919,0,1448389334339,1448389334930,901,514,0,0,0,3,4,1,7,0002-00-0000-90.png,0004-00-0001-46.png
00000014,920,1,1448389337897,1448389338296,409,418,0,0,0,1,4,3,5,0005-00-0000-34.png,0004-00-0000-03.png
00000014,921,1,1448389339364,1448389339874,881,552,0,0,0,2,1,1,3,0003-00-0000-41.png,0005-00-0000-66.png
00000014,922,0,1448389341036,1448389341587,924,508,0,0,0,2,3,1,5,0003-00-0001-82.png,0002-00-0000-65.png
00000014,923,1,1448389344695,1448389345151,951,516,0,0,0,3,0,3,3,0002-00-0001-51.png,0001-00-0000-87.png
00000014,924,0,1448389346367,1448389346769,421,469,0,0,0,3,2,1,5,0002-00-0000-67.png,0003-00-0000-57.png
00000014,925,0,1448389349685,1448389350200,951,515,0,0,0,1,4,3,5,0005-00-0001-25.png,0004-00-0000-77.png
00000014,926,1,1448389353456,1448389353856,887,449,0,0,0,3,1,2,4,0002-00-0001-74.png,0005-00-0001-79.png
00000014,927,0,1448389355112,1448389355558,401,451,0,0,0,4,2,2,6,0004-00-0001-82.png,0003-00-0001-22.png
00000014,928,1,1448389358397,1448389358859,926,501,0,0,0,4,0,4,4,0004-00-0001-93.png,0001-00-0001-00.png
00000014,929,1,1448389359973,1448389360435,938,525,0,0,0,2,0,2,2,0003-00-0000-28.png,0001-00-0000-73.png
00000014,930,1,1448389361554,1448389362074,918,516,0,0,0,4,3,1,7,0004-00-0000-27.png,0002-00-0000-54.png
00000014,931,1,1448389363282,1448389363846,879,480,0,0,0,1,0,1,1,0005-00-0000-99.png,0001-00-0000-69.png
00000014,932,1,1448389365002,1448389365364,489,502,0,0,0,1,3,2,4,0005-00-0001-59.png,0002-00-0001-49.png
00000014,933,1,1448389366560,1448389366958,396,470,0,0,0,0,4,4,4,0001-00-0001-62.png,0004-00-0000-28.png
00000014,934,1,1448389368079,1448389368571,900,515,0,0,0,4,1,3,5,0004-00-0000-22.png,0005-00-0000-65.png
00000014,935,1,1448389369684,1448389370027,460,496,0,0,0,0,3,3,3,0001-00-0000-74.png,0002-00-0001-52.png
00000014,936,0,1448389371166,1448389371670,898,537,0,0,0,3,4,1,7,0002-00-0001-21.png,0004-00-0001-90.png
00000014,937,1,1448389374502,1448389375040,334,417,0,0,0,0,2,2,2,0001-00-0000-75.png,0003-00-0000-79.png
00000014,938,1,1448389376096,1448389376604,447,462,0,0,0,1,2,1,3,0005-00-0000-57.png,0003-00-0000-85.png
00000014,939,1,1448389377704,1448389378092,350,464,0,0,0,0,1,1,1,0001-00-0001-97.png,0005-00-0000-44.png
00000014,940,1,1448389379643,1448389380134,376,438,0,0,0,2,4,2,6,0003-00-0001-35.png,0004-00-0001-55.png
00000014,941,1,1448389381239,1448389381606,437,461,0,0,0,0,3,3,3,0001-00-0001-79.png,0002-00-0001-66.png
00000014,942,0,1448389382774,1448389383212,870,523,0,0,0,1,3,2,4,0005-00-0000-97.png,0002-00-0001-19.png
00000014,943,0,1448389386194,1448389386770,950,517,0,0,0,0,4,4,4,0001-00-0000-39.png,0004-00-0000-29.png
00000014,944,1,1448389389657,1448389390099,862,475,0,0,0,1,0,1,1,0005-00-0001-14.png,0001-00-0000-29.png
00000014,945,0,1448389391231,1448389391638,401,477,0,0,0,3,0,3,3,0002-00-0000-89.png,0001-00-0001-46.png
00000014,946,1,1448389394760,1448389395223,394,428,0,0,0,1,2,1,3,0005-00-0000-56.png,0003-00-0001-00.png
00000014,947,1,1448389396281,1448389396771,924,507,0,0,0,4,0,4,4,0004-00-0000-96.png,0001-00-0001-57.png
00000014,948,0,1448389397881,1448389398457,909,499,0,0,0,0,2,2,2,0001-00-0001-30.png,0003-00-0000-17.png
00000014,949,1,1448389401844,1448389402383,964,502,0,0,0,4,3,1,7,0004-00-0000-50.png,0002-00-0000-26.png
00000014,950,0,1448389403617,1448389403996,453,488,0,0,0,3,1,2,4,0002-00-0001-66.png,0005-00-0001-51.png
00000014,951,1,1448389406846,1448389407442,436,357,0,0,0,2,3,1,5,0003-00-0001-19.png,0002-00-0000-81.png
