subject_id,trial,correct_response,stim_time,response_time,x_coord,y_coord,trial_timeout,timeout_time,interTrial_timeout,left_rank,right_rank,distance,joint_rank,left_image,right_image
00000009,1,0,1447434311262,1447434311901,968,396,0,0,0,1,4,3,5,0005-00-0000-78.png,0004-00-0000-04.png
00000009,2,1,1447434314925,1447434315371,943,337,0,0,0,4,3,1,7,0004-00-0001-09.png,0002-00-0001-19.png
00000009,3,1,1447434316802,1447434317324,1010,461,0,0,0,4,0,4,4,0004-00-0000-78.png,0001-00-0001-60.png
00000009,4,1,1447434318622,1447434318687,931,338,0,0,0,3,2,1,5,0002-00-0001-88.png,0003-00-0001-47.png
00000009,5,1,1447434319963,1447434320674,972,333,0,0,0,2,0,2,2,0003-00-0001-30.png,0001-00-0001-02.png
00000009,6,1,1447434322308,1447434322932,972,330,0,0,0,3,1,2,4,0002-00-0000-22.png,0005-00-0001-00.png
00000009,7,0,1447434323928,1447434324599,936,280,0,0,0,0,3,3,3,0001-00-0001-89.png,0002-00-0000-37.png
00000009,8,1,1447434327764,1447434327873,862,410,0,0,0,4,2,2,6,0004-00-0001-75.png,0003-00-0000-15.png
00000009,9,0,1447434328876,1447434328944,889,422,0,0,0,1,2,1,3,0005-00-0001-93.png,0003-00-0001-76.png
00000009,10,1,1447434332055,1447434332338,1063,301,0,0,0,1,0,1,1,0005-00-0000-76.png,0001-00-0000-23.png
00000009,11,1,1447434333308,1447434333705,913,501,0,0,0,3,0,3,3,0002-00-0000-98.png,0001-00-0001-21.png
00000009,12,1,1447434335018,1447434335698,486,221,0,0,0,1,3,2,4,0005-00-0000-63.png,0002-00-0000-78.png
00000009,13,0,1447434336895,1447434336923,860,389,0,0,0,0,4,4,4,0001-00-0001-20.png,0004-00-0001-83.png
00000009,14,0,1447434339977,1447434339993,912,314,0,0,0,0,1,1,1,0001-00-0000-08.png,0005-00-0000-10.png
00000009,15,0,1447434343103,1447434343123,900,277,0,0,0,2,3,1,5,0003-00-0000-00.png,0002-00-0001-56.png
00000009,16,1,1447434346247,1447434346787,459,240,0,0,0,3,4,1,7,0002-00-0000-89.png,0004-00-0000-88.png
00000009,17,0,1447434347686,1447434348168,895,530,0,0,0,0,2,2,2,0001-00-0001-72.png,0003-00-0000-03.png
00000009,18,1,1447434351315,1447434351359,941,274,0,0,0,4,1,3,5,0004-00-0001-13.png,0005-00-0000-68.png
00000009,19,1,1447434352329,1447434353003,477,231,0,0,0,2,4,2,6,0003-00-0000-07.png,0004-00-0000-59.png
00000009,20,1,1447434354057,1447434354214,880,437,0,0,0,2,1,1,3,0003-00-0001-17.png,0005-00-0000-49.png
00000009,21,0,1447434355450,1447434355535,877,462,0,0,0,0,4,4,4,0001-00-0000-02.png,0004-00-0001-06.png
00000009,22,1,1447434358828,1447434359333,1024,253,0,0,0,4,3,1,7,0004-00-0001-22.png,0002-00-0000-54.png
00000009,23,1,1447434360227,1447434360923,333,350,0,0,0,1,2,1,3,0005-00-0000-94.png,0003-00-0000-41.png
00000009,24,1,1447434361958,1447434362403,897,530,0,0,0,4,0,4,4,0004-00-0000-53.png,0001-00-0000-19.png
00000009,25,1,1447434363420,1447434363444,900,387,0,0,0,4,1,3,5,0004-00-0001-11.png,0005-00-0000-09.png
00000009,26,0,1447434364721,1447434364809,902,488,0,0,0,3,4,1,7,0002-00-0001-25.png,0004-00-0001-27.png
00000009,27,1,1447434367931,1447434368418,387,332,0,0,0,0,1,1,1,0001-00-0001-43.png,0005-00-0001-07.png
00000009,28,0,1447434369313,1447434369765,908,509,0,0,0,0,3,3,3,0001-00-0000-30.png,0002-00-0001-45.png
00000009,29,1,1447434372820,1447434373337,405,362,0,0,0,0,2,2,2,0001-00-0000-98.png,0003-00-0001-27.png
00000009,30,1,1447434374177,1447434374887,931,321,0,0,0,2,1,1,3,0003-00-0000-14.png,0005-00-0001-10.png
00000009,31,1,1447434375736,1447434375784,862,367,0,0,0,4,2,2,6,0004-00-0001-44.png,0003-00-0001-18.png
00000009,32,1,1447434376835,1447434377487,1035,243,0,0,0,1,0,1,1,0005-00-0000-38.png,0001-00-0000-72.png
00000009,33,1,1447434378301,1447434378361,917,413,0,0,0,3,0,3,3,0002-00-0001-19.png,0001-00-0001-09.png
00000009,34,0,1447434393662,1447434394050,964,349,0,0,0,1,3,2,4,0005-00-0001-77.png,0002-00-0000-12.png
00000009,35,0,1447434398951,1447434399480,1003,366,0,0,0,2,4,2,6,0003-00-0001-36.png,0004-00-0001-67.png
00000009,36,0,1447434403245,1447434403724,464,270,0,0,0,3,1,2,4,0002-00-0000-76.png,0005-00-0000-70.png
00000009,37,1,1447434408295,1447434408566,911,301,0,0,0,2,0,2,2,0003-00-0001-66.png,0001-00-0001-70.png
00000009,38,1,1447434409478,1447434409522,867,380,0,0,0,3,2,1,5,0002-00-0001-45.png,0003-00-0001-52.png
00000009,39,0,1447434410511,1447434410565,881,418,0,0,0,1,4,3,5,0005-00-0000-58.png,0004-00-0000-25.png
00000009,40,0,1447434413710,1447434414224,1041,262,0,0,0,2,3,1,5,0003-00-0001-39.png,0002-00-0001-70.png
00000009,41,0,1447434417596,1447434418390,433,243,0,0,0,3,0,3,3,0002-00-0000-62.png,0001-00-0001-40.png
00000009,42,0,1447434421482,1447434421935,1004,248,0,0,0,1,4,3,5,0005-00-0001-08.png,0004-00-0001-83.png
00000009,43,0,1447434425627,1447434425683,867,253,0,0,0,0,3,3,3,0001-00-0001-37.png,0002-00-0001-62.png
00000009,44,1,1447434428786,1447434429267,913,325,0,0,0,3,1,2,4,0002-00-0001-51.png,0005-00-0000-27.png
00000009,45,1,1447434430525,1447434431063,1039,276,0,0,0,2,0,2,2,0003-00-0001-23.png,0001-00-0000-68.png
00000009,46,0,1447434431912,1447434431944,913,371,0,0,0,0,1,1,1,0001-00-0001-03.png,0005-00-0001-63.png
00000009,47,0,1447434435296,1447434435975,357,355,0,0,0,1,0,1,1,0005-00-0000-48.png,0001-00-0001-95.png
00000009,48,1,1447434440195,1447434440661,358,379,0,0,0,1,2,1,3,0005-00-0000-78.png,0003-00-0000-97.png
00000009,49,1,1447434441638,1447434441674,916,367,0,0,0,4,0,4,4,0004-00-0001-27.png,0001-00-0001-68.png
00000009,50,0,1447434442698,1447434442718,867,336,0,0,0,2,3,1,5,0003-00-0000-40.png,0002-00-0000-13.png
00000009,51,1,1447434445743,1447434446297,1033,263,0,0,0,4,3,1,7,0004-00-0001-18.png,0002-00-0001-45.png
00000009,52,1,1447434447194,1447434448125,919,327,0,0,0,4,2,2,6,0004-00-0000-69.png,0003-00-0001-69.png
00000009,53,1,1447434449101,1447434449726,465,259,0,0,0,0,4,4,4,0001-00-0000-05.png,0004-00-0000-93.png
00000009,54,0,1447434450611,1447434451245,457,243,0,0,0,3,2,1,5,0002-00-0001-02.png,0003-00-0001-49.png
00000009,55,0,1447434454368,1447434454392,927,294,0,0,0,1,3,2,4,0005-00-0000-72.png,0002-00-0000-58.png
00000009,56,0,1447434457350,1447434457547,862,419,0,0,0,0,2,2,2,0001-00-0000-40.png,0003-00-0000-50.png
00000009,57,0,1447434460688,1447434460725,890,303,0,0,0,2,4,2,6,0003-00-0000-37.png,0004-00-0000-07.png
00000009,58,1,1447434463630,1447434464175,1073,259,0,0,0,4,1,3,5,0004-00-0001-38.png,0005-00-0001-97.png
00000009,59,1,1447434465030,1447434465695,933,336,0,0,0,2,1,1,3,0003-00-0000-68.png,0005-00-0000-03.png
00000009,60,1,1447434466570,1447434467288,417,384,0,0,0,3,4,1,7,0002-00-0000-15.png,0004-00-0001-23.png
00000009,61,1,1447434468260,1447434469112,914,337,0,0,0,2,1,1,3,0003-00-0000-58.png,0005-00-0001-70.png
00000009,62,1,1447434470188,1447434471126,1043,262,0,0,0,2,0,2,2,0003-00-0001-75.png,0001-00-0001-91.png
00000009,63,1,1447434472057,1447434472093,888,396,0,0,0,3,1,2,4,0002-00-0000-39.png,0005-00-0000-48.png
00000009,64,0,1447434473218,1447434473242,876,441,0,0,0,2,3,1,5,0003-00-0001-61.png,0002-00-0001-12.png
00000009,65,0,1447434476626,1447434476634,867,302,0,0,0,0,1,1,1,0001-00-0001-34.png,0005-00-0001-08.png
00000009,66,1,1447434479640,1447434479672,886,384,0,0,0,4,1,3,5,0004-00-0000-49.png,0005-00-0000-35.png
00000009,67,1,1447434480553,1447434481408,427,373,0,0,0,1,2,1,3,0005-00-0001-58.png,0003-00-0001-60.png
00000009,68,1,1447434482333,1447434482921,492,246,0,0,0,0,2,2,2,0001-00-0001-49.png,0003-00-0001-77.png
00000009,69,1,1447434483873,1447434484775,1041,264,0,0,0,4,2,2,6,0004-00-0001-12.png,0003-00-0000-66.png
00000009,70,1,1447434485759,1447434486831,399,352,0,0,0,3,4,1,7,0002-00-0001-84.png,0004-00-0001-30.png
00000009,71,1,1447434487819,1447434488451,378,374,0,0,0,1,4,3,5,0005-00-0001-59.png,0004-00-0000-29.png
00000009,72,1,1447434489527,1447434489559,862,411,0,0,0,3,2,1,5,0002-00-0001-97.png,0003-00-0000-90.png
00000009,73,1,1447434490730,1447434491625,467,251,0,0,0,1,3,2,4,0005-00-0001-72.png,0002-00-0001-93.png
00000009,74,0,1447434492507,1447434493450,919,302,0,0,0,2,4,2,6,0003-00-0001-02.png,0004-00-0000-08.png
00000009,75,0,1447434496742,1447434496766,888,295,0,0,0,0,3,3,3,0001-00-0001-77.png,0002-00-0000-74.png
00000009,76,1,1447434499665,1447434500145,914,337,0,0,0,4,0,4,4,0004-00-0001-37.png,0001-00-0001-90.png
00000009,77,0,1447434500981,1447434501853,475,242,0,0,0,1,0,1,1,0005-00-0001-57.png,0001-00-0000-56.png
00000009,78,0,1447434505091,1447434505183,964,253,0,0,0,0,4,4,4,0001-00-0001-74.png,0004-00-0000-85.png
00000009,79,1,1447434508529,1447434508557,912,324,0,0,0,3,0,3,3,0002-00-0000-32.png,0001-00-0001-38.png
00000009,80,1,1447434509563,1447434510483,1026,253,0,0,0,4,3,1,7,0004-00-0001-40.png,0002-00-0000-65.png
00000009,81,0,1447434511412,1447434511456,866,402,0,0,0,1,3,2,4,0005-00-0001-17.png,0002-00-0000-87.png
00000009,82,1,1447434514949,1447434515224,926,279,0,0,0,3,0,3,3,0002-00-0001-32.png,0001-00-0000-16.png
00000009,83,1,1447434516172,1447434516244,869,454,0,0,0,4,3,1,7,0004-00-0001-11.png,0002-00-0001-75.png
00000009,84,1,1447434517264,1447434518031,491,243,0,0,0,0,2,2,2,0001-00-0000-57.png,0003-00-0000-27.png
00000009,85,0,1447434518892,1447434518940,878,391,0,0,0,2,3,1,5,0003-00-0001-66.png,0002-00-0001-64.png
00000009,86,0,1447434522055,1447434522657,480,266,0,0,0,1,0,1,1,0005-00-0000-50.png,0001-00-0001-51.png
00000009,87,0,1447434525731,1447434525763,890,306,0,0,0,1,2,1,3,0005-00-0001-12.png,0003-00-0001-09.png
00000009,88,0,1447434528598,1447434529207,1067,253,0,0,0,0,3,3,3,0001-00-0001-78.png,0002-00-0000-80.png
00000009,89,0,1447434532177,1447434532255,878,367,0,0,0,1,4,3,5,0005-00-0001-95.png,0004-00-0000-17.png
00000009,90,1,1447434535361,1447434535397,901,280,0,0,0,2,1,1,3,0003-00-0000-97.png,0005-00-0000-55.png
00000009,91,1,1447434536385,1447434537146,921,320,0,0,0,3,1,2,4,0002-00-0001-07.png,0005-00-0000-42.png
00000009,92,0,1447434538034,1447434538070,862,410,0,0,0,2,4,2,6,0003-00-0000-86.png,0004-00-0001-72.png
00000009,93,1,1447434541156,1447434541415,981,334,0,0,0,4,2,2,6,0004-00-0000-82.png,0003-00-0001-56.png
00000009,94,1,1447434542408,1447434542464,884,429,0,0,0,4,0,4,4,0004-00-0000-93.png,0001-00-0000-70.png
00000009,95,0,1447434543412,1447434544114,502,234,0,0,0,3,2,1,5,0002-00-0001-43.png,0003-00-0001-44.png
00000009,96,0,1447434547312,1447434547352,917,301,0,0,0,0,1,1,1,0001-00-0000-68.png,0005-00-0000-91.png
00000009,97,1,1447434550315,1447434550808,484,244,0,0,0,3,4,1,7,0002-00-0000-89.png,0004-00-0001-82.png
00000009,98,1,1447434551634,1447434551662,864,422,0,0,0,4,1,3,5,0004-00-0001-36.png,0005-00-0000-95.png
00000009,99,1,1447434552674,1447434553374,374,378,0,0,0,0,4,4,4,0001-00-0001-98.png,0004-00-0001-87.png
00000009,100,1,1447434554212,1447434554919,1045,268,0,0,0,2,0,2,2,0003-00-0000-19.png,0001-00-0000-58.png
00000009,101,0,1447434555943,1447434555967,867,417,0,0,0,2,3,1,5,0003-00-0000-42.png,0002-00-0000-03.png
00000009,102,1,1447434558964,1447434559498,985,392,0,0,0,2,0,2,2,0003-00-0000-46.png,0001-00-0001-19.png
00000009,103,1,1447434560331,1447434560936,441,240,0,0,0,1,3,2,4,0005-00-0001-98.png,0002-00-0000-42.png
00000009,104,0,1447434561813,1447434562534,403,348,0,0,0,3,1,2,4,0002-00-0000-91.png,0005-00-0001-94.png
00000009,105,0,1447434565691,1447434565715,914,291,0,0,0,3,4,1,7,0002-00-0001-04.png,0004-00-0000-01.png
00000009,106,0,1447434568761,1447434569259,1041,267,0,0,0,2,4,2,6,0003-00-0001-33.png,0004-00-0000-70.png
00000009,107,1,1447434572270,1447434572294,881,330,0,0,0,4,2,2,6,0004-00-0000-19.png,0003-00-0000-91.png
00000009,108,1,1447434573255,1447434573856,447,244,0,0,0,0,3,3,3,0001-00-0001-26.png,0002-00-0000-74.png
00000009,109,0,1447434574744,1447434575695,438,239,0,0,0,1,0,1,1,0005-00-0000-60.png,0001-00-0001-37.png
00000009,110,1,1447434578631,1447434579299,509,256,0,0,0,0,4,4,4,0001-00-0001-69.png,0004-00-0000-63.png
00000009,111,1,1447434580243,1447434580267,857,409,0,0,0,4,1,3,5,0004-00-0000-16.png,0005-00-0001-21.png
00000009,112,1,1447434581215,1447434581980,504,239,0,0,0,1,2,1,3,0005-00-0001-56.png,0003-00-0001-81.png
00000009,113,1,1447434582893,1447434582921,868,411,0,0,0,4,0,4,4,0004-00-0000-08.png,0001-00-0000-56.png
00000009,114,1,1447434583997,1447434584742,445,327,0,0,0,1,4,3,5,0005-00-0000-51.png,0004-00-0001-43.png
00000009,115,1,1447434585893,1447434586837,1041,266,0,0,0,4,3,1,7,0004-00-0001-86.png,0002-00-0001-74.png
00000009,116,1,1447434587763,1447434588470,920,330,0,0,0,2,1,1,3,0003-00-0001-56.png,0005-00-0000-88.png
00000009,117,1,1447434589432,1447434589448,888,401,0,0,0,3,2,1,5,0002-00-0001-00.png,0003-00-0001-26.png
00000009,118,0,1447434590665,1447434590701,895,453,0,0,0,0,1,1,1,0001-00-0001-45.png,0005-00-0001-81.png
00000009,119,1,1447434593874,1447434594666,330,360,0,0,0,0,2,2,2,0001-00-0000-70.png,0003-00-0001-19.png
00000009,120,1,1447434595532,1447434596226,922,321,0,0,0,3,0,3,3,0002-00-0001-39.png,0001-00-0000-03.png
00000009,121,0,1447434597143,1447434597167,869,407,0,0,0,0,2,2,2,0001-00-0000-14.png,0003-00-0000-75.png
00000009,122,1,1447434600234,1447434600709,508,253,0,0,0,1,2,1,3,0005-00-0001-57.png,0003-00-0001-56.png
00000009,123,1,1447434601523,1447434602618,467,254,0,0,0,2,4,2,6,0003-00-0001-27.png,0004-00-0001-02.png
00000009,124,1,1447434603542,1447434604173,373,321,0,0,0,0,4,4,4,0001-00-0000-35.png,0004-00-0001-03.png
00000009,125,1,1447434605144,1447434605168,859,468,0,0,0,2,1,1,3,0003-00-0001-37.png,0005-00-0000-86.png
00000009,126,1,1447434606225,1447434606261,862,436,0,0,0,3,1,2,4,0002-00-0001-99.png,0005-00-0000-56.png
00000009,127,1,1447434607269,1447434608030,493,223,0,0,0,1,4,3,5,0005-00-0000-42.png,0004-00-0001-79.png
00000009,128,0,1447434608907,1447434608927,871,389,0,0,0,3,4,1,7,0002-00-0001-07.png,0004-00-0001-89.png
00000009,129,1,1447434611766,1447434612303,380,364,0,0,0,0,1,1,1,0001-00-0000-26.png,0005-00-0000-34.png
00000009,130,1,1447434613138,1447434613779,1017,249,0,0,0,3,0,3,3,0002-00-0000-44.png,0001-00-0000-58.png
00000009,131,1,1447434614701,1447434615373,344,371,0,0,0,1,3,2,4,0005-00-0001-09.png,0002-00-0000-31.png
00000009,132,1,1447434616303,1447434616949,491,240,0,0,0,0,3,3,3,0001-00-0000-21.png,0002-00-0001-62.png
00000009,133,1,1447434617902,1447434618565,496,236,0,0,0,2,3,1,5,0003-00-0001-87.png,0002-00-0000-72.png
00000009,134,1,1447434619591,1447434619615,862,419,0,0,0,2,0,2,2,0003-00-0001-53.png,0001-00-0001-43.png
00000009,135,1,1447434620764,1447434620800,865,444,0,0,0,3,2,1,5,0002-00-0000-64.png,0003-00-0000-51.png
00000009,136,1,1447434621936,1447434622934,1058,253,0,0,0,4,1,3,5,0004-00-0001-50.png,0005-00-0001-04.png
00000009,137,0,1447434623843,1447434624468,485,245,0,0,0,4,3,1,7,0004-00-0000-52.png,0002-00-0001-34.png
00000009,138,1,1447434627701,1447434628225,1070,263,0,0,0,4,0,4,4,0004-00-0000-27.png,0001-00-0001-17.png
00000009,139,1,1447434629080,1447434629916,939,408,0,0,0,4,2,2,6,0004-00-0000-60.png,0003-00-0000-42.png
00000009,140,1,1447434630919,1447434630943,894,401,0,0,0,1,0,1,1,0005-00-0000-37.png,0001-00-0001-49.png
00000009,141,1,1447434632023,1447434633422,483,244,0,0,0,1,3,2,4,0005-00-0000-36.png,0002-00-0001-68.png
00000009,142,0,1447434634327,1447434634351,866,367,0,0,0,0,1,1,1,0001-00-0001-49.png,0005-00-0000-55.png
00000009,143,0,1447434637238,1447434637294,900,393,0,0,0,3,4,1,7,0002-00-0001-91.png,0004-00-0000-61.png
00000009,144,1,1447434640250,1447434640318,869,354,0,0,0,3,1,2,4,0002-00-0000-59.png,0005-00-0000-85.png
00000009,145,1,1447434641224,1447434641809,930,346,0,0,0,4,3,1,7,0004-00-0000-28.png,0002-00-0001-14.png
00000009,146,0,1447434642795,1447434642827,862,358,0,0,0,0,3,3,3,0001-00-0001-72.png,0002-00-0000-42.png
00000009,147,0,1447434645947,1447434646572,462,270,0,0,0,3,2,1,5,0002-00-0000-91.png,0003-00-0001-30.png
00000009,148,0,1447434649543,1447434649547,891,382,0,0,0,2,3,1,5,0003-00-0001-42.png,0002-00-0000-40.png
00000009,149,1,1447434652490,1447434652965,385,350,0,0,0,0,4,4,4,0001-00-0001-82.png,0004-00-0000-60.png
00000009,150,1,1447434653801,1447434654500,1044,301,0,0,0,4,0,4,4,0004-00-0001-28.png,0001-00-0001-42.png
00000009,151,1,1447434655404,1447434655452,873,410,0,0,0,4,1,3,5,0004-00-0000-43.png,0005-00-0000-61.png
00000009,152,1,1447434656440,1447434656504,862,410,0,0,0,4,2,2,6,0004-00-0000-40.png,0003-00-0001-06.png
00000009,153,1,1447434657671,1447434658308,470,243,0,0,0,0,2,2,2,0001-00-0001-90.png,0003-00-0000-33.png
00000009,154,1,1447434659148,1447434659886,1034,296,0,0,0,3,0,3,3,0002-00-0001-18.png,0001-00-0001-14.png
00000009,155,1,1447434660771,1447434660819,888,384,0,0,0,2,1,1,3,0003-00-0000-33.png,0005-00-0000-04.png
00000009,156,0,1447434661986,1447434662050,889,464,0,0,0,1,2,1,3,0005-00-0000-63.png,0003-00-0001-88.png
00000009,157,0,1447434664884,1447434664900,874,347,0,0,0,1,4,3,5,0005-00-0001-10.png,0004-00-0000-18.png
00000009,158,1,1447434667997,1447434668033,875,332,0,0,0,1,0,1,1,0005-00-0000-38.png,0001-00-0001-51.png
00000009,159,1,1447434668920,1447434669488,912,342,0,0,0,2,0,2,2,0003-00-0001-08.png,0001-00-0000-20.png
00000009,160,0,1447434670362,1447434671413,972,302,0,0,0,2,4,2,6,0003-00-0000-54.png,0004-00-0000-62.png
00000009,161,1,1447434674636,1447434675110,946,294,0,0,0,2,1,1,3,0003-00-0001-65.png,0005-00-0001-60.png
00000009,162,0,1447434676392,1447434676706,969,520,0,0,0,0,1,1,1,0001-00-0000-96.png,0005-00-0000-47.png
00000009,163,1,1447434679542,1447434680069,455,289,0,0,0,3,4,1,7,0002-00-0000-82.png,0004-00-0001-44.png
00000009,164,0,1447434680903,1447434681648,920,344,0,0,0,2,4,2,6,0003-00-0000-96.png,0004-00-0000-43.png
00000009,165,1,1447434684761,1447434684797,950,278,0,0,0,3,1,2,4,0002-00-0000-12.png,0005-00-0001-78.png
00000009,166,1,1447434685725,1447434686575,944,431,0,0,0,2,0,2,2,0003-00-0000-29.png,0001-00-0000-90.png
00000009,167,0,1447434687959,1447434687995,874,384,0,0,0,2,3,1,5,0003-00-0000-43.png,0002-00-0001-74.png
00000009,168,1,1447434690972,1447434691498,1057,276,0,0,0,4,0,4,4,0004-00-0000-94.png,0001-00-0000-11.png
00000009,169,1,1447434692832,1447434693045,962,466,0,0,0,4,2,2,6,0004-00-0000-05.png,0003-00-0000-86.png
00000009,170,1,1447434694064,1447434694772,462,278,0,0,0,0,4,4,4,0001-00-0001-86.png,0004-00-0001-60.png
00000009,171,0,1447434695942,1447434696016,870,422,0,0,0,1,4,3,5,0005-00-0000-72.png,0004-00-0001-37.png
00000009,172,1,1447434699082,1447434699595,482,281,0,0,0,0,3,3,3,0001-00-0001-92.png,0002-00-0001-82.png
00000009,173,0,1447434700901,1447434701094,963,487,0,0,0,0,2,2,2,0001-00-0000-50.png,0003-00-0001-60.png
00000009,174,1,1447434703951,1447434704188,899,388,0,0,0,3,0,3,3,0002-00-0000-21.png,0001-00-0000-01.png
00000009,175,0,1447434705073,1447434705663,492,247,0,0,0,3,2,1,5,0002-00-0001-72.png,0003-00-0001-64.png
00000009,176,1,1447434708770,1447434708826,916,314,0,0,0,1,0,1,1,0005-00-0000-20.png,0001-00-0001-12.png
00000009,177,1,1447434709674,1447434710261,477,240,0,0,0,1,2,1,3,0005-00-0000-49.png,0003-00-0001-40.png
00000009,178,0,1447434711186,1447434712091,1041,268,0,0,0,1,3,2,4,0005-00-0001-73.png,0002-00-0000-24.png
00000009,179,1,1447434715186,1447434715206,939,306,0,0,0,4,1,3,5,0004-00-0000-61.png,0005-00-0001-38.png
00000009,180,0,1447434716078,1447434716663,522,235,0,0,0,4,3,1,7,0004-00-0000-67.png,0002-00-0001-07.png
00000009,181,0,1447434719519,1447434719543,871,398,0,0,0,2,4,2,6,0003-00-0000-84.png,0004-00-0001-03.png
00000009,182,1,1447434722575,1447434723216,476,256,0,0,0,1,4,3,5,0005-00-0001-74.png,0004-00-0001-81.png
00000009,183,1,1447434724579,1447434724874,981,506,0,0,0,3,1,2,4,0002-00-0000-54.png,0005-00-0000-62.png
00000009,184,1,1447434725864,1447434726453,382,353,0,0,0,0,3,3,3,0001-00-0001-20.png,0002-00-0001-66.png
00000009,185,1,1447434727453,1447434728441,925,334,0,0,0,3,2,1,5,0002-00-0000-97.png,0003-00-0000-69.png
00000009,186,1,1447434729286,1447434730016,1067,265,0,0,0,4,0,4,4,0004-00-0001-94.png,0001-00-0000-78.png
00000009,187,1,1447434730971,1447434730995,863,362,0,0,0,2,0,2,2,0003-00-0000-30.png,0001-00-0001-37.png
00000009,188,1,1447434732043,1447434732769,470,274,0,0,0,0,2,2,2,0001-00-0000-81.png,0003-00-0001-24.png
00000009,189,1,1447434733704,1447434734657,1033,269,0,0,0,4,2,2,6,0004-00-0000-87.png,0003-00-0000-94.png
00000009,190,0,1447434735592,1447434735636,862,397,0,0,0,1,3,2,4,0005-00-0000-81.png,0002-00-0000-36.png
00000009,191,1,1447434738491,1447434739068,485,260,0,0,0,0,1,1,1,0001-00-0001-53.png,0005-00-0001-76.png
00000009,192,1,1447434739911,1447434740532,462,233,0,0,0,0,4,4,4,0001-00-0000-18.png,0004-00-0000-59.png
00000009,193,1,1447434741465,1447434742289,1065,314,0,0,0,4,3,1,7,0004-00-0001-53.png,0002-00-0000-67.png
00000009,194,1,1447434743192,1447434743240,862,384,0,0,0,2,1,1,3,0003-00-0000-26.png,0005-00-0001-03.png
00000009,195,0,1447434744418,1447434744434,857,440,0,0,0,2,3,1,5,0003-00-0000-36.png,0002-00-0001-17.png
00000009,196,1,1447434747508,1447434748014,482,274,0,0,0,3,4,1,7,0002-00-0001-81.png,0004-00-0000-76.png
00000009,197,1,1447434748835,1447434749469,936,303,0,0,0,3,0,3,3,0002-00-0000-07.png,0001-00-0000-24.png
00000009,198,1,1447434750368,1447434750404,884,388,0,0,0,1,0,1,1,0005-00-0001-87.png,0001-00-0000-80.png
00000009,199,0,1447434751542,1447434751558,866,421,0,0,0,1,2,1,3,0005-00-0000-63.png,0003-00-0001-92.png
00000009,200,1,1447434754681,1447434754737,931,308,0,0,0,4,1,3,5,0004-00-0001-82.png,0005-00-0001-99.png
00000009,201,1,1447434755626,1447434756195,487,220,0,0,0,0,2,2,2,0001-00-0000-24.png,0003-00-0000-74.png
00000009,202,1,1447434757157,1447434758123,390,327,0,0,0,3,4,1,7,0002-00-0000-91.png,0004-00-0000-35.png
00000009,203,1,1447434759055,1447434759079,871,405,0,0,0,2,0,2,2,0003-00-0001-76.png,0001-00-0000-37.png
00000009,204,1,1447434760176,1447434760839,507,232,0,0,0,1,2,1,3,0005-00-0001-13.png,0003-00-0001-06.png
00000009,205,1,1447434761706,1447434762544,1052,310,0,0,0,3,0,3,3,0002-00-0000-40.png,0001-00-0000-54.png
00000009,206,0,1447434763485,1447434763521,934,397,0,0,0,0,4,4,4,0001-00-0001-53.png,0004-00-0001-95.png
00000009,207,1,1447434766676,1447434767159,952,314,0,0,0,4,1,3,5,0004-00-0000-74.png,0005-00-0001-16.png
00000009,208,0,1447434767994,1447434768611,478,245,0,0,0,1,0,1,1,0005-00-0000-77.png,0001-00-0000-89.png
00000009,209,0,1447434771565,1447434771621,862,384,0,0,0,1,4,3,5,0005-00-0000-32.png,0004-00-0000-89.png
00000009,210,1,1447434774756,1447434774764,915,333,0,0,0,2,1,1,3,0003-00-0000-98.png,0005-00-0000-15.png
00000009,211,1,1447434775770,1447434776576,461,232,0,0,0,2,4,2,6,0003-00-0001-43.png,0004-00-0001-37.png
00000009,212,1,1447434777479,1447434778290,436,375,0,0,0,0,3,3,3,0001-00-0000-37.png,0002-00-0000-48.png
00000009,213,1,1447434779227,1447434779857,467,264,0,0,0,0,1,1,1,0001-00-0000-89.png,0005-00-0001-26.png
00000009,214,1,1447434780939,1447434781700,1064,298,0,0,0,4,3,1,7,0004-00-0001-01.png,0002-00-0001-39.png
00000009,215,0,1447434782725,1447434782769,902,396,0,0,0,1,3,2,4,0005-00-0001-33.png,0002-00-0000-98.png
00000009,216,1,1447434785963,1447434786448,943,316,0,0,0,4,2,2,6,0004-00-0000-18.png,0003-00-0001-54.png
00000009,217,1,1447434787704,1447434788539,915,299,0,0,0,4,0,4,4,0004-00-0000-41.png,0001-00-0000-95.png
00000009,218,1,1447434789392,1447434790099,1041,263,0,0,0,3,1,2,4,0002-00-0000-22.png,0005-00-0000-68.png
00000009,219,0,1447434791063,1447434791071,860,392,0,0,0,2,3,1,5,0003-00-0001-46.png,0002-00-0001-48.png
00000009,220,1,1447434794214,1447434794755,1101,269,0,0,0,3,2,1,5,0002-00-0000-14.png,0003-00-0001-59.png
00000009,221,1,1447434795599,1447434795694,902,436,0,0,0,3,0,3,3,0002-00-0000-19.png,0001-00-0001-40.png
00000009,222,1,1447434796767,1447434796823,862,436,0,0,0,2,0,2,2,0003-00-0001-26.png,0001-00-0000-85.png
00000009,223,0,1447434797769,1447434797833,888,419,0,0,0,0,1,1,1,0001-00-0001-85.png,0005-00-0001-87.png
00000009,224,0,1447434800779,1447434800787,869,307,0,0,0,3,4,1,7,0002-00-0001-95.png,0004-00-0001-81.png
00000009,225,1,1447434803684,1447434804190,415,409,0,0,0,0,2,2,2,0001-00-0000-25.png,0003-00-0001-71.png
00000009,226,0,1447434805891,1447434805915,901,283,0,0,0,2,3,1,5,0003-00-0001-40.png,0002-00-0001-71.png
00000009,227,0,1447434809040,1447434809066,892,309,0,0,0,1,2,1,3,0005-00-0000-78.png,0003-00-0000-54.png
00000009,228,1,1447434812170,1447434812646,504,264,0,0,0,1,4,3,5,0005-00-0000-58.png,0004-00-0000-17.png
00000009,229,0,1447434813521,1447434814585,996,246,0,0,0,2,4,2,6,0003-00-0001-31.png,0004-00-0001-60.png
00000009,230,1,1447434817508,1447434818014,481,275,0,0,0,0,4,4,4,0001-00-0000-99.png,0004-00-0001-84.png
00000009,231,0,1447434818856,1447434819565,1031,272,0,0,0,0,3,3,3,0001-00-0001-71.png,0002-00-0001-57.png
00000009,232,1,1447434822566,1447434823037,1072,283,0,0,0,4,0,4,4,0004-00-0001-98.png,0001-00-0000-42.png
00000009,233,1,1447434824375,1447434825129,1067,265,0,0,0,4,3,1,7,0004-00-0000-53.png,0002-00-0001-05.png
00000009,234,1,1447434825970,1447434826728,1067,264,0,0,0,2,1,1,3,0003-00-0001-39.png,0005-00-0000-90.png
00000009,235,1,1447434827871,1447434827899,864,376,0,0,0,1,0,1,1,0005-00-0000-26.png,0001-00-0001-54.png
00000009,236,1,1447434829065,1447434829129,888,436,0,0,0,4,1,3,5,0004-00-0000-30.png,0005-00-0000-10.png
00000009,237,0,1447434830298,1447434830354,881,442,0,0,0,1,3,2,4,0005-00-0000-64.png,0002-00-0000-03.png
00000009,238,1,1447434833308,1447434833384,934,323,0,0,0,3,1,2,4,0002-00-0001-17.png,0005-00-0001-42.png
00000009,239,1,1447434834270,1447434835064,1051,279,0,0,0,4,2,2,6,0004-00-0001-82.png,0003-00-0000-31.png
00000009,240,1,1447434835982,1447434836006,888,392,0,0,0,3,2,1,5,0002-00-0001-58.png,0003-00-0000-73.png
00000009,241,0,1447434837051,1447434837079,862,410,0,0,0,2,3,1,5,0003-00-0001-31.png,0002-00-0000-43.png
00000009,242,0,1447434840124,1447434840148,858,353,0,0,0,2,4,2,6,0003-00-0000-41.png,0004-00-0001-68.png
00000009,243,1,1447434843284,1447434843727,955,338,0,0,0,4,3,1,7,0004-00-0000-40.png,0002-00-0001-97.png
00000009,244,1,1447434844561,1447434845225,1057,261,0,0,0,1,0,1,1,0005-00-0000-21.png,0001-00-0000-76.png
00000009,245,1,1447434846070,1447434846134,881,391,0,0,0,4,0,4,4,0004-00-0001-63.png,0001-00-0000-65.png
00000009,246,0,1447434847211,1447434847255,890,432,0,0,0,0,1,1,1,0001-00-0001-79.png,0005-00-0001-15.png
00000009,247,0,1447434850371,1447434850628,878,358,0,0,0,3,4,1,7,0002-00-0000-01.png,0004-00-0000-31.png
00000009,248,1,1447434853476,1447434853950,1041,244,0,0,0,2,0,2,2,0003-00-0000-12.png,0001-00-0000-09.png
00000009,249,1,1447434854777,1447434854817,859,389,0,0,0,3,0,3,3,0002-00-0000-50.png,0001-00-0000-31.png
00000009,250,0,1447434855825,1447434855861,859,426,0,0,0,1,4,3,5,0005-00-0001-04.png,0004-00-0001-46.png
00000009,251,1,1447434858995,1447434859023,898,308,0,0,0,4,2,2,6,0004-00-0000-96.png,0003-00-0001-50.png
00000009,252,1,1447434859960,1447434860565,415,384,0,0,0,0,3,3,3,0001-00-0000-56.png,0002-00-0001-89.png
00000009,253,1,1447434861509,1447434862114,462,253,0,0,0,0,2,2,2,0001-00-0001-23.png,0003-00-0001-53.png
00000009,254,1,1447434863080,1447434863979,937,316,0,0,0,3,1,2,4,0002-00-0000-17.png,0005-00-0001-80.png
00000009,255,0,1447434864899,1447434864955,921,406,0,0,0,1,2,1,3,0005-00-0000-71.png,0003-00-0001-29.png
00000009,256,0,1447434867788,1447434868234,939,367,0,0,0,1,3,2,4,0005-00-0000-50.png,0002-00-0000-47.png
00000009,257,1,1447434871317,1447434871341,901,358,0,0,0,3,2,1,5,0002-00-0000-89.png,0003-00-0001-20.png
00000009,258,1,1447434872230,1447434872822,513,277,0,0,0,0,4,4,4,0001-00-0000-13.png,0004-00-0000-45.png
00000009,259,0,1447434873655,1447434874224,467,241,0,0,0,4,1,3,5,0004-00-0000-63.png,0005-00-0000-47.png
00000009,260,1,1447434877211,1447434877695,1073,298,0,0,0,2,1,1,3,0003-00-0000-96.png,0005-00-0000-84.png
00000009,261,1,1447434879038,1447434879715,453,410,0,0,0,2,4,2,6,0003-00-0000-76.png,0004-00-0001-04.png
00000009,262,0,1447434880553,1447434881243,923,332,0,0,0,3,4,1,7,0002-00-0001-96.png,0004-00-0001-52.png
00000009,263,1,1447434884208,1447434884224,934,345,0,0,0,3,0,3,3,0002-00-0001-70.png,0001-00-0000-90.png
00000009,264,0,1447434885152,1447434885773,476,271,0,0,0,4,3,1,7,0004-00-0001-94.png,0002-00-0000-92.png
00000009,265,1,1447434888643,1447434889221,859,353,0,0,0,4,2,2,6,0004-00-0000-80.png,0003-00-0001-70.png
00000009,266,1,1447434890198,1447434890775,433,240,0,0,0,0,4,4,4,0001-00-0001-43.png,0004-00-0000-83.png
00000009,267,1,1447434891769,1447434892510,1052,253,0,0,0,3,2,1,5,0002-00-0001-18.png,0003-00-0000-69.png
00000009,268,1,1447434893517,1447434894263,415,243,0,0,0,0,3,3,3,0001-00-0001-89.png,0002-00-0000-00.png
00000009,269,1,1447434895187,1447434895448,918,306,0,0,0,2,1,1,3,0003-00-0001-55.png,0005-00-0000-12.png
00000009,270,0,1447434896679,1447434897204,984,435,0,0,0,1,2,1,3,0005-00-0000-92.png,0003-00-0000-14.png
00000009,271,0,1447434900458,1447434900999,412,290,0,0,0,4,0,4,4,0004-00-0000-41.png,0001-00-0000-47.png
00000009,272,0,1447434904112,1447434904136,865,330,0,0,0,1,4,3,5,0005-00-0000-34.png,0004-00-0001-77.png
00000009,273,1,1447434907094,1447434907597,455,275,0,0,0,2,3,1,5,0003-00-0000-73.png,0002-00-0001-08.png
00000009,274,0,1447434908534,1447434909515,448,224,0,0,0,4,1,3,5,0004-00-0000-69.png,0005-00-0001-83.png
00000009,275,0,1447434912698,1447434912789,875,299,0,0,0,0,2,2,2,0001-00-0000-90.png,0003-00-0001-42.png
00000009,276,0,1447434916474,1447434918596,439,281,0,0,0,3,1,2,4,0002-00-0000-74.png,0005-00-0001-39.png
00000009,277,1,1447434921752,1447434922323,964,332,0,0,0,1,0,1,1,0005-00-0001-00.png,0001-00-0000-28.png
00000009,278,1,1447434923499,1447434924195,496,244,0,0,0,0,1,1,1,0001-00-0001-64.png,0005-00-0000-57.png
00000009,279,1,1447434925369,1447434926090,376,371,0,0,0,1,3,2,4,0005-00-0001-50.png,0002-00-0001-61.png
00000009,280,1,1447434927139,1447434928031,1045,307,0,0,0,2,0,2,2,0003-00-0000-21.png,0001-00-0001-17.png
00000009,281,1,1447434929025,1447434929061,870,400,0,0,0,4,0,4,4,0004-00-0000-58.png,0001-00-0001-37.png
00000009,282,1,1447434930128,1447434930176,869,454,0,0,0,4,1,3,5,0004-00-0001-94.png,0005-00-0001-14.png
00000009,283,0,1447434931262,1447434931322,871,456,0,0,0,0,1,1,1,0001-00-0000-93.png,0005-00-0000-97.png
00000009,284,1,1447434934321,1447434934388,891,353,0,0,0,2,1,1,3,0003-00-0001-08.png,0005-00-0001-43.png
00000009,285,1,1447434935327,1447434935391,862,443,0,0,0,1,0,1,1,0005-00-0000-11.png,0001-00-0000-18.png
00000009,286,0,1447434936449,1447434936501,888,398,0,0,0,1,2,1,3,0005-00-0001-76.png,0003-00-0001-20.png
00000009,287,0,1447434939669,1447434939685,907,305,0,0,0,2,3,1,5,0003-00-0000-90.png,0002-00-0001-31.png
00000009,288,1,1447434942780,1447434942796,914,333,0,0,0,2,0,2,2,0003-00-0000-17.png,0001-00-0000-83.png
00000009,289,0,1447434943672,1447434944528,1016,266,0,0,0,1,3,2,4,0005-00-0001-35.png,0002-00-0001-71.png
00000009,290,1,1447434947616,1447434947644,933,332,0,0,0,3,0,3,3,0002-00-0000-05.png,0001-00-0001-58.png
00000009,291,0,1447434948614,1447434948650,870,358,0,0,0,0,2,2,2,0001-00-0000-50.png,0003-00-0000-16.png
00000009,292,0,1447434951483,1447434951519,896,383,0,0,0,3,4,1,7,0002-00-0000-86.png,0004-00-0000-15.png
00000009,293,1,1447434954573,1447434954621,957,353,0,0,0,4,2,2,6,0004-00-0000-56.png,0003-00-0000-57.png
00000009,294,0,1447434955549,1447434956225,931,394,0,0,0,1,4,3,5,0005-00-0001-66.png,0004-00-0000-67.png
00000009,295,0,1447434959266,1447434959740,1076,254,0,0,0,0,4,4,4,0001-00-0000-36.png,0004-00-0001-78.png
00000009,296,1,1447434962854,1447434962890,913,332,0,0,0,3,1,2,4,0002-00-0001-38.png,0005-00-0001-19.png
00000009,297,1,1447434963828,1447434964501,446,222,0,0,0,2,4,2,6,0003-00-0001-68.png,0004-00-0001-98.png
00000009,298,0,1447434965498,1447434965581,872,425,0,0,0,0,3,3,3,0001-00-0001-72.png,0002-00-0001-02.png
00000009,299,0,1447434968610,1447434969340,386,381,0,0,0,4,3,1,7,0004-00-0001-34.png,0002-00-0001-61.png
00000009,300,1,1447434972434,1447434972470,919,377,0,0,0,3,2,1,5,0002-00-0000-20.png,0003-00-0001-79.png
00000009,301,1,1447434973377,1447434974366,397,369,0,0,0,1,2,1,3,0005-00-0001-69.png,0003-00-0000-95.png
00000009,302,0,1447434975345,1447434975955,396,361,0,0,0,3,2,1,5,0002-00-0001-31.png,0003-00-0001-36.png
00000009,303,1,1447434978823,1447434979472,395,356,0,0,0,3,4,1,7,0002-00-0000-14.png,0004-00-0001-15.png
00000009,304,1,1447434980332,1447434980372,862,344,0,0,0,2,1,1,3,0003-00-0000-50.png,0005-00-0000-93.png
00000009,305,1,1447434981517,1447434982511,931,327,0,0,0,4,2,2,6,0004-00-0001-88.png,0003-00-0001-96.png
00000009,306,0,1447434983505,1447434983517,889,376,0,0,0,1,3,2,4,0005-00-0000-60.png,0002-00-0001-11.png
00000009,307,0,1447434986585,1447434987182,1088,252,0,0,0,0,1,1,1,0001-00-0000-26.png,0005-00-0000-00.png
00000009,308,1,1447434990332,1447434990848,964,304,0,0,0,4,3,1,7,0004-00-0000-09.png,0002-00-0000-26.png
00000009,309,0,1447434991732,1447434992357,381,317,0,0,0,3,0,3,3,0002-00-0001-67.png,0001-00-0001-37.png
00000009,310,1,1447434995520,1447434995966,969,309,0,0,0,2,0,2,2,0003-00-0001-89.png,0001-00-0000-30.png
00000009,311,1,1447434996829,1447434997471,389,397,0,0,0,1,4,3,5,0005-00-0000-43.png,0004-00-0001-53.png
00000009,312,0,1447434998450,1447434999386,1041,305,0,0,0,2,3,1,5,0003-00-0001-81.png,0002-00-0001-40.png
00000009,313,1,1447435002485,1447435002982,465,294,0,0,0,0,4,4,4,0001-00-0000-99.png,0004-00-0000-48.png
00000009,314,0,1447435003804,1447435004705,487,248,0,0,0,3,1,2,4,0002-00-0001-98.png,0005-00-0001-93.png
00000009,315,1,1447435007562,1447435007619,866,402,0,0,0,4,1,3,5,0004-00-0000-88.png,0005-00-0001-62.png
00000009,316,1,1447435008577,1447435009179,484,225,0,0,0,0,3,3,3,0001-00-0000-46.png,0002-00-0000-19.png
00000009,317,1,1447435010315,1447435011047,1030,279,0,0,0,4,0,4,4,0004-00-0000-67.png,0001-00-0001-30.png
00000009,318,1,1447435012086,1447435012138,880,429,0,0,0,1,0,1,1,0005-00-0000-13.png,0001-00-0000-38.png
00000009,319,1,1447435013317,1447435014048,513,245,0,0,0,0,2,2,2,0001-00-0001-53.png,0003-00-0001-83.png
00000009,320,0,1447435015027,1447435015055,877,410,0,0,0,2,4,2,6,0003-00-0000-10.png,0004-00-0001-56.png
00000009,321,1,1447435018177,1447435018221,929,322,0,0,0,3,1,2,4,0002-00-0000-37.png,0005-00-0001-75.png
00000009,322,1,1447435019180,1447435019216,869,426,0,0,0,4,3,1,7,0004-00-0001-92.png,0002-00-0000-74.png
00000009,323,1,1447435020284,1447435020360,871,462,0,0,0,3,0,3,3,0002-00-0001-13.png,0001-00-0000-84.png
00000009,324,0,1447435021347,1447435021363,866,409,0,0,0,2,4,2,6,0003-00-0000-68.png,0004-00-0000-00.png
00000009,325,0,1447435024387,1447435024407,912,371,0,0,0,1,2,1,3,0005-00-0001-60.png,0003-00-0000-22.png
00000009,326,1,1447435027449,1447435027517,932,332,0,0,0,3,2,1,5,0002-00-0001-13.png,0003-00-0000-51.png
00000009,327,1,1447435028401,1447435029298,966,319,0,0,0,4,2,2,6,0004-00-0000-08.png,0003-00-0001-50.png
00000009,328,0,1447435030222,1447435030277,913,424,0,0,0,3,4,1,7,0002-00-0001-71.png,0004-00-0001-01.png
00000009,329,1,1447435033322,1447435033836,424,374,0,0,0,1,4,3,5,0005-00-0000-22.png,0004-00-0000-23.png
00000009,330,0,1447435034704,1447435034728,900,389,0,0,0,0,1,1,1,0001-00-0001-61.png,0005-00-0001-96.png
00000009,331,0,1447435037674,1447435037762,939,384,0,0,0,0,3,3,3,0001-00-0000-36.png,0002-00-0001-23.png
00000009,332,1,1447435040726,1447435041240,974,302,0,0,0,2,0,2,2,0003-00-0000-82.png,0001-00-0001-83.png
00000009,333,1,1447435042071,1447435042742,498,236,0,0,0,2,3,1,5,0003-00-0001-11.png,0002-00-0001-11.png
00000009,334,1,1447435043677,1447435043712,875,401,0,0,0,4,0,4,4,0004-00-0000-23.png,0001-00-0000-69.png
00000009,335,0,1447435044729,1447435044808,875,422,0,0,0,0,2,2,2,0001-00-0000-76.png,0003-00-0000-57.png
00000009,336,0,1447435047928,1447435047964,865,330,0,0,0,0,4,4,4,0001-00-0001-10.png,0004-00-0000-53.png
00000009,337,1,1447435051020,1447435051048,899,349,0,0,0,4,1,3,5,0004-00-0001-11.png,0005-00-0000-21.png
00000009,338,1,1447435051953,1447435052583,911,335,0,0,0,2,1,1,3,0003-00-0001-83.png,0005-00-0001-36.png
00000009,339,0,1447435053442,1447435053486,895,421,0,0,0,1,3,2,4,0005-00-0000-93.png,0002-00-0000-44.png
00000009,340,0,1447435056643,1447435057262,423,382,0,0,0,1,0,1,1,0005-00-0001-58.png,0001-00-0001-88.png
00000009,341,0,1447435060402,1447435060426,904,331,0,0,0,1,4,3,5,0005-00-0000-23.png,0004-00-0001-41.png
00000009,342,1,1447435063531,1447435063555,866,352,0,0,0,1,0,1,1,0005-00-0000-68.png,0001-00-0000-24.png
00000009,343,1,1447435064445,1447435065019,492,244,0,0,0,1,2,1,3,0005-00-0000-24.png,0003-00-0001-39.png
00000009,344,1,1447435065885,1447435066786,939,400,0,0,0,4,1,3,5,0004-00-0001-41.png,0005-00-0000-81.png
00000009,345,1,1447435067724,1447435067760,888,398,0,0,0,4,3,1,7,0004-00-0000-83.png,0002-00-0000-57.png
00000009,346,1,1447435068818,1447435068834,861,420,0,0,0,2,0,2,2,0003-00-0001-75.png,0001-00-0001-17.png
00000009,347,1,1447435069971,1447435070003,893,452,0,0,0,3,1,2,4,0002-00-0001-97.png,0005-00-0001-92.png
00000009,348,0,1447435071251,1447435071307,888,462,0,0,0,2,4,2,6,0003-00-0000-37.png,0004-00-0001-10.png
00000009,349,1,1447435074195,1447435074729,485,280,0,0,0,0,2,2,2,0001-00-0001-48.png,0003-00-0001-47.png
00000009,350,1,1447435075963,1447435075991,862,374,0,0,0,2,1,1,3,0003-00-0000-77.png,0005-00-0000-57.png
00000009,351,0,1447435076996,1447435077051,862,424,0,0,0,3,4,1,7,0002-00-0000-07.png,0004-00-0001-28.png
00000009,352,0,1447435080186,1447435080673,1058,270,0,0,0,1,3,2,4,0005-00-0001-49.png,0002-00-0000-05.png
00000009,353,1,1447435083605,1447435084090,477,283,0,0,0,0,4,4,4,0001-00-0000-54.png,0004-00-0000-14.png
00000009,354,1,1447435085410,1447435085485,862,410,0,0,0,4,0,4,4,0004-00-0001-30.png,0001-00-0000-99.png
00000009,355,1,1447435086476,1447435087095,507,262,0,0,0,0,1,1,1,0001-00-0001-05.png,0005-00-0001-51.png
00000009,356,0,1447435088055,1447435088123,862,410,0,0,0,0,3,3,3,0001-00-0001-85.png,0002-00-0001-46.png
00000009,357,1,1447435091246,1447435091270,877,332,0,0,0,4,2,2,6,0004-00-0001-09.png,0003-00-0001-31.png
00000009,358,0,1447435092149,1447435093168,491,227,0,0,0,3,0,3,3,0002-00-0000-85.png,0001-00-0000-95.png
00000009,359,0,1447435096076,1447435096531,1064,273,0,0,0,2,3,1,5,0003-00-0001-63.png,0002-00-0000-08.png
00000009,360,0,1447435099643,1447435100180,482,248,0,0,0,3,2,1,5,0002-00-0001-97.png,0003-00-0001-91.png
00000009,361,0,1447435103329,1447435103357,896,330,0,0,0,2,4,2,6,0003-00-0001-31.png,0004-00-0000-65.png
00000009,362,1,1447435106492,1447435106496,866,352,0,0,0,3,2,1,5,0002-00-0000-11.png,0003-00-0000-38.png
00000009,363,0,1447435107417,1447435108018,484,238,0,0,0,4,0,4,4,0004-00-0000-06.png,0001-00-0001-69.png
00000009,364,1,1447435111063,1447435111554,437,434,0,0,0,0,4,4,4,0001-00-0001-57.png,0004-00-0000-94.png
00000009,365,1,1447435112401,1447435113121,931,315,0,0,0,4,3,1,7,0004-00-0000-75.png,0002-00-0001-57.png
00000009,366,1,1447435114044,1447435114096,923,417,0,0,0,4,1,3,5,0004-00-0001-99.png,0005-00-0000-90.png
00000009,367,0,1447435115157,1447435115213,888,428,0,0,0,1,4,3,5,0005-00-0000-13.png,0004-00-0001-88.png
00000009,368,1,1447435118387,1447435118884,1041,268,0,0,0,2,1,1,3,0003-00-0001-25.png,0005-00-0000-45.png
00000009,369,0,1447435120187,1447435120368,913,488,0,0,0,0,2,2,2,0001-00-0000-83.png,0003-00-0000-94.png
00000009,370,1,1447435123446,1447435123902,493,263,0,0,0,1,3,2,4,0005-00-0001-35.png,0002-00-0001-56.png
00000009,371,1,1447435125294,1447435125546,941,514,0,0,0,1,0,1,1,0005-00-0001-13.png,0001-00-0001-11.png
00000009,372,0,1447435126602,1447435126662,874,436,0,0,0,2,3,1,5,0003-00-0001-89.png,0002-00-0000-92.png
00000009,373,0,1447435129786,1447435129806,870,330,0,0,0,0,1,1,1,0001-00-0001-40.png,0005-00-0000-25.png
00000009,374,0,1447435132777,1447435132793,891,387,0,0,0,3,4,1,7,0002-00-0001-83.png,0004-00-0001-30.png
00000009,375,1,1447435135927,1447435136346,519,259,0,0,0,1,2,1,3,0005-00-0000-00.png,0003-00-0000-29.png
00000009,376,1,1447435137175,1447435137838,493,227,0,0,0,0,3,3,3,0001-00-0001-65.png,0002-00-0000-60.png
00000009,377,1,1447435138717,1447435139514,1062,311,0,0,0,3,1,2,4,0002-00-0001-58.png,0005-00-0001-89.png
00000009,378,1,1447435140450,1447435141463,1055,279,0,0,0,4,2,2,6,0004-00-0001-80.png,0003-00-0000-38.png
00000009,379,1,1447435142428,1447435142460,870,420,0,0,0,2,0,2,2,0003-00-0001-90.png,0001-00-0000-39.png
00000009,380,1,1447435143709,1447435143742,878,436,0,0,0,3,0,3,3,0002-00-0000-78.png,0001-00-0001-38.png
00000009,381,0,1447435144950,1447435145058,878,488,0,0,0,2,4,2,6,0003-00-0001-15.png,0004-00-0000-33.png
00000009,382,1,1447435148141,1447435148596,964,394,0,0,0,2,0,2,2,0003-00-0000-46.png,0001-00-0000-78.png
00000009,383,0,1447435149859,1447435149887,871,384,0,0,0,3,4,1,7,0002-00-0000-16.png,0004-00-0001-79.png
00000009,384,1,1447435152902,1447435153447,474,269,0,0,0,1,4,3,5,0005-00-0001-28.png,0004-00-0000-45.png
00000009,385,1,1447435154849,1447435154863,905,373,0,0,0,3,2,1,5,0002-00-0000-82.png,0003-00-0001-73.png
00000009,386,0,1447435155803,1447435156486,457,301,0,0,0,4,1,3,5,0004-00-0001-06.png,0005-00-0001-35.png
00000009,387,1,1447435159366,1447435159931,943,305,0,0,0,3,1,2,4,0002-00-0000-51.png,0005-00-0000-67.png
00000009,388,1,1447435161288,1447435161482,967,499,0,0,0,4,3,1,7,0004-00-0000-03.png,0002-00-0000-39.png
00000009,389,0,1447435162570,1447435162606,888,425,0,0,0,0,2,2,2,0001-00-0001-53.png,0003-00-0001-73.png
00000009,390,1,1447435165731,1447435165755,867,328,0,0,0,4,2,2,6,0004-00-0000-05.png,0003-00-0001-40.png
00000009,391,1,1447435166715,1447435166731,867,392,0,0,0,2,1,1,3,0003-00-0000-66.png,0005-00-0001-46.png
00000009,392,1,1447435167688,1447435168371,394,372,0,0,0,1,2,1,3,0005-00-0000-99.png,0003-00-0000-34.png
00000009,393,1,1447435169203,1447435170094,499,252,0,0,0,0,3,3,3,0001-00-0000-53.png,0002-00-0001-88.png
00000009,394,1,1447435171066,1447435171999,936,337,0,0,0,4,0,4,4,0004-00-0000-85.png,0001-00-0000-08.png
00000009,395,0,1447435173004,1447435173032,904,410,0,0,0,0,1,1,1,0001-00-0001-64.png,0005-00-0001-13.png
00000009,396,1,1447435175890,1447435176424,477,277,0,0,0,0,4,4,4,0001-00-0001-08.png,0004-00-0000-54.png
00000009,397,0,1447435177752,1447435177856,913,449,0,0,0,1,3,2,4,0005-00-0001-29.png,0002-00-0000-42.png
00000009,398,1,1447435181033,1447435181546,1067,266,0,0,0,1,0,1,1,0005-00-0001-44.png,0001-00-0001-57.png
00000009,399,1,1447435182416,1447435183211,494,245,0,0,0,2,3,1,5,0003-00-0001-01.png,0002-00-0001-74.png
00000009,400,1,1447435184133,1447435184189,862,400,0,0,0,3,0,3,3,0002-00-0000-02.png,0001-00-0001-11.png
00000009,401,0,1447435185287,1447435185327,862,422,0,0,0,3,4,1,7,0002-00-0000-83.png,0004-00-0001-82.png
00000009,402,0,1447435188228,1447435188256,862,416,0,0,0,0,3,3,3,0001-00-0000-69.png,0002-00-0001-83.png
00000009,403,0,1447435191151,1447435191639,1038,312,0,0,0,2,4,2,6,0003-00-0000-36.png,0004-00-0000-52.png
00000009,404,1,1447435194545,1447435194997,508,288,0,0,0,0,2,2,2,0001-00-0000-46.png,0003-00-0000-89.png
00000009,405,1,1447435196278,1447435196843,1041,305,0,0,0,2,0,2,2,0003-00-0000-05.png,0001-00-0001-57.png
00000009,406,0,1447435197676,1447435197724,860,388,0,0,0,0,4,4,4,0001-00-0001-48.png,0004-00-0001-71.png
00000009,407,0,1447435200681,1447435200717,878,385,0,0,0,1,4,3,5,0005-00-0000-78.png,0004-00-0000-28.png
00000009,408,0,1447435205063,1447435205099,870,295,0,0,0,0,1,1,1,0001-00-0001-27.png,0005-00-0000-78.png
00000009,409,0,1447435208084,1447435208630,504,257,0,0,0,3,2,1,5,0002-00-0001-34.png,0003-00-0001-58.png
00000009,410,1,1447435211817,1447435212286,943,325,0,0,0,3,0,3,3,0002-00-0000-32.png,0001-00-0000-90.png
00000009,411,1,1447435213139,1447435213227,878,410,0,0,0,1,0,1,1,0005-00-0001-06.png,0001-00-0001-24.png
00000009,412,1,1447435214285,1447435214357,872,462,0,0,0,4,0,4,4,0004-00-0001-28.png,0001-00-0000-12.png
00000009,413,0,1447435215369,1447435216000,380,344,0,0,0,4,2,2,6,0004-00-0000-95.png,0003-00-0001-53.png
00000009,414,1,1447435219085,1447435219125,866,308,0,0,0,2,1,1,3,0003-00-0000-78.png,0005-00-0000-16.png
00000009,415,1,1447435220079,1447435220107,871,414,0,0,0,4,3,1,7,0004-00-0000-29.png,0002-00-0000-71.png
00000009,416,0,1447435221183,1447435221289,873,488,0,0,0,1,3,2,4,0005-00-0001-12.png,0002-00-0000-22.png
00000009,417,1,1447435224254,1447435224266,863,410,0,0,0,3,1,2,4,0002-00-0001-94.png,0005-00-0001-41.png
00000009,418,1,1447435225157,1447435225822,510,254,0,0,0,2,3,1,5,0003-00-0000-76.png,0002-00-0000-98.png
00000009,419,0,1447435226797,1447435226965,890,528,0,0,0,1,2,1,3,0005-00-0001-90.png,0003-00-0000-27.png
00000009,420,1,1447435230017,1447435230065,913,332,0,0,0,4,1,3,5,0004-00-0000-55.png,0005-00-0001-08.png
00000009,421,0,1447435230982,1447435231050,873,467,0,0,0,0,2,2,2,0001-00-0001-20.png,0003-00-0001-70.png
00000009,422,1,1447435233993,1447435234510,1041,269,0,0,0,4,3,1,7,0004-00-0000-22.png,0002-00-0001-16.png
00000009,423,1,1447435235823,1447435236471,921,335,0,0,0,3,0,3,3,0002-00-0000-30.png,0001-00-0001-46.png
00000009,424,1,1447435237353,1447435237369,862,393,0,0,0,4,1,3,5,0004-00-0001-35.png,0005-00-0000-24.png
00000009,425,1,1447435238476,1447435238492,859,390,0,0,0,3,1,2,4,0002-00-0001-72.png,0005-00-0000-33.png
00000009,426,1,1447435239596,1447435240262,506,263,0,0,0,0,3,3,3,0001-00-0000-99.png,0002-00-0000-73.png
00000009,427,1,1447435241105,1447435242013,1016,267,0,0,0,2,1,1,3,0003-00-0000-42.png,0005-00-0001-99.png
00000009,428,1,1447435242976,1447435243004,862,410,0,0,0,3,2,1,5,0002-00-0001-41.png,0003-00-0001-11.png
00000009,429,0,1447435244147,1447435244226,892,478,0,0,0,2,4,2,6,0003-00-0001-91.png,0004-00-0000-79.png
00000009,430,1,1447435247306,1447435247838,932,348,0,0,0,2,0,2,2,0003-00-0001-35.png,0001-00-0000-86.png
00000009,431,0,1447435249105,1447435249178,888,422,0,0,0,1,2,1,3,0005-00-0001-33.png,0003-00-0000-53.png
00000009,432,1,1447435252158,1447435252625,1077,275,0,0,0,1,0,1,1,0005-00-0000-57.png,0001-00-0001-48.png
00000009,433,1,1447435253453,1447435253564,877,436,0,0,0,4,2,2,6,0004-00-0001-55.png,0003-00-0000-82.png
00000009,434,0,1447435254532,1447435254632,888,477,0,0,0,1,3,2,4,0005-00-0001-54.png,0002-00-0000-60.png
00000009,435,1,1447435257742,1447435258208,1067,277,0,0,0,4,0,4,4,0004-00-0000-65.png,0001-00-0000-37.png
00000009,436,0,1447435259072,1447435259100,859,412,0,0,0,0,4,4,4,0001-00-0001-70.png,0004-00-0000-73.png
00000009,437,0,1447435262246,1447435262270,878,308,0,0,0,3,4,1,7,0002-00-0000-64.png,0004-00-0001-60.png
00000009,438,0,1447435265206,1447435265641,941,333,0,0,0,2,3,1,5,0003-00-0001-92.png,0002-00-0001-92.png
00000009,439,1,1447435268590,1447435269110,478,249,0,0,0,1,4,3,5,0005-00-0000-31.png,0004-00-0000-49.png
00000009,440,1,1447435269975,1447435270550,466,245,0,0,0,0,1,1,1,0001-00-0001-64.png,0005-00-0001-84.png
00000009,441,0,1447435271426,1447435272236,924,337,0,0,0,3,4,1,7,0002-00-0001-81.png,0004-00-0000-63.png
00000009,442,1,1447435275100,1447435275635,415,342,0,0,0,1,4,3,5,0005-00-0000-92.png,0004-00-0001-64.png
00000009,443,1,1447435276479,1447435277397,1024,282,0,0,0,2,1,1,3,0003-00-0001-90.png,0005-00-0001-64.png
00000009,444,1,1447435278302,1447435278936,376,399,0,0,0,0,4,4,4,0001-00-0001-79.png,0004-00-0001-98.png
00000009,445,0,1447435280032,1447435280707,503,246,0,0,0,3,2,1,5,0002-00-0000-85.png,0003-00-0000-24.png
00000009,446,1,1447435283750,1447435283774,862,341,0,0,0,4,1,3,5,0004-00-0001-36.png,0005-00-0001-68.png
00000009,447,1,1447435284701,1447435285447,1036,279,0,0,0,2,0,2,2,0003-00-0001-77.png,0001-00-0001-06.png
00000009,448,1,1447435286383,1447435286435,888,410,0,0,0,4,0,4,4,0004-00-0000-73.png,0001-00-0000-82.png
00000009,449,0,1447435287495,1447435287547,888,447,0,0,0,1,3,2,4,0005-00-0001-92.png,0002-00-0001-77.png
00000009,450,0,1447435290485,1447435290497,888,390,0,0,0,0,1,1,1,0001-00-0001-75.png,0005-00-0000-71.png
00000009,451,1,1447435293652,1447435294095,477,294,0,0,0,0,3,3,3,0001-00-0000-97.png,0002-00-0001-00.png
00000009,452,0,1447435294923,1447435295517,503,243,0,0,0,4,3,1,7,0004-00-0001-78.png,0002-00-0001-85.png
00000009,453,1,1447435298361,1447435299165,382,345,0,0,0,2,4,2,6,0003-00-0001-85.png,0004-00-0001-31.png
00000009,454,1,1447435300065,1447435300691,490,265,0,0,0,1,2,1,3,0005-00-0000-93.png,0003-00-0001-47.png
00000009,455,0,1447435301615,1447435302290,510,271,0,0,0,1,0,1,1,0005-00-0001-76.png,0001-00-0001-40.png
00000009,456,0,1447435305391,1447435306023,486,253,0,0,0,3,0,3,3,0002-00-0000-18.png,0001-00-0000-73.png
00000009,457,0,1447435309119,1447435309151,890,337,0,0,0,0,2,2,2,0001-00-0001-83.png,0003-00-0000-04.png
00000009,458,1,1447435312218,1447435312886,1092,289,0,0,0,3,1,2,4,0002-00-0001-16.png,0005-00-0001-67.png
00000009,459,0,1447435313715,1447435314306,480,238,0,0,0,4,2,2,6,0004-00-0001-35.png,0003-00-0001-68.png
00000009,460,0,1447435317435,1447435317491,888,332,0,0,0,2,3,1,5,0003-00-0000-67.png,0002-00-0000-32.png
00000009,461,0,1447435320636,1447435321266,512,258,0,0,0,4,3,1,7,0004-00-0000-78.png,0002-00-0001-41.png
00000009,462,1,1447435324385,1447435324490,1022,305,0,0,0,4,2,2,6,0004-00-0000-29.png,0003-00-0001-60.png
00000009,463,1,1447435325407,1447435326081,473,239,0,0,0,0,3,3,3,0001-00-0001-94.png,0002-00-0001-94.png
00000009,464,1,1447435326946,1447435328446,468,270,0,0,0,3,4,1,7,0002-00-0000-18.png,0004-00-0001-34.png
00000009,465,1,1447435329382,1447435330142,1045,278,0,0,0,4,1,3,5,0004-00-0000-73.png,0005-00-0001-79.png
00000009,466,1,1447435331140,1447435331148,908,393,0,0,0,1,0,1,1,0005-00-0001-79.png,0001-00-0000-71.png
00000009,467,0,1447435332253,1447435332341,906,457,0,0,0,0,1,1,1,0001-00-0001-73.png,0005-00-0001-17.png
00000009,468,1,1447435335244,1447435335276,872,403,0,0,0,2,0,2,2,0003-00-0001-06.png,0001-00-0000-95.png
00000009,469,1,1447435336159,1447435336789,504,264,0,0,0,1,3,2,4,0005-00-0000-00.png,0002-00-0000-08.png
00000009,470,1,1447435337627,1447435337647,888,410,0,0,0,3,2,1,5,0002-00-0001-50.png,0003-00-0000-54.png
00000009,471,0,1447435338853,1447435338887,874,465,0,0,0,0,4,4,4,0001-00-0001-27.png,0004-00-0001-89.png
00000009,472,1,1447435341962,1447435342479,521,311,0,0,0,1,2,1,3,0005-00-0001-33.png,0003-00-0001-13.png
00000009,473,1,1447435343311,1447435344047,505,266,0,0,0,2,4,2,6,0003-00-0000-68.png,0004-00-0001-54.png
00000009,474,1,1447435344962,1447435345009,887,409,0,0,0,4,0,4,4,0004-00-0000-47.png,0001-00-0000-98.png
00000009,475,1,1447435346076,1447435346140,888,475,0,0,0,2,1,1,3,0003-00-0000-79.png,0005-00-0000-55.png
00000009,476,0,1447435347271,1447435347327,875,506,0,0,0,0,2,2,2,0001-00-0001-31.png,0003-00-0000-96.png
00000009,477,1,1447435350461,1447435350949,1067,279,0,0,0,3,1,2,4,0002-00-0001-06.png,0005-00-0001-30.png
00000009,478,0,1447435351798,1447435351846,888,410,0,0,0,2,3,1,5,0003-00-0000-08.png,0002-00-0001-53.png
00000009,479,1,1447435354982,1447435355683,504,278,0,0,0,1,4,3,5,0005-00-0000-35.png,0004-00-0000-45.png
00000009,480,1,1447435357018,1447435357223,982,504,0,0,0,3,0,3,3,0002-00-0000-70.png,0001-00-0000-67.png
00000009,481,0,1447435358179,1447435358207,865,421,0,0,0,2,3,1,5,0003-00-0000-51.png,0002-00-0001-30.png
00000009,482,0,1447435361399,1447435361933,967,390,0,0,0,0,3,3,3,0001-00-0001-81.png,0002-00-0000-23.png
00000009,483,1,1447435365048,1447435365574,964,332,0,0,0,4,1,3,5,0004-00-0001-50.png,0005-00-0001-04.png
00000009,484,1,1447435366445,1447435367237,962,320,0,0,0,4,0,4,4,0004-00-0001-97.png,0001-00-0000-18.png
00000009,485,0,1447435368188,1447435368204,888,410,0,0,0,0,4,4,4,0001-00-0000-69.png,0004-00-0001-75.png
00000009,486,1,1447435371497,1447435371628,865,284,0,0,0,1,0,1,1,0005-00-0001-83.png,0001-00-0000-27.png
00000009,487,1,1447435372610,1447435373339,504,238,0,0,0,0,2,2,2,0001-00-0000-47.png,0003-00-0000-56.png
00000009,488,1,1447435374270,1447435374873,410,349,0,0,0,1,4,3,5,0005-00-0000-61.png,0004-00-0001-88.png
00000009,489,1,1447435376086,1447435376162,888,474,0,0,0,4,2,2,6,0004-00-0000-51.png,0003-00-0000-35.png
00000009,490,1,1447435377242,1447435377306,879,436,0,0,0,2,0,2,2,0003-00-0001-50.png,0001-00-0001-94.png
00000009,491,0,1447435378531,1447435378559,878,436,0,0,0,2,4,2,6,0003-00-0000-41.png,0004-00-0001-15.png
00000009,492,1,1447435381397,1447435381897,1041,279,0,0,0,3,1,2,4,0002-00-0001-41.png,0005-00-0000-20.png
00000009,493,1,1447435383234,1447435383796,489,264,0,0,0,1,3,2,4,0005-00-0001-02.png,0002-00-0001-30.png
00000009,494,0,1447435384620,1447435385606,415,384,0,0,0,3,2,1,5,0002-00-0000-53.png,0003-00-0000-94.png
00000009,495,1,1447435388560,1447435389062,506,278,0,0,0,1,2,1,3,0005-00-0001-96.png,0003-00-0000-46.png
00000009,496,1,1447435390398,1447435391049,486,271,0,0,0,0,1,1,1,0001-00-0000-94.png,0005-00-0000-48.png
00000009,497,1,1447435392470,1447435393524,1041,279,0,0,0,4,3,1,7,0004-00-0001-36.png,0002-00-0000-10.png
00000009,498,1,1447435394492,1447435394528,876,444,0,0,0,3,0,3,3,0002-00-0001-45.png,0001-00-0001-63.png
00000009,499,0,1447435395576,1447435395632,888,478,0,0,0,3,4,1,7,0002-00-0000-77.png,0004-00-0001-85.png
00000009,500,1,1447435399123,1447435399642,939,326,0,0,0,2,1,1,3,0003-00-0001-13.png,0005-00-0001-02.png
00000009,501,0,1447435400480,1447435401129,502,243,0,0,0,3,2,1,5,0002-00-0001-10.png,0003-00-0000-88.png
00000009,502,1,1447435404266,1447435404896,504,269,0,0,0,3,4,1,7,0002-00-0001-03.png,0004-00-0001-44.png
00000009,503,1,1447435405792,1447435405840,862,436,0,0,0,2,0,2,2,0003-00-0001-76.png,0001-00-0001-51.png
00000009,504,1,1447435406835,1447435406859,862,447,0,0,0,3,1,2,4,0002-00-0001-85.png,0005-00-0000-36.png
00000009,505,1,1447435408033,1447435408081,879,469,0,0,0,4,2,2,6,0004-00-0001-53.png,0003-00-0000-11.png
00000009,506,0,1447435409248,1447435409304,877,488,0,0,0,1,2,1,3,0005-00-0001-59.png,0003-00-0001-03.png
00000009,507,0,1447435412147,1447435412635,383,390,0,0,0,4,3,1,7,0004-00-0001-99.png,0002-00-0000-49.png
00000009,508,1,1447435415708,1447435416219,1035,263,0,0,0,4,0,4,4,0004-00-0001-26.png,0001-00-0001-96.png
00000009,509,0,1447435417044,1447435417096,888,397,0,0,0,0,2,2,2,0001-00-0000-00.png,0003-00-0001-22.png
00000009,510,1,1447435419959,1447435420487,478,290,0,0,0,1,4,3,5,0005-00-0001-81.png,0004-00-0000-92.png
00000009,511,1,1447435421881,1447435422436,933,325,0,0,0,2,1,1,3,0003-00-0001-92.png,0005-00-0001-43.png
00000009,512,0,1447435423327,1447435424062,942,305,0,0,0,0,1,1,1,0001-00-0000-73.png,0005-00-0000-03.png
00000009,513,1,1447435427117,1447435427193,931,354,0,0,0,3,0,3,3,0002-00-0000-11.png,0001-00-0001-35.png
00000009,514,1,1447435428130,1447435428754,498,249,0,0,0,1,3,2,4,0005-00-0000-00.png,0002-00-0001-28.png
00000009,515,1,1447435429691,1447435430674,945,320,0,0,0,4,1,3,5,0004-00-0000-88.png,0005-00-0000-77.png
00000009,516,0,1447435431722,1447435431782,911,454,0,0,0,2,3,1,5,0003-00-0000-10.png,0002-00-0000-13.png
00000009,517,0,1447435434677,1447435434714,870,429,0,0,0,2,4,2,6,0003-00-0001-71.png,0004-00-0001-44.png
00000009,518,0,1447435437849,1447435437873,889,331,0,0,0,0,3,3,3,0001-00-0001-20.png,0002-00-0000-83.png
00000009,519,0,1447435440988,1447435441502,507,273,0,0,0,1,0,1,1,0005-00-0000-00.png,0001-00-0000-07.png
00000009,520,0,1447435444399,1447435444450,903,391,0,0,0,0,4,4,4,0001-00-0000-31.png,0004-00-0000-48.png
00000009,521,1,1447435447301,1447435447784,964,319,0,0,0,4,3,1,7,0004-00-0000-85.png,0002-00-0000-52.png
00000009,522,1,1447435448672,1447435449398,929,373,0,0,0,2,0,2,2,0003-00-0000-94.png,0001-00-0001-47.png
00000009,523,0,1447435450302,1447435450318,860,381,0,0,0,3,4,1,7,0002-00-0000-69.png,0004-00-0001-29.png
00000009,524,1,1447435453549,1447435453577,877,308,0,0,0,4,0,4,4,0004-00-0001-30.png,0001-00-0000-50.png
00000009,525,0,1447435454495,1447435454565,862,424,0,0,0,0,1,1,1,0001-00-0000-81.png,0005-00-0001-18.png
00000009,526,0,1447435457404,1447435457452,865,397,0,0,0,0,2,2,2,0001-00-0000-29.png,0003-00-0001-40.png
00000009,527,0,1447435460509,1447435460525,867,378,0,0,0,0,4,4,4,0001-00-0001-01.png,0004-00-0000-93.png
00000009,528,0,1447435463688,1447435463732,888,322,0,0,0,2,3,1,5,0003-00-0001-34.png,0002-00-0001-94.png
00000009,529,0,1447435466918,1447435466934,891,302,0,0,0,1,4,3,5,0005-00-0001-39.png,0004-00-0000-46.png
00000009,530,0,1447435470088,1447435470635,990,344,0,0,0,2,4,2,6,0003-00-0001-32.png,0004-00-0000-91.png
00000009,531,1,1447435473597,1447435474133,1057,301,0,0,0,4,2,2,6,0004-00-0001-80.png,0003-00-0001-10.png
00000009,532,1,1447435475058,1447435475916,1051,279,0,0,0,3,0,3,3,0002-00-0000-23.png,0001-00-0001-43.png
00000009,533,1,1447435476797,1447435476871,888,410,0,0,0,2,1,1,3,0003-00-0000-16.png,0005-00-0000-11.png
00000009,534,0,1447435478050,1447435478114,873,462,0,0,0,0,3,3,3,0001-00-0001-29.png,0002-00-0000-16.png
00000009,535,1,1447435481007,1447435481047,862,348,0,0,0,3,1,2,4,0002-00-0001-23.png,0005-00-0000-05.png
00000009,536,1,1447435481967,1447435482724,927,328,0,0,0,1,0,1,1,0005-00-0001-94.png,0001-00-0001-26.png
00000009,537,1,1447435483548,1447435483600,891,427,0,0,0,3,2,1,5,0002-00-0000-28.png,0003-00-0000-79.png
00000009,538,0,1447435484714,1447435484742,897,459,0,0,0,1,2,1,3,0005-00-0000-81.png,0003-00-0001-49.png
00000009,539,1,1447435487836,1447435488353,964,394,0,0,0,4,1,3,5,0004-00-0000-69.png,0005-00-0000-22.png
00000009,540,0,1447435489666,1447435489851,913,520,0,0,0,1,3,2,4,0005-00-0000-96.png,0002-00-0000-29.png
00000009,541,0,1447435492994,1447435493032,888,332,0,0,0,1,2,1,3,0005-00-0000-91.png,0003-00-0000-26.png
00000009,542,1,1447435496139,1447435496788,1048,280,0,0,0,3,2,1,5,0002-00-0001-96.png,0003-00-0000-01.png
00000009,543,1,1447435497630,1447435498193,502,241,0,0,0,1,4,3,5,0005-00-0001-96.png,0004-00-0000-88.png
00000009,544,1,1447435499053,1447435500008,493,272,0,0,0,3,4,1,7,0002-00-0001-54.png,0004-00-0001-93.png
00000009,545,1,1447435500914,1447435500962,881,421,0,0,0,4,0,4,4,0004-00-0001-09.png,0001-00-0001-13.png
00000009,546,0,1447435502155,1447435502203,879,488,0,0,0,0,1,1,1,0001-00-0001-78.png,0005-00-0000-15.png
00000009,547,0,1447435505210,1447435505839,1065,284,0,0,0,2,4,2,6,0003-00-0000-62.png,0004-00-0001-54.png
00000009,548,1,1447435508806,1447435508814,863,364,0,0,0,2,1,1,3,0003-00-0000-42.png,0005-00-0001-61.png
00000009,549,0,1447435509719,1447435509767,862,446,0,0,0,1,3,2,4,0005-00-0000-30.png,0002-00-0001-42.png
00000009,550,1,1447435512907,1447435513156,888,410,0,0,0,1,0,1,1,0005-00-0001-28.png,0001-00-0001-50.png
00000009,551,1,1447435514115,1447435514161,857,449,0,0,0,4,1,3,5,0004-00-0001-83.png,0005-00-0001-64.png
00000009,552,0,1447435515113,1447435515950,1046,270,0,0,0,2,3,1,5,0003-00-0000-14.png,0002-00-0001-35.png
00000009,553,1,1447435518882,1447435519363,961,282,0,0,0,2,0,2,2,0003-00-0000-37.png,0001-00-0000-36.png
00000009,554,0,1447435520191,1447435520239,896,400,0,0,0,0,3,3,3,0001-00-0001-66.png,0002-00-0000-59.png
00000009,555,1,1447435523251,1447435523722,487,260,0,0,0,0,4,4,4,0001-00-0000-03.png,0004-00-0001-02.png
00000009,556,1,1447435524593,1447435525587,937,315,0,0,0,4,3,1,7,0004-00-0000-74.png,0002-00-0000-92.png
00000009,557,1,1447435526525,1447435527238,485,219,0,0,0,0,2,2,2,0001-00-0001-52.png,0003-00-0001-55.png
00000009,558,1,1447435528072,1447435528120,870,456,0,0,0,3,0,3,3,0002-00-0000-79.png,0001-00-0000-19.png
00000009,559,1,1447435529327,1447435529351,877,436,0,0,0,3,1,2,4,0002-00-0001-84.png,0005-00-0000-42.png
00000009,560,1,1447435530429,1447435530485,875,436,0,0,0,4,2,2,6,0004-00-0000-06.png,0003-00-0001-57.png
00000009,561,0,1447435531812,1447435531887,906,523,0,0,0,0,1,1,1,0001-00-0000-11.png,0005-00-0001-02.png
00000009,562,0,1447435535029,1447435535528,507,287,0,0,0,3,2,1,5,0002-00-0000-92.png,0003-00-0000-14.png
00000009,563,0,1447435538376,1447435538882,939,371,0,0,0,2,4,2,6,0003-00-0000-71.png,0004-00-0001-43.png
00000009,564,0,1447435542007,1447435542568,1052,271,0,0,0,1,2,1,3,0005-00-0001-22.png,0003-00-0001-37.png
00000009,565,1,1447435545431,1447435546132,386,387,0,0,0,1,3,2,4,0005-00-0000-49.png,0002-00-0000-16.png
00000009,566,1,1447435546994,1447435547022,863,421,0,0,0,4,1,3,5,0004-00-0001-55.png,0005-00-0001-70.png
00000009,567,0,1447435548041,1447435548093,859,452,0,0,0,3,4,1,7,0002-00-0000-15.png,0004-00-0000-90.png
00000009,568,1,1447435551139,1447435551693,442,410,0,0,0,0,4,4,4,0001-00-0000-51.png,0004-00-0001-76.png
00000009,569,1,1447435553076,1447435553641,1035,273,0,0,0,4,3,1,7,0004-00-0000-48.png,0002-00-0001-97.png
00000009,570,1,1447435554528,1447435554568,862,419,0,0,0,4,2,2,6,0004-00-0001-98.png,0003-00-0001-36.png
00000009,571,1,1447435555671,1447435555707,888,436,0,0,0,4,0,4,4,0004-00-0001-12.png,0001-00-0001-88.png
00000009,572,1,1447435556883,1447435556919,878,436,0,0,0,3,1,2,4,0002-00-0001-33.png,0005-00-0000-50.png
00000009,573,0,1447435558084,1447435558116,890,458,0,0,0,0,2,2,2,0001-00-0001-98.png,0003-00-0001-69.png
00000009,574,1,1447435561214,1447435561707,1067,279,0,0,0,2,0,2,2,0003-00-0001-44.png,0001-00-0000-11.png
00000009,575,0,1447435562523,1447435562563,862,396,0,0,0,0,3,3,3,0001-00-0001-63.png,0002-00-0000-19.png
00000009,576,1,1447435565674,1447435565702,862,332,0,0,0,1,0,1,1,0005-00-0001-04.png,0001-00-0001-20.png
00000009,577,1,1447435566620,1447435566696,862,471,0,0,0,2,1,1,3,0003-00-0001-76.png,0005-00-0001-67.png
00000009,578,0,1447435567733,1447435567769,862,424,0,0,0,2,3,1,5,0003-00-0001-99.png,0002-00-0000-20.png
00000009,579,1,1447435570594,1447435571060,939,374,0,0,0,3,0,3,3,0002-00-0000-10.png,0001-00-0001-38.png
00000009,580,1,1447435571894,1447435572607,519,217,0,0,0,1,4,3,5,0005-00-0000-93.png,0004-00-0000-76.png
00000009,581,1,1447435573486,1447435574457,1016,294,0,0,0,4,2,2,6,0004-00-0000-36.png,0003-00-0000-06.png
00000009,582,1,1447435575362,1447435575402,915,395,0,0,0,3,1,2,4,0002-00-0000-44.png,0005-00-0001-86.png
00000009,583,0,1447435576557,1447435576660,888,477,0,0,0,0,1,1,1,0001-00-0001-29.png,0005-00-0000-12.png
00000009,584,1,1447435579739,1447435580203,453,436,0,0,0,0,4,4,4,0001-00-0000-31.png,0004-00-0001-31.png
00000009,585,0,1447435581029,1447435581799,404,364,0,0,0,4,3,1,7,0004-00-0000-50.png,0002-00-0000-03.png
00000009,586,1,1447435584916,1447435584932,862,347,0,0,0,4,0,4,4,0004-00-0000-95.png,0001-00-0001-17.png
00000009,587,0,1447435585880,1447435585936,861,424,0,0,0,1,4,3,5,0005-00-0000-74.png,0004-00-0001-64.png
00000009,588,0,1447435589081,1447435589579,986,303,0,0,0,2,4,2,6,0003-00-0001-08.png,0004-00-0001-08.png
00000009,589,1,1447435592738,1447435592774,932,336,0,0,0,2,0,2,2,0003-00-0001-47.png,0001-00-0001-53.png
00000009,590,1,1447435593681,1447435594341,908,316,0,0,0,4,1,3,5,0004-00-0000-92.png,0005-00-0001-37.png
00000009,591,1,1447435595199,1447435595260,888,475,0,0,0,3,0,3,3,0002-00-0000-08.png,0001-00-0000-97.png
00000009,592,0,1447435596345,1447435596361,862,446,0,0,0,3,4,1,7,0002-00-0001-50.png,0004-00-0000-51.png
00000009,593,0,1447435599475,1447435599491,888,332,0,0,0,1,2,1,3,0005-00-0000-67.png,0003-00-0001-67.png
00000009,594,1,1447435602366,1447435602960,1044,266,0,0,0,3,2,1,5,0002-00-0001-11.png,0003-00-0000-54.png
00000009,595,0,1447435603854,1447435603894,888,462,0,0,0,0,3,3,3,0001-00-0001-63.png,0002-00-0000-62.png
00000009,596,0,1447435606798,1447435606834,862,393,0,0,0,0,2,2,2,0001-00-0000-51.png,0003-00-0000-61.png
00000009,597,0,1447435609999,1447435610504,1072,299,0,0,0,2,3,1,5,0003-00-0001-85.png,0002-00-0000-00.png
00000009,598,0,1447435613479,1447435614031,509,281,0,0,0,1,0,1,1,0005-00-0001-02.png,0001-00-0000-26.png
00000009,599,0,1447435617104,1447435617198,862,313,0,0,0,1,3,2,4,0005-00-0001-80.png,0002-00-0000-76.png
00000009,600,1,1447435620375,1447435620901,964,395,0,0,0,2,1,1,3,0003-00-0000-83.png,0005-00-0001-88.png
00000009,601,0,1447435621786,1447435621842,862,384,0,0,0,1,2,1,3,0005-00-0000-50.png,0003-00-0001-79.png
00000009,602,1,1447435624886,1447435624910,916,360,0,0,0,4,0,4,4,0004-00-0000-11.png,0001-00-0000-38.png
00000009,603,1,1447435625841,1447435626611,475,428,0,0,0,2,4,2,6,0003-00-0001-49.png,0004-00-0000-85.png
00000009,604,0,1447435627579,1447435628243,488,265,0,0,0,3,2,1,5,0002-00-0001-57.png,0003-00-0000-02.png
00000009,605,1,1447435631366,1447435631945,931,395,0,0,0,4,3,1,7,0004-00-0001-01.png,0002-00-0001-25.png
00000009,606,1,1447435632815,1447435633752,958,369,0,0,0,1,0,1,1,0005-00-0000-30.png,0001-00-0000-46.png
00000009,607,0,1447435634591,1447435634662,881,417,0,0,0,0,1,1,1,0001-00-0001-51.png,0005-00-0001-91.png
00000009,608,0,1447435637628,1447435638120,1061,283,0,0,0,2,3,1,5,0003-00-0000-16.png,0002-00-0001-06.png
00000009,609,1,1447435641290,1447435641757,486,281,0,0,0,0,4,4,4,0001-00-0001-38.png,0004-00-0000-71.png
00000009,610,1,1447435642591,1447435643193,390,378,0,0,0,0,3,3,3,0001-00-0000-54.png,0002-00-0000-48.png
00000009,611,1,1447435644030,1447435644774,506,258,0,0,0,1,4,3,5,0005-00-0000-00.png,0004-00-0000-16.png
00000009,612,1,1447435645766,1447435646532,514,231,0,0,0,1,3,2,4,0005-00-0000-69.png,0002-00-0001-39.png
00000009,613,1,1447435647533,1447435647589,862,450,0,0,0,4,2,2,6,0004-00-0000-64.png,0003-00-0001-68.png
00000009,614,1,1447435648763,1447435649614,1044,291,0,0,0,3,0,3,3,0002-00-0001-04.png,0001-00-0001-99.png
00000009,615,1,1447435650472,1447435650657,888,525,0,0,0,3,1,2,4,0002-00-0000-37.png,0005-00-0001-05.png
00000009,616,1,1447435651953,1447435652001,876,436,0,0,0,4,1,3,5,0004-00-0000-85.png,0005-00-0000-45.png
00000009,617,0,1447435653049,1447435653104,862,462,0,0,0,0,2,2,2,0001-00-0001-48.png,0003-00-0001-73.png
00000009,618,0,1447435656268,1447435656827,962,308,0,0,0,3,4,1,7,0002-00-0001-60.png,0004-00-0000-73.png
00000009,619,1,1447435659985,1447435660511,1065,277,0,0,0,2,0,2,2,0003-00-0001-69.png,0001-00-0001-77.png
00000009,620,1,1447435661854,1447435662390,961,344,0,0,0,2,1,1,3,0003-00-0001-78.png,0005-00-0000-30.png
00000009,621,1,1447435663271,1447435664045,490,335,0,0,0,0,1,1,1,0001-00-0001-04.png,0005-00-0000-95.png
00000009,622,0,1447435665141,1447435665208,862,477,0,0,0,3,4,1,7,0002-00-0000-08.png,0004-00-0000-83.png
00000009,623,1,1447435668343,1447435668834,478,436,0,0,0,0,2,2,2,0001-00-0001-72.png,0003-00-0001-22.png
00000009,624,1,1447435669668,1447435670296,489,255,0,0,0,0,4,4,4,0001-00-0000-54.png,0004-00-0001-32.png
00000009,625,1,1447435671741,1447435671789,869,451,0,0,0,3,2,1,5,0002-00-0001-41.png,0003-00-0000-58.png
00000009,626,1,1447435672865,1447435672881,860,460,0,0,0,3,1,2,4,0002-00-0000-17.png,0005-00-0000-57.png
00000009,627,1,1447435673877,1447435674514,370,382,0,0,0,0,3,3,3,0001-00-0001-52.png,0002-00-0001-67.png
00000009,628,1,1447435675457,1447435676176,482,250,0,0,0,1,2,1,3,0005-00-0001-51.png,0003-00-0001-68.png
00000009,629,1,1447435677166,1447435677214,877,464,0,0,0,3,0,3,3,0002-00-0001-49.png,0001-00-0001-27.png
00000009,630,1,1447435678432,1447435679191,509,253,0,0,0,2,3,1,5,0003-00-0001-01.png,0002-00-0001-73.png
00000009,631,1,1447435680056,1447435680084,880,445,0,0,0,4,2,2,6,0004-00-0000-90.png,0003-00-0001-73.png
00000009,632,1,1447435681307,1447435681355,888,462,0,0,0,1,0,1,1,0005-00-0000-91.png,0001-00-0001-30.png
00000009,633,1,1447435682522,1447435683510,516,248,0,0,0,2,4,2,6,0003-00-0001-53.png,0004-00-0000-54.png
00000009,634,1,1447435684389,1447435685128,1030,267,0,0,0,2,0,2,2,0003-00-0001-24.png,0001-00-0000-45.png
00000009,635,1,1447435686066,1447435686913,1057,279,0,0,0,2,1,1,3,0003-00-0000-09.png,0005-00-0000-20.png
00000009,636,0,1447435687788,1447435687836,871,453,0,0,0,1,4,3,5,0005-00-0000-83.png,0004-00-0001-59.png
00000009,637,1,1447435690985,1447435691462,490,272,0,0,0,1,3,2,4,0005-00-0001-28.png,0002-00-0001-84.png
00000009,638,0,1447435692777,1447435693354,491,263,0,0,0,4,3,1,7,0004-00-0000-96.png,0002-00-0000-96.png
00000009,639,1,1447435696534,1447435697061,1074,297,0,0,0,4,0,4,4,0004-00-0001-23.png,0001-00-0001-71.png
00000009,640,1,1447435698124,1447435698788,1041,288,0,0,0,4,1,3,5,0004-00-0000-83.png,0005-00-0000-56.png
00000009,641,1,1447435699639,1447435699659,877,410,0,0,0,1,0,1,1,0005-00-0001-43.png,0001-00-0000-11.png
00000009,642,1,1447435700653,1447435701464,478,384,0,0,0,1,4,3,5,0005-00-0000-47.png,0004-00-0001-45.png
00000009,643,0,1447435702373,1447435702462,879,436,0,0,0,0,1,1,1,0001-00-0000-69.png,0005-00-0000-94.png
00000009,644,0,1447435705641,1447435705708,962,314,0,0,0,1,2,1,3,0005-00-0000-11.png,0003-00-0001-53.png
00000009,645,1,1447435708823,1447435708843,860,384,0,0,0,3,2,1,5,0002-00-0000-65.png,0003-00-0001-47.png
00000009,646,1,1447435709756,1447435710466,1022,315,0,0,0,2,0,2,2,0003-00-0000-47.png,0001-00-0001-44.png
00000009,647,1,1447435711346,1447435711370,865,414,0,0,0,2,1,1,3,0003-00-0000-51.png,0005-00-0001-40.png
00000009,648,1,1447435712415,1447435713218,934,342,0,0,0,4,0,4,4,0004-00-0001-62.png,0001-00-0001-14.png
00000009,649,1,1447435714129,1447435714790,489,290,0,0,0,3,4,1,7,0002-00-0000-48.png,0004-00-0000-72.png
00000009,650,1,1447435715888,1447435715920,901,461,0,0,0,4,2,2,6,0004-00-0000-88.png,0003-00-0001-06.png
00000009,651,0,1447435716962,1447435717001,869,454,0,0,0,2,3,1,5,0003-00-0000-08.png,0002-00-0001-49.png
00000009,652,1,1447435720111,1447435720162,918,328,0,0,0,4,3,1,7,0004-00-0001-02.png,0002-00-0000-87.png
00000009,653,1,1447435721055,1447435722078,1046,283,0,0,0,3,1,2,4,0002-00-0000-77.png,0005-00-0000-65.png
00000009,654,0,1447435722986,1447435723048,872,478,0,0,0,2,4,2,6,0003-00-0000-15.png,0004-00-0000-58.png
00000009,655,1,1447435725994,1447435726455,486,269,0,0,0,1,3,2,4,0005-00-0001-13.png,0002-00-0000-51.png
00000009,656,1,1447435727913,1447435728516,495,245,0,0,0,0,4,4,4,0001-00-0000-05.png,0004-00-0000-24.png
00000009,657,1,1447435729384,1447435730128,917,319,0,0,0,3,0,3,3,0002-00-0001-37.png,0001-00-0001-46.png
00000009,658,1,1447435731093,1447435731165,882,478,0,0,0,4,1,3,5,0004-00-0001-24.png,0005-00-0000-73.png
00000009,659,0,1447435732266,1447435732325,911,453,0,0,0,0,2,2,2,0001-00-0000-69.png,0003-00-0001-80.png
00000009,660,0,1447435735427,1447435735467,862,332,0,0,0,0,3,3,3,0001-00-0001-79.png,0002-00-0001-28.png
00000009,661,1,1447435738328,1447435738804,486,294,0,0,0,1,2,1,3,0005-00-0000-35.png,0003-00-0000-81.png
00000009,662,1,1447435740225,1447435740265,872,384,0,0,0,3,1,2,4,0002-00-0000-47.png,0005-00-0000-07.png
00000009,663,0,1447435741242,1447435742191,920,320,0,0,0,2,4,2,6,0003-00-0001-58.png,0004-00-0001-27.png
00000009,664,1,1447435745201,1447435745688,471,290,0,0,0,1,3,2,4,0005-00-0001-79.png,0002-00-0000-40.png
00000009,665,0,1447435746514,1447435747659,483,270,0,0,0,4,2,2,6,0004-00-0001-50.png,0003-00-0001-49.png
00000009,666,1,1447435750780,1447435751414,938,310,0,0,0,1,0,1,1,0005-00-0001-07.png,0001-00-0000-98.png
00000009,667,0,1447435752420,1447435753190,1054,284,0,0,0,0,1,1,1,0001-00-0001-66.png,0005-00-0001-33.png
00000009,668,0,1447435756087,1447435756604,910,390,0,0,0,3,4,1,7,0002-00-0001-79.png,0004-00-0000-17.png
00000009,669,1,1447435759525,1447435760013,939,401,0,0,0,4,3,1,7,0004-00-0001-38.png,0002-00-0001-14.png
00000009,670,1,1447435760945,1447435761677,491,265,0,0,0,0,4,4,4,0001-00-0001-53.png,0004-00-0000-80.png
00000009,671,1,1447435762577,1447435763625,938,315,0,0,0,3,2,1,5,0002-00-0000-14.png,0003-00-0001-31.png
00000009,672,1,1447435764725,1447435764749,868,441,0,0,0,3,0,3,3,0002-00-0001-62.png,0001-00-0000-98.png
00000009,673,0,1447435766034,1447435766176,902,540,0,0,0,0,2,2,2,0001-00-0000-76.png,0003-00-0001-53.png
00000009,674,1,1447435769056,1447435769566,1048,288,0,0,0,2,1,1,3,0003-00-0001-41.png,0005-00-0001-99.png
00000009,675,1,1447435770406,1447435771597,350,396,0,0,0,0,3,3,3,0001-00-0000-72.png,0002-00-0000-81.png
00000009,676,1,1447435772487,1447435773192,928,343,0,0,0,4,1,3,5,0004-00-0001-76.png,0005-00-0001-48.png
00000009,677,0,1447435774126,1447435774256,906,542,0,0,0,1,4,3,5,0005-00-0000-01.png,0004-00-0000-35.png
00000009,678,1,1447435777471,1447435777947,1054,279,0,0,0,4,0,4,4,0004-00-0000-51.png,0001-00-0000-85.png
00000009,679,1,1447435778922,1447435779580,943,323,0,0,0,2,0,2,2,0003-00-0000-72.png,0001-00-0000-99.png
00000009,680,0,1447435780523,1447435780626,916,468,0,0,0,2,3,1,5,0003-00-0000-08.png,0002-00-0000-09.png
00000009,681,1,1447435783751,1447435784207,949,305,0,0,0,2,0,2,2,0003-00-0001-26.png,0001-00-0001-24.png
00000009,682,1,1447435785045,1447435785691,1036,289,0,0,0,4,1,3,5,0004-00-0000-86.png,0005-00-0001-18.png
00000009,683,0,1447435786789,1447435786801,876,441,0,0,0,0,3,3,3,0001-00-0001-83.png,0002-00-0000-55.png
00000009,684,1,1447435790006,1447435790042,913,332,0,0,0,4,3,1,7,0004-00-0001-32.png,0002-00-0000-36.png
00000009,685,0,1447435791060,1447435791595,919,333,0,0,0,1,3,2,4,0005-00-0001-24.png,0002-00-0000-18.png
00000009,686,0,1447435794444,1447435794472,889,417,0,0,0,0,1,1,1,0001-00-0001-33.png,0005-00-0001-69.png
00000009,687,1,1447435797608,1447435797628,890,355,0,0,0,1,0,1,1,0005-00-0000-06.png,0001-00-0000-47.png
00000009,688,0,1447435798620,1447435799226,349,344,0,0,0,3,1,2,4,0002-00-0000-53.png,0005-00-0001-45.png
00000009,689,0,1447435802447,1447435803073,502,297,0,0,0,3,2,1,5,0002-00-0001-19.png,0003-00-0000-50.png
00000009,690,0,1447435806283,1447435806299,876,358,0,0,0,1,4,3,5,0005-00-0000-37.png,0004-00-0001-91.png
00000009,691,1,1447435809521,1447435810027,522,272,0,0,0,3,4,1,7,0002-00-0001-37.png,0004-00-0001-97.png
00000009,693,1,1447435814901,1447435815447,939,384,0,0,0,2,1,1,3,0003-00-0001-83.png,0005-00-0001-58.png
00000009,692,0,1447435810995,1447435811738,940,283,0,0,0,2,4,2,6,0003-00-0000-97.png,0004-00-0001-94.png
00000009,694,0,1447435816608,1447435816644,888,464,0,0,0,2,3,1,5,0003-00-0000-65.png,0002-00-0001-93.png
00000009,695,1,1447435819729,1447435820276,502,272,0,0,0,0,4,4,4,0001-00-0001-28.png,0004-00-0001-60.png
00000009,696,1,1447435821196,1447435821870,1041,271,0,0,0,4,0,4,4,0004-00-0000-26.png,0001-00-0001-62.png
00000009,697,1,1447435822815,1447435822867,888,398,0,0,0,4,2,2,6,0004-00-0000-42.png,0003-00-0000-58.png
00000009,698,0,1447435823934,1447435824000,870,455,0,0,0,0,2,2,2,0001-00-0001-24.png,0003-00-0000-29.png
00000009,699,0,1447435827130,1447435827170,913,332,0,0,0,1,2,1,3,0005-00-0000-63.png,0003-00-0001-05.png
00000009,700,1,1447435830049,1447435830286,858,423,0,0,0,3,0,3,3,0002-00-0000-75.png,0001-00-0000-11.png
00000009,701,0,1447435831162,1447435831214,888,384,0,0,0,0,4,4,4,0001-00-0001-45.png,0004-00-0001-49.png
00000009,702,1,1447435834356,1447435834404,926,354,0,0,0,4,3,1,7,0004-00-0001-29.png,0002-00-0001-19.png
00000009,703,1,1447435835406,1447435836091,1052,269,0,0,0,2,0,2,2,0003-00-0000-71.png,0001-00-0001-53.png
00000009,704,1,1447435836969,1447435837001,890,411,0,0,0,4,2,2,6,0004-00-0001-93.png,0003-00-0001-15.png
00000009,705,1,1447435838179,1447435838227,868,475,0,0,0,4,1,3,5,0004-00-0000-08.png,0005-00-0000-76.png
00000009,706,1,1447435839242,1447435840173,921,335,0,0,0,4,0,4,4,0004-00-0000-22.png,0001-00-0001-33.png
00000009,707,1,1447435841160,1447435841803,496,261,0,0,0,1,4,3,5,0005-00-0001-25.png,0004-00-0000-03.png
00000009,708,0,1447435842869,1447435842897,867,455,0,0,0,3,4,1,7,0002-00-0000-83.png,0004-00-0001-90.png
00000009,709,1,1447435846248,1447435846292,932,348,0,0,0,3,1,2,4,0002-00-0000-33.png,0005-00-0000-70.png
00000009,710,0,1447435847232,1447435847820,423,402,0,0,0,1,0,1,1,0005-00-0000-05.png,0001-00-0001-95.png
00000009,711,1,1447435850690,1447435851222,488,280,0,0,0,1,3,2,4,0005-00-0000-16.png,0002-00-0001-83.png
00000009,712,0,1447435852106,1447435852122,873,449,0,0,0,0,1,1,1,0001-00-0000-62.png,0005-00-0001-05.png
00000009,713,0,1447435855029,1447435855693,403,354,0,0,0,3,2,1,5,0002-00-0001-21.png,0003-00-0001-29.png
00000009,714,1,1447435858830,1447435858855,917,359,0,0,0,2,1,1,3,0003-00-0001-14.png,0005-00-0001-93.png
00000009,715,1,1447435859794,1447435860547,508,262,0,0,0,1,2,1,3,0005-00-0001-66.png,0003-00-0000-26.png
00000009,716,0,1447435861492,1447435861563,857,474,0,0,0,0,2,2,2,0001-00-0000-99.png,0003-00-0001-03.png
00000009,717,1,1447435864694,1447435864738,883,357,0,0,0,3,0,3,3,0002-00-0000-72.png,0001-00-0000-43.png
00000009,718,1,1447435865776,1447435866627,504,237,0,0,0,2,3,1,5,0003-00-0001-43.png,0002-00-0000-61.png
00000009,719,0,1447435867575,1447435867603,859,415,0,0,0,0,3,3,3,0001-00-0001-90.png,0002-00-0000-92.png
00000009,720,1,1447435870696,1447435871305,484,272,0,0,0,2,4,2,6,0003-00-0000-91.png,0004-00-0001-47.png
00000009,721,1,1447435872253,1447435873140,939,420,0,0,0,4,3,1,7,0004-00-0001-79.png,0002-00-0000-55.png
00000009,722,1,1447435874094,1447435874154,866,451,0,0,0,3,1,2,4,0002-00-0000-07.png,0005-00-0000-87.png
00000009,723,0,1447435875245,1447435875317,876,496,0,0,0,3,4,1,7,0002-00-0000-56.png,0004-00-0000-02.png
00000009,724,1,1447435878357,1447435878851,968,305,0,0,0,2,0,2,2,0003-00-0001-62.png,0001-00-0000-04.png
00000009,725,1,1447435879684,1447435880860,465,279,0,0,0,1,2,1,3,0005-00-0001-89.png,0003-00-0001-35.png
00000009,726,1,1447435881753,1447435882385,416,358,0,0,0,1,3,2,4,0005-00-0000-99.png,0002-00-0000-65.png
00000009,727,1,1447435883383,1447435884129,511,244,0,0,0,0,1,1,1,0001-00-0000-62.png,0005-00-0001-97.png
00000009,728,0,1447435885013,1447435885057,874,472,0,0,0,2,4,2,6,0003-00-0001-38.png,0004-00-0000-58.png
00000009,729,1,1447435888123,1447435888175,895,379,0,0,0,2,1,1,3,0003-00-0001-24.png,0005-00-0000-51.png
00000009,730,1,1447435889127,1447435889931,1024,299,0,0,0,4,0,4,4,0004-00-0000-85.png,0001-00-0001-33.png
00000009,731,1,1447435890986,1447435891645,516,238,0,0,0,1,4,3,5,0005-00-0001-22.png,0004-00-0000-19.png
00000009,732,1,1447435892575,1447435893616,512,244,0,0,0,2,3,1,5,0003-00-0001-38.png,0002-00-0001-73.png
00000009,733,1,1447435894652,1447435894692,862,480,0,0,0,4,1,3,5,0004-00-0000-58.png,0005-00-0000-21.png
00000009,734,1,1447435895839,1447435896636,486,271,0,0,0,0,2,2,2,0001-00-0001-82.png,0003-00-0000-54.png
00000009,735,1,1447435897513,1447435897545,864,457,0,0,0,3,2,1,5,0002-00-0001-63.png,0003-00-0001-87.png
00000009,736,1,1447435898696,1447435899623,1033,297,0,0,0,4,2,2,6,0004-00-0000-41.png,0003-00-0000-68.png
00000009,737,1,1447435900547,1447435901305,514,282,0,0,0,0,4,4,4,0001-00-0000-84.png,0004-00-0000-26.png
00000009,738,0,1447435902642,1447435903310,514,253,0,0,0,1,0,1,1,0005-00-0000-18.png,0001-00-0000-80.png
00000009,739,1,1447435906457,1447435906931,502,294,0,0,0,0,3,3,3,0001-00-0001-50.png,0002-00-0000-78.png
00000009,740,0,1447435907848,1447435908685,422,331,0,0,0,3,0,3,3,0002-00-0000-47.png,0001-00-0000-31.png
00000009,741,1,1447435911575,1447435912029,962,320,0,0,0,3,0,3,3,0002-00-0000-23.png,0001-00-0001-88.png
00000009,742,1,1447435912886,1447435912918,859,408,0,0,0,4,2,2,6,0004-00-0000-12.png,0003-00-0001-39.png
00000009,743,0,1447435914040,1447435914095,874,478,0,0,0,0,3,3,3,0001-00-0000-30.png,0002-00-0001-38.png
00000009,744,1,1447435917160,1447435917180,869,381,0,0,0,2,0,2,2,0003-00-0001-47.png,0001-00-0000-51.png
00000009,745,1,1447435918114,1447435918817,948,327,0,0,0,3,1,2,4,0002-00-0001-45.png,0005-00-0001-13.png
00000009,746,1,1447435919824,1447435919856,888,462,0,0,0,1,0,1,1,0005-00-0000-92.png,0001-00-0000-01.png
00000009,747,0,1447435920985,1447435921033,900,493,0,0,0,1,3,2,4,0005-00-0000-00.png,0002-00-0000-01.png
00000009,748,0,1447435924155,1447435924175,858,355,0,0,0,2,4,2,6,0003-00-0000-37.png,0004-00-0000-35.png
00000009,749,0,1447435927296,1447435927340,887,348,0,0,0,0,2,2,2,0001-00-0000-41.png,0003-00-0000-81.png
00000009,750,0,1447435930525,1447435930565,933,306,0,0,0,2,3,1,5,0003-00-0001-22.png,0002-00-0000-71.png
00000009,751,1,1447435933497,1447435934013,512,287,0,0,0,0,4,4,4,0001-00-0000-47.png,0004-00-0000-07.png
00000009,752,1,1447435934927,1447435935593,473,429,0,0,0,3,4,1,7,0002-00-0000-86.png,0004-00-0000-19.png
00000009,753,1,1447435936547,1447435937272,943,315,0,0,0,4,0,4,4,0004-00-0001-48.png,0001-00-0001-02.png
00000009,754,1,1447435938236,1447435939126,920,313,0,0,0,4,1,3,5,0004-00-0001-51.png,0005-00-0001-94.png
00000009,755,1,1447435940293,1447435940886,502,265,0,0,0,1,4,3,5,0005-00-0000-19.png,0004-00-0001-34.png
00000009,756,1,1447435941804,1447435941840,871,440,0,0,0,4,3,1,7,0004-00-0001-34.png,0002-00-0000-87.png
00000009,757,0,1447435943056,1447435943128,899,471,0,0,0,1,2,1,3,0005-00-0001-58.png,0003-00-0000-23.png
00000009,758,1,1447435946027,1447435946513,1050,279,0,0,0,3,2,1,5,0002-00-0001-55.png,0003-00-0001-31.png
00000009,759,1,1447435947368,1447435947428,860,442,0,0,0,2,1,1,3,0003-00-0000-26.png,0005-00-0000-19.png
00000009,760,1,1447435948392,1447435949091,449,403,0,0,0,0,1,1,1,0001-00-0001-82.png,0005-00-0001-43.png
00000009,761,1,1447435949910,1447435950763,504,280,0,0,0,2,3,1,5,0003-00-0000-91.png,0002-00-0001-01.png
00000009,762,0,1447435951721,1447435951813,889,501,0,0,0,2,4,2,6,0003-00-0000-64.png,0004-00-0001-69.png
00000009,763,0,1447435954980,1447435955016,888,332,0,0,0,0,1,1,1,0001-00-0001-65.png,0005-00-0001-51.png
00000009,764,1,1447435958151,1447435958641,1059,312,0,0,0,4,2,2,6,0004-00-0000-85.png,0003-00-0000-89.png
00000009,765,1,1447435959471,1447435960126,1016,266,0,0,0,4,1,3,5,0004-00-0000-70.png,0005-00-0001-18.png
00000009,766,1,1447435961112,1447435961726,501,246,0,0,0,0,3,3,3,0001-00-0001-99.png,0002-00-0001-20.png
00000009,767,1,1447435963208,1447435963271,862,474,0,0,0,1,0,1,1,0005-00-0001-97.png,0001-00-0000-69.png
00000009,768,1,1447435964312,1447435964919,407,370,0,0,0,1,4,3,5,0005-00-0001-83.png,0004-00-0001-63.png
00000009,769,0,1447435965917,1447435966529,399,343,0,0,0,4,3,1,7,0004-00-0001-85.png,0002-00-0001-52.png
00000009,770,0,1447435969469,1447435969477,864,383,0,0,0,0,4,4,4,0001-00-0000-99.png,0004-00-0001-62.png
00000009,771,1,1447435972550,1447435972578,910,351,0,0,0,4,0,4,4,0004-00-0000-33.png,0001-00-0000-15.png
00000009,772,1,1447435973514,1447435974110,512,245,0,0,0,0,2,2,2,0001-00-0001-33.png,0003-00-0001-97.png
00000009,773,1,1447435975094,1447435975824,1070,276,0,0,0,2,1,1,3,0003-00-0001-16.png,0005-00-0000-39.png
00000009,774,1,1447435976734,1447435976766,876,444,0,0,0,3,0,3,3,0002-00-0001-51.png,0001-00-0001-50.png
00000009,775,0,1447435978099,1447435978127,888,488,0,0,0,1,2,1,3,0005-00-0001-49.png,0003-00-0000-11.png
00000009,776,1,1447435981146,1447435981158,862,342,0,0,0,3,1,2,4,0002-00-0000-75.png,0005-00-0001-23.png
00000009,777,0,1447435982155,1447435982988,965,301,0,0,0,3,4,1,7,0002-00-0000-75.png,0004-00-0000-45.png
00000009,778,1,1447435985947,1447435986400,1067,279,0,0,0,2,0,2,2,0003-00-0001-32.png,0001-00-0000-94.png
00000009,779,1,1447435987297,1447435987918,511,270,0,0,0,1,3,2,4,0005-00-0001-09.png,0002-00-0000-64.png
00000009,780,1,1447435988838,1447435988933,888,504,0,0,0,3,2,1,5,0002-00-0001-84.png,0003-00-0001-80.png
00000009,781,1,1447435990030,1447435990062,869,455,0,0,0,3,0,3,3,0002-00-0001-13.png,0001-00-0000-53.png
00000009,782,1,1447435991173,1447435992045,1047,331,0,0,0,4,0,4,4,0004-00-0001-87.png,0001-00-0001-08.png
00000009,783,1,1447435992951,1447435994093,518,248,0,0,0,2,3,1,5,0003-00-0001-72.png,0002-00-0001-68.png
00000009,784,0,1447435995138,1447435996027,507,243,0,0,0,2,1,1,3,0003-00-0001-14.png,0005-00-0001-63.png
00000009,785,0,1447435999153,1447435999193,913,332,0,0,0,2,4,2,6,0003-00-0001-40.png,0004-00-0001-15.png
00000009,786,0,1447436002104,1447436002124,888,370,0,0,0,0,2,2,2,0001-00-0001-54.png,0003-00-0000-92.png
00000009,787,1,1447436005184,1447436005216,896,355,0,0,0,3,1,2,4,0002-00-0001-25.png,0005-00-0000-10.png
00000009,788,1,1447436006168,1447436006771,512,234,0,0,0,0,1,1,1,0001-00-0000-89.png,0005-00-0000-59.png
00000009,789,1,1447436007698,1447436007770,862,445,0,0,0,3,2,1,5,0002-00-0001-87.png,0003-00-0001-84.png
00000009,790,1,1447436008831,1447436008863,867,409,0,0,0,4,3,1,7,0004-00-0000-71.png,0002-00-0000-40.png
00000009,791,1,1447436009986,1447436010787,1082,305,0,0,0,1,0,1,1,0005-00-0001-97.png,0001-00-0001-58.png
00000009,792,0,1447436012221,1447436012272,888,421,0,0,0,1,2,1,3,0005-00-0000-27.png,0003-00-0001-91.png
00000009,793,0,1447436015233,1447436015879,504,266,0,0,0,4,2,2,6,0004-00-0000-51.png,0003-00-0001-79.png
00000009,794,0,1447436019031,1447436019072,933,353,0,0,0,0,4,4,4,0001-00-0000-19.png,0004-00-0001-74.png
00000009,795,0,1447436022168,1447436022237,875,345,0,0,0,1,4,3,5,0005-00-0000-85.png,0004-00-0001-30.png
00000009,796,1,1447436025090,1447436025608,964,323,0,0,0,4,1,3,5,0004-00-0000-30.png,0005-00-0001-22.png
00000009,797,0,1447436026471,1447436026518,862,384,0,0,0,3,4,1,7,0002-00-0000-18.png,0004-00-0001-45.png
00000009,798,1,1447436029465,1447436029948,967,385,0,0,0,2,0,2,2,0003-00-0000-31.png,0001-00-0001-36.png
00000009,799,1,1447436030865,1447436031773,473,243,0,0,0,1,3,2,4,0005-00-0001-36.png,0002-00-0000-38.png
00000009,800,0,1447436032683,1447436032741,863,488,0,0,0,0,3,3,3,0001-00-0001-90.png,0002-00-0001-34.png
00000009,801,0,1447436035913,1447436036493,939,402,0,0,0,3,4,1,7,0002-00-0000-29.png,0004-00-0001-24.png
00000009,802,0,1447436039579,1447436039611,902,351,0,0,0,0,2,2,2,0001-00-0001-04.png,0003-00-0001-97.png
00000009,803,1,1447436042790,1447436043303,990,384,0,0,0,4,0,4,4,0004-00-0000-74.png,0001-00-0000-42.png
00000009,804,0,1447436044242,1447436045011,939,305,0,0,0,1,3,2,4,0005-00-0000-83.png,0002-00-0000-86.png
00000009,805,1,1447436048436,1447436049007,964,398,0,0,0,3,1,2,4,0002-00-0000-68.png,0005-00-0001-06.png
00000009,806,1,1447436049865,1447436050721,1052,280,0,0,0,3,0,3,3,0002-00-0001-20.png,0001-00-0000-36.png
00000009,807,0,1447436051644,1447436051723,880,473,0,0,0,0,1,1,1,0001-00-0000-03.png,0005-00-0000-12.png
00000009,808,1,1447436054872,1447436054904,883,357,0,0,0,4,3,1,7,0004-00-0000-06.png,0002-00-0001-12.png
00000009,809,1,1447436055857,1447436056495,497,263,0,0,0,0,4,4,4,0001-00-0001-14.png,0004-00-0001-99.png
00000009,810,1,1447436057439,1447436058353,942,347,0,0,0,4,1,3,5,0004-00-0001-63.png,0005-00-0001-75.png
00000009,811,1,1447436059285,1447436060374,466,266,0,0,0,1,4,3,5,0005-00-0001-90.png,0004-00-0000-50.png
00000009,812,0,1447436061382,1447436061390,860,515,0,0,0,1,2,1,3,0005-00-0000-41.png,0003-00-0000-50.png
00000009,813,0,1447436064303,1447436064769,942,381,0,0,0,2,3,1,5,0003-00-0001-19.png,0002-00-0000-40.png
00000009,814,1,1447436067932,1447436068446,939,410,0,0,0,4,2,2,6,0004-00-0000-72.png,0003-00-0001-50.png
00000009,815,1,1447436069334,1447436070327,939,400,0,0,0,2,1,1,3,0003-00-0000-66.png,0005-00-0001-71.png
00000009,816,1,1447436071180,1447436071239,862,446,0,0,0,2,0,2,2,0003-00-0001-68.png,0001-00-0001-97.png
00000009,817,1,1447436072371,1447436072436,876,488,0,0,0,1,0,1,1,0005-00-0001-96.png,0001-00-0000-75.png
00000009,818,0,1447436073973,1447436074033,872,488,0,0,0,2,4,2,6,0003-00-0001-93.png,0004-00-0001-36.png
00000009,819,1,1447436076955,1447436077007,869,369,0,0,0,3,2,1,5,0002-00-0001-03.png,0003-00-0000-06.png
00000009,820,1,1447436077962,1447436078926,489,246,0,0,0,0,3,3,3,0001-00-0000-10.png,0002-00-0000-47.png
00000009,821,0,1447436079786,1447436079818,878,463,0,0,0,0,1,1,1,0001-00-0001-77.png,0005-00-0000-38.png
00000009,822,0,1447436082819,1447436083302,1067,296,0,0,0,2,3,1,5,0003-00-0001-98.png,0002-00-0000-77.png
00000009,823,1,1447436086476,1447436086508,890,326,0,0,0,3,1,2,4,0002-00-0000-85.png,0005-00-0000-78.png
00000009,824,1,1447436087399,1447436088145,503,245,0,0,0,0,2,2,2,0001-00-0001-59.png,0003-00-0000-39.png
00000009,825,1,1447436089718,1447436090436,432,377,0,0,0,0,3,3,3,0001-00-0000-09.png,0002-00-0001-37.png
00000009,826,1,1447436091415,1447436091466,859,432,0,0,0,2,1,1,3,0003-00-0001-76.png,0005-00-0000-06.png
00000009,827,1,1447436092658,1447436093656,1041,293,0,0,0,4,1,3,5,0004-00-0001-23.png,0005-00-0000-70.png
00000009,828,1,1447436094674,1447436095590,1031,279,0,0,0,4,0,4,4,0004-00-0000-53.png,0001-00-0001-72.png
00000009,829,1,1447436096498,1447436096565,875,434,0,0,0,4,2,2,6,0004-00-0000-76.png,0003-00-0000-98.png
00000009,830,0,1447436097882,1447436097906,886,510,0,0,0,0,4,4,4,0001-00-0000-01.png,0004-00-0001-51.png
00000009,831,0,1447436100962,1447436101217,925,336,0,0,0,1,4,3,5,0005-00-0000-27.png,0004-00-0000-40.png
00000009,832,1,1447436104176,1447436104840,1016,384,0,0,0,3,0,3,3,0002-00-0001-54.png,0001-00-0000-55.png
00000009,833,0,1447436105683,1447436105763,879,469,0,0,0,1,3,2,4,0005-00-0000-03.png,0002-00-0001-59.png
00000009,834,1,1447436108836,1447436109437,491,268,0,0,0,1,2,1,3,0005-00-0000-40.png,0003-00-0001-61.png
00000009,835,1,1447436110385,1447436111222,925,326,0,0,0,3,2,1,5,0002-00-0000-63.png,0003-00-0000-51.png
00000009,836,0,1447436112183,1447436113111,523,247,0,0,0,2,0,2,2,0003-00-0001-01.png,0001-00-0000-29.png
00000009,837,0,1447436116040,1447436116566,512,279,0,0,0,4,3,1,7,0004-00-0001-52.png,0002-00-0000-94.png
00000009,838,1,1447436119491,1447436119940,1067,290,0,0,0,1,0,1,1,0005-00-0001-53.png,0001-00-0000-42.png
00000009,839,0,1447436120810,1447436120901,878,457,0,0,0,2,4,2,6,0003-00-0001-80.png,0004-00-0001-47.png
00000009,840,1,1447436124048,1447436124769,478,266,0,0,0,3,4,1,7,0002-00-0000-37.png,0004-00-0001-19.png
00000009,841,1,1447436125699,1447436126463,1047,269,0,0,0,4,1,3,5,0004-00-0000-74.png,0005-00-0001-52.png
00000009,842,1,1447436127460,1447436127496,877,443,0,0,0,3,1,2,4,0002-00-0001-85.png,0005-00-0000-29.png
00000009,843,0,1447436128536,1447436129433,491,236,0,0,0,4,2,2,6,0004-00-0000-45.png,0003-00-0001-18.png
00000009,844,1,1447436132559,1447436133013,938,303,0,0,0,3,0,3,3,0002-00-0001-54.png,0001-00-0001-59.png
00000009,845,1,1447436133918,1447436134690,401,328,0,0,0,0,2,2,2,0001-00-0001-67.png,0003-00-0000-30.png
00000009,846,1,1447436135567,1447436136756,491,250,0,0,0,0,4,4,4,0001-00-0000-76.png,0004-00-0001-76.png
00000009,847,0,1447436137692,1447436138274,497,261,0,0,0,1,0,1,1,0005-00-0001-44.png,0001-00-0000-56.png
00000009,848,1,1447436141339,1447436141880,499,263,0,0,0,0,3,3,3,0001-00-0000-99.png,0002-00-0001-93.png
00000009,849,1,1447436142831,1447436143653,1063,283,0,0,0,2,0,2,2,0003-00-0001-02.png,0001-00-0000-87.png
00000009,850,1,1447436144628,1447436144664,882,439,0,0,0,2,1,1,3,0003-00-0000-09.png,0005-00-0001-42.png
00000009,851,0,1447436145792,1447436145800,864,406,0,0,0,2,3,1,5,0003-00-0001-43.png,0002-00-0000-62.png
00000009,852,1,1447436148951,1447436149527,465,410,0,0,0,1,3,2,4,0005-00-0000-77.png,0002-00-0000-56.png
00000009,853,0,1447436150502,1447436150531,861,454,0,0,0,1,4,3,5,0005-00-0001-06.png,0004-00-0000-56.png
00000009,854,1,1447436153512,1447436154029,488,289,0,0,0,1,2,1,3,0005-00-0001-59.png,0003-00-0001-44.png
00000009,855,0,1447436154895,1447436154982,871,488,0,0,0,2,4,2,6,0003-00-0000-22.png,0004-00-0001-76.png
00000009,856,0,1447436158243,1447436158897,496,270,0,0,0,3,2,1,5,0002-00-0000-14.png,0003-00-0001-31.png
00000009,857,1,1447436161909,1447436162369,498,264,0,0,0,3,4,1,7,0002-00-0001-33.png,0004-00-0000-70.png
00000009,858,1,1447436163260,1447436164181,496,263,0,0,0,0,1,1,1,0001-00-0000-56.png,0005-00-0000-06.png
00000009,859,1,1447436165100,1447436166075,919,315,0,0,0,4,3,1,7,0004-00-0001-70.png,0002-00-0000-93.png
00000009,860,1,1447436167009,1447436167037,867,441,0,0,0,4,0,4,4,0004-00-0001-24.png,0001-00-0001-76.png
00000009,861,1,1447436168131,1447436168853,522,265,0,0,0,1,2,1,3,0005-00-0000-86.png,0003-00-0001-31.png
00000009,862,1,1447436169709,1447436169741,865,475,0,0,0,4,0,4,4,0004-00-0001-51.png,0001-00-0001-08.png
00000009,863,1,1447436170963,1447436170983,865,441,0,0,0,4,2,2,6,0004-00-0001-42.png,0003-00-0001-92.png
00000009,864,1,1447436172084,1447436172143,862,488,0,0,0,1,0,1,1,0005-00-0000-39.png,0001-00-0001-75.png
00000009,865,0,1447436173287,1447436173311,889,458,0,0,0,3,4,1,7,0002-00-0001-15.png,0004-00-0001-17.png
00000009,866,1,1447436176428,1447436176469,908,316,0,0,0,2,0,2,2,0003-00-0000-69.png,0001-00-0000-86.png
00000009,867,1,1447436177372,1447436178109,464,436,0,0,0,0,2,2,2,0001-00-0001-64.png,0003-00-0000-89.png
00000009,868,0,1447436179050,1447436179081,865,439,0,0,0,1,3,2,4,0005-00-0001-00.png,0002-00-0000-30.png
00000009,869,1,1447436181992,1447436182008,864,316,0,0,0,3,1,2,4,0002-00-0000-47.png,0005-00-0001-96.png
00000009,870,1,1447436182977,1447436184147,472,274,0,0,0,0,4,4,4,0001-00-0000-16.png,0004-00-0000-98.png
00000009,871,1,1447436185092,1447436185788,1062,290,0,0,0,2,1,1,3,0003-00-0000-38.png,0005-00-0000-58.png
00000009,872,1,1447436186721,1447436186753,875,466,0,0,0,3,0,3,3,0002-00-0001-03.png,0001-00-0000-43.png
00000009,873,1,1447436187971,1447436188015,872,488,0,0,0,4,1,3,5,0004-00-0000-73.png,0005-00-0000-15.png
00000009,874,0,1447436189514,1447436189566,902,495,0,0,0,0,3,3,3,0001-00-0000-88.png,0002-00-0000-38.png
00000009,875,0,1447436203276,1447436203824,916,349,0,0,0,0,1,1,1,0001-00-0001-61.png,0005-00-0000-82.png
00000009,876,0,1447436206816,1447436207369,1057,325,0,0,0,2,3,1,5,0003-00-0000-52.png,0002-00-0000-05.png
00000009,877,1,1447436210267,1447436210798,427,420,0,0,0,1,4,3,5,0005-00-0000-30.png,0004-00-0001-97.png
00000009,878,0,1447436211664,1447436212337,513,273,0,0,0,3,2,1,5,0002-00-0000-62.png,0003-00-0001-64.png
00000009,879,0,1447436216038,1447436216114,912,304,0,0,0,2,4,2,6,0003-00-0000-99.png,0004-00-0000-15.png
00000009,880,1,1447436222030,1447436222592,1068,301,0,0,0,4,3,1,7,0004-00-0000-46.png,0002-00-0001-28.png
00000009,881,0,1447436223533,1447436224524,499,250,0,0,0,2,1,1,3,0003-00-0001-47.png,0005-00-0000-26.png
00000009,882,1,1447436227705,1447436228187,1062,253,0,0,0,3,0,3,3,0002-00-0000-65.png,0001-00-0000-30.png
00000009,883,0,1447436229066,1447436230272,1057,279,0,0,0,0,4,4,4,0001-00-0001-33.png,0004-00-0001-56.png
00000009,884,0,1447436233209,1447436233304,945,425,0,0,0,1,3,2,4,0005-00-0000-49.png,0002-00-0000-01.png
00000009,885,0,1447436236699,1447436236743,877,338,0,0,0,2,4,2,6,0003-00-0001-26.png,0004-00-0001-13.png
00000009,886,1,1447436239987,1447436240482,419,376,0,0,0,0,2,2,2,0001-00-0001-08.png,0003-00-0000-77.png
00000009,887,1,1447436241410,1447436242126,1047,275,0,0,0,2,0,2,2,0003-00-0000-96.png,0001-00-0000-52.png
00000009,888,0,1447436242960,1447436242980,905,364,0,0,0,1,4,3,5,0005-00-0001-35.png,0004-00-0001-50.png
00000009,889,1,1447436246042,1447436246588,508,286,0,0,0,0,3,3,3,0001-00-0000-04.png,0002-00-0001-31.png
00000009,890,0,1447436247938,1447436248547,1041,280,0,0,0,1,2,1,3,0005-00-0000-71.png,0003-00-0000-44.png
00000009,891,0,1447436251427,1447436251944,1052,304,0,0,0,2,3,1,5,0003-00-0000-83.png,0002-00-0000-89.png
00000009,892,0,1447436254866,1447436255483,435,376,0,0,0,4,3,1,7,0004-00-0000-32.png,0002-00-0000-67.png
00000009,893,1,1447436258454,1447436259008,453,241,0,0,0,0,1,1,1,0001-00-0000-98.png,0005-00-0001-98.png
00000009,894,0,1447436259894,1447436260640,1039,298,0,0,0,3,4,1,7,0002-00-0001-73.png,0004-00-0000-97.png
00000009,895,0,1447436263872,1447436264380,501,258,0,0,0,1,0,1,1,0005-00-0001-61.png,0001-00-0001-50.png
00000009,896,1,1447436267606,1447436267688,876,358,0,0,0,4,0,4,4,0004-00-0000-36.png,0001-00-0000-97.png
00000009,897,0,1447436268630,1447436269303,498,253,0,0,0,3,1,2,4,0002-00-0001-66.png,0005-00-0000-36.png
00000009,898,1,1447436272249,1447436272288,906,388,0,0,0,4,2,2,6,0004-00-0000-35.png,0003-00-0000-29.png
00000009,899,1,1447436273284,1447436273320,862,398,0,0,0,4,1,3,5,0004-00-0001-30.png,0005-00-0000-34.png
00000009,900,0,1447436274380,1447436275246,474,374,0,0,0,3,2,1,5,0002-00-0001-83.png,0003-00-0000-54.png
00000009,901,1,1447436278490,1447436278962,479,279,0,0,0,1,2,1,3,0005-00-0001-40.png,0003-00-0000-93.png
00000009,902,1,1447436279869,1447436280526,1029,306,0,0,0,2,0,2,2,0003-00-0000-35.png,0001-00-0001-40.png
00000009,903,1,1447436281439,1447436282532,1028,231,0,0,0,3,1,2,4,0002-00-0001-92.png,0005-00-0001-23.png
00000009,904,0,1447436283467,1447436283495,862,395,0,0,0,0,3,3,3,0001-00-0001-00.png,0002-00-0001-69.png
00000009,905,1,1447436286764,1447436287282,939,347,0,0,0,4,3,1,7,0004-00-0001-36.png,0002-00-0001-50.png
00000009,906,0,1447436288167,1447436288215,862,398,0,0,0,2,3,1,5,0003-00-0000-41.png,0002-00-0000-38.png
00000009,907,1,1447436291242,1447436291822,516,250,0,0,0,0,1,1,1,0001-00-0000-61.png,0005-00-0000-97.png
00000009,908,1,1447436292739,1447436293448,1167,366,0,0,0,4,1,3,5,0004-00-0001-44.png,0005-00-0001-19.png
00000009,909,1,1447436294419,1447436294439,905,369,0,0,0,2,1,1,3,0003-00-0001-68.png,0005-00-0001-63.png
00000009,910,0,1447436295569,1447436295593,879,442,0,0,0,1,3,2,4,0005-00-0000-79.png,0002-00-0000-69.png
00000009,911,1,1447436298779,1447436299303,964,384,0,0,0,4,2,2,6,0004-00-0001-07.png,0003-00-0000-42.png
00000009,912,0,1447436300134,1447436300961,512,245,0,0,0,1,0,1,1,0005-00-0000-25.png,0001-00-0001-50.png
00000009,913,1,1447436304108,1447436304148,901,332,0,0,0,4,0,4,4,0004-00-0001-12.png,0001-00-0000-22.png
00000009,914,1,1447436305089,1447436305684,509,267,0,0,0,0,4,4,4,0001-00-0001-73.png,0004-00-0001-28.png
00000009,915,0,1447436306560,1447436306592,875,425,0,0,0,0,2,2,2,0001-00-0000-47.png,0003-00-0000-49.png
00000009,916,1,1447436309482,1447436309975,502,270,0,0,0,1,4,3,5,0005-00-0000-87.png,0004-00-0001-67.png
00000009,917,0,1447436310895,1447436311592,442,358,0,0,0,3,2,1,5,0002-00-0001-50.png,0003-00-0001-68.png
00000009,918,1,1447436314552,1447436315013,934,323,0,0,0,3,0,3,3,0002-00-0000-85.png,0001-00-0001-85.png
00000009,919,0,1447436315911,1447436316624,1047,276,0,0,0,2,4,2,6,0003-00-0000-82.png,0004-00-0000-55.png
00000009,920,0,1447436319728,1447436320037,1090,307,0,0,0,3,4,1,7,0002-00-0000-29.png,0004-00-0000-96.png
00000009,921,0,1447436324809,1447436325301,480,291,0,0,0,4,3,1,7,0004-00-0000-17.png,0002-00-0000-40.png
00000009,922,1,1447436328473,1447436328501,863,358,0,0,0,3,1,2,4,0002-00-0000-68.png,0005-00-0000-67.png
00000009,923,1,1447436329499,1447436330312,416,364,0,0,0,3,4,1,7,0002-00-0000-56.png,0004-00-0001-56.png
00000009,924,0,1447436331297,1447436331353,890,409,0,0,0,1,4,3,5,0005-00-0000-87.png,0004-00-0001-90.png
00000009,925,1,1447436334497,1447436334980,478,267,0,0,0,1,3,2,4,0005-00-0000-58.png,0002-00-0001-81.png
00000009,926,0,1447436335891,1447436336654,1049,284,0,0,0,2,3,1,5,0003-00-0000-68.png,0002-00-0000-47.png
00000009,927,0,1447436339705,1447436340362,483,287,0,0,0,4,2,2,6,0004-00-0001-97.png,0003-00-0001-84.png
00000009,928,1,1447436343680,1447436344282,949,410,0,0,0,3,2,1,5,0002-00-0001-12.png,0003-00-0000-67.png
00000009,929,1,1447436345128,1447436345160,874,410,0,0,0,1,0,1,1,0005-00-0000-28.png,0001-00-0001-04.png
00000009,930,1,1447436346321,1447436346385,888,425,0,0,0,3,0,3,3,0002-00-0001-03.png,0001-00-0000-40.png
00000009,931,0,1447436347513,1447436347553,869,455,0,0,0,1,2,1,3,0005-00-0001-25.png,0003-00-0000-03.png
00000009,932,0,1447436350425,1447436350931,945,325,0,0,0,2,4,2,6,0003-00-0000-54.png,0004-00-0001-58.png
00000009,933,0,1447436353814,1447436354779,913,316,0,0,0,0,2,2,2,0001-00-0001-44.png,0003-00-0000-55.png
00000009,934,1,1447436357902,1447436358400,496,274,0,0,0,0,1,1,1,0001-00-0000-03.png,0005-00-0000-59.png
00000009,935,1,1447436359250,1447436359948,512,256,0,0,0,0,4,4,4,0001-00-0001-00.png,0004-00-0000-00.png
00000009,936,1,1447436360803,1447436361562,477,433,0,0,0,0,3,3,3,0001-00-0001-41.png,0002-00-0001-77.png
00000009,937,1,1447436362510,1447436363157,911,330,0,0,0,2,0,2,2,0003-00-0000-80.png,0001-00-0001-02.png
00000009,938,1,1447436364170,1447436364917,958,344,0,0,0,4,1,3,5,0004-00-0001-78.png,0005-00-0001-88.png
00000009,939,1,1447436365821,1447436365868,870,410,0,0,0,4,0,4,4,0004-00-0000-71.png,0001-00-0000-84.png
00000009,940,1,1447436366964,1447436367012,862,462,0,0,0,2,1,1,3,0003-00-0001-17.png,0005-00-0000-28.png
00000009,941,1,1447436367988,1447436368820,938,333,0,0,0,3,2,1,5,0002-00-0000-74.png,0003-00-0000-72.png
00000009,942,0,1447436369817,1447436369865,888,436,0,0,0,2,3,1,5,0003-00-0000-93.png,0002-00-0001-29.png
00000009,943,1,1447436372867,1447436373380,426,367,0,0,0,1,3,2,4,0005-00-0001-67.png,0002-00-0001-21.png
00000009,944,1,1447436374765,1447436374805,862,384,0,0,0,3,1,2,4,0002-00-0001-71.png,0005-00-0001-60.png
00000009,945,0,1447436375777,1447436375805,875,448,0,0,0,0,2,2,2,0001-00-0001-58.png,0003-00-0000-56.png
00000009,946,1,1447436379327,1447436379363,910,309,0,0,0,4,1,3,5,0004-00-0000-58.png,0005-00-0000-28.png
00000009,947,1,1447436380353,1447436381016,929,325,0,0,0,4,0,4,4,0004-00-0001-14.png,0001-00-0000-52.png
00000009,948,0,1447436381850,1447436381917,924,439,0,0,0,0,1,1,1,0001-00-0001-33.png,0005-00-0000-63.png
00000009,949,1,1447436387741,1447436388252,508,263,0,0,0,1,4,3,5,0005-00-0001-51.png,0004-00-0001-86.png
00000009,950,1,1447436389134,1447436390105,412,331,0,0,0,2,4,2,6,0003-00-0000-57.png,0004-00-0000-49.png
