subject_id,trial,correct_response,stim_time,response_time,x_coord,y_coord,trial_timeout,timeout_time,interTrial_timeout,left_rank,right_rank,distance,joint_rank,left_image,right_image
00000009,1,1,1448644283399,1448644283407,308,248,0,0,0,0,4,4,4,0001-00-0000-11.png,0004-00-0000-75.png
00000009,2,1,1448644285074,1448644285560,985,465,0,0,0,3,2,1,5,0002-00-0001-62.png,0003-00-0001-66.png
00000009,3,1,1448644287072,1448644287681,1041,315,0,0,0,2,0,2,2,0003-00-0000-25.png,0001-00-0000-52.png
00000009,4,1,1448644288785,1448644289672,397,362,0,0,0,1,3,2,4,0005-00-0001-71.png,0002-00-0000-31.png
00000009,5,0,1448644290730,1448644291059,936,517,0,0,0,1,2,1,3,0005-00-0001-77.png,0003-00-0000-28.png
00000009,6,1,1448644294109,1448644294137,874,403,0,0,0,4,1,3,5,0004-00-0001-01.png,0005-00-0001-26.png
00000009,7,1,1448644295220,1448644296113,416,325,0,0,0,3,4,1,7,0002-00-0000-19.png,0004-00-0001-18.png
00000009,8,1,1448644297193,1448644297935,1016,291,0,0,0,2,1,1,3,0003-00-0001-34.png,0005-00-0000-29.png
00000009,9,1,1448644298979,1448644299886,923,358,0,0,0,4,0,4,4,0004-00-0000-51.png,0001-00-0001-88.png
00000009,10,1,1448644300986,1448644301628,1067,264,0,0,0,1,0,1,1,0005-00-0001-61.png,0001-00-0001-59.png
00000009,11,0,1448644302693,1448644302745,862,451,0,0,0,0,3,3,3,0001-00-0001-41.png,0002-00-0001-79.png
00000009,12,1,1448644305821,1448644306569,427,341,0,0,0,2,4,2,6,0003-00-0000-05.png,0004-00-0000-07.png
00000009,13,0,1448644307475,1448644308387,964,416,0,0,0,0,1,1,1,0001-00-0001-07.png,0005-00-0000-58.png
00000009,14,0,1448644311310,1448644311330,862,358,0,0,0,0,2,2,2,0001-00-0000-36.png,0003-00-0001-81.png
00000009,15,1,1448644314368,1448644314885,973,325,0,0,0,3,1,2,4,0002-00-0001-95.png,0005-00-0001-85.png
00000009,16,1,1448644315811,1448644316691,430,352,0,0,0,1,4,3,5,0005-00-0000-24.png,0004-00-0001-84.png
00000009,17,0,1448644317699,1448644318416,977,358,0,0,0,2,3,1,5,0003-00-0000-29.png,0002-00-0000-19.png
00000009,18,1,1448644321545,1448644321593,917,283,0,0,0,4,2,2,6,0004-00-0001-10.png,0003-00-0000-39.png
00000009,19,1,1448644323107,1448644323989,1041,253,0,0,0,4,3,1,7,0004-00-0000-74.png,0002-00-0000-62.png
00000009,20,0,1448644324949,1448644325881,455,280,0,0,0,3,0,3,3,0002-00-0001-78.png,0001-00-0001-83.png
00000009,21,0,1448644329042,1448644329846,461,269,0,0,0,4,3,1,7,0004-00-0000-39.png,0002-00-0000-14.png
00000009,22,1,1448644332868,1448644332896,868,349,0,0,0,2,0,2,2,0003-00-0001-03.png,0001-00-0001-46.png
00000009,23,1,1448644333949,1448644334755,939,338,0,0,0,2,1,1,3,0003-00-0000-59.png,0005-00-0001-17.png
00000009,24,1,1448644335707,1448644336798,964,372,0,0,0,3,2,1,5,0002-00-0000-44.png,0003-00-0001-47.png
00000009,25,0,1448644337804,1448644337875,883,443,0,0,0,2,3,1,5,0003-00-0001-97.png,0002-00-0001-18.png
00000009,26,1,1448644340807,1448644341477,477,436,0,0,0,0,3,3,3,0001-00-0000-19.png,0002-00-0001-52.png
00000009,27,1,1448644342344,1448644343317,968,340,0,0,0,3,1,2,4,0002-00-0001-49.png,0005-00-0001-64.png
00000009,28,1,1448644344275,1448644345064,395,350,0,0,0,1,2,1,3,0005-00-0001-31.png,0003-00-0000-73.png
00000009,29,1,1448644346060,1448644346806,478,262,0,0,0,0,2,2,2,0001-00-0000-98.png,0003-00-0001-63.png
00000009,30,1,1448644347952,1448644348565,954,346,0,0,0,1,0,1,1,0005-00-0000-83.png,0001-00-0000-62.png
00000009,31,0,1448644349481,1448644349521,862,410,0,0,0,1,4,3,5,0005-00-0000-94.png,0004-00-0001-52.png
00000009,32,1,1448644352631,1448644353149,397,399,0,0,0,0,1,1,1,0001-00-0001-00.png,0005-00-0001-71.png
00000009,33,1,1448644354010,1448644354723,505,243,0,0,0,1,3,2,4,0005-00-0001-21.png,0002-00-0001-25.png
00000009,34,1,1448644355682,1448644356803,934,345,0,0,0,4,2,2,6,0004-00-0001-08.png,0003-00-0000-11.png
00000009,35,1,1448644357759,1448644358484,950,334,0,0,0,3,0,3,3,0002-00-0000-46.png,0001-00-0000-10.png
00000009,36,0,1448644359448,1448644359549,862,488,0,0,0,0,4,4,4,0001-00-0001-31.png,0004-00-0001-29.png
00000009,37,0,1448644365645,1448644366177,943,391,0,0,0,2,4,2,6,0003-00-0000-04.png,0004-00-0001-15.png
00000009,38,1,1448644369315,1448644369817,1065,272,0,0,0,4,1,3,5,0004-00-0001-74.png,0005-00-0001-16.png
00000009,39,1,1448644371142,1448644371515,1037,489,0,0,0,4,0,4,4,0004-00-0001-85.png,0001-00-0001-26.png
00000009,40,0,1448644372497,1448644385099,966,355,0,0,0,3,4,1,7,0002-00-0000-69.png,0004-00-0001-49.png
00000009,41,1,1448644388310,1448644388772,1036,271,0,0,0,1,0,1,1,0005-00-0001-94.png,0001-00-0001-86.png
00000009,42,1,1448644389602,1448644390314,465,265,0,0,0,1,4,3,5,0005-00-0000-49.png,0004-00-0000-28.png
00000009,43,1,1448644391163,1448644392170,469,293,0,0,0,2,3,1,5,0003-00-0001-32.png,0002-00-0001-90.png
00000009,44,1,1448644393010,1448644393678,949,420,0,0,0,4,0,4,4,0004-00-0001-90.png,0001-00-0000-33.png
00000009,45,1,1448644394553,1448644395194,473,263,0,0,0,0,1,1,1,0001-00-0001-62.png,0005-00-0001-88.png
00000009,46,1,1448644396195,1448644397045,398,341,0,0,0,0,4,4,4,0001-00-0000-35.png,0004-00-0000-65.png
00000009,47,1,1448644397900,1448644398515,939,411,0,0,0,2,0,2,2,0003-00-0001-61.png,0001-00-0001-64.png
00000009,48,1,1448644399402,1448644400357,923,332,0,0,0,2,1,1,3,0003-00-0000-55.png,0005-00-0001-43.png
00000009,49,1,1448644401301,1448644402147,453,263,0,0,0,3,4,1,7,0002-00-0000-51.png,0004-00-0000-51.png
00000009,50,1,1448644403081,1448644403680,931,324,0,0,0,3,0,3,3,0002-00-0000-78.png,0001-00-0001-99.png
00000009,51,0,1448644404602,1448644405324,452,253,0,0,0,4,2,2,6,0004-00-0001-46.png,0003-00-0001-41.png
00000009,52,1,1448644408206,1448644408220,427,498,0,0,0,0,2,2,2,0001-00-0001-49.png,0003-00-0000-29.png
00000009,53,1,1448644409352,1448644410203,913,321,0,0,0,4,1,3,5,0004-00-0000-52.png,0005-00-0001-96.png
00000009,54,0,1448644411159,1448644412066,481,248,0,0,0,3,2,1,5,0002-00-0001-83.png,0003-00-0001-22.png
00000009,55,1,1448644415006,1448644415712,342,375,0,0,0,2,4,2,6,0003-00-0000-00.png,0004-00-0001-23.png
00000009,56,1,1448644416615,1448644417651,945,341,0,0,0,4,3,1,7,0004-00-0000-57.png,0002-00-0001-81.png
00000009,57,1,1448644418633,1448644419495,453,239,0,0,0,1,2,1,3,0005-00-0000-29.png,0003-00-0000-80.png
00000009,58,1,1448644420461,1448644421342,439,265,0,0,0,0,3,3,3,0001-00-0000-53.png,0002-00-0001-85.png
00000009,59,1,1448644422337,1448644423103,1016,267,0,0,0,3,1,2,4,0002-00-0001-08.png,0005-00-0000-52.png
00000009,60,1,1448644424216,1448644425219,463,254,0,0,0,1,3,2,4,0005-00-0000-77.png,0002-00-0000-91.png
00000009,61,0,1448644426205,1448644426221,519,564,0,0,0,2,0,2,2,0003-00-0000-53.png,0001-00-0001-81.png
00000009,62,0,1448644429361,1448644429401,862,341,0,0,0,0,2,2,2,0001-00-0001-22.png,0003-00-0001-87.png
00000009,63,1,1448644432275,1448644432722,915,341,0,0,0,3,2,1,5,0002-00-0000-61.png,0003-00-0000-92.png
00000009,64,1,1448644434113,1448644434775,459,261,0,0,0,1,2,1,3,0005-00-0001-29.png,0003-00-0000-27.png
00000009,65,1,1448644435823,1448644436739,1046,263,0,0,0,3,1,2,4,0002-00-0001-72.png,0005-00-0000-81.png
00000009,66,0,1448644437701,1448644438766,982,298,0,0,0,2,4,2,6,0003-00-0000-46.png,0004-00-0001-05.png
00000009,67,1,1448644441903,1448644442402,437,286,0,0,0,3,4,1,7,0002-00-0001-65.png,0004-00-0001-69.png
00000009,68,0,1448644443274,1448644444489,390,390,0,0,0,4,3,1,7,0004-00-0000-96.png,0002-00-0000-09.png
00000009,69,1,1448644447739,1448644447827,921,233,0,0,0,4,1,3,5,0004-00-0001-11.png,0005-00-0001-72.png
00000009,70,1,1448644448832,1448644449676,476,270,0,0,0,1,3,2,4,0005-00-0001-75.png,0002-00-0000-03.png
00000009,71,0,1448644450609,1448644451419,913,342,0,0,0,0,1,1,1,0001-00-0001-28.png,0005-00-0000-50.png
00000009,72,0,1448644454505,1448644455175,990,332,0,0,0,0,4,4,4,0001-00-0001-95.png,0004-00-0001-94.png
00000009,73,1,1448644461857,1448644462487,964,482,0,0,0,4,0,4,4,0004-00-0000-13.png,0001-00-0000-09.png
00000009,74,0,1448644463360,1448644463953,461,272,0,0,0,1,0,1,1,0005-00-0001-27.png,0001-00-0000-82.png
00000009,75,0,1448644466955,1448644466987,887,357,0,0,0,1,4,3,5,0005-00-0001-27.png,0004-00-0001-64.png
00000009,76,1,1448644469839,1448644470476,406,400,0,0,0,0,3,3,3,0001-00-0001-42.png,0002-00-0000-89.png
00000009,77,1,1448644471340,1448644472221,401,339,0,0,0,2,3,1,5,0003-00-0001-42.png,0002-00-0001-61.png
00000009,78,1,1448644473225,1448644474077,1031,253,0,0,0,4,2,2,6,0004-00-0000-48.png,0003-00-0001-40.png
00000009,79,1,1448644475046,1448644475709,1041,279,0,0,0,3,0,3,3,0002-00-0001-01.png,0001-00-0000-61.png
00000009,80,1,1448644476927,1448644477626,956,309,0,0,0,2,1,1,3,0003-00-0001-29.png,0005-00-0000-57.png
00000009,81,1,1448644478574,1448644479468,464,264,0,0,0,2,4,2,6,0003-00-0001-15.png,0004-00-0001-34.png
00000009,82,1,1448644480394,1448644481255,477,269,0,0,0,3,4,1,7,0002-00-0001-30.png,0004-00-0001-71.png
00000009,83,1,1448644482250,1448644483038,456,270,0,0,0,1,2,1,3,0005-00-0000-51.png,0003-00-0000-16.png
00000009,84,1,1448644483991,1448644484663,916,297,0,0,0,3,0,3,3,0002-00-0001-66.png,0001-00-0001-32.png
00000009,85,1,1448644485630,1448644485791,888,541,0,0,0,4,1,3,5,0004-00-0001-54.png,0005-00-0000-99.png
00000009,86,1,1448644487038,1448644487853,488,245,0,0,0,2,3,1,5,0003-00-0001-72.png,0002-00-0000-32.png
00000009,87,1,1448644488761,1448644489693,427,384,0,0,0,0,1,1,1,0001-00-0001-08.png,0005-00-0000-59.png
00000009,88,1,1448644490596,1448644491338,929,302,0,0,0,2,1,1,3,0003-00-0001-37.png,0005-00-0000-73.png
00000009,89,1,1448644492376,1448644492432,888,422,0,0,0,2,0,2,2,0003-00-0001-26.png,0001-00-0001-92.png
00000009,90,0,1448644493652,1448644493686,862,532,0,0,0,0,2,2,2,0001-00-0000-49.png,0003-00-0000-20.png
00000009,91,1,1448644496780,1448644496820,868,327,0,0,0,1,0,1,1,0005-00-0001-12.png,0001-00-0001-32.png
00000009,92,1,1448644497735,1448644498433,415,380,0,0,0,0,4,4,4,0001-00-0001-71.png,0004-00-0001-40.png
00000009,93,1,1448644499343,1448644500405,403,351,0,0,0,0,3,3,3,0001-00-0000-61.png,0002-00-0000-62.png
00000009,94,1,1448644501269,1448644502372,482,260,0,0,0,1,3,2,4,0005-00-0001-75.png,0002-00-0001-33.png
00000009,95,1,1448644503375,1448644504467,992,283,0,0,0,3,2,1,5,0002-00-0001-83.png,0003-00-0001-39.png
00000009,96,1,1448644505374,1448644506067,1038,277,0,0,0,3,1,2,4,0002-00-0000-42.png,0005-00-0000-80.png
00000009,97,1,1448644507033,1448644507695,484,268,0,0,0,1,4,3,5,0005-00-0000-28.png,0004-00-0000-60.png
00000009,98,1,1448644508794,1448644509974,998,432,0,0,0,4,0,4,4,0004-00-0000-18.png,0001-00-0000-92.png
00000009,99,1,1448644510886,1448644512376,1041,293,0,0,0,4,3,1,7,0004-00-0001-03.png,0002-00-0001-66.png
00000009,100,0,1448644513295,1448644514267,474,333,0,0,0,4,2,2,6,0004-00-0000-18.png,0003-00-0000-25.png
00000009,101,1,1448644517257,1448644517819,1040,274,0,0,0,4,1,3,5,0004-00-0000-05.png,0005-00-0001-83.png
00000009,102,1,1448644519225,1448644519873,958,308,0,0,0,3,0,3,3,0002-00-0000-91.png,0001-00-0001-10.png
00000009,103,0,1448644520822,1448644521860,949,328,0,0,0,1,2,1,3,0005-00-0000-60.png,0003-00-0001-87.png
00000009,104,1,1448644524842,1448644525594,949,324,0,0,0,3,2,1,5,0002-00-0001-81.png,0003-00-0000-95.png
00000009,105,1,1448644526488,1448644527397,394,385,0,0,0,2,3,1,5,0003-00-0001-25.png,0002-00-0000-04.png
00000009,106,0,1448644530693,1448644531334,964,343,0,0,0,0,1,1,1,0001-00-0001-01.png,0005-00-0001-04.png
00000009,107,0,1448644534502,1448644534754,984,346,0,0,0,0,4,4,4,0001-00-0000-26.png,0004-00-0001-86.png
00000009,108,1,1448644537679,1448644538407,509,280,0,0,0,2,4,2,6,0003-00-0000-68.png,0004-00-0001-70.png
00000009,109,0,1448644539259,1448644540094,424,279,0,0,0,2,0,2,2,0003-00-0001-67.png,0001-00-0000-48.png
00000009,110,1,1448644543284,1448644544167,1050,315,0,0,0,4,3,1,7,0004-00-0001-04.png,0002-00-0000-05.png
00000009,111,0,1448644545047,1448644545131,859,459,0,0,0,1,4,3,5,0005-00-0001-85.png,0004-00-0000-29.png
00000009,112,1,1448644548175,1448644548215,864,332,0,0,0,2,1,1,3,0003-00-0001-35.png,0005-00-0001-55.png
00000009,113,0,1448644549200,1448644549951,492,252,0,0,0,1,0,1,1,0005-00-0001-42.png,0001-00-0000-08.png
00000009,114,1,1448644553065,1448644553101,912,318,0,0,0,4,2,2,6,0004-00-0000-96.png,0003-00-0001-96.png
00000009,115,1,1448644554060,1448644554665,384,322,0,0,0,0,3,3,3,0001-00-0001-64.png,0002-00-0001-82.png
00000009,116,1,1448644555603,1448644556781,388,357,0,0,0,3,4,1,7,0002-00-0000-78.png,0004-00-0001-84.png
00000009,117,1,1448644557635,1448644558435,1041,279,0,0,0,4,0,4,4,0004-00-0000-28.png,0001-00-0001-06.png
00000009,118,1,1448644559417,1448644560189,477,235,0,0,0,1,3,2,4,0005-00-0000-77.png,0002-00-0000-86.png
00000009,119,1,1448644561214,1448644562095,933,337,0,0,0,3,1,2,4,0002-00-0000-39.png,0005-00-0001-49.png
00000009,120,0,1448644562983,1448644563018,862,420,0,0,0,0,2,2,2,0001-00-0001-75.png,0003-00-0001-21.png
00000009,121,0,1448644565915,1448644565971,900,410,0,0,0,0,1,1,1,0001-00-0000-77.png,0005-00-0000-69.png
00000009,122,1,1448644569095,1448644569139,890,331,0,0,0,4,0,4,4,0004-00-0000-55.png,0001-00-0000-19.png
00000009,123,1,1448644570079,1448644571181,370,351,0,0,0,3,4,1,7,0002-00-0000-13.png,0004-00-0001-46.png
00000009,124,1,1448644572096,1448644572760,464,258,0,0,0,1,4,3,5,0005-00-0000-97.png,0004-00-0001-29.png
00000009,125,1,1448644573724,1448644574449,1033,279,0,0,0,2,0,2,2,0003-00-0000-14.png,0001-00-0001-47.png
00000009,126,1,1448644575386,1448644576207,482,260,0,0,0,0,3,3,3,0001-00-0001-44.png,0002-00-0001-25.png
00000009,127,1,1448644577164,1448644578077,964,394,0,0,0,3,2,1,5,0002-00-0000-29.png,0003-00-0001-27.png
00000009,128,1,1448644578963,1448644579616,467,267,0,0,0,1,2,1,3,0005-00-0000-56.png,0003-00-0001-29.png
00000009,129,1,1448644580551,1448644581462,936,340,0,0,0,4,2,2,6,0004-00-0001-58.png,0003-00-0001-85.png
00000009,130,0,1448644582401,1448644583032,479,290,0,0,0,1,0,1,1,0005-00-0000-41.png,0001-00-0000-53.png
00000009,131,0,1448644586213,1448644586249,880,343,0,0,0,0,2,2,2,0001-00-0000-06.png,0003-00-0000-20.png
00000009,132,1,1448644589348,1448644589900,964,373,0,0,0,2,1,1,3,0003-00-0000-06.png,0005-00-0000-36.png
00000009,133,1,1448644591305,1448644591947,407,351,0,0,0,0,4,4,4,0001-00-0000-57.png,0004-00-0000-32.png
00000009,134,1,1448644593371,1448644593885,948,317,0,0,0,3,1,2,4,0002-00-0001-94.png,0005-00-0001-50.png
00000009,135,1,1448644594731,1448644595610,1036,272,0,0,0,3,0,3,3,0002-00-0000-95.png,0001-00-0000-02.png
00000009,136,1,1448644596512,1448644597290,420,390,0,0,0,1,3,2,4,0005-00-0001-93.png,0002-00-0000-34.png
00000009,137,1,1448644598190,1448644598995,946,427,0,0,0,4,3,1,7,0004-00-0001-96.png,0002-00-0001-10.png
00000009,138,1,1448644600016,1448644600880,401,353,0,0,0,2,3,1,5,0003-00-0001-54.png,0002-00-0001-64.png
00000009,139,1,1448644601878,1448644602959,1037,278,0,0,0,4,1,3,5,0004-00-0001-63.png,0005-00-0001-62.png
00000009,140,1,1448644603844,1448644604962,440,395,0,0,0,2,4,2,6,0003-00-0000-02.png,0004-00-0000-76.png
00000009,141,1,1448644605852,1448644606869,477,255,0,0,0,2,4,2,6,0003-00-0000-86.png,0004-00-0001-87.png
00000009,142,1,1448644607742,1448644608815,933,317,0,0,0,4,3,1,7,0004-00-0001-23.png,0002-00-0001-71.png
00000009,143,1,1448644609686,1448644610432,478,278,0,0,0,0,2,2,2,0001-00-0000-66.png,0003-00-0001-73.png
00000009,144,1,1448644611321,1448644611404,523,527,0,0,0,0,4,4,4,0001-00-0000-03.png,0004-00-0000-53.png
00000009,145,1,1448644612590,1448644613343,947,306,0,0,0,1,0,1,1,0005-00-0001-73.png,0001-00-0000-40.png
00000009,146,0,1448644614240,1448644614244,859,415,0,0,0,2,3,1,5,0003-00-0001-90.png,0002-00-0001-86.png
00000009,147,0,1448644617277,1448644617337,913,358,0,0,0,0,3,3,3,0001-00-0001-26.png,0002-00-0001-26.png
00000009,148,0,1448644620429,1448644620595,1047,309,0,0,0,1,4,3,5,0005-00-0000-66.png,0004-00-0001-00.png
00000009,149,0,1448644623638,1448644624141,972,432,0,0,0,0,1,1,1,0001-00-0000-53.png,0005-00-0001-96.png
00000009,150,0,1448644627109,1448644627169,858,363,0,0,0,1,2,1,3,0005-00-0001-56.png,0003-00-0000-12.png
00000009,151,1,1448644630052,1448644630640,939,349,0,0,0,3,1,2,4,0002-00-0001-81.png,0005-00-0000-57.png
00000009,152,0,1448644631968,1448644632630,943,327,0,0,0,3,4,1,7,0002-00-0000-11.png,0004-00-0000-42.png
00000009,153,1,1448644635568,1448644636448,946,386,0,0,0,2,0,2,2,0003-00-0001-57.png,0001-00-0001-81.png
00000009,154,1,1448644637314,1448644637483,863,462,0,0,0,3,0,3,3,0002-00-0000-56.png,0001-00-0000-51.png
00000009,155,1,1448644638527,1448644639304,1041,279,0,0,0,4,1,3,5,0004-00-0001-24.png,0005-00-0001-27.png
00000009,156,1,1448644640225,1448644640293,862,410,0,0,0,4,0,4,4,0004-00-0001-25.png,0001-00-0001-68.png
00000009,157,1,1448644641411,1448644641491,862,452,0,0,0,3,2,1,5,0002-00-0000-49.png,0003-00-0000-56.png
00000009,158,1,1448644642603,1448644643512,1016,279,0,0,0,4,2,2,6,0004-00-0001-16.png,0003-00-0001-94.png
00000009,159,0,1448644644561,1448644644628,872,410,0,0,0,1,3,2,4,0005-00-0001-04.png,0002-00-0000-11.png
00000009,160,1,1448644647611,1448644647679,913,462,0,0,0,2,1,1,3,0003-00-0000-83.png,0005-00-0000-85.png
00000009,161,1,1448644648640,1448644649416,479,271,0,0,0,2,3,1,5,0003-00-0001-98.png,0002-00-0001-20.png
00000009,162,1,1448644650282,1448644650952,939,332,0,0,0,2,1,1,3,0003-00-0000-87.png,0005-00-0000-94.png
00000009,163,1,1448644651954,1448644653025,951,318,0,0,0,4,2,2,6,0004-00-0000-57.png,0003-00-0001-31.png
00000009,164,1,1448644653960,1448644654817,480,283,0,0,0,1,2,1,3,0005-00-0000-26.png,0003-00-0001-01.png
00000009,165,1,1448644655696,1448644656433,468,259,0,0,0,0,4,4,4,0001-00-0001-59.png,0004-00-0000-09.png
00000009,166,1,1448644657346,1448644657984,478,290,0,0,0,2,4,2,6,0003-00-0000-37.png,0004-00-0001-51.png
00000009,167,1,1448644658972,1448644659610,510,274,0,0,0,0,1,1,1,0001-00-0001-12.png,0005-00-0001-93.png
00000009,168,1,1448644660499,1448644661325,943,314,0,0,0,3,1,2,4,0002-00-0000-82.png,0005-00-0001-78.png
00000009,169,0,1448644662272,1448644663051,478,245,0,0,0,1,0,1,1,0005-00-0001-05.png,0001-00-0001-61.png
00000009,170,1,1448644665890,1448644666463,1000,358,0,0,0,3,0,3,3,0002-00-0000-09.png,0001-00-0001-56.png
00000009,171,1,1448644667356,1448644668031,504,242,0,0,0,1,4,3,5,0005-00-0001-76.png,0004-00-0000-76.png
00000009,172,0,1448644668982,1448644669980,939,341,0,0,0,3,4,1,7,0002-00-0000-14.png,0004-00-0001-90.png
00000009,173,1,1448644673108,1448644673727,964,338,0,0,0,4,0,4,4,0004-00-0000-64.png,0001-00-0001-68.png
00000009,174,1,1448644674618,1448644675224,486,248,0,0,0,0,3,3,3,0001-00-0001-67.png,0002-00-0001-95.png
00000009,175,0,1448644676068,1448644676866,478,290,0,0,0,2,0,2,2,0003-00-0001-83.png,0001-00-0001-89.png
00000009,176,1,1448644680005,1448644680046,880,358,0,0,0,4,1,3,5,0004-00-0000-16.png,0005-00-0000-06.png
00000009,177,1,1448644681032,1448644681632,493,269,0,0,0,1,3,2,4,0005-00-0000-87.png,0002-00-0001-84.png
00000009,178,0,1448644682520,1448644683320,519,278,0,0,0,4,3,1,7,0004-00-0000-66.png,0002-00-0001-82.png
00000009,179,1,1448644686573,1448644687057,485,275,0,0,0,0,2,2,2,0001-00-0001-88.png,0003-00-0001-34.png
00000009,180,1,1448644687897,1448644688999,990,290,0,0,0,3,2,1,5,0002-00-0001-02.png,0003-00-0001-69.png
00000009,181,1,1448644689913,1448644690531,486,271,0,0,0,0,2,2,2,0001-00-0001-23.png,0003-00-0000-94.png
00000009,182,1,1448644691472,1448644692601,375,348,0,0,0,2,4,2,6,0003-00-0000-99.png,0004-00-0001-17.png
00000009,183,0,1448644693549,1448644694573,484,261,0,0,0,1,0,1,1,0005-00-0000-22.png,0001-00-0000-81.png
00000009,184,0,1448644697733,1448644697761,925,332,0,0,0,1,3,2,4,0005-00-0000-97.png,0002-00-0000-71.png
00000009,185,1,1448644700728,1448644701418,414,365,0,0,0,1,4,3,5,0005-00-0001-37.png,0004-00-0001-98.png
00000009,186,1,1448644702264,1448644703124,945,322,0,0,0,3,0,3,3,0002-00-0000-12.png,0001-00-0001-11.png
00000009,187,1,1448644703992,1448644705012,1072,276,0,0,0,2,1,1,3,0003-00-0001-89.png,0005-00-0000-77.png
00000009,188,1,1448644706114,1448644706789,415,351,0,0,0,2,3,1,5,0003-00-0000-53.png,0002-00-0000-88.png
00000009,189,0,1448644707740,1448644708547,1041,278,0,0,0,0,1,1,1,0001-00-0000-39.png,0005-00-0000-41.png
00000009,190,1,1448644711374,1448644712027,964,322,0,0,0,3,1,2,4,0002-00-0001-61.png,0005-00-0000-69.png
00000009,191,1,1448644712921,1448644713766,947,384,0,0,0,2,0,2,2,0003-00-0000-59.png,0001-00-0001-38.png
00000009,192,0,1448644714607,1448644714678,867,429,0,0,0,1,2,1,3,0005-00-0000-16.png,0003-00-0000-14.png
00000009,193,0,1448644717818,1448644717855,862,342,0,0,0,3,4,1,7,0002-00-0000-49.png,0004-00-0000-07.png
00000009,194,1,1448644721046,1448644721578,463,281,0,0,0,0,3,3,3,0001-00-0000-20.png,0002-00-0000-24.png
00000009,195,1,1448644722407,1448644723250,935,331,0,0,0,4,1,3,5,0004-00-0001-96.png,0005-00-0001-11.png
00000009,196,1,1448644724201,1448644724261,864,409,0,0,0,4,2,2,6,0004-00-0000-60.png,0003-00-0001-62.png
00000009,197,0,1448644725290,1448644725938,408,349,0,0,0,3,2,1,5,0002-00-0001-57.png,0003-00-0001-27.png
00000009,198,0,1448644729159,1448644729789,478,268,0,0,0,4,3,1,7,0004-00-0001-86.png,0002-00-0000-77.png
00000009,199,1,1448644732985,1448644733465,940,302,0,0,0,4,0,4,4,0004-00-0000-51.png,0001-00-0001-19.png
00000009,200,1,1448644734315,1448644735346,414,341,0,0,0,0,4,4,4,0001-00-0000-17.png,0004-00-0000-50.png
00000009,201,0,1448644736212,1448644737314,427,420,0,0,0,2,1,1,3,0003-00-0001-11.png,0005-00-0000-02.png
00000009,202,1,1448644740409,1448644740549,888,419,0,0,0,3,1,2,4,0002-00-0001-00.png,0005-00-0000-14.png
00000009,203,0,1448644741568,1448644742258,478,266,0,0,0,4,0,4,4,0004-00-0000-56.png,0001-00-0001-41.png
00000009,204,0,1448644745257,1448644745324,862,407,0,0,0,3,4,1,7,0002-00-0001-11.png,0004-00-0001-49.png
00000009,205,1,1448644748306,1448644748834,489,305,0,0,0,1,2,1,3,0005-00-0000-76.png,0003-00-0001-58.png
00000009,206,1,1448644749767,1448644750563,509,269,0,0,0,0,4,4,4,0001-00-0001-98.png,0004-00-0001-59.png
00000009,207,1,1448644751405,1448644752585,411,331,0,0,0,1,3,2,4,0005-00-0000-81.png,0002-00-0000-05.png
00000009,208,1,1448644753545,1448644754907,992,263,0,0,0,4,3,1,7,0004-00-0001-15.png,0002-00-0001-19.png
00000009,209,1,1448644755909,1448644756803,966,313,0,0,0,3,2,1,5,0002-00-0000-25.png,0003-00-0001-02.png
00000009,210,1,1448644758008,1448644758690,487,280,0,0,0,1,4,3,5,0005-00-0001-97.png,0004-00-0000-66.png
00000009,211,0,1448644759597,1448644760444,408,349,0,0,0,1,0,1,1,0005-00-0000-06.png,0001-00-0000-59.png
00000009,212,1,1448644763580,1448644763604,880,342,0,0,0,4,2,2,6,0004-00-0001-14.png,0003-00-0000-96.png
00000009,213,1,1448644764616,1448644765350,930,316,0,0,0,3,0,3,3,0002-00-0000-27.png,0001-00-0001-48.png
00000009,214,1,1448644766255,1448644766916,936,333,0,0,0,2,0,2,2,0003-00-0000-46.png,0001-00-0000-31.png
00000009,215,1,1448644767856,1448644768737,504,238,0,0,0,0,2,2,2,0001-00-0000-30.png,0003-00-0001-51.png
00000009,216,1,1448644769713,1448644770356,492,268,0,0,0,0,3,3,3,0001-00-0001-61.png,0002-00-0000-79.png
00000009,217,0,1448644771341,1448644772318,1029,279,0,0,0,2,3,1,5,0003-00-0000-00.png,0002-00-0000-26.png
00000009,218,0,1448644775522,1448644775559,865,340,0,0,0,0,1,1,1,0001-00-0001-70.png,0005-00-0001-76.png
00000009,219,1,1448644778706,1448644779319,1067,270,0,0,0,4,1,3,5,0004-00-0000-02.png,0005-00-0000-01.png
00000009,220,0,1448644780218,1448644780286,857,454,0,0,0,2,4,2,6,0003-00-0001-24.png,0004-00-0000-43.png
00000009,221,1,1448644783430,1448644784140,1041,271,0,0,0,4,0,4,4,0004-00-0001-47.png,0001-00-0000-95.png
00000009,222,1,1448644784985,1448644785143,888,498,0,0,0,2,1,1,3,0003-00-0000-87.png,0005-00-0000-36.png
00000009,223,0,1448644786251,1448644786385,889,494,0,0,0,0,3,3,3,0001-00-0000-14.png,0002-00-0000-32.png
00000009,224,0,1448644789552,1448644789707,907,298,0,0,0,3,4,1,7,0002-00-0001-49.png,0004-00-0000-26.png
00000009,225,0,1448644792647,1448644793435,501,293,0,0,0,4,3,1,7,0004-00-0001-94.png,0002-00-0000-55.png
00000009,226,0,1448644796467,1448644796547,969,334,0,0,0,2,3,1,5,0003-00-0000-39.png,0002-00-0001-30.png
00000009,227,1,1448644799588,1448644799656,938,355,0,0,0,4,1,3,5,0004-00-0000-61.png,0005-00-0000-21.png
00000009,228,0,1448644800588,1448644800656,862,434,0,0,0,0,2,2,2,0001-00-0001-18.png,0003-00-0001-22.png
00000009,229,1,1448644803591,1448644803631,990,410,0,0,0,3,2,1,5,0002-00-0000-56.png,0003-00-0001-47.png
00000009,230,0,1448644804594,1448644805433,478,242,0,0,0,2,0,2,2,0003-00-0000-29.png,0001-00-0001-54.png
00000009,231,1,1448644808372,1448644808468,943,354,0,0,0,3,1,2,4,0002-00-0001-58.png,0005-00-0000-89.png
00000009,232,1,1448644809401,1448644809532,889,457,0,0,0,3,0,3,3,0002-00-0001-59.png,0001-00-0000-88.png
00000009,233,1,1448644810536,1448644811192,488,240,0,0,0,0,4,4,4,0001-00-0000-29.png,0004-00-0000-55.png
00000009,234,1,1448644812056,1448644812887,509,257,0,0,0,1,4,3,5,0005-00-0000-17.png,0004-00-0000-34.png
00000009,235,1,1448644813817,1448644814611,939,346,0,0,0,1,0,1,1,0005-00-0000-97.png,0001-00-0000-18.png
00000009,236,0,1448644815517,1448644815581,862,472,0,0,0,1,2,1,3,0005-00-0001-32.png,0003-00-0000-87.png
00000009,237,1,1448644818538,1448644819409,401,343,0,0,0,2,4,2,6,0003-00-0000-84.png,0004-00-0001-09.png
00000009,238,1,1448644820336,1448644821064,494,246,0,0,0,1,3,2,4,0005-00-0000-61.png,0002-00-0001-30.png
00000009,239,0,1448644822015,1448644823072,934,336,0,0,0,0,1,1,1,0001-00-0000-73.png,0005-00-0000-01.png
00000009,240,1,1448644826047,1448644826592,1077,279,0,0,0,4,2,2,6,0004-00-0001-28.png,0003-00-0001-44.png
00000009,241,1,1448644827491,1448644828429,476,398,0,0,0,1,4,3,5,0005-00-0000-30.png,0004-00-0001-43.png
00000009,242,1,1448644829308,1448644830160,1044,281,0,0,0,4,1,3,5,0004-00-0001-69.png,0005-00-0001-48.png
00000009,243,1,1448644831079,1448644831163,857,441,0,0,0,1,0,1,1,0005-00-0000-65.png,0001-00-0000-19.png
00000009,244,1,1448644832330,1448644833032,939,373,0,0,0,4,0,4,4,0004-00-0001-65.png,0001-00-0001-92.png
00000009,245,0,1448644833916,1448644833964,858,447,0,0,0,0,1,1,1,0001-00-0000-63.png,0005-00-0001-76.png
00000009,246,1,1448644837667,1448644837683,888,332,0,0,0,3,0,3,3,0002-00-0000-44.png,0001-00-0001-46.png
00000009,247,1,1448644838607,1448644839586,457,274,0,0,0,2,4,2,6,0003-00-0000-36.png,0004-00-0000-31.png
00000009,248,1,1448644840509,1448644841129,492,267,0,0,0,0,3,3,3,0001-00-0000-23.png,0002-00-0000-23.png
00000009,249,1,1448644842048,1448644842902,453,264,0,0,0,2,3,1,5,0003-00-0001-70.png,0002-00-0000-33.png
00000009,250,1,1448644843837,1448644844629,936,344,0,0,0,2,0,2,2,0003-00-0000-40.png,0001-00-0000-94.png
00000009,251,1,1448644845574,1448644846321,1018,283,0,0,0,2,1,1,3,0003-00-0000-77.png,0005-00-0000-22.png
00000009,252,1,1448644847295,1448644848507,912,343,0,0,0,4,3,1,7,0004-00-0001-40.png,0002-00-0001-40.png
00000009,253,1,1448644849459,1448644850287,939,309,0,0,0,3,2,1,5,0002-00-0001-88.png,0003-00-0000-64.png
00000009,254,1,1448644851231,1448644852362,489,431,0,0,0,3,4,1,7,0002-00-0001-69.png,0004-00-0000-01.png
00000009,255,1,1448644853286,1448644854142,388,345,0,0,0,0,2,2,2,0001-00-0001-06.png,0003-00-0000-75.png
00000009,256,1,1448644855055,1448644856027,491,266,0,0,0,1,2,1,3,0005-00-0001-10.png,0003-00-0001-06.png
00000009,257,1,1448644856956,1448644857804,1024,282,0,0,0,3,1,2,4,0002-00-0001-91.png,0005-00-0000-89.png
00000009,258,1,1448644858819,1448644859528,485,269,0,0,0,0,4,4,4,0001-00-0000-69.png,0004-00-0000-89.png
00000009,259,1,1448644860458,1448644861288,411,329,0,0,0,1,3,2,4,0005-00-0001-53.png,0002-00-0000-67.png
00000009,260,1,1448644862240,1448644863273,966,388,0,0,0,4,2,2,6,0004-00-0000-36.png,0003-00-0001-12.png
00000009,261,0,1448644864195,1448644865109,510,259,0,0,0,1,0,1,1,0005-00-0001-05.png,0001-00-0001-68.png
00000009,262,1,1448644867962,1448644868487,460,312,0,0,0,3,4,1,7,0002-00-0000-25.png,0004-00-0001-31.png
00000009,263,1,1448644869363,1448644870585,958,318,0,0,0,4,3,1,7,0004-00-0000-78.png,0002-00-0001-93.png
00000009,264,1,1448644871522,1448644872594,509,269,0,0,0,2,3,1,5,0003-00-0001-59.png,0002-00-0001-51.png
00000009,265,1,1448644873485,1448644874352,956,391,0,0,0,4,2,2,6,0004-00-0001-86.png,0003-00-0001-04.png
00000009,266,1,1448644875268,1448644876031,508,265,0,0,0,1,4,3,5,0005-00-0001-37.png,0004-00-0000-05.png
00000009,267,1,1448644877136,1448644877959,504,227,0,0,0,1,3,2,4,0005-00-0001-97.png,0002-00-0001-49.png
00000009,268,1,1448644878912,1448644879804,478,278,0,0,0,0,2,2,2,0001-00-0001-35.png,0003-00-0000-80.png
00000009,269,0,1448644880744,1448644881609,920,298,0,0,0,1,2,1,3,0005-00-0000-56.png,0003-00-0000-65.png
00000009,270,1,1448644884633,1448644885208,478,264,0,0,0,0,3,3,3,0001-00-0001-14.png,0002-00-0001-95.png
00000009,271,1,1448644886051,1448644886954,1034,299,0,0,0,4,0,4,4,0004-00-0001-18.png,0001-00-0001-04.png
00000009,272,1,1448644887796,1448644888578,1037,262,0,0,0,2,1,1,3,0003-00-0000-88.png,0005-00-0001-48.png
00000009,273,0,1448644889747,1448644889803,862,449,0,0,0,0,1,1,1,0001-00-0001-03.png,0005-00-0001-44.png
00000009,274,1,1448644892816,1448644893076,1011,337,0,0,0,2,0,2,2,0003-00-0000-52.png,0001-00-0001-57.png
00000009,275,1,1448644894051,1448644894742,491,265,0,0,0,0,4,4,4,0001-00-0001-53.png,0004-00-0000-64.png
00000009,276,1,1448644895593,1448644896497,1011,279,0,0,0,3,0,3,3,0002-00-0000-88.png,0001-00-0000-53.png
00000009,277,1,1448644897495,1448644898319,910,320,0,0,0,3,1,2,4,0002-00-0001-05.png,0005-00-0001-07.png
00000009,278,1,1448644899457,1448644900144,1040,272,0,0,0,4,1,3,5,0004-00-0000-81.png,0005-00-0000-20.png
00000009,279,1,1448644901019,1448644901983,939,332,0,0,0,3,2,1,5,0002-00-0001-10.png,0003-00-0000-11.png
00000009,280,0,1448644903033,1448644903119,888,425,0,0,0,2,4,2,6,0003-00-0001-02.png,0004-00-0000-11.png
00000009,281,1,1448644906214,1448644906728,507,276,0,0,0,0,4,4,4,0001-00-0001-46.png,0004-00-0001-83.png
00000009,282,1,1448644907600,1448644908274,964,426,0,0,0,3,1,2,4,0002-00-0001-57.png,0005-00-0000-86.png
00000009,283,1,1448644909181,1448644909903,424,352,0,0,0,1,2,1,3,0005-00-0000-10.png,0003-00-0000-60.png
00000009,284,1,1448644910852,1448644911766,479,260,0,0,0,1,3,2,4,0005-00-0001-27.png,0002-00-0000-93.png
00000009,285,1,1448644912691,1448644913385,1041,268,0,0,0,4,0,4,4,0004-00-0000-41.png,0001-00-0000-26.png
00000009,286,1,1448644914429,1448644915162,1041,264,0,0,0,4,1,3,5,0004-00-0001-24.png,0005-00-0001-49.png
00000009,287,0,1448644916089,1448644916164,862,485,0,0,0,2,3,1,5,0003-00-0001-46.png,0002-00-0000-70.png
00000009,288,1,1448644919317,1448644919805,1067,279,0,0,0,2,0,2,2,0003-00-0000-03.png,0001-00-0000-98.png
00000009,289,1,1448644920638,1448644921241,1037,272,0,0,0,2,1,1,3,0003-00-0001-40.png,0005-00-0000-64.png
00000009,290,0,1448644922079,1448644922111,890,421,0,0,0,1,4,3,5,0005-00-0001-35.png,0004-00-0001-50.png
00000009,291,1,1448644925219,1448644925728,514,258,0,0,0,3,4,1,7,0002-00-0001-57.png,0004-00-0001-37.png
00000009,292,1,1448644926763,1448644927485,487,245,0,0,0,2,4,2,6,0003-00-0000-67.png,0004-00-0001-27.png
00000009,293,1,1448644928421,1448644930254,936,337,0,0,0,4,2,2,6,0004-00-0000-01.png,0003-00-0001-65.png
00000009,294,0,1448644931121,1448644931193,862,421,0,0,0,0,2,2,2,0001-00-0001-22.png,0003-00-0000-62.png
00000009,295,0,1448644934355,1448644934627,865,413,0,0,0,0,1,1,1,0001-00-0001-73.png,0005-00-0001-34.png
00000009,296,1,1448644937734,1448644937770,892,366,0,0,0,1,0,1,1,0005-00-0000-10.png,0001-00-0001-17.png
00000009,297,1,1448644938718,1448644939652,941,313,0,0,0,3,2,1,5,0002-00-0001-29.png,0003-00-0001-97.png
00000009,298,0,1448644940546,1448644942015,962,324,0,0,0,0,3,3,3,0001-00-0001-54.png,0002-00-0000-40.png
00000009,299,1,1448644945119,1448644945780,964,302,0,0,0,4,3,1,7,0004-00-0000-76.png,0002-00-0001-49.png
00000009,300,1,1448644946684,1448644946744,862,446,0,0,0,3,0,3,3,0002-00-0000-33.png,0001-00-0001-15.png
00000009,301,1,1448644947752,1448644949239,410,360,0,0,0,2,3,1,5,0003-00-0000-20.png,0002-00-0001-47.png
00000009,302,1,1448644950186,1448644950868,1041,279,0,0,0,3,1,2,4,0002-00-0000-45.png,0005-00-0000-87.png
00000009,303,0,1448644951785,1448644951829,880,405,0,0,0,1,2,1,3,0005-00-0001-87.png,0003-00-0000-97.png
00000009,304,0,1448644955007,1448644955043,955,332,0,0,0,0,2,2,2,0001-00-0000-01.png,0003-00-0000-65.png
00000009,305,0,1448644958171,1448644958195,862,367,0,0,0,1,4,3,5,0005-00-0000-17.png,0004-00-0000-83.png
00000009,306,1,1448644961025,1448644961593,964,384,0,0,0,4,3,1,7,0004-00-0001-90.png,0002-00-0000-05.png
00000009,307,1,1448644962488,1448644962691,887,462,0,0,0,3,0,3,3,0002-00-0000-66.png,0001-00-0000-61.png
00000009,308,1,1448644963771,1448644964512,938,366,0,0,0,4,0,4,4,0004-00-0001-08.png,0001-00-0001-80.png
00000009,309,1,1448644965402,1448644966094,949,395,0,0,0,4,1,3,5,0004-00-0001-81.png,0005-00-0001-44.png
00000009,310,1,1448644966956,1448644967710,1052,279,0,0,0,2,1,1,3,0003-00-0000-87.png,0005-00-0000-34.png
00000009,311,1,1448644968764,1448644969451,453,410,0,0,0,3,4,1,7,0002-00-0000-28.png,0004-00-0001-27.png
00000009,312,1,1448644970527,1448644971338,416,352,0,0,0,0,4,4,4,0001-00-0001-41.png,0004-00-0001-19.png
00000009,313,1,1448644972256,1448644973026,510,272,0,0,0,1,3,2,4,0005-00-0000-58.png,0002-00-0001-12.png
00000009,314,1,1448644974026,1448644975254,479,263,0,0,0,2,4,2,6,0003-00-0001-58.png,0004-00-0001-17.png
00000009,315,0,1448644976243,1448644977063,493,259,0,0,0,1,0,1,1,0005-00-0001-78.png,0001-00-0000-25.png
00000009,316,1,1448644980226,1448644980235,863,351,0,0,0,4,2,2,6,0004-00-0000-88.png,0003-00-0000-82.png
00000009,317,0,1448644981190,1448644982271,504,288,0,0,0,3,2,1,5,0002-00-0001-10.png,0003-00-0000-69.png
00000009,318,0,1448644985374,1448644985422,869,375,0,0,0,0,3,3,3,0001-00-0001-21.png,0002-00-0001-67.png
00000009,319,1,1448644988541,1448644988569,888,347,0,0,0,2,0,2,2,0003-00-0000-44.png,0001-00-0000-29.png
00000009,320,0,1448644989535,1448644990192,1055,292,0,0,0,0,1,1,1,0001-00-0000-96.png,0005-00-0000-46.png
00000009,321,1,1448644993383,1448644993899,1086,295,0,0,0,3,2,1,5,0002-00-0001-12.png,0003-00-0001-04.png
00000009,322,0,1448644994720,1448644995008,911,527,0,0,0,1,4,3,5,0005-00-0000-50.png,0004-00-0001-23.png
00000009,323,1,1448644997861,1448644998425,1044,260,0,0,0,4,2,2,6,0004-00-0001-57.png,0003-00-0001-50.png
00000009,324,0,1448644999263,1448645000059,504,238,0,0,0,2,1,1,3,0003-00-0000-28.png,0005-00-0001-84.png
00000009,325,1,1448645003163,1448645003673,949,327,0,0,0,3,0,3,3,0002-00-0000-38.png,0001-00-0000-52.png
00000009,326,1,1448645004553,1448645004613,862,395,0,0,0,1,0,1,1,0005-00-0001-97.png,0001-00-0001-54.png
00000009,327,1,1448645005677,1448645006480,523,246,0,0,0,2,4,2,6,0003-00-0000-26.png,0004-00-0001-51.png
00000009,328,1,1448645007412,1448645008112,935,317,0,0,0,3,1,2,4,0002-00-0000-12.png,0005-00-0001-48.png
00000009,329,1,1448645009144,1448645009869,412,358,0,0,0,0,3,3,3,0001-00-0000-04.png,0002-00-0001-18.png
00000009,330,1,1448645010780,1448645011544,487,272,0,0,0,1,3,2,4,0005-00-0001-86.png,0002-00-0000-22.png
00000009,331,1,1448645012661,1448645013528,492,243,0,0,0,0,2,2,2,0001-00-0000-04.png,0003-00-0001-95.png
00000009,332,1,1448645014483,1448645015512,403,356,0,0,0,0,4,4,4,0001-00-0001-71.png,0004-00-0000-35.png
00000009,333,0,1448645016513,1448645017241,964,345,0,0,0,2,3,1,5,0003-00-0001-16.png,0002-00-0001-28.png
00000009,334,1,1448645020323,1448645020897,957,335,0,0,0,4,3,1,7,0004-00-0000-65.png,0002-00-0000-71.png
00000009,335,1,1448645021784,1448645022674,497,260,0,0,0,1,2,1,3,0005-00-0000-72.png,0003-00-0001-72.png
00000009,336,0,1448645023593,1448645024384,983,374,0,0,0,3,4,1,7,0002-00-0000-36.png,0004-00-0001-57.png
00000009,337,1,1448645027495,1448645027534,899,349,0,0,0,2,0,2,2,0003-00-0000-84.png,0001-00-0000-03.png
00000009,338,1,1448645029293,1448645029995,912,336,0,0,0,4,1,3,5,0004-00-0000-55.png,0005-00-0001-54.png
00000009,339,1,1448645030935,1448645031816,1038,280,0,0,0,4,0,4,4,0004-00-0000-50.png,0001-00-0001-64.png
00000009,340,0,1448645032741,1448645033516,926,327,0,0,0,0,1,1,1,0001-00-0001-04.png,0005-00-0001-37.png
00000009,341,1,1448645036368,1448645036397,880,382,0,0,0,2,1,1,3,0003-00-0000-54.png,0005-00-0000-19.png
00000009,342,1,1448645037406,1448645038191,490,248,0,0,0,0,1,1,1,0001-00-0001-85.png,0005-00-0000-24.png
00000009,343,1,1448645039102,1448645040204,939,306,0,0,0,4,1,3,5,0004-00-0001-92.png,0005-00-0001-03.png
00000009,344,1,1448645041122,1448645042381,412,346,0,0,0,3,4,1,7,0002-00-0000-53.png,0004-00-0000-85.png
00000009,345,1,1448645043371,1448645044420,476,269,0,0,0,1,4,3,5,0005-00-0000-48.png,0004-00-0001-19.png
00000009,346,0,1448645045480,1448645046904,478,288,0,0,0,3,0,3,3,0002-00-0001-49.png,0001-00-0000-44.png
00000009,347,1,1448645050083,1448645050114,888,332,0,0,0,4,0,4,4,0004-00-0000-48.png,0001-00-0001-31.png
00000009,348,1,1448645051040,1448645052012,978,337,0,0,0,2,0,2,2,0003-00-0000-75.png,0001-00-0001-07.png
00000009,349,1,1448645052906,1448645053884,1051,279,0,0,0,3,1,2,4,0002-00-0000-31.png,0005-00-0000-28.png
00000009,350,0,1448645054995,1448645055143,891,536,0,0,0,1,3,2,4,0005-00-0001-51.png,0002-00-0000-42.png
00000009,351,1,1448645058102,1448645058650,952,384,0,0,0,4,2,2,6,0004-00-0000-40.png,0003-00-0000-04.png
00000009,352,1,1448645059481,1448645059549,857,494,0,0,0,3,2,1,5,0002-00-0001-13.png,0003-00-0000-29.png
00000009,353,1,1448645060584,1448645061673,938,323,0,0,0,4,3,1,7,0004-00-0001-20.png,0002-00-0001-72.png
00000009,354,0,1448645062616,1448645063479,955,307,0,0,0,1,2,1,3,0005-00-0000-36.png,0003-00-0000-67.png
00000009,355,0,1448645066678,1448645066758,868,299,0,0,0,2,3,1,5,0003-00-0001-78.png,0002-00-0001-21.png
00000009,356,1,1448645069600,1448645070468,490,282,0,0,0,2,4,2,6,0003-00-0001-00.png,0004-00-0000-92.png
00000009,357,1,1448645071315,1448645072300,492,297,0,0,0,0,3,3,3,0001-00-0000-05.png,0002-00-0000-74.png
00000009,358,1,1448645073248,1448645073948,939,314,0,0,0,1,0,1,1,0005-00-0000-29.png,0001-00-0000-89.png
00000009,359,1,1448645074969,1448645075678,471,262,0,0,0,0,4,4,4,0001-00-0000-68.png,0004-00-0000-62.png
00000009,360,1,1448645076706,1448645077547,510,271,0,0,0,0,2,2,2,0001-00-0001-31.png,0003-00-0000-67.png
00000009,361,1,1448645078545,1448645079726,509,261,0,0,0,3,4,1,7,0002-00-0001-34.png,0004-00-0001-06.png
00000009,362,1,1448645080657,1448645081558,483,278,0,0,0,2,4,2,6,0003-00-0001-38.png,0004-00-0001-84.png
00000009,363,1,1448645082570,1448645083752,1047,272,0,0,0,2,1,1,3,0003-00-0001-63.png,0005-00-0001-26.png
00000009,364,1,1448645084744,1448645085577,503,280,0,0,0,0,4,4,4,0001-00-0000-47.png,0004-00-0000-36.png
00000009,365,1,1448645086651,1448645087560,942,410,0,0,0,4,2,2,6,0004-00-0000-30.png,0003-00-0001-48.png
00000009,366,1,1448645088544,1448645089415,1022,262,0,0,0,2,0,2,2,0003-00-0000-13.png,0001-00-0001-65.png
00000009,367,1,1448645090378,1448645091095,513,240,0,0,0,0,1,1,1,0001-00-0001-74.png,0005-00-0000-74.png
00000009,368,1,1448645092221,1448645092291,864,462,0,0,0,4,0,4,4,0004-00-0001-00.png,0001-00-0000-48.png
00000009,369,0,1448645093478,1448645094434,503,300,0,0,0,1,0,1,1,0005-00-0000-46.png,0001-00-0001-37.png
00000009,370,1,1448645097492,1448645097544,888,358,0,0,0,3,2,1,5,0002-00-0000-68.png,0003-00-0001-57.png
00000009,371,1,1448645098527,1448645099397,990,292,0,0,0,3,0,3,3,0002-00-0001-36.png,0001-00-0001-03.png
00000009,372,1,1448645100336,1448645100982,498,288,0,0,0,1,3,2,4,0005-00-0000-61.png,0002-00-0001-88.png
00000009,373,1,1448645102751,1448645103357,955,385,0,0,0,3,1,2,4,0002-00-0001-36.png,0005-00-0000-93.png
00000009,374,1,1448645104316,1448645105358,940,300,0,0,0,4,1,3,5,0004-00-0001-41.png,0005-00-0000-71.png
00000009,375,0,1448645106389,1448645106405,864,384,0,0,0,0,2,2,2,0001-00-0000-04.png,0003-00-0001-22.png
00000009,376,0,1448645109237,1448645109265,878,410,0,0,0,0,3,3,3,0001-00-0000-73.png,0002-00-0000-28.png
00000009,377,0,1448645112281,1448645112545,858,355,0,0,0,1,2,1,3,0005-00-0000-78.png,0003-00-0001-31.png
00000009,378,1,1448645115631,1448645116798,490,242,0,0,0,2,3,1,5,0003-00-0000-47.png,0002-00-0000-58.png
00000009,379,1,1448645117718,1448645118861,942,315,0,0,0,4,3,1,7,0004-00-0001-69.png,0002-00-0000-64.png
00000009,380,1,1448645119829,1448645120521,522,251,0,0,0,1,4,3,5,0005-00-0001-91.png,0004-00-0000-72.png
00000009,381,0,1448645121569,1448645122883,933,318,0,0,0,3,4,1,7,0002-00-0001-88.png,0004-00-0000-15.png
00000009,382,0,1448645126103,1448645126318,862,423,0,0,0,2,4,2,6,0003-00-0001-35.png,0004-00-0000-36.png
00000009,383,0,1448645129244,1448645129738,913,325,0,0,0,0,1,1,1,0001-00-0000-37.png,0005-00-0001-34.png
00000009,384,1,1448645132900,1448645133390,1032,281,0,0,0,4,0,4,4,0004-00-0001-34.png,0001-00-0001-71.png
00000009,385,0,1448645134303,1448645135122,439,319,0,0,0,3,0,3,3,0002-00-0000-37.png,0001-00-0001-72.png
00000009,386,1,1448645137976,1448645138535,513,304,0,0,0,1,2,1,3,0005-00-0001-87.png,0003-00-0001-33.png
00000009,387,1,1448645139431,1448645140353,1016,279,0,0,0,4,2,2,6,0004-00-0001-39.png,0003-00-0001-99.png
00000009,388,0,1448645141276,1448645141355,862,436,0,0,0,0,4,4,4,0001-00-0000-53.png,0004-00-0000-67.png
00000009,389,1,1448645144458,1448645145153,939,318,0,0,0,1,0,1,1,0005-00-0001-09.png,0001-00-0000-23.png
00000009,390,0,1448645146020,1448645146820,480,257,0,0,0,2,1,1,3,0003-00-0000-68.png,0005-00-0001-12.png
00000009,391,1,1448645150333,1448645150341,893,309,0,0,0,4,3,1,7,0004-00-0001-38.png,0002-00-0000-54.png
00000009,392,1,1448645151269,1448645152170,948,332,0,0,0,3,1,2,4,0002-00-0001-13.png,0005-00-0000-44.png
00000009,393,0,1448645153225,1448645153249,868,400,0,0,0,1,4,3,5,0005-00-0001-57.png,0004-00-0000-61.png
00000009,394,1,1448645156156,1448645156718,939,395,0,0,0,3,2,1,5,0002-00-0000-64.png,0003-00-0000-16.png
00000009,395,1,1448645157623,1448645158700,941,308,0,0,0,4,1,3,5,0004-00-0001-18.png,0005-00-0000-77.png
00000009,396,1,1448645159632,1448645160578,1031,279,0,0,0,2,0,2,2,0003-00-0000-85.png,0001-00-0001-18.png
00000009,397,0,1448645161663,1448645161788,888,518,0,0,0,1,3,2,4,0005-00-0001-94.png,0002-00-0000-98.png
00000009,398,0,1448645164989,1448645165221,863,352,0,0,0,0,2,2,2,0001-00-0001-96.png,0003-00-0001-93.png
00000009,399,1,1448645168116,1448645168797,513,313,0,0,0,0,3,3,3,0001-00-0000-74.png,0002-00-0000-68.png
00000009,400,0,1448645169751,1448645170751,1011,275,0,0,0,2,3,1,5,0003-00-0001-91.png,0002-00-0000-25.png
00000009,401,1,1448645176618,1448645177376,918,349,0,0,0,2,1,1,3,0003-00-0001-69.png,0005-00-0000-91.png
00000009,402,1,1448645178243,1448645178338,871,467,0,0,0,4,1,3,5,0004-00-0000-49.png,0005-00-0000-22.png
00000009,403,1,1448645179409,1448645180368,939,332,0,0,0,3,0,3,3,0002-00-0001-39.png,0001-00-0000-57.png
00000009,404,1,1448645181370,1448645181435,915,431,0,0,0,3,1,2,4,0002-00-0001-20.png,0005-00-0001-03.png
00000009,405,1,1448645182586,1448645183496,504,265,0,0,0,2,4,2,6,0003-00-0000-68.png,0004-00-0000-65.png
00000009,406,1,1448645184426,1448645185502,930,337,0,0,0,3,2,1,5,0002-00-0001-20.png,0003-00-0000-49.png
00000009,407,1,1448645186492,1448645187413,959,310,0,0,0,4,3,1,7,0004-00-0001-34.png,0002-00-0001-72.png
00000009,408,0,1448645188442,1448645189176,502,247,0,0,0,1,0,1,1,0005-00-0001-63.png,0001-00-0001-34.png
00000009,409,0,1448645192278,1448645192294,864,355,0,0,0,0,2,2,2,0001-00-0001-56.png,0003-00-0000-18.png
00000009,410,0,1448645195787,1448645196043,1002,301,0,0,0,1,2,1,3,0005-00-0000-08.png,0003-00-0000-50.png
00000009,411,1,1448645199196,1448645199220,913,332,0,0,0,4,0,4,4,0004-00-0000-83.png,0001-00-0000-69.png
00000009,412,1,1448645200282,1448645200992,467,270,0,0,0,0,3,3,3,0001-00-0000-54.png,0002-00-0001-41.png
00000009,413,1,1448645201927,1448645202953,961,426,0,0,0,2,0,2,2,0003-00-0000-54.png,0001-00-0000-98.png
00000009,414,0,1448645203949,1448645204032,874,505,0,0,0,2,3,1,5,0003-00-0000-12.png,0002-00-0001-31.png
00000009,415,1,1448645207086,1448645207706,509,276,0,0,0,1,4,3,5,0005-00-0000-66.png,0004-00-0001-43.png
00000009,416,1,1448645208583,1448645209775,505,265,0,0,0,3,4,1,7,0002-00-0000-26.png,0004-00-0000-53.png
00000009,417,1,1448645210700,1448645211594,1016,279,0,0,0,4,2,2,6,0004-00-0000-75.png,0003-00-0000-30.png
00000009,418,1,1448645212684,1448645213832,478,218,0,0,0,1,3,2,4,0005-00-0000-96.png,0002-00-0001-93.png
00000009,419,1,1448645214797,1448645215607,507,259,0,0,0,0,4,4,4,0001-00-0000-01.png,0004-00-0001-99.png
00000009,420,0,1448645216644,1448645217480,1018,305,0,0,0,0,1,1,1,0001-00-0000-92.png,0005-00-0001-15.png
00000009,421,0,1448645220579,1448645220595,862,358,0,0,0,2,4,2,6,0003-00-0000-52.png,0004-00-0001-16.png
00000009,422,0,1448645223711,1448645223755,879,358,0,0,0,1,2,1,3,0005-00-0000-37.png,0003-00-0001-11.png
00000009,423,1,1448645226921,1448645228185,491,268,0,0,0,0,3,3,3,0001-00-0001-81.png,0002-00-0000-40.png
00000009,424,1,1448645229127,1448645230041,921,324,0,0,0,4,1,3,5,0004-00-0001-88.png,0005-00-0001-61.png
00000009,425,1,1448645230955,1448645231819,953,332,0,0,0,2,1,1,3,0003-00-0000-25.png,0005-00-0000-76.png
00000009,426,1,1448645232795,1448645232886,857,417,0,0,0,3,1,2,4,0002-00-0000-95.png,0005-00-0001-51.png
00000009,427,1,1448645233973,1448645235717,473,264,0,0,0,0,4,4,4,0001-00-0000-86.png,0004-00-0001-30.png
00000009,428,1,1448645236629,1448645237369,946,403,0,0,0,3,0,3,3,0002-00-0000-63.png,0001-00-0000-45.png
00000009,429,1,1448645238367,1448645239342,939,292,0,0,0,2,0,2,2,0003-00-0001-67.png,0001-00-0000-57.png
00000009,430,0,1448645240334,1448645240342,862,370,0,0,0,0,2,2,2,0001-00-0000-17.png,0003-00-0001-54.png
00000009,431,1,1448645243463,1448645243978,1040,283,0,0,0,3,2,1,5,0002-00-0001-68.png,0003-00-0000-11.png
00000009,432,1,1448645244916,1448645245704,942,337,0,0,0,4,2,2,6,0004-00-0000-44.png,0003-00-0000-56.png
00000009,433,0,1448645246830,1448645246920,865,441,0,0,0,0,1,1,1,0001-00-0000-27.png,0005-00-0000-36.png
00000009,434,1,1448645249864,1448645250610,1069,284,0,0,0,4,3,1,7,0004-00-0000-23.png,0002-00-0000-51.png
00000009,435,0,1448645251504,1448645251560,876,436,0,0,0,2,3,1,5,0003-00-0001-53.png,0002-00-0000-19.png
00000009,436,1,1448645254493,1448645254580,960,426,0,0,0,4,0,4,4,0004-00-0001-17.png,0001-00-0001-72.png
00000009,437,1,1448645255578,1448645256498,404,366,0,0,0,1,4,3,5,0005-00-0001-99.png,0004-00-0000-58.png
00000009,438,1,1448645257484,1448645258697,472,416,0,0,0,3,4,1,7,0002-00-0001-32.png,0004-00-0001-98.png
00000009,439,1,1448645259712,1448645260672,409,324,0,0,0,1,3,2,4,0005-00-0000-81.png,0002-00-0000-89.png
00000009,440,1,1448645261609,1448645262341,922,323,0,0,0,1,0,1,1,0005-00-0001-38.png,0001-00-0000-23.png
00000009,441,0,1448645263477,1448645264350,1041,253,0,0,0,1,2,1,3,0005-00-0001-62.png,0003-00-0000-92.png
00000009,442,0,1448645267531,1448645267559,862,340,0,0,0,0,3,3,3,0001-00-0000-11.png,0002-00-0001-14.png
00000009,443,1,1448645270445,1448645270627,862,436,0,0,0,4,0,4,4,0004-00-0000-92.png,0001-00-0001-09.png
00000009,444,1,1448645272234,1448645272775,401,332,0,0,0,1,3,2,4,0005-00-0001-99.png,0002-00-0001-17.png
00000009,445,1,1448645273671,1448645274995,339,381,0,0,0,0,2,2,2,0001-00-0000-19.png,0003-00-0000-05.png
00000009,446,0,1448645275989,1448645276739,937,334,0,0,0,0,1,1,1,0001-00-0001-91.png,0005-00-0001-85.png
00000009,447,1,1448645282322,1448645282873,934,302,0,0,0,3,0,3,3,0002-00-0001-22.png,0001-00-0001-06.png
00000009,448,1,1448645284185,1448645284912,939,344,0,0,0,4,3,1,7,0004-00-0001-83.png,0002-00-0000-13.png
00000009,449,0,1448645285867,1448645286561,939,335,0,0,0,2,3,1,5,0003-00-0001-24.png,0002-00-0000-08.png
00000009,450,1,1448645289863,1448645290435,1049,272,0,0,0,4,2,2,6,0004-00-0001-05.png,0003-00-0001-93.png
00000009,451,1,1448645294284,1448645294950,488,255,0,0,0,3,4,1,7,0002-00-0000-02.png,0004-00-0001-30.png
00000009,452,1,1448645295855,1448645296621,503,303,0,0,0,0,4,4,4,0001-00-0000-98.png,0004-00-0001-29.png
00000009,453,0,1448645297565,1448645297573,521,493,0,0,0,3,2,1,5,0002-00-0001-64.png,0003-00-0000-19.png
00000009,454,1,1448645300775,1448645301435,487,255,0,0,0,2,4,2,6,0003-00-0001-95.png,0004-00-0000-91.png
00000009,455,1,1448645302284,1448645303095,918,320,0,0,0,3,1,2,4,0002-00-0000-09.png,0005-00-0000-17.png
00000009,456,1,1448645303952,1448645304899,968,399,0,0,0,1,0,1,1,0005-00-0001-35.png,0001-00-0000-09.png
00000009,457,1,1448645305851,1448645306565,518,267,0,0,0,1,4,3,5,0005-00-0000-39.png,0004-00-0001-02.png
00000009,458,1,1448645307530,1448645308273,936,349,0,0,0,2,1,1,3,0003-00-0001-62.png,0005-00-0001-19.png
00000009,459,0,1448645309220,1448645310198,504,242,0,0,0,2,0,2,2,0003-00-0000-38.png,0001-00-0000-41.png
00000009,460,1,1448645313440,1448645314089,1044,307,0,0,0,4,1,3,5,0004-00-0000-88.png,0005-00-0000-92.png
00000009,461,1,1448645314975,1448645315782,504,268,0,0,0,2,3,1,5,0003-00-0001-61.png,0002-00-0000-67.png
00000009,462,1,1448645316773,1448645317545,509,287,0,0,0,1,4,3,5,0005-00-0000-86.png,0004-00-0000-70.png
00000009,463,0,1448645318479,1448645319273,490,243,0,0,0,2,0,2,2,0003-00-0000-07.png,0001-00-0001-54.png
00000009,464,0,1448645322412,1448645322464,914,363,0,0,0,0,4,4,4,0001-00-0001-39.png,0004-00-0000-01.png
00000009,465,1,1448645329460,1448645330016,935,355,0,0,0,3,0,3,3,0002-00-0000-49.png,0001-00-0000-37.png
00000009,466,1,1448645331070,1448645331803,475,303,0,0,0,1,3,2,4,0005-00-0000-18.png,0002-00-0001-86.png
00000009,467,0,1448645332768,1448645333687,931,337,0,0,0,2,4,2,6,0003-00-0001-23.png,0004-00-0001-21.png
00000009,468,1,1448645336844,1448645337319,478,316,0,0,0,0,1,1,1,0001-00-0001-27.png,0005-00-0000-72.png
00000009,469,1,1448645338153,1448645338885,494,259,0,0,0,0,2,2,2,0001-00-0000-25.png,0003-00-0000-26.png
00000009,470,1,1448645339820,1448645341092,934,338,0,0,0,4,2,2,6,0004-00-0000-84.png,0003-00-0000-42.png
00000009,471,0,1448645342063,1448645342115,858,463,0,0,0,0,3,3,3,0001-00-0001-14.png,0002-00-0001-22.png
00000009,472,1,1448645345339,1448645345935,1012,302,0,0,0,4,3,1,7,0004-00-0000-28.png,0002-00-0001-45.png
00000009,473,0,1448645346860,1448645347697,493,253,0,0,0,1,0,1,1,0005-00-0001-59.png,0001-00-0001-93.png
00000009,474,1,1448645351590,1448645352708,402,371,0,0,0,3,4,1,7,0002-00-0001-65.png,0004-00-0001-82.png
00000009,475,1,1448645353668,1448645354537,1016,279,0,0,0,2,1,1,3,0003-00-0001-58.png,0005-00-0000-77.png
00000009,476,1,1448645355457,1448645356398,1017,285,0,0,0,3,1,2,4,0002-00-0001-71.png,0005-00-0000-17.png
00000009,477,0,1448645357401,1448645357547,877,514,0,0,0,1,2,1,3,0005-00-0001-54.png,0003-00-0001-46.png
00000009,478,1,1448645360744,1448645361286,1035,281,0,0,0,3,2,1,5,0002-00-0000-29.png,0003-00-0001-53.png
00000009,479,1,1448645362164,1448645362965,924,358,0,0,0,4,0,4,4,0004-00-0001-39.png,0001-00-0000-52.png
00000009,480,1,1448645363873,1448645364661,960,387,0,0,0,4,1,3,5,0004-00-0001-24.png,0005-00-0001-60.png
00000009,481,1,1448645365554,1448645365599,889,426,0,0,0,4,0,4,4,0004-00-0000-34.png,0001-00-0000-69.png
00000009,482,1,1448645367022,1448645368005,947,292,0,0,0,4,2,2,6,0004-00-0000-69.png,0003-00-0001-49.png
00000009,483,1,1448645368979,1448645369931,943,336,0,0,0,3,1,2,4,0002-00-0000-46.png,0005-00-0001-39.png
00000009,484,0,1448645370866,1448645370905,885,436,0,0,0,3,4,1,7,0002-00-0001-20.png,0004-00-0001-29.png
00000009,485,1,1448645403698,1448645404329,489,217,0,0,0,0,1,1,1,0001-00-0001-88.png,0005-00-0000-69.png
00000009,486,1,1448645405463,1448645406204,469,296,0,0,0,0,3,3,3,0001-00-0000-42.png,0002-00-0000-66.png
00000009,487,1,1448645407168,1448645408403,488,250,0,0,0,0,2,2,2,0001-00-0000-92.png,0003-00-0000-13.png
00000009,488,1,1448645409443,1448645410431,379,398,0,0,0,1,3,2,4,0005-00-0001-32.png,0002-00-0000-62.png
00000009,489,1,1448645411438,1448645412430,913,341,0,0,0,4,1,3,5,0004-00-0001-55.png,0005-00-0001-69.png
00000009,490,1,1448645413378,1448645414112,1014,287,0,0,0,3,2,1,5,0002-00-0000-40.png,0003-00-0001-72.png
00000009,491,1,1448645415127,1448645415967,499,284,0,0,0,1,2,1,3,0005-00-0001-72.png,0003-00-0000-87.png
00000009,492,1,1448645416943,1448645417740,924,332,0,0,0,2,1,1,3,0003-00-0001-05.png,0005-00-0000-95.png
00000009,493,1,1448645418805,1448645419723,924,330,0,0,0,4,3,1,7,0004-00-0000-18.png,0002-00-0000-70.png
00000009,494,1,1448645420610,1448645421228,485,270,0,0,0,0,4,4,4,0001-00-0001-52.png,0004-00-0001-84.png
00000009,495,1,1448645422212,1448645423396,496,279,0,0,0,2,4,2,6,0003-00-0000-63.png,0004-00-0001-68.png
00000009,496,1,1448645424357,1448645425161,489,265,0,0,0,1,4,3,5,0005-00-0000-75.png,0004-00-0001-00.png
00000009,497,1,1448645426086,1448645427028,946,352,0,0,0,2,0,2,2,0003-00-0001-50.png,0001-00-0001-17.png
00000009,498,1,1448645428025,1448645428814,398,387,0,0,0,2,3,1,5,0003-00-0001-11.png,0002-00-0001-34.png
00000009,499,1,1448645429805,1448645430558,939,384,0,0,0,3,0,3,3,0002-00-0001-22.png,0001-00-0001-55.png
00000009,500,1,1448645431677,1448645432447,1016,306,0,0,0,1,0,1,1,0005-00-0000-59.png,0001-00-0000-49.png
00000009,501,1,1448645433408,1448645433420,865,410,0,0,0,2,0,2,2,0003-00-0001-11.png,0001-00-0000-20.png
00000009,502,1,1448645434563,1448645435582,962,427,0,0,0,4,1,3,5,0004-00-0000-18.png,0005-00-0000-58.png
00000009,503,1,1448645436589,1448645437415,954,340,0,0,0,4,0,4,4,0004-00-0000-69.png,0001-00-0001-48.png
00000009,504,0,1448645438447,1448645438499,862,479,0,0,0,0,3,3,3,0001-00-0001-96.png,0002-00-0001-51.png
00000009,505,1,1448645441935,1448645442807,504,266,0,0,0,1,3,2,4,0005-00-0000-09.png,0002-00-0001-37.png
00000009,506,0,1448645443795,1448645445061,938,329,0,0,0,3,4,1,7,0002-00-0001-74.png,0004-00-0001-28.png
00000009,507,0,1448645448348,1448645448356,859,343,0,0,0,0,4,4,4,0001-00-0001-12.png,0004-00-0001-22.png
00000009,508,1,1448645451559,1448645451646,868,280,0,0,0,4,3,1,7,0004-00-0000-88.png,0002-00-0000-27.png
00000009,509,1,1448645452661,1448645453412,498,278,0,0,0,1,4,3,5,0005-00-0001-44.png,0004-00-0001-31.png
00000009,510,1,1448645454377,1448645455265,939,345,0,0,0,1,0,1,1,0005-00-0000-17.png,0001-00-0001-67.png
00000009,511,0,1448645456144,1448645456176,860,381,0,0,0,1,2,1,3,0005-00-0001-57.png,0003-00-0001-85.png
00000009,512,1,1448645459078,1448645459823,939,410,0,0,0,4,2,2,6,0004-00-0000-81.png,0003-00-0001-60.png
00000009,513,0,1448645460760,1448645460871,862,500,0,0,0,2,4,2,6,0003-00-0001-86.png,0004-00-0001-37.png
00000009,514,0,1448645464098,1448645464687,966,327,0,0,0,2,3,1,5,0003-00-0000-21.png,0002-00-0001-44.png
00000009,515,1,1448645467566,1448645468204,964,332,0,0,0,3,2,1,5,0002-00-0000-73.png,0003-00-0001-43.png
00000009,516,1,1448645469066,1448645469114,862,419,0,0,0,2,1,1,3,0003-00-0000-97.png,0005-00-0001-60.png
00000009,517,1,1448645470118,1448645471189,964,393,0,0,0,3,1,2,4,0002-00-0001-81.png,0005-00-0000-05.png
00000009,518,0,1448645472141,1448645472169,901,401,0,0,0,0,2,2,2,0001-00-0001-74.png,0003-00-0001-42.png
00000009,519,1,1448645475449,1448645475981,494,275,0,0,0,0,1,1,1,0001-00-0001-28.png,0005-00-0000-30.png
00000009,520,1,1448645476854,1448645477499,924,336,0,0,0,3,0,3,3,0002-00-0001-00.png,0001-00-0001-49.png
00000009,521,0,1448645478597,1448645478625,861,443,0,0,0,0,3,3,3,0001-00-0001-12.png,0002-00-0001-69.png
00000009,522,1,1448645481729,1448645482268,455,259,0,0,0,2,3,1,5,0003-00-0001-26.png,0002-00-0001-37.png
00000009,523,1,1448645483208,1448645484321,914,323,0,0,0,3,0,3,3,0002-00-0001-15.png,0001-00-0001-90.png
00000009,524,0,1448645485387,1448645485411,864,472,0,0,0,1,2,1,3,0005-00-0000-85.png,0003-00-0000-02.png
00000009,525,1,1448645488467,1448645488507,870,378,0,0,0,4,3,1,7,0004-00-0000-03.png,0002-00-0001-85.png
00000009,526,1,1448645489530,1448645490612,1040,276,0,0,0,3,1,2,4,0002-00-0000-37.png,0005-00-0001-76.png
00000009,527,1,1448645491597,1448645492724,946,305,0,0,0,4,1,3,5,0004-00-0001-80.png,0005-00-0001-95.png
00000009,528,1,1448645493634,1448645493708,862,451,0,0,0,1,0,1,1,0005-00-0001-11.png,0001-00-0001-83.png
00000009,529,1,1448645494902,1448645495809,904,361,0,0,0,2,0,2,2,0003-00-0001-03.png,0001-00-0001-90.png
00000009,530,1,1448645496753,1448645497525,428,358,0,0,0,1,4,3,5,0005-00-0001-98.png,0004-00-0001-54.png
00000009,531,1,1448645498628,1448645498723,869,480,0,0,0,2,1,1,3,0003-00-0001-95.png,0005-00-0001-01.png
00000009,532,0,1448645499786,1448645500932,943,344,0,0,0,3,4,1,7,0002-00-0001-17.png,0004-00-0000-06.png
00000009,533,1,1448645504530,1448645505515,486,303,0,0,0,1,3,2,4,0005-00-0001-18.png,0002-00-0001-68.png
00000009,534,1,1448645506465,1448645507637,414,358,0,0,0,2,4,2,6,0003-00-0001-92.png,0004-00-0001-77.png
00000009,535,1,1448645508776,1448645509464,441,358,0,0,0,0,2,2,2,0001-00-0000-89.png,0003-00-0001-01.png
00000009,536,1,1448645510567,1448645511447,523,261,0,0,0,0,1,1,1,0001-00-0000-22.png,0005-00-0001-27.png
00000009,537,1,1448645512513,1448645513284,1169,358,0,0,0,4,0,4,4,0004-00-0000-43.png,0001-00-0000-50.png
00000009,538,1,1448645514388,1448645514408,916,415,0,0,0,3,2,1,5,0002-00-0001-53.png,0003-00-0000-38.png
00000009,539,1,1448645515623,1448645516962,1015,279,0,0,0,4,2,2,6,0004-00-0001-95.png,0003-00-0000-64.png
00000009,540,1,1448645518000,1448645518768,487,266,0,0,0,0,4,4,4,0001-00-0001-04.png,0004-00-0000-73.png
00000009,541,1,1448645519878,1448645520549,499,276,0,0,0,0,1,1,1,0001-00-0000-14.png,0005-00-0000-59.png
00000009,542,1,1448645521544,1448645522336,891,367,0,0,0,3,1,2,4,0002-00-0000-26.png,0005-00-0000-91.png
00000009,543,0,1448645523403,1448645523431,881,410,0,0,0,0,2,2,2,0001-00-0000-17.png,0003-00-0001-94.png
00000009,544,0,1448645526625,1448645526708,863,305,0,0,0,1,4,3,5,0005-00-0001-89.png,0004-00-0000-67.png
00000009,545,1,1448645530645,1448645531196,923,355,0,0,0,4,1,3,5,0004-00-0001-04.png,0005-00-0001-47.png
00000009,546,0,1448645532637,1448645533398,409,370,0,0,0,3,2,1,5,0002-00-0000-85.png,0003-00-0000-63.png
00000009,547,1,1448645536334,1448645536967,948,375,0,0,0,4,3,1,7,0004-00-0000-17.png,0002-00-0001-78.png
00000009,548,0,1448645537884,1448645538186,857,565,0,0,0,0,3,3,3,0001-00-0000-36.png,0002-00-0001-77.png
00000009,549,0,1448645541339,1448645541355,938,407,0,0,0,0,4,4,4,0001-00-0000-57.png,0004-00-0000-60.png
00000009,550,1,1448645544481,1448645545004,966,322,0,0,0,4,0,4,4,0004-00-0001-34.png,0001-00-0000-58.png
00000009,551,1,1448645545947,1448645546632,478,265,0,0,0,1,3,2,4,0005-00-0001-37.png,0002-00-0001-60.png
00000009,552,1,1448645547658,1448645548625,953,319,0,0,0,2,1,1,3,0003-00-0000-72.png,0005-00-0001-61.png
00000009,553,1,1448645549667,1448645549751,869,471,0,0,0,3,0,3,3,0002-00-0000-44.png,0001-00-0001-66.png
00000009,554,1,1448645550947,1448645552093,931,307,0,0,0,4,2,2,6,0004-00-0000-08.png,0003-00-0001-90.png
00000009,555,0,1448645553083,1448645553158,888,436,0,0,0,3,4,1,7,0002-00-0000-31.png,0004-00-0001-24.png
00000009,556,0,1448645556377,1448645556922,1032,279,0,0,0,2,3,1,5,0003-00-0000-92.png,0002-00-0000-47.png
00000009,557,1,1448645560591,1448645560646,861,335,0,0,0,2,0,2,2,0003-00-0001-42.png,0001-00-0001-39.png
00000009,558,1,1448645561626,1448645562465,508,306,0,0,0,1,2,1,3,0005-00-0000-98.png,0003-00-0000-73.png
00000009,559,1,1448645563401,1448645564192,1029,312,0,0,0,1,0,1,1,0005-00-0000-87.png,0001-00-0001-58.png
00000009,560,0,1448645565271,1448645565336,888,505,0,0,0,2,4,2,6,0003-00-0001-37.png,0004-00-0000-35.png
00000009,561,1,1448645568512,1448645569136,487,279,0,0,0,2,3,1,5,0003-00-0000-12.png,0002-00-0000-66.png
00000009,562,1,1448645570140,1448645570223,868,454,0,0,0,1,0,1,1,0005-00-0000-49.png,0001-00-0001-70.png
00000009,563,1,1448645571316,1448645572528,933,298,0,0,0,3,0,3,3,0002-00-0001-45.png,0001-00-0001-44.png
00000009,564,0,1448645573617,1448645573676,897,436,0,0,0,0,2,2,2,0001-00-0000-56.png,0003-00-0000-21.png
00000009,565,1,1448645776078,1448645776790,483,271,0,0,0,0,1,1,1,0001-00-0000-20.png,0005-00-0000-40.png
00000009,566,1,1448645777959,1448645778989,940,365,0,0,0,4,3,1,7,0004-00-0000-39.png,0002-00-0000-70.png
00000009,567,1,1448645780049,1448645780722,480,286,0,0,0,1,3,2,4,0005-00-0001-02.png,0002-00-0000-94.png
00000009,568,1,1448645782461,1448645783031,1018,280,0,0,0,2,1,1,3,0003-00-0001-17.png,0005-00-0001-96.png
00000009,569,1,1448645784020,1448645784847,486,249,0,0,0,2,4,2,6,0003-00-0000-11.png,0004-00-0000-19.png
00000009,570,1,1448645785900,1448645786500,913,337,0,0,0,2,0,2,2,0003-00-0000-52.png,0001-00-0000-18.png
00000009,571,1,1448645787405,1448645788220,487,267,0,0,0,1,4,3,5,0005-00-0001-20.png,0004-00-0001-79.png
00000009,572,1,1448645789223,1448645789979,467,261,0,0,0,0,3,3,3,0001-00-0000-27.png,0002-00-0000-39.png
00000009,573,1,1448645790978,1448645791755,941,348,0,0,0,3,2,1,5,0002-00-0001-15.png,0003-00-0000-34.png
00000009,574,0,1448645792723,1448645793994,1130,358,0,0,0,3,4,1,7,0002-00-0001-65.png,0004-00-0001-06.png
00000009,575,0,1448645797037,1448645797300,928,279,0,0,0,1,2,1,3,0005-00-0000-04.png,0003-00-0001-04.png
00000009,576,0,1448645800165,1448645800836,511,297,0,0,0,4,0,4,4,0004-00-0000-45.png,0001-00-0000-25.png
00000009,577,1,1448645803913,1448645804429,945,395,0,0,0,4,1,3,5,0004-00-0000-98.png,0005-00-0001-40.png
00000009,578,1,1448645805325,1448645806415,917,365,0,0,0,3,1,2,4,0002-00-0001-38.png,0005-00-0001-97.png
00000009,579,1,1448645807330,1448645808089,389,395,0,0,0,0,4,4,4,0001-00-0001-61.png,0004-00-0000-62.png
00000009,580,1,1448645809234,1448645810100,930,333,0,0,0,4,2,2,6,0004-00-0000-83.png,0003-00-0001-12.png
00000009,581,1,1448645811149,1448645811950,502,264,0,0,0,0,1,1,1,0001-00-0000-47.png,0005-00-0001-62.png
00000009,582,0,1448645813067,1448645813867,946,299,0,0,0,0,2,2,2,0001-00-0001-47.png,0003-00-0001-94.png
00000009,583,1,1448645817028,1448645817567,401,372,0,0,0,0,3,3,3,0001-00-0000-90.png,0002-00-0000-11.png
00000009,584,0,1448645818505,1448645819647,943,341,0,0,0,2,3,1,5,0003-00-0000-78.png,0002-00-0001-11.png
00000009,585,1,1448645823061,1448645823987,910,354,0,0,0,4,3,1,7,0004-00-0001-23.png,0002-00-0000-57.png
00000009,586,1,1448645824952,1448645825771,956,314,0,0,0,4,2,2,6,0004-00-0000-48.png,0003-00-0001-72.png
00000009,587,1,1448645826822,1448645827772,488,266,0,0,0,1,3,2,4,0005-00-0000-44.png,0002-00-0000-75.png
00000009,588,1,1448645828904,1448645829868,402,345,0,0,0,2,4,2,6,0003-00-0001-26.png,0004-00-0000-27.png
00000009,589,1,1448645831084,1448645831816,484,284,0,0,0,1,4,3,5,0005-00-0000-61.png,0004-00-0000-32.png
00000009,590,1,1448645832850,1448645833679,896,332,0,0,0,2,1,1,3,0003-00-0001-57.png,0005-00-0001-37.png
00000009,591,1,1448645834722,1448645835833,917,329,0,0,0,2,0,2,2,0003-00-0001-14.png,0001-00-0001-02.png
00000009,592,1,1448645836827,1448645837514,408,349,0,0,0,0,4,4,4,0001-00-0001-94.png,0004-00-0001-87.png
00000009,593,1,1448645838561,1448645839226,490,266,0,0,0,1,2,1,3,0005-00-0000-34.png,0003-00-0000-59.png
00000009,594,1,1448645840224,1448645841013,939,397,0,0,0,3,1,2,4,0002-00-0000-73.png,0005-00-0000-86.png
00000009,595,1,1448645841984,1448645842882,951,332,0,0,0,3,2,1,5,0002-00-0000-64.png,0003-00-0000-31.png
00000009,596,1,1448645843842,1448645844700,936,323,0,0,0,3,0,3,3,0002-00-0001-29.png,0001-00-0000-13.png
00000009,597,1,1448645845758,1448645846667,969,348,0,0,0,4,1,3,5,0004-00-0000-54.png,0005-00-0001-41.png
00000009,598,1,1448645847586,1448645847724,872,514,0,0,0,4,0,4,4,0004-00-0001-58.png,0001-00-0001-10.png
00000009,599,0,1448645848867,1448645849779,485,258,0,0,0,1,0,1,1,0005-00-0001-62.png,0001-00-0001-96.png
00000009,600,1,1448645852696,1448645853269,443,381,0,0,0,3,4,1,7,0002-00-0001-33.png,0004-00-0001-37.png
00000009,601,1,1448645854236,1448645854987,485,262,0,0,0,1,2,1,3,0005-00-0001-55.png,0003-00-0000-47.png
00000009,602,0,1448645856022,1448645856751,982,307,0,0,0,2,4,2,6,0003-00-0000-55.png,0004-00-0001-42.png
00000009,603,1,1448645859911,1448645860493,459,307,0,0,0,0,4,4,4,0001-00-0001-35.png,0004-00-0000-10.png
00000009,604,1,1448645861399,1448645862544,912,312,0,0,0,4,3,1,7,0004-00-0001-55.png,0002-00-0000-10.png
00000009,605,1,1448645863483,1448645864269,997,298,0,0,0,3,0,3,3,0002-00-0000-23.png,0001-00-0000-62.png
00000009,606,0,1448645865219,1448645866282,940,344,0,0,0,0,1,1,1,0001-00-0000-32.png,0005-00-0000-59.png
00000009,607,1,1448645869371,1448645870273,1005,307,0,0,0,4,2,2,6,0004-00-0001-68.png,0003-00-0000-88.png
00000009,608,0,1448645871209,1448645872359,399,335,0,0,0,2,1,1,3,0003-00-0000-95.png,0005-00-0001-62.png
00000009,609,1,1448645875529,1448645875784,974,306,0,0,0,2,0,2,2,0003-00-0001-97.png,0001-00-0000-44.png
00000009,610,1,1448645876774,1448645877659,470,249,0,0,0,1,4,3,5,0005-00-0001-20.png,0004-00-0001-05.png
00000009,611,1,1448645878731,1448645879764,403,367,0,0,0,3,4,1,7,0002-00-0001-05.png,0004-00-0001-58.png
00000009,612,0,1448645880726,1448645881492,489,268,0,0,0,1,0,1,1,0005-00-0001-31.png,0001-00-0001-19.png
00000009,613,1,1448645884665,1448645885282,478,288,0,0,0,0,3,3,3,0001-00-0001-06.png,0002-00-0000-09.png
00000009,614,1,1448645886234,1448645886930,493,287,0,0,0,1,3,2,4,0005-00-0001-44.png,0002-00-0001-43.png
00000009,615,1,1448645887954,1448645889078,913,410,0,0,0,4,1,3,5,0004-00-0001-30.png,0005-00-0001-61.png
00000009,616,1,1448645890095,1448645891237,901,320,0,0,0,3,1,2,4,0002-00-0000-35.png,0005-00-0000-01.png
00000009,617,1,1448645892276,1448645893186,1041,279,0,0,0,3,2,1,5,0002-00-0000-74.png,0003-00-0000-76.png
00000009,618,1,1448645894217,1448645894948,488,284,0,0,0,0,2,2,2,0001-00-0001-81.png,0003-00-0000-62.png
00000009,619,0,1448645896093,1448645897320,1010,254,0,0,0,2,3,1,5,0003-00-0000-61.png,0002-00-0000-87.png
00000009,620,1,1448645900164,1448645900698,1044,313,0,0,0,4,0,4,4,0004-00-0001-68.png,0001-00-0001-20.png
00000009,621,1,1448645901691,1448645902494,913,332,0,0,0,4,1,3,5,0004-00-0001-13.png,0005-00-0001-23.png
00000009,622,1,1448645903526,1448645904447,1006,306,0,0,0,3,2,1,5,0002-00-0000-31.png,0003-00-0001-12.png
00000009,623,1,1448645905675,1448645906433,927,310,0,0,0,3,1,2,4,0002-00-0001-21.png,0005-00-0000-33.png
00000009,624,1,1448645907677,1448645907724,862,399,0,0,0,4,0,4,4,0004-00-0001-79.png,0001-00-0000-89.png
00000009,625,1,1448645908789,1448645909824,497,286,0,0,0,3,4,1,7,0002-00-0000-38.png,0004-00-0000-39.png
00000009,626,1,1448645910898,1448645911928,944,338,0,0,0,2,0,2,2,0003-00-0000-80.png,0001-00-0001-93.png
00000009,627,1,1448645912999,1448645913644,497,236,0,0,0,0,2,2,2,0001-00-0001-36.png,0003-00-0001-05.png
00000009,628,1,1448645914932,1448645916504,401,348,0,0,0,2,3,1,5,0003-00-0000-65.png,0002-00-0001-47.png
00000009,629,0,1448645917539,1448645918190,494,262,0,0,0,1,0,1,1,0005-00-0000-17.png,0001-00-0000-09.png
00000009,630,1,1448645921143,1448645922102,459,281,0,0,0,0,3,3,3,0001-00-0000-39.png,0002-00-0001-97.png
00000009,631,1,1448645923252,1448645923962,1143,358,0,0,0,2,1,1,3,0003-00-0001-49.png,0005-00-0001-05.png
00000009,632,1,1448645924995,1448645925771,485,268,0,0,0,1,3,2,4,0005-00-0001-51.png,0002-00-0000-60.png
00000009,633,1,1448645926887,1448645928058,948,426,0,0,0,4,2,2,6,0004-00-0000-85.png,0003-00-0001-92.png
00000009,634,1,1448645929082,1448645930209,383,339,0,0,0,2,4,2,6,0003-00-0000-17.png,0004-00-0000-61.png
00000009,635,1,1448645931386,1448645932127,406,371,0,0,0,0,1,1,1,0001-00-0001-35.png,0005-00-0000-21.png
00000009,636,1,1448645933132,1448645934118,409,370,0,0,0,1,4,3,5,0005-00-0001-73.png,0004-00-0000-09.png
00000009,637,1,1448645935122,1448645935186,510,452,0,0,0,0,4,4,4,0001-00-0000-38.png,0004-00-0000-43.png
00000009,638,1,1448645936378,1448645937462,913,345,0,0,0,3,0,3,3,0002-00-0001-07.png,0001-00-0000-45.png
00000009,639,1,1448645938463,1448645939997,900,332,0,0,0,4,3,1,7,0004-00-0000-20.png,0002-00-0000-63.png
00000009,640,1,1448645941049,1448645941951,485,260,0,0,0,1,2,1,3,0005-00-0000-72.png,0003-00-0001-91.png
00000009,641,1,1448645942966,1448645943618,464,267,0,0,0,0,3,3,3,0001-00-0001-73.png,0002-00-0001-00.png
00000009,642,0,1448645944516,1448645945366,938,314,0,0,0,2,4,2,6,0003-00-0000-02.png,0004-00-0000-94.png
00000009,643,1,1448645948460,1448645948492,882,358,0,0,0,3,2,1,5,0002-00-0001-94.png,0003-00-0001-49.png
00000009,644,1,1448645949446,1448645950142,492,275,0,0,0,0,1,1,1,0001-00-0001-97.png,0005-00-0001-15.png
00000009,645,1,1448645951284,1448645952336,937,306,0,0,0,2,1,1,3,0003-00-0000-05.png,0005-00-0001-06.png
00000009,646,1,1448645953371,1448645954234,943,320,0,0,0,3,1,2,4,0002-00-0000-30.png,0005-00-0000-73.png
00000009,647,1,1448645955179,1448645955869,465,267,0,0,0,2,3,1,5,0003-00-0000-07.png,0002-00-0000-04.png
00000009,648,0,1448645956887,1448645958035,484,254,0,0,0,4,3,1,7,0004-00-0000-53.png,0002-00-0000-55.png
00000009,649,1,1448645961173,1448645961746,913,368,0,0,0,4,1,3,5,0004-00-0000-04.png,0005-00-0001-91.png
00000009,650,1,1448645962692,1448645963717,919,324,0,0,0,4,2,2,6,0004-00-0001-86.png,0003-00-0000-88.png
00000009,651,1,1448645964756,1448645965626,394,342,0,0,0,0,4,4,4,0001-00-0000-14.png,0004-00-0001-88.png
00000009,652,0,1448645966673,1448645966697,499,432,0,0,0,3,0,3,3,0002-00-0001-29.png,0001-00-0001-82.png
00000009,653,0,1448645969917,1448645969974,937,324,0,0,0,1,3,2,4,0005-00-0001-91.png,0002-00-0000-27.png
00000009,654,1,1448645973016,1448645973580,499,273,0,0,0,1,2,1,3,0005-00-0001-52.png,0003-00-0000-97.png
00000009,655,1,1448645974638,1448645975254,486,251,0,0,0,1,4,3,5,0005-00-0000-87.png,0004-00-0000-41.png
00000009,656,1,1448645976356,1448645977527,493,260,0,0,0,3,4,1,7,0002-00-0001-25.png,0004-00-0001-38.png
00000009,657,1,1448645978553,1448645979212,482,268,0,0,0,0,2,2,2,0001-00-0000-89.png,0003-00-0001-92.png
00000009,658,0,1448645980398,1448645981113,472,261,0,0,0,1,0,1,1,0005-00-0000-39.png,0001-00-0001-47.png
00000009,659,1,1448645984303,1448645984849,939,347,0,0,0,2,0,2,2,0003-00-0000-21.png,0001-00-0000-29.png
00000009,660,1,1448645985787,1448645986511,908,316,0,0,0,4,0,4,4,0004-00-0000-95.png,0001-00-0000-38.png
00000009,661,1,1448645987635,1448645988458,489,257,0,0,0,1,4,3,5,0005-00-0001-43.png,0004-00-0001-99.png
00000009,662,0,1448645989462,1448645991140,481,247,0,0,0,3,2,1,5,0002-00-0000-57.png,0003-00-0001-18.png
00000009,663,1,1448645994164,1448645994788,472,257,0,0,0,1,2,1,3,0005-00-0000-37.png,0003-00-0000-98.png
00000009,664,1,1448645995681,1448645996704,921,351,0,0,0,3,1,2,4,0002-00-0001-75.png,0005-00-0000-54.png
00000009,665,0,1448646007759,1448646008356,924,343,0,0,0,2,3,1,5,0003-00-0000-51.png,0002-00-0001-59.png
