subject_id,trial,correct_response,stim_time,response_time,x_coord,y_coord,trial_timeout,timeout_time,interTrial_timeout,left_rank,right_rank,distance,joint_rank,left_image,right_image
00000014,1,1,1447781243245,1447781244097,383,429,0,0,0,1,4,3,5,0005-00-0001-30.png,0004-00-0001-84.png
00000014,2,1,1447781347644,1447781348010,323,327,0,0,0,1,3,2,4,0005-00-0000-64.png,0002-00-0001-54.png
00000014,3,1,1447781349954,1447781350352,344,336,0,0,0,0,1,1,1,0001-00-0001-69.png,0005-00-0000-95.png
00000014,4,1,1447781355628,1447781356698,338,450,0,0,0,2,3,1,5,0003-00-0001-40.png,0002-00-0001-33.png
00000014,5,1,1447781357905,1447781358459,965,468,0,0,0,1,0,1,1,0005-00-0001-01.png,0001-00-0000-60.png
00000014,6,1,1447781359437,1447781359882,388,410,0,0,0,0,4,4,4,0001-00-0001-91.png,0004-00-0000-27.png
00000014,7,0,1447781363599,1447781364699,346,389,0,0,0,4,3,1,7,0004-00-0000-67.png,0002-00-0000-89.png
00000014,8,0,1447781368092,1447781368466,504,367,0,0,0,4,2,2,6,0004-00-0000-37.png,0003-00-0000-12.png
00000014,9,1,1447781373786,1447781374191,366,466,0,0,0,0,3,3,3,0001-00-0000-94.png,0002-00-0001-16.png
00000014,10,1,1447781375557,1447781376008,977,462,0,0,0,2,0,2,2,0003-00-0001-20.png,0001-00-0001-78.png
00000014,11,0,1447781377048,1447781377435,396,389,0,0,0,4,0,4,4,0004-00-0001-32.png,0001-00-0000-16.png
00000014,12,0,1447781380863,1447781381268,409,458,0,0,0,3,0,3,3,0002-00-0001-57.png,0001-00-0001-93.png
00000014,13,1,1447781384789,1447781385252,900,453,0,0,0,2,1,1,3,0003-00-0000-34.png,0005-00-0001-07.png
00000014,14,0,1447781386492,1447781386994,926,403,0,0,0,0,2,2,2,0001-00-0000-84.png,0003-00-0000-27.png
00000014,15,1,1447781390695,1447781391076,427,410,0,0,0,3,4,1,7,0002-00-0000-06.png,0004-00-0001-69.png
00000014,16,1,1447781392423,1447781392877,389,528,0,0,0,2,4,2,6,0003-00-0000-00.png,0004-00-0001-77.png
00000014,17,1,1447781394022,1447781394542,951,423,0,0,0,4,1,3,5,0004-00-0001-69.png,0005-00-0000-93.png
00000014,18,1,1447781401917,1447781402271,351,354,0,0,0,1,2,1,3,0005-00-0000-44.png,0003-00-0000-24.png
00000014,19,1,1447781404020,1447781404511,980,440,0,0,0,3,2,1,5,0002-00-0000-71.png,0003-00-0000-20.png
00000014,20,1,1447781405696,1447781406204,901,521,0,0,0,3,1,2,4,0002-00-0000-13.png,0005-00-0001-42.png
00000014,21,1,1447781407455,1447781408009,944,412,0,0,0,2,0,2,2,0003-00-0001-82.png,0001-00-0000-75.png
00000014,22,1,1447781409115,1447781409608,922,445,0,0,0,3,0,3,3,0002-00-0001-48.png,0001-00-0000-20.png
00000014,23,1,1447781410625,1447781411044,412,397,0,0,0,1,3,2,4,0005-00-0001-78.png,0002-00-0000-69.png
00000014,24,0,1447781412028,1447781412594,888,436,0,0,0,0,1,1,1,0001-00-0000-61.png,0005-00-0001-13.png
00000014,25,0,1447781415455,1447781415970,970,537,0,0,0,2,3,1,5,0003-00-0001-93.png,0002-00-0000-92.png
00000014,26,1,1447781419164,1447781419604,956,418,0,0,0,3,1,2,4,0002-00-0001-06.png,0005-00-0001-06.png
00000014,27,0,1447781420484,1447781420912,388,528,0,0,0,4,1,3,5,0004-00-0000-52.png,0005-00-0000-16.png
00000014,28,0,1447781424262,1447781424674,411,428,0,0,0,1,0,1,1,0005-00-0001-59.png,0001-00-0001-53.png
00000014,29,0,1447781427547,1447781427980,862,384,0,0,0,0,4,4,4,0001-00-0001-14.png,0004-00-0000-75.png
00000014,30,1,1447781430860,1447781430876,459,445,0,0,0,0,3,3,3,0001-00-0000-85.png,0002-00-0001-63.png
00000014,31,1,1447781432094,1447781432808,888,502,0,0,0,4,2,2,6,0004-00-0000-19.png,0003-00-0000-00.png
00000014,32,1,1447781434140,1447781434702,953,397,0,0,0,3,2,1,5,0002-00-0000-26.png,0003-00-0000-44.png
00000014,33,0,1447781436050,1447781436621,922,393,0,0,0,3,4,1,7,0002-00-0001-82.png,0004-00-0000-44.png
00000014,34,0,1447781440839,1447781441332,930,470,0,0,0,1,4,3,5,0005-00-0000-49.png,0004-00-0000-50.png
00000014,35,0,1447781444527,1447781445008,959,499,0,0,0,2,4,2,6,0003-00-0001-73.png,0004-00-0000-98.png
00000014,36,1,1447781449189,1447781449622,350,424,0,0,0,1,2,1,3,0005-00-0001-20.png,0003-00-0001-43.png
00000014,37,1,1447781451672,1447781452154,903,544,0,0,0,4,0,4,4,0004-00-0000-95.png,0001-00-0000-36.png
00000014,38,1,1447781453640,1447781454186,944,468,0,0,0,2,1,1,3,0003-00-0001-46.png,0005-00-0000-87.png
00000014,39,1,1447781455647,1447781456060,382,445,0,0,0,0,2,2,2,0001-00-0001-69.png,0003-00-0001-83.png
00000014,40,1,1447781457298,1447781457788,959,436,0,0,0,4,3,1,7,0004-00-0001-75.png,0002-00-0000-55.png
00000014,41,0,1447781463082,1447781463604,936,476,0,0,0,1,4,3,5,0005-00-0001-63.png,0004-00-0001-60.png
00000014,42,1,1447781466859,1447781467318,440,503,0,0,0,0,2,2,2,0001-00-0000-41.png,0003-00-0000-56.png
00000014,43,0,1447781468886,1447781469393,898,562,0,0,0,1,2,1,3,0005-00-0001-74.png,0003-00-0001-57.png
00000014,44,1,1447781472681,1447781473155,899,501,0,0,0,1,0,1,1,0005-00-0000-86.png,0001-00-0000-52.png
00000014,45,1,1447781474421,1447781474937,951,464,0,0,0,4,2,2,6,0004-00-0000-82.png,0003-00-0000-56.png
00000014,46,0,1447781476121,1447781477088,383,414,0,0,0,3,1,2,4,0002-00-0000-63.png,0005-00-0001-15.png
00000014,47,0,1447781480722,1447781481140,964,448,0,0,0,0,4,4,4,0001-00-0000-84.png,0004-00-0000-52.png
00000014,48,0,1447781485044,1447781485532,915,516,0,0,0,3,4,1,7,0002-00-0000-37.png,0004-00-0000-64.png
00000014,49,1,1447781488712,1447781489141,899,502,0,0,0,4,3,1,7,0004-00-0000-18.png,0002-00-0000-63.png
00000014,50,1,1447781490273,1447781490796,884,448,0,0,0,3,0,3,3,0002-00-0000-36.png,0001-00-0000-85.png
00000014,51,1,1447781500816,1447781501220,928,511,0,0,0,2,1,1,3,0003-00-0000-34.png,0005-00-0001-50.png
00000014,52,0,1447781503243,1447781503726,953,522,0,0,0,2,3,1,5,0003-00-0000-97.png,0002-00-0000-52.png
00000014,53,1,1447781506882,1447781507298,478,417,0,0,0,1,3,2,4,0005-00-0000-22.png,0002-00-0001-94.png
00000014,54,1,1447781509414,1447781509866,964,436,0,0,0,4,0,4,4,0004-00-0001-26.png,0001-00-0001-71.png
00000014,55,1,1447781511323,1447781511879,938,423,0,0,0,2,0,2,2,0003-00-0000-46.png,0001-00-0000-65.png
00000014,56,1,1447781513429,1447781513863,376,421,0,0,0,0,1,1,1,0001-00-0000-75.png,0005-00-0000-07.png
00000014,57,1,1447781515656,1447781516090,420,463,0,0,0,2,4,2,6,0003-00-0000-44.png,0004-00-0000-99.png
00000014,58,0,1447781518022,1447781518435,390,432,0,0,0,3,2,1,5,0002-00-0001-41.png,0003-00-0001-97.png
00000014,59,1,1447781527740,1447781528105,402,358,0,0,0,0,3,3,3,0001-00-0001-29.png,0002-00-0000-21.png
00000014,60,0,1447781530138,1447781531060,466,436,0,0,0,4,1,3,5,0004-00-0000-42.png,0005-00-0000-52.png
00000014,61,0,1447781534252,1447781534767,404,363,0,0,0,1,0,1,1,0005-00-0001-20.png,0001-00-0001-40.png
00000014,62,1,1447781537659,1447781538140,973,440,0,0,0,2,0,2,2,0003-00-0000-86.png,0001-00-0000-03.png
00000014,63,1,1447781539717,1447781540142,401,424,0,0,0,1,2,1,3,0005-00-0001-90.png,0003-00-0000-46.png
00000014,64,0,1447781541636,1447781542123,927,441,0,0,0,2,3,1,5,0003-00-0000-70.png,0002-00-0001-05.png
00000014,65,1,1447781546632,1447781547185,382,464,0,0,0,0,4,4,4,0001-00-0000-08.png,0004-00-0000-47.png
00000014,66,0,1447781549577,1447781550076,385,358,0,0,0,4,1,3,5,0004-00-0000-55.png,0005-00-0000-10.png
00000014,67,1,1447781554197,1447781554673,942,458,0,0,0,4,0,4,4,0004-00-0000-34.png,0001-00-0001-94.png
00000014,68,1,1447781556186,1447781556673,395,431,0,0,0,0,2,2,2,0001-00-0000-77.png,0003-00-0001-19.png
00000014,69,1,1447781558344,1447781558853,949,462,0,0,0,3,2,1,5,0002-00-0000-65.png,0003-00-0001-10.png
00000014,70,1,1447781573742,1447781574201,925,475,0,0,0,3,1,2,4,0002-00-0001-36.png,0005-00-0001-52.png
00000014,71,1,1447781576359,1447781612713,392,481,0,0,0,1,4,3,5,0005-00-0001-99.png,0004-00-0001-38.png
00000014,72,0,1447781620142,1447781620528,349,400,0,0,0,4,2,2,6,0004-00-0000-31.png,0003-00-0001-45.png
00000014,73,1,1447781624587,1447781624995,378,389,0,0,0,3,4,1,7,0002-00-0000-29.png,0004-00-0001-42.png
00000014,74,1,1447781626443,1447781626919,977,434,0,0,0,2,1,1,3,0003-00-0000-62.png,0005-00-0001-61.png
00000014,75,1,1447781628103,1447781628610,427,436,0,0,0,0,1,1,1,0001-00-0001-84.png,0005-00-0001-97.png
00000014,76,1,1447781630342,1447781636666,420,524,0,0,0,1,3,2,4,0005-00-0000-47.png,0002-00-0000-78.png
00000014,77,0,1447781638183,1447781639435,521,506,0,0,0,3,0,3,3,0002-00-0001-50.png,0001-00-0000-98.png
00000014,78,1,1447781644662,1447781645110,903,493,0,0,0,4,3,1,7,0004-00-0000-69.png,0002-00-0000-99.png
00000014,79,1,1447781646631,1447781647303,441,515,0,0,0,2,4,2,6,0003-00-0000-31.png,0004-00-0001-05.png
00000014,80,0,1447781649197,1447781649682,928,391,0,0,0,0,3,3,3,0001-00-0000-88.png,0002-00-0001-94.png
00000014,81,0,1447781656432,1447781656753,279,359,0,0,0,4,3,1,7,0004-00-0000-67.png,0002-00-0001-13.png
00000014,82,1,1447781662049,1447781662449,335,373,0,0,0,0,1,1,1,0001-00-0000-50.png,0005-00-0001-13.png
00000014,83,0,1447781665399,1447781665816,387,438,0,0,0,2,1,1,3,0003-00-0000-19.png,0005-00-0000-47.png
00000014,84,1,1447781681018,1447781681363,448,359,0,0,0,3,4,1,7,0002-00-0000-22.png,0004-00-0001-05.png
00000014,85,1,1447781683170,1447781683712,899,536,0,0,0,4,2,2,6,0004-00-0000-24.png,0003-00-0001-12.png
00000014,86,1,1447781685594,1447781686166,940,449,0,0,0,4,0,4,4,0004-00-0000-80.png,0001-00-0001-75.png
00000014,87,1,1447781687552,1447781688038,383,446,0,0,0,0,3,3,3,0001-00-0001-97.png,0002-00-0000-45.png
00000014,88,1,1447781689780,1447781690222,410,471,0,0,0,1,2,1,3,0005-00-0001-72.png,0003-00-0000-19.png
00000014,89,1,1447781692006,1447781692540,879,532,0,0,0,3,1,2,4,0002-00-0001-12.png,0005-00-0000-80.png
00000014,90,1,1447781694402,1447781694834,427,464,0,0,0,2,4,2,6,0003-00-0000-89.png,0004-00-0000-47.png
00000014,91,1,1447781696259,1447781696762,925,462,0,0,0,3,0,3,3,0002-00-0000-85.png,0001-00-0000-80.png
00000014,92,0,1447781698556,1447781699048,422,445,0,0,0,4,1,3,5,0004-00-0000-48.png,0005-00-0001-47.png
00000014,93,1,1447781702756,1447781703234,422,493,0,0,0,1,4,3,5,0005-00-0001-50.png,0004-00-0000-02.png
00000014,94,0,1447781704908,1447781705412,947,446,0,0,0,2,3,1,5,0003-00-0000-30.png,0002-00-0000-51.png
00000014,95,1,1447781710279,1447781710688,399,461,0,0,0,0,4,4,4,0001-00-0000-80.png,0004-00-0000-26.png
00000014,96,1,1447781712815,1447781713395,376,462,0,0,0,0,2,2,2,0001-00-0000-17.png,0003-00-0000-21.png
00000014,97,1,1447781714557,1447781715056,951,465,0,0,0,3,2,1,5,0002-00-0000-44.png,0003-00-0000-31.png
00000014,98,1,1447781716514,1447781717035,893,416,0,0,0,1,0,1,1,0005-00-0001-31.png,0001-00-0000-08.png
00000014,99,1,1447781718732,1447781719235,401,527,0,0,0,1,3,2,4,0005-00-0001-28.png,0002-00-0001-55.png
00000014,100,1,1447781720750,1447781721209,899,508,0,0,0,2,0,2,2,0003-00-0001-59.png,0001-00-0000-46.png
00000014,101,1,1447781722658,1447781723086,926,410,0,0,0,4,3,1,7,0004-00-0001-77.png,0002-00-0000-03.png
00000014,102,1,1447781724283,1447781724768,401,476,0,0,0,3,4,1,7,0002-00-0001-93.png,0004-00-0000-66.png
00000014,103,1,1447781726367,1447781726776,489,483,0,0,0,2,4,2,6,0003-00-0001-36.png,0004-00-0001-85.png
00000014,104,0,1447781728413,1447781728866,900,554,0,0,0,2,3,1,5,0003-00-0001-49.png,0002-00-0000-90.png
00000014,105,0,1447781732449,1447781732913,925,502,0,0,0,1,4,3,5,0005-00-0001-86.png,0004-00-0000-66.png
00000014,106,1,1447781737139,1447781737602,908,500,0,0,0,4,0,4,4,0004-00-0000-93.png,0001-00-0001-74.png
00000014,107,0,1447781738808,1447781739350,874,488,0,0,0,0,3,3,3,0001-00-0001-00.png,0002-00-0000-86.png
00000014,108,1,1447781745453,1447781745861,345,362,0,0,0,1,2,1,3,0005-00-0000-44.png,0003-00-0000-27.png
00000014,109,1,1447781747272,1447781747740,939,475,0,0,0,4,1,3,5,0004-00-0000-84.png,0005-00-0001-55.png
00000014,110,1,1447781748944,1447781749382,434,437,0,0,0,0,4,4,4,0001-00-0001-07.png,0004-00-0001-68.png
00000014,111,1,1447781750644,1447781751186,927,450,0,0,0,2,0,2,2,0003-00-0001-14.png,0001-00-0001-01.png
00000014,112,1,1447781752473,1447781753020,908,452,0,0,0,2,1,1,3,0003-00-0001-48.png,0005-00-0000-18.png
00000014,113,1,1447781754271,1447781754804,916,426,0,0,0,3,2,1,5,0002-00-0001-00.png,0003-00-0001-63.png
00000014,114,1,1447781755842,1447781756298,381,449,0,0,0,0,1,1,1,0001-00-0000-29.png,0005-00-0001-33.png
00000014,115,1,1447781757999,1447781758493,918,495,0,0,0,3,1,2,4,0002-00-0000-81.png,0005-00-0000-39.png
00000014,116,1,1447781760155,1447781760587,470,480,0,0,0,0,2,2,2,0001-00-0001-58.png,0003-00-0001-15.png
00000014,117,1,1447781762054,1447781762631,394,435,0,0,0,1,3,2,4,0005-00-0001-98.png,0002-00-0001-44.png
00000014,118,0,1447781763931,1447781764379,374,464,0,0,0,1,0,1,1,0005-00-0000-68.png,0001-00-0000-90.png
00000014,119,0,1447781767880,1447781768535,383,384,0,0,0,4,2,2,6,0004-00-0001-04.png,0003-00-0001-37.png
00000014,120,0,1447781772490,1447781773052,359,394,0,0,0,3,0,3,3,0002-00-0001-97.png,0001-00-0001-40.png
00000014,121,1,1447781781443,1447781781891,347,430,0,0,0,1,3,2,4,0005-00-0000-40.png,0002-00-0000-11.png
00000014,122,0,1447781783356,1447781783969,404,463,0,0,0,3,2,1,5,0002-00-0000-96.png,0003-00-0000-24.png
00000014,123,0,1447781786961,1447781787414,975,353,0,0,0,2,3,1,5,0003-00-0000-22.png,0002-00-0000-27.png
00000014,124,0,1447781791058,1447781791494,453,382,0,0,0,4,0,4,4,0004-00-0000-83.png,0001-00-0001-65.png
00000014,125,1,1447781794457,1447781794898,350,332,0,0,0,0,2,2,2,0001-00-0000-71.png,0003-00-0000-42.png
00000014,126,0,1447781795918,1447781796439,952,424,0,0,0,3,4,1,7,0002-00-0000-65.png,0004-00-0001-83.png
00000014,127,1,1447781800352,1447781800784,920,503,0,0,0,2,0,2,2,0003-00-0000-14.png,0001-00-0001-09.png
00000014,128,1,1447781801771,1447781802394,337,384,0,0,0,1,2,1,3,0005-00-0000-38.png,0003-00-0000-22.png
00000014,129,0,1447781803407,1447781803994,355,352,0,0,0,4,2,2,6,0004-00-0001-32.png,0003-00-0001-40.png
00000014,130,0,1447781807269,1447781807701,413,425,0,0,0,4,3,1,7,0004-00-0000-67.png,0002-00-0000-19.png
00000014,131,0,1447781811476,1447781812116,424,393,0,0,0,1,0,1,1,0005-00-0001-88.png,0001-00-0000-48.png
00000014,132,1,1447781815525,1447781816098,370,364,0,0,0,0,1,1,1,0001-00-0000-94.png,0005-00-0001-77.png
00000014,133,1,1447781817294,1447781817788,864,470,0,0,0,3,0,3,3,0002-00-0000-78.png,0001-00-0001-19.png
00000014,134,1,1447781818885,1447781819301,401,475,0,0,0,0,4,4,4,0001-00-0000-42.png,0004-00-0001-21.png
00000014,135,0,1447781820297,1447781820822,949,456,0,0,0,2,4,2,6,0003-00-0001-56.png,0004-00-0000-06.png
00000014,136,0,1447781831300,1447781831875,383,362,0,0,0,4,1,3,5,0004-00-0001-55.png,0005-00-0001-87.png
00000014,137,0,1447781834915,1447781835378,382,371,0,0,0,2,1,1,3,0003-00-0000-89.png,0005-00-0000-71.png
00000014,138,0,1447781838623,1447781839060,976,422,0,0,0,0,3,3,3,0001-00-0000-67.png,0002-00-0001-33.png
00000014,139,1,1447781843382,1447781843910,396,385,0,0,0,1,4,3,5,0005-00-0000-42.png,0004-00-0000-87.png
00000014,140,1,1447781845709,1447781846172,948,446,0,0,0,3,1,2,4,0002-00-0000-30.png,0005-00-0000-49.png
00000014,141,1,1447781847489,1447781847955,349,457,0,0,0,0,3,3,3,0001-00-0001-97.png,0002-00-0001-48.png
00000014,142,0,1447781849263,1447781849801,911,472,0,0,0,2,3,1,5,0003-00-0001-18.png,0002-00-0001-85.png
00000014,143,1,1447781853175,1447781853667,369,389,0,0,0,0,2,2,2,0001-00-0000-63.png,0003-00-0000-54.png
00000014,144,1,1447781855002,1447781855497,376,406,0,0,0,2,4,2,6,0003-00-0001-97.png,0004-00-0000-44.png
00000014,145,1,1447781856553,1447781857111,870,419,0,0,0,4,0,4,4,0004-00-0001-88.png,0001-00-0000-38.png
00000014,146,1,1447781858153,1447781858677,924,458,0,0,0,3,1,2,4,0002-00-0001-61.png,0005-00-0001-30.png
00000014,147,1,1447781859732,1447781860179,413,480,0,0,0,0,4,4,4,0001-00-0001-08.png,0004-00-0001-98.png
00000014,148,1,1447781861113,1447781861540,382,470,0,0,0,1,3,2,4,0005-00-0000-60.png,0002-00-0000-35.png
00000014,149,1,1447781862764,1447781863308,924,463,0,0,0,2,0,2,2,0003-00-0001-68.png,0001-00-0000-37.png
00000014,150,1,1447781864694,1447781865233,939,462,0,0,0,1,0,1,1,0005-00-0001-21.png,0001-00-0001-21.png
00000014,151,0,1447781866374,1447781866953,877,543,0,0,0,1,4,3,5,0005-00-0001-16.png,0004-00-0000-66.png
00000014,152,0,1447781870431,1447781870883,896,445,0,0,0,1,2,1,3,0005-00-0000-01.png,0003-00-0000-12.png
00000014,153,1,1447781874093,1447781874558,953,464,0,0,0,3,0,3,3,0002-00-0001-49.png,0001-00-0001-58.png
00000014,154,0,1447781875806,1447781876330,941,449,0,0,0,0,1,1,1,0001-00-0000-53.png,0005-00-0000-03.png
00000014,155,1,1447781879193,1447781879670,899,358,0,0,0,4,1,3,5,0004-00-0001-54.png,0005-00-0001-13.png
00000014,156,0,1447781880635,1447781881072,408,463,0,0,0,4,2,2,6,0004-00-0001-22.png,0003-00-0001-26.png
00000014,157,1,1447781884860,1447781885427,401,406,0,0,0,3,4,1,7,0002-00-0000-83.png,0004-00-0000-17.png
00000014,158,1,1447781886491,1447781886979,900,463,0,0,0,2,1,1,3,0003-00-0000-56.png,0005-00-0001-45.png
00000014,159,0,1447781888003,1447781888552,401,403,0,0,0,4,3,1,7,0004-00-0001-40.png,0002-00-0000-10.png
00000014,160,1,1447781892465,1447781892911,930,401,0,0,0,3,2,1,5,0002-00-0000-69.png,0003-00-0000-77.png
00000014,161,1,1447781894004,1447781894567,427,450,0,0,0,2,3,1,5,0003-00-0001-65.png,0002-00-0001-82.png
00000014,162,0,1447781895645,1447781896147,875,528,0,0,0,3,4,1,7,0002-00-0001-10.png,0004-00-0000-55.png
00000014,163,1,1447781900692,1447781901199,964,421,0,0,0,2,0,2,2,0003-00-0001-44.png,0001-00-0000-89.png
00000014,164,0,1447781902313,1447781902734,382,488,0,0,0,4,2,2,6,0004-00-0001-43.png,0003-00-0000-47.png
00000014,165,1,1447781906796,1447781907337,958,421,0,0,0,3,1,2,4,0002-00-0001-28.png,0005-00-0000-74.png
00000014,166,0,1447781908635,1447781909061,368,454,0,0,0,1,0,1,1,0005-00-0001-98.png,0001-00-0000-16.png
00000014,167,0,1447781912495,1447781913090,1018,364,0,0,0,1,4,3,5,0005-00-0001-57.png,0004-00-0000-45.png
00000014,168,0,1447781916346,1447781916811,451,425,0,0,0,3,2,1,5,0002-00-0000-70.png,0003-00-0000-34.png
00000014,169,1,1447781920719,1447781921261,376,410,0,0,0,2,4,2,6,0003-00-0000-44.png,0004-00-0001-82.png
00000014,170,0,1447781922825,1447781923302,952,448,0,0,0,1,3,2,4,0005-00-0000-58.png,0002-00-0001-66.png
00000014,171,1,1447781926880,1447781927379,358,392,0,0,0,0,2,2,2,0001-00-0000-42.png,0003-00-0000-35.png
00000014,172,1,1447781928492,1447781929036,924,463,0,0,0,4,0,4,4,0004-00-0000-60.png,0001-00-0001-99.png
00000014,173,1,1447781930201,1447781930637,401,462,0,0,0,0,1,1,1,0001-00-0000-15.png,0005-00-0001-93.png
00000014,174,1,1447781933201,1447781933779,951,501,0,0,0,4,3,1,7,0004-00-0000-00.png,0002-00-0001-22.png
00000014,175,1,1447781934861,1447781935351,934,447,0,0,0,2,1,1,3,0003-00-0001-89.png,0005-00-0000-39.png
00000014,176,1,1447781936401,1447781936846,391,441,0,0,0,0,4,4,4,0001-00-0001-33.png,0004-00-0000-07.png
00000014,177,1,1447781937784,1447781938450,332,368,0,0,0,1,2,1,3,0005-00-0001-30.png,0003-00-0001-33.png
00000014,178,1,1447781939540,1447781939983,371,442,0,0,0,0,3,3,3,0001-00-0001-70.png,0002-00-0000-32.png
00000014,179,1,1447781941283,1447781941785,913,450,0,0,0,4,1,3,5,0004-00-0000-37.png,0005-00-0000-18.png
00000014,180,0,1447781942823,1447781943215,399,454,0,0,0,3,0,3,3,0002-00-0001-66.png,0001-00-0001-83.png
00000014,181,1,1447781947155,1447781947623,394,408,0,0,0,0,2,2,2,0001-00-0001-50.png,0003-00-0001-17.png
00000014,182,1,1447781948717,1447781949141,414,450,0,0,0,0,3,3,3,0001-00-0001-39.png,0002-00-0000-44.png
00000014,183,0,1447781950196,1447781950739,876,547,0,0,0,0,1,1,1,0001-00-0001-78.png,0005-00-0000-74.png
00000014,184,0,1447781954286,1447781954766,967,474,0,0,0,2,3,1,5,0003-00-0001-05.png,0002-00-0001-73.png
00000014,185,0,1447781958369,1447781958865,965,395,0,0,0,2,4,2,6,0003-00-0000-69.png,0004-00-0001-18.png
00000014,186,0,1447781967615,1447781968023,371,423,0,0,0,3,2,1,5,0002-00-0001-07.png,0003-00-0000-87.png
00000014,187,1,1447781971510,1447781971944,376,386,0,0,0,0,4,4,4,0001-00-0000-80.png,0004-00-0000-93.png
00000014,188,1,1447781973425,1447781973895,938,476,0,0,0,4,3,1,7,0004-00-0001-45.png,0002-00-0001-36.png
00000014,189,1,1447781974951,1447781975473,886,561,0,0,0,4,1,3,5,0004-00-0000-26.png,0005-00-0000-21.png
00000014,190,0,1447781976402,1447781977030,331,374,0,0,0,2,0,2,2,0003-00-0000-01.png,0001-00-0001-53.png
00000014,191,1,1447781980277,1447781980735,976,475,0,0,0,4,2,2,6,0004-00-0000-69.png,0003-00-0001-71.png
00000014,192,1,1447781982156,1447781982776,354,376,0,0,0,3,4,1,7,0002-00-0000-67.png,0004-00-0000-47.png
00000014,193,1,1447781983744,1447781984290,862,384,0,0,0,3,0,3,3,0002-00-0001-64.png,0001-00-0001-55.png
00000014,194,0,1447781985438,1447781985925,416,465,0,0,0,3,1,2,4,0002-00-0000-25.png,0005-00-0001-29.png
00000014,195,1,1447781988996,1447781989447,950,449,0,0,0,4,0,4,4,0004-00-0000-70.png,0001-00-0000-56.png
00000014,196,0,1447781990410,1447781990988,426,395,0,0,0,1,0,1,1,0005-00-0000-00.png,0001-00-0001-81.png
00000014,197,1,1447781994132,1447781994590,350,399,0,0,0,1,3,2,4,0005-00-0000-99.png,0002-00-0001-09.png
00000014,198,1,1447781995598,1447781996035,393,465,0,0,0,1,4,3,5,0005-00-0000-64.png,0004-00-0000-41.png
00000014,199,1,1447781997787,1447781998268,872,562,0,0,0,2,1,1,3,0003-00-0000-49.png,0005-00-0000-09.png
00000014,200,0,1447781999281,1447781999874,858,525,0,0,0,1,2,1,3,0005-00-0001-25.png,0003-00-0000-70.png
00000014,201,1,1447782002958,1447782003445,446,557,0,0,0,2,4,2,6,0003-00-0000-79.png,0004-00-0000-50.png
00000014,202,0,1447782005462,1447782006071,348,368,0,0,0,4,2,2,6,0004-00-0000-57.png,0003-00-0000-73.png
00000014,203,1,1447782009538,1447782010023,418,384,0,0,0,1,3,2,4,0005-00-0000-90.png,0002-00-0001-36.png
00000014,204,1,1447782011170,1447782011580,402,486,0,0,0,0,1,1,1,0001-00-0000-85.png,0005-00-0000-02.png
00000014,205,1,1447782012718,1447782013219,924,457,0,0,0,2,1,1,3,0003-00-0000-95.png,0005-00-0000-36.png
00000014,206,1,1447782014209,1447782014749,404,407,0,0,0,2,3,1,5,0003-00-0001-96.png,0002-00-0001-82.png
00000014,207,1,1447782015701,1447782016235,862,410,0,0,0,2,0,2,2,0003-00-0001-41.png,0001-00-0001-48.png
00000014,208,1,1447782017209,1447782017726,949,430,0,0,0,4,0,4,4,0004-00-0000-07.png,0001-00-0001-55.png
00000014,209,1,1447782018771,1447782019274,401,432,0,0,0,3,4,1,7,0002-00-0001-41.png,0004-00-0001-88.png
00000014,210,1,1447782020342,1447782020766,392,456,0,0,0,0,4,4,4,0001-00-0000-33.png,0004-00-0001-45.png
00000014,211,1,1447782021882,1447782022298,384,461,0,0,0,0,2,2,2,0001-00-0001-41.png,0003-00-0000-34.png
00000014,212,1,1447782023352,1447782023879,924,483,0,0,0,4,1,3,5,0004-00-0001-57.png,0005-00-0000-91.png
00000014,213,0,1447782024974,1447782025346,388,460,0,0,0,3,2,1,5,0002-00-0001-64.png,0003-00-0001-90.png
00000014,214,1,1447782028513,1447782028913,389,425,0,0,0,0,3,3,3,0001-00-0000-60.png,0002-00-0001-48.png
00000014,215,0,1447782029943,1447782030579,872,436,0,0,0,1,4,3,5,0005-00-0000-75.png,0004-00-0000-74.png
00000014,216,1,1447782033858,1447782034458,899,484,0,0,0,4,3,1,7,0004-00-0000-97.png,0002-00-0000-67.png
00000014,217,0,1447782035597,1447782036098,893,451,0,0,0,1,2,1,3,0005-00-0000-42.png,0003-00-0001-02.png
00000014,218,1,1447782039394,1447782039896,952,450,0,0,0,1,0,1,1,0005-00-0001-38.png,0001-00-0000-99.png
00000014,219,1,1447782041184,1447782041710,890,563,0,0,0,3,1,2,4,0002-00-0001-70.png,0005-00-0001-33.png
00000014,220,1,1447782042674,1447782043194,949,432,0,0,0,3,0,3,3,0002-00-0001-08.png,0001-00-0000-00.png
00000014,221,0,1447782044265,1447782044961,916,464,0,0,0,0,3,3,3,0001-00-0000-05.png,0002-00-0000-31.png
00000014,222,0,1447782047922,1447782048413,956,402,0,0,0,2,3,1,5,0003-00-0000-23.png,0002-00-0001-14.png
00000014,223,0,1447782051491,1447782051999,926,397,0,0,0,1,2,1,3,0005-00-0000-35.png,0003-00-0001-07.png
00000014,224,0,1447782058405,1447782058894,376,370,0,0,0,3,2,1,5,0002-00-0001-41.png,0003-00-0001-49.png
00000014,225,1,1447782061956,1447782062415,384,390,0,0,0,0,2,2,2,0001-00-0000-37.png,0003-00-0001-10.png
00000014,226,0,1447782063586,1447782064111,876,528,0,0,0,2,4,2,6,0003-00-0000-75.png,0004-00-0001-97.png
00000014,227,0,1447782067223,1447782067642,350,410,0,0,0,1,0,1,1,0005-00-0000-54.png,0001-00-0000-03.png
00000014,228,0,1447782070754,1447782071234,387,398,0,0,0,4,0,4,4,0004-00-0001-48.png,0001-00-0001-87.png
00000014,229,0,1447782075829,1447782076204,470,401,0,0,0,4,3,1,7,0004-00-0000-61.png,0002-00-0000-35.png
00000014,230,0,1447782079616,1447782080043,359,418,0,0,0,4,2,2,6,0004-00-0001-58.png,0003-00-0000-24.png
00000014,231,1,1447782084396,1447782084881,977,437,0,0,0,2,0,2,2,0003-00-0001-30.png,0001-00-0001-59.png
00000014,232,1,1447782086484,1447782086887,418,454,0,0,0,0,1,1,1,0001-00-0001-59.png,0005-00-0001-31.png
00000014,233,1,1447782088749,1447782089284,416,545,0,0,0,0,4,4,4,0001-00-0001-77.png,0004-00-0001-16.png
00000014,234,1,1447782090718,1447782091260,952,469,0,0,0,2,1,1,3,0003-00-0001-01.png,0005-00-0001-20.png
00000014,235,1,1447782093013,1447782093526,377,472,0,0,0,1,3,2,4,0005-00-0000-89.png,0002-00-0000-50.png
00000014,236,0,1447782095188,1447782095659,401,464,0,0,0,3,1,2,4,0002-00-0001-59.png,0005-00-0001-39.png
00000014,237,1,1447782099117,1447782099652,865,458,0,0,0,4,1,3,5,0004-00-0001-93.png,0005-00-0001-85.png
00000014,238,0,1447782100746,1447782101289,925,463,0,0,0,1,4,3,5,0005-00-0000-50.png,0004-00-0000-95.png
00000014,239,0,1447782104431,1447782104865,950,422,0,0,0,3,4,1,7,0002-00-0001-06.png,0004-00-0000-39.png
00000014,240,1,1447782107935,1447782108425,885,526,0,0,0,3,0,3,3,0002-00-0001-52.png,0001-00-0000-45.png
00000014,241,0,1447782109572,1447782110101,370,404,0,0,0,1,0,1,1,0005-00-0000-61.png,0001-00-0000-42.png
00000014,242,1,1447782113188,1447782113841,369,383,0,0,0,0,4,4,4,0001-00-0000-74.png,0004-00-0001-98.png
00000014,243,1,1447782114908,1447782115442,924,482,0,0,0,2,1,1,3,0003-00-0000-40.png,0005-00-0001-27.png
00000014,244,1,1447782116530,1447782117097,893,450,0,0,0,3,1,2,4,0002-00-0000-11.png,0005-00-0001-05.png
00000014,245,1,1447782118189,1447782118748,902,466,0,0,0,2,0,2,2,0003-00-0001-18.png,0001-00-0001-90.png
00000014,246,1,1447782119829,1447782120460,383,370,0,0,0,0,3,3,3,0001-00-0001-88.png,0002-00-0001-26.png
00000014,247,0,1447782121498,1447782122078,870,445,0,0,0,2,3,1,5,0003-00-0000-10.png,0002-00-0001-65.png
00000014,248,0,1447782125087,1447782125618,899,429,0,0,0,1,4,3,5,0005-00-0001-11.png,0004-00-0001-69.png
00000014,249,1,1447782128925,1447782129412,951,437,0,0,0,4,1,3,5,0004-00-0001-26.png,0005-00-0001-98.png
00000014,250,1,1447782130586,1447782131069,901,476,0,0,0,4,2,2,6,0004-00-0000-80.png,0003-00-0000-61.png
00000014,251,1,1447782132334,1447782132742,350,474,0,0,0,0,2,2,2,0001-00-0000-38.png,0003-00-0001-26.png
00000014,252,0,1447782134292,1447782134853,901,486,0,0,0,3,4,1,7,0002-00-0000-61.png,0004-00-0001-72.png
00000014,253,0,1447782138257,1447782139242,427,410,0,0,0,4,3,1,7,0004-00-0000-09.png,0002-00-0001-54.png
00000014,254,0,1447782142464,1447782143053,901,397,0,0,0,1,3,2,4,0005-00-0001-97.png,0002-00-0001-30.png
00000014,255,1,1447782146431,1447782147019,883,499,0,0,0,3,0,3,3,0002-00-0000-54.png,0001-00-0001-12.png
00000014,256,1,1447782148205,1447782148605,410,471,0,0,0,0,1,1,1,0001-00-0000-41.png,0005-00-0000-17.png
00000014,257,1,1447782150035,1447782150634,860,543,0,0,0,4,0,4,4,0004-00-0000-62.png,0001-00-0000-43.png
00000014,258,1,1447782151676,1447782152115,373,462,0,0,0,1,2,1,3,0005-00-0001-71.png,0003-00-0000-34.png
00000014,259,0,1447782153276,1447782153727,403,460,0,0,0,3,2,1,5,0002-00-0000-19.png,0003-00-0001-36.png
00000014,260,0,1447782157172,1447782157698,931,453,0,0,0,2,4,2,6,0003-00-0000-42.png,0004-00-0000-32.png
00000014,261,0,1447782161266,1447782161671,401,475,0,0,0,4,2,2,6,0004-00-0001-05.png,0003-00-0001-49.png
00000014,262,1,1447782172228,1447782172620,407,483,0,0,0,1,2,1,3,0005-00-0000-60.png,0003-00-0001-41.png
00000014,263,1,1447782173820,1447782174343,933,565,0,0,0,4,3,1,7,0004-00-0000-06.png,0002-00-0001-81.png
00000014,264,1,1447782176332,1447782176786,945,429,0,0,0,2,1,1,3,0003-00-0001-11.png,0005-00-0001-85.png
00000014,265,1,1447782178101,1447782178540,384,426,0,0,0,2,3,1,5,0003-00-0001-48.png,0002-00-0000-26.png
00000014,266,1,1447782179502,1447782179941,390,462,0,0,0,0,1,1,1,0001-00-0001-77.png,0005-00-0001-55.png
00000014,267,1,1447782180925,1447782181519,877,522,0,0,0,3,2,1,5,0002-00-0001-90.png,0003-00-0000-14.png
00000014,268,1,1447782182483,1447782183163,919,450,0,0,0,1,0,1,1,0005-00-0001-81.png,0001-00-0001-06.png
00000014,269,1,1447782184094,1447782184517,408,462,0,0,0,0,2,2,2,0001-00-0001-87.png,0003-00-0000-78.png
00000014,270,1,1447782185555,1447782186017,385,441,0,0,0,0,3,3,3,0001-00-0001-83.png,0002-00-0000-20.png
00000014,271,0,1447782186970,1447782187624,898,456,0,0,0,2,4,2,6,0003-00-0000-49.png,0004-00-0000-00.png
00000014,272,1,1447782190793,1447782191235,901,539,0,0,0,4,0,4,4,0004-00-0000-85.png,0001-00-0000-82.png
00000014,273,1,1447782192303,1447782192792,951,476,0,0,0,4,1,3,5,0004-00-0001-35.png,0005-00-0001-97.png
00000014,274,1,1447782193772,1447782194169,382,484,0,0,0,0,4,4,4,0001-00-0001-46.png,0004-00-0001-69.png
00000014,275,0,1447782195116,1447782195742,870,550,0,0,0,3,4,1,7,0002-00-0001-92.png,0004-00-0000-78.png
00000014,276,0,1447782199210,1447782199747,419,531,0,0,0,3,1,2,4,0002-00-0001-90.png,0005-00-0001-38.png
00000014,277,1,1447782203478,1447782203942,973,437,0,0,0,3,0,3,3,0002-00-0001-40.png,0001-00-0001-05.png
00000014,278,0,1447782204975,1447782205519,938,476,0,0,0,1,3,2,4,0005-00-0000-33.png,0002-00-0000-76.png
00000014,279,0,1447782208521,1447782208961,981,401,0,0,0,1,4,3,5,0005-00-0001-64.png,0004-00-0001-46.png
00000014,280,1,1447782213481,1447782213944,930,506,0,0,0,2,0,2,2,0003-00-0000-91.png,0001-00-0001-77.png
00000014,281,1,1447782215023,1447782215774,896,524,0,0,0,4,1,3,5,0004-00-0001-25.png,0005-00-0001-22.png
00000014,282,1,1447782217043,1447782217520,926,475,0,0,0,4,0,4,4,0004-00-0001-69.png,0001-00-0000-88.png
00000014,283,1,1447782219406,1447782219914,927,460,0,0,0,1,0,1,1,0005-00-0000-65.png,0001-00-0001-26.png
00000014,284,0,1447782220853,1447782221361,449,468,0,0,0,4,2,2,6,0004-00-0000-12.png,0003-00-0000-11.png
00000014,285,1,1447782226338,1447782226707,389,423,0,0,0,0,1,1,1,0001-00-0000-57.png,0005-00-0001-23.png
00000014,286,0,1447782228292,1447782228798,901,547,0,0,0,1,2,1,3,0005-00-0001-53.png,0003-00-0001-36.png
00000014,287,1,1447782236091,1447782236586,373,362,0,0,0,0,2,2,2,0001-00-0000-19.png,0003-00-0000-85.png
00000014,288,0,1447782237991,1447782238462,932,473,0,0,0,2,3,1,5,0003-00-0000-53.png,0002-00-0000-20.png
00000014,289,1,1447782241634,1447782242059,950,404,0,0,0,3,0,3,3,0002-00-0001-65.png,0001-00-0000-75.png
00000014,290,0,1447782243215,1447782243742,925,482,0,0,0,1,4,3,5,0005-00-0001-64.png,0004-00-0000-73.png
00000014,291,1,1447782246684,1447782247123,333,391,0,0,0,0,4,4,4,0001-00-0001-55.png,0004-00-0000-51.png
00000014,292,0,1447782248028,1447782248570,927,449,0,0,0,2,4,2,6,0003-00-0000-08.png,0004-00-0000-50.png
00000014,293,0,1447782253243,1447782253867,398,385,0,0,0,3,1,2,4,0002-00-0001-60.png,0005-00-0001-34.png
00000014,294,1,1447782258106,1447782259031,311,338,0,0,0,0,3,3,3,0001-00-0000-97.png,0002-00-0001-01.png
00000014,295,0,1447782260390,1447782260896,951,490,0,0,0,3,4,1,7,0002-00-0001-90.png,0004-00-0000-14.png
00000014,296,1,1447782264346,1447782264800,372,412,0,0,0,1,3,2,4,0005-00-0000-52.png,0002-00-0001-66.png
00000014,297,0,1447782266065,1447782266645,403,379,0,0,0,3,2,1,5,0002-00-0001-12.png,0003-00-0000-62.png
00000014,298,1,1447782269921,1447782270401,928,381,0,0,0,2,0,2,2,0003-00-0000-26.png,0001-00-0000-89.png
00000014,299,1,1447782272276,1447782272767,911,518,0,0,0,2,1,1,3,0003-00-0001-97.png,0005-00-0000-17.png
00000014,300,1,1447782274692,1447782275282,898,431,0,0,0,4,3,1,7,0004-00-0001-80.png,0002-00-0000-64.png
00000014,301,0,1447782277267,1447782277732,899,541,0,0,0,1,4,3,5,0005-00-0001-81.png,0004-00-0000-78.png
00000014,302,1,1447782298345,1447782298687,396,342,0,0,0,1,3,2,4,0005-00-0000-78.png,0002-00-0000-06.png
00000014,303,0,1447782300024,1447782300491,350,451,0,0,0,4,2,2,6,0004-00-0001-07.png,0003-00-0000-10.png
00000014,304,0,1447782304102,1447782304525,375,403,0,0,0,3,0,3,3,0002-00-0000-46.png,0001-00-0001-82.png
00000014,305,1,1447782308811,1447782309302,427,410,0,0,0,0,1,1,1,0001-00-0000-58.png,0005-00-0001-45.png
00000014,306,1,1447782310506,1447782311054,938,500,0,0,0,3,2,1,5,0002-00-0001-96.png,0003-00-0001-89.png
00000014,307,1,1447782311973,1447782312564,945,486,0,0,0,4,1,3,5,0004-00-0001-50.png,0005-00-0000-63.png
00000014,308,1,1447782313741,1447782314378,943,465,0,0,0,2,1,1,3,0003-00-0001-64.png,0005-00-0000-85.png
00000014,309,0,1447782315281,1447782315891,903,493,0,0,0,2,4,2,6,0003-00-0001-43.png,0004-00-0000-27.png
00000014,310,0,1447782319277,1447782319830,952,412,0,0,0,1,2,1,3,0005-00-0000-29.png,0003-00-0001-21.png
00000014,311,0,1447782323091,1447782323496,396,446,0,0,0,4,3,1,7,0004-00-0000-54.png,0002-00-0000-52.png
00000014,312,1,1447782327607,1447782328069,939,450,0,0,0,2,0,2,2,0003-00-0001-73.png,0001-00-0000-08.png
00000014,313,0,1447782329344,1447782329880,897,538,0,0,0,0,2,2,2,0001-00-0000-43.png,0003-00-0001-51.png
00000014,314,1,1447782333093,1447782333552,952,424,0,0,0,3,1,2,4,0002-00-0001-34.png,0005-00-0001-96.png
00000014,315,1,1447782334792,1447782335184,371,450,0,0,0,3,4,1,7,0002-00-0000-99.png,0004-00-0001-72.png
00000014,316,0,1447782336153,1447782336713,890,415,0,0,0,2,3,1,5,0003-00-0000-27.png,0002-00-0000-51.png
00000014,317,1,1447782340150,1447782340573,391,470,0,0,0,0,4,4,4,0001-00-0000-76.png,0004-00-0000-69.png
00000014,318,1,1447782341459,1447782342034,953,460,0,0,0,1,0,1,1,0005-00-0001-07.png,0001-00-0001-68.png
00000014,319,1,1447782343121,1447782343715,889,558,0,0,0,4,0,4,4,0004-00-0000-60.png,0001-00-0000-72.png
00000014,320,1,1447782344721,1447782345216,397,434,0,0,0,0,3,3,3,0001-00-0000-47.png,0002-00-0000-63.png
00000014,321,1,1447782346172,1447782346607,451,457,0,0,0,1,2,1,3,0005-00-0001-83.png,0003-00-0000-20.png
00000014,322,1,1447782348375,1447782348864,913,475,0,0,0,4,0,4,4,0004-00-0000-04.png,0001-00-0001-45.png
00000014,323,1,1447782349817,1447782350434,380,432,0,0,0,1,3,2,4,0005-00-0001-42.png,0002-00-0001-81.png
00000014,324,1,1447782351378,1447782351880,926,476,0,0,0,1,0,1,1,0005-00-0001-19.png,0001-00-0001-39.png
00000014,325,1,1447782352870,1447782353316,435,472,0,0,0,0,2,2,2,0001-00-0001-25.png,0003-00-0000-97.png
00000014,326,0,1447782354710,1447782355185,391,438,0,0,0,4,1,3,5,0004-00-0001-85.png,0005-00-0000-47.png
00000014,327,1,1447782358366,1447782358840,372,445,0,0,0,1,4,3,5,0005-00-0001-36.png,0004-00-0001-90.png
00000014,328,0,1447782359946,1447782360481,921,471,0,0,0,2,3,1,5,0003-00-0001-63.png,0002-00-0001-21.png
00000014,329,1,1447782363456,1447782364017,325,475,0,0,0,0,3,3,3,0001-00-0000-40.png,0002-00-0000-81.png
00000014,330,1,1447782365001,1447782365559,939,465,0,0,0,3,0,3,3,0002-00-0000-88.png,0001-00-0000-66.png
00000014,331,0,1447782366453,1447782366903,382,487,0,0,0,4,3,1,7,0004-00-0000-90.png,0002-00-0000-35.png
00000014,332,1,1447782369893,1447782370375,382,401,0,0,0,0,4,4,4,0001-00-0000-68.png,0004-00-0000-45.png
00000014,333,1,1447782371494,1447782372067,924,488,0,0,0,2,1,1,3,0003-00-0001-55.png,0005-00-0001-95.png
00000014,334,0,1447782373054,1447782373469,429,467,0,0,0,4,2,2,6,0004-00-0000-20.png,0003-00-0001-11.png
00000014,335,0,1447782377099,1447782377556,977,423,0,0,0,2,4,2,6,0003-00-0000-54.png,0004-00-0001-72.png
00000014,336,0,1447782385893,1447782386266,390,396,0,0,0,3,1,2,4,0002-00-0001-57.png,0005-00-0000-81.png
00000014,337,0,1447782390738,1447782391168,396,383,0,0,0,3,2,1,5,0002-00-0000-39.png,0003-00-0000-15.png
00000014,338,1,1447782394553,1447782394978,381,363,0,0,0,3,4,1,7,0002-00-0001-91.png,0004-00-0000-76.png
00000014,339,0,1447782396305,1447782396799,926,429,0,0,0,0,1,1,1,0001-00-0000-84.png,0005-00-0001-39.png
00000014,340,0,1447782403846,1447782405185,373,347,0,0,0,2,0,2,2,0003-00-0001-61.png,0001-00-0000-58.png
00000014,341,1,1447782408129,1447782408176,518,422,0,0,0,0,4,4,4,0001-00-0000-97.png,0004-00-0000-55.png
00000014,342,0,1447782409252,1447782409668,427,476,0,0,0,4,2,2,6,0004-00-0000-76.png,0003-00-0000-83.png
00000014,343,0,1447782412591,1447782413053,952,396,0,0,0,1,3,2,4,0005-00-0000-86.png,0002-00-0000-26.png
00000014,344,1,1447782418067,1447782418572,967,427,0,0,0,1,0,1,1,0005-00-0001-93.png,0001-00-0001-09.png
00000014,345,1,1447782420334,1447782420924,937,445,0,0,0,4,1,3,5,0004-00-0001-62.png,0005-00-0001-53.png
00000014,346,1,1447782422125,1447782422758,895,414,0,0,0,4,3,1,7,0004-00-0000-40.png,0002-00-0001-20.png
00000014,347,1,1447782424320,1447782424829,343,400,0,0,0,0,2,2,2,0001-00-0000-82.png,0003-00-0000-46.png
00000014,348,1,1447782426685,1447782427153,439,462,0,0,0,0,1,1,1,0001-00-0000-77.png,0005-00-0000-35.png
00000014,349,0,1447782428665,1447782429138,419,441,0,0,0,3,2,1,5,0002-00-0000-02.png,0003-00-0000-15.png
00000014,350,1,1447782432302,1447782432805,427,424,0,0,0,0,3,3,3,0001-00-0001-16.png,0002-00-0001-72.png
00000014,351,0,1447782434199,1447782434711,926,489,0,0,0,1,4,3,5,0005-00-0000-36.png,0004-00-0001-50.png
00000014,352,1,1447782437967,1447782438429,974,436,0,0,0,2,1,1,3,0003-00-0001-98.png,0005-00-0001-50.png
00000014,353,0,1447782439593,1447782440110,468,495,0,0,0,4,0,4,4,0004-00-0001-47.png,0001-00-0001-33.png
00000014,354,1,1447782442992,1447782443471,989,371,0,0,0,3,0,3,3,0002-00-0001-88.png,0001-00-0001-14.png
00000014,355,1,1447782444424,1447782444917,427,450,0,0,0,1,2,1,3,0005-00-0001-30.png,0003-00-0000-60.png
00000014,356,1,1447782445876,1447782446499,901,461,0,0,0,2,0,2,2,0003-00-0001-09.png,0001-00-0001-87.png
00000014,357,1,1447782447407,1447782447969,896,446,0,0,0,3,1,2,4,0002-00-0001-88.png,0005-00-0001-79.png
00000014,358,0,1447782448937,1447782449517,900,436,0,0,0,2,3,1,5,0003-00-0000-74.png,0002-00-0001-78.png
00000014,359,0,1447782452983,1447782453427,921,501,0,0,0,3,4,1,7,0002-00-0001-89.png,0004-00-0000-37.png
00000014,360,0,1447782457729,1447782458183,1004,399,0,0,0,2,4,2,6,0003-00-0001-59.png,0004-00-0001-01.png
00000014,361,0,1447782461102,1447782461525,954,467,0,0,0,0,3,3,3,0001-00-0001-40.png,0002-00-0001-27.png
00000014,362,0,1447782464750,1447782465225,956,349,0,0,0,1,3,2,4,0005-00-0000-73.png,0002-00-0000-45.png
00000014,363,0,1447782474850,1447782475294,983,418,0,0,0,1,4,3,5,0005-00-0000-53.png,0004-00-0001-62.png
00000014,364,0,1447782480103,1447782480476,356,332,0,0,0,3,0,3,3,0002-00-0000-74.png,0001-00-0001-50.png
00000014,365,1,1447782483719,1447782484181,937,495,0,0,0,3,1,2,4,0002-00-0000-51.png,0005-00-0000-16.png
00000014,366,0,1447782485598,1447782486123,873,411,0,0,0,3,4,1,7,0002-00-0001-75.png,0004-00-0001-20.png
00000014,367,1,1447782489373,1447782489848,952,450,0,0,0,4,0,4,4,0004-00-0001-43.png,0001-00-0001-93.png
00000014,368,1,1447782491222,1447782491727,950,474,0,0,0,4,1,3,5,0004-00-0000-93.png,0005-00-0001-90.png
00000014,369,1,1447782492714,1447782493293,887,552,0,0,0,2,1,1,3,0003-00-0001-47.png,0005-00-0000-74.png
00000014,370,1,1447782494246,1447782494777,934,468,0,0,0,2,0,2,2,0003-00-0000-69.png,0001-00-0000-28.png
00000014,371,0,1447782495895,1447782496459,964,450,0,0,0,2,3,1,5,0003-00-0000-14.png,0002-00-0001-83.png
00000014,372,1,1447782500120,1447782500513,358,342,0,0,0,0,4,4,4,0001-00-0001-05.png,0004-00-0000-71.png
00000014,373,0,1447782502035,1447782502554,900,554,0,0,0,2,4,2,6,0003-00-0000-76.png,0004-00-0001-32.png
00000014,374,1,1447782505725,1447782506188,372,401,0,0,0,0,1,1,1,0001-00-0000-98.png,0005-00-0001-40.png
00000014,375,1,1447782507375,1447782507953,926,450,0,0,0,4,3,1,7,0004-00-0000-81.png,0002-00-0000-20.png
00000014,376,1,1447782508895,1447782509314,370,467,0,0,0,1,2,1,3,0005-00-0000-35.png,0003-00-0001-04.png
00000014,377,0,1447782510247,1447782510808,420,397,0,0,0,3,2,1,5,0002-00-0000-24.png,0003-00-0000-41.png
00000014,378,0,1447782514148,1447782514546,411,528,0,0,0,1,0,1,1,0005-00-0001-87.png,0001-00-0000-84.png
00000014,379,1,1447782518268,1447782518700,984,422,0,0,0,4,2,2,6,0004-00-0000-94.png,0003-00-0001-36.png
00000014,380,1,1447782520041,1447782520488,410,472,0,0,0,0,2,2,2,0001-00-0001-67.png,0003-00-0001-39.png
00000014,381,1,1447782521395,1447782521940,926,475,0,0,0,2,0,2,2,0003-00-0001-95.png,0001-00-0000-30.png
00000014,382,1,1447782522785,1447782523274,947,471,0,0,0,1,0,1,1,0005-00-0000-51.png,0001-00-0000-45.png
00000014,383,1,1447782524195,1447782524610,377,461,0,0,0,1,2,1,3,0005-00-0001-46.png,0003-00-0000-15.png
00000014,384,1,1447782525490,1447782526007,925,482,0,0,0,3,0,3,3,0002-00-0001-88.png,0001-00-0001-02.png
00000014,385,0,1447782526847,1447782527356,396,459,0,0,0,3,2,1,5,0002-00-0001-31.png,0003-00-0001-17.png
00000014,386,1,1447782530877,1447782531319,350,372,0,0,0,0,2,2,2,0001-00-0000-82.png,0003-00-0001-70.png
00000014,387,1,1447782532961,1447782533349,406,460,0,0,0,1,4,3,5,0005-00-0000-95.png,0004-00-0001-53.png
00000014,388,1,1447782534267,1447782534712,350,449,0,0,0,0,1,1,1,0001-00-0000-62.png,0005-00-0000-70.png
00000014,389,0,1447782535546,1447782536161,900,449,0,0,0,2,4,2,6,0003-00-0000-93.png,0004-00-0001-75.png
00000014,390,1,1447782539195,1447782539634,387,410,0,0,0,0,3,3,3,0001-00-0001-10.png,0002-00-0000-88.png
00000014,391,1,1447782540836,1447782541336,938,502,0,0,0,4,0,4,4,0004-00-0000-55.png,0001-00-0001-21.png
00000014,392,0,1447782542626,1447782543100,871,445,0,0,0,1,3,2,4,0005-00-0001-02.png,0002-00-0001-30.png
00000014,393,1,1447782546084,1447782546683,941,448,0,0,0,4,3,1,7,0004-00-0001-41.png,0002-00-0000-40.png
00000014,394,0,1447782547724,1447782548209,938,476,0,0,0,2,3,1,5,0003-00-0000-75.png,0002-00-0001-33.png
00000014,395,1,1447782551349,1447782551815,381,412,0,0,0,0,4,4,4,0001-00-0000-32.png,0004-00-0001-89.png
00000014,396,1,1447782553001,1447782553566,952,487,0,0,0,2,1,1,3,0003-00-0000-73.png,0005-00-0000-12.png
00000014,397,1,1447782554473,1447782555021,925,490,0,0,0,4,1,3,5,0004-00-0000-11.png,0005-00-0001-85.png
00000014,398,0,1447782555931,1447782556473,459,448,0,0,0,4,2,2,6,0004-00-0000-75.png,0003-00-0000-67.png
00000014,399,0,1447782560105,1447782560540,919,458,0,0,0,3,4,1,7,0002-00-0001-59.png,0004-00-0000-19.png
00000014,400,1,1447782570476,1447782570911,901,477,0,0,0,3,1,2,4,0002-00-0000-10.png,0005-00-0000-04.png
00000014,401,1,1447782572168,1447782572731,384,453,0,0,0,3,4,1,7,0002-00-0000-99.png,0004-00-0001-12.png
00000014,402,1,1447782573575,1447782574004,383,447,0,0,0,0,4,4,4,0001-00-0001-29.png,0004-00-0001-16.png
00000014,403,1,1447782575646,1447782576138,924,482,0,0,0,3,1,2,4,0002-00-0000-68.png,0005-00-0001-72.png
00000014,404,1,1447782577093,1447782577551,459,486,0,0,0,1,4,3,5,0005-00-0000-95.png,0004-00-0001-38.png
00000014,405,0,1447782578374,1447782578903,399,438,0,0,0,4,1,3,5,0004-00-0001-59.png,0005-00-0001-21.png
00000014,406,1,1447782582065,1447782582603,926,460,0,0,0,4,2,2,6,0004-00-0001-30.png,0003-00-0000-00.png
00000014,407,1,1447782583813,1447782584279,883,559,0,0,0,4,3,1,7,0004-00-0000-75.png,0002-00-0000-15.png
00000014,408,1,1447782585135,1447782585693,865,563,0,0,0,2,1,1,3,0003-00-0001-11.png,0005-00-0001-20.png
00000014,409,0,1447782586555,1447782587179,899,562,0,0,0,0,3,3,3,0001-00-0001-81.png,0002-00-0000-62.png
00000014,410,0,1447782590394,1447782590977,384,391,0,0,0,1,0,1,1,0005-00-0000-39.png,0001-00-0001-82.png
00000014,411,0,1447782594286,1447782594781,955,422,0,0,0,2,4,2,6,0003-00-0001-16.png,0004-00-0001-76.png
00000014,412,1,1447782599170,1447782599589,879,349,0,0,0,3,0,3,3,0002-00-0000-75.png,0001-00-0001-67.png
00000014,413,1,1447782600938,1447782601362,440,436,0,0,0,1,2,1,3,0005-00-0001-19.png,0003-00-0001-81.png
00000014,414,1,1447782602469,1447782602956,375,449,0,0,0,0,2,2,2,0001-00-0001-98.png,0003-00-0001-20.png
00000014,415,1,1447782603899,1447782604406,401,456,0,0,0,0,1,1,1,0001-00-0001-32.png,0005-00-0001-58.png
00000014,416,0,1447782605391,1447782605920,394,424,0,0,0,3,2,1,5,0002-00-0000-88.png,0003-00-0000-67.png
00000014,417,0,1447782626524,1447782626991,939,386,0,0,0,1,3,2,4,0005-00-0001-58.png,0002-00-0000-18.png
00000014,418,1,1447782630757,1447782631220,939,436,0,0,0,4,0,4,4,0004-00-0001-96.png,0001-00-0000-60.png
00000014,419,1,1447782632431,1447782633035,317,496,0,0,0,2,3,1,5,0003-00-0000-44.png,0002-00-0001-44.png
00000014,420,1,1447782634479,1447782634976,955,468,0,0,0,2,0,2,2,0003-00-0001-09.png,0001-00-0001-62.png
00000014,421,1,1447782636119,1447782636539,407,463,0,0,0,0,4,4,4,0001-00-0000-99.png,0004-00-0000-96.png
00000014,422,1,1447782637789,1447782638313,904,558,0,0,0,4,3,1,7,0004-00-0001-24.png,0002-00-0001-15.png
00000014,423,1,1447782639358,1447782639798,358,427,0,0,0,0,2,2,2,0001-00-0000-35.png,0003-00-0000-80.png
00000014,424,1,1447782640638,1447782641257,431,406,0,0,0,2,3,1,5,0003-00-0000-81.png,0002-00-0001-25.png
00000014,425,0,1447782642168,1447782642667,919,469,0,0,0,0,1,1,1,0001-00-0001-71.png,0005-00-0000-52.png
00000014,426,1,1447782646208,1447782646713,377,417,0,0,0,1,3,2,4,0005-00-0000-64.png,0002-00-0000-22.png
00000014,427,1,1447782647903,1447782648463,925,489,0,0,0,1,0,1,1,0005-00-0000-18.png,0001-00-0001-18.png
00000014,428,1,1447782649336,1447782649761,388,464,0,0,0,0,3,3,3,0001-00-0001-08.png,0002-00-0001-65.png
00000014,429,1,1447782650645,1447782651269,337,378,0,0,0,1,2,1,3,0005-00-0001-79.png,0003-00-0001-18.png
00000014,430,1,1447782652177,1447782652668,872,560,0,0,0,2,0,2,2,0003-00-0001-33.png,0001-00-0001-44.png
00000014,431,0,1447782653537,1447782654032,411,434,0,0,0,4,0,4,4,0004-00-0001-69.png,0001-00-0000-31.png
00000014,432,1,1447782657007,1447782657461,350,435,0,0,0,1,4,3,5,0005-00-0000-68.png,0004-00-0001-29.png
00000014,433,0,1447782658526,1447782658973,925,488,0,0,0,2,4,2,6,0003-00-0000-53.png,0004-00-0001-63.png
00000014,434,1,1447782662026,1447782662601,966,462,0,0,0,3,1,2,4,0002-00-0000-83.png,0005-00-0001-42.png
00000014,435,1,1447782663871,1447782664392,925,475,0,0,0,4,1,3,5,0004-00-0000-05.png,0005-00-0000-07.png
00000014,436,0,1447782665287,1447782665680,440,475,0,0,0,3,0,3,3,0002-00-0000-52.png,0001-00-0000-44.png
00000014,437,0,1447782669043,1447782669510,462,459,0,0,0,3,2,1,5,0002-00-0000-05.png,0003-00-0000-67.png
00000014,438,1,1447782672779,1447782673266,953,408,0,0,0,2,1,1,3,0003-00-0000-30.png,0005-00-0000-62.png
00000014,439,0,1447782674592,1447782675060,429,452,0,0,0,4,2,2,6,0004-00-0000-10.png,0003-00-0001-03.png
00000014,440,1,1447782678545,1447782678992,472,383,0,0,0,3,4,1,7,0002-00-0000-98.png,0004-00-0000-58.png
00000014,441,1,1447782680312,1447782680820,923,458,0,0,0,4,0,4,4,0004-00-0000-90.png,0001-00-0000-09.png
00000014,442,0,1447782681722,1447782682403,878,467,0,0,0,2,3,1,5,0003-00-0001-25.png,0002-00-0001-29.png
00000014,443,1,1447782685654,1447782686175,327,467,0,0,0,0,2,2,2,0001-00-0000-22.png,0003-00-0001-18.png
00000014,444,1,1447782687514,1447782688052,400,435,0,0,0,0,1,1,1,0001-00-0000-18.png,0005-00-0000-18.png
00000014,445,0,1447782688979,1447782689521,421,397,0,0,0,4,2,2,6,0004-00-0001-34.png,0003-00-0001-43.png
00000014,446,1,1447782692608,1447782693055,973,394,0,0,0,4,3,1,7,0004-00-0001-48.png,0002-00-0000-93.png
00000014,447,1,1447782694151,1447782694531,421,466,0,0,0,3,4,1,7,0002-00-0001-61.png,0004-00-0000-41.png
00000014,448,1,1447782695421,1447782696017,927,501,0,0,0,2,0,2,2,0003-00-0000-45.png,0001-00-0000-88.png
00000014,449,1,1447782696893,1447782697426,925,473,0,0,0,1,0,1,1,0005-00-0001-75.png,0001-00-0000-46.png
00000014,450,1,1447782698362,1447782698945,906,462,0,0,0,2,1,1,3,0003-00-0001-66.png,0005-00-0000-32.png
00000014,451,0,1447782699864,1447782700272,470,505,0,0,0,3,2,1,5,0002-00-0000-74.png,0003-00-0000-54.png
00000014,452,0,1447782703382,1447782703831,953,415,0,0,0,1,4,3,5,0005-00-0000-29.png,0004-00-0000-62.png
00000014,453,0,1447782707150,1447782707649,332,356,0,0,0,3,1,2,4,0002-00-0001-37.png,0005-00-0000-84.png
00000014,454,0,1447782721438,1447782721877,909,474,0,0,0,1,2,1,3,0005-00-0000-61.png,0003-00-0000-79.png
00000014,455,1,1447782725128,1447782725572,1004,389,0,0,0,3,0,3,3,0002-00-0001-52.png,0001-00-0000-69.png
00000014,456,1,1447782726708,1447782727235,374,391,0,0,0,1,3,2,4,0005-00-0000-96.png,0002-00-0000-00.png
00000014,457,0,1447782728166,1447782728929,947,393,0,0,0,2,4,2,6,0003-00-0001-26.png,0004-00-0000-34.png
00000014,458,1,1447782732082,1447782732575,437,407,0,0,0,0,3,3,3,0001-00-0001-01.png,0002-00-0000-59.png
00000014,459,0,1447782733872,1447782734291,342,440,0,0,0,4,1,3,5,0004-00-0001-81.png,0005-00-0000-07.png
00000014,460,1,1447782737649,1447782738119,395,418,0,0,0,0,4,4,4,0001-00-0001-63.png,0004-00-0000-52.png
00000014,461,1,1447782739119,1447782739551,388,447,0,0,0,1,4,3,5,0005-00-0001-31.png,0004-00-0000-31.png
00000014,462,0,1447782740398,1447782741003,928,469,0,0,0,3,4,1,7,0002-00-0000-58.png,0004-00-0001-61.png
00000014,463,1,1447782744108,1447782744681,376,410,0,0,0,1,2,1,3,0005-00-0000-08.png,0003-00-0000-36.png
00000014,464,0,1447782745689,1447782746146,404,455,0,0,0,4,1,3,5,0004-00-0000-78.png,0005-00-0001-66.png
00000014,465,1,1447782749005,1447782749444,391,376,0,0,0,0,4,4,4,0001-00-0000-68.png,0004-00-0000-73.png
00000014,466,0,1447782750600,1447782751114,466,502,0,0,0,3,0,3,3,0002-00-0001-44.png,0001-00-0000-22.png
00000014,467,1,1447782754187,1447782754650,931,474,0,0,0,1,0,1,1,0005-00-0000-55.png,0001-00-0001-57.png
00000014,468,0,1447782755936,1447782756514,922,445,0,0,0,2,3,1,5,0003-00-0000-25.png,0002-00-0000-42.png
00000014,469,0,1447782760101,1447782760682,982,403,0,0,0,2,4,2,6,0003-00-0000-30.png,0004-00-0001-27.png
00000014,470,1,1447782763740,1447782764254,962,472,0,0,0,4,3,1,7,0004-00-0001-74.png,0002-00-0000-27.png
00000014,471,1,1447782765417,1447782765840,376,425,0,0,0,0,2,2,2,0001-00-0000-09.png,0003-00-0000-47.png
00000014,472,0,1447782766759,1447782767214,443,454,0,0,0,4,2,2,6,0004-00-0001-16.png,0003-00-0000-66.png
00000014,473,1,1447782770469,1447782771088,899,439,0,0,0,2,1,1,3,0003-00-0001-38.png,0005-00-0001-82.png
00000014,474,1,1447782772294,1447782772739,429,466,0,0,0,0,3,3,3,0001-00-0000-50.png,0002-00-0000-33.png
00000014,475,1,1447782773612,1447782774162,928,468,0,0,0,4,0,4,4,0004-00-0001-02.png,0001-00-0000-37.png
00000014,476,0,1447782775096,1447782775547,466,490,0,0,0,3,2,1,5,0002-00-0000-08.png,0003-00-0000-00.png
00000014,477,1,1447782778925,1447782779427,402,329,0,0,0,1,3,2,4,0005-00-0001-18.png,0002-00-0001-40.png
00000014,478,1,1447782780514,1447782781012,926,475,0,0,0,3,1,2,4,0002-00-0000-68.png,0005-00-0001-30.png
00000014,479,1,1447782781896,1447782782501,876,547,0,0,0,2,0,2,2,0003-00-0001-83.png,0001-00-0000-59.png
00000014,480,1,1447782783456,1447782783903,407,564,0,0,0,0,1,1,1,0001-00-0001-48.png,0005-00-0001-92.png
00000014,481,0,1447782784902,1447782785495,862,371,0,0,0,2,4,2,6,0003-00-0001-24.png,0004-00-0001-75.png
00000014,482,1,1447782788657,1447782789194,976,448,0,0,0,3,0,3,3,0002-00-0001-67.png,0001-00-0000-91.png
00000014,483,1,1447782790369,1447782790819,418,559,0,0,0,3,4,1,7,0002-00-0000-15.png,0004-00-0000-64.png
00000014,484,1,1447782791683,1447782792323,944,442,0,0,0,1,0,1,1,0005-00-0000-48.png,0001-00-0001-87.png
00000014,485,1,1447782793187,1447782793792,869,473,0,0,0,2,1,1,3,0003-00-0001-51.png,0005-00-0001-43.png
00000014,486,1,1447782794698,1447782795254,907,474,0,0,0,2,0,2,2,0003-00-0000-70.png,0001-00-0000-95.png
00000014,487,0,1447782796128,1447782796661,447,446,0,0,0,4,3,1,7,0004-00-0000-71.png,0002-00-0000-10.png
00000014,488,0,1447782799806,1447782800300,901,555,0,0,0,2,3,1,5,0003-00-0000-70.png,0002-00-0001-42.png
00000014,489,0,1447782803555,1447782804006,363,396,0,0,0,4,2,2,6,0004-00-0000-63.png,0003-00-0001-40.png
00000014,490,1,1447782807041,1447782807587,911,472,0,0,0,3,1,2,4,0002-00-0001-77.png,0005-00-0001-65.png
00000014,491,1,1447782808632,1447782809048,350,450,0,0,0,0,3,3,3,0001-00-0000-62.png,0002-00-0001-36.png
00000014,492,0,1447782809911,1447782810530,415,415,0,0,0,3,2,1,5,0002-00-0001-74.png,0003-00-0001-78.png
00000014,493,1,1447782813643,1447782814115,911,508,0,0,0,4,0,4,4,0004-00-0000-73.png,0001-00-0001-93.png
00000014,494,1,1447782815381,1447782815829,368,400,0,0,0,0,2,2,2,0001-00-0001-26.png,0003-00-0001-54.png
00000014,495,1,1447782816761,1447782817306,394,433,0,0,0,1,3,2,4,0005-00-0000-23.png,0002-00-0001-05.png
00000014,496,1,1447782818172,1447782818579,396,557,0,0,0,0,4,4,4,0001-00-0000-00.png,0004-00-0001-59.png
00000014,497,1,1447782819546,1447782819950,394,468,0,0,0,0,1,1,1,0001-00-0000-87.png,0005-00-0001-69.png
00000014,498,1,1447782820883,1447782821304,417,473,0,0,0,1,4,3,5,0005-00-0000-78.png,0004-00-0001-81.png
00000014,499,0,1447782822226,1447782822927,925,449,0,0,0,1,2,1,3,0005-00-0000-96.png,0003-00-0001-15.png
00000014,500,1,1447782826124,1447782826526,976,448,0,0,0,4,1,3,5,0004-00-0000-71.png,0005-00-0000-12.png
00000014,501,1,1447782827533,1447782828003,918,564,0,0,0,3,0,3,3,0002-00-0001-42.png,0001-00-0000-76.png
00000014,502,0,1447782829344,1447782829907,950,482,0,0,0,3,4,1,7,0002-00-0000-13.png,0004-00-0001-06.png
00000014,503,1,1447782833100,1447782833540,363,369,0,0,0,1,3,2,4,0005-00-0001-55.png,0002-00-0001-98.png
00000014,504,0,1447782834540,1447782835154,965,475,0,0,0,2,4,2,6,0003-00-0000-97.png,0004-00-0001-90.png
00000014,505,1,1447782838028,1447782838475,895,498,0,0,0,2,0,2,2,0003-00-0000-95.png,0001-00-0000-22.png
00000014,506,0,1447782839502,1447782839886,403,435,0,0,0,3,2,1,5,0002-00-0000-27.png,0003-00-0001-26.png
00000014,507,0,1447782842743,1447782843309,389,324,0,0,0,1,0,1,1,0005-00-0001-77.png,0001-00-0001-61.png
00000014,508,0,1447782847205,1447782847668,377,396,0,0,0,4,2,2,6,0004-00-0000-47.png,0003-00-0001-23.png
00000014,509,1,1447782850792,1447782851249,922,480,0,0,0,2,1,1,3,0003-00-0001-29.png,0005-00-0001-60.png
00000014,510,0,1447782852262,1447782852932,873,408,0,0,0,0,1,1,1,0001-00-0000-90.png,0005-00-0001-70.png
00000014,511,1,1447782856367,1447782856846,918,478,0,0,0,3,1,2,4,0002-00-0000-82.png,0005-00-0001-11.png
00000014,512,1,1447782857998,1447782858389,367,461,0,0,0,0,4,4,4,0001-00-0001-29.png,0004-00-0001-82.png
00000014,513,1,1447782859339,1447782859823,928,469,0,0,0,4,3,1,7,0004-00-0000-77.png,0002-00-0000-40.png
00000014,514,1,1447782860901,1447782861282,427,471,0,0,0,1,4,3,5,0005-00-0000-30.png,0004-00-0001-72.png
00000014,515,0,1447782862251,1447782862792,888,559,0,0,0,0,3,3,3,0001-00-0000-95.png,0002-00-0000-84.png
00000014,516,1,1447782865982,1447782866444,972,445,0,0,0,4,0,4,4,0004-00-0000-28.png,0001-00-0000-39.png
00000014,517,1,1447782867599,1447782867998,404,439,0,0,0,1,2,1,3,0005-00-0000-59.png,0003-00-0001-82.png
00000014,518,0,1447782869041,1447782869631,859,472,0,0,0,0,2,2,2,0001-00-0001-38.png,0003-00-0000-08.png
00000014,519,0,1447782872647,1447782873092,957,452,0,0,0,2,3,1,5,0003-00-0001-74.png,0002-00-0000-64.png
00000014,520,1,1447782876813,1447782877338,995,426,0,0,0,4,1,3,5,0004-00-0000-25.png,0005-00-0000-60.png
00000014,521,1,1447782878541,1447782879133,373,404,0,0,0,1,2,1,3,0005-00-0001-65.png,0003-00-0001-44.png
00000014,522,1,1447782880111,1447782880521,376,462,0,0,0,3,4,1,7,0002-00-0001-40.png,0004-00-0001-17.png
00000014,523,0,1447782881512,1447782882063,427,542,0,0,0,3,0,3,3,0002-00-0001-66.png,0001-00-0001-71.png
00000014,524,1,1447782885785,1447782886247,953,470,0,0,0,3,1,2,4,0002-00-0000-49.png,0005-00-0001-52.png
00000014,525,1,1447782887356,1447782887950,394,397,0,0,0,0,3,3,3,0001-00-0000-83.png,0002-00-0001-27.png
00000014,526,1,1447782888996,1447782889485,914,551,0,0,0,2,0,2,2,0003-00-0001-98.png,0001-00-0000-75.png
00000014,527,1,1447782890393,1447782891002,914,475,0,0,0,1,0,1,1,0005-00-0001-59.png,0001-00-0001-15.png
00000014,528,1,1447782891968,1447782892918,353,411,0,0,0,0,4,4,4,0001-00-0000-77.png,0004-00-0000-36.png
00000014,529,1,1447782893954,1447782894530,928,476,0,0,0,4,0,4,4,0004-00-0001-63.png,0001-00-0000-47.png
00000014,530,1,1447782895434,1447782895814,393,469,0,0,0,1,4,3,5,0005-00-0001-27.png,0004-00-0001-29.png
00000014,531,1,1447782896923,1447782897360,365,477,0,0,0,0,1,1,1,0001-00-0000-25.png,0005-00-0001-53.png
00000014,532,1,1447782898265,1447782898795,381,447,0,0,0,2,4,2,6,0003-00-0000-24.png,0004-00-0000-91.png
00000014,533,1,1447782899787,1447782900352,926,475,0,0,0,3,2,1,5,0002-00-0000-62.png,0003-00-0001-44.png
00000014,534,0,1447782901338,1447782901994,398,351,0,0,0,4,3,1,7,0004-00-0001-20.png,0002-00-0001-97.png
00000014,535,1,1447782905115,1447782905616,905,402,0,0,0,4,1,3,5,0004-00-0000-68.png,0005-00-0001-86.png
00000014,536,1,1447782906645,1447782907093,408,483,0,0,0,0,2,2,2,0001-00-0000-77.png,0003-00-0000-70.png
00000014,537,1,1447782908077,1447782908626,397,430,0,0,0,1,3,2,4,0005-00-0001-70.png,0002-00-0001-52.png
00000014,538,0,1447782909597,1447782910146,431,438,0,0,0,4,2,2,6,0004-00-0000-88.png,0003-00-0001-62.png
00000014,539,1,1447782913125,1447782913621,949,438,0,0,0,2,1,1,3,0003-00-0001-73.png,0005-00-0000-17.png
00000014,540,0,1447782914605,1447782915759,891,510,0,0,0,2,3,1,5,0003-00-0001-77.png,0002-00-0000-59.png
00000014,541,1,1447782919377,1447782919800,408,446,0,0,0,0,1,1,1,0001-00-0000-25.png,0005-00-0000-11.png
00000014,542,1,1447782920988,1447782921514,929,480,0,0,0,4,2,2,6,0004-00-0000-61.png,0003-00-0000-22.png
00000014,543,1,1447782922438,1447782922951,912,476,0,0,0,1,0,1,1,0005-00-0001-85.png,0001-00-0000-13.png
00000014,544,1,1447782923890,1447782924416,913,491,0,0,0,3,0,3,3,0002-00-0000-08.png,0001-00-0000-61.png
00000014,545,1,1447782925360,1447782925774,394,467,0,0,0,3,4,1,7,0002-00-0001-71.png,0004-00-0001-55.png
00000014,546,1,1447782926711,1447782927559,900,437,0,0,0,3,1,2,4,0002-00-0001-71.png,0005-00-0001-06.png
00000014,547,1,1447782928467,1447782928953,898,558,0,0,0,4,0,4,4,0004-00-0001-32.png,0001-00-0000-51.png
00000014,548,1,1447782929809,1447782930276,391,413,0,0,0,1,3,2,4,0005-00-0001-90.png,0002-00-0001-80.png
00000014,549,0,1447782931181,1447782931772,423,431,0,0,0,2,0,2,2,0003-00-0000-04.png,0001-00-0000-94.png
00000014,550,1,1447782936649,1447782937175,367,428,0,0,0,1,4,3,5,0005-00-0000-85.png,0004-00-0000-34.png
00000014,551,1,1447782938792,1447782939266,391,449,0,0,0,0,3,3,3,0001-00-0001-96.png,0002-00-0000-18.png
00000014,552,1,1447782940255,1447782940889,359,394,0,0,0,1,2,1,3,0005-00-0001-91.png,0003-00-0000-27.png
00000014,553,1,1447782942016,1447782942437,382,488,0,0,0,2,4,2,6,0003-00-0001-86.png,0004-00-0001-00.png
00000014,554,1,1447782943367,1447782943772,375,475,0,0,0,0,2,2,2,0001-00-0000-18.png,0003-00-0000-66.png
00000014,555,0,1447782944707,1447782945147,416,508,0,0,0,3,2,1,5,0002-00-0001-97.png,0003-00-0000-59.png
00000014,556,1,1447782948327,1447782948842,350,398,0,0,0,2,3,1,5,0003-00-0000-89.png,0002-00-0000-02.png
00000014,557,1,1447782950022,1447782950750,918,463,0,0,0,2,1,1,3,0003-00-0000-77.png,0005-00-0000-03.png
00000014,558,0,1447782951656,1447782952222,398,409,0,0,0,4,3,1,7,0004-00-0000-71.png,0002-00-0001-44.png
00000014,559,1,1447782955345,1447782955845,953,436,0,0,0,4,1,3,5,0004-00-0001-49.png,0005-00-0001-57.png
00000014,560,1,1447782956853,1447782957337,377,461,0,0,0,0,4,4,4,0001-00-0001-51.png,0004-00-0001-30.png
00000014,561,1,1447782958332,1447782958757,393,459,0,0,0,1,2,1,3,0005-00-0000-63.png,0003-00-0000-87.png
00000014,562,0,1447782959705,1447782960353,895,472,0,0,0,2,3,1,5,0003-00-0000-89.png,0002-00-0001-03.png
00000014,563,1,1447782963362,1447782963965,951,410,0,0,0,2,0,2,2,0003-00-0000-31.png,0001-00-0001-78.png
00000014,564,1,1447782964965,1447782965339,422,456,0,0,0,0,4,4,4,0001-00-0001-64.png,0004-00-0000-48.png
00000014,565,1,1447782966334,1447782966696,453,497,0,0,0,1,4,3,5,0005-00-0001-45.png,0004-00-0001-02.png
00000014,566,1,1447782967766,1447782968308,407,440,0,0,0,1,3,2,4,0005-00-0000-53.png,0002-00-0001-20.png
00000014,567,1,1447782969297,1447782969822,918,470,0,0,0,4,0,4,4,0004-00-0001-74.png,0001-00-0000-62.png
00000014,568,1,1447782970706,1447782971129,408,465,0,0,0,3,4,1,7,0002-00-0001-46.png,0004-00-0001-71.png
00000014,569,1,1447782972138,1447782972851,922,470,0,0,0,2,1,1,3,0003-00-0000-97.png,0005-00-0000-06.png
00000014,570,0,1447782973787,1447782974177,417,457,0,0,0,4,1,3,5,0004-00-0001-59.png,0005-00-0000-45.png
00000014,571,1,1447782978409,1447782978819,375,406,0,0,0,0,2,2,2,0001-00-0000-88.png,0003-00-0000-20.png
00000014,572,1,1447782979820,1447782980279,394,470,0,0,0,2,4,2,6,0003-00-0001-30.png,0004-00-0001-68.png
00000014,573,1,1447782981202,1447782981773,878,444,0,0,0,3,0,3,3,0002-00-0001-02.png,0001-00-0001-79.png
00000014,574,1,1447782982664,1447782983277,902,495,0,0,0,3,1,2,4,0002-00-0000-67.png,0005-00-0001-41.png
00000014,575,0,1447782984192,1447782984645,405,465,0,0,0,4,3,1,7,0004-00-0000-42.png,0002-00-0001-17.png
00000014,576,1,1447782987869,1447782988399,977,411,0,0,0,1,0,1,1,0005-00-0000-31.png,0001-00-0000-92.png
00000014,577,0,1447782989312,1447782989693,466,487,0,0,0,3,2,1,5,0002-00-0000-91.png,0003-00-0001-98.png
00000014,578,1,1447782992548,1447782993151,886,502,0,0,0,4,2,2,6,0004-00-0000-61.png,0003-00-0000-97.png
00000014,579,1,1447782994111,1447782994525,400,454,0,0,0,0,3,3,3,0001-00-0001-36.png,0002-00-0001-78.png
00000014,580,1,1447782995582,1447782995991,384,476,0,0,0,0,1,1,1,0001-00-0001-14.png,0005-00-0000-15.png
00000014,581,1,1447782996913,1447782998008,932,474,0,0,0,2,0,2,2,0003-00-0000-48.png,0001-00-0000-84.png
00000014,582,0,1447782998911,1447782999418,915,475,0,0,0,3,4,1,7,0002-00-0000-07.png,0004-00-0000-63.png
00000014,583,0,1447783002651,1447783003135,946,467,0,0,0,2,4,2,6,0003-00-0000-20.png,0004-00-0000-46.png
00000014,584,1,1447783006315,1447783006780,959,457,0,0,0,3,0,3,3,0002-00-0001-02.png,0001-00-0001-40.png
00000014,585,1,1447783007757,1447783008256,921,472,0,0,0,3,2,1,5,0002-00-0001-70.png,0003-00-0000-04.png
00000014,586,1,1447783009180,1447783009625,438,453,0,0,0,1,2,1,3,0005-00-0000-96.png,0003-00-0001-79.png
00000014,587,1,1447783010625,1447783011017,406,472,0,0,0,0,1,1,1,0001-00-0001-18.png,0005-00-0001-57.png
00000014,588,1,1447783012047,1447783012707,363,388,0,0,0,1,4,3,5,0005-00-0001-77.png,0004-00-0000-97.png
00000014,589,0,1447783013663,1447783014080,414,455,0,0,0,1,0,1,1,0005-00-0001-28.png,0001-00-0000-22.png
00000014,590,1,1447783017383,1447783017840,964,423,0,0,0,4,0,4,4,0004-00-0001-51.png,0001-00-0000-32.png
00000014,591,1,1447783018784,1447783019197,365,457,0,0,0,0,2,2,2,0001-00-0000-78.png,0003-00-0000-95.png
00000014,592,0,1447783020345,1447783021312,926,449,0,0,0,0,3,3,3,0001-00-0000-89.png,0002-00-0001-53.png
00000014,593,1,1447783024569,1447783025100,925,410,0,0,0,3,1,2,4,0002-00-0000-58.png,0005-00-0000-02.png
00000014,594,1,1447783026077,1447783026594,899,464,0,0,0,4,1,3,5,0004-00-0000-34.png,0005-00-0000-05.png
00000014,595,0,1447783027609,1447783028145,924,485,0,0,0,2,3,1,5,0003-00-0000-70.png,0002-00-0000-84.png
00000014,596,1,1447783031147,1447783031573,935,447,0,0,0,2,1,1,3,0003-00-0001-43.png,0005-00-0000-81.png
00000014,597,1,1447783032538,1447783033208,900,450,0,0,0,4,2,2,6,0004-00-0000-11.png,0003-00-0001-36.png
00000014,598,0,1447783034099,1447783034616,421,415,0,0,0,4,3,1,7,0004-00-0001-79.png,0002-00-0000-63.png
00000014,599,1,1447783038298,1447783038824,379,416,0,0,0,1,3,2,4,0005-00-0001-28.png,0002-00-0000-09.png
00000014,600,1,1447783039912,1447783040293,386,460,0,0,0,0,4,4,4,0001-00-0000-56.png,0004-00-0000-93.png
00000014,601,1,1447783041244,1447783041789,389,467,0,0,0,1,3,2,4,0005-00-0001-65.png,0002-00-0001-50.png
00000014,602,1,1447783042825,1447783043435,924,438,0,0,0,2,1,1,3,0003-00-0001-86.png,0005-00-0001-82.png
00000014,603,1,1447783044324,1447783044725,453,476,0,0,0,1,4,3,5,0005-00-0001-32.png,0004-00-0001-12.png
00000014,604,1,1447783046591,1447783047010,397,432,0,0,0,0,3,3,3,0001-00-0000-73.png,0002-00-0000-60.png
00000014,605,1,1447783047990,1447783048514,952,501,0,0,0,4,0,4,4,0004-00-0001-05.png,0001-00-0001-63.png
00000014,606,0,1447783049443,1447783049845,401,488,0,0,0,4,3,1,7,0004-00-0001-88.png,0002-00-0000-64.png
00000014,607,0,1447783053093,1447783053613,880,527,0,0,0,1,2,1,3,0005-00-0000-91.png,0003-00-0001-12.png
00000014,608,1,1447783057945,1447783058393,394,559,0,0,0,0,4,4,4,0001-00-0001-86.png,0004-00-0000-87.png
00000014,609,0,1447783059630,1447783060053,376,476,0,0,0,3,2,1,5,0002-00-0001-98.png,0003-00-0000-80.png
00000014,610,0,1447783063068,1447783063525,975,403,0,0,0,3,4,1,7,0002-00-0000-26.png,0004-00-0001-84.png
00000014,611,0,1447783066687,1447783067181,958,421,0,0,0,2,3,1,5,0003-00-0000-68.png,0002-00-0001-06.png
00000014,612,1,1447783070363,1447783070837,389,424,0,0,0,0,1,1,1,0001-00-0000-19.png,0005-00-0000-24.png
00000014,613,1,1447783071755,1447783072326,868,555,0,0,0,4,1,3,5,0004-00-0001-33.png,0005-00-0000-14.png
00000014,614,0,1447783073245,1447783074225,401,517,0,0,0,1,0,1,1,0005-00-0001-95.png,0001-00-0001-50.png
00000014,615,1,1447783077349,1447783077788,350,387,0,0,0,0,2,2,2,0001-00-0000-45.png,0003-00-0001-90.png
00000014,616,0,1447783078692,1447783079175,406,435,0,0,0,4,2,2,6,0004-00-0000-09.png,0003-00-0001-01.png
00000014,617,1,1447783083003,1447783083458,957,447,0,0,0,2,0,2,2,0003-00-0000-29.png,0001-00-0000-51.png
00000014,618,1,1447783084729,1447783085386,397,445,0,0,0,2,4,2,6,0003-00-0001-81.png,0004-00-0000-53.png
00000014,619,1,1447783086634,1447783087108,919,560,0,0,0,3,0,3,3,0002-00-0000-63.png,0001-00-0001-21.png
00000014,620,0,1447783087969,1447783088515,410,469,0,0,0,3,1,2,4,0002-00-0001-13.png,0005-00-0000-01.png
00000014,621,1,1447783091852,1447783092312,393,401,0,0,0,0,2,2,2,0001-00-0000-59.png,0003-00-0001-86.png
00000014,622,1,1447783093349,1447783093740,425,558,0,0,0,1,2,1,3,0005-00-0000-55.png,0003-00-0000-24.png
00000014,623,1,1447783094759,1447783095364,893,540,0,0,0,4,0,4,4,0004-00-0001-04.png,0001-00-0001-10.png
00000014,624,1,1447783096273,1447783096822,874,475,0,0,0,2,1,1,3,0003-00-0000-93.png,0005-00-0000-95.png
00000014,625,0,1447783097761,1447783098463,415,378,0,0,0,3,0,3,3,0002-00-0000-98.png,0001-00-0001-09.png
00000014,626,1,1447783101634,1447783102079,958,455,0,0,0,2,0,2,2,0003-00-0001-57.png,0001-00-0000-10.png
00000014,627,0,1447783103245,1447783103637,408,462,0,0,0,3,2,1,5,0002-00-0000-37.png,0003-00-0000-63.png
00000014,628,0,1447783106943,1447783107401,423,419,0,0,0,4,2,2,6,0004-00-0001-37.png,0003-00-0000-70.png
00000014,629,0,1447783110509,1447783110966,970,415,0,0,0,3,4,1,7,0002-00-0001-92.png,0004-00-0001-57.png
00000014,630,1,1447783114594,1447783115056,401,436,0,0,0,0,3,3,3,0001-00-0001-05.png,0002-00-0000-74.png
00000014,631,1,1447783116078,1447783116533,372,471,0,0,0,1,3,2,4,0005-00-0001-83.png,0002-00-0000-25.png
00000014,632,1,1447783117456,1447783117857,361,448,0,0,0,0,1,1,1,0001-00-0000-15.png,0005-00-0000-47.png
00000014,633,0,1447783118884,1447783119704,916,452,0,0,0,2,4,2,6,0003-00-0000-09.png,0004-00-0001-37.png
00000014,634,0,1447783122794,1447783123197,424,402,0,0,0,4,3,1,7,0004-00-0000-63.png,0002-00-0001-05.png
00000014,635,1,1447783126559,1447783127100,919,405,0,0,0,1,0,1,1,0005-00-0001-26.png,0001-00-0001-68.png
00000014,636,1,1447783128171,1447783128650,427,451,0,0,0,0,4,4,4,0001-00-0000-09.png,0004-00-0000-37.png
00000014,637,1,1447783129735,1447783130419,928,468,0,0,0,3,1,2,4,0002-00-0000-16.png,0005-00-0000-46.png
00000014,638,0,1447783131312,1447783131868,899,463,0,0,0,2,3,1,5,0003-00-0000-73.png,0002-00-0001-10.png
00000014,639,0,1447783136587,1447783137022,977,423,0,0,0,1,4,3,5,0005-00-0000-35.png,0004-00-0001-81.png
00000014,640,0,1447783140551,1447783141038,331,368,0,0,0,4,1,3,5,0004-00-0001-73.png,0005-00-0000-36.png
00000014,641,1,1447783144301,1447783144754,953,441,0,0,0,3,0,3,3,0002-00-0000-64.png,0001-00-0000-69.png
00000014,642,1,1447783145740,1447783146356,952,462,0,0,0,1,0,1,1,0005-00-0001-39.png,0001-00-0001-54.png
00000014,643,0,1447783147525,1447783147979,951,475,0,0,0,1,4,3,5,0005-00-0001-78.png,0004-00-0000-63.png
00000014,644,1,1447783151035,1447783151494,964,423,0,0,0,3,2,1,5,0002-00-0001-07.png,0003-00-0000-05.png
00000014,645,1,1447783152497,1447783152908,331,419,0,0,0,0,4,4,4,0001-00-0001-34.png,0004-00-0001-16.png
00000014,646,1,1447783153817,1447783154353,409,450,0,0,0,1,2,1,3,0005-00-0000-29.png,0003-00-0000-56.png
00000014,647,1,1447783155269,1447783155644,410,452,0,0,0,0,2,2,2,0001-00-0001-73.png,0003-00-0000-87.png
00000014,648,1,1447783156681,1447783157147,398,455,0,0,0,1,3,2,4,0005-00-0001-82.png,0002-00-0001-67.png
00000014,649,1,1447783158052,1447783158663,899,456,0,0,0,3,1,2,4,0002-00-0001-69.png,0005-00-0000-04.png
00000014,650,1,1447783159669,1447783160224,926,455,0,0,0,2,0,2,2,0003-00-0001-17.png,0001-00-0000-90.png
00000014,651,0,1447783161180,1447783161566,391,452,0,0,0,4,3,1,7,0004-00-0001-08.png,0002-00-0000-66.png
00000014,652,1,1447783164654,1447783165104,420,418,0,0,0,0,1,1,1,0001-00-0000-35.png,0005-00-0000-98.png
00000014,653,1,1447783166030,1447783166445,453,556,0,0,0,0,3,3,3,0001-00-0001-00.png,0002-00-0000-27.png
00000014,654,1,1447783167465,1447783167952,927,477,0,0,0,4,1,3,5,0004-00-0001-59.png,0005-00-0000-60.png
00000014,655,0,1447783169059,1447783169441,423,471,0,0,0,4,2,2,6,0004-00-0001-99.png,0003-00-0001-78.png
00000014,656,0,1447783172593,1447783173056,953,461,0,0,0,2,3,1,5,0003-00-0000-48.png,0002-00-0001-67.png
00000014,657,0,1447783176575,1447783177032,959,448,0,0,0,3,4,1,7,0002-00-0000-09.png,0004-00-0000-15.png
00000014,658,1,1447783179967,1447783180370,973,419,0,0,0,2,1,1,3,0003-00-0000-25.png,0005-00-0001-28.png
00000014,659,0,1447783181369,1447783181905,888,475,0,0,0,2,4,2,6,0003-00-0001-06.png,0004-00-0000-48.png
00000014,660,1,1447783184936,1447783185564,947,420,0,0,0,4,0,4,4,0004-00-0001-18.png,0001-00-0000-06.png
00000014,661,1,1447783186576,1447783187067,921,472,0,0,0,3,0,3,3,0002-00-0000-94.png,0001-00-0001-14.png
00000014,662,1,1447783188027,1447783188705,445,390,0,0,0,3,4,1,7,0002-00-0000-20.png,0004-00-0000-99.png
00000014,663,1,1447783189747,1447783190194,376,462,0,0,0,0,3,3,3,0001-00-0001-49.png,0002-00-0000-49.png
00000014,664,1,1447783191190,1447783191693,886,476,0,0,0,2,1,1,3,0003-00-0000-60.png,0005-00-0001-95.png
00000014,665,1,1447783192697,1447783193130,413,488,0,0,0,2,3,1,5,0003-00-0001-55.png,0002-00-0001-05.png
00000014,666,1,1447783194109,1447783194582,417,457,0,0,0,0,2,2,2,0001-00-0000-65.png,0003-00-0000-96.png
00000014,667,1,1447783195539,1447783196065,894,482,0,0,0,4,0,4,4,0004-00-0000-83.png,0001-00-0001-42.png
00000014,668,0,1447783197180,1447783197603,470,480,0,0,0,4,2,2,6,0004-00-0000-04.png,0003-00-0000-01.png
00000014,669,1,1447783200565,1447783201142,375,403,0,0,0,0,4,4,4,0001-00-0001-56.png,0004-00-0001-79.png
00000014,670,1,1447783202077,1447783202519,384,464,0,0,0,1,2,1,3,0005-00-0001-27.png,0003-00-0001-12.png
00000014,671,0,1447783203483,1447783204248,862,410,0,0,0,2,4,2,6,0003-00-0000-21.png,0004-00-0001-58.png
00000014,672,0,1447783207568,1447783208148,332,427,0,0,0,4,1,3,5,0004-00-0001-03.png,0005-00-0001-17.png
00000014,673,1,1447783211203,1447783211732,990,422,0,0,0,2,0,2,2,0003-00-0000-09.png,0001-00-0001-69.png
00000014,674,1,1447783212828,1447783213243,422,445,0,0,0,0,1,1,1,0001-00-0001-66.png,0005-00-0000-30.png
00000014,675,1,1447783214601,1447783215088,884,561,0,0,0,3,1,2,4,0002-00-0001-71.png,0005-00-0000-27.png
00000014,676,1,1447783216003,1447783216501,900,475,0,0,0,1,0,1,1,0005-00-0001-85.png,0001-00-0001-22.png
00000014,677,1,1447783217534,1447783217904,422,463,0,0,0,1,4,3,5,0005-00-0000-88.png,0004-00-0001-38.png
00000014,678,1,1447783218962,1447783219550,899,438,0,0,0,4,3,1,7,0004-00-0000-44.png,0002-00-0000-45.png
00000014,679,0,1447783220507,1447783221030,901,475,0,0,0,1,3,2,4,0005-00-0000-46.png,0002-00-0000-98.png
00000014,680,0,1447783224170,1447783224638,421,440,0,0,0,3,2,1,5,0002-00-0001-73.png,0003-00-0001-37.png
00000014,681,1,1447783227821,1447783228421,392,402,0,0,0,0,1,1,1,0001-00-0001-24.png,0005-00-0001-76.png
00000014,682,0,1447783229429,1447783229906,424,460,0,0,0,3,0,3,3,0002-00-0000-32.png,0001-00-0000-56.png
00000014,683,0,1447783233159,1447783233780,979,416,0,0,0,1,4,3,5,0005-00-0000-56.png,0004-00-0001-95.png
00000014,684,0,1447783237421,1447783237895,401,412,0,0,0,1,0,1,1,0005-00-0000-68.png,0001-00-0001-50.png
00000014,685,1,1447783242469,1447783242956,410,362,0,0,0,1,3,2,4,0005-00-0000-65.png,0002-00-0001-71.png
00000014,686,0,1447783244110,1447783244659,966,501,0,0,0,2,4,2,6,0003-00-0001-14.png,0004-00-0001-34.png
00000014,687,1,1447783247858,1447783248283,951,385,0,0,0,4,1,3,5,0004-00-0001-26.png,0005-00-0000-85.png
00000014,688,0,1447783249460,1447783249950,924,456,0,0,0,3,4,1,7,0002-00-0000-36.png,0004-00-0000-89.png
00000014,689,1,1447783252855,1447783253389,928,443,0,0,0,4,3,1,7,0004-00-0000-41.png,0002-00-0000-34.png
00000014,690,0,1447783254426,1447783254889,453,514,0,0,0,3,1,2,4,0002-00-0001-92.png,0005-00-0000-67.png
00000014,691,0,1447783258383,1447783258862,939,425,0,0,0,1,2,1,3,0005-00-0000-66.png,0003-00-0001-60.png
00000014,692,1,1447783261821,1447783262246,357,373,0,0,0,0,3,3,3,0001-00-0001-45.png,0002-00-0000-76.png
00000014,693,1,1447783263182,1447783263690,946,471,0,0,0,2,0,2,2,0003-00-0001-40.png,0001-00-0001-65.png
00000014,694,0,1447783264654,1447783265195,863,564,0,0,0,2,3,1,5,0003-00-0001-22.png,0002-00-0000-68.png
00000014,695,0,1447783268788,1447783269310,954,440,0,0,0,0,4,4,4,0001-00-0000-52.png,0004-00-0000-38.png
00000014,696,1,1447783272405,1447783272998,404,401,0,0,0,0,2,2,2,0001-00-0001-52.png,0003-00-0000-37.png
00000014,697,1,1447783274031,1447783274548,862,462,0,0,0,4,2,2,6,0004-00-0001-08.png,0003-00-0000-18.png
00000014,698,0,1447783275494,1447783275904,409,445,0,0,0,3,2,1,5,0002-00-0001-45.png,0003-00-0001-25.png
00000014,699,1,1447783278974,1447783279471,977,371,0,0,0,2,1,1,3,0003-00-0000-63.png,0005-00-0001-63.png
00000014,700,1,1447783280476,1447783280991,921,497,0,0,0,4,0,4,4,0004-00-0000-70.png,0001-00-0001-20.png
00000014,701,1,1447783281876,1447783282405,875,435,0,0,0,3,0,3,3,0002-00-0001-06.png,0001-00-0001-58.png
00000014,702,1,1447783283357,1447783283948,905,427,0,0,0,4,2,2,6,0004-00-0001-83.png,0003-00-0000-35.png
00000014,703,0,1447783284807,1447783285290,439,461,0,0,0,1,0,1,1,0005-00-0000-77.png,0001-00-0001-82.png
00000014,704,1,1447783288416,1447783288880,415,417,0,0,0,0,4,4,4,0001-00-0000-86.png,0004-00-0000-60.png
00000014,705,1,1447783290434,1447783290921,394,440,0,0,0,1,4,3,5,0005-00-0000-19.png,0004-00-0000-20.png
00000014,706,0,1447783291803,1447783292412,914,449,0,0,0,0,3,3,3,0001-00-0000-92.png,0002-00-0000-67.png
00000014,707,1,1447783295562,1447783296036,949,456,0,0,0,2,1,1,3,0003-00-0000-62.png,0005-00-0001-13.png
00000014,708,0,1447783297004,1447783297529,392,444,0,0,0,3,1,2,4,0002-00-0000-85.png,0005-00-0000-01.png
00000014,709,0,1447783300781,1447783301251,940,449,0,0,0,0,1,1,1,0001-00-0000-63.png,0005-00-0001-18.png
00000014,710,1,1447783304720,1447783305607,376,398,0,0,0,1,2,1,3,0005-00-0001-13.png,0003-00-0000-46.png
00000014,711,1,1447783306676,1447783307235,924,481,0,0,0,4,1,3,5,0004-00-0000-03.png,0005-00-0001-79.png
00000014,712,1,1447783308100,1447783308660,899,482,0,0,0,4,3,1,7,0004-00-0000-29.png,0002-00-0001-76.png
00000014,713,1,1447783309643,1447783310132,899,437,0,0,0,2,0,2,2,0003-00-0001-71.png,0001-00-0001-10.png
00000014,714,1,1447783311068,1447783311642,408,414,0,0,0,1,3,2,4,0005-00-0000-27.png,0002-00-0000-25.png
00000014,715,1,1447783312667,1447783313062,397,461,0,0,0,0,2,2,2,0001-00-0001-71.png,0003-00-0001-20.png
00000014,716,1,1447783313998,1447783314567,925,464,0,0,0,4,0,4,4,0004-00-0001-99.png,0001-00-0000-81.png
00000014,717,1,1447783315569,1447783315973,412,475,0,0,0,3,4,1,7,0002-00-0001-47.png,0004-00-0000-11.png
00000014,718,0,1447783316929,1447783317530,901,449,0,0,0,2,3,1,5,0003-00-0001-83.png,0002-00-0001-02.png
00000014,719,0,1447783320658,1447783321172,401,426,0,0,0,3,2,1,5,0002-00-0001-46.png,0003-00-0001-92.png
00000014,720,0,1447783325704,1447783326153,874,527,0,0,0,2,4,2,6,0003-00-0001-62.png,0004-00-0000-49.png
00000014,721,0,1447783329214,1447783329773,376,384,0,0,0,1,0,1,1,0005-00-0000-51.png,0001-00-0000-90.png
00000014,722,1,1447783332598,1447783333073,441,449,0,0,0,0,1,1,1,0001-00-0001-84.png,0005-00-0001-32.png
00000014,723,1,1447783334028,1447783334486,358,454,0,0,0,1,4,3,5,0005-00-0000-93.png,0004-00-0001-72.png
00000014,724,1,1447783335342,1447783336151,925,449,0,0,0,3,1,2,4,0002-00-0000-59.png,0005-00-0001-58.png
00000014,725,0,1447783337022,1447783337533,401,434,0,0,0,2,1,1,3,0003-00-0000-36.png,0005-00-0001-23.png
00000014,726,1,1447783341203,1447783341794,974,431,0,0,0,4,0,4,4,0004-00-0001-07.png,0001-00-0000-03.png
00000014,727,1,1447783342820,1447783343242,415,477,0,0,0,0,3,3,3,0001-00-0001-23.png,0002-00-0001-20.png
00000014,728,1,1447783344230,1447783344739,911,462,0,0,0,3,2,1,5,0002-00-0000-68.png,0003-00-0001-15.png
00000014,729,0,1447783345702,1447783346272,390,424,0,0,0,4,2,2,6,0004-00-0000-82.png,0003-00-0001-76.png
00000014,730,1,1447783349296,1447783349796,900,502,0,0,0,3,0,3,3,0002-00-0001-25.png,0001-00-0000-27.png
00000014,731,1,1447783350729,1447783351210,423,446,0,0,0,3,4,1,7,0002-00-0000-30.png,0004-00-0000-12.png
00000014,732,1,1447783352139,1447783352523,413,461,0,0,0,0,4,4,4,0001-00-0000-72.png,0004-00-0001-45.png
00000014,733,0,1447783353452,1447783354047,900,489,0,0,0,2,3,1,5,0003-00-0000-82.png,0002-00-0000-60.png
00000014,734,0,1447783357147,1447783357582,925,449,0,0,0,0,2,2,2,0001-00-0000-95.png,0003-00-0001-13.png
00000014,735,1,1447783360569,1447783361023,376,413,0,0,0,1,2,1,3,0005-00-0000-35.png,0003-00-0001-18.png
00000014,736,0,1447783361989,1447783362434,411,464,0,0,0,2,0,2,2,0003-00-0001-95.png,0001-00-0000-03.png
00000014,737,0,1447783365272,1447783365735,918,511,0,0,0,1,3,2,4,0005-00-0000-16.png,0002-00-0000-44.png
00000014,738,0,1447783369069,1447783369538,919,415,0,0,0,2,4,2,6,0003-00-0001-04.png,0004-00-0001-41.png
00000014,739,1,1447783373469,1447783373943,1015,372,0,0,0,4,3,1,7,0004-00-0001-83.png,0002-00-0001-44.png
00000014,740,1,1447783375059,1447783375613,916,453,0,0,0,4,1,3,5,0004-00-0000-54.png,0005-00-0001-92.png
00000014,741,0,1447783376811,1447783377293,896,471,0,0,0,1,4,3,5,0005-00-0000-80.png,0004-00-0000-90.png
00000014,742,1,1447783380384,1447783380878,441,424,0,0,0,0,1,1,1,0001-00-0001-74.png,0005-00-0001-02.png
00000014,743,1,1447783381895,1447783382412,951,465,0,0,0,1,0,1,1,0005-00-0001-49.png,0001-00-0001-52.png
00000014,744,1,1447783383316,1447783383858,951,489,0,0,0,4,0,4,4,0004-00-0000-33.png,0001-00-0001-44.png
00000014,745,1,1447783384836,1447783385420,875,546,0,0,0,4,2,2,6,0004-00-0000-03.png,0003-00-0000-21.png
00000014,746,1,1447783386378,1447783386967,925,474,0,0,0,2,1,1,3,0003-00-0000-75.png,0005-00-0000-09.png
00000014,747,0,1447783387908,1447783388579,909,447,0,0,0,2,3,1,5,0003-00-0000-99.png,0002-00-0000-33.png
00000014,748,0,1447783391505,1447783392008,952,423,0,0,0,3,4,1,7,0002-00-0001-81.png,0004-00-0000-19.png
00000014,749,0,1447783395214,1447783395665,441,491,0,0,0,4,1,3,5,0004-00-0001-61.png,0005-00-0000-57.png
00000014,750,0,1447783398938,1447783399370,904,361,0,0,0,2,4,2,6,0003-00-0000-87.png,0004-00-0001-27.png
00000014,751,1,1447783405847,1447783407542,338,361,0,0,0,0,3,3,3,0001-00-0000-07.png,0002-00-0000-78.png
00000014,752,1,1447783409118,1447783409581,952,489,0,0,0,3,0,3,3,0002-00-0000-10.png,0001-00-0001-26.png
00000014,753,0,1447783410574,1447783411156,945,471,0,0,0,1,3,2,4,0005-00-0001-86.png,0002-00-0001-67.png
00000014,754,0,1447783414455,1447783414889,925,514,0,0,0,0,4,4,4,0001-00-0000-36.png,0004-00-0001-19.png
00000014,755,1,1447783418090,1447783418538,902,385,0,0,0,4,3,1,7,0004-00-0001-96.png,0002-00-0001-94.png
00000014,756,1,1447783419684,1447783420126,363,449,0,0,0,1,2,1,3,0005-00-0000-50.png,0003-00-0000-35.png
00000014,757,1,1447783421144,1447783421548,405,462,0,0,0,0,2,2,2,0001-00-0000-24.png,0003-00-0000-73.png
00000014,758,0,1447783422404,1447783422855,369,470,0,0,0,3,2,1,5,0002-00-0001-15.png,0003-00-0001-62.png
00000014,759,1,1447783425978,1447783426395,921,524,0,0,0,2,0,2,2,0003-00-0001-65.png,0001-00-0000-55.png
00000014,760,1,1447783427525,1447783428077,901,462,0,0,0,3,1,2,4,0002-00-0001-60.png,0005-00-0000-77.png
00000014,761,1,1447783428954,1447783429369,402,465,0,0,0,3,4,1,7,0002-00-0001-97.png,0004-00-0001-82.png
00000014,762,0,1447783430234,1447783430866,920,460,0,0,0,1,3,2,4,0005-00-0001-97.png,0002-00-0001-21.png
00000014,763,1,1447783434860,1447783435358,391,408,0,0,0,1,4,3,5,0005-00-0001-17.png,0004-00-0000-11.png
00000014,764,1,1447783436520,1447783437032,902,459,0,0,0,3,0,3,3,0002-00-0001-56.png,0001-00-0001-69.png
00000014,765,1,1447783437929,1447783438417,410,427,0,0,0,1,2,1,3,0005-00-0001-72.png,0003-00-0000-37.png
00000014,766,0,1447783439296,1447783439715,405,478,0,0,0,3,2,1,5,0002-00-0001-02.png,0003-00-0001-56.png
00000014,767,0,1447783442820,1447783443281,972,445,0,0,0,2,4,2,6,0003-00-0000-87.png,0004-00-0001-69.png
00000014,768,1,1447783446399,1447783446940,913,514,0,0,0,4,1,3,5,0004-00-0001-07.png,0005-00-0000-90.png
00000014,769,0,1447783448038,1447783448543,927,493,0,0,0,0,4,4,4,0001-00-0001-64.png,0004-00-0000-63.png
00000014,770,1,1447783452070,1447783452699,978,390,0,0,0,4,2,2,6,0004-00-0000-41.png,0003-00-0000-46.png
00000014,771,1,1447783453871,1447783454258,396,474,0,0,0,0,2,2,2,0001-00-0001-78.png,0003-00-0000-47.png
00000014,772,1,1447783455255,1447783455695,924,483,0,0,0,3,1,2,4,0002-00-0001-75.png,0005-00-0001-07.png
00000014,773,1,1447783456700,1447783457319,926,449,0,0,0,1,0,1,1,0005-00-0001-13.png,0001-00-0001-69.png
00000014,774,1,1447783458182,1447783458585,350,452,0,0,0,0,3,3,3,0001-00-0000-60.png,0002-00-0001-01.png
00000014,775,1,1447783459966,1447783460370,427,450,0,0,0,0,1,1,1,0001-00-0001-55.png,0005-00-0000-33.png
00000014,776,1,1447783461318,1447783461870,922,446,0,0,0,4,0,4,4,0004-00-0001-59.png,0001-00-0001-34.png
00000014,777,1,1447783462747,1447783463181,435,497,0,0,0,2,3,1,5,0003-00-0001-66.png,0002-00-0001-20.png
00000014,778,1,1447783464109,1447783464913,897,462,0,0,0,2,1,1,3,0003-00-0001-63.png,0005-00-0000-94.png
00000014,779,0,1447783465847,1447783466289,426,494,0,0,0,4,3,1,7,0004-00-0001-87.png,0002-00-0000-78.png
00000014,780,1,1447783469198,1447783469776,949,406,0,0,0,2,0,2,2,0003-00-0000-79.png,0001-00-0000-37.png
00000014,781,0,1447783470753,1447783471154,427,476,0,0,0,3,1,2,4,0002-00-0001-62.png,0005-00-0000-04.png
00000014,782,1,1447783474322,1447783474782,397,428,0,0,0,0,2,2,2,0001-00-0001-58.png,0003-00-0000-33.png
00000014,783,1,1447783475788,1447783476288,373,465,0,0,0,1,4,3,5,0005-00-0000-11.png,0004-00-0000-71.png
00000014,784,1,1447783477228,1447783477631,393,471,0,0,0,0,4,4,4,0001-00-0001-01.png,0004-00-0000-95.png
00000014,785,1,1447783478558,1447783478966,397,458,0,0,0,1,2,1,3,0005-00-0000-59.png,0003-00-0001-97.png
00000014,786,1,1447783479909,1447783480344,350,474,0,0,0,0,1,1,1,0001-00-0000-21.png,0005-00-0000-77.png
00000014,787,0,1447783481817,1447783482296,434,442,0,0,0,3,2,1,5,0002-00-0000-56.png,0003-00-0001-63.png
00000014,788,1,1447783485446,1447783485878,895,498,0,0,0,4,0,4,4,0004-00-0001-93.png,0001-00-0000-40.png
00000014,789,0,1447783486880,1447783487670,913,424,0,0,0,2,3,1,5,0003-00-0000-76.png,0002-00-0000-83.png
00000014,790,0,1447783490961,1447783491474,408,363,0,0,0,4,2,2,6,0004-00-0000-41.png,0003-00-0000-70.png
00000014,791,1,1447783494849,1447783495282,925,384,0,0,0,2,1,1,3,0003-00-0001-81.png,0005-00-0000-42.png
00000014,792,1,1447783496803,1447783497292,368,454,0,0,0,0,3,3,3,0001-00-0000-33.png,0002-00-0001-44.png
00000014,793,1,1447783498148,1447783498787,931,479,0,0,0,4,3,1,7,0004-00-0000-54.png,0002-00-0001-35.png
00000014,794,0,1447783499675,1447783500097,376,451,0,0,0,4,1,3,5,0004-00-0000-64.png,0005-00-0000-70.png
00000014,795,1,1447783503257,1447783504205,370,348,0,0,0,2,4,2,6,0003-00-0001-47.png,0004-00-0001-80.png
00000014,796,1,1447783505275,1447783505712,925,490,0,0,0,1,0,1,1,0005-00-0001-66.png,0001-00-0001-79.png
00000014,797,0,1447783506676,1447783507446,913,449,0,0,0,3,4,1,7,0002-00-0000-96.png,0004-00-0000-06.png
00000014,798,0,1447783510969,1447783511442,931,440,0,0,0,1,3,2,4,0005-00-0001-01.png,0002-00-0001-54.png
00000014,799,1,1447783514438,1447783514893,946,394,0,0,0,2,0,2,2,0003-00-0000-89.png,0001-00-0001-28.png
00000014,800,1,1447783515949,1447783516434,913,501,0,0,0,3,0,3,3,0002-00-0000-63.png,0001-00-0001-44.png
00000014,801,1,1447783517358,1447783517935,867,563,0,0,0,2,0,2,2,0003-00-0001-69.png,0001-00-0001-17.png
00000014,802,1,1447783518847,1447783519727,414,449,0,0,0,0,2,2,2,0001-00-0000-87.png,0003-00-0001-68.png
00000014,803,0,1447783520679,1447783521274,896,541,0,0,0,1,2,1,3,0005-00-0000-39.png,0003-00-0001-87.png
00000014,804,1,1447783524143,1447783524882,927,390,0,0,0,4,2,2,6,0004-00-0001-35.png,0003-00-0000-58.png
00000014,805,1,1447783525875,1447783526340,912,476,0,0,0,1,0,1,1,0005-00-0001-63.png,0001-00-0000-78.png
00000014,806,1,1447783527284,1447783528008,877,445,0,0,0,2,1,1,3,0003-00-0001-38.png,0005-00-0001-19.png
00000014,807,1,1447783528896,1447783529340,458,516,0,0,0,1,3,2,4,0005-00-0000-78.png,0002-00-0000-65.png
00000014,808,0,1447783530277,1447783530957,925,475,0,0,0,2,3,1,5,0003-00-0001-15.png,0002-00-0001-03.png
00000014,809,1,1447783535086,1447783535489,949,431,0,0,0,3,0,3,3,0002-00-0001-17.png,0001-00-0000-58.png
00000014,810,0,1447783536368,1447783536883,411,446,0,0,0,4,3,1,7,0004-00-0000-06.png,0002-00-0000-45.png
00000014,811,1,1447783539718,1447783540431,453,359,0,0,0,1,4,3,5,0005-00-0001-00.png,0004-00-0001-65.png
00000014,812,0,1447783541399,1447783541970,934,499,0,0,0,2,4,2,6,0003-00-0000-90.png,0004-00-0001-03.png
00000014,813,1,1447783545453,1447783546115,976,388,0,0,0,4,0,4,4,0004-00-0000-00.png,0001-00-0000-07.png
00000014,814,0,1447783547064,1447783547503,436,496,0,0,0,3,1,2,4,0002-00-0001-66.png,0005-00-0000-14.png
00000014,815,1,1447783550599,1447783551144,413,505,0,0,0,0,3,3,3,0001-00-0001-80.png,0002-00-0000-15.png
00000014,816,1,1447783552182,1447783552830,927,398,0,0,0,4,1,3,5,0004-00-0000-38.png,0005-00-0001-82.png
00000014,817,1,1447783553790,1447783554194,401,456,0,0,0,0,4,4,4,0001-00-0000-50.png,0004-00-0001-19.png
00000014,818,1,1447783555147,1447783555732,924,440,0,0,0,3,2,1,5,0002-00-0001-41.png,0003-00-0001-70.png
00000014,819,1,1447783556758,1447783557147,427,476,0,0,0,3,4,1,7,0002-00-0001-05.png,0004-00-0000-22.png
00000014,820,1,1447783558151,1447783558597,394,468,0,0,0,0,1,1,1,0001-00-0000-57.png,0005-00-0001-17.png
00000014,821,1,1447783559524,1447783560207,911,503,0,0,0,3,1,2,4,0002-00-0000-46.png,0005-00-0001-04.png
00000014,822,0,1447783561132,1447783562050,427,462,0,0,0,4,2,2,6,0004-00-0000-05.png,0003-00-0000-32.png
00000014,823,1,1447783565317,1447783565936,866,408,0,0,0,4,0,4,4,0004-00-0001-42.png,0001-00-0000-32.png
00000014,824,0,1447783567072,1447783567561,879,427,0,0,0,2,3,1,5,0003-00-0000-10.png,0002-00-0000-74.png
00000014,825,1,1447783570994,1447783571487,925,493,0,0,0,2,1,1,3,0003-00-0001-98.png,0005-00-0000-53.png
00000014,826,1,1447783572703,1447783573204,913,476,0,0,0,4,3,1,7,0004-00-0001-77.png,0002-00-0001-74.png
00000014,827,0,1447783574114,1447783574748,944,462,0,0,0,0,4,4,4,0001-00-0001-22.png,0004-00-0001-04.png
00000014,828,1,1447783578239,1447783578710,430,436,0,0,0,1,4,3,5,0005-00-0001-87.png,0004-00-0001-51.png
00000014,829,1,1447783579769,1447783580414,952,477,0,0,0,1,0,1,1,0005-00-0000-55.png,0001-00-0000-03.png
00000014,830,0,1447783581329,1447783582040,900,516,0,0,0,3,4,1,7,0002-00-0001-12.png,0004-00-0000-70.png
00000014,831,0,1447783587282,1447783587788,370,426,0,0,0,4,1,3,5,0004-00-0001-73.png,0005-00-0000-37.png
00000014,832,0,1447783591060,1447783591554,975,456,0,0,0,2,4,2,6,0003-00-0001-18.png,0004-00-0000-30.png
00000014,833,1,1447783594680,1447783595166,940,491,0,0,0,3,0,3,3,0002-00-0001-99.png,0001-00-0000-06.png
00000014,834,0,1447783596289,1447783596707,357,442,0,0,0,3,2,1,5,0002-00-0000-85.png,0003-00-0000-63.png
00000014,835,0,1447783599712,1447783600194,862,365,0,0,0,0,3,3,3,0001-00-0000-26.png,0002-00-0001-83.png
00000014,836,0,1447783603287,1447783603777,878,427,0,0,0,0,1,1,1,0001-00-0000-03.png,0005-00-0001-67.png
00000014,837,1,1447783609087,1447783609581,468,414,0,0,0,0,2,2,2,0001-00-0001-91.png,0003-00-0001-84.png
00000014,838,1,1447783611495,1447783612020,366,387,0,0,0,1,2,1,3,0005-00-0000-38.png,0003-00-0000-72.png
00000014,839,0,1447783612985,1447783613506,880,452,0,0,0,1,3,2,4,0005-00-0001-45.png,0002-00-0001-83.png
00000014,840,1,1447783617081,1447783617486,951,423,0,0,0,2,0,2,2,0003-00-0000-58.png,0001-00-0001-00.png
00000014,841,0,1447783618698,1447783619244,925,474,0,0,0,2,3,1,5,0003-00-0000-05.png,0002-00-0001-19.png
00000014,842,0,1447783624253,1447783624653,953,410,0,0,0,2,4,2,6,0003-00-0001-54.png,0004-00-0000-79.png
00000014,843,0,1447783628772,1447783629180,382,423,0,0,0,4,2,2,6,0004-00-0000-00.png,0003-00-0001-43.png
00000014,844,1,1447783632143,1447783632171,522,452,0,0,0,0,4,4,4,0001-00-0000-02.png,0004-00-0001-97.png
00000014,845,0,1447783633056,1447783633612,939,514,0,0,0,3,4,1,7,0002-00-0001-99.png,0004-00-0000-67.png
00000014,846,0,1447783636518,1447783637472,974,418,0,0,0,1,4,3,5,0005-00-0000-87.png,0004-00-0000-35.png
00000014,847,0,1447783640453,1447783640949,427,383,0,0,0,4,3,1,7,0004-00-0001-94.png,0002-00-0001-01.png
00000014,848,1,1447783643910,1447783644489,956,454,0,0,0,4,0,4,4,0004-00-0001-06.png,0001-00-0001-26.png
00000014,849,0,1447783645473,1447783646129,334,409,0,0,0,1,0,1,1,0005-00-0000-91.png,0001-00-0001-33.png
00000014,850,0,1447783649329,1447783649807,401,358,0,0,0,3,1,2,4,0002-00-0001-81.png,0005-00-0000-84.png
00000014,851,0,1447783652829,1447783653298,945,529,0,0,0,1,2,1,3,0005-00-0000-93.png,0003-00-0000-16.png
00000014,852,1,1447783656745,1447783657246,976,456,0,0,0,4,1,3,5,0004-00-0001-49.png,0005-00-0001-33.png
00000014,853,1,1447783658504,1447783658965,405,480,0,0,0,0,2,2,2,0001-00-0000-71.png,0003-00-0000-48.png
00000014,854,1,1447783659801,1447783660329,946,497,0,0,0,2,0,2,2,0003-00-0001-43.png,0001-00-0000-40.png
00000014,855,1,1447783661234,1447783661809,938,476,0,0,0,3,0,3,3,0002-00-0000-80.png,0001-00-0000-67.png
00000014,856,0,1447783662647,1447783663237,388,412,0,0,0,3,2,1,5,0002-00-0000-07.png,0003-00-0000-87.png
00000014,857,0,1447783666257,1447783666747,948,462,0,0,0,1,3,2,4,0005-00-0001-21.png,0002-00-0000-25.png
00000014,858,0,1447783669845,1447783670299,952,476,0,0,0,0,1,1,1,0001-00-0000-90.png,0005-00-0001-95.png
00000014,859,1,1447783673581,1447783674053,970,466,0,0,0,2,1,1,3,0003-00-0001-43.png,0005-00-0001-78.png
00000014,860,1,1447783675281,1447783675752,373,459,0,0,0,0,3,3,3,0001-00-0000-29.png,0002-00-0000-94.png
00000014,861,0,1447783677537,1447783678037,364,451,0,0,0,3,2,1,5,0002-00-0001-86.png,0003-00-0001-63.png
00000014,862,1,1447783685364,1447783685812,976,448,0,0,0,2,1,1,3,0003-00-0000-38.png,0005-00-0000-74.png
00000014,863,1,1447783687069,1447783687678,920,491,0,0,0,4,3,1,7,0004-00-0001-47.png,0002-00-0000-57.png
00000014,864,1,1447783688768,1447783689321,379,442,0,0,0,1,3,2,4,0005-00-0000-27.png,0002-00-0000-90.png
00000014,865,1,1447783690288,1447783690725,372,452,0,0,0,2,4,2,6,0003-00-0000-95.png,0004-00-0001-58.png
00000014,866,0,1447783691649,1447783692174,898,481,0,0,0,0,2,2,2,0001-00-0000-63.png,0003-00-0001-13.png
00000014,867,1,1447783695317,1447783695719,927,436,0,0,0,1,0,1,1,0005-00-0000-76.png,0001-00-0000-55.png
00000014,868,1,1447783696718,1447783697219,900,475,0,0,0,3,0,3,3,0002-00-0001-48.png,0001-00-0000-81.png
00000014,869,0,1447783698436,1447783698864,444,428,0,0,0,4,2,2,6,0004-00-0001-33.png,0003-00-0000-95.png
00000014,870,0,1447783709431,1447783710013,919,503,0,0,0,1,4,3,5,0005-00-0001-45.png,0004-00-0000-73.png
00000014,871,0,1447783713555,1447783714001,881,541,0,0,0,0,4,4,4,0001-00-0001-51.png,0004-00-0001-98.png
00000014,872,1,1447783717113,1447783717587,899,501,0,0,0,3,1,2,4,0002-00-0000-47.png,0005-00-0000-22.png
00000014,873,1,1447783718605,1447783719361,914,475,0,0,0,4,0,4,4,0004-00-0001-60.png,0001-00-0001-24.png
00000014,874,1,1447783720314,1447783720728,374,464,0,0,0,0,1,1,1,0001-00-0001-94.png,0005-00-0000-87.png
00000014,875,0,1447783721657,1447783722289,902,495,0,0,0,3,4,1,7,0002-00-0000-28.png,0004-00-0001-18.png
00000014,876,1,1447783725293,1447783725337,504,479,0,0,0,0,3,3,3,0001-00-0000-52.png,0002-00-0001-94.png
00000014,877,1,1447783726317,1447783726802,947,497,0,0,0,2,0,2,2,0003-00-0001-56.png,0001-00-0001-73.png
00000014,878,0,1447783727665,1447783728501,900,422,0,0,0,2,3,1,5,0003-00-0001-19.png,0002-00-0001-86.png
00000014,879,1,1447783731615,1447783732424,394,376,0,0,0,1,2,1,3,0005-00-0000-24.png,0003-00-0001-19.png
00000014,880,1,1447783733364,1447783733888,900,475,0,0,0,4,1,3,5,0004-00-0001-38.png,0005-00-0001-34.png
00000014,881,1,1447783734823,1447783735224,406,475,0,0,0,0,3,3,3,0001-00-0001-88.png,0002-00-0001-74.png
00000014,882,1,1447783736144,1447783736596,410,496,0,0,0,1,4,3,5,0005-00-0000-94.png,0004-00-0000-04.png
00000014,883,1,1447783737536,1447783737955,453,503,0,0,0,2,4,2,6,0003-00-0000-51.png,0004-00-0001-69.png
00000014,884,1,1447783738929,1447783739349,425,485,0,0,0,3,4,1,7,0002-00-0001-32.png,0004-00-0001-41.png
00000014,885,0,1447783740288,1447783741089,445,415,0,0,0,4,2,2,6,0004-00-0000-21.png,0003-00-0000-62.png
00000014,886,1,1447783744273,1447783744727,970,444,0,0,0,4,0,4,4,0004-00-0000-78.png,0001-00-0001-34.png
00000014,887,1,1447783746214,1447783746916,428,415,0,0,0,2,3,1,5,0003-00-0000-25.png,0002-00-0000-47.png
00000014,888,1,1447783747867,1447783748305,376,488,0,0,0,1,3,2,4,0005-00-0000-26.png,0002-00-0001-96.png
00000014,889,0,1447783749191,1447783750282,934,473,0,0,0,0,1,1,1,0001-00-0000-75.png,0005-00-0000-61.png
00000014,890,1,1447783753285,1447783753753,913,410,0,0,0,4,3,1,7,0004-00-0001-69.png,0002-00-0000-91.png
00000014,891,0,1447783754709,1447783755132,458,516,0,0,0,2,1,1,3,0003-00-0000-61.png,0005-00-0000-76.png
00000014,892,0,1447783758006,1447783758565,379,360,0,0,0,1,0,1,1,0005-00-0001-40.png,0001-00-0001-10.png
00000014,893,1,1447783761597,1447783762237,955,442,0,0,0,3,0,3,3,0002-00-0000-14.png,0001-00-0000-32.png
00000014,894,1,1447783763257,1447783763746,907,483,0,0,0,4,1,3,5,0004-00-0001-30.png,0005-00-0001-33.png
00000014,895,1,1447783764688,1447783765096,408,477,0,0,0,1,2,1,3,0005-00-0000-29.png,0003-00-0000-25.png
00000014,896,1,1447783765998,1447783767062,914,464,0,0,0,3,2,1,5,0002-00-0001-81.png,0003-00-0000-64.png
00000014,897,1,1447783767998,1447783768384,389,469,0,0,0,0,2,2,2,0001-00-0000-98.png,0003-00-0001-61.png
00000014,898,1,1447783769378,1447783769772,407,465,0,0,0,0,4,4,4,0001-00-0000-51.png,0004-00-0000-20.png
00000014,899,0,1447783770659,1447783771275,399,385,0,0,0,2,0,2,2,0003-00-0000-36.png,0001-00-0000-27.png
00000014,900,0,1447783774287,1447783774985,369,472,0,0,0,3,1,2,4,0002-00-0001-59.png,0005-00-0000-08.png
00000014,901,0,1447783778383,1447783778846,424,394,0,0,0,1,0,1,1,0005-00-0001-04.png,0001-00-0001-66.png
00000014,902,0,1447783781802,1447783782283,401,449,0,0,0,3,1,2,4,0002-00-0001-50.png,0005-00-0001-61.png
00000014,903,1,1447783787196,1447783787632,441,450,0,0,0,3,4,1,7,0002-00-0001-27.png,0004-00-0001-53.png
00000014,904,1,1447783788800,1447783789292,925,464,0,0,0,4,3,1,7,0004-00-0000-75.png,0002-00-0001-44.png
00000014,905,0,1447783790128,1447783790645,915,501,0,0,0,1,4,3,5,0005-00-0001-27.png,0004-00-0001-64.png
00000014,906,1,1447783794374,1447783794906,444,544,0,0,0,1,3,2,4,0005-00-0001-32.png,0002-00-0001-29.png
00000014,907,0,1447783796459,1447783796941,325,410,0,0,0,4,1,3,5,0004-00-0001-06.png,0005-00-0000-60.png
00000014,908,1,1447783801590,1447783802111,399,469,0,0,0,0,4,4,4,0001-00-0000-66.png,0004-00-0000-62.png
00000014,909,0,1447783803079,1447783803481,390,493,0,0,0,4,2,2,6,0004-00-0001-82.png,0003-00-0001-93.png
00000014,910,1,1447783806607,1447783807071,376,425,0,0,0,0,2,2,2,0001-00-0001-73.png,0003-00-0000-80.png
00000014,911,1,1447783807958,1447783808400,420,487,0,0,0,2,3,1,5,0003-00-0000-94.png,0002-00-0000-87.png
00000014,912,1,1447783809379,1447783809884,946,471,0,0,0,2,0,2,2,0003-00-0001-44.png,0001-00-0001-34.png
00000014,913,0,1447783810770,1447783811506,888,503,0,0,0,0,1,1,1,0001-00-0000-36.png,0005-00-0001-06.png
00000014,914,1,1447783815313,1447783815782,949,481,0,0,0,2,1,1,3,0003-00-0000-60.png,0005-00-0001-46.png
00000014,915,0,1447783816756,1447783817257,908,500,0,0,0,1,2,1,3,0005-00-0000-93.png,0003-00-0000-12.png
00000014,916,1,1447783820638,1447783821120,888,436,0,0,0,3,2,1,5,0002-00-0000-77.png,0003-00-0001-34.png
00000014,917,0,1447783822081,1447783822505,424,487,0,0,0,3,0,3,3,0002-00-0000-70.png,0001-00-0000-88.png
00000014,918,0,1447783825807,1447783826333,949,484,0,0,0,2,4,2,6,0003-00-0000-43.png,0004-00-0000-84.png
00000014,919,1,1447783829473,1447783829908,971,424,0,0,0,4,0,4,4,0004-00-0001-61.png,0001-00-0000-56.png
00000014,920,1,1447783831433,1447783831965,417,480,0,0,0,0,3,3,3,0001-00-0001-45.png,0002-00-0000-78.png
00000014,921,0,1447783833201,1447783833666,959,473,0,0,0,2,3,1,5,0003-00-0000-96.png,0002-00-0001-38.png
00000014,922,1,1447783836956,1447783837385,951,463,0,0,0,2,0,2,2,0003-00-0000-96.png,0001-00-0001-02.png
00000014,923,1,1447783838258,1447783838840,950,483,0,0,0,3,2,1,5,0002-00-0001-63.png,0003-00-0000-89.png
00000014,924,1,1447783839717,1447783840323,870,445,0,0,0,3,0,3,3,0002-00-0000-59.png,0001-00-0001-85.png
00000014,925,1,1447783841277,1447783841660,440,469,0,0,0,0,3,3,3,0001-00-0000-40.png,0002-00-0000-65.png
00000014,926,0,1447783842651,1447783843129,899,431,0,0,0,2,4,2,6,0003-00-0000-87.png,0004-00-0000-04.png
00000014,927,1,1447783846358,1447783846887,935,499,0,0,0,3,1,2,4,0002-00-0001-51.png,0005-00-0001-45.png
00000014,928,1,1447783848334,1447783848807,401,462,0,0,0,0,4,4,4,0001-00-0000-64.png,0004-00-0001-40.png
00000014,929,0,1447783849683,1447783850160,421,473,0,0,0,4,0,4,4,0004-00-0001-82.png,0001-00-0001-51.png
00000014,930,1,1447783853324,1447783853821,947,471,0,0,0,2,1,1,3,0003-00-0000-13.png,0005-00-0001-83.png
00000014,931,1,1447783855267,1447783855682,428,470,0,0,0,0,2,2,2,0001-00-0000-27.png,0003-00-0000-57.png
00000014,932,1,1447783856551,1447783857030,925,464,0,0,0,1,0,1,1,0005-00-0001-51.png,0001-00-0000-19.png
00000014,933,0,1447783857942,1447783858512,874,462,0,0,0,1,4,3,5,0005-00-0001-39.png,0004-00-0001-32.png
00000014,934,1,1447783861513,1447783862006,933,500,0,0,0,4,1,3,5,0004-00-0000-84.png,0005-00-0000-68.png
00000014,935,0,1447783862863,1447783863320,432,485,0,0,0,4,2,2,6,0004-00-0000-03.png,0003-00-0001-63.png
00000014,936,1,1447783866314,1447783866796,922,471,0,0,0,4,3,1,7,0004-00-0001-98.png,0002-00-0001-02.png
00000014,937,0,1447783867686,1447783868208,901,476,0,0,0,1,2,1,3,0005-00-0000-39.png,0003-00-0000-89.png
00000014,938,1,1447783871581,1447783872024,363,410,0,0,0,0,1,1,1,0001-00-0000-69.png,0005-00-0001-83.png
00000014,939,1,1447783872941,1447783873462,401,466,0,0,0,3,4,1,7,0002-00-0000-96.png,0004-00-0000-51.png
00000014,940,0,1447783874374,1447783874994,918,471,0,0,0,1,3,2,4,0005-00-0001-14.png,0002-00-0000-38.png
00000014,941,1,1447783878042,1447783878555,948,458,0,0,0,4,3,1,7,0004-00-0000-81.png,0002-00-0001-08.png
00000014,942,1,1447783879548,1447783879935,382,456,0,0,0,0,2,2,2,0001-00-0000-07.png,0003-00-0000-47.png
00000014,943,1,1447783880903,1447783881319,432,486,0,0,0,0,1,1,1,0001-00-0001-84.png,0005-00-0001-39.png
00000014,944,0,1447783882222,1447783883025,900,436,0,0,0,2,4,2,6,0003-00-0000-06.png,0004-00-0000-20.png
00000014,945,1,1447783886222,1447783886870,407,423,0,0,0,3,4,1,7,0002-00-0001-43.png,0004-00-0000-99.png
00000014,946,1,1447783887911,1447783888494,373,445,0,0,0,0,3,3,3,0001-00-0000-57.png,0002-00-0000-71.png
00000014,947,0,1447783889427,1447783890074,923,482,0,0,0,2,3,1,5,0003-00-0001-74.png,0002-00-0001-35.png
00000014,948,1,1447783893150,1447783893587,952,475,0,0,0,1,0,1,1,0005-00-0000-06.png,0001-00-0000-08.png
00000014,949,1,1447783894559,1447783895047,899,482,0,0,0,2,1,1,3,0003-00-0001-20.png,0005-00-0000-56.png
00000014,950,0,1447783895956,1447783896354,430,476,0,0,0,3,1,2,4,0002-00-0000-82.png,0005-00-0001-82.png
00000014,951,0,1447783899677,1447783900133,453,423,0,0,0,3,2,1,5,0002-00-0001-60.png,0003-00-0001-92.png
