subject_id,trial,correct_response,stim_time,response_time,x_coord,y_coord,trial_timeout,timeout_time,interTrial_timeout,left_rank,right_rank,distance,joint_rank,left_image,right_image
00000009,1,1,1447857571031,1447857572164,1022,294,0,0,0,4,3,1,7,0004-00-0001-01.png,0002-00-0001-10.png
00000009,2,0,1447857574076,1447857575203,962,352,0,0,0,2,3,1,5,0003-00-0000-70.png,0002-00-0001-38.png
00000009,3,0,1447857578370,1447857578446,891,247,0,0,0,0,3,3,3,0001-00-0001-52.png,0002-00-0001-11.png
00000009,4,1,1447857581337,1447857581886,1041,279,0,0,0,2,1,1,3,0003-00-0000-62.png,0005-00-0000-57.png
00000009,5,1,1447857583677,1447857584480,394,399,0,0,0,1,3,2,4,0005-00-0000-89.png,0002-00-0000-59.png
00000009,6,0,1447857586615,1447857587173,970,322,0,0,0,1,4,3,5,0005-00-0001-39.png,0004-00-0001-54.png
00000009,7,1,1447857590081,1447857590664,980,398,0,0,0,2,0,2,2,0003-00-0001-13.png,0001-00-0001-47.png
00000009,8,0,1447857592540,1447857593233,405,352,0,0,0,3,1,2,4,0002-00-0001-75.png,0005-00-0001-07.png
00000009,9,1,1447857596408,1447857596452,883,264,0,0,0,1,0,1,1,0005-00-0000-70.png,0001-00-0000-40.png
00000009,10,0,1447857598074,1447857598758,1013,296,0,0,0,0,1,1,1,0001-00-0000-06.png,0005-00-0001-09.png
00000009,11,0,1447857603273,1447857604204,932,427,0,0,0,2,4,2,6,0003-00-0000-76.png,0004-00-0000-19.png
00000009,12,0,1447857607259,1447857607311,939,318,0,0,0,3,4,1,7,0002-00-0001-73.png,0004-00-0000-85.png
00000009,13,0,1447857610160,1447857610793,402,398,0,0,0,3,2,1,5,0002-00-0000-19.png,0003-00-0000-31.png
00000009,14,1,1447857613828,1447857614372,1016,358,0,0,0,4,0,4,4,0004-00-0001-90.png,0001-00-0001-52.png
00000009,15,0,1447857615608,1447857616240,459,269,0,0,0,4,2,2,6,0004-00-0001-95.png,0003-00-0001-41.png
00000009,16,0,1447857619372,1447857619898,966,360,0,0,0,1,2,1,3,0005-00-0000-48.png,0003-00-0001-15.png
00000009,17,0,1447857623235,1447857623817,1064,275,0,0,0,0,2,2,2,0001-00-0001-34.png,0003-00-0000-28.png
00000009,18,1,1447857626827,1447857627384,401,385,0,0,0,0,4,4,4,0001-00-0001-92.png,0004-00-0001-68.png
00000009,19,1,1447857628437,1447857628533,887,416,0,0,0,3,0,3,3,0002-00-0000-25.png,0001-00-0001-87.png
00000009,20,1,1447857629758,1447857629778,882,302,0,0,0,4,1,3,5,0004-00-0001-61.png,0005-00-0000-23.png
00000009,21,1,1447857631160,1447857631164,917,260,0,0,0,3,2,1,5,0002-00-0000-18.png,0003-00-0000-14.png
00000009,22,1,1447857632944,1447857633573,888,384,0,0,0,4,3,1,7,0004-00-0000-57.png,0002-00-0001-14.png
00000009,23,0,1447857634789,1447857635498,352,381,0,0,0,3,1,2,4,0002-00-0001-69.png,0005-00-0000-26.png
00000009,24,0,1447857638849,1447857638873,862,279,0,0,0,3,4,1,7,0002-00-0000-55.png,0004-00-0000-07.png
00000009,25,1,1447857641784,1447857641788,511,429,0,0,0,0,1,1,1,0001-00-0001-43.png,0005-00-0001-81.png
00000009,26,1,1447857642969,1447857643675,315,467,0,0,0,0,3,3,3,0001-00-0000-87.png,0002-00-0001-96.png
00000009,27,1,1447857644755,1447857645500,1097,243,0,0,0,2,0,2,2,0003-00-0001-72.png,0001-00-0000-94.png
00000009,28,0,1447857647080,1447857647905,923,310,0,0,0,2,3,1,5,0003-00-0000-60.png,0002-00-0001-20.png
00000009,29,1,1447857651225,1447857651806,446,263,0,0,0,0,2,2,2,0001-00-0000-87.png,0003-00-0000-43.png
00000009,30,0,1447857652829,1447857653578,959,314,0,0,0,1,2,1,3,0005-00-0001-36.png,0003-00-0001-03.png
00000009,31,0,1447857656580,1447857656624,862,346,0,0,0,1,3,2,4,0005-00-0001-45.png,0002-00-0001-70.png
00000009,32,1,1447857659533,1447857659597,983,336,0,0,0,4,1,3,5,0004-00-0001-12.png,0005-00-0000-92.png
00000009,33,1,1447857660766,1447857661434,476,250,0,0,0,0,4,4,4,0001-00-0001-14.png,0004-00-0001-61.png
00000009,34,1,1447857662335,1447857662391,941,533,0,0,0,3,0,3,3,0002-00-0001-13.png,0001-00-0000-75.png
00000009,35,0,1447857663400,1447857664029,422,383,0,0,0,4,0,4,4,0004-00-0001-46.png,0001-00-0001-40.png
00000009,36,1,1447857667405,1447857667951,916,324,0,0,0,1,0,1,1,0005-00-0000-95.png,0001-00-0001-27.png
00000009,37,1,1447857668885,1447857669549,289,405,0,0,0,1,4,3,5,0005-00-0000-08.png,0004-00-0001-88.png
00000009,38,1,1447857670555,1447857671324,940,300,0,0,0,2,1,1,3,0003-00-0001-56.png,0005-00-0000-86.png
00000009,39,0,1447857675246,1447857679576,370,402,0,0,0,4,2,2,6,0004-00-0001-63.png,0003-00-0000-80.png
00000009,40,1,1447857682510,1447857683205,424,352,0,0,0,2,4,2,6,0003-00-0000-79.png,0004-00-0000-85.png
00000009,41,0,1447857684328,1447857685015,914,382,0,0,0,3,4,1,7,0002-00-0000-52.png,0004-00-0000-69.png
00000009,42,1,1447857713358,1447857714065,1018,288,0,0,0,4,0,4,4,0004-00-0000-55.png,0001-00-0001-62.png
00000009,43,0,1447857715775,1447857716389,290,431,0,0,0,3,0,3,3,0002-00-0001-70.png,0001-00-0001-80.png
00000009,44,1,1447857719553,1447857720436,915,369,0,0,0,4,3,1,7,0004-00-0001-78.png,0002-00-0001-04.png
00000009,45,1,1447857721546,1447857722131,387,289,0,0,0,1,2,1,3,0005-00-0001-98.png,0003-00-0001-30.png
00000009,46,1,1447857724451,1447857725027,994,232,0,0,0,3,2,1,5,0002-00-0000-98.png,0003-00-0001-89.png
00000009,47,1,1447857747835,1447857747911,507,407,0,0,0,1,3,2,4,0005-00-0000-12.png,0002-00-0000-04.png
00000009,48,0,1447857749706,1447857750287,964,410,0,0,0,2,4,2,6,0003-00-0001-69.png,0004-00-0000-32.png
00000009,49,1,1447857754368,1447857754861,1010,310,0,0,0,2,0,2,2,0003-00-0000-95.png,0001-00-0000-59.png
00000009,50,0,1447857755756,1447857756322,439,248,0,0,0,1,0,1,1,0005-00-0000-20.png,0001-00-0000-12.png
00000009,51,1,1447857773763,1447857775006,400,291,0,0,0,0,2,2,2,0001-00-0000-19.png,0003-00-0001-76.png
00000009,52,1,1447857776798,1447857783612,888,255,0,0,0,4,2,2,6,0004-00-0001-33.png,0003-00-0001-52.png
00000009,53,1,1447857784881,1447857784925,903,410,0,0,0,3,1,2,4,0002-00-0001-11.png,0005-00-0001-74.png
00000009,54,1,1447857805425,1447857806022,479,277,0,0,0,0,1,1,1,0001-00-0000-21.png,0005-00-0001-60.png
00000009,55,1,1447857807218,1447857814556,336,374,0,0,0,2,3,1,5,0003-00-0001-86.png,0002-00-0000-35.png
00000009,56,0,1447857815606,1447857815638,862,488,0,0,0,0,3,3,3,0001-00-0001-38.png,0002-00-0000-02.png
00000009,57,0,1447857847361,1447857847369,453,410,0,0,0,4,1,3,5,0004-00-0000-14.png,0005-00-0000-71.png
00000009,58,1,1447857850424,1447857851010,414,428,0,0,0,0,4,4,4,0001-00-0001-73.png,0004-00-0000-40.png
00000009,59,1,1447857852012,1447857852895,437,278,0,0,0,1,4,3,5,0005-00-0001-20.png,0004-00-0000-50.png
00000009,60,1,1447857854040,1447857854056,862,269,0,0,0,2,1,1,3,0003-00-0001-68.png,0005-00-0001-80.png
00000009,61,0,1447857855960,1447857856705,980,334,0,0,0,1,2,1,3,0005-00-0001-62.png,0003-00-0000-45.png
00000009,62,1,1447857927643,1447857928261,1039,251,0,0,0,4,2,2,6,0004-00-0000-81.png,0003-00-0000-09.png
00000009,63,1,1447857929316,1447857930154,398,399,0,0,0,0,4,4,4,0001-00-0001-32.png,0004-00-0001-40.png
00000009,64,0,1447857932146,1447857933144,1021,276,0,0,0,0,1,1,1,0001-00-0001-60.png,0005-00-0000-80.png
00000009,65,1,1447857936331,1447857936816,1035,283,0,0,0,2,1,1,3,0003-00-0001-66.png,0005-00-0000-56.png
00000009,66,1,1447857938625,1447857939253,893,349,0,0,0,4,0,4,4,0004-00-0001-89.png,0001-00-0001-65.png
00000009,67,1,1447857940614,1447857941473,1044,277,0,0,0,4,3,1,7,0004-00-0001-72.png,0002-00-0001-71.png
00000009,68,1,1447857943047,1447857943659,919,402,0,0,0,3,0,3,3,0002-00-0001-63.png,0001-00-0001-58.png
00000009,69,0,1447857945224,1447857945232,892,413,0,0,0,2,3,1,5,0003-00-0001-25.png,0002-00-0000-62.png
00000009,70,1,1447857949181,1447857949532,1020,276,0,0,0,1,0,1,1,0005-00-0000-08.png,0001-00-0001-05.png
00000009,71,1,1447857951010,1447857951772,920,394,0,0,0,2,0,2,2,0003-00-0000-21.png,0001-00-0000-80.png
00000009,72,0,1447857953532,1447857953552,911,405,0,0,0,1,3,2,4,0005-00-0001-99.png,0002-00-0000-97.png
00000009,73,0,1447857957572,1447857957880,990,332,0,0,0,3,4,1,7,0002-00-0001-31.png,0004-00-0001-98.png
00000009,74,1,1447857961444,1447857961943,941,332,0,0,0,3,1,2,4,0002-00-0000-68.png,0005-00-0001-76.png
00000009,75,0,1447857963898,1447857963942,913,400,0,0,0,0,3,3,3,0001-00-0000-03.png,0002-00-0000-60.png
00000009,76,0,1447857970798,1447857971283,360,391,0,0,0,3,2,1,5,0002-00-0000-30.png,0003-00-0001-21.png
00000009,77,0,1447857986611,1447857999910,922,350,0,0,0,0,2,2,2,0001-00-0000-79.png,0003-00-0000-30.png
00000009,78,1,1447858004307,1447858004991,372,401,0,0,0,2,4,2,6,0003-00-0001-03.png,0004-00-0001-69.png
00000009,79,1,1447858006075,1447858006162,939,453,0,0,0,4,1,3,5,0004-00-0000-63.png,0005-00-0000-05.png
00000009,80,0,1447858007586,1447858007622,913,410,0,0,0,1,4,3,5,0005-00-0000-79.png,0004-00-0000-86.png
00000009,81,0,1447858012934,1447858013523,357,392,0,0,0,3,2,1,5,0002-00-0001-35.png,0003-00-0001-44.png
00000009,82,1,1447858019382,1447858019418,862,332,0,0,0,3,0,3,3,0002-00-0001-63.png,0001-00-0000-43.png
00000009,83,1,1447858020471,1447858020493,941,387,0,0,0,2,1,1,3,0003-00-0001-81.png,0005-00-0001-93.png
00000009,84,0,1447858154853,1447858156707,884,454,0,0,0,3,4,1,7,0002-00-0000-53.png,0004-00-0001-14.png
00000009,85,1,1447858159878,1447858159898,891,293,0,0,0,2,0,2,2,0003-00-0000-04.png,0001-00-0001-25.png
00000009,86,0,1447858160991,1447858161886,407,341,0,0,0,4,3,1,7,0004-00-0000-26.png,0002-00-0001-39.png
00000009,87,1,1447858164738,1447858165313,1071,278,0,0,0,3,1,2,4,0002-00-0000-02.png,0005-00-0000-08.png
00000009,88,1,1447858166398,1447858167311,1041,269,0,0,0,4,0,4,4,0004-00-0000-97.png,0001-00-0000-18.png
00000009,89,0,1447858168554,1447858168915,994,485,0,0,0,1,3,2,4,0005-00-0000-54.png,0002-00-0000-77.png
00000009,90,0,1447858171922,1447858172397,1047,280,0,0,0,0,3,3,3,0001-00-0001-17.png,0002-00-0000-68.png
00000009,91,1,1447858175348,1447858175867,483,270,0,0,0,0,4,4,4,0001-00-0000-41.png,0004-00-0001-25.png
00000009,92,0,1447858176932,1447858176996,865,411,0,0,0,0,1,1,1,0001-00-0001-24.png,0005-00-0001-76.png
00000009,93,1,1447858179832,1447858180315,500,325,0,0,0,1,4,3,5,0005-00-0000-58.png,0004-00-0001-53.png
00000009,94,0,1447858181285,1447858181341,887,390,0,0,0,2,3,1,5,0003-00-0001-26.png,0002-00-0001-09.png
00000009,95,0,1447858192236,1447858192777,982,433,0,0,0,2,4,2,6,0003-00-0001-56.png,0004-00-0000-71.png
00000009,96,1,1447858202196,1447858202727,1040,279,0,0,0,4,2,2,6,0004-00-0000-01.png,0003-00-0001-52.png
00000009,97,1,1447858204053,1447858204771,479,247,0,0,0,0,2,2,2,0001-00-0001-16.png,0003-00-0000-60.png
00000009,98,1,1447858206203,1447858206806,934,341,0,0,0,1,0,1,1,0005-00-0000-14.png,0001-00-0001-74.png
00000009,99,0,1447858208340,1447858208344,883,339,0,0,0,1,2,1,3,0005-00-0000-60.png,0003-00-0001-07.png
00000009,100,1,1447858221141,1447858221638,939,344,0,0,0,4,1,3,5,0004-00-0000-89.png,0005-00-0000-45.png
00000009,101,1,1447858222545,1447858222629,915,438,0,0,0,4,0,4,4,0004-00-0000-85.png,0001-00-0000-52.png
00000009,102,0,1447858223818,1447858223910,898,414,0,0,0,0,1,1,1,0001-00-0000-25.png,0005-00-0001-87.png
00000009,103,0,1447858226730,1447858227501,1143,322,0,0,0,3,4,1,7,0002-00-0000-97.png,0004-00-0001-00.png
00000009,104,1,1447858230597,1447858231210,460,276,0,0,0,1,2,1,3,0005-00-0001-39.png,0003-00-0001-71.png
00000009,105,0,1447858232153,1447858232181,860,385,0,0,0,2,3,1,5,0003-00-0001-32.png,0002-00-0001-68.png
00000009,106,1,1447858236141,1447858236657,1058,287,0,0,0,2,0,2,2,0003-00-0001-77.png,0001-00-0001-14.png
00000009,107,0,1447858237542,1447858237615,863,394,0,0,0,0,2,2,2,0001-00-0000-00.png,0003-00-0000-24.png
00000009,108,0,1447858240932,1447858241466,971,425,0,0,0,0,4,4,4,0001-00-0001-75.png,0004-00-0001-27.png
00000009,109,1,1447858244458,1447858245135,369,377,0,0,0,2,4,2,6,0003-00-0000-40.png,0004-00-0001-31.png
00000009,110,1,1447858246151,1447858246914,1041,274,0,0,0,2,1,1,3,0003-00-0000-43.png,0005-00-0001-45.png
00000009,111,0,1447858247980,1447858248036,890,409,0,0,0,0,3,3,3,0001-00-0001-72.png,0002-00-0000-17.png
00000009,112,1,1447858251148,1447858251380,957,304,0,0,0,4,1,3,5,0004-00-0000-43.png,0005-00-0001-11.png
00000009,113,1,1447858252371,1447858252439,867,440,0,0,0,4,2,2,6,0004-00-0000-41.png,0003-00-0000-03.png
00000009,114,1,1447858253662,1447858254529,914,337,0,0,0,3,2,1,5,0002-00-0001-16.png,0003-00-0001-01.png
00000009,115,1,1447858255649,1447858255717,888,410,0,0,0,1,0,1,1,0005-00-0000-03.png,0001-00-0000-61.png
00000009,116,0,1447858257002,1447858257159,893,486,0,0,0,1,4,3,5,0005-00-0001-09.png,0004-00-0000-89.png
00000009,117,0,1447858260202,1447858260914,478,279,0,0,0,4,3,1,7,0004-00-0000-12.png,0002-00-0001-90.png
00000009,118,1,1447858263758,1447858264285,908,344,0,0,0,3,1,2,4,0002-00-0001-23.png,0005-00-0000-68.png
00000009,119,0,1447858265207,1447858265287,869,441,0,0,0,1,3,2,4,0005-00-0000-04.png,0002-00-0001-29.png
00000009,120,1,1447858268281,1447858268325,943,382,0,0,0,3,0,3,3,0002-00-0001-89.png,0001-00-0001-04.png
00000009,121,1,1447858269353,1447858270247,931,307,0,0,0,4,1,3,5,0004-00-0001-40.png,0005-00-0000-70.png
00000009,122,1,1447858271278,1447858271326,890,453,0,0,0,3,2,1,5,0002-00-0000-17.png,0003-00-0001-60.png
00000009,123,1,1447858272634,1447858272772,862,462,0,0,0,4,0,4,4,0004-00-0001-65.png,0001-00-0001-39.png
00000009,124,0,1447858274043,1447858275284,939,394,0,0,0,2,4,2,6,0003-00-0001-18.png,0004-00-0001-66.png
00000009,125,1,1447858280911,1447858281397,1077,279,0,0,0,2,1,1,3,0003-00-0001-16.png,0005-00-0001-07.png
00000009,126,1,1447858282310,1447858283109,468,242,0,0,0,1,2,1,3,0005-00-0000-98.png,0003-00-0001-68.png
00000009,127,0,1447858284140,1447858284175,890,387,0,0,0,0,4,4,4,0001-00-0001-17.png,0004-00-0001-32.png
00000009,128,1,1447858287362,1447858287914,406,402,0,0,0,0,2,2,2,0001-00-0000-71.png,0003-00-0001-43.png
00000009,129,0,1447858288859,1447858288887,885,422,0,0,0,0,3,3,3,0001-00-0001-70.png,0002-00-0001-10.png
00000009,130,0,1447858292181,1447858292672,1047,306,0,0,0,2,3,1,5,0003-00-0000-28.png,0002-00-0000-37.png
00000009,131,1,1447858298024,1447858299058,958,406,0,0,0,3,1,2,4,0002-00-0000-03.png,0005-00-0001-28.png
00000009,132,0,1447858300092,1447858300239,891,436,0,0,0,0,1,1,1,0001-00-0000-05.png,0005-00-0001-41.png
00000009,133,1,1447858303253,1447858303744,912,359,0,0,0,2,0,2,2,0003-00-0001-04.png,0001-00-0001-31.png
00000009,134,1,1447858304723,1447858304787,858,418,0,0,0,4,2,2,6,0004-00-0001-43.png,0003-00-0000-61.png
00000009,135,0,1447858306014,1447858306380,913,526,0,0,0,1,4,3,5,0005-00-0000-70.png,0004-00-0000-46.png
00000009,136,1,1447858309334,1447858309847,1076,250,0,0,0,3,0,3,3,0002-00-0001-25.png,0001-00-0000-45.png
00000009,137,1,1447858310733,1447858310781,871,438,0,0,0,1,0,1,1,0005-00-0001-42.png,0001-00-0000-59.png
00000009,138,1,1447858311927,1447858313036,939,253,0,0,0,4,3,1,7,0004-00-0000-77.png,0002-00-0000-51.png
00000009,139,0,1447858314105,1447858314161,888,436,0,0,0,1,3,2,4,0005-00-0000-51.png,0002-00-0000-71.png
00000009,140,1,1447858317304,1447858317867,433,298,0,0,0,3,4,1,7,0002-00-0001-33.png,0004-00-0001-87.png
00000009,141,0,1447858318814,1447858320035,476,249,0,0,0,4,3,1,7,0004-00-0001-43.png,0002-00-0001-03.png
00000009,142,1,1447858322988,1447858323012,891,373,0,0,0,4,1,3,5,0004-00-0001-92.png,0005-00-0001-16.png
00000009,143,1,1447858324062,1447858324896,1041,266,0,0,0,3,1,2,4,0002-00-0001-31.png,0005-00-0000-03.png
00000009,144,1,1447858326576,1447858327882,471,292,0,0,0,0,3,3,3,0001-00-0000-75.png,0002-00-0000-62.png
00000009,145,0,1447858328890,1447858328926,860,394,0,0,0,1,2,1,3,0005-00-0000-23.png,0003-00-0000-37.png
00000009,146,0,1447858332090,1447858332106,868,334,0,0,0,3,4,1,7,0002-00-0001-74.png,0004-00-0000-58.png
00000009,147,1,1447858335332,1447858335905,453,286,0,0,0,2,4,2,6,0003-00-0001-77.png,0004-00-0000-36.png
00000009,148,1,1447858336931,1447858336975,885,443,0,0,0,4,0,4,4,0004-00-0000-27.png,0001-00-0000-21.png
00000009,149,1,1447858338353,1447858338398,877,458,0,0,0,4,2,2,6,0004-00-0000-16.png,0003-00-0001-39.png
00000009,150,0,1447858339664,1447858339818,896,487,0,0,0,2,3,1,5,0003-00-0000-04.png,0002-00-0001-44.png
00000009,151,0,1447858342705,1447858342789,894,343,0,0,0,0,2,2,2,0001-00-0000-01.png,0003-00-0001-87.png
00000009,152,1,1447858345666,1447858346221,399,414,0,0,0,1,3,2,4,0005-00-0001-88.png,0002-00-0000-85.png
00000009,153,0,1447858347255,1447858347336,872,461,0,0,0,0,1,1,1,0001-00-0001-69.png,0005-00-0001-45.png
00000009,154,1,1447858350445,1447858351103,474,299,0,0,0,0,4,4,4,0001-00-0000-44.png,0004-00-0001-64.png
00000009,155,1,1447858352106,1447858352182,893,442,0,0,0,1,0,1,1,0005-00-0000-48.png,0001-00-0000-84.png
00000009,156,1,1447858353368,1447858353412,864,414,0,0,0,2,1,1,3,0003-00-0000-11.png,0005-00-0000-31.png
00000009,157,1,1447858354748,1447858354840,888,462,0,0,0,2,0,2,2,0003-00-0001-59.png,0001-00-0000-61.png
00000009,158,1,1447858356176,1447858356318,885,495,0,0,0,3,0,3,3,0002-00-0001-74.png,0001-00-0000-44.png
00000009,159,1,1447858357691,1447858357727,890,460,0,0,0,3,2,1,5,0002-00-0000-65.png,0003-00-0001-33.png
00000009,160,0,1447858359213,1447858359367,885,491,0,0,0,1,4,3,5,0005-00-0001-14.png,0004-00-0000-10.png
00000009,161,1,1447858362481,1447858362643,862,348,0,0,0,4,0,4,4,0004-00-0001-43.png,0001-00-0001-10.png
00000009,162,1,1447858363702,1447858363790,861,463,0,0,0,4,3,1,7,0004-00-0001-32.png,0002-00-0001-80.png
00000009,163,0,1447858365140,1447858365180,862,468,0,0,0,1,2,1,3,0005-00-0000-94.png,0003-00-0000-89.png
00000009,164,1,1447858368333,1447858368962,404,387,0,0,0,0,3,3,3,0001-00-0000-27.png,0002-00-0000-56.png
00000009,165,1,1447858369914,1447858370691,468,281,0,0,0,0,4,4,4,0001-00-0000-21.png,0004-00-0000-05.png
00000009,166,1,1447858371853,1447858371917,886,498,0,0,0,3,1,2,4,0002-00-0001-18.png,0005-00-0001-06.png
00000009,167,1,1447858373362,1447858373481,866,486,0,0,0,1,0,1,1,0005-00-0000-34.png,0001-00-0001-41.png
00000009,168,1,1447858374843,1447858374949,889,491,0,0,0,4,2,2,6,0004-00-0001-85.png,0003-00-0001-84.png
00000009,169,0,1447858376333,1447858377176,1031,253,0,0,0,2,4,2,6,0003-00-0000-19.png,0004-00-0001-06.png
00000009,170,0,1447858380069,1447858380093,921,432,0,0,0,1,3,2,4,0005-00-0001-73.png,0002-00-0001-28.png
00000009,171,1,1447858383141,1447858383656,486,305,0,0,0,1,4,3,5,0005-00-0000-22.png,0004-00-0001-94.png
00000009,172,1,1447858384641,1447858385509,1065,281,0,0,0,3,0,3,3,0002-00-0000-85.png,0001-00-0000-07.png
00000009,173,1,1447858386479,1447858386503,859,409,0,0,0,3,2,1,5,0002-00-0000-14.png,0003-00-0001-59.png
00000009,174,1,1447858387864,1447858387928,888,462,0,0,0,2,0,2,2,0003-00-0000-17.png,0001-00-0001-55.png
00000009,175,0,1447858389242,1447858389310,862,488,0,0,0,3,4,1,7,0002-00-0001-82.png,0004-00-0000-16.png
00000009,176,1,1447858392472,1447858393057,1066,277,0,0,0,2,1,1,3,0003-00-0000-00.png,0005-00-0001-03.png
00000009,177,0,1447858393983,1447858394027,863,439,0,0,0,2,3,1,5,0003-00-0000-56.png,0002-00-0000-49.png
00000009,178,0,1447858397184,1447858397790,964,410,0,0,0,0,1,1,1,0001-00-0000-39.png,0005-00-0000-66.png
00000009,179,1,1447858400839,1447858400915,940,329,0,0,0,4,1,3,5,0004-00-0001-78.png,0005-00-0000-35.png
00000009,180,1,1447858401971,1447858402712,450,254,0,0,0,0,2,2,2,0001-00-0000-77.png,0003-00-0001-61.png
00000009,181,1,1447858403671,1447858403715,872,494,0,0,0,4,2,2,6,0004-00-0001-94.png,0003-00-0001-64.png
00000009,182,1,1447858405072,1447858405802,463,261,0,0,0,1,4,3,5,0005-00-0000-07.png,0004-00-0000-17.png
00000009,183,1,1447858407180,1447858407255,884,446,0,0,0,4,1,3,5,0004-00-0001-14.png,0005-00-0001-16.png
00000009,184,0,1447858408502,1447858408613,909,488,0,0,0,0,4,4,4,0001-00-0001-40.png,0004-00-0000-37.png
00000009,185,1,1447858411740,1447858412406,478,278,0,0,0,1,3,2,4,0005-00-0001-12.png,0002-00-0001-19.png
00000009,186,1,1447858413300,1447858414092,941,334,0,0,0,2,0,2,2,0003-00-0001-85.png,0001-00-0000-75.png
00000009,187,1,1447858415040,1447858415805,376,367,0,0,0,0,2,2,2,0001-00-0000-12.png,0003-00-0000-37.png
00000009,188,1,1447858417006,1447858417658,488,268,0,0,0,1,2,1,3,0005-00-0001-98.png,0003-00-0001-49.png
00000009,189,0,1447858418995,1447858419091,862,520,0,0,0,3,4,1,7,0002-00-0001-41.png,0004-00-0001-16.png
00000009,190,1,1447858422245,1447858422281,882,333,0,0,0,4,0,4,4,0004-00-0000-74.png,0001-00-0001-23.png
00000009,191,0,1447858423346,1447858424235,425,401,0,0,0,1,0,1,1,0005-00-0001-85.png,0001-00-0000-47.png
00000009,192,1,1447858427126,1447858427704,942,349,0,0,0,4,3,1,7,0004-00-0000-75.png,0002-00-0001-03.png
00000009,193,1,1447858428615,1447858428659,890,442,0,0,0,3,2,1,5,0002-00-0000-67.png,0003-00-0000-25.png
00000009,194,0,1447858429775,1447858429993,913,528,0,0,0,2,4,2,6,0003-00-0001-84.png,0004-00-0000-48.png
00000009,195,1,1447858433644,1447858434179,482,291,0,0,0,0,1,1,1,0001-00-0001-03.png,0005-00-0000-22.png
00000009,196,1,1447858435192,1447858435915,468,256,0,0,0,0,3,3,3,0001-00-0000-38.png,0002-00-0001-97.png
00000009,197,1,1447858436902,1447858436970,885,468,0,0,0,3,0,3,3,0002-00-0001-01.png,0001-00-0001-53.png
00000009,198,1,1447858438197,1447858438301,886,464,0,0,0,3,1,2,4,0002-00-0001-14.png,0005-00-0001-12.png
00000009,199,0,1447858439556,1447858439691,897,489,0,0,0,2,3,1,5,0003-00-0001-00.png,0002-00-0001-05.png
00000009,200,1,1447858442646,1447858442662,883,332,0,0,0,2,1,1,3,0003-00-0001-35.png,0005-00-0000-68.png
00000009,201,0,1447858443672,1447858443708,863,437,0,0,0,2,3,1,5,0003-00-0001-98.png,0002-00-0000-81.png
00000009,202,0,1447858446771,1447858446807,912,352,0,0,0,1,2,1,3,0005-00-0000-26.png,0003-00-0001-95.png
00000009,203,0,1447858450020,1447858450701,964,400,0,0,0,0,1,1,1,0001-00-0000-23.png,0005-00-0001-91.png
00000009,204,1,1447858453566,1447858454105,1042,282,0,0,0,2,1,1,3,0003-00-0000-08.png,0005-00-0001-44.png
00000009,205,1,1447858455009,1447858455085,861,465,0,0,0,1,0,1,1,0005-00-0001-43.png,0001-00-0001-87.png
00000009,206,1,1447858456292,1447858456384,865,490,0,0,0,3,0,3,3,0002-00-0001-54.png,0001-00-0001-59.png
00000009,207,0,1447858457653,1447858458353,393,337,0,0,0,3,2,1,5,0002-00-0000-24.png,0003-00-0000-19.png
00000009,208,1,1447858466464,1447858467133,1013,276,0,0,0,4,3,1,7,0004-00-0001-43.png,0002-00-0000-59.png
00000009,209,0,1447858468265,1447858468329,862,427,0,0,0,0,2,2,2,0001-00-0001-06.png,0003-00-0001-39.png
00000009,210,0,1447858471375,1447858471928,917,322,0,0,0,2,4,2,6,0003-00-0000-79.png,0004-00-0001-12.png
00000009,211,1,1447858475023,1447858475542,1095,300,0,0,0,2,0,2,2,0003-00-0000-49.png,0001-00-0001-54.png
00000009,212,0,1447858476455,1447858476530,918,412,0,0,0,0,4,4,4,0001-00-0000-80.png,0004-00-0001-48.png
00000009,213,1,1447858479923,1447858480475,1039,277,0,0,0,4,1,3,5,0004-00-0001-79.png,0005-00-0000-72.png
00000009,214,1,1447858481443,1447858481459,889,438,0,0,0,4,0,4,4,0004-00-0000-16.png,0001-00-0001-50.png
00000009,215,0,1447858482645,1447858482721,882,467,0,0,0,3,4,1,7,0002-00-0001-47.png,0004-00-0000-45.png
00000009,216,1,1447858485746,1447858485779,962,360,0,0,0,4,2,2,6,0004-00-0001-18.png,0003-00-0001-45.png
00000009,217,0,1447858486839,1447858486907,860,440,0,0,0,1,3,2,4,0005-00-0000-73.png,0002-00-0001-81.png
00000009,218,0,1447858496698,1447858496706,908,393,0,0,0,0,3,3,3,0001-00-0000-17.png,0002-00-0000-83.png
00000009,219,0,1447858499917,1447858500012,968,272,0,0,0,1,4,3,5,0005-00-0001-45.png,0004-00-0001-15.png
00000009,220,1,1447858503190,1447858503703,1071,250,0,0,0,3,1,2,4,0002-00-0001-82.png,0005-00-0001-42.png
00000009,221,0,1447858504660,1447858504740,888,463,0,0,0,0,2,2,2,0001-00-0000-73.png,0003-00-0001-08.png
00000009,222,1,1447858508058,1447858508573,376,369,0,0,0,0,4,4,4,0001-00-0000-90.png,0004-00-0001-72.png
00000009,223,0,1447858509570,1447858509614,888,450,0,0,0,1,2,1,3,0005-00-0000-17.png,0003-00-0001-06.png
00000009,224,0,1447858512640,1447858513141,447,296,0,0,0,4,2,2,6,0004-00-0000-14.png,0003-00-0001-16.png
00000009,225,0,1447858516028,1447858516057,908,394,0,0,0,1,3,2,4,0005-00-0000-60.png,0002-00-0000-80.png
00000009,226,0,1447858519089,1447858519272,862,398,0,0,0,0,1,1,1,0001-00-0001-11.png,0005-00-0001-10.png
00000009,227,1,1447858522399,1447858522945,960,328,0,0,0,2,1,1,3,0003-00-0001-37.png,0005-00-0001-97.png
00000009,228,0,1447858523899,1447858523963,890,423,0,0,0,3,4,1,7,0002-00-0001-32.png,0004-00-0000-03.png
00000009,229,1,1447858527091,1447858527595,377,388,0,0,0,0,3,3,3,0001-00-0000-69.png,0002-00-0001-02.png
00000009,230,0,1447858528562,1447858528626,865,490,0,0,0,1,4,3,5,0005-00-0000-52.png,0004-00-0000-31.png
00000009,231,0,1447858531810,1447858532353,1053,306,0,0,0,2,3,1,5,0003-00-0001-94.png,0002-00-0000-04.png
00000009,232,1,1447858535470,1447858535594,907,410,0,0,0,3,0,3,3,0002-00-0000-28.png,0001-00-0001-15.png
00000009,233,1,1447858536611,1447858536687,864,485,0,0,0,4,0,4,4,0004-00-0000-68.png,0001-00-0001-12.png
00000009,234,0,1447858537804,1447858538739,941,327,0,0,0,2,4,2,6,0003-00-0001-50.png,0004-00-0000-08.png
00000009,235,0,1447858542084,1447858542603,421,369,0,0,0,3,2,1,5,0002-00-0000-34.png,0003-00-0001-40.png
00000009,236,1,1447858545744,1447858546024,927,331,0,0,0,1,0,1,1,0005-00-0000-78.png,0001-00-0000-13.png
00000009,237,1,1447858547572,1447858548346,939,384,0,0,0,4,1,3,5,0004-00-0000-91.png,0005-00-0000-47.png
00000009,238,1,1447858549281,1447858549325,892,389,0,0,0,2,0,2,2,0003-00-0000-42.png,0001-00-0000-10.png
00000009,239,1,1447858550562,1447858550618,863,463,0,0,0,3,1,2,4,0002-00-0000-42.png,0005-00-0001-84.png
00000009,240,1,1447858551872,1447858553022,1080,306,0,0,0,4,3,1,7,0004-00-0001-96.png,0002-00-0001-77.png
00000009,241,1,1447858554132,1447858554290,936,493,0,0,0,1,0,1,1,0005-00-0001-78.png,0001-00-0000-51.png
00000009,242,1,1447858555781,1447858555865,862,462,0,0,0,3,1,2,4,0002-00-0001-08.png,0005-00-0000-32.png
00000009,243,0,1447858557053,1447858557239,886,539,0,0,0,2,4,2,6,0003-00-0000-54.png,0004-00-0001-84.png
00000009,244,1,1447858560243,1447858560827,466,309,0,0,0,0,2,2,2,0001-00-0000-65.png,0003-00-0001-51.png
00000009,245,1,1447858561804,1447858562705,432,384,0,0,0,3,4,1,7,0002-00-0001-42.png,0004-00-0001-45.png
00000009,246,1,1447858563690,1447858563738,860,456,0,0,0,2,0,2,2,0003-00-0000-35.png,0001-00-0001-05.png
00000009,247,1,1447858565011,1447858565094,884,514,0,0,0,4,2,2,6,0004-00-0001-40.png,0003-00-0000-97.png
00000009,248,1,1447858566612,1447858566659,863,490,0,0,0,3,2,1,5,0002-00-0001-67.png,0003-00-0000-74.png
00000009,249,0,1447858568161,1447858568249,863,541,0,0,0,1,4,3,5,0005-00-0000-81.png,0004-00-0001-69.png
00000009,250,0,1447858571144,1447858571695,962,337,0,0,0,0,3,3,3,0001-00-0001-64.png,0002-00-0000-73.png
00000009,251,1,1447858574569,1447858575326,1067,306,0,0,0,4,0,4,4,0004-00-0000-84.png,0001-00-0001-68.png
00000009,252,1,1447858576262,1447858576318,888,436,0,0,0,4,3,1,7,0004-00-0000-32.png,0002-00-0001-34.png
00000009,253,0,1447858577564,1447858577628,871,448,0,0,0,2,3,1,5,0003-00-0001-99.png,0002-00-0001-91.png
00000009,254,1,1447858580675,1447858581209,394,370,0,0,0,1,3,2,4,0005-00-0001-71.png,0002-00-0001-96.png
00000009,255,0,1447858582164,1447858582268,875,462,0,0,0,1,2,1,3,0005-00-0001-67.png,0003-00-0001-79.png
00000009,256,1,1447858585375,1447858585954,990,332,0,0,0,3,0,3,3,0002-00-0000-98.png,0001-00-0001-49.png
00000009,257,0,1447858586874,1447858586910,897,443,0,0,0,0,4,4,4,0001-00-0001-24.png,0004-00-0001-30.png
00000009,258,1,1447858589754,1447858590378,939,352,0,0,0,4,1,3,5,0004-00-0001-52.png,0005-00-0001-34.png
00000009,259,0,1447858591233,1447858591265,887,440,0,0,0,0,1,1,1,0001-00-0001-61.png,0005-00-0001-09.png
00000009,260,1,1447858594438,1447858594961,975,332,0,0,0,2,1,1,3,0003-00-0000-14.png,0005-00-0001-65.png
00000009,261,0,1447858595928,1447858595992,887,469,0,0,0,3,4,1,7,0002-00-0000-92.png,0004-00-0001-13.png
00000009,262,0,1447858599188,1447858599757,488,251,0,0,0,1,0,1,1,0005-00-0000-13.png,0001-00-0000-39.png
00000009,263,1,1447858602846,1447858603380,1046,256,0,0,0,3,0,3,3,0002-00-0000-95.png,0001-00-0001-18.png
00000009,264,0,1447858604305,1447858604389,909,493,0,0,0,0,2,2,2,0001-00-0001-91.png,0003-00-0001-02.png
00000009,265,1,1447858607465,1447858608197,1090,302,0,0,0,4,2,2,6,0004-00-0000-17.png,0003-00-0001-88.png
00000009,266,1,1447858609225,1447858609320,888,479,0,0,0,2,0,2,2,0003-00-0001-06.png,0001-00-0000-19.png
00000009,267,1,1447858610606,1447858610670,863,491,0,0,0,3,1,2,4,0002-00-0001-70.png,0005-00-0001-75.png
00000009,268,0,1447858611937,1447858612091,881,519,0,0,0,2,4,2,6,0003-00-0000-35.png,0004-00-0001-01.png
00000009,269,1,1447858614966,1447858615481,938,334,0,0,0,4,0,4,4,0004-00-0001-04.png,0001-00-0001-56.png
00000009,270,0,1447858616388,1447858616444,882,443,0,0,0,1,3,2,4,0005-00-0000-99.png,0002-00-0000-55.png
00000009,271,1,1447858619658,1447858619674,888,346,0,0,0,2,1,1,3,0003-00-0000-00.png,0005-00-0001-85.png
00000009,272,0,1447858620712,1447858620788,864,465,0,0,0,0,3,3,3,0001-00-0001-34.png,0002-00-0001-27.png
00000009,273,0,1447858623863,1447858624397,948,337,0,0,0,2,3,1,5,0003-00-0001-72.png,0002-00-0001-10.png
00000009,274,1,1447858627579,1447858628115,467,278,0,0,0,1,4,3,5,0005-00-0000-96.png,0004-00-0000-60.png
00000009,275,0,1447858629090,1447858629154,914,442,0,0,0,1,2,1,3,0005-00-0001-07.png,0003-00-0001-73.png
00000009,276,0,1447858632276,1447858632825,1090,277,0,0,0,0,1,1,1,0001-00-0000-32.png,0005-00-0001-11.png
00000009,277,0,1447858636057,1447858636716,479,274,0,0,0,3,2,1,5,0002-00-0001-64.png,0003-00-0000-99.png
00000009,278,1,1447858640633,1447858641260,1069,275,0,0,0,4,1,3,5,0004-00-0001-03.png,0005-00-0000-50.png
00000009,279,1,1447858642264,1447858642320,918,493,0,0,0,4,3,1,7,0004-00-0001-98.png,0002-00-0000-80.png
00000009,280,0,1447858643540,1447858643627,887,463,0,0,0,0,4,4,4,0001-00-0000-27.png,0004-00-0000-91.png
00000009,281,1,1447858646928,1447858647461,483,286,0,0,0,0,3,3,3,0001-00-0000-18.png,0002-00-0001-90.png
00000009,282,1,1447858648379,1447858648435,909,466,0,0,0,3,1,2,4,0002-00-0001-86.png,0005-00-0000-44.png
00000009,283,0,1447858649611,1447858650459,939,335,0,0,0,2,4,2,6,0003-00-0000-54.png,0004-00-0000-65.png
00000009,284,1,1447858653752,1447858654287,463,421,0,0,0,3,4,1,7,0002-00-0000-07.png,0004-00-0000-82.png
00000009,285,1,1447858655224,1447858655252,859,420,0,0,0,3,0,3,3,0002-00-0001-59.png,0001-00-0000-19.png
00000009,286,1,1447858656584,1447858657520,507,253,0,0,0,0,4,4,4,0001-00-0001-56.png,0004-00-0000-59.png
00000009,287,1,1447858658603,1447858658651,865,463,0,0,0,2,1,1,3,0003-00-0000-81.png,0005-00-0000-16.png
00000009,288,0,1447858660017,1447858660049,867,476,0,0,0,1,4,3,5,0005-00-0001-60.png,0004-00-0000-93.png
00000009,289,1,1447858662946,1447858663858,449,273,0,0,0,1,3,2,4,0005-00-0001-75.png,0002-00-0000-38.png
00000009,290,1,1447858664865,1447858665767,943,311,0,0,0,4,2,2,6,0004-00-0000-97.png,0003-00-0000-82.png
00000009,291,0,1447858666749,1447858666797,913,446,0,0,0,0,1,1,1,0001-00-0000-03.png,0005-00-0001-46.png
00000009,292,0,1447858669646,1447858669726,977,407,0,0,0,2,3,1,5,0003-00-0000-20.png,0002-00-0001-48.png
00000009,293,0,1447858672867,1447858673568,478,305,0,0,0,1,0,1,1,0005-00-0001-51.png,0001-00-0000-82.png
00000009,294,1,1447858676631,1447858677241,964,321,0,0,0,4,0,4,4,0004-00-0001-49.png,0001-00-0001-61.png
00000009,295,1,1447858678240,1447858678296,865,491,0,0,0,4,3,1,7,0004-00-0000-25.png,0002-00-0000-80.png
00000009,296,0,1447858679641,1447858679665,889,462,0,0,0,1,2,1,3,0005-00-0001-55.png,0003-00-0000-13.png
00000009,297,1,1447858682882,1447858683493,1067,279,0,0,0,4,1,3,5,0004-00-0001-35.png,0005-00-0001-30.png
00000009,298,1,1447858684522,1447858684656,914,511,0,0,0,2,0,2,2,0003-00-0000-40.png,0001-00-0000-01.png
00000009,299,1,1447858685904,1447858685984,885,462,0,0,0,3,2,1,5,0002-00-0000-94.png,0003-00-0001-94.png
00000009,300,0,1447858687244,1447858687335,888,488,0,0,0,0,2,2,2,0001-00-0000-03.png,0003-00-0001-13.png
00000009,301,1,1447858690287,1447858690857,487,277,0,0,0,0,2,2,2,0001-00-0000-18.png,0003-00-0001-89.png
00000009,302,0,1447858691815,1447858691879,867,460,0,0,0,3,4,1,7,0002-00-0000-89.png,0004-00-0000-74.png
00000009,303,0,1447858695502,1447858696080,487,259,0,0,0,1,0,1,1,0005-00-0000-57.png,0001-00-0001-33.png
00000009,304,0,1447858699466,1447858699993,1048,279,0,0,0,0,1,1,1,0001-00-0000-73.png,0005-00-0000-87.png
00000009,305,0,1447858705549,1447858706074,1069,255,0,0,0,2,3,1,5,0003-00-0000-10.png,0002-00-0001-10.png
00000009,306,1,1447858710260,1447858710753,479,257,0,0,0,1,2,1,3,0005-00-0001-14.png,0003-00-0000-35.png
00000009,307,1,1447858711719,1447858711767,889,437,0,0,0,4,1,3,5,0004-00-0001-08.png,0005-00-0001-67.png
00000009,308,0,1447858713062,1447858713118,885,438,0,0,0,1,4,3,5,0005-00-0001-13.png,0004-00-0000-85.png
00000009,309,0,1447858717084,1447858717692,491,268,0,0,0,3,2,1,5,0002-00-0000-55.png,0003-00-0000-34.png
00000009,310,0,1447858721221,1447858721875,395,389,0,0,0,3,1,2,4,0002-00-0000-03.png,0005-00-0000-48.png
00000009,311,1,1447858724959,1447858725500,995,433,0,0,0,2,1,1,3,0003-00-0001-25.png,0005-00-0001-02.png
00000009,312,1,1447858726716,1447858727053,990,384,0,0,0,4,0,4,4,0004-00-0000-12.png,0001-00-0001-87.png
00000009,313,1,1447858728784,1447858729518,467,272,0,0,0,1,3,2,4,0005-00-0000-67.png,0002-00-0001-17.png
00000009,314,1,1447858730631,1447858730707,898,442,0,0,0,2,0,2,2,0003-00-0001-38.png,0001-00-0001-54.png
00000009,315,1,1447858732013,1447858732218,888,513,0,0,0,3,0,3,3,0002-00-0000-32.png,0001-00-0001-05.png
00000009,316,0,1447858733523,1447858733642,878,490,0,0,0,2,4,2,6,0003-00-0000-27.png,0004-00-0000-64.png
00000009,317,0,1447858736480,1447858736512,908,327,0,0,0,0,3,3,3,0001-00-0001-79.png,0002-00-0001-08.png
00000009,318,1,1447858739565,1447858740111,1095,274,0,0,0,4,2,2,6,0004-00-0000-84.png,0003-00-0001-75.png
00000009,319,0,1447858741095,1447858741119,867,466,0,0,0,0,4,4,4,0001-00-0001-86.png,0004-00-0001-26.png
00000009,320,1,1447858743943,1447858744618,964,399,0,0,0,4,3,1,7,0004-00-0000-98.png,0002-00-0001-65.png
00000009,321,1,1447858745717,1447858745761,868,489,0,0,0,4,1,3,5,0004-00-0000-04.png,0005-00-0000-59.png
00000009,322,1,1447858747028,1447858747064,863,438,0,0,0,2,0,2,2,0003-00-0000-72.png,0001-00-0000-84.png
00000009,323,0,1447858748429,1447858748496,861,492,0,0,0,0,2,2,2,0001-00-0000-75.png,0003-00-0000-72.png
00000009,324,0,1447858751650,1447858751670,894,361,0,0,0,0,3,3,3,0001-00-0001-20.png,0002-00-0001-72.png
00000009,325,0,1447858754497,1447858755191,964,410,0,0,0,2,3,1,5,0003-00-0001-62.png,0002-00-0000-06.png
00000009,326,0,1447858758863,1447858759398,473,268,0,0,0,1,0,1,1,0005-00-0000-70.png,0001-00-0000-79.png
00000009,327,1,1447858764737,1447858765321,913,420,0,0,0,2,1,1,3,0003-00-0001-94.png,0005-00-0000-88.png
00000009,328,0,1447858766337,1447858766353,889,441,0,0,0,2,4,2,6,0003-00-0001-97.png,0004-00-0000-75.png
00000009,329,0,1447858770181,1447858770773,516,270,0,0,0,4,0,4,4,0004-00-0001-41.png,0001-00-0001-33.png
00000009,330,0,1447858774087,1447858774111,888,332,0,0,0,1,2,1,3,0005-00-0001-05.png,0003-00-0001-26.png
00000009,331,1,1447858792113,1447858792698,471,316,0,0,0,0,4,4,4,0001-00-0000-55.png,0004-00-0001-00.png
00000009,332,1,1447858793895,1447858794045,929,445,0,0,0,3,1,2,4,0002-00-0000-86.png,0005-00-0001-18.png
00000009,333,0,1447858795344,1447858795991,1066,282,0,0,0,0,1,1,1,0001-00-0000-90.png,0005-00-0000-52.png
00000009,334,1,1447858798978,1447858799526,485,264,0,0,0,1,4,3,5,0005-00-0000-35.png,0004-00-0001-26.png
00000009,335,1,1447858800492,1447858800579,862,488,0,0,0,4,2,2,6,0004-00-0000-32.png,0003-00-0000-08.png
00000009,336,0,1447858801684,1447858801891,888,488,0,0,0,1,3,2,4,0005-00-0000-75.png,0002-00-0001-15.png
00000009,337,0,1447858804954,1447858805547,410,351,0,0,0,4,3,1,7,0004-00-0000-90.png,0002-00-0000-06.png
00000009,338,0,1447858808711,1447858809243,491,291,0,0,0,3,0,3,3,0002-00-0001-05.png,0001-00-0000-98.png
00000009,339,1,1447858812349,1447858813068,935,356,0,0,0,3,2,1,5,0002-00-0000-59.png,0003-00-0000-14.png
00000009,340,0,1447858814008,1447858814032,893,429,0,0,0,3,4,1,7,0002-00-0001-87.png,0004-00-0000-17.png
00000009,341,0,1447858817377,1447858817381,881,327,0,0,0,2,4,2,6,0003-00-0000-18.png,0004-00-0001-57.png
00000009,342,0,1447858820297,1447858820353,878,303,0,0,0,2,3,1,5,0003-00-0001-55.png,0002-00-0001-42.png
00000009,343,1,1447858823316,1447858823887,1084,289,0,0,0,3,2,1,5,0002-00-0001-85.png,0003-00-0001-94.png
00000009,344,1,1447858825506,1447858826195,497,260,0,0,0,1,3,2,4,0005-00-0001-02.png,0002-00-0001-12.png
00000009,345,1,1447858827244,1447858827303,914,441,0,0,0,4,1,3,5,0004-00-0001-48.png,0005-00-0000-13.png
00000009,346,1,1447858828546,1447858829525,934,330,0,0,0,4,2,2,6,0004-00-0000-01.png,0003-00-0001-25.png
00000009,347,1,1447858830573,1447858831448,451,267,0,0,0,0,3,3,3,0001-00-0000-42.png,0002-00-0000-18.png
00000009,348,0,1447858833237,1447858833321,886,487,0,0,0,3,4,1,7,0002-00-0000-83.png,0004-00-0001-71.png
00000009,349,1,1447858837072,1447858837100,868,319,0,0,0,4,0,4,4,0004-00-0001-26.png,0001-00-0001-55.png
00000009,350,1,1447858838126,1447858838174,860,498,0,0,0,2,1,1,3,0003-00-0000-43.png,0005-00-0000-97.png
00000009,351,1,1447858839376,1447858840142,1007,279,0,0,0,3,0,3,3,0002-00-0001-95.png,0001-00-0001-39.png
00000009,352,0,1447858841176,1447858841224,906,473,0,0,0,1,4,3,5,0005-00-0000-72.png,0004-00-0001-72.png
00000009,353,0,1447858844565,1447858844589,937,306,0,0,0,0,2,2,2,0001-00-0001-31.png,0003-00-0000-50.png
00000009,354,1,1447858848171,1447858848672,455,268,0,0,0,0,1,1,1,0001-00-0001-47.png,0005-00-0000-72.png
00000009,355,1,1447858849574,1447858849650,890,498,0,0,0,4,3,1,7,0004-00-0000-60.png,0002-00-0000-00.png
00000009,356,1,1447858850856,1447858850880,863,444,0,0,0,1,0,1,1,0005-00-0001-81.png,0001-00-0001-65.png
00000009,357,0,1447858852137,1447858852191,911,442,0,0,0,1,2,1,3,0005-00-0000-13.png,0003-00-0000-20.png
00000009,358,0,1447858856411,1447858856715,988,301,0,0,0,0,4,4,4,0001-00-0001-84.png,0004-00-0000-65.png
00000009,359,1,1447858860076,1447858860677,939,344,0,0,0,3,1,2,4,0002-00-0000-88.png,0005-00-0001-54.png
00000009,360,1,1447858861596,1447858861665,913,436,0,0,0,2,0,2,2,0003-00-0001-11.png,0001-00-0000-75.png
00000009,361,0,1447858862750,1447858862853,888,462,0,0,0,0,1,1,1,0001-00-0000-21.png,0005-00-0000-90.png
00000009,362,0,1447858865922,1447858866452,1069,260,0,0,0,0,3,3,3,0001-00-0000-41.png,0002-00-0001-66.png
00000009,363,1,1447858869498,1447858869770,911,333,0,0,0,3,2,1,5,0002-00-0001-37.png,0003-00-0001-61.png
00000009,364,0,1447858870740,1447858870824,913,464,0,0,0,1,2,1,3,0005-00-0001-00.png,0003-00-0001-70.png
00000009,365,1,1447858873722,1447858873758,936,377,0,0,0,4,2,2,6,0004-00-0000-11.png,0003-00-0000-36.png
00000009,366,1,1447858874866,1447858874910,869,476,0,0,0,4,3,1,7,0004-00-0000-75.png,0002-00-0000-31.png
00000009,367,1,1447858876186,1447858876321,886,489,0,0,0,3,0,3,3,0002-00-0000-50.png,0001-00-0000-07.png
00000009,368,1,1447858877497,1447858878357,490,237,0,0,0,1,4,3,5,0005-00-0001-44.png,0004-00-0000-72.png
00000009,369,1,1447858879325,1447858880428,484,227,0,0,0,2,4,2,6,0003-00-0001-28.png,0004-00-0001-88.png
00000009,370,0,1447858881523,1447858881547,886,493,0,0,0,3,4,1,7,0002-00-0001-89.png,0004-00-0000-08.png
00000009,371,1,1447858884542,1447858884558,862,358,0,0,0,2,0,2,2,0003-00-0001-87.png,0001-00-0001-45.png
00000009,372,0,1447858885563,1447858885623,886,460,0,0,0,0,2,2,2,0001-00-0001-66.png,0003-00-0000-22.png
00000009,373,1,1447858890814,1447858891335,451,277,0,0,0,0,4,4,4,0001-00-0001-44.png,0004-00-0000-87.png
00000009,374,0,1447858892284,1447858892336,902,526,0,0,0,1,3,2,4,0005-00-0000-45.png,0002-00-0001-42.png
00000009,375,1,1447858895613,1447858896208,1073,296,0,0,0,1,0,1,1,0005-00-0000-78.png,0001-00-0000-33.png
00000009,376,1,1447858897720,1447858898429,1019,296,0,0,0,2,1,1,3,0003-00-0001-50.png,0005-00-0000-84.png
00000009,377,1,1447858899327,1447858899367,891,416,0,0,0,3,1,2,4,0002-00-0001-55.png,0005-00-0001-09.png
00000009,378,1,1447858900560,1447858900595,857,491,0,0,0,4,1,3,5,0004-00-0000-84.png,0005-00-0000-35.png
00000009,379,0,1447858901863,1447858901919,863,470,0,0,0,2,3,1,5,0003-00-0001-96.png,0002-00-0001-82.png
00000009,380,1,1447858904882,1447858905422,942,330,0,0,0,4,0,4,4,0004-00-0000-74.png,0001-00-0000-57.png
00000009,381,0,1447858906363,1447858906379,866,488,0,0,0,0,3,3,3,0001-00-0001-09.png,0002-00-0001-65.png
00000009,382,0,1447858910092,1447858910824,462,279,0,0,0,4,3,1,7,0004-00-0001-90.png,0002-00-0001-33.png
00000009,383,1,1447858913857,1447858914467,1060,314,0,0,0,4,2,2,6,0004-00-0000-58.png,0003-00-0000-51.png
00000009,384,1,1447858915427,1447858915515,891,511,0,0,0,1,0,1,1,0005-00-0001-46.png,0001-00-0001-90.png
00000009,385,1,1447858916569,1447858917493,478,218,0,0,0,0,4,4,4,0001-00-0001-18.png,0004-00-0001-16.png
00000009,386,0,1447858918646,1447858918694,860,461,0,0,0,0,1,1,1,0001-00-0000-66.png,0005-00-0000-03.png
00000009,387,1,1447858921914,1447858922451,488,276,0,0,0,3,4,1,7,0002-00-0001-24.png,0004-00-0001-12.png
00000009,388,1,1447858923376,1447858924525,1016,279,0,0,0,4,1,3,5,0004-00-0000-01.png,0005-00-0001-47.png
00000009,389,0,1447858925502,1447858925570,883,491,0,0,0,1,3,2,4,0005-00-0000-43.png,0002-00-0001-58.png
00000009,390,1,1447858928539,1447858929110,1049,268,0,0,0,3,0,3,3,0002-00-0000-98.png,0001-00-0001-66.png
00000009,391,1,1447858929993,1447858930021,892,434,0,0,0,2,1,1,3,0003-00-0000-54.png,0005-00-0000-42.png
00000009,392,1,1447858931126,1447858931850,414,363,0,0,0,0,2,2,2,0001-00-0001-59.png,0003-00-0000-36.png
00000009,393,0,1447858933135,1447858933207,860,489,0,0,0,2,3,1,5,0003-00-0001-51.png,0002-00-0000-92.png
00000009,394,0,1447858936751,1447858936779,873,378,0,0,0,2,4,2,6,0003-00-0000-08.png,0004-00-0000-18.png
00000009,395,1,1447858939829,1447858940419,421,403,0,0,0,1,4,3,5,0005-00-0000-98.png,0004-00-0001-43.png
00000009,396,1,1447858941381,1447858942441,933,341,0,0,0,3,1,2,4,0002-00-0000-99.png,0005-00-0001-59.png
00000009,397,1,1447858943329,1447858943432,938,473,0,0,0,4,0,4,4,0004-00-0001-11.png,0001-00-0001-41.png
00000009,398,0,1447858944454,1447858944506,860,487,0,0,0,1,2,1,3,0005-00-0001-67.png,0003-00-0000-73.png
00000009,399,1,1447858947552,1447858948168,1065,257,0,0,0,3,2,1,5,0002-00-0000-27.png,0003-00-0001-05.png
00000009,400,1,1447858949698,1447858949766,865,469,0,0,0,2,0,2,2,0003-00-0001-58.png,0001-00-0001-75.png
00000009,401,1,1447858950833,1447858950917,867,518,0,0,0,3,0,3,3,0002-00-0000-74.png,0001-00-0001-28.png
00000009,402,1,1447858952082,1447858952158,860,500,0,0,0,4,2,2,6,0004-00-0000-56.png,0003-00-0000-70.png
00000009,403,1,1447858953416,1447858954171,443,370,0,0,0,0,1,1,1,0001-00-0000-71.png,0005-00-0000-67.png
00000009,404,1,1447858955653,1447858956584,1016,267,0,0,0,2,0,2,2,0003-00-0000-82.png,0001-00-0000-33.png
00000009,405,1,1447858958165,1447858958785,1035,325,0,0,0,1,0,1,1,0005-00-0001-67.png,0001-00-0001-49.png
00000009,406,1,1447858959797,1447858959813,859,438,0,0,0,4,3,1,7,0004-00-0000-34.png,0002-00-0000-01.png
00000009,407,0,1447858961138,1447858961162,863,459,0,0,0,1,2,1,3,0005-00-0001-19.png,0003-00-0001-17.png
00000009,408,0,1447858964277,1447858964313,908,330,0,0,0,1,3,2,4,0005-00-0000-70.png,0002-00-0001-73.png
00000009,409,1,1447858967419,1447858967443,910,333,0,0,0,3,1,2,4,0002-00-0001-35.png,0005-00-0000-27.png
00000009,410,1,1447858968429,1447858969500,914,338,0,0,0,4,1,3,5,0004-00-0000-21.png,0005-00-0001-99.png
00000009,411,0,1447858970438,1447858970466,885,438,0,0,0,0,3,3,3,0001-00-0000-87.png,0002-00-0000-55.png
00000009,412,1,1447858973295,1447858973449,1012,277,0,0,0,4,0,4,4,0004-00-0001-67.png,0001-00-0001-31.png
00000009,413,1,1447858974464,1447858974520,880,526,0,0,0,2,1,1,3,0003-00-0000-90.png,0005-00-0001-49.png
00000009,414,1,1447858975624,1447858975721,861,515,0,0,0,3,2,1,5,0002-00-0000-89.png,0003-00-0000-83.png
00000009,415,0,1447858977026,1447858977124,879,495,0,0,0,3,4,1,7,0002-00-0000-50.png,0004-00-0000-65.png
00000009,416,0,1447858980067,1447858980630,1065,296,0,0,0,2,3,1,5,0003-00-0000-25.png,0002-00-0001-52.png
00000009,417,0,1447858983864,1447858984551,915,255,0,0,0,2,4,2,6,0003-00-0001-92.png,0004-00-0001-11.png
00000009,418,1,1447858994522,1447858994994,451,269,0,0,0,1,4,3,5,0005-00-0001-44.png,0004-00-0001-05.png
00000009,419,0,1447858996082,1447858996158,859,515,0,0,0,0,2,2,2,0001-00-0000-14.png,0003-00-0001-01.png
00000009,420,0,1447858999600,1447859000137,1044,280,0,0,0,0,4,4,4,0001-00-0001-78.png,0004-00-0000-73.png
00000009,421,1,1447859003224,1447859003288,884,333,0,0,0,4,3,1,7,0004-00-0000-63.png,0002-00-0001-61.png
00000009,422,0,1447859004281,1447859004329,859,491,0,0,0,0,4,4,4,0001-00-0000-90.png,0004-00-0000-95.png
00000009,423,1,1447859007432,1447859008052,1068,276,0,0,0,1,0,1,1,0005-00-0000-25.png,0001-00-0000-88.png
00000009,424,0,1447859009030,1447859009106,883,498,0,0,0,0,1,1,1,0001-00-0000-50.png,0005-00-0001-59.png
00000009,425,0,1447859012361,1447859012425,934,336,0,0,0,2,3,1,5,0003-00-0001-80.png,0002-00-0000-57.png
00000009,426,1,1447859015710,1447859016303,490,271,0,0,0,0,2,2,2,0001-00-0001-07.png,0003-00-0000-86.png
00000009,427,1,1447859017330,1447859018125,463,269,0,0,0,2,4,2,6,0003-00-0001-87.png,0004-00-0001-83.png
00000009,428,1,1447859019129,1447859019153,909,475,0,0,0,3,0,3,3,0002-00-0001-31.png,0001-00-0001-28.png
00000009,429,1,1447859020361,1447859021192,501,248,0,0,0,1,4,3,5,0005-00-0000-18.png,0004-00-0001-11.png
00000009,430,1,1447859022178,1447859022222,880,520,0,0,0,2,0,2,2,0003-00-0001-37.png,0001-00-0001-31.png
00000009,431,0,1447859023521,1447859023553,859,463,0,0,0,0,3,3,3,0001-00-0000-21.png,0002-00-0000-21.png
00000009,432,1,1447859026689,1447859027314,964,410,0,0,0,3,2,1,5,0002-00-0001-58.png,0003-00-0000-83.png
00000009,433,0,1447859028250,1447859028274,862,469,0,0,0,3,4,1,7,0002-00-0001-97.png,0004-00-0000-83.png
00000009,434,1,1447859031461,1447859031685,869,320,0,0,0,3,1,2,4,0002-00-0000-14.png,0005-00-0001-04.png
00000009,435,1,1447859033249,1447859033313,862,491,0,0,0,4,2,2,6,0004-00-0001-52.png,0003-00-0001-65.png
00000009,436,1,1447859034381,1447859035462,487,266,0,0,0,1,3,2,4,0005-00-0000-29.png,0002-00-0000-80.png
00000009,437,1,1447859036529,1447859036573,888,518,0,0,0,4,1,3,5,0004-00-0001-09.png,0005-00-0001-46.png
00000009,438,1,1447859037812,1447859037836,864,494,0,0,0,2,1,1,3,0003-00-0000-70.png,0005-00-0001-25.png
00000009,439,1,1447859039261,1447859040107,964,442,0,0,0,4,0,4,4,0004-00-0000-04.png,0001-00-0001-13.png
00000009,440,1,1447859041755,1447859042540,518,276,0,0,0,1,2,1,3,0005-00-0001-29.png,0003-00-0001-55.png
00000009,441,0,1447859043772,1447859043836,907,499,0,0,0,0,2,2,2,0001-00-0001-83.png,0003-00-0000-35.png
00000009,442,1,1447859046981,1447859047517,1065,325,0,0,0,4,3,1,7,0004-00-0000-00.png,0002-00-0001-23.png
00000009,443,1,1447859048988,1447859049673,484,283,0,0,0,3,4,1,7,0002-00-0000-87.png,0004-00-0001-88.png
00000009,444,0,1447859051306,1447859051350,865,447,0,0,0,2,4,2,6,0003-00-0001-16.png,0004-00-0001-21.png
00000009,445,1,1447859054448,1447859054961,968,334,0,0,0,4,0,4,4,0004-00-0001-32.png,0001-00-0001-83.png
00000009,446,1,1447859055927,1447859055939,879,489,0,0,0,3,2,1,5,0002-00-0000-28.png,0003-00-0000-19.png
00000009,447,1,1447859056908,1447859057754,466,410,0,0,0,0,3,3,3,0001-00-0000-09.png,0002-00-0000-64.png
00000009,448,1,1447859059344,1447859060062,931,377,0,0,0,2,0,2,2,0003-00-0001-60.png,0001-00-0000-72.png
00000009,449,1,1447859061649,1447859062345,499,283,0,0,0,0,1,1,1,0001-00-0001-45.png,0005-00-0000-35.png
00000009,450,1,1447859064302,1447859065024,939,317,0,0,0,4,1,3,5,0004-00-0000-21.png,0005-00-0001-46.png
00000009,451,0,1447859065990,1447859066892,1067,294,0,0,0,1,3,2,4,0005-00-0000-66.png,0002-00-0001-54.png
00000009,452,1,1447859069827,1447859069871,882,366,0,0,0,4,2,2,6,0004-00-0001-06.png,0003-00-0001-43.png
00000009,453,1,1447859071306,1447859071905,411,346,0,0,0,1,4,3,5,0005-00-0001-31.png,0004-00-0000-31.png
00000009,454,0,1447859073126,1447859073154,862,463,0,0,0,0,4,4,4,0001-00-0001-16.png,0004-00-0001-22.png
00000009,455,1,1447859075993,1447859076759,501,267,0,0,0,1,2,1,3,0005-00-0000-25.png,0003-00-0001-70.png
00000009,456,1,1447859077676,1447859078551,1041,279,0,0,0,3,1,2,4,0002-00-0000-31.png,0005-00-0001-49.png
00000009,457,1,1447859079472,1447859079512,914,462,0,0,0,2,1,1,3,0003-00-0000-54.png,0005-00-0001-96.png
00000009,458,1,1447859080635,1447859080722,888,462,0,0,0,3,0,3,3,0002-00-0001-65.png,0001-00-0000-39.png
00000009,459,1,1447859082307,1447859082354,862,462,0,0,0,1,0,1,1,0005-00-0001-19.png,0001-00-0000-69.png
00000009,460,0,1447859083760,1447859083785,860,464,0,0,0,2,3,1,5,0003-00-0000-29.png,0002-00-0001-12.png
00000009,461,0,1447859086788,1447859086853,935,383,0,0,0,3,4,1,7,0002-00-0001-58.png,0004-00-0000-49.png
00000009,462,0,1447859089829,1447859090661,482,244,0,0,0,1,0,1,1,0005-00-0001-21.png,0001-00-0000-68.png
00000009,463,1,1447859093785,1447859093833,888,370,0,0,0,4,2,2,6,0004-00-0000-81.png,0003-00-0001-41.png
00000009,464,1,1447859094816,1447859094844,858,433,0,0,0,4,0,4,4,0004-00-0000-61.png,0001-00-0000-84.png
00000009,465,1,1447859096031,1447859096142,861,492,0,0,0,3,2,1,5,0002-00-0001-12.png,0003-00-0000-02.png
00000009,466,1,1447859097324,1447859098011,494,251,0,0,0,1,3,2,4,0005-00-0000-69.png,0002-00-0001-98.png
00000009,467,0,1447859099062,1447859100148,961,424,0,0,0,2,3,1,5,0003-00-0000-84.png,0002-00-0001-01.png
00000009,468,1,1447859103036,1447859103564,488,251,0,0,0,0,4,4,4,0001-00-0001-10.png,0004-00-0001-77.png
00000009,469,1,1447859104506,1447859105446,491,259,0,0,0,0,1,1,1,0001-00-0000-53.png,0005-00-0001-00.png
00000009,470,1,1447859106425,1447859107185,927,314,0,0,0,4,1,3,5,0004-00-0001-56.png,0005-00-0000-85.png
00000009,471,0,1447859108081,1447859108141,913,410,0,0,0,0,2,2,2,0001-00-0001-28.png,0003-00-0000-81.png
00000009,472,0,1447859112991,1447859113588,1039,277,0,0,0,2,4,2,6,0003-00-0000-70.png,0004-00-0000-18.png
00000009,473,1,1447859119473,1447859119976,923,354,0,0,0,2,0,2,2,0003-00-0001-71.png,0001-00-0001-44.png
00000009,474,1,1447859121461,1447859122358,1016,294,0,0,0,2,1,1,3,0003-00-0000-66.png,0005-00-0001-29.png
00000009,475,0,1447859123268,1447859123324,883,485,0,0,0,0,3,3,3,0001-00-0000-93.png,0002-00-0000-61.png
00000009,476,0,1447859126468,1447859127116,481,311,0,0,0,3,0,3,3,0002-00-0000-92.png,0001-00-0000-29.png
00000009,477,1,1447859130265,1447859130281,862,358,0,0,0,3,1,2,4,0002-00-0000-40.png,0005-00-0001-50.png
00000009,478,1,1447859131228,1447859132201,461,238,0,0,0,1,4,3,5,0005-00-0001-47.png,0004-00-0001-63.png
00000009,479,1,1447859133127,1447859134070,1037,257,0,0,0,4,3,1,7,0004-00-0001-88.png,0002-00-0000-47.png
00000009,480,1,1447859135025,1447859135785,458,311,0,0,0,1,2,1,3,0005-00-0000-06.png,0003-00-0001-69.png
00000009,481,1,1447859136861,1447859137625,493,249,0,0,0,0,3,3,3,0001-00-0000-84.png,0002-00-0001-36.png
00000009,482,1,1447859138723,1447859139561,951,325,0,0,0,2,1,1,3,0003-00-0000-61.png,0005-00-0001-58.png
00000009,483,1,1447859140538,1447859140594,862,453,0,0,0,4,3,1,7,0004-00-0001-98.png,0002-00-0000-46.png
00000009,484,1,1447859142008,1447859142841,513,258,0,0,0,0,1,1,1,0001-00-0001-07.png,0005-00-0000-85.png
00000009,485,1,1447859144274,1447859144961,1040,288,0,0,0,1,0,1,1,0005-00-0001-78.png,0001-00-0000-18.png
00000009,486,1,1447859145931,1447859146014,908,519,0,0,0,3,1,2,4,0002-00-0000-62.png,0005-00-0001-41.png
00000009,487,0,1447859147672,1447859148511,508,286,0,0,0,3,2,1,5,0002-00-0001-49.png,0003-00-0000-26.png
00000009,488,1,1447859151438,1447859151458,860,434,0,0,0,4,2,2,6,0004-00-0001-93.png,0003-00-0001-53.png
00000009,489,1,1447859152464,1447859153828,910,351,0,0,0,4,1,3,5,0004-00-0000-43.png,0005-00-0001-22.png
00000009,490,0,1447859154798,1447859154834,912,485,0,0,0,2,4,2,6,0003-00-0001-45.png,0004-00-0000-51.png
00000009,491,1,1447859157741,1447859157757,865,447,0,0,0,4,0,4,4,0004-00-0001-64.png,0001-00-0000-34.png
00000009,492,0,1447859158783,1447859158803,860,440,0,0,0,0,2,2,2,0001-00-0001-58.png,0003-00-0000-00.png
00000009,493,0,1447859161764,1447859161784,865,398,0,0,0,1,2,1,3,0005-00-0000-62.png,0003-00-0000-88.png
00000009,494,0,1447859164915,1447859164931,863,353,0,0,0,0,4,4,4,0001-00-0000-37.png,0004-00-0001-32.png
00000009,495,0,1447859167955,1447859167979,880,342,0,0,0,1,3,2,4,0005-00-0000-21.png,0002-00-0000-65.png
00000009,496,1,1447859171162,1447859171686,965,351,0,0,0,3,0,3,3,0002-00-0000-07.png,0001-00-0000-68.png
00000009,497,0,1447859172606,1447859172630,891,436,0,0,0,2,3,1,5,0003-00-0001-71.png,0002-00-0001-70.png
00000009,498,0,1447859175855,1447859175891,894,323,0,0,0,3,4,1,7,0002-00-0001-16.png,0004-00-0001-82.png
00000009,499,1,1447859179068,1447859179102,931,319,0,0,0,2,0,2,2,0003-00-0000-99.png,0001-00-0000-94.png
00000009,500,1,1447859180108,1447859180784,495,250,0,0,0,1,4,3,5,0005-00-0000-75.png,0004-00-0001-65.png
00000009,501,0,1447859181719,1447859181785,862,436,0,0,0,0,2,2,2,0001-00-0001-59.png,0003-00-0000-83.png
00000009,502,1,1447859185018,1447859185634,515,267,0,0,0,1,3,2,4,0005-00-0000-92.png,0002-00-0000-73.png
00000009,503,0,1447859186518,1447859186542,886,458,0,0,0,2,3,1,5,0003-00-0001-52.png,0002-00-0000-12.png
00000009,504,0,1447859189719,1447859189767,938,332,0,0,0,0,1,1,1,0001-00-0001-68.png,0005-00-0000-09.png
00000009,505,1,1447859192667,1447859192723,938,448,0,0,0,3,0,3,3,0002-00-0000-42.png,0001-00-0001-51.png
00000009,506,1,1447859193732,1447859194716,1039,268,0,0,0,4,0,4,4,0004-00-0000-04.png,0001-00-0000-85.png
00000009,507,1,1447859195767,1447859195851,912,437,0,0,0,4,1,3,5,0004-00-0001-71.png,0005-00-0001-70.png
00000009,508,1,1447859197043,1447859197756,491,255,0,0,0,0,4,4,4,0001-00-0000-04.png,0004-00-0000-18.png
00000009,509,1,1447859198871,1447859198899,879,437,0,0,0,2,1,1,3,0003-00-0000-51.png,0005-00-0000-89.png
00000009,510,0,1447859200243,1447859201268,1054,279,0,0,0,2,4,2,6,0003-00-0001-56.png,0004-00-0000-71.png
00000009,511,1,1447859204414,1447859204454,934,349,0,0,0,4,3,1,7,0004-00-0000-82.png,0002-00-0001-69.png
00000009,512,1,1447859205400,1447859206394,514,253,0,0,0,1,2,1,3,0005-00-0000-25.png,0003-00-0000-95.png
00000009,513,0,1447859207327,1447859208599,487,252,0,0,0,1,0,1,1,0005-00-0000-73.png,0001-00-0001-34.png
00000009,514,1,1447859211450,1447859212000,488,280,0,0,0,1,4,3,5,0005-00-0000-04.png,0004-00-0000-94.png
00000009,515,1,1447859212964,1447859214300,478,265,0,0,0,3,4,1,7,0002-00-0001-38.png,0004-00-0000-91.png
00000009,516,1,1447859215257,1447859215313,886,466,0,0,0,3,1,2,4,0002-00-0000-87.png,0005-00-0001-72.png
00000009,517,1,1447859216601,1447859216675,864,500,0,0,0,4,2,2,6,0004-00-0001-11.png,0003-00-0001-02.png
00000009,518,1,1447859218011,1447859218977,1015,279,0,0,0,2,0,2,2,0003-00-0000-87.png,0001-00-0000-27.png
00000009,519,0,1447859219918,1447859219938,906,431,0,0,0,0,3,3,3,0001-00-0000-42.png,0002-00-0000-02.png
00000009,520,1,1447859223146,1447859223174,859,337,0,0,0,3,2,1,5,0002-00-0001-17.png,0003-00-0000-26.png
00000009,521,1,1447859224172,1447859224789,498,285,0,0,0,0,4,4,4,0001-00-0000-36.png,0004-00-0000-71.png
00000009,522,0,1447859225801,1447859225837,879,466,0,0,0,2,4,2,6,0003-00-0000-41.png,0004-00-0000-50.png
00000009,523,1,1447859228734,1447859229285,441,371,0,0,0,1,4,3,5,0005-00-0000-27.png,0004-00-0000-15.png
00000009,524,0,1447859230304,1447859231237,934,342,0,0,0,2,3,1,5,0003-00-0000-08.png,0002-00-0000-23.png
00000009,525,0,1447859234098,1447859234146,964,436,0,0,0,0,2,2,2,0001-00-0001-90.png,0003-00-0001-36.png
00000009,526,0,1447859237161,1447859237197,868,409,0,0,0,0,1,1,1,0001-00-0001-93.png,0005-00-0000-87.png
00000009,527,1,1447859240311,1447859240327,888,358,0,0,0,2,1,1,3,0003-00-0001-92.png,0005-00-0000-80.png
00000009,528,1,1447859241324,1447859242139,929,338,0,0,0,4,3,1,7,0004-00-0001-91.png,0002-00-0000-90.png
00000009,529,0,1447859243112,1447859243156,860,441,0,0,0,1,3,2,4,0005-00-0000-84.png,0002-00-0001-53.png
00000009,530,1,1447859246055,1447859246075,926,440,0,0,0,4,2,2,6,0004-00-0001-80.png,0003-00-0000-32.png
00000009,531,1,1447859247057,1447859247085,880,485,0,0,0,4,1,3,5,0004-00-0001-83.png,0005-00-0001-09.png
00000009,532,1,1447859248409,1447859249358,1049,279,0,0,0,4,0,4,4,0004-00-0001-10.png,0001-00-0001-38.png
00000009,533,1,1447859250318,1447859251525,478,251,0,0,0,1,2,1,3,0005-00-0001-74.png,0003-00-0000-01.png
00000009,534,1,1447859252649,1447859252661,862,467,0,0,0,3,2,1,5,0002-00-0000-03.png,0003-00-0000-09.png
00000009,535,0,1447859253994,1447859254030,862,462,0,0,0,0,3,3,3,0001-00-0001-16.png,0002-00-0001-12.png
00000009,536,1,1447859256873,1447859257622,491,269,0,0,0,3,4,1,7,0002-00-0001-42.png,0004-00-0001-93.png
00000009,537,1,1447859258613,1447859259636,1051,279,0,0,0,2,0,2,2,0003-00-0001-09.png,0001-00-0000-64.png
00000009,538,1,1447859260594,1447859261503,946,329,0,0,0,3,1,2,4,0002-00-0001-27.png,0005-00-0001-84.png
00000009,539,1,1447859263106,1447859263190,862,462,0,0,0,3,0,3,3,0002-00-0000-26.png,0001-00-0000-55.png
00000009,540,1,1447859264446,1447859264454,864,470,0,0,0,1,0,1,1,0005-00-0000-58.png,0001-00-0000-99.png
00000009,541,0,1447859265857,1447859265913,865,491,0,0,0,0,4,4,4,0001-00-0001-55.png,0004-00-0001-74.png
00000009,542,1,1447859269038,1447859269078,873,332,0,0,0,4,1,3,5,0004-00-0000-01.png,0005-00-0000-42.png
00000009,543,1,1447859270021,1447859270049,880,475,0,0,0,4,0,4,4,0004-00-0000-67.png,0001-00-0000-50.png
00000009,544,0,1447859270997,1447859272056,913,317,0,0,0,2,4,2,6,0003-00-0000-60.png,0004-00-0001-94.png
00000009,545,0,1447859274965,1447859275046,949,479,0,0,0,1,4,3,5,0005-00-0000-38.png,0004-00-0001-35.png
00000009,546,1,1447859278279,1447859278315,875,358,0,0,0,4,2,2,6,0004-00-0000-70.png,0003-00-0001-31.png
00000009,547,1,1447859279372,1447859280190,470,261,0,0,0,0,2,2,2,0001-00-0000-93.png,0003-00-0000-99.png
00000009,548,1,1447859281778,1447859281858,873,509,0,0,0,4,3,1,7,0004-00-0001-62.png,0002-00-0001-30.png
00000009,549,1,1447859283020,1447859283096,869,531,0,0,0,3,2,1,5,0002-00-0000-15.png,0003-00-0000-61.png
00000009,550,1,1447859284500,1447859285536,1041,279,0,0,0,1,0,1,1,0005-00-0000-76.png,0001-00-0000-03.png
00000009,551,1,1447859286538,1447859287699,1067,279,0,0,0,3,1,2,4,0002-00-0001-95.png,0005-00-0000-17.png
00000009,552,0,1447859288793,1447859288837,888,514,0,0,0,3,4,1,7,0002-00-0000-35.png,0004-00-0000-91.png
00000009,553,1,1447859291982,1447859292012,877,355,0,0,0,2,0,2,2,0003-00-0000-20.png,0001-00-0000-87.png
00000009,554,0,1447859292949,1447859292992,859,484,0,0,0,2,3,1,5,0003-00-0000-85.png,0002-00-0001-61.png
00000009,555,0,1447859296245,1447859296249,913,333,0,0,0,0,3,3,3,0001-00-0000-92.png,0002-00-0000-76.png
00000009,556,0,1447859299196,1447859299811,946,324,0,0,0,0,1,1,1,0001-00-0000-49.png,0005-00-0001-33.png
00000009,557,1,1447859302954,1447859303467,477,279,0,0,0,1,3,2,4,0005-00-0000-03.png,0002-00-0000-34.png
00000009,558,1,1447859304427,1447859305249,497,258,0,0,0,1,2,1,3,0005-00-0001-77.png,0003-00-0001-12.png
00000009,559,1,1447859306710,1447859307522,1053,267,0,0,0,2,1,1,3,0003-00-0000-33.png,0005-00-0001-21.png
00000009,560,1,1447859308487,1447859308523,868,399,0,0,0,3,0,3,3,0002-00-0001-29.png,0001-00-0001-25.png
00000009,561,1,1447859309780,1447859309840,880,506,0,0,0,2,1,1,3,0003-00-0000-65.png,0005-00-0000-25.png
00000009,562,1,1447859311220,1447859311236,857,492,0,0,0,3,0,3,3,0002-00-0000-90.png,0001-00-0001-11.png
00000009,563,1,1447859312672,1447859312740,857,520,0,0,0,3,2,1,5,0002-00-0001-50.png,0003-00-0001-05.png
00000009,564,0,1447859314104,1447859314129,861,489,0,0,0,2,4,2,6,0003-00-0000-17.png,0004-00-0001-04.png
00000009,565,0,1447859317370,1447859317378,862,358,0,0,0,0,2,2,2,0001-00-0000-57.png,0003-00-0000-78.png
00000009,566,0,1447859320481,1447859320505,873,344,0,0,0,1,2,1,3,0005-00-0001-81.png,0003-00-0001-56.png
00000009,567,1,1447859323582,1447859324135,1041,279,0,0,0,1,0,1,1,0005-00-0000-48.png,0001-00-0000-64.png
00000009,568,1,1447859325003,1447859325027,896,461,0,0,0,4,0,4,4,0004-00-0001-26.png,0001-00-0000-89.png
00000009,569,1,1447859326146,1447859326865,415,381,0,0,0,0,4,4,4,0001-00-0001-32.png,0004-00-0001-32.png
00000009,570,1,1447859328080,1447859329317,506,246,0,0,0,3,4,1,7,0002-00-0001-17.png,0004-00-0000-72.png
00000009,571,0,1447859330359,1447859330399,884,439,0,0,0,2,3,1,5,0003-00-0000-49.png,0002-00-0001-55.png
00000009,572,1,1447859333350,1447859333873,510,273,0,0,0,0,3,3,3,0001-00-0001-93.png,0002-00-0001-41.png
00000009,573,1,1447859334899,1447859335640,505,277,0,0,0,0,1,1,1,0001-00-0001-56.png,0005-00-0001-64.png
00000009,574,1,1447859336630,1447859336667,877,478,0,0,0,3,1,2,4,0002-00-0000-61.png,0005-00-0000-44.png
00000009,575,1,1447859337840,1447859338688,499,245,0,0,0,1,3,2,4,0005-00-0000-32.png,0002-00-0000-38.png
00000009,576,1,1447859340385,1447859340409,861,455,0,0,0,4,1,3,5,0004-00-0001-37.png,0005-00-0000-17.png
00000009,577,1,1447859341566,1447859342345,1053,280,0,0,0,2,0,2,2,0003-00-0000-30.png,0001-00-0000-24.png
00000009,578,1,1447859343458,1447859344576,1027,279,0,0,0,4,3,1,7,0004-00-0001-64.png,0002-00-0000-34.png
00000009,579,0,1447859345591,1447859345603,883,465,0,0,0,1,4,3,5,0005-00-0001-44.png,0004-00-0000-20.png
00000009,580,0,1447859348553,1447859349148,478,397,0,0,0,4,2,2,6,0004-00-0001-46.png,0003-00-0001-34.png
00000009,581,1,1447859352310,1447859352853,1076,295,0,0,0,4,1,3,5,0004-00-0001-89.png,0005-00-0000-99.png
00000009,582,1,1447859353810,1447859353850,861,436,0,0,0,4,2,2,6,0004-00-0001-10.png,0003-00-0001-45.png
00000009,583,1,1447859354973,1447859355911,917,307,0,0,0,3,0,3,3,0002-00-0001-00.png,0001-00-0000-17.png
00000009,584,0,1447859357030,1447859357050,909,394,0,0,0,3,4,1,7,0002-00-0000-16.png,0004-00-0000-70.png
00000009,585,1,1447859360110,1447859360142,885,370,0,0,0,3,1,2,4,0002-00-0000-53.png,0005-00-0000-94.png
00000009,586,1,1447859361193,1447859361900,1041,251,0,0,0,4,0,4,4,0004-00-0001-14.png,0001-00-0000-70.png
00000009,587,1,1447859362823,1447859364313,1015,319,0,0,0,2,0,2,2,0003-00-0000-04.png,0001-00-0000-38.png
00000009,588,1,1447859365318,1447859366037,491,279,0,0,0,0,3,3,3,0001-00-0000-87.png,0002-00-0001-25.png
00000009,589,1,1447859367124,1447859368155,519,239,0,0,0,2,4,2,6,0003-00-0000-34.png,0004-00-0000-28.png
00000009,590,1,1447859369818,1447859370502,970,322,0,0,0,2,1,1,3,0003-00-0001-31.png,0005-00-0001-20.png
00000009,591,0,1447859371419,1447859371443,889,408,0,0,0,0,4,4,4,0001-00-0000-31.png,0004-00-0000-33.png
00000009,592,1,1447859374568,1447859375061,501,267,0,0,0,1,3,2,4,0005-00-0001-78.png,0002-00-0001-36.png
00000009,593,0,1447859375968,1447859375976,858,516,0,0,0,1,2,1,3,0005-00-0001-23.png,0003-00-0001-33.png
00000009,594,0,1447859379040,1447859379080,888,358,0,0,0,0,1,1,1,0001-00-0001-19.png,0005-00-0000-85.png
00000009,595,1,1447859382250,1447859382735,504,293,0,0,0,0,2,2,2,0001-00-0001-03.png,0003-00-0001-79.png
00000009,596,0,1447859383612,1447859383648,869,512,0,0,0,2,3,1,5,0003-00-0001-15.png,0002-00-0000-19.png
00000009,597,1,1447859387121,1447859387653,507,276,0,0,0,1,4,3,5,0005-00-0001-70.png,0004-00-0000-21.png
00000009,598,0,1447859388658,1447859389607,489,265,0,0,0,1,0,1,1,0005-00-0001-04.png,0001-00-0001-23.png
00000009,599,1,1447859392475,1447859392531,921,422,0,0,0,3,2,1,5,0002-00-0001-22.png,0003-00-0000-31.png
00000009,600,0,1447859393560,1447859394172,513,266,0,0,0,4,3,1,7,0004-00-0000-37.png,0002-00-0001-21.png
00000009,601,1,1447859397086,1447859397142,895,436,0,0,0,2,0,2,2,0003-00-0001-88.png,0001-00-0000-35.png
00000009,602,1,1447859398159,1447859399198,475,261,0,0,0,1,3,2,4,0005-00-0000-78.png,0002-00-0001-33.png
00000009,603,1,1447859400177,1447859400193,883,462,0,0,0,3,1,2,4,0002-00-0001-48.png,0005-00-0000-48.png
00000009,604,0,1447859401459,1447859402658,517,257,0,0,0,3,2,1,5,0002-00-0000-45.png,0003-00-0000-19.png
00000009,605,1,1447859405833,1447859406385,499,267,0,0,0,0,3,3,3,0001-00-0000-34.png,0002-00-0001-86.png
00000009,606,0,1447859407361,1447859408069,424,385,0,0,0,3,0,3,3,0002-00-0000-98.png,0001-00-0000-73.png
00000009,607,1,1447859411075,1447859411637,1039,301,0,0,0,1,0,1,1,0005-00-0000-44.png,0001-00-0000-71.png
00000009,608,0,1447859412556,1447859412584,903,415,0,0,0,0,4,4,4,0001-00-0001-17.png,0004-00-0001-98.png
00000009,609,1,1447859415728,1447859416366,404,375,0,0,0,3,4,1,7,0002-00-0000-44.png,0004-00-0001-61.png
00000009,610,1,1447859417380,1447859417415,882,411,0,0,0,2,1,1,3,0003-00-0000-90.png,0005-00-0001-45.png
00000009,611,1,1447859418721,1447859418843,862,503,0,0,0,4,0,4,4,0004-00-0000-43.png,0001-00-0000-20.png
00000009,612,1,1447859420140,1447859421172,478,410,0,0,0,2,4,2,6,0003-00-0001-57.png,0004-00-0000-20.png
00000009,613,0,1447859422179,1447859422187,864,445,0,0,0,0,1,1,1,0001-00-0000-97.png,0005-00-0001-02.png
00000009,614,0,1447859425050,1447859425350,1014,325,0,0,0,2,3,1,5,0003-00-0000-33.png,0002-00-0000-21.png
00000009,615,1,1447859428306,1447859429043,1059,309,0,0,0,4,1,3,5,0004-00-0000-51.png,0005-00-0001-27.png
00000009,616,0,1447859429970,1447859431080,1067,270,0,0,0,0,2,2,2,0001-00-0001-17.png,0003-00-0000-64.png
00000009,617,0,1447859434987,1447859435023,882,337,0,0,0,1,4,3,5,0005-00-0001-52.png,0004-00-0000-79.png
00000009,618,0,1447859438239,1447859438819,509,281,0,0,0,4,3,1,7,0004-00-0000-07.png,0002-00-0000-27.png
00000009,619,1,1447859441713,1447859442227,504,293,0,0,0,1,2,1,3,0005-00-0001-18.png,0003-00-0001-27.png
00000009,620,1,1447859443215,1447859443235,870,440,0,0,0,4,2,2,6,0004-00-0001-42.png,0003-00-0001-02.png
00000009,621,1,1447859444478,1447859444565,862,501,0,0,0,4,1,3,5,0004-00-0000-33.png,0005-00-0001-31.png
00000009,622,1,1447859445789,1447859446953,511,241,0,0,0,2,3,1,5,0003-00-0001-08.png,0002-00-0001-21.png
00000009,623,1,1447859447995,1447859448031,881,435,0,0,0,3,1,2,4,0002-00-0001-68.png,0005-00-0000-50.png
00000009,624,0,1447859449286,1447859450218,504,265,0,0,0,4,3,1,7,0004-00-0000-17.png,0002-00-0000-83.png
00000009,625,1,1447859453332,1447859454292,490,272,0,0,0,0,4,4,4,0001-00-0001-25.png,0004-00-0001-50.png
00000009,626,1,1447859455269,1447859456123,495,266,0,0,0,0,1,1,1,0001-00-0001-98.png,0005-00-0000-49.png
00000009,627,0,1447859457137,1447859457803,489,239,0,0,0,1,0,1,1,0005-00-0001-97.png,0001-00-0000-05.png
00000009,628,1,1447859460993,1447859461604,940,332,0,0,0,2,0,2,2,0003-00-0001-03.png,0001-00-0001-80.png
00000009,629,1,1447859462641,1447859463428,923,337,0,0,0,4,0,4,4,0004-00-0000-96.png,0001-00-0000-50.png
00000009,630,0,1447859464432,1447859464495,882,494,0,0,0,2,4,2,6,0003-00-0001-92.png,0004-00-0000-51.png
00000009,631,1,1447859467530,1447859468155,1041,294,0,0,0,2,1,1,3,0003-00-0001-26.png,0005-00-0000-08.png
00000009,632,0,1447859469639,1447859469722,857,499,0,0,0,1,3,2,4,0005-00-0000-56.png,0002-00-0001-50.png
00000009,633,1,1447859472727,1447859473253,515,270,0,0,0,1,4,3,5,0005-00-0000-39.png,0004-00-0000-42.png
00000009,634,1,1447859474248,1447859474319,862,488,0,0,0,3,0,3,3,0002-00-0001-24.png,0001-00-0000-00.png
00000009,635,0,1447859475838,1447859476526,442,374,0,0,0,3,2,1,5,0002-00-0001-68.png,0003-00-0001-59.png
00000009,636,0,1447859479523,1447859479611,968,392,0,0,0,1,2,1,3,0005-00-0000-24.png,0003-00-0001-77.png
00000009,637,1,1447859482764,1447859482792,887,349,0,0,0,4,2,2,6,0004-00-0001-60.png,0003-00-0000-49.png
00000009,638,1,1447859483865,1447859484626,511,225,0,0,0,0,2,2,2,0001-00-0001-70.png,0003-00-0000-04.png
00000009,639,0,1447859485686,1447859485714,884,458,0,0,0,3,4,1,7,0002-00-0000-66.png,0004-00-0000-81.png
00000009,640,0,1447859488927,1447859488943,938,333,0,0,0,0,3,3,3,0001-00-0001-22.png,0002-00-0001-16.png
00000009,641,1,1447859492006,1447859492570,964,399,0,0,0,3,2,1,5,0002-00-0001-68.png,0003-00-0000-28.png
00000009,642,0,1447859493537,1447859493565,858,438,0,0,0,1,4,3,5,0005-00-0000-46.png,0004-00-0001-55.png
00000009,643,0,1447859496668,1447859496692,895,342,0,0,0,0,3,3,3,0001-00-0000-88.png,0002-00-0000-22.png
00000009,644,0,1447859499748,1447859500070,964,288,0,0,0,3,4,1,7,0002-00-0000-42.png,0004-00-0001-76.png
00000009,645,0,1447859502936,1447859503043,889,396,0,0,0,2,3,1,5,0003-00-0001-84.png,0002-00-0001-47.png
00000009,646,0,1447859506352,1447859506376,878,340,0,0,0,1,2,1,3,0005-00-0000-42.png,0003-00-0000-71.png
00000009,647,1,1447859509307,1447859509343,862,426,0,0,0,3,0,3,3,0002-00-0000-23.png,0001-00-0000-58.png
00000009,648,1,1447859510410,1447859511122,485,254,0,0,0,0,4,4,4,0001-00-0000-42.png,0004-00-0000-83.png
00000009,649,1,1447859512219,1447859513165,1051,277,0,0,0,3,1,2,4,0002-00-0001-40.png,0005-00-0000-22.png
00000009,650,1,1447859514233,1447859514253,909,437,0,0,0,2,0,2,2,0003-00-0000-53.png,0001-00-0000-03.png
00000009,651,1,1447859515566,1447859515642,879,514,0,0,0,4,3,1,7,0004-00-0000-47.png,0002-00-0001-68.png
00000009,652,1,1447859516917,1447859516945,873,462,0,0,0,4,0,4,4,0004-00-0001-19.png,0001-00-0000-93.png
00000009,653,1,1447859518250,1447859518286,862,488,0,0,0,4,1,3,5,0004-00-0001-11.png,0005-00-0001-50.png
00000009,654,0,1447859519760,1447859519796,871,443,0,0,0,1,3,2,4,0005-00-0000-46.png,0002-00-0000-49.png
00000009,655,0,1447859522969,1447859523216,866,358,0,0,0,0,2,2,2,0001-00-0001-33.png,0003-00-0001-60.png
00000009,656,1,1447859526320,1447859526367,872,358,0,0,0,4,2,2,6,0004-00-0000-74.png,0003-00-0000-34.png
00000009,657,1,1447859527359,1447859528236,1041,283,0,0,0,2,1,1,3,0003-00-0001-48.png,0005-00-0001-22.png
00000009,658,1,1447859529185,1447859529213,863,443,0,0,0,1,0,1,1,0005-00-0001-46.png,0001-00-0000-95.png
00000009,659,1,1447859530618,1447859531396,495,236,0,0,0,2,4,2,6,0003-00-0001-26.png,0004-00-0001-09.png
00000009,660,0,1447859532454,1447859532474,883,493,0,0,0,0,1,1,1,0001-00-0001-04.png,0005-00-0000-29.png
00000009,661,1,1447859535518,1447859536236,938,333,0,0,0,1,0,1,1,0005-00-0001-37.png,0001-00-0000-69.png
00000009,662,0,1447859537156,1447859537176,882,445,0,0,0,0,4,4,4,0001-00-0001-45.png,0004-00-0001-21.png
00000009,663,1,1447859540335,1447859540878,964,426,0,0,0,2,0,2,2,0003-00-0001-33.png,0001-00-0001-43.png
00000009,664,1,1447859541755,1447859542709,944,326,0,0,0,4,2,2,6,0004-00-0001-68.png,0003-00-0000-64.png
00000009,665,0,1447859543733,1447859543775,896,412,0,0,0,0,2,2,2,0001-00-0000-80.png,0003-00-0000-73.png
00000009,666,1,1447859546982,1447859547523,1049,279,0,0,0,4,1,3,5,0004-00-0001-36.png,0005-00-0000-79.png
00000009,667,0,1447859548383,1447859548431,890,448,0,0,0,0,3,3,3,0001-00-0001-64.png,0002-00-0000-32.png
00000009,668,1,1447859551772,1447859551788,862,332,0,0,0,2,1,1,3,0003-00-0001-89.png,0005-00-0001-12.png
00000009,669,1,1447859552846,1447859553812,504,271,0,0,0,1,2,1,3,0005-00-0000-96.png,0003-00-0000-93.png
00000009,670,0,1447859554735,1447859554785,905,462,0,0,0,1,3,2,4,0005-00-0001-12.png,0002-00-0000-88.png
00000009,671,0,1447859557943,1447859558459,487,279,0,0,0,3,1,2,4,0002-00-0000-38.png,0005-00-0001-98.png
00000009,672,1,1447859561310,1447859561584,866,445,0,0,0,3,0,3,3,0002-00-0000-49.png,0001-00-0000-87.png
00000009,673,0,1447859562604,1447859562652,894,488,0,0,0,0,1,1,1,0001-00-0001-12.png,0005-00-0000-40.png
00000009,674,0,1447859565876,1447859565892,888,349,0,0,0,2,4,2,6,0003-00-0001-48.png,0004-00-0000-08.png
00000009,675,1,1447859568904,1447859569004,1021,356,0,0,0,4,3,1,7,0004-00-0001-34.png,0002-00-0001-57.png
00000009,676,0,1447859570039,1447859570112,873,474,0,0,0,3,4,1,7,0002-00-0000-89.png,0004-00-0001-86.png
00000009,677,0,1447859573676,1447859573712,888,349,0,0,0,1,4,3,5,0005-00-0000-94.png,0004-00-0000-06.png
00000009,678,0,1447859576738,1447859577579,478,291,0,0,0,3,2,1,5,0002-00-0000-61.png,0003-00-0000-00.png
00000009,679,1,1447859580752,1447859580812,888,358,0,0,0,4,0,4,4,0004-00-0001-75.png,0001-00-0000-67.png
00000009,680,0,1447859581815,1447859581867,884,489,0,0,0,2,3,1,5,0003-00-0000-53.png,0002-00-0000-49.png
00000009,681,1,1447859585045,1447859585092,888,348,0,0,0,4,0,4,4,0004-00-0000-71.png,0001-00-0001-50.png
00000009,682,0,1447859586088,1447859586128,860,463,0,0,0,0,1,1,1,0001-00-0001-16.png,0005-00-0000-85.png
00000009,683,1,1447859589159,1447859589724,488,429,0,0,0,1,4,3,5,0005-00-0001-05.png,0004-00-0000-62.png
00000009,684,0,1447859590689,1447859590725,858,465,0,0,0,1,2,1,3,0005-00-0001-76.png,0003-00-0000-01.png
00000009,685,1,1447859593938,1447859594485,496,270,0,0,0,0,3,3,3,0001-00-0000-19.png,0002-00-0000-79.png
00000009,686,1,1447859595448,1447859595481,884,466,0,0,0,4,3,1,7,0004-00-0000-62.png,0002-00-0001-42.png
00000009,687,1,1447859596790,1447859596913,873,523,0,0,0,4,1,3,5,0004-00-0000-38.png,0005-00-0001-39.png
00000009,688,0,1447859598271,1447859598319,862,488,0,0,0,1,3,2,4,0005-00-0001-47.png,0002-00-0001-59.png
00000009,689,1,1447859601219,1447859601769,1192,359,0,0,0,2,0,2,2,0003-00-0001-24.png,0001-00-0001-57.png
00000009,690,1,1447859602710,1447859603999,485,248,0,0,0,2,4,2,6,0003-00-0000-21.png,0004-00-0001-10.png
00000009,691,1,1447859604999,1447859605015,892,498,0,0,0,4,2,2,6,0004-00-0000-09.png,0003-00-0000-23.png
00000009,692,0,1447859606449,1447859607239,420,347,0,0,0,1,0,1,1,0005-00-0001-09.png,0001-00-0001-22.png
00000009,693,0,1447859610095,1447859610191,950,430,0,0,0,0,4,4,4,0001-00-0001-94.png,0004-00-0001-50.png
00000009,694,1,1447859613065,1447859613563,478,293,0,0,0,3,4,1,7,0002-00-0001-24.png,0004-00-0000-18.png
00000009,695,0,1447859614519,1447859614547,883,430,0,0,0,0,2,2,2,0001-00-0001-69.png,0003-00-0001-53.png
00000009,696,0,1447859617491,1447859618071,415,358,0,0,0,3,2,1,5,0002-00-0000-50.png,0003-00-0001-06.png
00000009,697,1,1447859621113,1447859621960,1088,281,0,0,0,3,0,3,3,0002-00-0000-87.png,0001-00-0001-00.png
00000009,698,1,1447859622894,1447859622982,916,469,0,0,0,2,1,1,3,0003-00-0000-07.png,0005-00-0000-17.png
00000009,699,0,1447859624174,1447859624315,871,514,0,0,0,2,3,1,5,0003-00-0001-17.png,0002-00-0001-97.png
00000009,700,1,1447859627307,1447859627822,939,337,0,0,0,3,1,2,4,0002-00-0000-61.png,0005-00-0000-64.png
00000009,701,0,1447859628726,1447859628766,858,437,0,0,0,0,1,1,1,0001-00-0000-46.png,0005-00-0001-79.png
00000009,702,0,1447859631949,1447859631973,888,332,0,0,0,0,3,3,3,0001-00-0001-76.png,0002-00-0000-29.png
00000009,703,1,1447859634901,1447859635461,923,323,0,0,0,3,2,1,5,0002-00-0000-07.png,0003-00-0001-61.png
00000009,704,1,1447859636381,1447859636417,878,494,0,0,0,4,3,1,7,0004-00-0001-12.png,0002-00-0000-55.png
00000009,705,1,1447859637583,1447859638390,1041,279,0,0,0,2,1,1,3,0003-00-0000-50.png,0005-00-0000-32.png
00000009,706,0,1447859639332,1447859639376,908,446,0,0,0,3,4,1,7,0002-00-0001-93.png,0004-00-0001-10.png
00000009,707,1,1447859642362,1447859642883,1064,277,0,0,0,4,1,3,5,0004-00-0000-46.png,0005-00-0001-85.png
00000009,708,1,1447859643824,1447859643852,858,461,0,0,0,4,2,2,6,0004-00-0001-66.png,0003-00-0001-13.png
00000009,709,1,1447859644977,1447859646154,492,238,0,0,0,0,4,4,4,0001-00-0001-21.png,0004-00-0001-14.png
00000009,710,1,1447859647430,1447859648215,1038,301,0,0,0,3,0,3,3,0002-00-0000-54.png,0001-00-0000-58.png
00000009,711,1,1447859649221,1447859649325,885,524,0,0,0,2,0,2,2,0003-00-0001-22.png,0001-00-0000-02.png
00000009,712,1,1447859650710,1447859651661,1041,331,0,0,0,4,0,4,4,0004-00-0001-93.png,0001-00-0000-05.png
00000009,713,1,1447859652687,1447859652722,905,476,0,0,0,1,0,1,1,0005-00-0000-99.png,0001-00-0000-64.png
00000009,714,1,1447859654097,1447859654133,879,463,0,0,0,3,1,2,4,0002-00-0001-76.png,0005-00-0001-84.png
00000009,715,1,1447859655667,1447859656551,472,263,0,0,0,2,4,2,6,0003-00-0000-14.png,0004-00-0000-73.png
00000009,716,0,1447859657654,1447859657682,886,508,0,0,0,1,4,3,5,0005-00-0000-33.png,0004-00-0000-97.png
00000009,717,0,1447859660566,1447859660578,867,406,0,0,0,2,3,1,5,0003-00-0000-49.png,0002-00-0000-46.png
00000009,718,0,1447859663678,1447859663746,916,377,0,0,0,0,2,2,2,0001-00-0001-85.png,0003-00-0001-09.png
00000009,719,1,1447859666787,1447859667321,502,278,0,0,0,1,2,1,3,0005-00-0001-56.png,0003-00-0000-18.png
00000009,720,0,1447859668259,1447859668275,865,435,0,0,0,1,3,2,4,0005-00-0001-22.png,0002-00-0000-80.png
00000009,721,1,1447859671380,1447859671432,965,344,0,0,0,4,0,4,4,0004-00-0001-26.png,0001-00-0000-85.png
00000009,722,1,1447859672402,1447859672498,874,497,0,0,0,4,3,1,7,0004-00-0000-55.png,0002-00-0001-11.png
00000009,723,1,1447859673752,1447859673819,873,462,0,0,0,3,0,3,3,0002-00-0000-59.png,0001-00-0000-91.png
00000009,724,1,1447859675016,1447859675966,1028,291,0,0,0,4,2,2,6,0004-00-0000-72.png,0003-00-0000-86.png
00000009,725,0,1447859676933,1447859676965,864,463,0,0,0,2,3,1,5,0003-00-0001-44.png,0002-00-0000-08.png
00000009,726,1,1447859679934,1447859680010,862,397,0,0,0,3,1,2,4,0002-00-0000-09.png,0005-00-0001-61.png
00000009,727,1,1447859681017,1447859681923,919,313,0,0,0,4,1,3,5,0004-00-0000-81.png,0005-00-0001-17.png
00000009,728,1,1447859682895,1447859682919,862,465,0,0,0,2,0,2,2,0003-00-0000-15.png,0001-00-0000-11.png
00000009,729,1,1447859684238,1447859684286,879,469,0,0,0,1,0,1,1,0005-00-0001-77.png,0001-00-0000-28.png
00000009,730,0,1447859685460,1447859685527,862,514,0,0,0,0,3,3,3,0001-00-0000-97.png,0002-00-0001-25.png
00000009,731,1,1447859692998,1447859693556,474,272,0,0,0,0,1,1,1,0001-00-0000-69.png,0005-00-0000-68.png
00000009,732,1,1447859695146,1447859695699,1016,289,0,0,0,2,1,1,3,0003-00-0000-14.png,0005-00-0000-31.png
00000009,733,0,1447859697262,1447859697298,862,436,0,0,0,0,2,2,2,0001-00-0000-81.png,0003-00-0000-72.png
00000009,734,1,1447859700294,1447859700943,1056,279,0,0,0,3,2,1,5,0002-00-0000-53.png,0003-00-0001-12.png
00000009,735,0,1447859701813,1447859701849,873,514,0,0,0,0,4,4,4,0001-00-0000-01.png,0004-00-0000-95.png
00000009,736,1,1447859704726,1447859705252,484,292,0,0,0,1,2,1,3,0005-00-0001-30.png,0003-00-0000-65.png
00000009,737,1,1447859706156,1447859707232,411,388,0,0,0,1,4,3,5,0005-00-0001-12.png,0004-00-0000-81.png
00000009,738,0,1447859708860,1447859709584,948,341,0,0,0,2,4,2,6,0003-00-0001-18.png,0004-00-0000-56.png
00000009,739,1,1447859712644,1447859713191,514,281,0,0,0,1,3,2,4,0005-00-0001-89.png,0002-00-0000-97.png
00000009,740,1,1447859714146,1447859715245,504,266,0,0,0,3,4,1,7,0002-00-0001-01.png,0004-00-0000-70.png
00000009,741,0,1447859716323,1447859717258,1047,296,0,0,0,2,3,1,5,0003-00-0001-46.png,0002-00-0001-47.png
00000009,742,1,1447859720282,1447859720853,505,261,0,0,0,1,2,1,3,0005-00-0000-20.png,0003-00-0000-81.png
00000009,743,1,1447859721799,1447859722898,980,335,0,0,0,3,1,2,4,0002-00-0001-52.png,0005-00-0001-88.png
00000009,744,0,1447859723974,1447859724002,908,561,0,0,0,2,4,2,6,0003-00-0001-83.png,0004-00-0000-84.png
00000009,745,1,1447859727474,1447859728008,916,328,0,0,0,2,1,1,3,0003-00-0001-57.png,0005-00-0000-45.png
00000009,746,1,1447859729430,1447859730137,478,264,0,0,0,0,3,3,3,0001-00-0000-60.png,0002-00-0000-78.png
00000009,747,1,1447859731020,1447859732080,1034,299,0,0,0,4,2,2,6,0004-00-0001-59.png,0003-00-0001-71.png
00000009,748,1,1447859733148,1447859734087,927,332,0,0,0,4,1,3,5,0004-00-0000-11.png,0005-00-0000-70.png
00000009,749,1,1447859735115,1447859735912,504,244,0,0,0,1,3,2,4,0005-00-0000-86.png,0002-00-0000-35.png
00000009,750,0,1447859736931,1447859737860,1016,310,0,0,0,0,1,1,1,0001-00-0000-30.png,0005-00-0000-94.png
00000009,751,1,1447859740818,1447859741352,504,295,0,0,0,1,4,3,5,0005-00-0001-92.png,0004-00-0001-76.png
00000009,752,1,1447859742298,1447859742349,878,443,0,0,0,4,3,1,7,0004-00-0001-10.png,0002-00-0001-11.png
00000009,753,1,1447859743560,1447859744507,938,355,0,0,0,3,2,1,5,0002-00-0001-28.png,0003-00-0001-83.png
00000009,754,1,1447859745489,1447859745529,888,462,0,0,0,2,0,2,2,0003-00-0000-53.png,0001-00-0001-80.png
00000009,755,1,1447859746821,1447859746833,908,463,0,0,0,4,0,4,4,0004-00-0000-83.png,0001-00-0000-95.png
00000009,756,0,1447859748152,1447859748266,871,548,0,0,0,0,2,2,2,0001-00-0000-36.png,0003-00-0001-77.png
00000009,757,1,1447859751439,1447859752296,906,340,0,0,0,3,0,3,3,0002-00-0000-54.png,0001-00-0001-05.png
00000009,758,0,1447859753250,1447859753286,873,435,0,0,0,3,4,1,7,0002-00-0000-52.png,0004-00-0001-88.png
00000009,759,0,1447859756270,1447859756290,885,414,0,0,0,0,4,4,4,0001-00-0001-08.png,0004-00-0000-49.png
00000009,760,1,1447859759438,1447859759572,868,348,0,0,0,1,0,1,1,0005-00-0000-90.png,0001-00-0000-21.png
00000009,761,0,1447859760604,1447859761430,1021,282,0,0,0,1,3,2,4,0005-00-0000-36.png,0002-00-0000-29.png
00000009,762,1,1447859764390,1447859764974,413,358,0,0,0,0,1,1,1,0001-00-0001-13.png,0005-00-0001-50.png
00000009,763,1,1447859765961,1447859766746,1043,270,0,0,0,2,0,2,2,0003-00-0001-64.png,0001-00-0000-38.png
00000009,764,1,1447859768315,1447859769377,928,335,0,0,0,3,2,1,5,0002-00-0000-77.png,0003-00-0000-54.png
00000009,765,0,1447859770401,1447859770448,873,462,0,0,0,1,4,3,5,0005-00-0001-05.png,0004-00-0001-85.png
00000009,766,0,1447859773454,1447859773482,904,441,0,0,0,0,3,3,3,0001-00-0000-70.png,0002-00-0000-19.png
00000009,767,1,1447859776474,1447859777228,467,274,0,0,0,1,2,1,3,0005-00-0001-12.png,0003-00-0000-01.png
00000009,768,1,1447859778081,1447859779715,386,371,0,0,0,2,4,2,6,0003-00-0000-46.png,0004-00-0000-25.png
00000009,769,1,1447859780788,1447859781978,1041,279,0,0,0,4,2,2,6,0004-00-0000-59.png,0003-00-0001-10.png
00000009,770,1,1447859782902,1447859782934,883,446,0,0,0,2,1,1,3,0003-00-0001-69.png,0005-00-0000-42.png
00000009,771,1,1447859784145,1447859784153,862,492,0,0,0,4,3,1,7,0004-00-0001-20.png,0002-00-0001-07.png
00000009,772,0,1447859785208,1447859786101,497,287,0,0,0,1,0,1,1,0005-00-0001-45.png,0001-00-0001-44.png
00000009,773,1,1447859789433,1447859789948,493,287,0,0,0,0,4,4,4,0001-00-0001-27.png,0004-00-0000-12.png
00000009,774,1,1447859790841,1447859791791,930,368,0,0,0,3,1,2,4,0002-00-0000-75.png,0005-00-0001-03.png
00000009,775,0,1447859792832,1447859792884,880,530,0,0,0,0,2,2,2,0001-00-0001-28.png,0003-00-0001-55.png
00000009,776,1,1447859795921,1447859796694,408,387,0,0,0,2,3,1,5,0003-00-0000-41.png,0002-00-0001-54.png
00000009,777,1,1447859797669,1447859798502,923,326,0,0,0,4,0,4,4,0004-00-0001-49.png,0001-00-0000-38.png
00000009,778,1,1447859799507,1447859799535,862,475,0,0,0,4,1,3,5,0004-00-0000-12.png,0005-00-0000-24.png
00000009,779,1,1447859800571,1447859801299,516,277,0,0,0,3,4,1,7,0002-00-0001-37.png,0004-00-0000-11.png
00000009,780,1,1447859802409,1447859802445,874,488,0,0,0,3,0,3,3,0002-00-0000-16.png,0001-00-0000-72.png
00000009,781,1,1447859803628,1447859803688,863,473,0,0,0,3,2,1,5,0002-00-0000-47.png,0003-00-0000-41.png
00000009,782,0,1447859805062,1447859805125,877,488,0,0,0,2,3,1,5,0003-00-0000-79.png,0002-00-0000-31.png
00000009,783,1,1447859808193,1447859809204,494,275,0,0,0,0,1,1,1,0001-00-0000-55.png,0005-00-0001-88.png
00000009,784,1,1447859810161,1447859811487,482,258,0,0,0,3,4,1,7,0002-00-0000-27.png,0004-00-0001-90.png
00000009,785,1,1447859812426,1447859812446,890,495,0,0,0,4,3,1,7,0004-00-0001-08.png,0002-00-0001-28.png
00000009,786,1,1447859813668,1447859813704,858,451,0,0,0,4,2,2,6,0004-00-0000-78.png,0003-00-0000-15.png
00000009,787,0,1447859814910,1447859814938,868,485,0,0,0,1,2,1,3,0005-00-0000-44.png,0003-00-0000-95.png
00000009,788,0,1447859818117,1447859818729,504,292,0,0,0,2,0,2,2,0003-00-0000-41.png,0001-00-0001-34.png
00000009,789,0,1447859821923,1447859821962,891,373,0,0,0,0,4,4,4,0001-00-0000-02.png,0004-00-0001-59.png
00000009,790,0,1447859824953,1447859825607,504,279,0,0,0,4,1,3,5,0004-00-0000-91.png,0005-00-0000-19.png
00000009,791,1,1447859828731,1447859828751,888,384,0,0,0,1,0,1,1,0005-00-0000-84.png,0001-00-0001-01.png
00000009,792,0,1447859829763,1447859830569,430,347,0,0,0,3,0,3,3,0002-00-0000-97.png,0001-00-0000-92.png
00000009,793,1,1447859833690,1447859834264,494,285,0,0,0,1,3,2,4,0005-00-0001-27.png,0002-00-0000-51.png
00000009,794,1,1447859835242,1447859836030,1040,297,0,0,0,3,1,2,4,0002-00-0000-24.png,0005-00-0000-00.png
00000009,795,1,1447859837002,1447859837038,877,482,0,0,0,2,1,1,3,0003-00-0000-51.png,0005-00-0001-55.png
00000009,796,0,1447859838201,1447859838253,862,462,0,0,0,0,3,3,3,0001-00-0000-99.png,0002-00-0001-37.png
00000009,797,0,1447859841492,1447859841762,873,373,0,0,0,2,4,2,6,0003-00-0000-19.png,0004-00-0001-35.png
00000009,798,1,1447859844642,1447859845153,938,327,0,0,0,4,0,4,4,0004-00-0000-25.png,0001-00-0001-20.png
00000009,799,0,1447859846054,1447859846090,908,455,0,0,0,1,4,3,5,0005-00-0000-78.png,0004-00-0001-05.png
00000009,800,1,1447859849124,1447859849625,513,293,0,0,0,0,2,2,2,0001-00-0000-56.png,0003-00-0001-51.png
00000009,801,0,1447859850573,1447859850621,864,438,0,0,0,2,4,2,6,0003-00-0001-17.png,0004-00-0001-58.png
00000009,802,1,1447859853566,1447859854327,939,394,0,0,0,3,2,1,5,0002-00-0000-76.png,0003-00-0000-75.png
00000009,803,0,1447859855214,1447859855242,883,457,0,0,0,3,4,1,7,0002-00-0001-70.png,0004-00-0001-85.png
00000009,804,1,1447859858424,1447859859187,939,367,0,0,0,4,2,2,6,0004-00-0000-85.png,0003-00-0000-77.png
00000009,805,1,1447859860133,1447859860145,888,462,0,0,0,3,0,3,3,0002-00-0001-73.png,0001-00-0000-24.png
00000009,806,1,1447859861266,1447859861301,858,471,0,0,0,2,1,1,3,0003-00-0001-58.png,0005-00-0001-49.png
00000009,807,1,1447859862506,1447859862536,862,488,0,0,0,3,1,2,4,0002-00-0001-83.png,0005-00-0001-06.png
00000009,808,1,1447859863860,1447859864604,399,371,0,0,0,1,4,3,5,0005-00-0000-06.png,0004-00-0000-48.png
00000009,809,1,1447859865774,1447859866923,453,423,0,0,0,2,3,1,5,0003-00-0000-48.png,0002-00-0000-13.png
00000009,810,0,1447859867884,1447859867914,865,462,0,0,0,0,2,2,2,0001-00-0001-28.png,0003-00-0001-13.png
00000009,811,1,1447859871073,1447859871702,1063,275,0,0,0,4,0,4,4,0004-00-0000-27.png,0001-00-0000-37.png
00000009,812,1,1447859872562,1447859872570,864,455,0,0,0,2,0,2,2,0003-00-0001-10.png,0001-00-0001-50.png
00000009,813,1,1447859873488,1447859874669,1027,306,0,0,0,4,3,1,7,0004-00-0001-10.png,0002-00-0000-22.png
00000009,814,0,1447859875647,1447859875706,877,436,0,0,0,0,4,4,4,0001-00-0001-76.png,0004-00-0001-58.png
00000009,815,1,1447859878875,1447859879537,511,282,0,0,0,1,3,2,4,0005-00-0000-53.png,0002-00-0001-01.png
00000009,816,0,1447859880461,1447859880512,882,477,0,0,0,0,1,1,1,0001-00-0001-87.png,0005-00-0001-16.png
00000009,817,1,1447859883646,1447859884263,964,372,0,0,0,4,1,3,5,0004-00-0001-06.png,0005-00-0001-96.png
00000009,818,0,1447859885172,1447859886255,982,333,0,0,0,1,2,1,3,0005-00-0000-83.png,0003-00-0001-92.png
00000009,819,0,1447859889150,1447859889653,494,281,0,0,0,1,0,1,1,0005-00-0001-89.png,0001-00-0000-26.png
00000009,820,0,1447859892826,1447859892862,888,368,0,0,0,0,3,3,3,0001-00-0001-74.png,0002-00-0000-23.png
00000009,821,1,1447859896006,1447859896018,925,355,0,0,0,4,1,3,5,0004-00-0000-75.png,0005-00-0001-55.png
00000009,822,1,1447859897050,1447859897767,508,242,0,0,0,1,4,3,5,0005-00-0000-94.png,0004-00-0001-94.png
00000009,823,1,1447859898710,1447859898754,862,474,0,0,0,1,0,1,1,0005-00-0000-27.png,0001-00-0000-53.png
00000009,824,1,1447859899924,1447859899964,879,468,0,0,0,4,3,1,7,0004-00-0001-12.png,0002-00-0001-11.png
00000009,825,1,1447859901157,1447859901185,857,464,0,0,0,2,1,1,3,0003-00-0001-73.png,0005-00-0000-26.png
00000009,826,1,1447859902487,1447859902558,862,529,0,0,0,2,0,2,2,0003-00-0001-69.png,0001-00-0000-40.png
00000009,827,0,1447859904037,1447859904092,880,475,0,0,0,0,2,2,2,0001-00-0000-02.png,0003-00-0001-36.png
00000009,828,1,1447859907207,1447859907235,885,387,0,0,0,4,0,4,4,0004-00-0001-99.png,0001-00-0001-61.png
00000009,829,0,1447859908211,1447859909412,1040,316,0,0,0,1,2,1,3,0005-00-0001-35.png,0003-00-0001-06.png
00000009,830,1,1447859912374,1447859913230,1067,287,0,0,0,3,1,2,4,0002-00-0001-92.png,0005-00-0000-36.png
00000009,831,0,1447859914174,1447859914206,914,481,0,0,0,0,1,1,1,0001-00-0000-81.png,0005-00-0000-47.png
00000009,832,1,1447859917153,1447859918040,504,271,0,0,0,2,4,2,6,0003-00-0001-81.png,0004-00-0001-49.png
00000009,833,1,1447859918992,1447859919877,1041,290,0,0,0,4,2,2,6,0004-00-0001-74.png,0003-00-0000-26.png
00000009,834,0,1447859920831,1447859920859,889,461,0,0,0,3,4,1,7,0002-00-0000-10.png,0004-00-0001-51.png
00000009,835,1,1447859924021,1447859924558,1069,292,0,0,0,3,2,1,5,0002-00-0000-77.png,0003-00-0001-07.png
00000009,836,0,1447859925460,1447859925508,882,451,0,0,0,0,3,3,3,0001-00-0001-40.png,0002-00-0000-71.png
00000009,837,0,1447859928520,1447859929119,1041,323,0,0,0,2,3,1,5,0003-00-0001-71.png,0002-00-0001-41.png
00000009,838,1,1447859931991,1447859932562,459,297,0,0,0,1,3,2,4,0005-00-0001-54.png,0002-00-0000-82.png
00000009,839,1,1447859933480,1447859934394,408,348,0,0,0,0,4,4,4,0001-00-0000-93.png,0004-00-0000-82.png
00000009,840,1,1447859935277,1447859936264,1039,304,0,0,0,3,0,3,3,0002-00-0001-88.png,0001-00-0001-79.png
00000009,841,0,1447859937226,1447859937238,866,421,0,0,0,0,1,1,1,0001-00-0001-47.png,0005-00-0001-33.png
00000009,842,1,1447859940565,1447859941120,1067,262,0,0,0,3,0,3,3,0002-00-0001-96.png,0001-00-0000-90.png
00000009,843,0,1447859942046,1447859942094,897,484,0,0,0,0,2,2,2,0001-00-0001-48.png,0003-00-0000-22.png
00000009,844,0,1447859945354,1447859945358,895,377,0,0,0,0,3,3,3,0001-00-0001-29.png,0002-00-0000-63.png
00000009,845,0,1447859948504,1447859948532,898,332,0,0,0,2,3,1,5,0003-00-0000-74.png,0002-00-0001-85.png
00000009,846,1,1447859951772,1447859952335,1075,279,0,0,0,3,1,2,4,0002-00-0001-43.png,0005-00-0001-54.png
00000009,847,1,1447859953234,1447859953254,886,455,0,0,0,4,2,2,6,0004-00-0000-02.png,0003-00-0000-60.png
00000009,848,1,1447859954367,1447859955139,505,255,0,0,0,3,4,1,7,0002-00-0000-73.png,0004-00-0000-81.png
00000009,849,0,1447859956114,1447859957166,939,318,0,0,0,1,2,1,3,0005-00-0001-13.png,0003-00-0000-03.png
00000009,850,1,1447859960674,1447859961265,519,288,0,0,0,2,4,2,6,0003-00-0001-50.png,0004-00-0000-68.png
00000009,851,1,1447859962297,1447859962365,862,488,0,0,0,2,1,1,3,0003-00-0000-02.png,0005-00-0000-43.png
00000009,852,0,1447859963479,1447859964409,427,320,0,0,0,1,0,1,1,0005-00-0000-53.png,0001-00-0001-17.png
00000009,853,1,1447859967354,1447859967957,944,330,0,0,0,4,3,1,7,0004-00-0001-87.png,0002-00-0001-21.png
00000009,854,0,1447859968885,1447859968921,885,424,0,0,0,0,4,4,4,0001-00-0000-22.png,0004-00-0001-38.png
00000009,855,1,1447859971934,1447859972528,1041,314,0,0,0,3,2,1,5,0002-00-0001-42.png,0003-00-0001-42.png
00000009,856,1,1447859973447,1447859974506,489,268,0,0,0,1,3,2,4,0005-00-0000-05.png,0002-00-0000-01.png
00000009,857,1,1447859975492,1447859975528,860,510,0,0,0,4,0,4,4,0004-00-0000-83.png,0001-00-0000-45.png
00000009,858,1,1447859976647,1447859977380,417,351,0,0,0,1,4,3,5,0005-00-0000-13.png,0004-00-0000-87.png
00000009,859,1,1447859978504,1447859979445,956,299,0,0,0,2,0,2,2,0003-00-0000-34.png,0001-00-0000-36.png
00000009,860,1,1447859980988,1447859981751,1051,281,0,0,0,4,1,3,5,0004-00-0001-86.png,0005-00-0001-48.png
00000009,861,1,1447859983461,1447859984574,1046,280,0,0,0,2,1,1,3,0003-00-0001-11.png,0005-00-0001-91.png
00000009,862,1,1447859985601,1447859986379,437,333,0,0,0,1,3,2,4,0005-00-0000-61.png,0002-00-0000-68.png
00000009,863,1,1447859988022,1447859989203,959,341,0,0,0,4,2,2,6,0004-00-0001-65.png,0003-00-0001-71.png
00000009,864,1,1447859990149,1447859990185,877,462,0,0,0,2,0,2,2,0003-00-0001-54.png,0001-00-0001-72.png
00000009,865,1,1447859991442,1447859992203,1041,296,0,0,0,4,1,3,5,0004-00-0001-83.png,0005-00-0000-94.png
00000009,866,1,1447859993263,1447859994610,436,308,0,0,0,0,1,1,1,0001-00-0000-14.png,0005-00-0000-80.png
00000009,867,1,1447859995694,1447859995742,889,480,0,0,0,1,0,1,1,0005-00-0001-53.png,0001-00-0001-22.png
00000009,868,0,1447859997345,1447859997369,889,514,0,0,0,2,3,1,5,0003-00-0000-82.png,0002-00-0000-98.png
00000009,869,0,1447860000436,1447860000993,1056,279,0,0,0,2,4,2,6,0003-00-0001-92.png,0004-00-0001-96.png
00000009,870,0,1447860004143,1447860004733,511,295,0,0,0,3,2,1,5,0002-00-0001-72.png,0003-00-0000-80.png
00000009,871,1,1447860007912,1447860008443,508,247,0,0,0,0,3,3,3,0001-00-0001-65.png,0002-00-0001-43.png
00000009,872,1,1447860009429,1447860009465,879,415,0,0,0,3,0,3,3,0002-00-0000-34.png,0001-00-0001-73.png
00000009,873,1,1447860010739,1447860010817,883,516,0,0,0,4,0,4,4,0004-00-0001-25.png,0001-00-0001-28.png
00000009,874,0,1447860012035,1447860012051,866,465,0,0,0,0,2,2,2,0001-00-0000-82.png,0003-00-0001-92.png
00000009,875,1,1447860015088,1447860015635,511,276,0,0,0,0,4,4,4,0001-00-0001-07.png,0004-00-0001-36.png
00000009,876,1,1447860016614,1447860017333,417,346,0,0,0,1,4,3,5,0005-00-0000-60.png,0004-00-0001-58.png
00000009,877,1,1447860018341,1447860018432,862,506,0,0,0,3,1,2,4,0002-00-0000-44.png,0005-00-0001-48.png
00000009,878,0,1447860019664,1447860020525,1014,300,0,0,0,3,4,1,7,0002-00-0000-65.png,0004-00-0000-63.png
00000009,879,0,1447860023679,1447860023699,894,376,0,0,0,1,2,1,3,0005-00-0000-59.png,0003-00-0000-04.png
00000009,880,1,1447860026899,1447860027615,967,325,0,0,0,4,3,1,7,0004-00-0001-05.png,0002-00-0000-12.png
00000009,881,0,1447860028599,1447860028674,880,493,0,0,0,2,3,1,5,0003-00-0000-31.png,0002-00-0000-14.png
00000009,882,0,1447860031916,1447860031944,880,364,0,0,0,0,3,3,3,0001-00-0000-69.png,0002-00-0000-66.png
00000009,883,0,1447860034899,1447860035635,964,332,0,0,0,0,2,2,2,0001-00-0001-42.png,0003-00-0001-31.png
00000009,884,1,1447860038646,1447860039189,1019,275,0,0,0,4,1,3,5,0004-00-0001-24.png,0005-00-0001-87.png
00000009,885,1,1447860040116,1447860040171,862,465,0,0,0,3,0,3,3,0002-00-0000-86.png,0001-00-0001-07.png
00000009,886,1,1447860041229,1447860042362,486,266,0,0,0,1,3,2,4,0005-00-0000-68.png,0002-00-0000-84.png
00000009,887,1,1447860043313,1447860043353,879,461,0,0,0,2,1,1,3,0003-00-0000-74.png,0005-00-0001-95.png
00000009,888,1,1447860044475,1447860045505,1035,273,0,0,0,3,2,1,5,0002-00-0000-06.png,0003-00-0001-81.png
00000009,889,0,1447860046436,1447860047320,518,227,0,0,0,1,0,1,1,0005-00-0000-44.png,0001-00-0001-22.png
00000009,890,1,1447860050353,1447860050883,1067,257,0,0,0,4,0,4,4,0004-00-0000-99.png,0001-00-0000-38.png
00000009,891,0,1447860051821,1447860052892,1054,273,0,0,0,0,1,1,1,0001-00-0001-85.png,0005-00-0001-06.png
00000009,892,1,1447860056005,1447860056540,1092,279,0,0,0,3,1,2,4,0002-00-0000-78.png,0005-00-0001-16.png
00000009,893,1,1447860057497,1447860058516,409,339,0,0,0,1,4,3,5,0005-00-0000-54.png,0004-00-0001-24.png
00000009,894,1,1447860059414,1447860059450,862,472,0,0,0,2,0,2,2,0003-00-0000-36.png,0001-00-0001-17.png
00000009,895,1,1447860060496,1447860061396,515,257,0,0,0,1,2,1,3,0005-00-0001-74.png,0003-00-0000-70.png
00000009,896,0,1447860062451,1447860062483,886,414,0,0,0,0,4,4,4,0001-00-0001-50.png,0004-00-0000-29.png
00000009,897,1,1447860065664,1447860065716,900,358,0,0,0,4,2,2,6,0004-00-0000-76.png,0003-00-0000-56.png
00000009,898,0,1447860066765,1447860067827,945,335,0,0,0,3,4,1,7,0002-00-0000-30.png,0004-00-0000-76.png
00000009,899,1,1447860070838,1447860070859,915,387,0,0,0,4,3,1,7,0004-00-0001-97.png,0002-00-0001-52.png
00000009,900,1,1447860071873,1447860072876,514,253,0,0,0,2,4,2,6,0003-00-0001-63.png,0004-00-0001-97.png
00000009,901,0,1447860073901,1447860073941,875,410,0,0,0,2,4,2,6,0003-00-0000-67.png,0004-00-0001-01.png
00000009,902,1,1447860077142,1447860077158,903,361,0,0,0,2,1,1,3,0003-00-0001-02.png,0005-00-0000-31.png
00000009,903,1,1447860078165,1447860079113,437,410,0,0,0,2,3,1,5,0003-00-0000-39.png,0002-00-0001-88.png
00000009,904,0,1447860080113,1447860080188,888,514,0,0,0,0,3,3,3,0001-00-0000-39.png,0002-00-0001-85.png
00000009,905,1,1447860083350,1447860084357,503,290,0,0,0,1,3,2,4,0005-00-0000-88.png,0002-00-0000-37.png
00000009,906,0,1447860085392,1447860085436,859,502,0,0,0,0,2,2,2,0001-00-0000-10.png,0003-00-0000-61.png
00000009,907,1,1447860088438,1447860089076,507,288,0,0,0,3,4,1,7,0002-00-0001-00.png,0004-00-0001-37.png
00000009,908,1,1447860090098,1447860090118,869,396,0,0,0,4,0,4,4,0004-00-0001-75.png,0001-00-0000-07.png
00000009,909,1,1447860091232,1447860092323,1054,314,0,0,0,3,0,3,3,0002-00-0001-39.png,0001-00-0000-95.png
00000009,910,1,1447860093328,1447860094123,497,246,0,0,0,1,2,1,3,0005-00-0001-02.png,0003-00-0001-98.png
00000009,911,0,1447860095138,1447860095173,884,507,0,0,0,1,4,3,5,0005-00-0001-29.png,0004-00-0001-05.png
00000009,912,0,1447860098099,1447860098932,504,271,0,0,0,3,1,2,4,0002-00-0000-86.png,0005-00-0001-25.png
00000009,913,1,1447860102054,1447860102557,940,302,0,0,0,4,1,3,5,0004-00-0000-74.png,0005-00-0000-46.png
00000009,914,0,1447860103513,1447860103541,862,462,0,0,0,0,1,1,1,0001-00-0001-81.png,0005-00-0000-47.png
00000009,915,1,1447860106654,1447860106690,896,371,0,0,0,4,3,1,7,0004-00-0000-67.png,0002-00-0001-34.png
00000009,916,1,1447860107766,1447860107853,889,461,0,0,0,2,0,2,2,0003-00-0000-08.png,0001-00-0001-37.png
00000009,917,0,1447860109019,1447860109063,866,457,0,0,0,0,4,4,4,0001-00-0001-04.png,0004-00-0000-16.png
00000009,918,0,1447860112196,1447860112705,506,290,0,0,0,4,2,2,6,0004-00-0001-46.png,0003-00-0000-49.png
00000009,919,0,1447860115883,1447860116648,396,385,0,0,0,1,0,1,1,0005-00-0000-68.png,0001-00-0001-44.png
00000009,920,1,1447860119718,1447860120239,964,317,0,0,0,3,2,1,5,0002-00-0001-79.png,0003-00-0000-79.png
00000009,921,0,1447860121202,1447860121271,890,467,0,0,0,2,4,2,6,0003-00-0001-68.png,0004-00-0000-46.png
00000009,922,1,1447860124163,1447860125074,409,350,0,0,0,3,4,1,7,0002-00-0001-04.png,0004-00-0001-55.png
00000009,923,1,1447860126090,1447860127042,489,239,0,0,0,1,2,1,3,0005-00-0001-16.png,0003-00-0000-00.png
00000009,924,1,1447860128047,1447860128200,888,514,0,0,0,2,1,1,3,0003-00-0001-08.png,0005-00-0000-33.png
00000009,925,1,1447860129310,1447860130116,449,402,0,0,0,1,3,2,4,0005-00-0000-60.png,0002-00-0000-70.png
00000009,926,1,1447860131087,1447860131905,1031,279,0,0,0,4,0,4,4,0004-00-0001-78.png,0001-00-0001-27.png
00000009,927,1,1447860132808,1447860132884,882,520,0,0,0,4,3,1,7,0004-00-0000-60.png,0002-00-0001-79.png
00000009,928,1,1447860134119,1447860134832,516,268,0,0,0,0,2,2,2,0001-00-0001-74.png,0003-00-0001-38.png
00000009,929,1,1447860135789,1447860136670,441,349,0,0,0,0,4,4,4,0001-00-0000-59.png,0004-00-0000-09.png
00000009,930,1,1447860137717,1447860138707,1045,278,0,0,0,4,2,2,6,0004-00-0000-58.png,0003-00-0000-42.png
00000009,931,1,1447860139724,1447860139760,868,519,0,0,0,4,1,3,5,0004-00-0001-95.png,0005-00-0001-49.png
00000009,932,0,1447860141184,1447860142064,989,300,0,0,0,0,3,3,3,0001-00-0000-82.png,0002-00-0001-93.png
00000009,933,1,1447860145031,1447860145589,478,289,0,0,0,1,4,3,5,0005-00-0001-51.png,0004-00-0000-75.png
00000009,934,1,1447860146551,1447860146571,888,440,0,0,0,3,0,3,3,0002-00-0001-86.png,0001-00-0001-33.png
00000009,935,1,1447860147735,1447860148873,909,354,0,0,0,3,1,2,4,0002-00-0001-75.png,0005-00-0001-69.png
00000009,936,1,1447860149820,1447860149848,938,455,0,0,0,1,0,1,1,0005-00-0001-23.png,0001-00-0001-38.png
00000009,937,1,1447860151111,1447860151147,858,546,0,0,0,3,2,1,5,0002-00-0001-37.png,0003-00-0001-78.png
00000009,938,1,1447860152441,1447860153400,521,253,0,0,0,0,1,1,1,0001-00-0001-15.png,0005-00-0001-83.png
00000009,939,0,1447860154430,1447860154494,886,541,0,0,0,2,3,1,5,0003-00-0000-31.png,0002-00-0000-48.png
00000009,940,1,1447860157588,1447860157628,924,390,0,0,0,2,0,2,2,0003-00-0000-76.png,0001-00-0000-49.png
00000009,941,1,1447860159207,1447860159271,862,462,0,0,0,4,3,1,7,0004-00-0001-81.png,0002-00-0001-78.png
00000009,942,1,1447860160353,1447860160389,874,473,0,0,0,2,1,1,3,0003-00-0000-55.png,0005-00-0001-64.png
00000009,943,1,1447860161604,1447860162535,932,338,0,0,0,2,0,2,2,0003-00-0000-45.png,0001-00-0001-90.png
00000009,944,0,1447860163531,1447860164691,1044,284,0,0,0,2,3,1,5,0003-00-0001-11.png,0002-00-0001-57.png
00000009,945,1,1447860167700,1447860168242,512,310,0,0,0,0,2,2,2,0001-00-0000-30.png,0003-00-0001-03.png
00000009,946,0,1447860169186,1447860170053,938,323,0,0,0,0,1,1,1,0001-00-0001-51.png,0005-00-0000-09.png
00000009,947,0,1447860173189,1447860173229,888,344,0,0,0,0,4,4,4,0001-00-0000-55.png,0004-00-0001-19.png
00000009,948,1,1447860176071,1447860176689,1067,321,0,0,0,4,0,4,4,0004-00-0000-61.png,0001-00-0000-05.png
00000009,949,1,1447860177671,1447860177751,896,519,0,0,0,3,2,1,5,0002-00-0000-95.png,0003-00-0001-82.png
00000009,950,0,1447860178935,1447860178951,864,416,0,0,0,2,4,2,6,0003-00-0000-69.png,0004-00-0001-02.png
