subject_id,trial,correct_response,stim_time,response_time,x_coord,y_coord,trial_timeout,timeout_time,interTrial_timeout,left_rank,right_rank,distance,joint_rank,left_image,right_image
00000014,1,0,1447687986561,1447687987151,360,376,0,0,0,3,1,2,4,0002-00-0000-26.png,0005-00-0000-40.png
00000014,2,1,1447687989998,1447687990367,875,502,0,0,0,1,0,1,1,0005-00-0000-65.png,0001-00-0000-74.png
00000014,3,1,1447687991319,1447687991719,360,416,0,0,0,1,2,1,3,0005-00-0001-91.png,0003-00-0000-97.png
00000014,4,1,1447687993025,1447687993484,900,566,0,0,0,3,0,3,3,0002-00-0000-63.png,0001-00-0000-04.png
00000014,5,0,1447687994382,1447687994788,411,502,0,0,0,4,3,1,7,0004-00-0000-89.png,0002-00-0001-98.png
00000014,6,0,1447687998746,1447687999171,383,427,0,0,0,4,0,4,4,0004-00-0000-53.png,0001-00-0000-34.png
00000014,7,1,1447688002129,1447688002545,392,406,0,0,0,1,4,3,5,0005-00-0000-12.png,0004-00-0001-66.png
00000014,8,0,1447688003557,1447688004063,948,444,0,0,0,1,3,2,4,0005-00-0001-21.png,0002-00-0000-20.png
00000014,9,1,1447688007662,1447688008089,419,426,0,0,0,2,3,1,5,0003-00-0001-13.png,0002-00-0000-46.png
00000014,10,0,1447688009004,1447688009397,374,437,0,0,0,4,2,2,6,0004-00-0001-99.png,0003-00-0000-91.png
00000014,11,0,1447688012363,1447688012742,361,353,0,0,0,4,1,3,5,0004-00-0001-73.png,0005-00-0000-38.png
00000014,12,1,1447688015901,1447688016301,370,400,0,0,0,0,2,2,2,0001-00-0001-98.png,0003-00-0000-14.png
00000014,13,1,1447688017252,1447688017660,342,405,0,0,0,0,4,4,4,0001-00-0001-67.png,0004-00-0000-35.png
00000014,14,1,1447688018704,1447688019148,907,534,0,0,0,2,0,2,2,0003-00-0001-25.png,0001-00-0001-91.png
00000014,15,1,1447688020126,1447688020592,947,457,0,0,0,3,2,1,5,0002-00-0001-64.png,0003-00-0001-24.png
00000014,16,1,1447688021771,1447688022244,905,532,0,0,0,2,1,1,3,0003-00-0001-45.png,0005-00-0001-52.png
00000014,17,0,1447688023166,1447688023658,894,535,0,0,0,2,4,2,6,0003-00-0000-57.png,0004-00-0001-97.png
00000014,18,0,1447688026925,1447688027379,924,491,0,0,0,3,4,1,7,0002-00-0001-80.png,0004-00-0000-68.png
00000014,19,1,1447688031279,1447688031720,361,510,0,0,0,0,1,1,1,0001-00-0001-96.png,0005-00-0001-49.png
00000014,20,0,1447688032956,1447688033446,922,523,0,0,0,0,3,3,3,0001-00-0001-42.png,0002-00-0000-71.png
00000014,21,1,1447688036460,1447688036500,465,409,0,0,0,0,4,4,4,0001-00-0000-52.png,0004-00-0000-62.png
00000014,22,1,1447688037549,1447688038028,356,409,0,0,0,1,2,1,3,0005-00-0000-09.png,0003-00-0000-46.png
00000014,23,0,1447688039261,1447688039784,905,532,0,0,0,3,4,1,7,0002-00-0000-94.png,0004-00-0000-53.png
00000014,24,1,1447688042908,1447688043319,957,427,0,0,0,4,3,1,7,0004-00-0001-44.png,0002-00-0000-34.png
00000014,25,0,1447688044587,1447688045077,367,431,0,0,0,4,1,3,5,0004-00-0001-66.png,0005-00-0001-17.png
00000014,26,1,1447688049087,1447688049511,427,423,0,0,0,0,1,1,1,0001-00-0001-77.png,0005-00-0001-70.png
00000014,27,1,1447688050618,1447688051104,357,419,0,0,0,0,3,3,3,0001-00-0001-97.png,0002-00-0001-52.png
00000014,28,1,1447688052390,1447688052821,370,442,0,0,0,0,2,2,2,0001-00-0001-45.png,0003-00-0000-73.png
00000014,29,1,1447688054256,1447688054747,927,491,0,0,0,3,1,2,4,0002-00-0000-91.png,0005-00-0000-58.png
00000014,30,0,1447688055986,1447688056651,899,488,0,0,0,1,3,2,4,0005-00-0001-03.png,0002-00-0001-58.png
00000014,31,0,1447688059673,1447688060091,376,424,0,0,0,4,2,2,6,0004-00-0001-87.png,0003-00-0001-58.png
00000014,32,1,1447688063317,1447688063846,376,389,0,0,0,1,4,3,5,0005-00-0000-20.png,0004-00-0001-24.png
00000014,33,1,1447688064901,1447688065418,908,552,0,0,0,2,1,1,3,0003-00-0001-81.png,0005-00-0000-45.png
00000014,34,1,1447688066691,1447688067143,403,431,0,0,0,2,3,1,5,0003-00-0001-80.png,0002-00-0001-61.png
00000014,35,0,1447688068273,1447688068832,902,519,0,0,0,2,4,2,6,0003-00-0001-95.png,0004-00-0000-73.png
00000014,36,1,1447688073011,1447688073427,951,448,0,0,0,2,0,2,2,0003-00-0000-31.png,0001-00-0001-91.png
00000014,37,0,1447688074802,1447688075360,406,421,0,0,0,3,2,1,5,0002-00-0000-20.png,0003-00-0000-90.png
00000014,38,0,1447688079402,1447688079858,420,393,0,0,0,4,0,4,4,0004-00-0001-64.png,0001-00-0001-54.png
00000014,39,1,1447688082971,1447688083367,953,424,0,0,0,1,0,1,1,0005-00-0001-15.png,0001-00-0000-57.png
00000014,40,1,1447688084472,1447688084966,928,415,0,0,0,3,0,3,3,0002-00-0000-51.png,0001-00-0001-38.png
00000014,41,1,1447688086384,1447688086836,897,392,0,0,0,2,0,2,2,0003-00-0000-75.png,0001-00-0000-71.png
00000014,42,1,1447688087985,1447688088448,370,402,0,0,0,0,3,3,3,0001-00-0000-10.png,0002-00-0000-61.png
00000014,43,1,1447688089687,1447688090145,337,406,0,0,0,0,2,2,2,0001-00-0000-42.png,0003-00-0001-01.png
00000014,44,1,1447688091382,1447688091835,951,411,0,0,0,3,1,2,4,0002-00-0000-76.png,0005-00-0001-70.png
00000014,45,1,1447688092931,1447688093355,366,438,0,0,0,1,4,3,5,0005-00-0001-18.png,0004-00-0000-04.png
00000014,46,0,1447688094569,1447688095095,901,528,0,0,0,2,3,1,5,0003-00-0000-09.png,0002-00-0001-35.png
00000014,47,0,1447688098298,1447688098783,965,436,0,0,0,2,4,2,6,0003-00-0000-29.png,0004-00-0001-52.png
00000014,48,1,1447688102056,1447688102477,900,516,0,0,0,4,1,3,5,0004-00-0001-11.png,0005-00-0000-44.png
00000014,49,0,1447688103973,1447688104440,883,515,0,0,0,3,4,1,7,0002-00-0001-21.png,0004-00-0001-61.png
00000014,50,0,1447688107631,1447688108089,369,400,0,0,0,3,2,1,5,0002-00-0001-68.png,0003-00-0001-89.png
00000014,51,1,1447688111019,1447688111478,951,435,0,0,0,4,3,1,7,0004-00-0001-18.png,0002-00-0001-37.png
00000014,52,0,1447688112699,1447688113188,900,527,0,0,0,1,3,2,4,0005-00-0000-93.png,0002-00-0001-29.png
00000014,53,1,1447688116456,1447688116930,949,514,0,0,0,1,0,1,1,0005-00-0000-82.png,0001-00-0000-28.png
00000014,54,1,1447688118056,1447688118545,959,443,0,0,0,4,0,4,4,0004-00-0000-61.png,0001-00-0001-17.png
00000014,55,1,1447688119906,1447688120428,927,416,0,0,0,3,0,3,3,0002-00-0001-08.png,0001-00-0001-56.png
00000014,56,0,1447688121714,1447688122085,373,447,0,0,0,4,2,2,6,0004-00-0000-77.png,0003-00-0000-14.png
00000014,57,1,1447688125541,1447688125976,358,397,0,0,0,0,1,1,1,0001-00-0000-78.png,0005-00-0001-85.png
00000014,58,1,1447688127409,1447688127787,341,411,0,0,0,0,4,4,4,0001-00-0000-10.png,0004-00-0001-24.png
00000014,59,0,1447688129338,1447688129882,944,456,0,0,0,1,2,1,3,0005-00-0001-16.png,0003-00-0001-09.png
00000014,60,1,1447688132903,1447688133405,986,445,0,0,0,2,1,1,3,0003-00-0001-67.png,0005-00-0001-21.png
00000014,61,0,1447688134704,1447688135192,898,534,0,0,0,1,4,3,5,0005-00-0000-53.png,0004-00-0000-84.png
00000014,62,1,1447688139576,1447688139989,893,535,0,0,0,3,1,2,4,0002-00-0000-21.png,0005-00-0001-15.png
00000014,63,1,1447688140945,1447688141439,967,452,0,0,0,2,1,1,3,0003-00-0001-11.png,0005-00-0000-33.png
00000014,64,1,1447688142735,1447688143174,378,405,0,0,0,0,4,4,4,0001-00-0000-61.png,0004-00-0000-40.png
00000014,65,0,1447688144758,1447688145155,400,432,0,0,0,1,0,1,1,0005-00-0001-06.png,0001-00-0000-63.png
00000014,66,0,1447688148491,1447688148866,406,374,0,0,0,4,2,2,6,0004-00-0000-87.png,0003-00-0000-54.png
00000014,67,0,1447688151830,1447688152236,416,392,0,0,0,4,0,4,4,0004-00-0001-47.png,0001-00-0000-53.png
00000014,68,1,1447688155458,1447688155883,900,554,0,0,0,2,0,2,2,0003-00-0000-00.png,0001-00-0001-98.png
00000014,69,1,1447688156968,1447688157447,371,435,0,0,0,0,2,2,2,0001-00-0001-84.png,0003-00-0001-68.png
00000014,70,0,1447688158611,1447688159134,905,427,0,0,0,2,3,1,5,0003-00-0001-63.png,0002-00-0000-89.png
00000014,71,1,1447688162892,1447688163347,913,397,0,0,0,4,3,1,7,0004-00-0000-85.png,0002-00-0001-50.png
00000014,72,1,1447688164424,1447688164919,925,437,0,0,0,3,0,3,3,0002-00-0000-56.png,0001-00-0001-17.png
00000014,73,1,1447688165934,1447688166337,366,456,0,0,0,0,1,1,1,0001-00-0000-46.png,0005-00-0000-71.png
00000014,74,0,1447688167455,1447688167929,923,420,0,0,0,2,4,2,6,0003-00-0001-32.png,0004-00-0000-40.png
00000014,75,0,1447688171153,1447688171576,951,423,0,0,0,3,4,1,7,0002-00-0000-37.png,0004-00-0001-42.png
00000014,76,0,1447688179774,1447688180216,407,377,0,0,0,4,1,3,5,0004-00-0001-17.png,0005-00-0001-90.png
00000014,77,1,1447688183480,1447688183961,382,385,0,0,0,1,2,1,3,0005-00-0001-17.png,0003-00-0001-67.png
00000014,78,1,1447688185150,1447688185795,386,444,0,0,0,0,3,3,3,0001-00-0001-46.png,0002-00-0001-72.png
00000014,79,0,1447688186820,1447688187336,862,527,0,0,0,1,3,2,4,0005-00-0001-80.png,0002-00-0001-01.png
00000014,80,0,1447688190387,1447688190772,427,449,0,0,0,3,2,1,5,0002-00-0001-55.png,0003-00-0001-24.png
00000014,81,1,1447688193665,1447688194076,350,371,0,0,0,0,3,3,3,0001-00-0001-71.png,0002-00-0001-43.png
00000014,82,1,1447688195138,1447688195548,403,424,0,0,0,0,2,2,2,0001-00-0001-65.png,0003-00-0000-15.png
00000014,83,1,1447688196690,1447688197202,871,394,0,0,0,2,0,2,2,0003-00-0001-70.png,0001-00-0001-20.png
00000014,84,1,1447688198308,1447688198788,951,437,0,0,0,4,0,4,4,0004-00-0001-41.png,0001-00-0001-20.png
00000014,85,1,1447688199807,1447688200351,903,442,0,0,0,4,1,3,5,0004-00-0000-15.png,0005-00-0000-02.png
00000014,86,0,1447688201460,1447688201962,909,446,0,0,0,2,3,1,5,0003-00-0001-44.png,0002-00-0001-59.png
00000014,87,1,1447688205200,1447688205671,354,394,0,0,0,1,2,1,3,0005-00-0000-44.png,0003-00-0000-94.png
00000014,88,1,1447688206847,1447688207393,899,448,0,0,0,3,1,2,4,0002-00-0001-05.png,0005-00-0000-10.png
00000014,89,0,1447688208512,1447688209032,864,517,0,0,0,1,3,2,4,0005-00-0000-37.png,0002-00-0000-72.png
00000014,90,1,1447688212714,1447688213247,353,378,0,0,0,0,4,4,4,0001-00-0000-33.png,0004-00-0000-24.png
00000014,91,1,1447688214462,1447688214945,440,449,0,0,0,0,1,1,1,0001-00-0000-65.png,0005-00-0000-06.png
00000014,92,1,1447688216041,1447688216517,926,410,0,0,0,1,0,1,1,0005-00-0001-13.png,0001-00-0000-56.png
00000014,93,1,1447688217653,1447688218157,926,423,0,0,0,3,0,3,3,0002-00-0001-47.png,0001-00-0001-43.png
00000014,94,1,1447688219282,1447688219872,892,456,0,0,0,2,1,1,3,0003-00-0001-37.png,0005-00-0001-51.png
00000014,95,0,1447688220902,1447688221919,432,520,0,0,0,3,2,1,5,0002-00-0001-20.png,0003-00-0000-90.png
00000014,96,1,1447688225168,1447688225559,376,423,0,0,0,1,4,3,5,0005-00-0001-50.png,0004-00-0001-90.png
00000014,97,0,1447688226617,1447688227030,376,415,0,0,0,4,2,2,6,0004-00-0000-74.png,0003-00-0001-93.png
00000014,98,0,1447688231755,1447688232109,377,370,0,0,0,4,3,1,7,0004-00-0000-88.png,0002-00-0001-68.png
00000014,99,0,1447688235404,1447688235860,915,509,0,0,0,3,4,1,7,0002-00-0000-74.png,0004-00-0001-41.png
00000014,100,1,1447688238739,1447688239141,379,377,0,0,0,2,4,2,6,0003-00-0001-11.png,0004-00-0000-07.png
00000014,101,1,1447688240241,1447688240755,954,415,0,0,0,2,0,2,2,0003-00-0000-05.png,0001-00-0000-60.png
00000014,102,1,1447688241883,1447688242371,366,412,0,0,0,0,2,2,2,0001-00-0001-41.png,0003-00-0001-43.png
00000014,103,1,1447688243453,1447688243987,403,453,0,0,0,3,4,1,7,0002-00-0000-00.png,0004-00-0001-34.png
00000014,104,1,1447688245173,1447688245795,899,435,0,0,0,3,2,1,5,0002-00-0000-34.png,0003-00-0000-71.png
00000014,105,0,1447688246952,1447688247589,933,444,0,0,0,2,4,2,6,0003-00-0001-02.png,0004-00-0000-95.png
00000014,106,1,1447688251582,1447688251995,921,471,0,0,0,2,1,1,3,0003-00-0001-63.png,0005-00-0000-36.png
00000014,107,1,1447688253690,1447688254352,900,423,0,0,0,4,3,1,7,0004-00-0001-58.png,0002-00-0000-11.png
00000014,108,1,1447688255548,1447688256032,384,488,0,0,0,1,4,3,5,0005-00-0000-43.png,0004-00-0001-45.png
00000014,109,1,1447688257039,1447688258047,392,435,0,0,0,0,3,3,3,0001-00-0001-40.png,0002-00-0000-20.png
00000014,110,1,1447688259063,1447688259628,931,481,0,0,0,4,1,3,5,0004-00-0001-80.png,0005-00-0001-87.png
00000014,111,0,1447688260607,1447688261034,382,439,0,0,0,1,0,1,1,0005-00-0001-54.png,0001-00-0000-22.png
00000014,112,1,1447688275686,1447688276059,425,352,0,0,0,0,1,1,1,0001-00-0000-87.png,0005-00-0000-22.png
00000014,113,1,1447688277768,1447688278233,417,468,0,0,0,1,2,1,3,0005-00-0000-05.png,0003-00-0001-82.png
00000014,114,1,1447688279587,1447688280101,924,430,0,0,0,3,0,3,3,0002-00-0001-82.png,0001-00-0001-51.png
00000014,115,0,1447688282280,1447688282767,977,438,0,0,0,2,3,1,5,0003-00-0000-74.png,0002-00-0001-33.png
00000014,116,1,1447688288094,1447688288542,324,462,0,0,0,1,3,2,4,0005-00-0000-40.png,0002-00-0000-60.png
00000014,117,1,1447688289649,1447688290212,905,443,0,0,0,3,1,2,4,0002-00-0000-80.png,0005-00-0001-21.png
00000014,118,0,1447688291980,1447688292413,925,480,0,0,0,0,4,4,4,0001-00-0000-22.png,0004-00-0000-62.png
00000014,119,0,1447688295448,1447688295834,364,380,0,0,0,4,2,2,6,0004-00-0000-29.png,0003-00-0001-66.png
00000014,120,0,1447688303241,1447688303669,410,444,0,0,0,4,0,4,4,0004-00-0000-59.png,0001-00-0001-00.png
00000014,121,0,1447688306690,1447688307127,423,455,0,0,0,4,2,2,6,0004-00-0001-88.png,0003-00-0000-10.png
00000014,122,1,1447688326495,1447688326826,362,358,0,0,0,0,3,3,3,0001-00-0001-98.png,0002-00-0001-55.png
00000014,123,1,1447688327838,1447688328297,965,449,0,0,0,2,1,1,3,0003-00-0000-30.png,0005-00-0000-78.png
00000014,124,1,1447688329458,1447688329929,927,462,0,0,0,4,0,4,4,0004-00-0000-45.png,0001-00-0001-73.png
00000014,125,1,1447688330906,1447688331324,376,461,0,0,0,3,4,1,7,0002-00-0001-22.png,0004-00-0000-95.png
00000014,126,0,1447688332421,1447688332870,413,556,0,0,0,4,3,1,7,0004-00-0000-12.png,0002-00-0001-66.png
00000014,127,1,1447688342067,1447688342642,396,281,0,0,0,1,4,3,5,0005-00-0001-94.png,0004-00-0001-10.png
00000014,128,0,1447688343931,1447688344380,876,549,0,0,0,2,4,2,6,0003-00-0000-97.png,0004-00-0001-06.png
00000014,129,1,1447688347714,1447688348109,911,496,0,0,0,2,0,2,2,0003-00-0001-81.png,0001-00-0001-13.png
00000014,130,1,1447688349101,1447688349488,357,445,0,0,0,0,4,4,4,0001-00-0001-73.png,0004-00-0000-85.png
00000014,131,1,1447688350465,1447688350895,373,438,0,0,0,1,3,2,4,0005-00-0000-78.png,0002-00-0000-53.png
00000014,132,0,1447688351936,1447688352422,882,540,0,0,0,1,2,1,3,0005-00-0000-87.png,0003-00-0001-13.png
00000014,133,1,1447688355903,1447688356459,901,502,0,0,0,4,1,3,5,0004-00-0000-25.png,0005-00-0001-17.png
00000014,134,0,1447688357542,1447688358074,857,501,0,0,0,2,3,1,5,0003-00-0000-01.png,0002-00-0001-02.png
00000014,135,0,1447688374315,1447688374700,399,459,0,0,0,3,2,1,5,0002-00-0000-27.png,0003-00-0001-18.png
00000014,136,1,1447688377851,1447688378265,453,396,0,0,0,0,1,1,1,0001-00-0000-80.png,0005-00-0001-49.png
00000014,137,1,1447688379288,1447688379914,351,403,0,0,0,0,2,2,2,0001-00-0001-76.png,0003-00-0001-35.png
00000014,138,1,1447688380835,1447688381400,920,434,0,0,0,1,0,1,1,0005-00-0000-59.png,0001-00-0001-69.png
00000014,139,0,1447688382315,1447688382792,394,430,0,0,0,3,0,3,3,0002-00-0001-41.png,0001-00-0000-07.png
00000014,140,0,1447688396750,1447688397108,393,491,0,0,0,3,1,2,4,0002-00-0001-56.png,0005-00-0000-76.png
00000014,141,0,1447688400053,1447688400462,401,436,0,0,0,1,0,1,1,0005-00-0000-78.png,0001-00-0000-22.png
00000014,142,0,1447688403373,1447688403815,900,488,0,0,0,2,3,1,5,0003-00-0000-40.png,0002-00-0001-59.png
00000014,143,0,1447688406692,1447688407095,906,475,0,0,0,3,4,1,7,0002-00-0001-61.png,0004-00-0001-87.png
00000014,144,1,1447688410200,1447688410666,900,515,0,0,0,2,0,2,2,0003-00-0000-52.png,0001-00-0000-12.png
00000014,145,1,1447688412119,1447688412526,358,445,0,0,0,0,3,3,3,0001-00-0001-49.png,0002-00-0001-91.png
00000014,146,1,1447688413868,1447688414380,952,475,0,0,0,3,0,3,3,0002-00-0000-75.png,0001-00-0001-89.png
00000014,147,1,1447688415468,1447688415872,419,459,0,0,0,0,4,4,4,0001-00-0000-30.png,0004-00-0000-04.png
00000014,148,1,1447688416938,1447688417420,898,458,0,0,0,4,0,4,4,0004-00-0000-15.png,0001-00-0001-15.png
00000014,149,0,1447688418427,1447688419070,873,384,0,0,0,1,4,3,5,0005-00-0001-92.png,0004-00-0000-42.png
00000014,150,0,1447688426887,1447688427280,370,515,0,0,0,3,2,1,5,0002-00-0001-24.png,0003-00-0000-78.png
00000014,151,1,1447688430466,1447688430911,875,528,0,0,0,3,1,2,4,0002-00-0000-12.png,0005-00-0000-39.png
00000014,152,0,1447688431846,1447688432251,380,474,0,0,0,4,3,1,7,0004-00-0000-63.png,0002-00-0000-22.png
00000014,153,0,1447688435694,1447688436136,888,534,0,0,0,1,2,1,3,0005-00-0001-97.png,0003-00-0001-87.png
00000014,154,1,1447688441179,1447688441573,390,475,0,0,0,2,4,2,6,0003-00-0001-96.png,0004-00-0001-39.png
00000014,155,0,1447688442679,1447688443107,380,467,0,0,0,4,2,2,6,0004-00-0000-97.png,0003-00-0001-17.png
00000014,156,0,1447688446534,1447688447007,952,424,0,0,0,0,1,1,1,0001-00-0001-75.png,0005-00-0001-28.png
00000014,157,1,1447688449935,1447688450287,412,507,0,0,0,0,2,2,2,0001-00-0000-34.png,0003-00-0001-93.png
00000014,158,0,1447688451167,1447688452049,393,438,0,0,0,2,1,1,3,0003-00-0001-11.png,0005-00-0000-73.png
00000014,159,0,1447688455224,1447688455602,369,426,0,0,0,4,1,3,5,0004-00-0001-55.png,0005-00-0001-96.png
00000014,160,1,1447688460359,1447688460813,443,364,0,0,0,1,3,2,4,0005-00-0001-27.png,0002-00-0001-19.png
00000014,161,1,1447688461772,1447688462244,900,475,0,0,0,2,1,1,3,0003-00-0000-18.png,0005-00-0001-34.png
00000014,162,1,1447688463268,1447688463734,374,412,0,0,0,0,1,1,1,0001-00-0000-19.png,0005-00-0000-50.png
00000014,163,0,1447688464674,1447688465133,401,514,0,0,0,3,0,3,3,0002-00-0001-13.png,0001-00-0001-29.png
00000014,164,1,1447688469334,1447688469735,897,506,0,0,0,2,0,2,2,0003-00-0000-23.png,0001-00-0000-46.png
00000014,165,1,1447688470756,1447688471173,463,476,0,0,0,1,2,1,3,0005-00-0000-13.png,0003-00-0000-63.png
00000014,166,1,1447688472325,1447688472754,400,454,0,0,0,1,3,2,4,0005-00-0000-09.png,0002-00-0001-25.png
00000014,167,0,1447688473747,1447688474130,413,491,0,0,0,4,2,2,6,0004-00-0001-10.png,0003-00-0001-98.png
00000014,168,0,1447688479076,1447688479429,404,426,0,0,0,3,2,1,5,0002-00-0000-69.png,0003-00-0000-01.png
00000014,169,0,1447688484195,1447688484609,924,431,0,0,0,2,4,2,6,0003-00-0001-34.png,0004-00-0001-39.png
00000014,170,1,1447688488492,1447688488958,956,426,0,0,0,1,0,1,1,0005-00-0000-10.png,0001-00-0001-74.png
00000014,171,0,1447688490018,1447688490463,900,436,0,0,0,2,3,1,5,0003-00-0000-56.png,0002-00-0000-46.png
00000014,172,1,1447688494154,1447688494615,426,542,0,0,0,3,4,1,7,0002-00-0001-94.png,0004-00-0001-90.png
00000014,173,1,1447688495662,1447688496113,950,464,0,0,0,4,0,4,4,0004-00-0000-85.png,0001-00-0001-05.png
00000014,174,1,1447688497362,1447688497904,874,437,0,0,0,4,3,1,7,0004-00-0000-96.png,0002-00-0000-04.png
00000014,175,1,1447688498892,1447688499338,415,461,0,0,0,0,4,4,4,0001-00-0000-58.png,0004-00-0001-85.png
00000014,176,0,1447688500373,1447688500855,920,456,0,0,0,0,3,3,3,0001-00-0001-40.png,0002-00-0001-37.png
00000014,177,1,1447688508476,1447688508908,873,553,0,0,0,3,1,2,4,0002-00-0001-53.png,0005-00-0001-96.png
00000014,178,1,1447688509895,1447688510394,954,442,0,0,0,4,1,3,5,0004-00-0001-89.png,0005-00-0001-83.png
00000014,179,0,1447688511519,1447688512003,909,473,0,0,0,0,2,2,2,0001-00-0001-17.png,0003-00-0001-07.png
00000014,180,0,1447688515497,1447688515898,923,465,0,0,0,1,4,3,5,0005-00-0000-58.png,0004-00-0001-75.png
00000014,181,1,1447688521825,1447688522267,954,471,0,0,0,2,0,2,2,0003-00-0000-01.png,0001-00-0001-80.png
00000014,182,0,1447688523294,1447688523839,931,458,0,0,0,1,4,3,5,0005-00-0000-45.png,0004-00-0001-27.png
00000014,183,0,1447688532416,1447688532860,919,477,0,0,0,2,4,2,6,0003-00-0001-61.png,0004-00-0001-04.png
00000014,184,1,1447688536010,1447688536598,325,318,0,0,0,0,1,1,1,0001-00-0000-32.png,0005-00-0001-16.png
00000014,185,1,1447688537624,1447688538118,444,427,0,0,0,0,4,4,4,0001-00-0001-06.png,0004-00-0001-46.png
00000014,186,1,1447688539112,1447688539596,350,397,0,0,0,1,2,1,3,0005-00-0001-08.png,0003-00-0000-65.png
00000014,187,0,1447688540566,1447688541191,901,548,0,0,0,1,3,2,4,0005-00-0001-62.png,0002-00-0001-16.png
00000014,188,1,1447688544392,1447688544816,443,442,0,0,0,3,4,1,7,0002-00-0001-09.png,0004-00-0001-58.png
00000014,189,1,1447688545803,1447688546309,934,473,0,0,0,3,0,3,3,0002-00-0000-96.png,0001-00-0001-30.png
00000014,190,0,1447688547305,1447688547676,414,473,0,0,0,3,2,1,5,0002-00-0001-96.png,0003-00-0001-03.png
00000014,191,0,1447688551241,1447688551687,938,431,0,0,0,0,3,3,3,0001-00-0000-17.png,0002-00-0001-37.png
00000014,192,1,1447688556388,1447688556847,880,526,0,0,0,4,3,1,7,0004-00-0001-71.png,0002-00-0000-95.png
00000014,193,0,1447688557822,1447688558504,884,550,0,0,0,2,3,1,5,0003-00-0000-57.png,0002-00-0001-43.png
00000014,194,1,1447688566857,1447688567390,926,447,0,0,0,2,1,1,3,0003-00-0000-61.png,0005-00-0000-13.png
00000014,195,1,1447688568508,1447688569009,888,422,0,0,0,3,1,2,4,0002-00-0001-34.png,0005-00-0001-78.png
00000014,196,1,1447688569995,1447688570466,879,536,0,0,0,1,0,1,1,0005-00-0000-46.png,0001-00-0000-61.png
00000014,197,1,1447688571490,1447688571904,383,420,0,0,0,0,2,2,2,0001-00-0001-94.png,0003-00-0001-69.png
00000014,198,0,1447688573100,1447688573517,367,428,0,0,0,4,2,2,6,0004-00-0000-37.png,0003-00-0000-24.png
00000014,199,1,1447688576447,1447688576867,909,421,0,0,0,4,0,4,4,0004-00-0000-80.png,0001-00-0000-26.png
00000014,200,0,1447688577739,1447688578274,383,419,0,0,0,4,1,3,5,0004-00-0001-23.png,0005-00-0001-42.png
00000014,201,1,1447688581777,1447688582203,965,423,0,0,0,3,0,3,3,0002-00-0000-03.png,0001-00-0000-55.png
00000014,202,1,1447688583127,1447688583534,398,449,0,0,0,1,4,3,5,0005-00-0000-64.png,0004-00-0000-32.png
00000014,203,0,1447688584549,1447688585094,900,449,0,0,0,0,3,3,3,0001-00-0001-37.png,0002-00-0000-49.png
00000014,204,1,1447688589248,1447688589686,925,462,0,0,0,2,1,1,3,0003-00-0000-67.png,0005-00-0000-97.png
00000014,205,1,1447688590560,1447688591483,414,422,0,0,0,1,2,1,3,0005-00-0001-91.png,0003-00-0000-43.png
00000014,206,0,1447688592700,1447688593253,922,445,0,0,0,2,4,2,6,0003-00-0000-33.png,0004-00-0000-44.png
00000014,207,1,1447688596308,1447688596765,865,493,0,0,0,2,0,2,2,0003-00-0000-04.png,0001-00-0000-63.png
00000014,208,1,1447688597778,1447688598344,913,449,0,0,0,3,1,2,4,0002-00-0000-79.png,0005-00-0001-71.png
00000014,209,1,1447688599279,1447688599760,415,452,0,0,0,3,4,1,7,0002-00-0000-70.png,0004-00-0000-53.png
00000014,210,1,1447688600979,1447688601484,924,432,0,0,0,1,0,1,1,0005-00-0000-73.png,0001-00-0000-14.png
00000014,211,1,1447688602489,1447688602869,418,477,0,0,0,2,3,1,5,0003-00-0001-61.png,0002-00-0001-99.png
00000014,212,1,1447688603869,1447688604439,892,448,0,0,0,4,1,3,5,0004-00-0001-00.png,0005-00-0001-93.png
00000014,213,1,1447688605470,1447688605986,860,555,0,0,0,4,0,4,4,0004-00-0000-56.png,0001-00-0001-64.png
00000014,214,1,1447688606991,1447688607387,371,461,0,0,0,1,3,2,4,0005-00-0000-99.png,0002-00-0000-39.png
00000014,215,1,1447688608633,1447688609092,385,403,0,0,0,0,4,4,4,0001-00-0001-62.png,0004-00-0001-84.png
00000014,216,0,1447688610032,1447688610470,388,563,0,0,0,4,2,2,6,0004-00-0000-88.png,0003-00-0000-73.png
00000014,217,1,1447688615671,1447688616060,919,424,0,0,0,4,3,1,7,0004-00-0000-58.png,0002-00-0000-91.png
00000014,218,0,1447688617046,1447688617502,428,451,0,0,0,3,2,1,5,0002-00-0000-51.png,0003-00-0000-16.png
00000014,219,1,1447688621453,1447688621818,389,449,0,0,0,0,1,1,1,0001-00-0000-64.png,0005-00-0000-46.png
00000014,220,1,1447688622993,1447688623420,377,498,0,0,0,0,2,2,2,0001-00-0001-22.png,0003-00-0000-54.png
00000014,221,1,1447688624885,1447688625395,877,545,0,0,0,2,0,2,2,0003-00-0001-62.png,0001-00-0000-96.png
00000014,222,0,1447688626552,1447688627069,888,476,0,0,0,1,4,3,5,0005-00-0001-85.png,0004-00-0000-32.png
00000014,223,0,1447688634128,1447688634533,888,527,0,0,0,0,4,4,4,0001-00-0001-95.png,0004-00-0001-70.png
00000014,224,0,1447688638125,1447688638559,949,405,0,0,0,0,3,3,3,0001-00-0001-85.png,0002-00-0001-75.png
00000014,225,1,1447688642671,1447688643167,352,390,0,0,0,1,3,2,4,0005-00-0000-00.png,0002-00-0001-36.png
00000014,226,0,1447688644258,1447688644660,372,445,0,0,0,1,0,1,1,0005-00-0000-46.png,0001-00-0000-84.png
00000014,227,1,1447688648518,1447688649005,299,410,0,0,0,0,1,1,1,0001-00-0001-61.png,0005-00-0000-60.png
00000014,228,1,1447688650123,1447688650516,390,467,0,0,0,1,2,1,3,0005-00-0001-89.png,0003-00-0001-25.png
00000014,229,0,1447688651553,1447688652073,373,420,0,0,0,3,2,1,5,0002-00-0000-66.png,0003-00-0000-07.png
00000014,230,0,1447688660370,1447688660689,338,403,0,0,0,3,0,3,3,0002-00-0001-04.png,0001-00-0000-06.png
00000014,231,1,1447688664070,1447688664561,349,376,0,0,0,2,4,2,6,0003-00-0001-97.png,0004-00-0001-98.png
00000014,232,0,1447688665771,1447688666223,924,483,0,0,0,2,3,1,5,0003-00-0001-91.png,0002-00-0001-74.png
00000014,233,1,1447688669397,1447688669801,875,540,0,0,0,4,0,4,4,0004-00-0001-66.png,0001-00-0001-18.png
00000014,234,1,1447688670744,1447688671309,914,475,0,0,0,2,1,1,3,0003-00-0000-06.png,0005-00-0001-38.png
00000014,235,1,1447688672332,1447688672811,901,476,0,0,0,4,3,1,7,0004-00-0000-39.png,0002-00-0001-29.png
00000014,236,1,1447688673751,1447688674135,395,484,0,0,0,0,2,2,2,0001-00-0001-85.png,0003-00-0001-99.png
00000014,237,0,1447688675093,1447688675646,431,441,0,0,0,3,1,2,4,0002-00-0001-11.png,0005-00-0001-75.png
00000014,238,1,1447688680968,1447688681375,925,449,0,0,0,4,1,3,5,0004-00-0001-34.png,0005-00-0001-67.png
00000014,239,1,1447688682368,1447688682776,433,517,0,0,0,3,4,1,7,0002-00-0000-55.png,0004-00-0001-53.png
00000014,240,0,1447688683710,1447688684161,394,505,0,0,0,4,2,2,6,0004-00-0000-97.png,0003-00-0001-45.png
00000014,241,1,1447688688262,1447688688655,336,475,0,0,0,0,2,2,2,0001-00-0000-21.png,0003-00-0001-83.png
00000014,242,1,1447688689991,1447688690555,910,495,0,0,0,2,0,2,2,0003-00-0001-79.png,0001-00-0001-81.png
00000014,243,1,1447688691703,1447688692166,927,450,0,0,0,1,0,1,1,0005-00-0001-83.png,0001-00-0001-93.png
00000014,244,0,1447688693391,1447688693999,877,533,0,0,0,2,4,2,6,0003-00-0001-22.png,0004-00-0000-67.png
00000014,245,1,1447688698559,1447688698947,383,525,0,0,0,1,3,2,4,0005-00-0000-40.png,0002-00-0000-05.png
00000014,246,1,1447688700040,1447688700529,925,475,0,0,0,3,0,3,3,0002-00-0000-67.png,0001-00-0000-56.png
00000014,247,0,1447688701737,1447688702251,881,479,0,0,0,3,4,1,7,0002-00-0001-82.png,0004-00-0000-30.png
00000014,248,1,1447688706682,1447688707022,389,502,0,0,0,1,4,3,5,0005-00-0000-33.png,0004-00-0000-33.png
00000014,249,0,1447688708756,1447688709190,435,497,0,0,0,4,1,3,5,0004-00-0000-19.png,0005-00-0001-14.png
00000014,250,1,1447688713249,1447688713714,896,472,0,0,0,4,0,4,4,0004-00-0000-25.png,0001-00-0001-23.png
00000014,251,0,1447688715405,1447688716297,471,402,0,0,0,4,2,2,6,0004-00-0000-39.png,0003-00-0000-48.png
00000014,252,1,1447688719481,1447688719948,898,483,0,0,0,4,3,1,7,0004-00-0001-21.png,0002-00-0000-25.png
00000014,253,1,1447688720931,1447688721470,901,494,0,0,0,3,1,2,4,0002-00-0001-52.png,0005-00-0000-68.png
00000014,254,0,1447688722472,1447688722964,909,473,0,0,0,2,3,1,5,0003-00-0000-57.png,0002-00-0000-90.png
00000014,255,1,1447688725823,1447688726204,878,546,0,0,0,2,1,1,3,0003-00-0001-98.png,0005-00-0001-92.png
00000014,256,1,1447688727203,1447688727572,419,480,0,0,0,0,3,3,3,0001-00-0001-67.png,0002-00-0001-04.png
00000014,257,1,1447688728475,1447688728879,401,475,0,0,0,0,1,1,1,0001-00-0000-79.png,0005-00-0000-43.png
00000014,258,1,1447688729806,1447688730229,333,471,0,0,0,1,2,1,3,0005-00-0000-43.png,0003-00-0000-30.png
00000014,259,1,1447688731488,1447688731999,404,540,0,0,0,0,4,4,4,0001-00-0001-56.png,0004-00-0001-85.png
00000014,260,1,1447688733043,1447688733513,915,440,0,0,0,3,2,1,5,0002-00-0001-82.png,0003-00-0000-98.png
00000014,261,1,1447688734539,1447688734951,419,479,0,0,0,0,3,3,3,0001-00-0001-18.png,0002-00-0001-13.png
00000014,262,1,1447688736513,1447688737066,913,467,0,0,0,1,0,1,1,0005-00-0001-60.png,0001-00-0001-28.png
00000014,263,0,1447688738126,1447688738531,422,464,0,0,0,3,2,1,5,0002-00-0001-35.png,0003-00-0001-54.png
00000014,264,1,1447688741456,1447688741880,911,503,0,0,0,3,1,2,4,0002-00-0001-79.png,0005-00-0001-18.png
00000014,265,0,1447688742973,1447688743371,376,462,0,0,0,2,1,1,3,0003-00-0000-61.png,0005-00-0000-09.png
00000014,266,0,1447688746604,1447688747010,426,461,0,0,0,4,2,2,6,0004-00-0001-66.png,0003-00-0000-52.png
00000014,267,0,1447688749951,1447688750397,401,384,0,0,0,4,1,3,5,0004-00-0000-04.png,0005-00-0000-03.png
00000014,268,0,1447688753772,1447688754187,931,375,0,0,0,2,3,1,5,0003-00-0000-85.png,0002-00-0001-50.png
00000014,269,1,1447688757408,1447688757847,925,463,0,0,0,4,0,4,4,0004-00-0000-60.png,0001-00-0001-68.png
00000014,270,1,1447688758844,1447688759305,913,410,0,0,0,3,0,3,3,0002-00-0001-13.png,0001-00-0000-91.png
00000014,271,1,1447688760335,1447688760696,409,471,0,0,0,1,2,1,3,0005-00-0001-62.png,0003-00-0000-23.png
00000014,272,1,1447688761851,1447688762341,870,393,0,0,0,4,3,1,7,0004-00-0001-00.png,0002-00-0001-26.png
00000014,273,1,1447688763392,1447688763836,401,501,0,0,0,0,2,2,2,0001-00-0000-42.png,0003-00-0000-27.png
00000014,274,1,1447688765400,1447688765923,357,419,0,0,0,1,3,2,4,0005-00-0001-50.png,0002-00-0001-62.png
00000014,275,0,1447688766951,1447688767467,903,469,0,0,0,3,4,1,7,0002-00-0001-03.png,0004-00-0000-10.png
00000014,276,0,1447688770907,1447688771332,894,401,0,0,0,0,4,4,4,0001-00-0001-51.png,0004-00-0001-01.png
00000014,277,0,1447688774754,1447688775154,937,398,0,0,0,2,4,2,6,0003-00-0001-34.png,0004-00-0001-80.png
00000014,278,0,1447688778340,1447688778785,930,453,0,0,0,1,4,3,5,0005-00-0001-09.png,0004-00-0001-63.png
00000014,279,1,1447688782520,1447688782946,383,381,0,0,0,0,1,1,1,0001-00-0000-97.png,0005-00-0001-79.png
00000014,280,1,1447688784217,1447688784836,920,481,0,0,0,2,0,2,2,0003-00-0000-31.png,0001-00-0001-96.png
00000014,281,1,1447688785884,1447688786403,874,541,0,0,0,1,0,1,1,0005-00-0001-52.png,0001-00-0000-28.png
00000014,282,0,1447688788001,1447688788585,929,432,0,0,0,2,4,2,6,0003-00-0001-18.png,0004-00-0000-43.png
00000014,283,1,1447688792017,1447688792459,952,419,0,0,0,4,0,4,4,0004-00-0000-83.png,0001-00-0001-77.png
00000014,284,0,1447688793577,1447688794134,877,546,0,0,0,1,3,2,4,0005-00-0000-56.png,0002-00-0000-07.png
00000014,285,1,1447688797781,1447688798141,303,361,0,0,0,0,3,3,3,0001-00-0001-55.png,0002-00-0000-69.png
00000014,286,1,1447688799651,1447688800108,927,409,0,0,0,2,0,2,2,0003-00-0000-67.png,0001-00-0001-89.png
00000014,287,1,1447688801236,1447688801745,876,521,0,0,0,3,1,2,4,0002-00-0001-02.png,0005-00-0000-94.png
00000014,288,0,1447688802811,1447688803341,892,543,0,0,0,1,2,1,3,0005-00-0001-02.png,0003-00-0000-98.png
00000014,289,1,1447688806547,1447688806979,895,524,0,0,0,3,2,1,5,0002-00-0000-20.png,0003-00-0001-62.png
00000014,290,1,1447688808644,1447688809091,377,451,0,0,0,2,3,1,5,0003-00-0001-07.png,0002-00-0001-25.png
00000014,291,1,1447688810176,1447688810636,324,481,0,0,0,0,4,4,4,0001-00-0000-41.png,0004-00-0001-33.png
00000014,292,0,1447688811736,1447688812278,906,454,0,0,0,3,4,1,7,0002-00-0000-77.png,0004-00-0000-84.png
00000014,293,0,1447688815572,1447688815993,338,318,0,0,0,3,0,3,3,0002-00-0000-61.png,0001-00-0001-32.png
00000014,294,1,1447688820073,1447688820558,366,360,0,0,0,0,2,2,2,0001-00-0000-91.png,0003-00-0001-55.png
00000014,295,0,1447688822438,1447688822916,890,507,0,0,0,0,1,1,1,0001-00-0000-08.png,0005-00-0001-87.png
00000014,296,0,1447688825906,1447688826897,427,384,0,0,0,2,1,1,3,0003-00-0001-21.png,0005-00-0000-19.png
00000014,297,0,1447688830259,1447688830640,313,382,0,0,0,4,2,2,6,0004-00-0000-67.png,0003-00-0000-31.png
00000014,298,1,1447688833624,1447688834072,900,522,0,0,0,4,1,3,5,0004-00-0001-94.png,0005-00-0001-95.png
00000014,299,1,1447688835084,1447688835535,369,479,0,0,0,1,4,3,5,0005-00-0001-24.png,0004-00-0001-94.png
00000014,300,1,1447688836540,1447688837127,926,476,0,0,0,4,3,1,7,0004-00-0000-78.png,0002-00-0000-33.png
00000014,301,0,1447688838129,1447688838655,888,449,0,0,0,2,3,1,5,0003-00-0000-01.png,0002-00-0000-57.png
00000014,302,0,1447688842046,1447688842511,913,488,0,0,0,0,4,4,4,0001-00-0000-95.png,0004-00-0001-17.png
00000014,303,1,1447688847582,1447688848070,900,392,0,0,0,2,0,2,2,0003-00-0000-89.png,0001-00-0001-35.png
00000014,304,0,1447688849392,1447688849890,401,462,0,0,0,3,1,2,4,0002-00-0000-52.png,0005-00-0001-59.png
00000014,305,1,1447688853156,1447688853572,904,474,0,0,0,3,0,3,3,0002-00-0001-10.png,0001-00-0001-00.png
00000014,306,1,1447688854583,1447688855003,314,443,0,0,0,0,3,3,3,0001-00-0000-28.png,0002-00-0000-52.png
00000014,307,0,1447688855909,1447688856750,902,439,0,0,0,3,4,1,7,0002-00-0000-56.png,0004-00-0001-28.png
00000014,308,1,1447688860232,1447688860589,299,409,0,0,0,1,3,2,4,0005-00-0001-97.png,0002-00-0000-31.png
00000014,309,1,1447688862290,1447688862827,941,453,0,0,0,3,2,1,5,0002-00-0000-43.png,0003-00-0000-47.png
00000014,310,1,1447688863831,1447688864371,900,414,0,0,0,4,1,3,5,0004-00-0000-80.png,0005-00-0000-53.png
00000014,311,1,1447688865385,1447688865844,435,471,0,0,0,0,1,1,1,0001-00-0001-37.png,0005-00-0001-57.png
00000014,312,0,1447688867157,1447688867614,904,416,0,0,0,1,4,3,5,0005-00-0001-28.png,0004-00-0001-43.png
00000014,313,1,1447688871768,1447688872199,953,468,0,0,0,4,0,4,4,0004-00-0001-69.png,0001-00-0000-11.png
00000014,314,1,1447688873800,1447688874249,875,540,0,0,0,4,3,1,7,0004-00-0001-31.png,0002-00-0000-39.png
00000014,315,1,1447688875301,1447688875745,354,488,0,0,0,0,2,2,2,0001-00-0000-39.png,0003-00-0001-08.png
00000014,316,1,1447688877148,1447688877587,348,429,0,0,0,1,2,1,3,0005-00-0001-01.png,0003-00-0001-14.png
00000014,317,1,1447688878867,1447688879300,341,467,0,0,0,2,4,2,6,0003-00-0001-07.png,0004-00-0000-72.png
00000014,318,1,1447688880357,1447688880835,902,441,0,0,0,4,2,2,6,0004-00-0001-79.png,0003-00-0001-32.png
00000014,319,1,1447688881939,1447688882390,902,441,0,0,0,1,0,1,1,0005-00-0001-93.png,0001-00-0001-64.png
00000014,320,1,1447688883441,1447688884491,919,415,0,0,0,2,1,1,3,0003-00-0001-57.png,0005-00-0000-78.png
00000014,321,1,1447688885550,1447688886085,898,458,0,0,0,4,3,1,7,0004-00-0000-26.png,0002-00-0000-54.png
00000014,322,1,1447688887160,1447688887564,376,462,0,0,0,1,3,2,4,0005-00-0001-88.png,0002-00-0001-33.png
00000014,323,0,1447688888590,1447688889013,435,498,0,0,0,1,0,1,1,0005-00-0000-05.png,0001-00-0000-40.png
00000014,324,0,1447688892448,1447688892851,938,423,0,0,0,2,4,2,6,0003-00-0000-74.png,0004-00-0000-11.png
00000014,325,0,1447688895947,1447688896363,334,400,0,0,0,4,0,4,4,0004-00-0001-06.png,0001-00-0000-26.png
00000014,326,1,1447688904639,1447688904977,337,409,0,0,0,1,4,3,5,0005-00-0000-00.png,0004-00-0000-65.png
00000014,327,1,1447688906225,1447688906856,914,444,0,0,0,2,1,1,3,0003-00-0000-33.png,0005-00-0000-15.png
00000014,328,1,1447688908091,1447688908710,897,525,0,0,0,2,0,2,2,0003-00-0001-82.png,0001-00-0001-33.png
00000014,329,0,1447688909909,1447688910406,906,420,0,0,0,2,3,1,5,0003-00-0001-73.png,0002-00-0001-74.png
00000014,330,1,1447688962629,1447688962991,391,363,0,0,0,0,2,2,2,0001-00-0000-52.png,0003-00-0001-06.png
00000014,331,0,1447688964421,1447688964885,378,472,0,0,0,3,2,1,5,0002-00-0000-25.png,0003-00-0001-56.png
00000014,332,0,1447689074804,1447689075137,359,360,0,0,0,3,0,3,3,0002-00-0001-09.png,0001-00-0000-77.png
00000014,333,0,1447689089554,1447689090052,365,441,0,0,0,4,1,3,5,0004-00-0001-80.png,0005-00-0001-76.png
00000014,334,1,1447689093332,1447689093779,395,463,0,0,0,0,3,3,3,0001-00-0000-65.png,0002-00-0001-68.png
00000014,335,0,1447689095063,1447689095531,443,454,0,0,0,4,2,2,6,0004-00-0001-05.png,0003-00-0001-49.png
00000014,336,1,1447689098479,1447689098547,494,536,0,0,0,0,4,4,4,0001-00-0001-89.png,0004-00-0001-91.png
00000014,337,1,1447689099533,1447689099979,416,468,0,0,0,0,1,1,1,0001-00-0000-09.png,0005-00-0000-16.png
00000014,338,1,1447689101145,1447689101569,453,462,0,0,0,1,2,1,3,0005-00-0001-27.png,0003-00-0001-77.png
00000014,339,0,1447689102556,1447689103091,908,501,0,0,0,3,4,1,7,0002-00-0000-47.png,0004-00-0001-18.png
00000014,340,1,1447689106542,1447689107006,979,415,0,0,0,3,1,2,4,0002-00-0000-75.png,0005-00-0000-08.png
00000014,341,1,1447689108651,1447689109072,367,455,0,0,0,0,2,2,2,0001-00-0001-69.png,0003-00-0000-63.png
00000014,342,1,1447689110092,1447689110517,434,498,0,0,0,3,4,1,7,0002-00-0001-27.png,0004-00-0001-58.png
00000014,343,1,1447689111448,1447689111923,873,544,0,0,0,3,0,3,3,0002-00-0001-34.png,0001-00-0000-75.png
00000014,344,1,1447689112903,1447689113405,928,469,0,0,0,2,0,2,2,0003-00-0001-96.png,0001-00-0000-48.png
00000014,345,1,1447689114386,1447689114860,462,524,0,0,0,0,1,1,1,0001-00-0000-48.png,0005-00-0000-56.png
00000014,346,1,1447689115875,1447689116258,407,467,0,0,0,0,3,3,3,0001-00-0000-41.png,0002-00-0000-36.png
00000014,347,0,1447689117237,1447689117776,902,468,0,0,0,2,3,1,5,0003-00-0000-64.png,0002-00-0000-67.png
00000014,348,0,1447689121830,1447689122280,954,495,0,0,0,1,4,3,5,0005-00-0001-02.png,0004-00-0000-97.png
00000014,349,1,1447689125657,1447689126091,343,386,0,0,0,0,4,4,4,0001-00-0001-57.png,0004-00-0001-10.png
00000014,350,1,1447689127701,1447689128229,898,470,0,0,0,1,0,1,1,0005-00-0000-08.png,0001-00-0000-19.png
00000014,351,0,1447689129253,1447689129685,358,480,0,0,0,4,1,3,5,0004-00-0001-52.png,0005-00-0000-61.png
00000014,352,1,1447689132642,1447689133157,925,484,0,0,0,3,1,2,4,0002-00-0001-45.png,0005-00-0000-68.png
00000014,353,0,1447689134214,1447689134761,900,437,0,0,0,2,4,2,6,0003-00-0000-30.png,0004-00-0000-18.png
00000014,354,1,1447689138170,1447689138635,949,436,0,0,0,2,1,1,3,0003-00-0001-62.png,0005-00-0001-54.png
00000014,355,1,1447689139859,1447689140501,413,546,0,0,0,1,3,2,4,0005-00-0000-06.png,0002-00-0000-96.png
00000014,356,1,1447689141488,1447689142080,925,437,0,0,0,4,0,4,4,0004-00-0001-37.png,0001-00-0001-74.png
00000014,357,1,1447689143149,1447689143798,891,494,0,0,0,4,3,1,7,0004-00-0000-25.png,0002-00-0001-37.png
00000014,358,0,1447689144798,1447689145179,429,481,0,0,0,4,2,2,6,0004-00-0001-58.png,0003-00-0000-13.png
00000014,359,0,1447689148803,1447689149219,342,376,0,0,0,3,2,1,5,0002-00-0001-18.png,0003-00-0001-05.png
00000014,360,1,1447689164077,1447689164489,319,432,0,0,0,1,2,1,3,0005-00-0001-48.png,0003-00-0001-18.png
00000014,361,1,1447689166239,1447689166754,393,380,0,0,0,2,3,1,5,0003-00-0001-95.png,0002-00-0000-29.png
00000014,362,0,1447689168060,1447689168819,421,479,0,0,0,3,0,3,3,0002-00-0001-17.png,0001-00-0000-59.png
00000014,363,0,1447689172259,1447689172617,361,388,0,0,0,4,1,3,5,0004-00-0000-59.png,0005-00-0001-96.png
00000014,364,1,1447689175748,1447689176232,470,555,0,0,0,1,2,1,3,0005-00-0001-49.png,0003-00-0001-59.png
00000014,365,1,1447689177400,1447689177811,385,449,0,0,0,0,4,4,4,0001-00-0001-29.png,0004-00-0001-31.png
00000014,366,1,1447689179239,1447689179760,944,429,0,0,0,3,1,2,4,0002-00-0001-79.png,0005-00-0000-36.png
00000014,367,1,1447689180720,1447689181259,875,527,0,0,0,4,0,4,4,0004-00-0001-48.png,0001-00-0000-95.png
00000014,368,0,1447689182220,1447689183081,388,410,0,0,0,4,3,1,7,0004-00-0000-53.png,0002-00-0001-76.png
00000014,369,1,1447689233002,1447689233349,275,279,0,0,0,3,4,1,7,0002-00-0000-52.png,0004-00-0001-09.png
00000014,370,1,1447689234553,1447689235036,392,428,0,0,0,0,1,1,1,0001-00-0000-88.png,0005-00-0001-09.png
00000014,371,1,1447689282674,1447689284009,325,345,0,0,0,1,4,3,5,0005-00-0000-66.png,0004-00-0001-51.png
00000014,372,1,1447689285317,1447689285821,912,477,0,0,0,2,0,2,2,0003-00-0000-85.png,0001-00-0001-54.png
00000014,373,1,1447689286822,1447689287282,350,475,0,0,0,1,3,2,4,0005-00-0000-43.png,0002-00-0001-65.png
00000014,374,1,1447689288229,1447689288699,350,422,0,0,0,0,2,2,2,0001-00-0001-53.png,0003-00-0001-44.png
00000014,375,0,1447689290216,1447689290622,427,488,0,0,0,3,2,1,5,0002-00-0000-61.png,0003-00-0001-69.png
00000014,376,0,1447689294061,1447689294491,925,400,0,0,0,2,4,2,6,0003-00-0000-34.png,0004-00-0001-99.png
00000014,377,0,1447689299161,1447689299554,338,384,0,0,0,4,2,2,6,0004-00-0001-26.png,0003-00-0001-22.png
00000014,378,0,1447689303204,1447689303589,413,454,0,0,0,1,0,1,1,0005-00-0000-93.png,0001-00-0000-42.png
00000014,379,1,1447689557522,1447689557884,360,452,0,0,0,0,3,3,3,0001-00-0001-93.png,0002-00-0000-31.png
00000014,380,0,1447689559102,1447689567396,348,328,0,0,0,2,1,1,3,0003-00-0001-62.png,0005-00-0001-73.png
00000014,381,1,1447689623609,1447689624004,364,370,0,0,0,1,3,2,4,0005-00-0001-84.png,0002-00-0001-21.png
00000014,382,0,1447689625448,1447689625863,382,456,0,0,0,3,2,1,5,0002-00-0000-83.png,0003-00-0000-08.png
00000014,383,1,1447689628856,1447689629220,368,406,0,0,0,0,1,1,1,0001-00-0000-00.png,0005-00-0000-22.png
00000014,384,0,1447689630135,1447689630597,368,454,0,0,0,1,0,1,1,0005-00-0000-76.png,0001-00-0001-89.png
00000014,385,1,1447689633695,1447689634166,946,435,0,0,0,4,0,4,4,0004-00-0001-83.png,0001-00-0001-77.png
00000014,386,1,1447689635186,1447689635852,953,502,0,0,0,4,1,3,5,0004-00-0000-00.png,0005-00-0001-60.png
00000014,387,1,1447689636943,1447689637306,401,462,0,0,0,0,3,3,3,0001-00-0001-94.png,0002-00-0001-23.png
00000014,388,0,1447689638581,1447689639070,933,501,0,0,0,2,3,1,5,0003-00-0001-49.png,0002-00-0000-25.png
00000014,389,0,1447689643427,1447689643862,383,385,0,0,0,3,0,3,3,0002-00-0000-76.png,0001-00-0000-16.png
00000014,390,1,1447689647291,1447689647733,971,427,0,0,0,2,0,2,2,0003-00-0000-75.png,0001-00-0001-62.png
00000014,391,1,1447689648931,1447689650199,873,432,0,0,0,2,1,1,3,0003-00-0001-93.png,0005-00-0000-32.png
00000014,392,0,1447689651366,1447689651740,400,454,0,0,0,4,2,2,6,0004-00-0001-06.png,0003-00-0001-48.png
00000014,393,1,1447689655539,1447689655981,926,410,0,0,0,4,3,1,7,0004-00-0000-84.png,0002-00-0001-21.png
00000014,394,0,1447689657121,1447689657657,951,462,0,0,0,0,4,4,4,0001-00-0000-44.png,0004-00-0001-36.png
00000014,395,1,1447689661611,1447689662119,874,508,0,0,0,3,1,2,4,0002-00-0001-07.png,0005-00-0001-02.png
00000014,396,0,1447689663203,1447689663666,925,436,0,0,0,2,4,2,6,0003-00-0000-59.png,0004-00-0001-46.png
00000014,397,1,1447689666680,1447689667119,325,423,0,0,0,1,2,1,3,0005-00-0001-79.png,0003-00-0001-99.png
00000014,398,0,1447689668083,1447689668677,927,467,0,0,0,3,4,1,7,0002-00-0001-85.png,0004-00-0001-80.png
00000014,399,1,1447689672409,1447689672810,390,381,0,0,0,1,4,3,5,0005-00-0001-37.png,0004-00-0000-33.png
00000014,400,1,1447689674494,1447689674925,376,448,0,0,0,0,2,2,2,0001-00-0000-73.png,0003-00-0001-27.png
00000014,401,1,1447689676061,1447689676482,427,491,0,0,0,1,2,1,3,0005-00-0001-57.png,0003-00-0001-63.png
00000014,402,1,1447689677624,1447689678045,383,505,0,0,0,0,4,4,4,0001-00-0001-64.png,0004-00-0001-94.png
00000014,403,1,1447689679185,1447689679709,870,470,0,0,0,3,1,2,4,0002-00-0001-04.png,0005-00-0000-73.png
00000014,404,1,1447689680715,1447689681112,427,477,0,0,0,1,3,2,4,0005-00-0001-60.png,0002-00-0000-21.png
00000014,405,1,1447689682120,1447689682552,440,476,0,0,0,0,2,2,2,0001-00-0000-24.png,0003-00-0000-92.png
00000014,406,1,1447689683526,1447689683979,410,479,0,0,0,1,4,3,5,0005-00-0001-20.png,0004-00-0001-58.png
00000014,407,1,1447689685005,1447689685480,453,433,0,0,0,0,3,3,3,0001-00-0001-25.png,0002-00-0001-87.png
00000014,408,0,1447689686608,1447689687030,401,450,0,0,0,4,1,3,5,0004-00-0001-09.png,0005-00-0000-10.png
00000014,409,1,1447689691120,1447689691573,947,471,0,0,0,3,0,3,3,0002-00-0001-74.png,0001-00-0001-84.png
00000014,410,1,1447689692812,1447689693235,376,462,0,0,0,0,1,1,1,0001-00-0000-34.png,0005-00-0000-72.png
00000014,411,1,1447689694211,1447689694818,863,527,0,0,0,4,2,2,6,0004-00-0000-04.png,0003-00-0001-68.png
00000014,412,1,1447689695924,1447689696437,928,469,0,0,0,2,1,1,3,0003-00-0000-05.png,0005-00-0000-79.png
00000014,413,1,1447689697494,1447689698010,907,455,0,0,0,1,0,1,1,0005-00-0001-01.png,0001-00-0000-69.png
00000014,414,1,1447689699499,1447689700043,891,449,0,0,0,3,2,1,5,0002-00-0001-77.png,0003-00-0000-60.png
00000014,415,1,1447689701031,1447689701482,472,505,0,0,0,3,4,1,7,0002-00-0001-33.png,0004-00-0000-34.png
00000014,416,1,1447689702671,1447689703190,888,473,0,0,0,4,3,1,7,0004-00-0000-05.png,0002-00-0001-32.png
00000014,417,0,1447689704259,1447689704785,913,448,0,0,0,2,4,2,6,0003-00-0000-27.png,0004-00-0000-32.png
00000014,418,1,1447689708744,1447689709186,941,448,0,0,0,4,0,4,4,0004-00-0001-05.png,0001-00-0000-00.png
00000014,419,1,1447689710206,1447689710757,901,450,0,0,0,2,0,2,2,0003-00-0001-04.png,0001-00-0001-62.png
00000014,420,1,1447689711843,1447689712250,423,471,0,0,0,2,3,1,5,0003-00-0000-79.png,0002-00-0001-03.png
00000014,421,1,1447689713364,1447689713916,875,436,0,0,0,2,0,2,2,0003-00-0001-55.png,0001-00-0000-84.png
00000014,422,1,1447689714975,1447689715510,875,450,0,0,0,4,1,3,5,0004-00-0000-80.png,0005-00-0001-47.png
00000014,423,0,1447689716596,1447689717209,868,443,0,0,0,3,4,1,7,0002-00-0000-79.png,0004-00-0000-81.png
00000014,424,1,1447689720215,1447689720651,940,422,0,0,0,3,0,3,3,0002-00-0001-16.png,0001-00-0001-18.png
00000014,425,1,1447689721637,1447689722038,453,476,0,0,0,1,2,1,3,0005-00-0001-44.png,0003-00-0001-60.png
00000014,426,1,1447689723154,1447689723671,922,446,0,0,0,4,0,4,4,0004-00-0000-86.png,0001-00-0000-62.png
00000014,427,1,1447689724707,1447689725247,896,428,0,0,0,4,2,2,6,0004-00-0000-86.png,0003-00-0000-83.png
00000014,428,1,1447689726417,1447689726932,872,431,0,0,0,2,1,1,3,0003-00-0000-73.png,0005-00-0000-08.png
00000014,429,1,1447689727997,1447689728418,416,477,0,0,0,0,3,3,3,0001-00-0000-66.png,0002-00-0001-23.png
00000014,430,1,1447689730313,1447689730770,427,503,0,0,0,0,4,4,4,0001-00-0001-86.png,0004-00-0001-25.png
00000014,431,0,1447689732381,1447689732952,922,419,0,0,0,1,4,3,5,0005-00-0001-36.png,0004-00-0001-69.png
00000014,432,1,1447689736263,1447689736701,965,476,0,0,0,4,3,1,7,0004-00-0000-66.png,0002-00-0000-12.png
00000014,433,0,1447689737986,1447689738370,452,505,0,0,0,3,2,1,5,0002-00-0001-80.png,0003-00-0000-63.png
00000014,434,0,1447689741683,1447689742105,937,473,0,0,0,1,3,2,4,0005-00-0001-81.png,0002-00-0000-55.png
00000014,435,0,1447689745509,1447689745991,432,553,0,0,0,1,0,1,1,0005-00-0001-25.png,0001-00-0001-89.png
00000014,436,1,1447689749323,1447689749809,350,396,0,0,0,2,4,2,6,0003-00-0000-89.png,0004-00-0000-15.png
00000014,437,1,1447689751341,1447689751819,930,480,0,0,0,3,1,2,4,0002-00-0000-46.png,0005-00-0001-18.png
00000014,438,1,1447689752984,1447689753386,383,454,0,0,0,0,2,2,2,0001-00-0001-45.png,0003-00-0001-90.png
00000014,439,0,1447689755069,1447689755609,901,461,0,0,0,2,3,1,5,0003-00-0001-05.png,0002-00-0001-79.png
00000014,440,0,1447689759601,1447689760021,909,447,0,0,0,0,1,1,1,0001-00-0001-51.png,0005-00-0001-18.png
00000014,441,1,1447689763180,1447689763573,991,449,0,0,0,3,2,1,5,0002-00-0000-12.png,0003-00-0001-44.png
00000014,442,1,1447689764880,1447689765305,461,498,0,0,0,2,4,2,6,0003-00-0001-59.png,0004-00-0000-67.png
00000014,443,0,1447689766531,1447689767453,287,423,0,0,0,4,2,2,6,0004-00-0000-64.png,0003-00-0000-62.png
00000014,444,1,1447689771657,1447689772080,930,462,0,0,0,4,0,4,4,0004-00-0000-44.png,0001-00-0001-04.png
00000014,445,1,1447689773237,1447689773752,352,416,0,0,0,1,4,3,5,0005-00-0001-91.png,0004-00-0000-80.png
00000014,446,0,1447689774849,1447689775319,358,454,0,0,0,3,1,2,4,0002-00-0001-33.png,0005-00-0001-89.png
00000014,447,0,1447689779144,1447689779569,432,544,0,0,0,3,0,3,3,0002-00-0000-80.png,0001-00-0001-69.png
00000014,448,1,1447689783355,1447689783793,990,449,0,0,0,2,1,1,3,0003-00-0001-88.png,0005-00-0000-03.png
00000014,449,1,1447689785217,1447689785618,406,445,0,0,0,0,4,4,4,0001-00-0001-39.png,0004-00-0001-17.png
00000014,450,1,1447689787004,1447689787518,943,442,0,0,0,4,3,1,7,0004-00-0001-36.png,0002-00-0000-99.png
00000014,451,1,1447689789119,1447689789725,885,444,0,0,0,4,1,3,5,0004-00-0001-61.png,0005-00-0001-05.png
00000014,452,0,1447689791308,1447689791900,880,550,0,0,0,3,4,1,7,0002-00-0000-86.png,0004-00-0001-27.png
00000014,453,1,1447689795513,1447689795908,413,520,0,0,0,1,2,1,3,0005-00-0000-34.png,0003-00-0000-27.png
00000014,454,0,1447689797570,1447689798054,908,473,0,0,0,2,3,1,5,0003-00-0001-53.png,0002-00-0001-45.png
00000014,455,1,1447689801216,1447689801668,973,486,0,0,0,2,0,2,2,0003-00-0000-85.png,0001-00-0001-98.png
00000014,456,0,1447689802826,1447689803333,957,469,0,0,0,0,3,3,3,0001-00-0001-08.png,0002-00-0000-25.png
00000014,457,1,1447689806743,1447689807154,350,398,0,0,0,0,2,2,2,0001-00-0001-49.png,0003-00-0001-71.png
00000014,458,1,1447689808361,1447689808855,875,554,0,0,0,1,0,1,1,0005-00-0001-92.png,0001-00-0001-43.png
00000014,459,1,1447689810082,1447689810614,376,450,0,0,0,1,3,2,4,0005-00-0001-50.png,0002-00-0001-46.png
00000014,460,1,1447689812418,1447689813434,374,430,0,0,0,0,1,1,1,0001-00-0000-90.png,0005-00-0000-50.png
00000014,461,0,1447689815031,1447689816013,376,399,0,0,0,4,2,2,6,0004-00-0001-25.png,0003-00-0000-48.png
00000014,462,1,1447689819474,1447689819909,915,517,0,0,0,4,0,4,4,0004-00-0001-68.png,0001-00-0001-54.png
00000014,463,1,1447689821432,1447689821931,920,530,0,0,0,2,0,2,2,0003-00-0001-92.png,0001-00-0001-55.png
00000014,464,1,1447689824089,1447689824572,450,470,0,0,0,0,4,4,4,0001-00-0001-90.png,0004-00-0001-42.png
00000014,465,1,1447689825940,1447689826360,372,472,0,0,0,1,4,3,5,0005-00-0000-49.png,0004-00-0001-94.png
00000014,466,1,1447689828198,1447689828833,875,462,0,0,0,4,1,3,5,0004-00-0000-77.png,0005-00-0001-89.png
00000014,467,0,1447689830574,1447689831068,904,473,0,0,0,3,4,1,7,0002-00-0001-75.png,0004-00-0000-23.png
00000014,468,1,1447689834918,1447689835364,413,410,0,0,0,0,1,1,1,0001-00-0001-28.png,0005-00-0000-96.png
00000014,469,1,1447689836679,1447689837223,383,408,0,0,0,2,4,2,6,0003-00-0000-92.png,0004-00-0000-53.png
00000014,470,1,1447689839302,1447689839696,410,498,0,0,0,1,3,2,4,0005-00-0000-84.png,0002-00-0001-86.png
00000014,471,1,1447689841719,1447689842233,909,499,0,0,0,2,1,1,3,0003-00-0000-33.png,0005-00-0001-65.png
00000014,472,1,1447689844340,1447689844823,915,473,0,0,0,1,0,1,1,0005-00-0001-92.png,0001-00-0000-54.png
00000014,473,0,1447689846431,1447689846904,411,478,0,0,0,3,1,2,4,0002-00-0001-50.png,0005-00-0000-41.png
00000014,474,1,1447689849736,1447689850295,951,396,0,0,0,4,3,1,7,0004-00-0000-40.png,0002-00-0000-70.png
00000014,475,0,1447689851583,1447689852090,936,463,0,0,0,1,2,1,3,0005-00-0001-07.png,0003-00-0000-61.png
00000014,476,0,1447689861050,1447689861502,961,445,0,0,0,2,3,1,5,0003-00-0001-64.png,0002-00-0001-51.png
00000014,477,0,1447689864586,1447689865021,340,391,0,0,0,3,2,1,5,0002-00-0000-44.png,0003-00-0000-52.png
00000014,478,1,1447689869022,1447689869394,362,372,0,0,0,0,2,2,2,0001-00-0001-90.png,0003-00-0001-69.png
00000014,479,1,1447689870543,1447689870935,424,458,0,0,0,0,3,3,3,0001-00-0001-57.png,0002-00-0000-44.png
00000014,480,1,1447689872461,1447689873000,923,491,0,0,0,3,0,3,3,0002-00-0001-01.png,0001-00-0000-85.png
00000014,481,0,1447689874440,1447689875048,873,560,0,0,0,2,3,1,5,0003-00-0001-07.png,0002-00-0000-87.png
00000014,482,1,1447689880378,1447689880783,417,428,0,0,0,0,3,3,3,0001-00-0000-48.png,0002-00-0000-51.png
00000014,483,1,1447689883055,1447689883520,942,477,0,0,0,2,1,1,3,0003-00-0000-21.png,0005-00-0000-96.png
00000014,484,1,1447689885472,1447689886031,900,396,0,0,0,1,0,1,1,0005-00-0000-23.png,0001-00-0000-44.png
00000014,485,1,1447689887852,1447689888289,383,471,0,0,0,0,4,4,4,0001-00-0000-40.png,0004-00-0000-96.png
00000014,486,0,1447689890594,1447689891084,928,443,0,0,0,2,4,2,6,0003-00-0000-04.png,0004-00-0000-11.png
00000014,487,1,1447689895043,1447689895536,394,417,0,0,0,1,2,1,3,0005-00-0000-33.png,0003-00-0001-46.png
00000014,488,1,1447689897417,1447689897891,915,474,0,0,0,4,2,2,6,0004-00-0000-24.png,0003-00-0001-66.png
00000014,489,1,1447689899972,1447689900353,375,484,0,0,0,0,1,1,1,0001-00-0001-73.png,0005-00-0000-41.png
00000014,490,0,1447689902658,1447689903148,393,451,0,0,0,4,3,1,7,0004-00-0001-63.png,0002-00-0000-69.png
00000014,491,0,1447689906561,1447689907053,925,436,0,0,0,3,4,1,7,0002-00-0000-65.png,0004-00-0000-10.png
00000014,492,1,1447689910976,1447689911498,325,370,0,0,0,1,4,3,5,0005-00-0000-52.png,0004-00-0001-55.png
00000014,493,1,1447689913261,1447689913736,896,550,0,0,0,2,0,2,2,0003-00-0001-20.png,0001-00-0000-64.png
00000014,494,1,1447689915277,1447689915794,891,530,0,0,0,4,0,4,4,0004-00-0001-12.png,0001-00-0001-45.png
00000014,495,1,1447689917703,1447689918187,931,479,0,0,0,3,0,3,3,0002-00-0000-39.png,0001-00-0001-65.png
00000014,496,1,1447689920258,1447689920661,398,471,0,0,0,0,2,2,2,0001-00-0001-19.png,0003-00-0000-77.png
00000014,497,1,1447689922251,1447689922802,896,498,0,0,0,4,1,3,5,0004-00-0000-91.png,0005-00-0000-95.png
00000014,498,0,1447689924106,1447689924641,376,436,0,0,0,3,1,2,4,0002-00-0001-59.png,0005-00-0000-94.png
00000014,499,1,1447689927987,1447689928611,412,410,0,0,0,1,3,2,4,0005-00-0000-18.png,0002-00-0001-05.png
00000014,500,0,1447689929775,1447689930177,402,451,0,0,0,3,2,1,5,0002-00-0001-57.png,0003-00-0000-09.png
00000014,501,1,1447689933307,1447689933781,901,450,0,0,0,4,3,1,7,0004-00-0000-34.png,0002-00-0000-40.png
00000014,502,0,1447689934923,1447689935354,397,483,0,0,0,3,2,1,5,0002-00-0000-80.png,0003-00-0000-34.png
00000014,503,1,1447689938546,1447689938943,360,398,0,0,0,1,4,3,5,0005-00-0001-40.png,0004-00-0000-39.png
00000014,504,1,1447689940294,1447689940686,433,550,0,0,0,0,3,3,3,0001-00-0001-60.png,0002-00-0001-77.png
00000014,505,1,1447689941884,1447689942383,882,473,0,0,0,4,1,3,5,0004-00-0000-74.png,0005-00-0000-30.png
00000014,506,0,1447689950627,1447689951022,440,397,0,0,0,4,2,2,6,0004-00-0001-36.png,0003-00-0001-50.png
00000014,507,0,1447689960833,1447689961229,409,514,0,0,0,2,1,1,3,0003-00-0000-15.png,0005-00-0001-92.png
00000014,508,1,1447689964752,1447689965226,319,361,0,0,0,0,4,4,4,0001-00-0000-32.png,0004-00-0000-04.png
00000014,509,1,1447689966480,1447689966965,931,453,0,0,0,3,0,3,3,0002-00-0000-31.png,0001-00-0000-28.png
00000014,510,0,1447689968341,1447689968947,901,462,0,0,0,2,4,2,6,0003-00-0000-69.png,0004-00-0001-46.png
00000014,511,1,1447689972364,1447689972889,386,483,0,0,0,1,3,2,4,0005-00-0000-22.png,0002-00-0000-43.png
00000014,512,1,1447689974647,1447689975104,363,422,0,0,0,0,2,2,2,0001-00-0000-35.png,0003-00-0000-10.png
00000014,513,0,1447689976669,1447689977131,875,539,0,0,0,3,4,1,7,0002-00-0000-57.png,0004-00-0000-44.png
00000014,514,1,1447689980277,1447689980794,965,423,0,0,0,1,0,1,1,0005-00-0000-36.png,0001-00-0001-46.png
00000014,515,1,1447689982166,1447689982666,401,473,0,0,0,0,1,1,1,0001-00-0001-15.png,0005-00-0001-76.png
00000014,516,1,1447689983923,1447689984466,911,491,0,0,0,4,0,4,4,0004-00-0001-57.png,0001-00-0000-12.png
00000014,517,1,1447689985726,1447689986229,871,471,0,0,0,2,0,2,2,0003-00-0000-60.png,0001-00-0000-01.png
00000014,518,1,1447689987521,1447689987950,402,503,0,0,0,1,2,1,3,0005-00-0001-02.png,0003-00-0000-29.png
00000014,519,0,1447689989094,1447689989695,934,473,0,0,0,2,3,1,5,0003-00-0001-31.png,0002-00-0000-24.png
00000014,520,0,1447689995285,1447689995683,386,417,0,0,0,3,1,2,4,0002-00-0001-27.png,0005-00-0000-21.png
00000014,521,1,1447689998871,1447689999280,440,476,0,0,0,0,2,2,2,0001-00-0001-58.png,0003-00-0001-99.png
00000014,522,0,1447690000315,1447690000793,902,476,0,0,0,2,3,1,5,0003-00-0001-17.png,0002-00-0000-24.png
00000014,523,0,1447690004041,1447690004425,439,476,0,0,0,4,3,1,7,0004-00-0000-14.png,0002-00-0000-87.png
00000014,524,1,1447690009096,1447690009554,392,429,0,0,0,1,2,1,3,0005-00-0001-88.png,0003-00-0000-78.png
00000014,525,1,1447690010534,1447690011051,914,468,0,0,0,4,1,3,5,0004-00-0001-65.png,0005-00-0000-18.png
00000014,526,0,1447690012082,1447690012580,901,450,0,0,0,0,1,1,1,0001-00-0001-50.png,0005-00-0001-07.png
00000014,527,1,1447690015509,1447690015925,928,441,0,0,0,1,0,1,1,0005-00-0001-14.png,0001-00-0001-62.png
00000014,528,1,1447690016961,1447690017504,927,475,0,0,0,2,0,2,2,0003-00-0000-87.png,0001-00-0001-76.png
00000014,529,1,1447690018552,1447690018987,440,475,0,0,0,0,3,3,3,0001-00-0000-32.png,0002-00-0001-56.png
00000014,530,1,1447690020541,1447690021125,444,481,0,0,0,2,4,2,6,0003-00-0001-02.png,0004-00-0001-28.png
00000014,531,1,1447690022318,1447690022854,424,446,0,0,0,1,4,3,5,0005-00-0000-97.png,0004-00-0000-08.png
00000014,532,0,1447690023938,1447690024390,427,488,0,0,0,4,2,2,6,0004-00-0001-82.png,0003-00-0000-95.png
00000014,533,1,1447690027647,1447690028113,950,438,0,0,0,4,0,4,4,0004-00-0001-68.png,0001-00-0001-10.png
00000014,534,0,1447690029296,1447690029876,859,560,0,0,0,3,4,1,7,0002-00-0001-46.png,0004-00-0001-83.png
00000014,535,1,1447690033827,1447690034242,355,419,0,0,0,1,3,2,4,0005-00-0000-68.png,0002-00-0000-39.png
00000014,536,0,1447690035491,1447690036517,439,542,0,0,0,3,1,2,4,0002-00-0001-02.png,0005-00-0000-89.png
00000014,537,0,1447690040297,1447690041218,325,410,0,0,0,3,0,3,3,0002-00-0001-29.png,0001-00-0001-72.png
00000014,538,0,1447690049961,1447690051073,299,527,0,0,0,2,1,1,3,0003-00-0000-08.png,0005-00-0000-02.png
00000014,539,1,1447690055828,1447690056200,381,403,0,0,0,0,4,4,4,0001-00-0000-55.png,0004-00-0000-76.png
00000014,540,1,1447690057219,1447690057693,929,403,0,0,0,3,2,1,5,0002-00-0000-34.png,0003-00-0000-50.png
00000014,541,1,1447690058650,1447690059252,325,410,0,0,0,1,4,3,5,0005-00-0001-04.png,0004-00-0001-64.png
00000014,542,1,1447690060209,1447690060634,451,505,0,0,0,0,3,3,3,0001-00-0001-31.png,0002-00-0000-37.png
00000014,543,0,1447690061630,1447690062127,868,560,0,0,0,0,1,1,1,0001-00-0000-16.png,0005-00-0001-07.png
00000014,544,1,1447690068608,1447690069036,382,366,0,0,0,1,2,1,3,0005-00-0000-57.png,0003-00-0000-32.png
00000014,545,0,1447690070070,1447690070511,394,455,0,0,0,4,2,2,6,0004-00-0001-41.png,0003-00-0001-91.png
00000014,546,0,1447690074594,1447690075130,899,502,0,0,0,2,4,2,6,0003-00-0001-36.png,0004-00-0000-11.png
00000014,547,1,1447690081113,1447690081506,979,442,0,0,0,2,1,1,3,0003-00-0000-47.png,0005-00-0001-64.png
00000014,548,1,1447690082990,1447690083525,900,474,0,0,0,4,1,3,5,0004-00-0001-09.png,0005-00-0001-54.png
00000014,549,1,1447690084513,1447690085108,922,471,0,0,0,3,0,3,3,0002-00-0001-50.png,0001-00-0000-39.png
00000014,550,1,1447690086353,1447690086885,925,474,0,0,0,2,0,2,2,0003-00-0000-69.png,0001-00-0000-62.png
00000014,551,1,1447690087864,1447690088260,350,449,0,0,0,0,2,2,2,0001-00-0001-65.png,0003-00-0000-57.png
00000014,552,0,1447690089343,1447690089885,874,542,0,0,0,2,3,1,5,0003-00-0001-17.png,0002-00-0000-23.png
00000014,553,0,1447690093214,1447690093683,951,449,0,0,0,1,3,2,4,0005-00-0001-20.png,0002-00-0000-70.png
00000014,554,0,1447690096869,1447690097354,919,428,0,0,0,3,4,1,7,0002-00-0000-33.png,0004-00-0001-42.png
00000014,555,1,1447690100356,1447690101056,939,358,0,0,0,3,1,2,4,0002-00-0000-98.png,0005-00-0001-27.png
00000014,556,0,1447690102045,1447690102523,387,464,0,0,0,4,0,4,4,0004-00-0001-27.png,0001-00-0000-30.png
00000014,557,0,1447690105373,1447690105902,388,336,0,0,0,3,2,1,5,0002-00-0001-04.png,0003-00-0000-22.png
00000014,558,1,1447690145539,1447690146004,939,372,0,0,0,1,0,1,1,0005-00-0000-73.png,0001-00-0001-67.png
00000014,559,1,1447690146963,1447690147479,945,390,0,0,0,4,3,1,7,0004-00-0000-47.png,0002-00-0000-23.png
00000014,560,1,1447690148476,1447690148901,356,401,0,0,0,0,4,4,4,0001-00-0001-04.png,0004-00-0000-83.png
00000014,561,1,1447690149783,1447690150273,894,446,0,0,0,2,1,1,3,0003-00-0001-79.png,0005-00-0001-28.png
00000014,562,1,1447690151248,1447690151680,368,428,0,0,0,1,2,1,3,0005-00-0001-43.png,0003-00-0000-00.png
00000014,563,1,1447690152642,1447690153130,412,422,0,0,0,2,4,2,6,0003-00-0001-95.png,0004-00-0000-53.png
00000014,564,0,1447690154124,1447690154724,417,386,0,0,0,3,1,2,4,0002-00-0000-30.png,0005-00-0000-95.png
00000014,565,1,1447690170580,1447690170925,369,386,0,0,0,1,4,3,5,0005-00-0001-52.png,0004-00-0000-36.png
00000014,566,0,1447690172209,1447690172711,927,493,0,0,0,1,3,2,4,0005-00-0001-69.png,0002-00-0001-46.png
00000014,567,1,1447690192011,1447690192425,926,371,0,0,0,4,0,4,4,0004-00-0000-55.png,0001-00-0001-94.png
00000014,568,0,1447690193733,1447690194239,427,476,0,0,0,3,2,1,5,0002-00-0001-55.png,0003-00-0001-34.png
00000014,569,0,1447690212089,1447690212462,333,340,0,0,0,4,2,2,6,0004-00-0001-90.png,0003-00-0000-63.png
00000014,570,1,1447690216492,1447690216893,417,443,0,0,0,3,4,1,7,0002-00-0001-58.png,0004-00-0001-39.png
00000014,571,1,1447690218204,1447690218649,336,450,0,0,0,0,3,3,3,0001-00-0001-39.png,0002-00-0001-20.png
00000014,572,1,1447690220277,1447690220744,343,505,0,0,0,0,1,1,1,0001-00-0000-49.png,0005-00-0000-63.png
00000014,573,1,1447690222100,1447690222598,901,488,0,0,0,4,3,1,7,0004-00-0001-61.png,0002-00-0001-89.png
00000014,574,1,1447690223767,1447690224266,900,449,0,0,0,4,1,3,5,0004-00-0001-75.png,0005-00-0000-29.png
00000014,575,1,1447690225282,1447690226304,931,400,0,0,0,3,0,3,3,0002-00-0000-24.png,0001-00-0001-19.png
00000014,576,1,1447690227754,1447690228148,394,480,0,0,0,0,2,2,2,0001-00-0001-15.png,0003-00-0000-32.png
00000014,577,0,1447690229128,1447690229603,400,513,0,0,0,1,0,1,1,0005-00-0001-95.png,0001-00-0000-16.png
00000014,578,1,1447690235725,1447690236096,355,384,0,0,0,0,4,4,4,0001-00-0001-61.png,0004-00-0001-31.png
00000014,579,1,1447690237326,1447690237826,919,495,0,0,0,2,0,2,2,0003-00-0001-17.png,0001-00-0000-43.png
00000014,580,0,1447690238934,1447690239499,900,429,0,0,0,2,3,1,5,0003-00-0000-17.png,0002-00-0001-08.png
00000014,581,1,1447690246206,1447690246646,901,529,0,0,0,4,1,3,5,0004-00-0000-89.png,0005-00-0000-77.png
00000014,582,0,1447690247974,1447690248415,369,480,0,0,0,3,1,2,4,0002-00-0001-38.png,0005-00-0001-51.png
00000014,583,1,1447690252622,1447690253004,380,452,0,0,0,1,4,3,5,0005-00-0001-98.png,0004-00-0000-95.png
00000014,584,1,1447690254306,1447690254769,921,420,0,0,0,2,0,2,2,0003-00-0000-12.png,0001-00-0000-56.png
00000014,585,0,1447690256176,1447690256746,897,469,0,0,0,0,4,4,4,0001-00-0001-66.png,0004-00-0000-40.png
00000014,586,1,1447690307765,1447690308275,898,411,0,0,0,2,1,1,3,0003-00-0001-90.png,0005-00-0001-67.png
00000014,587,1,1447690309622,1447690310084,897,455,0,0,0,4,2,2,6,0004-00-0001-33.png,0003-00-0001-18.png
00000014,588,1,1447690311312,1447690311833,902,410,0,0,0,3,0,3,3,0002-00-0001-25.png,0001-00-0001-23.png
00000014,589,1,1447690313265,1447690313729,865,467,0,0,0,4,0,4,4,0004-00-0000-72.png,0001-00-0001-39.png
00000014,590,0,1447690315082,1447690315590,861,450,0,0,0,1,3,2,4,0005-00-0001-24.png,0002-00-0001-82.png
00000014,591,1,1447690319658,1447690320179,422,544,0,0,0,0,1,1,1,0001-00-0001-21.png,0005-00-0000-07.png
00000014,592,0,1447690321865,1447690322296,376,476,0,0,0,4,3,1,7,0004-00-0001-46.png,0002-00-0001-12.png
00000014,593,0,1447690325988,1447690326440,919,468,0,0,0,3,4,1,7,0002-00-0000-05.png,0004-00-0000-16.png
00000014,594,0,1447690357716,1447690358132,944,500,0,0,0,2,4,2,6,0003-00-0000-52.png,0004-00-0001-87.png
00000014,595,1,1447690364243,1447690364600,368,353,0,0,0,0,2,2,2,0001-00-0000-41.png,0003-00-0001-56.png
00000014,596,0,1447690365919,1447690366318,357,445,0,0,0,1,0,1,1,0005-00-0001-63.png,0001-00-0000-63.png
00000014,597,0,1447690391508,1447690391987,894,524,0,0,0,0,3,3,3,0001-00-0000-53.png,0002-00-0001-64.png
00000014,598,0,1447690396629,1447690397073,924,403,0,0,0,2,3,1,5,0003-00-0001-21.png,0002-00-0001-45.png
00000014,599,0,1447690410862,1447690411169,398,368,0,0,0,3,2,1,5,0002-00-0000-74.png,0003-00-0000-11.png
00000014,600,1,1447690420694,1447690421020,357,357,0,0,0,1,2,1,3,0005-00-0000-44.png,0003-00-0001-93.png
00000014,601,1,1447690422591,1447690423050,944,451,0,0,0,1,0,1,1,0005-00-0001-11.png,0001-00-0001-25.png
00000014,602,1,1447690424475,1447690425016,917,436,0,0,0,4,3,1,7,0004-00-0001-50.png,0002-00-0001-48.png
00000014,603,0,1447690426534,1447690426952,471,505,0,0,0,4,2,2,6,0004-00-0001-17.png,0003-00-0000-73.png
00000014,604,0,1447690430845,1447690431275,922,435,0,0,0,2,4,2,6,0003-00-0001-60.png,0004-00-0001-64.png
00000014,605,1,1447690434455,1447690434955,383,357,0,0,0,0,1,1,1,0001-00-0000-22.png,0005-00-0001-11.png
00000014,606,1,1447690436034,1447690436510,427,488,0,0,0,1,4,3,5,0005-00-0001-34.png,0004-00-0001-57.png
00000014,607,0,1447690437957,1447690438464,408,443,0,0,0,3,2,1,5,0002-00-0001-14.png,0003-00-0000-36.png
00000014,608,1,1447690442227,1447690442620,391,413,0,0,0,1,2,1,3,0005-00-0000-18.png,0003-00-0001-13.png
00000014,609,1,1447690443719,1447690444119,402,455,0,0,0,0,2,2,2,0001-00-0000-65.png,0003-00-0001-35.png
00000014,610,1,1447690445478,1447690445999,876,468,0,0,0,2,1,1,3,0003-00-0001-73.png,0005-00-0001-00.png
00000014,611,0,1447690447164,1447690447561,455,496,0,0,0,4,0,4,4,0004-00-0001-60.png,0001-00-0000-12.png
00000014,612,0,1447690451410,1447690451886,924,457,0,0,0,2,3,1,5,0003-00-0001-50.png,0002-00-0001-10.png
00000014,613,1,1447690455746,1447690456146,350,423,0,0,0,0,4,4,4,0001-00-0001-43.png,0004-00-0000-67.png
00000014,614,0,1447690457193,1447690457737,904,443,0,0,0,1,3,2,4,0005-00-0000-12.png,0002-00-0001-46.png
00000014,615,1,1447690462841,1447690463310,939,450,0,0,0,3,0,3,3,0002-00-0001-33.png,0001-00-0000-29.png
00000014,616,0,1447690465285,1447690465965,922,472,0,0,0,3,4,1,7,0002-00-0000-68.png,0004-00-0000-79.png
00000014,617,1,1447690471075,1447690471505,926,436,0,0,0,3,1,2,4,0002-00-0001-65.png,0005-00-0000-16.png
00000014,618,1,1447690473302,1447690473918,913,501,0,0,0,4,1,3,5,0004-00-0001-37.png,0005-00-0000-64.png
00000014,619,1,1447690475451,1447690475968,866,520,0,0,0,2,0,2,2,0003-00-0001-69.png,0001-00-0000-59.png
00000014,620,1,1447690477858,1447690478253,403,470,0,0,0,0,3,3,3,0001-00-0001-35.png,0002-00-0000-35.png
00000014,621,1,1447690479587,1447690480161,912,451,0,0,0,3,0,3,3,0002-00-0001-65.png,0001-00-0000-94.png
00000014,622,0,1447690481075,1447690481433,397,472,0,0,0,2,0,2,2,0003-00-0001-13.png,0001-00-0001-51.png
00000014,623,0,1447690489317,1447690489745,913,372,0,0,0,1,2,1,3,0005-00-0000-13.png,0003-00-0001-72.png
00000014,624,0,1447690495790,1447690496245,396,402,0,0,0,4,2,2,6,0004-00-0001-89.png,0003-00-0000-03.png
00000014,625,0,1447690510735,1447690511135,384,402,0,0,0,3,2,1,5,0002-00-0001-74.png,0003-00-0000-63.png
00000014,626,1,1447690516852,1447690517322,952,423,0,0,0,4,1,3,5,0004-00-0000-43.png,0005-00-0001-98.png
00000014,627,0,1447690518681,1447690519576,354,383,0,0,0,2,1,1,3,0003-00-0001-77.png,0005-00-0001-29.png
00000014,628,0,1447690527855,1447690528263,958,395,0,0,0,3,4,1,7,0002-00-0001-68.png,0004-00-0000-03.png
00000014,629,0,1447690533367,1447690533886,926,436,0,0,0,1,4,3,5,0005-00-0001-73.png,0004-00-0000-57.png
00000014,630,1,1447690538742,1447690539224,949,404,0,0,0,4,3,1,7,0004-00-0000-48.png,0002-00-0000-05.png
00000014,631,1,1447690540855,1447690541268,347,419,0,0,0,0,4,4,4,0001-00-0001-47.png,0004-00-0001-40.png
00000014,632,1,1447690542724,1447690543126,383,470,0,0,0,0,2,2,2,0001-00-0001-17.png,0003-00-0000-70.png
00000014,633,0,1447690544273,1447690544855,397,410,0,0,0,4,0,4,4,0004-00-0001-50.png,0001-00-0001-87.png
00000014,634,1,1447690553757,1447690554180,956,440,0,0,0,1,0,1,1,0005-00-0000-20.png,0001-00-0000-72.png
00000014,635,0,1447690555286,1447690555768,901,449,0,0,0,2,4,2,6,0003-00-0001-67.png,0004-00-0001-17.png
00000014,636,1,1447690570667,1447690571074,325,372,0,0,0,0,1,1,1,0001-00-0001-96.png,0005-00-0001-64.png
00000014,637,1,1447690572697,1447690573166,439,450,0,0,0,2,3,1,5,0003-00-0000-68.png,0002-00-0000-01.png
00000014,638,1,1447690574177,1447690574577,391,466,0,0,0,1,3,2,4,0005-00-0000-22.png,0002-00-0000-77.png
00000014,639,1,1447690575647,1447690576202,897,458,0,0,0,3,1,2,4,0002-00-0000-58.png,0005-00-0000-75.png
00000014,640,1,1447690577290,1447690577674,398,471,0,0,0,0,3,3,3,0001-00-0000-68.png,0002-00-0001-41.png
00000014,641,1,1447690578680,1447690579075,393,459,0,0,0,2,3,1,5,0003-00-0000-89.png,0002-00-0000-33.png
00000014,642,1,1447690580142,1447690580640,901,461,0,0,0,4,0,4,4,0004-00-0001-86.png,0001-00-0000-20.png
00000014,643,1,1447690581691,1447690582225,896,471,0,0,0,4,3,1,7,0004-00-0000-66.png,0002-00-0000-95.png
00000014,644,0,1447690583294,1447690583864,876,442,0,0,0,2,4,2,6,0003-00-0000-31.png,0004-00-0001-68.png
00000014,645,0,1447690589205,1447690589620,430,438,0,0,0,1,0,1,1,0005-00-0001-00.png,0001-00-0001-31.png
00000014,646,0,1447690593628,1447690594071,376,410,0,0,0,3,1,2,4,0002-00-0001-37.png,0005-00-0001-16.png
00000014,647,1,1447690603900,1447690604292,413,436,0,0,0,1,2,1,3,0005-00-0000-58.png,0003-00-0001-98.png
00000014,648,0,1447690605681,1447690606110,430,460,0,0,0,3,2,1,5,0002-00-0000-38.png,0003-00-0001-60.png
00000014,649,0,1447690609686,1447690610150,969,415,0,0,0,1,3,2,4,0005-00-0001-94.png,0002-00-0001-26.png
00000014,650,1,1447690613930,1447690614471,927,435,0,0,0,3,0,3,3,0002-00-0001-23.png,0001-00-0001-90.png
00000014,651,1,1447690616294,1447690616694,378,406,0,0,0,0,3,3,3,0001-00-0001-18.png,0002-00-0000-64.png
00000014,652,1,1447690617952,1447690618367,420,450,0,0,0,0,1,1,1,0001-00-0001-24.png,0005-00-0000-55.png
00000014,653,1,1447690619495,1447690620026,433,411,0,0,0,0,4,4,4,0001-00-0000-43.png,0004-00-0001-27.png
00000014,654,1,1447690621184,1447690622284,959,422,0,0,0,2,0,2,2,0003-00-0000-03.png,0001-00-0000-32.png
00000014,655,0,1447690623420,1447690623782,399,462,0,0,0,4,2,2,6,0004-00-0001-42.png,0003-00-0000-06.png
00000014,656,1,1447690639676,1447690640188,925,475,0,0,0,4,1,3,5,0004-00-0000-03.png,0005-00-0000-92.png
00000014,657,1,1447690641481,1447690641883,388,475,0,0,0,0,2,2,2,0001-00-0001-99.png,0003-00-0001-01.png
00000014,658,0,1447690643017,1447690643604,424,393,0,0,0,2,1,1,3,0003-00-0000-52.png,0005-00-0000-37.png
00000014,659,0,1447690651841,1447690652324,937,534,0,0,0,3,4,1,7,0002-00-0001-19.png,0004-00-0001-71.png
00000014,660,1,1447690656570,1447690657478,397,496,0,0,0,1,4,3,5,0005-00-0000-75.png,0004-00-0001-65.png
00000014,661,1,1447690658699,1447690659106,394,463,0,0,0,0,4,4,4,0001-00-0001-43.png,0004-00-0000-31.png
00000014,662,1,1447690660338,1447690660845,873,410,0,0,0,3,2,1,5,0002-00-0001-88.png,0003-00-0001-02.png
00000014,663,1,1447690661818,1447690662367,927,424,0,0,0,4,0,4,4,0004-00-0001-97.png,0001-00-0001-84.png
00000014,664,0,1447690663380,1447690663903,377,398,0,0,0,3,1,2,4,0002-00-0000-46.png,0005-00-0000-81.png
00000014,665,1,1447690668391,1447690668953,950,433,0,0,0,4,3,1,7,0004-00-0000-42.png,0002-00-0000-36.png
00000014,666,1,1447690670166,1447690670609,923,483,0,0,0,4,1,3,5,0004-00-0000-90.png,0005-00-0001-07.png
00000014,667,0,1447690671630,1447690672143,930,454,0,0,0,2,4,2,6,0003-00-0000-09.png,0004-00-0001-03.png
00000014,668,0,1447690675034,1447690675475,363,384,0,0,0,3,0,3,3,0002-00-0000-05.png,0001-00-0000-23.png
00000014,669,1,1447690683458,1447690683914,346,359,0,0,0,0,2,2,2,0001-00-0001-26.png,0003-00-0001-37.png
00000014,670,1,1447690685327,1447690685783,399,469,0,0,0,0,3,3,3,0001-00-0000-14.png,0002-00-0000-36.png
00000014,671,1,1447690686868,1447690687284,350,462,0,0,0,2,3,1,5,0003-00-0001-13.png,0002-00-0001-61.png
00000014,672,1,1447690688331,1447690688872,378,425,0,0,0,0,1,1,1,0001-00-0000-22.png,0005-00-0000-17.png
00000014,673,1,1447690689890,1447690690351,916,500,0,0,0,2,1,1,3,0003-00-0001-02.png,0005-00-0001-66.png
00000014,674,1,1447690691341,1447690691718,403,476,0,0,0,3,4,1,7,0002-00-0001-48.png,0004-00-0000-50.png
00000014,675,1,1447690692992,1447690693363,372,467,0,0,0,1,2,1,3,0005-00-0000-68.png,0003-00-0000-34.png
00000014,676,1,1447690694374,1447690694865,427,424,0,0,0,1,4,3,5,0005-00-0000-03.png,0004-00-0000-74.png
00000014,677,1,1447690696013,1447690696621,879,506,0,0,0,2,0,2,2,0003-00-0000-33.png,0001-00-0001-30.png
00000014,678,1,1447690706141,1447690706582,888,528,0,0,0,4,2,2,6,0004-00-0001-47.png,0003-00-0001-79.png
00000014,679,1,1447690707842,1447690708704,410,397,0,0,0,1,3,2,4,0005-00-0000-59.png,0002-00-0001-52.png
00000014,680,1,1447690709835,1447690710320,926,455,0,0,0,1,0,1,1,0005-00-0001-28.png,0001-00-0001-92.png
00000014,681,1,1447690711447,1447690711852,409,461,0,0,0,2,3,1,5,0003-00-0001-45.png,0002-00-0000-33.png
00000014,682,0,1447690712969,1447690713479,405,416,0,0,0,3,2,1,5,0002-00-0000-02.png,0003-00-0001-94.png
00000014,683,1,1447690718042,1447690718567,363,398,0,0,0,0,2,2,2,0001-00-0000-02.png,0003-00-0000-53.png
00000014,684,1,1447690719607,1447690720130,900,464,0,0,0,2,0,2,2,0003-00-0000-86.png,0001-00-0000-62.png
00000014,685,1,1447690721136,1447690722156,906,452,0,0,0,2,1,1,3,0003-00-0000-82.png,0005-00-0000-42.png
00000014,686,0,1447690723214,1447690723705,920,442,0,0,0,2,4,2,6,0003-00-0001-54.png,0004-00-0000-74.png
00000014,687,1,1447690726974,1447690727394,376,384,0,0,0,0,3,3,3,0001-00-0001-14.png,0002-00-0001-25.png
00000014,688,0,1447690728582,1447690729298,907,471,0,0,0,3,4,1,7,0002-00-0000-27.png,0004-00-0001-54.png
00000014,689,0,1447690733928,1447690734344,383,387,0,0,0,4,2,2,6,0004-00-0001-58.png,0003-00-0001-67.png
00000014,690,0,1447690738195,1447690738681,946,434,0,0,0,1,2,1,3,0005-00-0000-53.png,0003-00-0000-40.png
00000014,691,1,1447690743543,1447690744172,874,409,0,0,0,4,1,3,5,0004-00-0001-49.png,0005-00-0001-83.png
00000014,692,1,1447690745277,1447690745674,388,464,0,0,0,0,1,1,1,0001-00-0001-16.png,0005-00-0001-16.png
00000014,693,0,1447690746760,1447690747157,416,502,0,0,0,1,0,1,1,0005-00-0001-68.png,0001-00-0001-84.png
00000014,694,1,1447690757085,1447690757533,400,411,0,0,0,1,3,2,4,0005-00-0000-47.png,0002-00-0001-34.png
00000014,695,1,1447690758772,1447690759308,928,465,0,0,0,4,0,4,4,0004-00-0001-01.png,0001-00-0001-01.png
00000014,696,1,1447690760423,1447690760833,414,467,0,0,0,1,4,3,5,0005-00-0001-41.png,0004-00-0000-44.png
00000014,697,0,1447690761844,1447690762896,427,505,0,0,0,3,1,2,4,0002-00-0001-21.png,0005-00-0001-62.png
00000014,698,1,1447690766684,1447690767559,369,397,0,0,0,0,4,4,4,0001-00-0000-76.png,0004-00-0001-50.png
00000014,699,1,1447690768662,1447690769176,949,457,0,0,0,4,3,1,7,0004-00-0001-58.png,0002-00-0001-38.png
00000014,700,0,1447690770142,1447690770513,442,485,0,0,0,3,0,3,3,0002-00-0000-13.png,0001-00-0000-43.png
00000014,701,1,1447690802112,1447690802611,976,450,0,0,0,3,1,2,4,0002-00-0001-89.png,0005-00-0000-46.png
00000014,702,0,1447690803734,1447690804347,950,456,0,0,0,2,3,1,5,0003-00-0000-17.png,0002-00-0000-07.png
00000014,703,0,1447690808416,1447690808814,350,427,0,0,0,3,2,1,5,0002-00-0000-23.png,0003-00-0001-66.png
00000014,704,1,1447690812101,1447690812506,952,449,0,0,0,4,0,4,4,0004-00-0001-70.png,0001-00-0000-82.png
00000014,705,1,1447690813692,1447690814107,409,454,0,0,0,0,4,4,4,0001-00-0001-68.png,0004-00-0000-51.png
00000014,706,1,1447690815201,1447690815720,913,423,0,0,0,1,0,1,1,0005-00-0001-42.png,0001-00-0000-37.png
00000014,707,1,1447690816673,1447690817175,873,534,0,0,0,4,1,3,5,0004-00-0001-83.png,0005-00-0001-63.png
00000014,708,1,1447690818162,1447690818533,427,473,0,0,0,0,1,1,1,0001-00-0001-04.png,0005-00-0000-07.png
00000014,709,0,1447690819804,1447690820425,875,423,0,0,0,3,4,1,7,0002-00-0001-29.png,0004-00-0001-52.png
00000014,710,1,1447690824994,1447690825550,876,501,0,0,0,4,3,1,7,0004-00-0000-92.png,0002-00-0000-68.png
00000014,711,1,1447690826728,1447690827115,403,483,0,0,0,1,3,2,4,0005-00-0001-48.png,0002-00-0000-27.png
00000014,712,1,1447690828262,1447690828911,397,411,0,0,0,1,2,1,3,0005-00-0001-31.png,0003-00-0001-10.png
00000014,713,1,1447690830129,1447690830642,880,471,0,0,0,2,1,1,3,0003-00-0000-01.png,0005-00-0000-98.png
00000014,714,1,1447690831730,1447690832288,894,455,0,0,0,3,0,3,3,0002-00-0001-71.png,0001-00-0001-96.png
00000014,715,1,1447690833451,1447690834460,899,449,0,0,0,4,2,2,6,0004-00-0001-86.png,0003-00-0001-32.png
00000014,716,1,1447690835557,1447690836060,899,483,0,0,0,2,0,2,2,0003-00-0001-82.png,0001-00-0001-92.png
00000014,717,1,1447690837119,1447690837528,382,460,0,0,0,1,4,3,5,0005-00-0000-99.png,0004-00-0001-34.png
00000014,718,1,1447690838631,1447690839154,443,406,0,0,0,0,2,2,2,0001-00-0001-15.png,0003-00-0000-35.png
00000014,719,1,1447690840300,1447690840721,393,459,0,0,0,0,3,3,3,0001-00-0000-10.png,0002-00-0000-32.png
00000014,720,0,1447690841780,1447690842353,861,450,0,0,0,2,4,2,6,0003-00-0001-94.png,0004-00-0000-46.png
00000014,721,1,1447690847426,1447690847897,939,462,0,0,0,2,0,2,2,0003-00-0000-49.png,0001-00-0000-81.png
00000014,722,1,1447690849007,1447690849521,922,470,0,0,0,1,0,1,1,0005-00-0000-68.png,0001-00-0000-58.png
00000014,723,1,1447690850595,1447690850963,419,497,0,0,0,0,3,3,3,0001-00-0001-60.png,0002-00-0000-31.png
00000014,724,1,1447690852038,1447690852628,864,455,0,0,0,3,2,1,5,0002-00-0001-49.png,0003-00-0000-68.png
00000014,725,1,1447690853769,1447690854281,401,403,0,0,0,3,4,1,7,0002-00-0001-97.png,0004-00-0000-93.png
00000014,726,1,1447690855356,1447690855900,876,476,0,0,0,2,1,1,3,0003-00-0001-76.png,0005-00-0001-52.png
00000014,727,1,1447690856948,1447690857493,874,437,0,0,0,4,0,4,4,0004-00-0000-98.png,0001-00-0001-50.png
00000014,728,1,1447690859076,1447690859713,495,427,0,0,0,0,4,4,4,0001-00-0001-37.png,0004-00-0001-42.png
00000014,729,1,1447690860763,1447690861265,415,464,0,0,0,1,4,3,5,0005-00-0000-24.png,0004-00-0001-96.png
00000014,730,1,1447690862883,1447690863327,370,440,0,0,0,0,2,2,2,0001-00-0000-84.png,0003-00-0000-09.png
00000014,731,0,1447690864658,1447690865061,401,477,0,0,0,3,0,3,3,0002-00-0000-15.png,0001-00-0000-31.png
00000014,732,0,1447690870326,1447690870763,401,462,0,0,0,4,2,2,6,0004-00-0000-74.png,0003-00-0000-46.png
00000014,733,1,1447690875627,1447690876038,364,384,0,0,0,1,2,1,3,0005-00-0000-95.png,0003-00-0000-38.png
00000014,734,1,1447690877961,1447690878469,376,436,0,0,0,1,3,2,4,0005-00-0001-47.png,0002-00-0000-90.png
00000014,735,0,1447690879764,1447690880168,410,478,0,0,0,3,1,2,4,0002-00-0000-82.png,0005-00-0000-73.png
00000014,736,1,1447690884122,1447690884585,945,468,0,0,0,4,1,3,5,0004-00-0000-66.png,0005-00-0001-86.png
00000014,737,0,1447690885978,1447690886534,914,450,0,0,0,0,1,1,1,0001-00-0000-68.png,0005-00-0000-12.png
00000014,738,0,1447690895414,1447690895845,957,448,0,0,0,2,3,1,5,0003-00-0001-64.png,0002-00-0000-86.png
00000014,739,0,1447690904490,1447690904921,949,381,0,0,0,2,4,2,6,0003-00-0001-27.png,0004-00-0000-25.png
00000014,740,1,1447690908774,1447690909281,953,410,0,0,0,4,3,1,7,0004-00-0000-09.png,0002-00-0000-04.png
00000014,741,1,1447690910794,1447690911294,916,469,0,0,0,2,1,1,3,0003-00-0001-27.png,0005-00-0000-07.png
00000014,742,0,1447690912514,1447690912985,862,554,0,0,0,2,4,2,6,0003-00-0001-25.png,0004-00-0000-22.png
00000014,743,0,1447690916549,1447690917046,439,528,0,0,0,3,0,3,3,0002-00-0000-04.png,0001-00-0001-60.png
00000014,744,1,1447690920843,1447690921279,372,394,0,0,0,0,4,4,4,0001-00-0000-85.png,0004-00-0000-06.png
00000014,745,1,1447690922531,1447690923038,370,461,0,0,0,0,3,3,3,0001-00-0001-27.png,0002-00-0000-94.png
00000014,746,0,1447690924376,1447690924752,403,443,0,0,0,3,1,2,4,0002-00-0000-23.png,0005-00-0001-49.png
00000014,747,1,1447690930086,1447690930552,917,546,0,0,0,4,1,3,5,0004-00-0000-87.png,0005-00-0000-27.png
00000014,748,0,1447690931867,1447690932513,370,522,0,0,0,3,2,1,5,0002-00-0001-63.png,0003-00-0001-21.png
00000014,749,1,1447690935897,1447690936311,422,512,0,0,0,0,2,2,2,0001-00-0000-77.png,0003-00-0001-95.png
00000014,750,1,1447690938095,1447690938571,921,446,0,0,0,1,0,1,1,0005-00-0000-56.png,0001-00-0001-92.png
00000014,751,1,1447690939811,1447690940206,361,462,0,0,0,1,4,3,5,0005-00-0001-91.png,0004-00-0001-27.png
00000014,752,0,1447690941397,1447690941926,867,559,0,0,0,3,4,1,7,0002-00-0000-47.png,0004-00-0000-12.png
00000014,753,1,1447690947039,1447690947519,411,513,0,0,0,1,3,2,4,0005-00-0000-51.png,0002-00-0000-18.png
00000014,754,1,1447690949035,1447690949445,358,472,0,0,0,1,2,1,3,0005-00-0001-48.png,0003-00-0000-52.png
00000014,755,1,1447690950748,1447690951250,875,560,0,0,0,2,0,2,2,0003-00-0001-56.png,0001-00-0001-85.png
00000014,756,1,1447690952367,1447690953400,401,424,0,0,0,2,3,1,5,0003-00-0000-67.png,0002-00-0001-45.png
00000014,757,1,1447690954576,1447690955078,884,473,0,0,0,4,0,4,4,0004-00-0001-80.png,0001-00-0000-38.png
00000014,758,1,1447690956413,1447690956807,350,475,0,0,0,0,1,1,1,0001-00-0000-20.png,0005-00-0001-19.png
00000014,759,1,1447690958081,1447690958607,896,470,0,0,0,4,2,2,6,0004-00-0000-19.png,0003-00-0000-27.png
00000014,760,1,1447690959654,1447690960267,874,541,0,0,0,4,3,1,7,0004-00-0001-27.png,0002-00-0001-26.png
00000014,761,1,1447690961301,1447690961759,427,489,0,0,0,0,2,2,2,0001-00-0001-70.png,0003-00-0000-96.png
00000014,762,0,1447690962956,1447690963539,904,463,0,0,0,2,4,2,6,0003-00-0000-39.png,0004-00-0000-26.png
00000014,763,1,1447690967262,1447690967746,898,538,0,0,0,4,0,4,4,0004-00-0000-85.png,0001-00-0000-36.png
00000014,764,1,1447690969464,1447690969889,417,446,0,0,0,1,2,1,3,0005-00-0001-28.png,0003-00-0001-28.png
00000014,765,0,1447690971115,1447690971613,913,452,0,0,0,2,3,1,5,0003-00-0000-94.png,0002-00-0001-25.png
00000014,766,1,1447690975236,1447690975712,943,425,0,0,0,2,0,2,2,0003-00-0001-26.png,0001-00-0000-03.png
00000014,767,0,1447690976900,1447690977679,330,436,0,0,0,3,2,1,5,0002-00-0000-99.png,0003-00-0001-73.png
00000014,768,1,1447690981769,1447690982182,908,448,0,0,0,3,0,3,3,0002-00-0000-02.png,0001-00-0001-11.png
00000014,769,1,1447690983479,1447690983868,366,461,0,0,0,0,1,1,1,0001-00-0000-35.png,0005-00-0000-51.png
00000014,770,1,1447690985219,1447690985742,357,390,0,0,0,0,4,4,4,0001-00-0001-23.png,0004-00-0001-15.png
00000014,771,0,1447690986928,1447690987301,380,466,0,0,0,3,1,2,4,0002-00-0000-46.png,0005-00-0000-57.png
00000014,772,0,1447690992096,1447690992552,375,430,0,0,0,4,3,1,7,0004-00-0000-32.png,0002-00-0000-46.png
00000014,773,1,1447690997444,1447690997938,952,450,0,0,0,2,1,1,3,0003-00-0000-06.png,0005-00-0001-81.png
00000014,774,0,1447690999567,1447691000085,927,478,0,0,0,3,4,1,7,0002-00-0000-93.png,0004-00-0000-58.png
00000014,775,0,1447691005614,1447691006054,919,509,0,0,0,0,3,3,3,0001-00-0001-83.png,0002-00-0001-49.png
00000014,776,0,1447691011167,1447691011601,919,499,0,0,0,1,4,3,5,0005-00-0001-94.png,0004-00-0001-58.png
00000014,777,0,1447691014535,1447691014940,365,370,0,0,0,4,2,2,6,0004-00-0001-22.png,0003-00-0000-03.png
00000014,778,1,1447691018611,1447691019083,1019,480,0,0,0,1,0,1,1,0005-00-0000-04.png,0001-00-0000-31.png
00000014,779,1,1447691020429,1447691020928,944,462,0,0,0,4,1,3,5,0004-00-0000-95.png,0005-00-0001-90.png
00000014,780,0,1447691022090,1447691022571,971,463,0,0,0,1,3,2,4,0005-00-0001-49.png,0002-00-0000-70.png
00000014,781,0,1447691026990,1447691027436,940,445,0,0,0,1,3,2,4,0005-00-0001-94.png,0002-00-0001-97.png
00000014,782,1,1447691030657,1447691031056,378,415,0,0,0,0,2,2,2,0001-00-0001-77.png,0003-00-0000-30.png
00000014,783,1,1447691032215,1447691032789,341,440,0,0,0,3,4,1,7,0002-00-0001-30.png,0004-00-0000-55.png
00000014,784,1,1447691033987,1447691034419,338,467,0,0,0,0,4,4,4,0001-00-0000-57.png,0004-00-0001-44.png
00000014,785,1,1447691035633,1447691036111,896,419,0,0,0,3,0,3,3,0002-00-0000-83.png,0001-00-0001-38.png
00000014,786,1,1447691037166,1447691037717,438,452,0,0,0,1,4,3,5,0005-00-0001-03.png,0004-00-0000-35.png
00000014,787,1,1447691038959,1447691039443,913,410,0,0,0,4,1,3,5,0004-00-0000-72.png,0005-00-0001-09.png
00000014,788,0,1447691040537,1447691040929,415,469,0,0,0,4,2,2,6,0004-00-0000-91.png,0003-00-0000-09.png
00000014,789,1,1447691051897,1447691052374,917,503,0,0,0,2,1,1,3,0003-00-0001-62.png,0005-00-0001-80.png
00000014,790,0,1447691053766,1447691054156,383,444,0,0,0,4,3,1,7,0004-00-0000-97.png,0002-00-0000-78.png
00000014,791,0,1447691058022,1447691058379,391,389,0,0,0,3,2,1,5,0002-00-0000-61.png,0003-00-0001-96.png
00000014,792,1,1447691061940,1447691062331,376,361,0,0,0,0,3,3,3,0001-00-0000-49.png,0002-00-0000-47.png
00000014,793,1,1447691063608,1447691064264,908,500,0,0,0,3,1,2,4,0002-00-0000-56.png,0005-00-0001-01.png
00000014,794,0,1447691065359,1447691065926,915,541,0,0,0,2,4,2,6,0003-00-0001-66.png,0004-00-0001-99.png
00000014,795,1,1447691081588,1447691082004,977,397,0,0,0,1,0,1,1,0005-00-0000-29.png,0001-00-0001-39.png
00000014,796,1,1447691083180,1447691083580,401,462,0,0,0,0,1,1,1,0001-00-0001-27.png,0005-00-0000-89.png
00000014,797,0,1447691084812,1447691085329,920,472,0,0,0,2,3,1,5,0003-00-0000-66.png,0002-00-0000-37.png
00000014,798,1,1447691088198,1447691088571,392,392,0,0,0,1,2,1,3,0005-00-0001-17.png,0003-00-0001-25.png
00000014,799,1,1447691089711,1447691090208,943,490,0,0,0,2,0,2,2,0003-00-0001-81.png,0001-00-0001-44.png
00000014,800,1,1447691091402,1447691091895,941,463,0,0,0,4,0,4,4,0004-00-0001-22.png,0001-00-0001-02.png
00000014,801,1,1447691093290,1447691094189,407,412,0,0,0,1,3,2,4,0005-00-0001-93.png,0002-00-0000-93.png
00000014,802,1,1447691095506,1447691095868,381,437,0,0,0,0,2,2,2,0001-00-0001-47.png,0003-00-0001-25.png
00000014,803,0,1447691097602,1447691098560,370,385,0,0,0,4,3,1,7,0004-00-0000-66.png,0002-00-0001-09.png
00000014,804,1,1447691103476,1447691103893,395,437,0,0,0,0,3,3,3,0001-00-0001-94.png,0002-00-0000-34.png
00000014,805,1,1447691105265,1447691105698,402,468,0,0,0,1,4,3,5,0005-00-0001-77.png,0004-00-0001-77.png
00000014,806,0,1447691106768,1447691107255,400,462,0,0,0,4,2,2,6,0004-00-0000-71.png,0003-00-0000-78.png
00000014,807,0,1447691111321,1447691111726,394,446,0,0,0,3,1,2,4,0002-00-0001-28.png,0005-00-0000-43.png
00000014,808,0,1447691115740,1447691116182,896,392,0,0,0,2,4,2,6,0003-00-0001-52.png,0004-00-0000-62.png
00000014,809,1,1447691120997,1447691121455,956,428,0,0,0,2,0,2,2,0003-00-0001-44.png,0001-00-0000-65.png
00000014,810,1,1447691122705,1447691123260,911,462,0,0,0,2,1,1,3,0003-00-0000-34.png,0005-00-0001-94.png
00000014,811,1,1447691124418,1447691124892,400,450,0,0,0,0,1,1,1,0001-00-0000-03.png,0005-00-0001-54.png
00000014,812,0,1447691126216,1447691126749,898,485,0,0,0,3,4,1,7,0002-00-0000-30.png,0004-00-0000-43.png
00000014,813,1,1447691131757,1447691132228,930,453,0,0,0,4,0,4,4,0004-00-0000-80.png,0001-00-0001-33.png
00000014,814,0,1447691133560,1447691134090,900,465,0,0,0,0,4,4,4,0001-00-0001-10.png,0004-00-0000-08.png
00000014,815,0,1447691138088,1447691138504,390,414,0,0,0,3,2,1,5,0002-00-0000-17.png,0003-00-0000-97.png
00000014,816,1,1447691142038,1447691142520,934,447,0,0,0,4,1,3,5,0004-00-0000-51.png,0005-00-0000-97.png
00000014,817,0,1447691144523,1447691145000,382,427,0,0,0,1,0,1,1,0005-00-0000-13.png,0001-00-0001-72.png
00000014,818,1,1447691156397,1447691156852,974,469,0,0,0,3,0,3,3,0002-00-0001-32.png,0001-00-0001-62.png
00000014,819,1,1447691158091,1447691158493,378,451,0,0,0,1,2,1,3,0005-00-0000-80.png,0003-00-0000-72.png
00000014,820,1,1447691159748,1447691160502,393,350,0,0,0,2,3,1,5,0003-00-0000-90.png,0002-00-0001-20.png
00000014,821,1,1447691161859,1447691162352,891,555,0,0,0,4,1,3,5,0004-00-0001-33.png,0005-00-0001-83.png
00000014,822,1,1447691163570,1447691164113,372,364,0,0,0,0,2,2,2,0001-00-0001-38.png,0003-00-0001-33.png
00000014,823,1,1447691165377,1447691165958,414,488,0,0,0,2,3,1,5,0003-00-0001-21.png,0002-00-0001-82.png
00000014,824,0,1447691167035,1447691167384,443,446,0,0,0,3,2,1,5,0002-00-0000-77.png,0003-00-0000-72.png
00000014,825,1,1447691171381,1447691171827,925,429,0,0,0,2,0,2,2,0003-00-0000-41.png,0001-00-0000-07.png
00000014,826,0,1447691173494,1447691173896,378,469,0,0,0,3,1,2,4,0002-00-0001-72.png,0005-00-0000-46.png
00000014,827,1,1447691177612,1447691178059,974,494,0,0,0,4,0,4,4,0004-00-0000-00.png,0001-00-0001-49.png
00000014,828,0,1447691179203,1447691179703,902,460,0,0,0,1,2,1,3,0005-00-0000-66.png,0003-00-0001-35.png
00000014,829,0,1447691183943,1447691184438,969,424,0,0,0,3,4,1,7,0002-00-0000-09.png,0004-00-0001-08.png
00000014,830,1,1447691189031,1447691189522,949,487,0,0,0,2,1,1,3,0003-00-0000-76.png,0005-00-0000-08.png
00000014,831,1,1447691190873,1447691191399,898,536,0,0,0,4,3,1,7,0004-00-0000-99.png,0002-00-0001-38.png
00000014,832,0,1447691192745,1447691193242,879,459,0,0,0,1,4,3,5,0005-00-0001-38.png,0004-00-0000-12.png
00000014,833,1,1447691196643,1447691197095,873,553,0,0,0,4,2,2,6,0004-00-0001-88.png,0003-00-0000-27.png
00000014,834,1,1447691198880,1447691199359,939,514,0,0,0,3,0,3,3,0002-00-0001-25.png,0001-00-0000-46.png
00000014,835,1,1447691200923,1447691201347,386,448,0,0,0,0,4,4,4,0001-00-0000-77.png,0004-00-0001-33.png
00000014,836,1,1447691202917,1447691203426,900,501,0,0,0,1,0,1,1,0005-00-0001-98.png,0001-00-0001-39.png
00000014,837,1,1447691204680,1447691205058,394,513,0,0,0,0,1,1,1,0001-00-0001-33.png,0005-00-0001-29.png
00000014,838,1,1447691206713,1447691207107,427,514,0,0,0,0,3,3,3,0001-00-0001-16.png,0002-00-0000-35.png
00000014,839,0,1447691208412,1447691208899,902,472,0,0,0,2,4,2,6,0003-00-0001-60.png,0004-00-0000-67.png
00000014,840,1,1447691212636,1447691213035,384,448,0,0,0,1,3,2,4,0005-00-0000-90.png,0002-00-0001-85.png
00000014,841,0,1447691214474,1447691214993,431,431,0,0,0,3,1,2,4,0002-00-0000-22.png,0005-00-0000-47.png
00000014,842,0,1447691219038,1447691219487,401,456,0,0,0,4,2,2,6,0004-00-0001-85.png,0003-00-0001-12.png
00000014,843,1,1447691223688,1447691224299,949,435,0,0,0,3,0,3,3,0002-00-0000-18.png,0001-00-0001-29.png
00000014,844,0,1447691225626,1447691226088,401,487,0,0,0,3,2,1,5,0002-00-0000-06.png,0003-00-0000-52.png
00000014,845,1,1447691229042,1447691229553,959,447,0,0,0,1,0,1,1,0005-00-0001-02.png,0001-00-0001-93.png
00000014,846,1,1447691230705,1447691231488,901,450,0,0,0,4,3,1,7,0004-00-0000-47.png,0002-00-0001-62.png
00000014,847,1,1447691232920,1447691233411,916,488,0,0,0,2,0,2,2,0003-00-0000-10.png,0001-00-0000-46.png
00000014,848,1,1447691234841,1447691235332,394,429,0,0,0,1,3,2,4,0005-00-0001-12.png,0002-00-0000-64.png
00000014,849,1,1447691236706,1447691237090,381,502,0,0,0,0,3,3,3,0001-00-0001-53.png,0002-00-0001-78.png
00000014,850,1,1447691238486,1447691238896,372,471,0,0,0,0,4,4,4,0001-00-0000-41.png,0004-00-0001-52.png
00000014,851,0,1447691240581,1447691241024,873,481,0,0,0,3,4,1,7,0002-00-0001-51.png,0004-00-0000-12.png
00000014,852,1,1447691245042,1447691245563,876,384,0,0,0,4,1,3,5,0004-00-0001-97.png,0005-00-0000-64.png
00000014,853,1,1447691246843,1447691247320,919,483,0,0,0,4,0,4,4,0004-00-0000-94.png,0001-00-0000-29.png
00000014,854,0,1447691248644,1447691249187,896,493,0,0,0,2,3,1,5,0003-00-0001-35.png,0002-00-0000-86.png
00000014,855,1,1447691252381,1447691252827,375,389,0,0,0,1,4,3,5,0005-00-0001-70.png,0004-00-0001-60.png
00000014,856,1,1447691254338,1447691254736,332,480,0,0,0,1,2,1,3,0005-00-0000-64.png,0003-00-0000-95.png
00000014,857,1,1447691256587,1447691257079,901,496,0,0,0,2,1,1,3,0003-00-0001-17.png,0005-00-0000-32.png
00000014,858,1,1447691258931,1447691259364,398,489,0,0,0,2,4,2,6,0003-00-0001-61.png,0004-00-0000-78.png
00000014,859,0,1447691261585,1447691262071,926,501,0,0,0,0,1,1,1,0001-00-0000-53.png,0005-00-0001-24.png
00000014,860,0,1447691265670,1447691266134,940,448,0,0,0,0,2,2,2,0001-00-0000-67.png,0003-00-0000-81.png
00000014,861,1,1447691274705,1447691275055,385,378,0,0,0,0,2,2,2,0001-00-0000-51.png,0003-00-0001-37.png
00000014,862,1,1447691276400,1447691276874,902,486,0,0,0,2,0,2,2,0003-00-0000-22.png,0001-00-0001-25.png
00000014,863,1,1447691278003,1447691278588,875,488,0,0,0,3,1,2,4,0002-00-0001-96.png,0005-00-0000-04.png
00000014,864,1,1447691280229,1447691280620,404,425,0,0,0,0,3,3,3,0001-00-0000-01.png,0002-00-0001-90.png
00000014,865,1,1447691281970,1447691282492,916,490,0,0,0,3,0,3,3,0002-00-0001-32.png,0001-00-0001-10.png
00000014,866,1,1447691283918,1447691284440,902,522,0,0,0,2,1,1,3,0003-00-0001-60.png,0005-00-0000-52.png
00000014,867,0,1447691285767,1447691286333,416,449,0,0,0,4,0,4,4,0004-00-0000-98.png,0001-00-0001-81.png
00000014,868,1,1447691292260,1447691292674,325,366,0,0,0,0,1,1,1,0001-00-0000-09.png,0005-00-0001-80.png
00000014,869,0,1447691294823,1447691295478,874,516,0,0,0,2,4,2,6,0003-00-0000-71.png,0004-00-0000-51.png
00000014,870,0,1447691299395,1447691299841,926,423,0,0,0,2,3,1,5,0003-00-0001-58.png,0002-00-0000-96.png
00000014,871,0,1447691305098,1447691305622,960,395,0,0,0,1,3,2,4,0005-00-0000-86.png,0002-00-0001-12.png
00000014,872,1,1447691308524,1447691309043,947,446,0,0,0,4,2,2,6,0004-00-0000-19.png,0003-00-0000-44.png
00000014,873,1,1447691310496,1447691310898,408,490,0,0,0,1,2,1,3,0005-00-0001-52.png,0003-00-0001-72.png
00000014,874,0,1447691312717,1447691313364,922,470,0,0,0,3,4,1,7,0002-00-0001-74.png,0004-00-0000-76.png
00000014,875,1,1447691320322,1447691320783,927,422,0,0,0,4,3,1,7,0004-00-0001-22.png,0002-00-0000-86.png
00000014,876,0,1447691322888,1447691323341,951,463,0,0,0,0,4,4,4,0001-00-0000-23.png,0004-00-0001-57.png
00000014,877,1,1447691329356,1447691329828,411,358,0,0,0,1,4,3,5,0005-00-0001-89.png,0004-00-0001-32.png
00000014,878,1,1447691331321,1447691331882,924,405,0,0,0,4,1,3,5,0004-00-0000-17.png,0005-00-0000-43.png
00000014,879,1,1447691333686,1447691334262,951,440,0,0,0,1,0,1,1,0005-00-0000-59.png,0001-00-0001-89.png
00000014,880,1,1447691335524,1447691336089,927,462,0,0,0,3,2,1,5,0002-00-0000-65.png,0003-00-0000-74.png
00000014,881,1,1447691337219,1447691337783,925,491,0,0,0,2,0,2,2,0003-00-0000-44.png,0001-00-0000-69.png
00000014,882,1,1447691339811,1447691340305,899,483,0,0,0,1,0,1,1,0005-00-0001-23.png,0001-00-0001-61.png
00000014,883,1,1447691341510,1447691342039,393,427,0,0,0,1,4,3,5,0005-00-0000-86.png,0004-00-0000-62.png
00000014,884,0,1447691343855,1447691344375,898,533,0,0,0,2,4,2,6,0003-00-0001-17.png,0004-00-0000-52.png
00000014,885,1,1447691347760,1447691348368,954,416,0,0,0,4,0,4,4,0004-00-0001-46.png,0001-00-0001-93.png
00000014,886,0,1447691349790,1447691350271,924,484,0,0,0,3,4,1,7,0002-00-0001-46.png,0004-00-0000-87.png
00000014,887,1,1447691355095,1447691355490,349,415,0,0,0,0,4,4,4,0001-00-0000-42.png,0004-00-0001-59.png
00000014,888,0,1447691356944,1447691357438,875,397,0,0,0,0,3,3,3,0001-00-0000-21.png,0002-00-0000-32.png
00000014,889,1,1447691361090,1447691361676,957,426,0,0,0,4,2,2,6,0004-00-0001-87.png,0003-00-0000-23.png
00000014,890,0,1447691363058,1447691363503,342,459,0,0,0,3,2,1,5,0002-00-0001-95.png,0003-00-0000-02.png
00000014,891,0,1447691368052,1447691368534,931,483,0,0,0,0,1,1,1,0001-00-0000-44.png,0005-00-0000-81.png
00000014,892,1,1447691373382,1447691373811,401,488,0,0,0,1,3,2,4,0005-00-0000-14.png,0002-00-0001-80.png
00000014,893,1,1447691375719,1447691376293,339,416,0,0,0,1,2,1,3,0005-00-0000-27.png,0003-00-0001-98.png
00000014,894,1,1447691377804,1447691378324,928,464,0,0,0,4,3,1,7,0004-00-0001-64.png,0002-00-0001-30.png
00000014,895,1,1447691379445,1447691379939,925,464,0,0,0,3,1,2,4,0002-00-0000-98.png,0005-00-0000-81.png
00000014,896,1,1447691381436,1447691381927,880,453,0,0,0,3,0,3,3,0002-00-0000-74.png,0001-00-0000-16.png
00000014,897,1,1447691383171,1447691383705,418,487,0,0,0,2,3,1,5,0003-00-0001-32.png,0002-00-0001-16.png
00000014,898,0,1447691385461,1447691385898,401,419,0,0,0,4,1,3,5,0004-00-0001-47.png,0005-00-0001-46.png
00000014,899,1,1447691389878,1447691390375,911,499,0,0,0,2,1,1,3,0003-00-0000-08.png,0005-00-0001-99.png
00000014,900,1,1447691392117,1447691392525,371,446,0,0,0,0,2,2,2,0001-00-0001-09.png,0003-00-0000-02.png
00000014,901,0,1447691394393,1447691394946,911,492,0,0,0,1,3,2,4,0005-00-0000-43.png,0002-00-0001-95.png
00000014,902,0,1447691399492,1447691399892,419,471,0,0,0,4,1,3,5,0004-00-0000-45.png,0005-00-0000-42.png
00000014,903,1,1447691403662,1447691404209,966,467,0,0,0,3,1,2,4,0002-00-0001-13.png,0005-00-0001-09.png
00000014,904,0,1447691406290,1447691406821,946,509,0,0,0,3,4,1,7,0002-00-0000-95.png,0004-00-0001-18.png
00000014,905,1,1447691409869,1447691410266,435,546,0,0,0,0,2,2,2,0001-00-0001-64.png,0003-00-0000-04.png
00000014,906,1,1447691411548,1447691412058,431,537,0,0,0,2,3,1,5,0003-00-0001-63.png,0002-00-0000-87.png
00000014,907,1,1447691413852,1447691414285,926,476,0,0,0,1,0,1,1,0005-00-0001-80.png,0001-00-0001-73.png
00000014,908,1,1447691415583,1447691416105,929,469,0,0,0,2,0,2,2,0003-00-0000-01.png,0001-00-0001-58.png
00000014,909,0,1447691417919,1447691418444,377,418,0,0,0,3,2,1,5,0002-00-0001-20.png,0003-00-0000-42.png
00000014,910,1,1447691423144,1447691423583,918,518,0,0,0,4,0,4,4,0004-00-0000-26.png,0001-00-0000-23.png
00000014,911,1,1447691425380,1447691425906,365,400,0,0,0,1,2,1,3,0005-00-0000-82.png,0003-00-0001-40.png
00000014,912,1,1447691427399,1447691427965,904,438,0,0,0,4,3,1,7,0004-00-0001-56.png,0002-00-0000-14.png
00000014,913,1,1447691429620,1447691430078,331,462,0,0,0,0,1,1,1,0001-00-0001-94.png,0005-00-0000-48.png
00000014,914,1,1447691431426,1447691431913,375,444,0,0,0,0,3,3,3,0001-00-0000-59.png,0002-00-0000-93.png
00000014,915,1,1447691433494,1447691433949,887,476,0,0,0,3,0,3,3,0002-00-0001-44.png,0001-00-0000-72.png
00000014,916,1,1447691434994,1447691435381,420,523,0,0,0,1,4,3,5,0005-00-0000-04.png,0004-00-0000-89.png
00000014,917,1,1447691437023,1447691437447,414,476,0,0,0,0,4,4,4,0001-00-0001-03.png,0004-00-0001-87.png
00000014,918,0,1447691438713,1447691439117,416,496,0,0,0,2,1,1,3,0003-00-0000-51.png,0005-00-0000-26.png
00000014,919,1,1447691442341,1447691442827,950,457,0,0,0,4,2,2,6,0004-00-0001-33.png,0003-00-0000-89.png
00000014,920,0,1447691444624,1447691445428,889,448,0,0,0,2,4,2,6,0003-00-0000-55.png,0004-00-0000-38.png
00000014,921,1,1447691448519,1447691449046,944,429,0,0,0,4,3,1,7,0004-00-0000-54.png,0002-00-0000-33.png
00000014,922,0,1447691450433,1447691450832,401,489,0,0,0,2,0,2,2,0003-00-0001-07.png,0001-00-0000-88.png
00000014,923,1,1447691456681,1447691457119,413,493,0,0,0,0,1,1,1,0001-00-0000-98.png,0005-00-0000-96.png
00000014,924,1,1447691458369,1447691458819,407,464,0,0,0,0,4,4,4,0001-00-0000-40.png,0004-00-0000-77.png
00000014,925,1,1447691460270,1447691460796,921,497,0,0,0,1,0,1,1,0005-00-0000-15.png,0001-00-0001-63.png
00000014,926,1,1447691462002,1447691462574,401,447,0,0,0,1,4,3,5,0005-00-0001-73.png,0004-00-0000-01.png
00000014,927,0,1447691463866,1447691464424,392,399,0,0,0,3,0,3,3,0002-00-0001-16.png,0001-00-0000-26.png
00000014,928,0,1447691467484,1447691467903,345,399,0,0,0,3,2,1,5,0002-00-0001-50.png,0003-00-0001-62.png
00000014,929,0,1447691471313,1447691471822,965,448,0,0,0,2,4,2,6,0003-00-0001-46.png,0004-00-0000-80.png
00000014,930,1,1447691475226,1447691475756,905,502,0,0,0,2,1,1,3,0003-00-0001-91.png,0005-00-0001-45.png
00000014,931,1,1447691477056,1447691477447,397,445,0,0,0,3,4,1,7,0002-00-0000-74.png,0004-00-0000-89.png
00000014,932,1,1447691478649,1447691479173,893,451,0,0,0,4,2,2,6,0004-00-0001-89.png,0003-00-0000-79.png
00000014,933,1,1447691480367,1447691480889,916,451,0,0,0,4,0,4,4,0004-00-0000-14.png,0001-00-0000-68.png
00000014,934,1,1447691482403,1447691482954,901,449,0,0,0,4,1,3,5,0004-00-0001-89.png,0005-00-0001-48.png
00000014,935,1,1447691484035,1447691484573,382,393,0,0,0,1,3,2,4,0005-00-0000-82.png,0002-00-0001-13.png
00000014,936,1,1447691485672,1447691486639,435,445,0,0,0,0,3,3,3,0001-00-0000-88.png,0002-00-0000-81.png
00000014,937,1,1447691488001,1447691488383,390,494,0,0,0,0,2,2,2,0001-00-0001-71.png,0003-00-0000-40.png
00000014,938,1,1447691489639,1447691490278,453,436,0,0,0,1,2,1,3,0005-00-0000-09.png,0003-00-0001-57.png
00000014,939,1,1447691492193,1447691493202,900,462,0,0,0,3,1,2,4,0002-00-0000-00.png,0005-00-0000-38.png
00000014,940,1,1447691494342,1447691494882,434,505,0,0,0,2,3,1,5,0003-00-0001-25.png,0002-00-0000-80.png
00000014,941,1,1447691496216,1447691496611,376,501,0,0,0,2,4,2,6,0003-00-0000-17.png,0004-00-0000-48.png
00000014,942,1,1447691497799,1447691498312,863,423,0,0,0,4,1,3,5,0004-00-0001-16.png,0005-00-0000-85.png
00000014,943,1,1447691499459,1447691499996,435,399,0,0,0,2,3,1,5,0003-00-0001-88.png,0002-00-0001-05.png
00000014,944,1,1447691501318,1447691501805,900,475,0,0,0,2,0,2,2,0003-00-0001-72.png,0001-00-0000-04.png
00000014,945,1,1447691502899,1447691503267,389,486,0,0,0,0,4,4,4,0001-00-0000-77.png,0004-00-0001-25.png
00000014,946,1,1447691504567,1447691506168,937,410,0,0,0,4,0,4,4,0004-00-0001-77.png,0001-00-0001-69.png
00000014,947,1,1447691507272,1447691507686,404,453,0,0,0,0,3,3,3,0001-00-0000-15.png,0002-00-0001-48.png
00000014,948,1,1447691509122,1447691509575,375,449,0,0,0,1,2,1,3,0005-00-0000-09.png,0003-00-0001-93.png
00000014,949,1,1447691510972,1447691512055,926,398,0,0,0,3,1,2,4,0002-00-0000-43.png,0005-00-0001-18.png
00000014,950,0,1447691513264,1447691514223,342,429,0,0,0,4,2,2,6,0004-00-0000-46.png,0003-00-0000-13.png
00000014,951,1,1447691517361,1447691517842,899,436,0,0,0,4,3,1,7,0004-00-0000-88.png,0002-00-0001-66.png
