subject_id,trial,correct_response,stim_time,response_time,x_coord,y_coord,trial_timeout,timeout_time,interTrial_timeout,left_rank,right_rank,distance,joint_rank,left_image,right_image
00000014,1,0,1448641500291,1448641500303,504,422,0,0,0,3,1,2,4,0002-00-0001-96.png,0005-00-0001-33.png
00000014,2,1,1448641504276,1448641504711,412,435,0,0,0,0,1,1,1,0001-00-0001-30.png,0005-00-0001-99.png
00000014,3,0,1448641507225,1448641507803,926,358,0,0,0,0,2,2,2,0001-00-0001-50.png,0003-00-0000-71.png
00000014,4,1,1448641510815,1448641511301,894,381,0,0,0,1,0,1,1,0005-00-0000-15.png,0001-00-0001-29.png
00000014,5,1,1448641512781,1448641513274,896,367,0,0,0,4,3,1,7,0004-00-0001-60.png,0002-00-0001-99.png
00000014,6,0,1448641514302,1448641514849,893,538,0,0,0,2,3,1,5,0003-00-0001-64.png,0002-00-0000-72.png
00000014,7,1,1448641518087,1448641518527,973,435,0,0,0,4,2,2,6,0004-00-0001-63.png,0003-00-0001-54.png
00000014,8,1,1448641519661,1448641520148,939,451,0,0,0,3,2,1,5,0002-00-0000-59.png,0003-00-0001-62.png
00000014,9,1,1448641521529,1448641522026,938,450,0,0,0,4,0,4,4,0004-00-0000-82.png,0001-00-0000-83.png
00000014,10,1,1448641522865,1448641523304,357,422,0,0,0,0,3,3,3,0001-00-0001-14.png,0002-00-0001-21.png
00000014,11,0,1448641524221,1448641524720,927,436,0,0,0,1,3,2,4,0005-00-0001-81.png,0002-00-0001-04.png
00000014,12,0,1448641527619,1448641528079,900,345,0,0,0,2,4,2,6,0003-00-0000-97.png,0004-00-0000-72.png
00000014,13,0,1448641531188,1448641531645,949,433,0,0,0,3,4,1,7,0002-00-0000-66.png,0004-00-0001-18.png
00000014,14,1,1448641534486,1448641534973,964,450,0,0,0,3,0,3,3,0002-00-0000-90.png,0001-00-0001-70.png
00000014,15,1,1448641536267,1448641536989,362,485,0,0,0,1,4,3,5,0005-00-0001-17.png,0004-00-0000-47.png
00000014,16,1,1448641538294,1448641538829,909,560,0,0,0,2,0,2,2,0003-00-0000-85.png,0001-00-0001-81.png
00000014,17,1,1448641539926,1448641540421,931,479,0,0,0,2,1,1,3,0003-00-0001-81.png,0005-00-0001-90.png
00000014,18,0,1448641541415,1448641541989,913,462,0,0,0,0,4,4,4,0001-00-0000-64.png,0004-00-0001-16.png
00000014,19,1,1448641545045,1448641545486,928,521,0,0,0,4,1,3,5,0004-00-0000-80.png,0005-00-0001-91.png
00000014,20,0,1448641546713,1448641547398,954,441,0,0,0,1,2,1,3,0005-00-0000-79.png,0003-00-0001-62.png
00000014,21,1,1448641550630,1448641551095,889,420,0,0,0,4,2,2,6,0004-00-0001-15.png,0003-00-0001-23.png
00000014,22,1,1448641552178,1448641552734,346,411,0,0,0,0,2,2,2,0001-00-0000-91.png,0003-00-0000-41.png
00000014,23,0,1448641553787,1448641554425,862,410,0,0,0,3,4,1,7,0002-00-0000-30.png,0004-00-0001-34.png
00000014,24,1,1448641557735,1448641558173,928,518,0,0,0,1,0,1,1,0005-00-0000-06.png,0001-00-0000-26.png
00000014,25,1,1448641559275,1448641559748,865,545,0,0,0,4,3,1,7,0004-00-0000-17.png,0002-00-0000-08.png
00000014,26,1,1448641560796,1448641561265,913,462,0,0,0,2,1,1,3,0003-00-0000-82.png,0005-00-0001-96.png
00000014,27,0,1448641562338,1448641562830,899,439,0,0,0,2,4,2,6,0003-00-0001-45.png,0004-00-0001-26.png
00000014,28,1,1448641565940,1448641566497,407,378,0,0,0,0,1,1,1,0001-00-0001-72.png,0005-00-0001-94.png
00000014,29,0,1448641567555,1448641568005,365,467,0,0,0,3,2,1,5,0002-00-0000-00.png,0003-00-0001-05.png
00000014,30,1,1448641570993,1448641571461,341,384,0,0,0,0,4,4,4,0001-00-0000-19.png,0004-00-0001-26.png
00000014,31,0,1448641572558,1448641573105,357,426,0,0,0,3,0,3,3,0002-00-0000-73.png,0001-00-0000-92.png
00000014,32,1,1448641576467,1448641576914,934,473,0,0,0,2,0,2,2,0003-00-0000-12.png,0001-00-0000-86.png
00000014,33,0,1448641578125,1448641578533,939,410,0,0,0,1,3,2,4,0005-00-0000-15.png,0002-00-0000-23.png
00000014,34,1,1448641581896,1448641582328,363,516,0,0,0,0,3,3,3,0001-00-0001-99.png,0002-00-0000-02.png
00000014,35,0,1448641583416,1448641583860,939,410,0,0,0,2,3,1,5,0003-00-0000-12.png,0002-00-0001-19.png
00000014,36,0,1448641587492,1448641587952,952,435,0,0,0,1,2,1,3,0005-00-0001-01.png,0003-00-0001-03.png
00000014,37,0,1448641591107,1448641592032,419,492,0,0,0,3,1,2,4,0002-00-0001-45.png,0005-00-0000-00.png
00000014,38,1,1448641595363,1448641595771,945,425,0,0,0,4,1,3,5,0004-00-0000-76.png,0005-00-0001-94.png
00000014,39,0,1448641596925,1448641597653,928,408,0,0,0,1,4,3,5,0005-00-0000-14.png,0004-00-0001-87.png
00000014,40,1,1448641600523,1448641600940,900,514,0,0,0,4,0,4,4,0004-00-0001-42.png,0001-00-0000-28.png
00000014,41,0,1448641601952,1448641602394,389,436,0,0,0,1,0,1,1,0005-00-0000-18.png,0001-00-0000-24.png
00000014,42,1,1448641605587,1448641606003,487,405,0,0,0,1,4,3,5,0005-00-0001-53.png,0004-00-0001-13.png
00000014,43,1,1448641607062,1448641607545,926,437,0,0,0,3,2,1,5,0002-00-0001-27.png,0003-00-0000-39.png
00000014,44,0,1448641608591,1448641609587,861,346,0,0,0,1,2,1,3,0005-00-0000-15.png,0003-00-0000-85.png
00000014,45,1,1448641612574,1448641613067,948,428,0,0,0,2,0,2,2,0003-00-0001-39.png,0001-00-0001-09.png
00000014,46,1,1448641614088,1448641614539,356,521,0,0,0,0,2,2,2,0001-00-0001-12.png,0003-00-0001-75.png
00000014,47,1,1448641615559,1448641616055,392,510,0,0,0,3,4,1,7,0002-00-0000-35.png,0004-00-0000-13.png
00000014,48,0,1448641617148,1448641617620,913,462,0,0,0,1,3,2,4,0005-00-0001-61.png,0002-00-0001-09.png
00000014,49,0,1448641638160,1448641638589,947,394,0,0,0,2,4,2,6,0003-00-0000-55.png,0004-00-0001-15.png
00000014,50,0,1448641641416,1448641641860,433,384,0,0,0,3,1,2,4,0002-00-0000-23.png,0005-00-0000-55.png
00000014,51,1,1448641645217,1448641645629,954,500,0,0,0,4,2,2,6,0004-00-0001-83.png,0003-00-0000-24.png
00000014,52,0,1448641646826,1448641647731,414,409,0,0,0,4,3,1,7,0004-00-0000-00.png,0002-00-0000-05.png
00000014,53,1,1448641651000,1448641651535,439,385,0,0,0,0,1,1,1,0001-00-0000-97.png,0005-00-0000-41.png
00000014,54,1,1448641652676,1448641653630,993,426,0,0,0,3,0,3,3,0002-00-0000-08.png,0001-00-0000-30.png
00000014,55,1,1448641654735,1448641655190,917,505,0,0,0,2,1,1,3,0003-00-0000-74.png,0005-00-0000-41.png
00000014,56,0,1448641656259,1448641656842,963,437,0,0,0,2,3,1,5,0003-00-0000-05.png,0002-00-0000-27.png
00000014,57,1,1448641659788,1448641660231,948,446,0,0,0,4,1,3,5,0004-00-0001-40.png,0005-00-0001-86.png
00000014,58,1,1448641661238,1448641661683,350,437,0,0,0,0,3,3,3,0001-00-0000-86.png,0002-00-0001-89.png
00000014,59,1,1448641662748,1448641663154,333,433,0,0,0,0,4,4,4,0001-00-0001-27.png,0004-00-0001-53.png
00000014,60,1,1448641664258,1448641664747,907,454,0,0,0,4,0,4,4,0004-00-0000-92.png,0001-00-0001-88.png
00000014,61,1,1448641665871,1448641666267,365,453,0,0,0,0,4,4,4,0001-00-0000-81.png,0004-00-0001-48.png
00000014,62,1,1448641667413,1448641667894,344,411,0,0,0,1,2,1,3,0005-00-0001-85.png,0003-00-0001-66.png
00000014,63,1,1448641668952,1448641669447,904,427,0,0,0,4,3,1,7,0004-00-0001-45.png,0002-00-0000-86.png
00000014,64,0,1448641670553,1448641671012,878,469,0,0,0,1,3,2,4,0005-00-0001-61.png,0002-00-0000-54.png
00000014,65,1,1448641674198,1448641674624,417,415,0,0,0,0,3,3,3,0001-00-0000-45.png,0002-00-0001-47.png
00000014,66,1,1448641675541,1448641675997,413,476,0,0,0,1,4,3,5,0005-00-0001-93.png,0004-00-0000-24.png
00000014,67,1,1448641677093,1448641677597,912,477,0,0,0,3,0,3,3,0002-00-0001-64.png,0001-00-0001-88.png
00000014,68,1,1448641678675,1448641679150,925,488,0,0,0,4,0,4,4,0004-00-0000-13.png,0001-00-0001-59.png
00000014,69,0,1448641680294,1448641680764,902,467,0,0,0,3,4,1,7,0002-00-0000-86.png,0004-00-0000-50.png
00000014,70,0,1448641683865,1448641684357,952,461,0,0,0,2,4,2,6,0003-00-0000-45.png,0004-00-0000-60.png
00000014,71,1,1448641687668,1448641688144,393,401,0,0,0,0,1,1,1,0001-00-0000-04.png,0005-00-0001-02.png
00000014,72,1,1448641689168,1448641689812,358,428,0,0,0,0,2,2,2,0001-00-0001-08.png,0003-00-0000-05.png
00000014,73,1,1448641690868,1448641691382,863,547,0,0,0,2,0,2,2,0003-00-0000-99.png,0001-00-0001-91.png
00000014,74,1,1448641692488,1448641693011,889,422,0,0,0,3,2,1,5,0002-00-0000-63.png,0003-00-0000-99.png
00000014,75,1,1448641694089,1448641694623,926,436,0,0,0,2,1,1,3,0003-00-0000-94.png,0005-00-0000-60.png
00000014,76,1,1448641695687,1448641696267,928,442,0,0,0,1,0,1,1,0005-00-0000-38.png,0001-00-0001-56.png
00000014,77,1,1448641697359,1448641697880,926,463,0,0,0,4,2,2,6,0004-00-0000-60.png,0003-00-0000-50.png
00000014,78,0,1448641698990,1448641699532,413,533,0,0,0,4,1,3,5,0004-00-0001-54.png,0005-00-0000-74.png
00000014,79,0,1448641702446,1448641702866,900,482,0,0,0,2,3,1,5,0003-00-0000-52.png,0002-00-0000-52.png
00000014,80,1,1448641705834,1448641706309,939,449,0,0,0,3,1,2,4,0002-00-0000-60.png,0005-00-0001-47.png
00000014,81,1,1448641707418,1448641707913,901,450,0,0,0,1,0,1,1,0005-00-0001-78.png,0001-00-0001-84.png
00000014,82,1,1448641708998,1448641709574,887,528,0,0,0,3,1,2,4,0002-00-0000-38.png,0005-00-0000-71.png
00000014,83,0,1448641710687,1448641711224,926,462,0,0,0,2,4,2,6,0003-00-0000-19.png,0004-00-0000-22.png
00000014,84,1,1448641714505,1448641714955,954,443,0,0,0,4,0,4,4,0004-00-0001-14.png,0001-00-0001-63.png
00000014,85,1,1448641715994,1448641716539,929,468,0,0,0,2,1,1,3,0003-00-0000-27.png,0005-00-0000-20.png
00000014,86,0,1448641717615,1448641718007,381,464,0,0,0,3,2,1,5,0002-00-0000-91.png,0003-00-0000-21.png
00000014,87,0,1448641720932,1448641721313,900,503,0,0,0,2,3,1,5,0003-00-0000-14.png,0002-00-0001-02.png
00000014,88,0,1448641724907,1448641725351,990,476,0,0,0,3,4,1,7,0002-00-0001-17.png,0004-00-0000-63.png
00000014,89,1,1448641728674,1448641729078,978,488,0,0,0,3,0,3,3,0002-00-0000-16.png,0001-00-0000-90.png
00000014,90,1,1448641730253,1448641730705,913,450,0,0,0,4,1,3,5,0004-00-0000-70.png,0005-00-0000-39.png
00000014,91,0,1448641731737,1448641732744,866,406,0,0,0,0,1,1,1,0001-00-0001-56.png,0005-00-0000-24.png
00000014,92,0,1448641735840,1448641736318,361,410,0,0,0,4,2,2,6,0004-00-0001-51.png,0003-00-0001-75.png
00000014,93,1,1448641739329,1448641739790,950,431,0,0,0,4,3,1,7,0004-00-0001-35.png,0002-00-0000-32.png
00000014,94,1,1448641740731,1448641741253,374,436,0,0,0,1,4,3,5,0005-00-0001-03.png,0004-00-0001-71.png
00000014,95,1,1448641742303,1448641742707,396,420,0,0,0,0,4,4,4,0001-00-0000-86.png,0004-00-0001-25.png
00000014,96,1,1448641743804,1448641744285,413,541,0,0,0,1,3,2,4,0005-00-0001-79.png,0002-00-0001-98.png
00000014,97,1,1448641745354,1448641745747,392,561,0,0,0,0,2,2,2,0001-00-0001-20.png,0003-00-0000-34.png
00000014,98,1,1448641746795,1448641747234,401,437,0,0,0,0,3,3,3,0001-00-0000-22.png,0002-00-0000-16.png
00000014,99,0,1448641748289,1448641748784,900,462,0,0,0,1,2,1,3,0005-00-0001-97.png,0003-00-0001-07.png
00000014,100,1,1448641751714,1448641752125,900,397,0,0,0,2,0,2,2,0003-00-0001-44.png,0001-00-0000-77.png
00000014,101,1,1448641753164,1448641753561,454,451,0,0,0,1,2,1,3,0005-00-0000-28.png,0003-00-0000-14.png
00000014,102,1,1448641754598,1448641755030,414,449,0,0,0,0,3,3,3,0001-00-0001-65.png,0002-00-0001-37.png
00000014,103,1,1448641756057,1448641756552,874,489,0,0,0,3,1,2,4,0002-00-0001-96.png,0005-00-0001-12.png
00000014,104,1,1448641757631,1448641758001,440,474,0,0,0,1,3,2,4,0005-00-0001-87.png,0002-00-0000-96.png
00000014,105,0,1448641759089,1448641760027,928,467,0,0,0,2,4,2,6,0003-00-0000-70.png,0004-00-0000-77.png
00000014,106,0,1448641763433,1448641763948,356,395,0,0,0,1,0,1,1,0005-00-0001-97.png,0001-00-0000-64.png
00000014,107,1,1448641766931,1448641767381,405,512,0,0,0,1,4,3,5,0005-00-0000-60.png,0004-00-0000-88.png
00000014,108,1,1448641768381,1448641768911,901,488,0,0,0,2,1,1,3,0003-00-0001-82.png,0005-00-0001-74.png
00000014,109,1,1448641769973,1448641770457,903,468,0,0,0,4,0,4,4,0004-00-0001-21.png,0001-00-0001-99.png
00000014,110,1,1448641771433,1448641771869,369,480,0,0,0,2,3,1,5,0003-00-0000-56.png,0002-00-0000-41.png
00000014,111,1,1448641772913,1448641773446,900,475,0,0,0,4,2,2,6,0004-00-0000-14.png,0003-00-0001-69.png
00000014,112,1,1448641774513,1448641775071,938,450,0,0,0,2,0,2,2,0003-00-0000-05.png,0001-00-0001-84.png
00000014,113,1,1448641776115,1448641776559,458,457,0,0,0,0,1,1,1,0001-00-0001-93.png,0005-00-0000-17.png
00000014,114,0,1448641777636,1448641778203,332,499,0,0,0,3,2,1,5,0002-00-0001-62.png,0003-00-0000-62.png
00000014,115,1,1448641781312,1448641781743,929,442,0,0,0,4,1,3,5,0004-00-0001-48.png,0005-00-0001-98.png
00000014,116,1,1448641782762,1448641783237,370,452,0,0,0,0,4,4,4,0001-00-0001-76.png,0004-00-0001-01.png
00000014,117,0,1448641784306,1448641784784,889,475,0,0,0,3,4,1,7,0002-00-0000-04.png,0004-00-0000-60.png
00000014,118,1,1448641788150,1448641788597,939,449,0,0,0,3,0,3,3,0002-00-0000-99.png,0001-00-0001-80.png
00000014,119,1,1448641789561,1448641790169,928,469,0,0,0,4,3,1,7,0004-00-0001-06.png,0002-00-0001-86.png
00000014,120,1,1448641791263,1448641791645,442,479,0,0,0,0,2,2,2,0001-00-0000-23.png,0003-00-0001-87.png
00000014,121,1,1448641792693,1448641793090,401,410,0,0,0,0,2,2,2,0001-00-0001-71.png,0003-00-0001-08.png
00000014,122,1,1448641794185,1448641794607,877,467,0,0,0,4,0,4,4,0004-00-0001-34.png,0001-00-0000-62.png
00000014,123,1,1448641795684,1448641796062,421,468,0,0,0,3,4,1,7,0002-00-0001-63.png,0004-00-0001-09.png
00000014,124,1,1448641797195,1448641797807,903,493,0,0,0,3,2,1,5,0002-00-0001-95.png,0003-00-0000-81.png
00000014,125,0,1448641798824,1448641799317,896,472,0,0,0,2,4,2,6,0003-00-0001-81.png,0004-00-0000-76.png
00000014,126,0,1448641802677,1448641803212,400,399,0,0,0,1,0,1,1,0005-00-0000-20.png,0001-00-0001-93.png
00000014,127,1,1448641806336,1448641806785,381,363,0,0,0,1,2,1,3,0005-00-0001-41.png,0003-00-0001-84.png
00000014,128,0,1448641807699,1448641808286,924,474,0,0,0,0,1,1,1,0001-00-0000-39.png,0005-00-0001-63.png
00000014,129,0,1448641811367,1448641811840,401,527,0,0,0,4,2,2,6,0004-00-0001-63.png,0003-00-0000-20.png
00000014,130,1,1448641814885,1448641815308,947,418,0,0,0,2,1,1,3,0003-00-0000-48.png,0005-00-0001-75.png
00000014,131,0,1448641816307,1448641816732,388,438,0,0,0,3,1,2,4,0002-00-0001-30.png,0005-00-0000-05.png
00000014,132,0,1448641819640,1448641819731,495,428,0,0,0,4,1,3,5,0004-00-0000-95.png,0005-00-0000-06.png
00000014,133,1,1448641822747,1448641822821,467,399,0,0,0,2,3,1,5,0003-00-0000-43.png,0002-00-0000-55.png
00000014,134,0,1448641823788,1448641824269,928,468,0,0,0,1,3,2,4,0005-00-0000-15.png,0002-00-0000-66.png
00000014,135,1,1448641827317,1448641827729,977,410,0,0,0,2,0,2,2,0003-00-0000-27.png,0001-00-0000-25.png
00000014,136,1,1448641828732,1448641829265,947,446,0,0,0,4,3,1,7,0004-00-0000-62.png,0002-00-0000-65.png
00000014,137,1,1448641830251,1448641830645,420,479,0,0,0,0,4,4,4,0001-00-0000-32.png,0004-00-0001-58.png
00000014,138,1,1448641831683,1448641832076,341,428,0,0,0,0,3,3,3,0001-00-0001-70.png,0002-00-0000-93.png
00000014,139,1,1448641833117,1448641833591,903,441,0,0,0,3,0,3,3,0002-00-0001-99.png,0001-00-0001-99.png
00000014,140,1,1448641834625,1448641835021,342,453,0,0,0,1,4,3,5,0005-00-0001-24.png,0004-00-0001-53.png
00000014,141,1,1448641836077,1448641836458,339,450,0,0,0,0,2,2,2,0001-00-0001-47.png,0003-00-0000-05.png
00000014,142,1,1448641837448,1448641837959,877,468,0,0,0,4,2,2,6,0004-00-0000-79.png,0003-00-0000-45.png
00000014,143,1,1448641839044,1448641839525,881,469,0,0,0,4,3,1,7,0004-00-0000-60.png,0002-00-0000-07.png
00000014,144,1,1448641840579,1448641841070,925,464,0,0,0,3,0,3,3,0002-00-0001-75.png,0001-00-0001-40.png
00000014,145,0,1448641842139,1448641842512,362,475,0,0,0,3,2,1,5,0002-00-0001-76.png,0003-00-0000-41.png
00000014,146,0,1448641845453,1448641845954,952,461,0,0,0,2,3,1,5,0003-00-0000-09.png,0002-00-0001-38.png
00000014,147,0,1448641848886,1448641848910,521,420,0,0,0,1,0,1,1,0005-00-0000-47.png,0001-00-0000-75.png
00000014,148,0,1448641851737,1448641852231,376,424,0,0,0,4,1,3,5,0004-00-0000-21.png,0005-00-0001-18.png
00000014,149,1,1448641855242,1448641855708,940,423,0,0,0,4,0,4,4,0004-00-0000-04.png,0001-00-0001-00.png
00000014,150,0,1448641856629,1448641857150,896,472,0,0,0,1,3,2,4,0005-00-0001-21.png,0002-00-0001-70.png
00000014,151,1,1448641860152,1448641860607,383,523,0,0,0,0,3,3,3,0001-00-0000-35.png,0002-00-0001-27.png
00000014,152,0,1448641861593,1448641862183,877,544,0,0,0,1,2,1,3,0005-00-0001-26.png,0003-00-0001-78.png
00000014,153,1,1448641865235,1448641865299,520,384,0,0,0,0,4,4,4,0001-00-0001-49.png,0004-00-0001-40.png
00000014,154,1,1448641866330,1448641866754,442,495,0,0,0,1,4,3,5,0005-00-0000-34.png,0004-00-0001-90.png
00000014,155,1,1448641867761,1448641868274,900,487,0,0,0,2,1,1,3,0003-00-0001-42.png,0005-00-0000-44.png
00000014,156,1,1448641869242,1448641869661,435,486,0,0,0,0,1,1,1,0001-00-0001-61.png,0005-00-0000-37.png
00000014,157,0,1448641870795,1448641871230,899,457,0,0,0,2,4,2,6,0003-00-0000-71.png,0004-00-0000-11.png
00000014,158,1,1448641874140,1448641874812,913,554,0,0,0,3,1,2,4,0002-00-0001-48.png,0005-00-0001-93.png
00000014,159,1,1448641876280,1448641876713,862,410,0,0,0,2,0,2,2,0003-00-0000-83.png,0001-00-0000-21.png
00000014,160,0,1448641877766,1448641878424,951,475,0,0,0,3,4,1,7,0002-00-0000-22.png,0004-00-0001-82.png
00000014,161,1,1448641881338,1448641881811,934,447,0,0,0,4,0,4,4,0004-00-0000-48.png,0001-00-0001-52.png
00000014,162,1,1448641882769,1448641883246,907,474,0,0,0,2,1,1,3,0003-00-0001-96.png,0005-00-0001-41.png
00000014,163,0,1448641884271,1448641884645,421,558,0,0,0,1,0,1,1,0005-00-0000-35.png,0001-00-0000-51.png
00000014,164,0,1448641887768,1448641888227,900,397,0,0,0,2,4,2,6,0003-00-0001-33.png,0004-00-0001-05.png
00000014,165,0,1448641891167,1448641891632,928,442,0,0,0,3,4,1,7,0002-00-0000-22.png,0004-00-0001-06.png
00000014,166,1,1448641894521,1448641895039,342,390,0,0,0,0,3,3,3,0001-00-0001-91.png,0002-00-0000-34.png
00000014,167,1,1448641896035,1448641896463,903,469,0,0,0,3,2,1,5,0002-00-0000-93.png,0003-00-0000-87.png
00000014,168,0,1448641897560,1448641898135,926,435,0,0,0,1,3,2,4,0005-00-0000-04.png,0002-00-0000-66.png
00000014,169,1,1448641901284,1448641901781,321,392,0,0,0,0,1,1,1,0001-00-0001-18.png,0005-00-0001-40.png
00000014,170,1,1448641902736,1448641903834,313,369,0,0,0,1,2,1,3,0005-00-0001-84.png,0003-00-0001-37.png
00000014,171,1,1448641904793,1448641905226,418,454,0,0,0,1,4,3,5,0005-00-0001-14.png,0004-00-0001-24.png
00000014,172,1,1448641906347,1448641906812,875,565,0,0,0,2,0,2,2,0003-00-0001-83.png,0001-00-0001-28.png
00000014,173,1,1448641907897,1448641908438,899,483,0,0,0,3,1,2,4,0002-00-0000-43.png,0005-00-0000-48.png
00000014,174,1,1448641909508,1448641910038,931,484,0,0,0,4,2,2,6,0004-00-0001-22.png,0003-00-0001-01.png
00000014,175,1,1448641911166,1448641912070,362,423,0,0,0,2,3,1,5,0003-00-0000-41.png,0002-00-0000-11.png
00000014,176,1,1448641913135,1448641913578,895,472,0,0,0,4,1,3,5,0004-00-0001-53.png,0005-00-0001-31.png
00000014,177,1,1448641914585,1448641915150,919,469,0,0,0,3,0,3,3,0002-00-0000-43.png,0001-00-0000-35.png
00000014,178,1,1448641916177,1448641916554,364,469,0,0,0,0,2,2,2,0001-00-0001-62.png,0003-00-0000-15.png
00000014,179,1,1448641917577,1448641917988,362,467,0,0,0,0,4,4,4,0001-00-0001-49.png,0004-00-0000-71.png
00000014,180,1,1448641919080,1448641919491,875,487,0,0,0,4,3,1,7,0004-00-0001-80.png,0002-00-0001-19.png
00000014,181,1,1448641920633,1448641921097,903,467,0,0,0,2,0,2,2,0003-00-0001-71.png,0001-00-0000-67.png
00000014,182,1,1448641922153,1448641922529,403,474,0,0,0,0,2,2,2,0001-00-0000-08.png,0003-00-0000-16.png
00000014,183,1,1448641923689,1448641924166,401,450,0,0,0,1,3,2,4,0005-00-0001-13.png,0002-00-0001-92.png
00000014,184,1,1448641925283,1448641925723,381,543,0,0,0,0,3,3,3,0001-00-0001-79.png,0002-00-0001-46.png
00000014,185,0,1448641926864,1448641927699,947,446,0,0,0,2,4,2,6,0003-00-0001-23.png,0004-00-0000-23.png
00000014,186,1,1448641930556,1448641931006,897,456,0,0,0,3,1,2,4,0002-00-0000-25.png,0005-00-0001-35.png
00000014,187,1,1448641932078,1448641932562,414,540,0,0,0,1,4,3,5,0005-00-0001-80.png,0004-00-0000-61.png
00000014,188,1,1448641933648,1448641934135,873,483,0,0,0,4,2,2,6,0004-00-0000-60.png,0003-00-0001-46.png
00000014,189,1,1448641935187,1448641935683,896,472,0,0,0,3,2,1,5,0002-00-0000-03.png,0003-00-0000-11.png
00000014,190,0,1448641936769,1448641937152,439,502,0,0,0,4,1,3,5,0004-00-0001-64.png,0005-00-0001-80.png
00000014,191,1,1448641940207,1448641940662,903,428,0,0,0,4,3,1,7,0004-00-0001-65.png,0002-00-0000-08.png
00000014,192,1,1448641941731,1448641942587,925,463,0,0,0,4,0,4,4,0004-00-0000-04.png,0001-00-0001-25.png
00000014,193,0,1448641943678,1448641944136,913,450,0,0,0,2,3,1,5,0003-00-0001-83.png,0002-00-0000-46.png
00000014,194,1,1448641947439,1448641947841,875,514,0,0,0,3,0,3,3,0002-00-0001-70.png,0001-00-0001-74.png
00000014,195,0,1448641948836,1448641949418,877,409,0,0,0,3,4,1,7,0002-00-0001-48.png,0004-00-0001-71.png
00000014,196,1,1448641952427,1448641952858,888,554,0,0,0,1,0,1,1,0005-00-0000-88.png,0001-00-0000-51.png
00000014,197,1,1448641953856,1448641954397,404,394,0,0,0,0,1,1,1,0001-00-0001-40.png,0005-00-0001-15.png
00000014,198,1,1448641955485,1448641955941,925,463,0,0,0,2,1,1,3,0003-00-0000-34.png,0005-00-0001-77.png
00000014,199,1,1448641956996,1448641957441,369,466,0,0,0,0,4,4,4,0001-00-0000-77.png,0004-00-0000-58.png
00000014,200,0,1448641958516,1448641959083,896,445,0,0,0,1,2,1,3,0005-00-0001-32.png,0003-00-0000-88.png
00000014,201,1,1448641961961,1448641962386,954,467,0,0,0,3,0,3,3,0002-00-0000-13.png,0001-00-0001-02.png
00000014,202,0,1448641963388,1448641964163,386,407,0,0,0,1,0,1,1,0005-00-0001-12.png,0001-00-0001-19.png
00000014,203,0,1448641967002,1448641967564,895,524,0,0,0,2,3,1,5,0003-00-0000-42.png,0002-00-0001-46.png
00000014,204,0,1448641970422,1448641970826,959,447,0,0,0,1,3,2,4,0005-00-0000-50.png,0002-00-0000-56.png
00000014,205,0,1448641973832,1448641973888,504,480,0,0,0,4,1,3,5,0004-00-0001-55.png,0005-00-0000-29.png
00000014,206,0,1448641976783,1448641977802,401,376,0,0,0,3,2,1,5,0002-00-0001-08.png,0003-00-0001-92.png
00000014,207,1,1448641981003,1448641981430,900,423,0,0,0,3,1,2,4,0002-00-0001-05.png,0005-00-0001-84.png
00000014,208,1,1448641982487,1448641982943,936,484,0,0,0,2,0,2,2,0003-00-0000-71.png,0001-00-0000-28.png
00000014,209,1,1448641984008,1448641984393,407,483,0,0,0,0,2,2,2,0001-00-0000-48.png,0003-00-0001-26.png
00000014,210,1,1448641985462,1448641985941,896,492,0,0,0,4,0,4,4,0004-00-0001-36.png,0001-00-0001-68.png
00000014,211,1,1448641986992,1448641987313,401,479,0,0,0,1,4,3,5,0005-00-0001-97.png,0004-00-0000-79.png
00000014,212,0,1448641988404,1448641988846,900,456,0,0,0,2,4,2,6,0003-00-0000-19.png,0004-00-0000-52.png
00000014,213,1,1448641991686,1448641992160,400,390,0,0,0,0,1,1,1,0001-00-0001-13.png,0005-00-0000-47.png
00000014,214,1,1448641993125,1448641993548,410,460,0,0,0,0,4,4,4,0001-00-0000-13.png,0004-00-0001-28.png
00000014,215,1,1448641994646,1448641995109,902,494,0,0,0,2,1,1,3,0003-00-0001-09.png,0005-00-0000-61.png
00000014,216,0,1448641996156,1448641996635,900,438,0,0,0,3,4,1,7,0002-00-0000-83.png,0004-00-0001-92.png
00000014,217,1,1448641999961,1448642000404,904,402,0,0,0,4,3,1,7,0004-00-0001-00.png,0002-00-0000-13.png
00000014,218,1,1448642001425,1448642001893,914,475,0,0,0,4,2,2,6,0004-00-0000-81.png,0003-00-0001-19.png
00000014,219,1,1448642002944,1448642003338,421,468,0,0,0,1,2,1,3,0005-00-0000-67.png,0003-00-0000-48.png
00000014,220,1,1448642004365,1448642004716,414,466,0,0,0,0,3,3,3,0001-00-0000-58.png,0002-00-0001-51.png
00000014,221,0,1448642005757,1448642006767,934,432,0,0,0,0,1,1,1,0001-00-0000-53.png,0005-00-0000-51.png
00000014,222,1,1448642009833,1448642010321,438,432,0,0,0,1,2,1,3,0005-00-0001-28.png,0003-00-0000-74.png
00000014,223,0,1448642011414,1448642011829,358,471,0,0,0,1,0,1,1,0005-00-0000-18.png,0001-00-0000-07.png
00000014,224,1,1448642015150,1448642015535,893,561,0,0,0,3,2,1,5,0002-00-0001-99.png,0003-00-0001-62.png
00000014,225,1,1448642016481,1448642016956,922,472,0,0,0,3,1,2,4,0002-00-0000-40.png,0005-00-0001-11.png
00000014,226,0,1448642017982,1448642018527,885,560,0,0,0,2,4,2,6,0003-00-0000-78.png,0004-00-0001-43.png
00000014,227,0,1448642021828,1448642022271,894,524,0,0,0,0,3,3,3,0001-00-0000-16.png,0002-00-0000-66.png
00000014,228,1,1448642025104,1448642025536,401,423,0,0,0,0,2,2,2,0001-00-0001-25.png,0003-00-0000-14.png
00000014,229,1,1448642026527,1448642027042,928,450,0,0,0,3,0,3,3,0002-00-0001-26.png,0001-00-0000-15.png
00000014,230,1,1448642028020,1448642028463,388,456,0,0,0,1,3,2,4,0005-00-0001-89.png,0002-00-0000-91.png
00000014,231,0,1448642029490,1448642029946,874,457,0,0,0,3,4,1,7,0002-00-0001-17.png,0004-00-0001-11.png
00000014,232,1,1448642038759,1448642039178,1004,450,0,0,0,4,3,1,7,0004-00-0000-60.png,0002-00-0001-46.png
00000014,233,0,1448642040266,1448642040796,921,472,0,0,0,1,4,3,5,0005-00-0001-56.png,0004-00-0001-14.png
00000014,234,1,1448642043914,1448642044386,376,410,0,0,0,2,3,1,5,0003-00-0000-79.png,0002-00-0001-43.png
00000014,235,1,1448642045384,1448642045876,876,547,0,0,0,4,1,3,5,0004-00-0000-44.png,0005-00-0001-88.png
00000014,236,1,1448642046892,1448642047395,877,468,0,0,0,2,1,1,3,0003-00-0000-75.png,0005-00-0000-97.png
00000014,237,0,1448642048440,1448642048821,381,454,0,0,0,4,2,2,6,0004-00-0001-66.png,0003-00-0000-23.png
00000014,238,1,1448642051727,1448642052130,932,436,0,0,0,4,0,4,4,0004-00-0000-44.png,0001-00-0000-01.png
00000014,239,0,1448642053116,1448642053553,388,448,0,0,0,2,0,2,2,0003-00-0001-79.png,0001-00-0000-12.png
00000014,240,0,1448642056684,1448642057226,961,487,0,0,0,0,4,4,4,0001-00-0001-02.png,0004-00-0001-11.png
00000014,241,1,1448642060251,1448642060706,924,458,0,0,0,1,0,1,1,0005-00-0001-59.png,0001-00-0000-22.png
00000014,242,1,1448642061623,1448642062069,900,475,0,0,0,4,0,4,4,0004-00-0000-62.png,0001-00-0001-09.png
00000014,243,1,1448642063182,1448642063894,871,472,0,0,0,4,2,2,6,0004-00-0001-90.png,0003-00-0000-73.png
00000014,244,0,1448642064943,1448642065320,376,449,0,0,0,3,0,3,3,0002-00-0001-65.png,0001-00-0000-21.png
00000014,245,1,1448642068220,1448642068724,414,417,0,0,0,0,4,4,4,0001-00-0000-72.png,0004-00-0001-12.png
00000014,246,1,1448642069681,1448642070136,898,483,0,0,0,2,1,1,3,0003-00-0001-65.png,0005-00-0000-29.png
00000014,247,1,1448642071162,1448642071650,897,485,0,0,0,3,1,2,4,0002-00-0001-01.png,0005-00-0001-60.png
00000014,248,0,1448642072704,1448642073202,878,495,0,0,0,1,3,2,4,0005-00-0000-87.png,0002-00-0000-64.png
00000014,249,1,1448642076167,1448642076913,366,414,0,0,0,0,3,3,3,0001-00-0001-02.png,0002-00-0001-95.png
00000014,250,1,1448642077938,1448642078408,431,564,0,0,0,1,4,3,5,0005-00-0000-88.png,0004-00-0000-43.png
00000014,251,1,1448642079405,1448642079875,878,495,0,0,0,4,1,3,5,0004-00-0001-28.png,0005-00-0001-59.png
00000014,252,0,1448642080952,1448642081915,870,419,0,0,0,2,3,1,5,0003-00-0001-64.png,0002-00-0001-03.png
00000014,253,1,1448642084993,1448642085432,949,456,0,0,0,2,0,2,2,0003-00-0000-48.png,0001-00-0000-91.png
00000014,254,0,1448642086478,1448642086939,888,476,0,0,0,3,4,1,7,0002-00-0000-28.png,0004-00-0001-60.png
00000014,255,0,1448642090376,1448642090883,973,446,0,0,0,1,2,1,3,0005-00-0001-95.png,0003-00-0001-06.png
00000014,256,1,1448642093777,1448642094205,392,509,0,0,0,0,1,1,1,0001-00-0001-09.png,0005-00-0000-95.png
00000014,257,1,1448642095142,1448642096142,896,420,0,0,0,3,2,1,5,0002-00-0000-14.png,0003-00-0000-01.png
00000014,258,1,1448642097123,1448642097524,325,449,0,0,0,2,4,2,6,0003-00-0001-07.png,0004-00-0001-34.png
00000014,259,1,1448642098615,1448642099039,402,470,0,0,0,0,2,2,2,0001-00-0001-41.png,0003-00-0001-46.png
00000014,260,1,1448642100074,1448642100553,900,490,0,0,0,4,3,1,7,0004-00-0000-03.png,0002-00-0001-83.png
00000014,261,1,1448642101625,1448642102156,916,479,0,0,0,4,2,2,6,0004-00-0001-41.png,0003-00-0001-84.png
00000014,262,0,1448642103155,1448642103514,461,498,0,0,0,2,1,1,3,0003-00-0000-40.png,0005-00-0000-66.png
00000014,263,1,1448642106841,1448642107246,342,375,0,0,0,0,4,4,4,0001-00-0001-13.png,0004-00-0000-85.png
00000014,264,0,1448642108340,1448642108827,887,501,0,0,0,1,4,3,5,0005-00-0001-25.png,0004-00-0001-74.png
00000014,265,1,1448642111762,1448642111806,488,514,0,0,0,1,2,1,3,0005-00-0001-57.png,0003-00-0001-46.png
00000014,266,0,1448642112946,1448642113391,896,472,0,0,0,2,3,1,5,0003-00-0000-81.png,0002-00-0001-81.png
00000014,267,1,1448642116391,1448642117027,360,422,0,0,0,2,4,2,6,0003-00-0001-10.png,0004-00-0000-39.png
00000014,268,0,1448642118105,1448642118570,901,475,0,0,0,3,4,1,7,0002-00-0001-77.png,0004-00-0001-66.png
00000014,269,1,1448642121450,1448642121993,951,475,0,0,0,4,3,1,7,0004-00-0001-90.png,0002-00-0000-48.png
00000014,270,1,1448642123079,1448642123617,900,488,0,0,0,4,0,4,4,0004-00-0001-89.png,0001-00-0000-47.png
00000014,271,1,1448642124643,1448642125117,900,489,0,0,0,4,1,3,5,0004-00-0001-55.png,0005-00-0000-75.png
00000014,272,0,1448642126225,1448642126667,902,467,0,0,0,1,3,2,4,0005-00-0000-48.png,0002-00-0001-26.png
00000014,273,1,1448642130009,1448642130423,905,402,0,0,0,3,0,3,3,0002-00-0001-31.png,0001-00-0001-13.png
00000014,274,1,1448642131449,1448642131941,899,482,0,0,0,3,1,2,4,0002-00-0001-74.png,0005-00-0001-23.png
00000014,275,1,1448642133111,1448642133512,358,453,0,0,0,0,1,1,1,0001-00-0001-58.png,0005-00-0001-67.png
00000014,276,1,1448642134659,1448642135053,381,460,0,0,0,0,2,2,2,0001-00-0001-22.png,0003-00-0001-83.png
00000014,277,0,1448642136152,1448642136701,901,487,0,0,0,0,3,3,3,0001-00-0001-46.png,0002-00-0000-17.png
00000014,278,1,1448642139790,1448642140308,925,463,0,0,0,1,0,1,1,0005-00-0000-70.png,0001-00-0000-03.png
00000014,279,1,1448642141407,1448642141926,901,502,0,0,0,2,0,2,2,0003-00-0000-93.png,0001-00-0000-47.png
00000014,280,1,1448642142960,1448642143495,899,490,0,0,0,3,2,1,5,0002-00-0001-19.png,0003-00-0001-08.png
00000014,281,0,1448642144580,1448642145490,888,476,0,0,0,1,2,1,3,0005-00-0000-14.png,0003-00-0000-84.png
00000014,282,1,1448642148416,1448642148841,939,449,0,0,0,4,1,3,5,0004-00-0001-51.png,0005-00-0000-10.png
00000014,283,1,1448642149857,1448642150342,875,476,0,0,0,4,2,2,6,0004-00-0000-62.png,0003-00-0001-17.png
00000014,284,1,1448642151404,1448642151853,897,481,0,0,0,2,0,2,2,0003-00-0001-09.png,0001-00-0000-58.png
00000014,285,0,1448642152939,1448642153438,887,476,0,0,0,2,4,2,6,0003-00-0001-02.png,0004-00-0001-99.png
00000014,286,1,1448642156885,1448642157320,356,436,0,0,0,0,3,3,3,0001-00-0001-20.png,0002-00-0000-97.png
00000014,287,1,1448642158305,1448642158747,368,442,0,0,0,0,2,2,2,0001-00-0000-01.png,0003-00-0001-30.png
00000014,288,0,1448642159846,1448642160301,894,481,0,0,0,2,3,1,5,0003-00-0001-23.png,0002-00-0000-89.png
00000014,289,1,1448642163612,1448642164019,965,449,0,0,0,3,2,1,5,0002-00-0001-27.png,0003-00-0001-01.png
00000014,290,0,1448642165035,1448642165506,900,475,0,0,0,3,4,1,7,0002-00-0000-20.png,0004-00-0001-36.png
00000014,291,1,1448642168522,1448642168929,913,480,0,0,0,2,1,1,3,0003-00-0000-70.png,0005-00-0001-11.png
00000014,292,1,1448642169925,1448642170376,924,484,0,0,0,3,1,2,4,0002-00-0001-51.png,0005-00-0000-78.png
00000014,293,1,1448642171514,1448642171940,359,449,0,0,0,0,1,1,1,0001-00-0001-44.png,0005-00-0000-62.png
00000014,294,1,1448642173046,1448642173520,880,484,0,0,0,1,0,1,1,0005-00-0000-39.png,0001-00-0001-05.png
00000014,295,1,1448642174753,1448642175266,874,464,0,0,0,4,3,1,7,0004-00-0000-14.png,0002-00-0001-65.png
00000014,296,1,1448642176343,1448642176694,439,439,0,0,0,1,4,3,5,0005-00-0000-65.png,0004-00-0000-24.png
00000014,297,0,1448642177815,1448642178395,952,514,0,0,0,1,3,2,4,0005-00-0001-83.png,0002-00-0001-26.png
00000014,298,1,1448642181662,1448642182111,951,464,0,0,0,4,0,4,4,0004-00-0000-49.png,0001-00-0001-35.png
00000014,299,1,1448642183192,1448642184069,376,408,0,0,0,0,4,4,4,0001-00-0001-54.png,0004-00-0001-62.png
00000014,300,1,1448642185110,1448642185624,877,469,0,0,0,3,0,3,3,0002-00-0001-07.png,0001-00-0001-35.png
00000014,301,1,1448642186696,1448642187120,470,558,0,0,0,3,4,1,7,0002-00-0001-86.png,0004-00-0001-00.png
00000014,302,1,1448642188231,1448642188573,427,449,0,0,0,0,4,4,4,0001-00-0001-09.png,0004-00-0001-41.png
00000014,303,1,1448642189717,1448642190182,873,491,0,0,0,2,1,1,3,0003-00-0000-21.png,0005-00-0000-23.png
00000014,304,1,1448642191301,1448642191745,875,476,0,0,0,3,0,3,3,0002-00-0001-74.png,0001-00-0000-41.png
00000014,305,0,1448642192883,1448642193342,866,480,0,0,0,1,4,3,5,0005-00-0000-71.png,0004-00-0000-62.png
00000014,306,1,1448642196780,1448642197160,928,468,0,0,0,4,1,3,5,0004-00-0001-60.png,0005-00-0000-93.png
00000014,307,1,1448642198187,1448642198632,366,433,0,0,0,0,2,2,2,0001-00-0000-95.png,0003-00-0000-92.png
00000014,308,1,1448642199838,1448642200294,360,465,0,0,0,1,2,1,3,0005-00-0000-84.png,0003-00-0000-61.png
00000014,309,1,1448642201282,1448642201650,436,484,0,0,0,0,3,3,3,0001-00-0001-12.png,0002-00-0001-44.png
00000014,310,0,1448642202791,1448642203278,874,465,0,0,0,1,3,2,4,0005-00-0000-30.png,0002-00-0000-73.png
00000014,311,0,1448642206587,1448642207017,925,475,0,0,0,2,4,2,6,0003-00-0001-23.png,0004-00-0000-09.png
00000014,312,1,1448642209937,1448642210361,877,548,0,0,0,2,0,2,2,0003-00-0000-77.png,0001-00-0001-72.png
00000014,313,1,1448642211429,1448642211943,867,564,0,0,0,3,1,2,4,0002-00-0001-94.png,0005-00-0001-10.png
00000014,314,1,1448642213000,1448642213505,905,480,0,0,0,4,0,4,4,0004-00-0000-94.png,0001-00-0001-28.png
00000014,315,0,1448642214527,1448642214916,445,506,0,0,0,4,2,2,6,0004-00-0001-98.png,0003-00-0001-95.png
00000014,316,1,1448642217868,1448642218374,915,474,0,0,0,1,0,1,1,0005-00-0000-07.png,0001-00-0000-89.png
00000014,317,0,1448642219330,1448642219812,901,476,0,0,0,2,3,1,5,0003-00-0001-26.png,0002-00-0000-51.png
00000014,318,1,1448642223068,1448642223657,381,397,0,0,0,0,1,1,1,0001-00-0001-10.png,0005-00-0000-91.png
00000014,319,1,1448642224882,1448642225311,882,487,0,0,0,4,3,1,7,0004-00-0000-20.png,0002-00-0000-09.png
00000014,320,1,1448642226417,1448642226922,901,462,0,0,0,3,2,1,5,0002-00-0001-82.png,0003-00-0000-44.png
00000014,321,1,1448642228007,1448642228361,434,518,0,0,0,3,4,1,7,0002-00-0000-39.png,0004-00-0001-54.png
00000014,322,1,1448642229466,1448642229963,890,479,0,0,0,3,0,3,3,0002-00-0000-16.png,0001-00-0000-37.png
00000014,323,0,1448642231039,1448642231551,914,475,0,0,0,2,3,1,5,0003-00-0000-59.png,0002-00-0000-47.png
00000014,324,0,1448642234432,1448642234484,514,433,0,0,0,2,1,1,3,0003-00-0001-32.png,0005-00-0001-87.png
00000014,325,1,1448642237537,1448642238015,363,408,0,0,0,1,3,2,4,0005-00-0000-83.png,0002-00-0001-32.png
00000014,326,0,1448642239018,1448642239446,350,448,0,0,0,4,2,2,6,0004-00-0001-91.png,0003-00-0001-82.png
00000014,327,1,1448642242648,1448642243049,440,424,0,0,0,0,2,2,2,0001-00-0001-74.png,0003-00-0000-47.png
00000014,328,1,1448642244079,1448642244556,445,464,0,0,0,0,4,4,4,0001-00-0000-22.png,0004-00-0000-49.png
00000014,329,1,1448642245648,1448642246184,898,482,0,0,0,4,3,1,7,0004-00-0000-65.png,0002-00-0001-05.png
00000014,330,0,1448642247272,1448642247689,410,442,0,0,0,4,0,4,4,0004-00-0000-32.png,0001-00-0001-42.png
00000014,331,0,1448642250646,1448642251145,392,412,0,0,0,3,2,1,5,0002-00-0000-62.png,0003-00-0001-12.png
00000014,332,0,1448642254156,1448642254203,504,467,0,0,0,4,1,3,5,0004-00-0001-37.png,0005-00-0000-28.png
00000014,333,1,1448642257074,1448642257519,908,461,0,0,0,1,0,1,1,0005-00-0001-41.png,0001-00-0000-38.png
00000014,334,0,1448642258589,1448642259451,896,524,0,0,0,0,3,3,3,0001-00-0001-82.png,0002-00-0000-38.png
00000014,335,1,1448642262281,1448642262722,403,510,0,0,0,0,1,1,1,0001-00-0000-38.png,0005-00-0001-93.png
00000014,336,0,1448642263931,1448642264399,926,488,0,0,0,2,4,2,6,0003-00-0001-92.png,0004-00-0001-05.png
00000014,337,1,1448642267412,1448642267885,920,512,0,0,0,3,1,2,4,0002-00-0000-06.png,0005-00-0001-30.png
00000014,338,0,1448642268964,1448642269511,914,449,0,0,0,1,4,3,5,0005-00-0000-16.png,0004-00-0000-79.png
00000014,339,1,1448642272434,1448642272454,482,435,0,0,0,1,2,1,3,0005-00-0001-00.png,0003-00-0001-67.png
00000014,340,1,1448642274668,1448642275081,944,503,0,0,0,2,0,2,2,0003-00-0000-01.png,0001-00-0000-11.png
00000014,341,1,1448642276247,1448642276681,861,560,0,0,0,2,0,2,2,0003-00-0000-28.png,0001-00-0000-13.png
00000014,342,1,1448642277740,1448642278086,383,487,0,0,0,1,2,1,3,0005-00-0001-50.png,0003-00-0000-34.png
00000014,343,1,1448642279261,1448642279877,881,526,0,0,0,3,0,3,3,0002-00-0001-84.png,0001-00-0000-44.png
00000014,344,1,1448642281117,1448642281504,395,466,0,0,0,0,3,3,3,0001-00-0001-96.png,0002-00-0000-00.png
00000014,345,1,1448642282651,1448642283553,345,425,0,0,0,1,3,2,4,0005-00-0001-70.png,0002-00-0000-94.png
00000014,346,1,1448642285116,1448642285548,892,487,0,0,0,4,1,3,5,0004-00-0000-95.png,0005-00-0000-53.png
00000014,347,0,1448642286597,1448642287053,875,476,0,0,0,2,3,1,5,0003-00-0000-43.png,0002-00-0001-64.png
00000014,348,0,1448642289900,1448642290373,363,397,0,0,0,3,2,1,5,0002-00-0001-10.png,0003-00-0000-82.png
00000014,349,1,1448642293212,1448642293634,906,448,0,0,0,4,0,4,4,0004-00-0000-17.png,0001-00-0000-49.png
00000014,350,1,1448642294717,1448642295261,893,486,0,0,0,4,2,2,6,0004-00-0001-15.png,0003-00-0001-51.png
00000014,351,0,1448642296289,1448642296731,874,489,0,0,0,0,1,1,1,0001-00-0001-37.png,0005-00-0000-26.png
00000014,352,1,1448642300143,1448642300543,370,500,0,0,0,0,4,4,4,0001-00-0000-51.png,0004-00-0000-53.png
00000014,353,0,1448642301705,1448642302162,900,488,0,0,0,2,4,2,6,0003-00-0001-52.png,0004-00-0001-87.png
00000014,354,1,1448642305616,1448642306049,976,488,0,0,0,2,1,1,3,0003-00-0000-76.png,0005-00-0000-20.png
00000014,355,1,1448642307122,1448642307571,900,475,0,0,0,3,1,2,4,0002-00-0001-54.png,0005-00-0000-07.png
00000014,356,1,1448642308692,1448642309183,879,495,0,0,0,4,3,1,7,0004-00-0001-78.png,0002-00-0001-31.png
00000014,357,1,1448642310248,1448642310746,906,471,0,0,0,1,0,1,1,0005-00-0000-03.png,0001-00-0001-39.png
00000014,358,1,1448642311852,1448642312268,385,457,0,0,0,1,4,3,5,0005-00-0000-98.png,0004-00-0001-45.png
00000014,359,1,1448642313371,1448642313756,391,443,0,0,0,0,2,2,2,0001-00-0000-56.png,0003-00-0001-08.png
00000014,360,1,1448642314893,1448642315379,434,545,0,0,0,3,4,1,7,0002-00-0001-08.png,0004-00-0001-59.png
00000014,361,0,1448642316503,1448642317316,891,497,0,0,0,0,3,3,3,0001-00-0001-08.png,0002-00-0001-62.png
00000014,362,1,1448642320339,1448642320797,946,497,0,0,0,3,0,3,3,0002-00-0000-31.png,0001-00-0000-66.png
00000014,363,1,1448642321839,1448642322335,882,481,0,0,0,4,0,4,4,0004-00-0001-45.png,0001-00-0000-13.png
00000014,364,1,1448642323401,1448642323731,436,469,0,0,0,0,4,4,4,0001-00-0000-21.png,0004-00-0001-61.png
00000014,365,1,1448642324879,1448642325350,899,490,0,0,0,2,1,1,3,0003-00-0000-47.png,0005-00-0001-19.png
00000014,366,0,1448642326394,1448642326818,363,449,0,0,0,4,2,2,6,0004-00-0000-96.png,0003-00-0001-56.png
00000014,367,1,1448642330158,1448642330376,485,400,0,0,0,3,4,1,7,0002-00-0000-19.png,0004-00-0001-27.png
00000014,368,1,1448642331470,1448642331835,373,437,0,0,0,0,1,1,1,0001-00-0001-97.png,0005-00-0000-98.png
00000014,369,1,1448642332915,1448642333872,920,488,0,0,0,3,2,1,5,0002-00-0000-02.png,0003-00-0000-54.png
00000014,370,1,1448642334981,1448642335471,887,502,0,0,0,1,0,1,1,0005-00-0000-42.png,0001-00-0001-02.png
00000014,371,1,1448642336509,1448642336859,369,479,0,0,0,2,4,2,6,0003-00-0000-30.png,0004-00-0001-87.png
00000014,372,1,1448642337941,1448642338454,898,510,0,0,0,4,1,3,5,0004-00-0001-64.png,0005-00-0000-80.png
00000014,373,1,1448642339482,1448642339958,383,428,0,0,0,1,3,2,4,0005-00-0000-46.png,0002-00-0000-71.png
00000014,374,1,1448642341015,1448642341528,894,494,0,0,0,4,3,1,7,0004-00-0001-09.png,0002-00-0001-86.png
00000014,375,0,1448642342644,1448642343086,873,483,0,0,0,2,3,1,5,0003-00-0000-56.png,0002-00-0001-88.png
00000014,376,1,1448642346177,1448642346676,350,383,0,0,0,1,2,1,3,0005-00-0001-86.png,0003-00-0000-48.png
00000014,377,0,1448642347722,1448642348262,916,498,0,0,0,0,2,2,2,0001-00-0001-78.png,0003-00-0001-13.png
00000014,378,1,1448642351656,1448642352082,964,476,0,0,0,2,0,2,2,0003-00-0001-15.png,0001-00-0001-39.png
00000014,379,1,1448642353168,1448642353690,948,472,0,0,0,3,1,2,4,0002-00-0000-36.png,0005-00-0001-57.png
00000014,380,0,1448642354789,1448642355231,873,484,0,0,0,1,4,3,5,0005-00-0000-49.png,0004-00-0000-79.png
00000014,381,1,1448642358069,1448642358809,368,355,0,0,0,0,2,2,2,0001-00-0001-08.png,0003-00-0000-03.png
00000014,382,0,1448642359774,1448642360206,411,559,0,0,0,1,0,1,1,0005-00-0000-64.png,0001-00-0000-47.png
00000014,383,0,1448642363235,1448642363291,513,481,0,0,0,4,0,4,4,0004-00-0001-02.png,0001-00-0001-56.png
00000014,384,1,1448642366367,1448642366896,935,473,0,0,0,3,1,2,4,0002-00-0000-80.png,0005-00-0001-84.png
00000014,385,1,1448642367857,1448642368374,897,483,0,0,0,2,1,1,3,0003-00-0001-81.png,0005-00-0001-40.png
00000014,386,1,1448642369438,1448642370392,384,419,0,0,0,2,3,1,5,0003-00-0001-43.png,0002-00-0000-58.png
00000014,387,1,1448642371553,1448642371950,376,490,0,0,0,1,3,2,4,0005-00-0001-34.png,0002-00-0001-56.png
00000014,388,1,1448642373003,1448642373810,366,428,0,0,0,3,4,1,7,0002-00-0000-01.png,0004-00-0001-65.png
00000014,389,1,1448642374902,1448642375368,862,502,0,0,0,4,3,1,7,0004-00-0000-82.png,0002-00-0001-52.png
00000014,390,1,1448642376425,1448642376940,900,488,0,0,0,4,1,3,5,0004-00-0001-30.png,0005-00-0001-28.png
00000014,391,1,1448642377994,1448642378492,900,474,0,0,0,2,0,2,2,0003-00-0001-74.png,0001-00-0001-08.png
00000014,392,0,1448642379616,1448642380070,870,518,0,0,0,0,1,1,1,0001-00-0001-78.png,0005-00-0000-00.png
00000014,393,0,1448642383014,1448642383680,413,410,0,0,0,3,0,3,3,0002-00-0001-24.png,0001-00-0000-16.png
00000014,394,0,1448642386631,1448642387203,408,362,0,0,0,3,2,1,5,0002-00-0000-18.png,0003-00-0000-56.png
00000014,395,1,1448642390347,1448642390836,335,396,0,0,0,0,4,4,4,0001-00-0001-58.png,0004-00-0001-01.png
00000014,396,0,1448642391748,1448642392166,401,462,0,0,0,4,2,2,6,0004-00-0000-72.png,0003-00-0000-74.png
00000014,397,0,1448642395150,1448642395612,927,488,0,0,0,2,4,2,6,0003-00-0001-08.png,0004-00-0000-13.png
00000014,398,1,1448642398665,1448642399095,376,396,0,0,0,1,4,3,5,0005-00-0001-41.png,0004-00-0000-53.png
00000014,399,1,1448642400059,1448642400463,376,464,0,0,0,0,3,3,3,0001-00-0000-40.png,0002-00-0001-94.png
00000014,400,1,1448642401576,1448642402104,417,548,0,0,0,1,2,1,3,0005-00-0000-26.png,0003-00-0001-36.png
00000014,401,0,1448642403250,1448642403657,451,475,0,0,0,3,2,1,5,0002-00-0000-22.png,0003-00-0000-23.png
00000014,402,1,1448642406509,1448642406533,503,463,0,0,0,2,4,2,6,0003-00-0000-92.png,0004-00-0000-94.png
00000014,403,1,1448642407473,1448642407942,927,496,0,0,0,4,3,1,7,0004-00-0000-26.png,0002-00-0001-10.png
00000014,404,1,1448642408985,1448642409424,899,483,0,0,0,4,0,4,4,0004-00-0000-48.png,0001-00-0000-18.png
00000014,405,1,1448642410514,1448642410891,453,475,0,0,0,0,4,4,4,0001-00-0000-89.png,0004-00-0000-69.png
00000014,406,0,1448642412096,1448642412525,870,524,0,0,0,3,4,1,7,0002-00-0001-46.png,0004-00-0000-43.png
00000014,407,1,1448642415639,1448642416217,445,444,0,0,0,1,2,1,3,0005-00-0001-69.png,0003-00-0000-05.png
00000014,408,1,1448642417284,1448642417716,900,464,0,0,0,3,0,3,3,0002-00-0001-73.png,0001-00-0001-20.png
00000014,409,1,1448642418836,1448642419185,394,505,0,0,0,1,4,3,5,0005-00-0001-13.png,0004-00-0000-45.png
00000014,410,0,1448642420316,1448642420847,902,519,0,0,0,2,3,1,5,0003-00-0001-57.png,0002-00-0001-51.png
00000014,411,0,1448642423952,1448642424452,393,391,0,0,0,1,0,1,1,0005-00-0000-64.png,0001-00-0001-61.png
00000014,412,1,1448642427502,1448642428070,384,454,0,0,0,0,2,2,2,0001-00-0001-98.png,0003-00-0000-71.png
00000014,413,0,1448642429068,1448642429472,358,475,0,0,0,3,1,2,4,0002-00-0001-30.png,0005-00-0000-90.png
00000014,414,1,1448642432504,1448642433032,872,560,0,0,0,4,1,3,5,0004-00-0001-46.png,0005-00-0001-56.png
00000014,415,1,1448642434007,1448642434377,426,481,0,0,0,0,3,3,3,0001-00-0000-81.png,0002-00-0000-97.png
00000014,416,1,1448642435552,1448642436232,899,491,0,0,0,4,2,2,6,0004-00-0001-37.png,0003-00-0000-80.png
00000014,417,1,1448642437440,1448642437860,414,462,0,0,0,1,3,2,4,0005-00-0001-86.png,0002-00-0000-31.png
00000014,418,0,1448642438911,1448642439426,896,472,0,0,0,0,1,1,1,0001-00-0000-43.png,0005-00-0000-47.png
00000014,419,1,1448642442398,1448642442912,917,434,0,0,0,2,0,2,2,0003-00-0001-86.png,0001-00-0001-53.png
00000014,420,1,1448642443929,1448642444393,908,500,0,0,0,2,1,1,3,0003-00-0000-30.png,0005-00-0001-13.png
00000014,421,1,1448642445440,1448642445805,362,476,0,0,0,0,1,1,1,0001-00-0000-20.png,0005-00-0000-33.png
00000014,422,0,1448642446981,1448642447504,918,496,0,0,0,3,4,1,7,0002-00-0000-76.png,0004-00-0001-90.png
00000014,423,0,1448642450460,1448642451159,927,471,0,0,0,1,4,3,5,0005-00-0001-94.png,0004-00-0000-76.png
00000014,424,1,1448642454126,1448642454685,953,519,0,0,0,1,0,1,1,0005-00-0000-69.png,0001-00-0000-30.png
00000014,425,1,1448642455727,1448642456196,926,476,0,0,0,4,0,4,4,0004-00-0001-53.png,0001-00-0001-89.png
00000014,426,1,1448642457245,1448642457674,876,495,0,0,0,3,0,3,3,0002-00-0000-66.png,0001-00-0000-30.png
00000014,427,1,1448642458867,1448642459360,875,487,0,0,0,3,2,1,5,0002-00-0000-03.png,0003-00-0000-59.png
00000014,428,1,1448642460467,1448642460956,369,416,0,0,0,0,2,2,2,0001-00-0000-03.png,0003-00-0001-55.png
00000014,429,1,1448642462067,1448642462442,369,459,0,0,0,0,4,4,4,0001-00-0001-05.png,0004-00-0000-27.png
00000014,430,0,1448642463579,1448642464051,896,472,0,0,0,2,3,1,5,0003-00-0000-62.png,0002-00-0000-05.png
00000014,431,1,1448642467521,1448642468203,351,429,0,0,0,1,3,2,4,0005-00-0001-05.png,0002-00-0000-92.png
00000014,432,1,1448642469164,1448642469701,894,495,0,0,0,4,2,2,6,0004-00-0001-59.png,0003-00-0000-08.png
00000014,433,1,1448642470785,1448642471243,878,493,0,0,0,2,1,1,3,0003-00-0001-74.png,0005-00-0001-25.png
00000014,434,1,1448642472326,1448642472685,404,463,0,0,0,1,2,1,3,0005-00-0001-30.png,0003-00-0000-43.png
00000014,435,1,1448642473737,1448642474182,898,508,0,0,0,3,1,2,4,0002-00-0000-41.png,0005-00-0001-86.png
00000014,436,1,1448642475228,1448642475618,421,493,0,0,0,0,3,3,3,0001-00-0001-63.png,0002-00-0001-36.png
00000014,437,0,1448642476818,1448642477246,437,489,0,0,0,2,0,2,2,0003-00-0000-44.png,0001-00-0000-22.png
00000014,438,0,1448642480466,1448642480518,520,459,0,0,0,4,1,3,5,0004-00-0001-91.png,0005-00-0001-82.png
00000014,439,1,1448642483419,1448642483491,496,532,0,0,0,2,4,2,6,0003-00-0000-89.png,0004-00-0001-52.png
00000014,440,1,1448642484656,1448642485126,953,494,0,0,0,4,3,1,7,0004-00-0001-08.png,0002-00-0000-70.png
00000014,441,1,1448642486283,1448642486758,899,490,0,0,0,3,1,2,4,0002-00-0000-61.png,0005-00-0001-24.png
00000014,442,1,1448642487887,1448642488375,927,503,0,0,0,3,0,3,3,0002-00-0001-74.png,0001-00-0001-92.png
00000014,443,0,1448642489612,1448642490051,888,501,0,0,0,2,4,2,6,0003-00-0000-78.png,0004-00-0001-99.png
00000014,444,0,1448642493116,1448642493593,927,514,0,0,0,3,4,1,7,0002-00-0001-17.png,0004-00-0001-16.png
00000014,445,1,1448642496788,1448642497226,878,462,0,0,0,4,0,4,4,0004-00-0001-30.png,0001-00-0001-98.png
00000014,446,1,1448642498244,1448642498636,416,476,0,0,0,0,4,4,4,0001-00-0001-20.png,0004-00-0001-58.png
00000014,447,1,1448642499712,1448642500260,913,476,0,0,0,4,2,2,6,0004-00-0000-25.png,0003-00-0000-91.png
00000014,448,1,1448642501430,1448642501924,911,503,0,0,0,2,1,1,3,0003-00-0000-66.png,0005-00-0000-74.png
00000014,449,1,1448642503049,1448642503521,913,502,0,0,0,2,0,2,2,0003-00-0000-37.png,0001-00-0001-68.png
00000014,450,1,1448642504721,1448642505470,899,508,0,0,0,3,2,1,5,0002-00-0000-95.png,0003-00-0001-28.png
00000014,451,1,1448642506607,1448642507073,917,478,0,0,0,1,0,1,1,0005-00-0001-32.png,0001-00-0001-16.png
00000014,452,1,1448642508307,1448642508809,901,495,0,0,0,4,1,3,5,0004-00-0001-86.png,0005-00-0001-33.png
00000014,453,1,1448642509848,1448642510247,438,495,0,0,0,0,2,2,2,0001-00-0000-26.png,0003-00-0000-33.png
00000014,454,1,1448642511429,1448642511818,342,453,0,0,0,0,1,1,1,0001-00-0001-53.png,0005-00-0000-73.png
00000014,455,1,1448642513128,1448642513569,453,488,0,0,0,1,3,2,4,0005-00-0001-24.png,0002-00-0001-94.png
00000014,456,0,1448642514698,1448642515184,915,468,0,0,0,0,3,3,3,0001-00-0000-99.png,0002-00-0000-55.png
00000014,457,1,1448642518265,1448642518692,906,504,0,0,0,4,3,1,7,0004-00-0000-09.png,0002-00-0001-78.png
00000014,458,1,1448642519885,1448642520295,424,472,0,0,0,1,2,1,3,0005-00-0000-06.png,0003-00-0001-25.png
00000014,459,1,1448642521448,1448642521939,427,462,0,0,0,1,4,3,5,0005-00-0000-13.png,0004-00-0001-64.png
00000014,460,1,1448642523016,1448642523414,427,502,0,0,0,2,3,1,5,0003-00-0000-98.png,0002-00-0001-42.png
00000014,461,1,1448642524547,1448642525021,870,498,0,0,0,4,3,1,7,0004-00-0000-96.png,0002-00-0001-64.png
00000014,462,1,1448642526200,1448642526556,453,501,0,0,0,0,3,3,3,0001-00-0001-37.png,0002-00-0000-53.png
00000014,463,1,1448642527917,1448642528539,902,487,0,0,0,3,1,2,4,0002-00-0000-86.png,0005-00-0000-05.png
00000014,464,1,1448642529630,1448642530100,892,522,0,0,0,2,0,2,2,0003-00-0001-51.png,0001-00-0000-88.png
00000014,465,1,1448642531228,1448642531650,895,524,0,0,0,3,0,3,3,0002-00-0000-48.png,0001-00-0000-67.png
00000014,466,0,1448642532777,1448642533260,873,508,0,0,0,1,4,3,5,0005-00-0000-48.png,0004-00-0001-07.png
00000014,467,1,1448642536254,1448642536663,939,474,0,0,0,4,0,4,4,0004-00-0000-70.png,0001-00-0001-07.png
00000014,468,0,1448642537837,1448642538328,914,501,0,0,0,1,3,2,4,0005-00-0000-52.png,0002-00-0001-42.png
00000014,469,1,1448642541741,1448642542210,926,488,0,0,0,1,0,1,1,0005-00-0000-81.png,0001-00-0001-72.png
00000014,470,0,1448642543273,1448642543731,896,472,0,0,0,3,4,1,7,0002-00-0001-17.png,0004-00-0001-55.png
00000014,471,1,1448642546757,1448642547317,386,501,0,0,0,0,1,1,1,0001-00-0001-98.png,0005-00-0000-54.png
00000014,472,1,1448642548331,1448642548716,427,450,0,0,0,0,4,4,4,0001-00-0001-03.png,0004-00-0001-53.png
00000014,473,1,1448642549884,1448642550405,426,425,0,0,0,1,2,1,3,0005-00-0000-57.png,0003-00-0000-88.png
00000014,474,0,1448642551536,1448642552215,874,501,0,0,0,2,3,1,5,0003-00-0000-28.png,0002-00-0001-22.png
00000014,475,1,1448642555122,1448642555582,873,544,0,0,0,4,1,3,5,0004-00-0000-18.png,0005-00-0001-09.png
00000014,476,0,1448642556813,1448642557296,350,424,0,0,0,4,2,2,6,0004-00-0001-11.png,0003-00-0000-67.png
00000014,477,1,1448642560344,1448642560801,468,443,0,0,0,0,2,2,2,0001-00-0001-46.png,0003-00-0001-71.png
00000014,478,1,1448642561871,1448642562336,896,472,0,0,0,2,1,1,3,0003-00-0000-22.png,0005-00-0000-62.png
00000014,479,0,1448642563442,1448642563881,874,465,0,0,0,2,4,2,6,0003-00-0000-32.png,0004-00-0001-66.png
00000014,480,1,1448642566951,1448642567552,903,468,0,0,0,3,2,1,5,0002-00-0001-55.png,0003-00-0001-24.png
00000014,481,0,1448642568639,1448642569045,427,475,0,0,0,4,3,1,7,0004-00-0001-06.png,0002-00-0000-57.png
00000014,482,1,1448642572375,1448642573027,410,502,0,0,0,1,4,3,5,0005-00-0001-66.png,0004-00-0000-35.png
00000014,483,1,1448642574025,1448642574538,878,495,0,0,0,3,0,3,3,0002-00-0000-54.png,0001-00-0001-32.png
00000014,484,1,1448642575662,1448642576004,404,474,0,0,0,0,4,4,4,0001-00-0001-70.png,0004-00-0000-10.png
00000014,485,0,1448642577227,1448642577686,863,501,0,0,0,2,4,2,6,0003-00-0001-06.png,0004-00-0001-75.png
00000014,486,1,1448642580551,1448642580968,406,498,0,0,0,0,3,3,3,0001-00-0001-86.png,0002-00-0001-98.png
00000014,487,0,1448642581928,1448642582509,901,514,0,0,0,0,2,2,2,0001-00-0000-67.png,0003-00-0001-76.png
00000014,488,1,1448642585774,1448642586303,888,514,0,0,0,3,1,2,4,0002-00-0001-28.png,0005-00-0001-91.png
00000014,489,1,1448642587274,1448642587726,900,489,0,0,0,1,0,1,1,0005-00-0001-40.png,0001-00-0001-76.png
00000014,490,1,1448642588836,1448642589217,341,481,0,0,0,0,1,1,1,0001-00-0001-02.png,0005-00-0000-21.png
00000014,491,1,1448642590338,1448642590828,382,429,0,0,0,1,3,2,4,0005-00-0001-23.png,0002-00-0001-18.png
00000014,492,1,1448642591976,1448642592446,887,502,0,0,0,4,1,3,5,0004-00-0000-09.png,0005-00-0001-72.png
00000014,493,1,1448642593746,1448642594217,875,487,0,0,0,2,0,2,2,0003-00-0001-93.png,0001-00-0001-04.png
00000014,494,1,1448642595259,1448642595682,900,489,0,0,0,4,0,4,4,0004-00-0000-13.png,0001-00-0001-13.png
00000014,495,1,1448642596837,1448642597752,407,492,0,0,0,2,3,1,5,0003-00-0001-97.png,0002-00-0001-95.png
00000014,496,1,1448642598895,1448642599392,906,480,0,0,0,2,1,1,3,0003-00-0001-61.png,0005-00-0001-18.png
00000014,497,1,1448642600515,1448642600912,370,464,0,0,0,1,2,1,3,0005-00-0000-74.png,0003-00-0001-34.png
00000014,498,1,1448642601996,1448642602493,895,524,0,0,0,4,2,2,6,0004-00-0000-10.png,0003-00-0000-37.png
00000014,499,0,1448642603627,1448642604072,453,475,0,0,0,3,2,1,5,0002-00-0001-35.png,0003-00-0001-00.png
00000014,500,1,1448642606953,1448642607458,421,443,0,0,0,3,4,1,7,0002-00-0001-86.png,0004-00-0001-43.png
00000014,501,1,1448642608556,1448642609031,880,479,0,0,0,3,2,1,5,0002-00-0000-76.png,0003-00-0001-32.png
00000014,502,1,1448642610076,1448642610572,860,502,0,0,0,4,0,4,4,0004-00-0001-52.png,0001-00-0000-20.png
00000014,503,1,1448642611648,1448642612041,470,479,0,0,0,1,4,3,5,0005-00-0001-77.png,0004-00-0001-55.png
00000014,504,1,1448642613113,1448642613618,427,542,0,0,0,1,2,1,3,0005-00-0001-30.png,0003-00-0000-99.png
00000014,505,1,1448642614714,1448642615148,427,477,0,0,0,3,4,1,7,0002-00-0000-58.png,0004-00-0001-44.png
00000014,506,0,1448642616374,1448642616711,462,469,0,0,0,3,1,2,4,0002-00-0001-83.png,0005-00-0001-82.png
00000014,507,1,1448642619569,1448642620001,914,423,0,0,0,2,1,1,3,0003-00-0000-96.png,0005-00-0000-29.png
00000014,508,0,1448642621148,1448642621631,875,502,0,0,0,2,3,1,5,0003-00-0001-03.png,0002-00-0001-35.png
00000014,509,1,1448642624479,1448642624948,924,483,0,0,0,2,0,2,2,0003-00-0001-07.png,0001-00-0000-61.png
00000014,510,1,1448642625937,1448642626647,900,502,0,0,0,4,1,3,5,0004-00-0001-28.png,0005-00-0001-49.png
00000014,511,0,1448642627755,1448642628119,392,476,0,0,0,4,2,2,6,0004-00-0000-42.png,0003-00-0000-72.png
00000014,512,0,1448642631187,1448642631682,362,396,0,0,0,4,3,1,7,0004-00-0001-85.png,0002-00-0000-69.png
00000014,513,1,1448642634713,1448642635206,440,436,0,0,0,1,3,2,4,0005-00-0001-24.png,0002-00-0000-14.png
00000014,514,1,1448642636305,1448642636866,907,473,0,0,0,3,0,3,3,0002-00-0001-11.png,0001-00-0001-03.png
00000014,515,1,1448642637969,1448642638337,460,498,0,0,0,2,4,2,6,0003-00-0000-18.png,0004-00-0001-02.png
00000014,516,1,1448642639463,1448642639844,401,488,0,0,0,0,4,4,4,0001-00-0001-99.png,0004-00-0000-48.png
00000014,517,1,1448642641029,1448642641486,873,509,0,0,0,1,0,1,1,0005-00-0000-04.png,0001-00-0000-22.png
00000014,518,1,1448642642607,1448642642987,465,502,0,0,0,0,2,2,2,0001-00-0000-01.png,0003-00-0000-95.png
00000014,519,0,1448642644174,1448642645002,874,515,0,0,0,0,1,1,1,0001-00-0000-34.png,0005-00-0000-01.png
00000014,520,1,1448642648348,1448642648867,356,400,0,0,0,0,3,3,3,0001-00-0001-15.png,0002-00-0001-40.png
00000014,521,1,1448642649827,1448642650235,414,462,0,0,0,0,2,2,2,0001-00-0001-27.png,0003-00-0000-12.png
00000014,522,0,1448642651422,1448642651847,876,477,0,0,0,2,3,1,5,0003-00-0000-72.png,0002-00-0000-29.png
00000014,523,0,1448642654860,1448642655469,939,501,0,0,0,0,1,1,1,0001-00-0001-47.png,0005-00-0001-86.png
00000014,524,0,1448642658717,1448642659240,953,469,0,0,0,1,3,2,4,0005-00-0001-66.png,0002-00-0000-69.png
00000014,525,0,1448642662200,1448642662250,454,417,0,0,0,4,3,1,7,0004-00-0001-45.png,0002-00-0001-78.png
00000014,526,1,1448642665545,1448642666020,381,515,0,0,0,1,4,3,5,0005-00-0000-24.png,0004-00-0000-60.png
00000014,527,1,1448642667077,1448642667488,318,452,0,0,0,0,3,3,3,0001-00-0000-62.png,0002-00-0000-12.png
00000014,528,1,1448642668557,1448642669099,938,502,0,0,0,1,0,1,1,0005-00-0000-11.png,0001-00-0000-11.png
00000014,529,1,1448642670180,1448642670742,396,438,0,0,0,1,2,1,3,0005-00-0001-19.png,0003-00-0000-73.png
00000014,530,1,1448642671855,1448642672735,383,396,0,0,0,3,4,1,7,0002-00-0001-18.png,0004-00-0001-52.png
00000014,531,0,1448642673825,1448642674279,388,468,0,0,0,3,1,2,4,0002-00-0001-87.png,0005-00-0001-47.png
00000014,532,1,1448642677589,1448642678000,953,493,0,0,0,2,0,2,2,0003-00-0001-86.png,0001-00-0000-39.png
00000014,533,0,1448642678992,1448642679334,453,481,0,0,0,3,0,3,3,0002-00-0000-71.png,0001-00-0001-01.png
00000014,534,0,1448642682368,1448642682975,883,565,0,0,0,2,4,2,6,0003-00-0001-12.png,0004-00-0001-84.png
00000014,535,1,1448642686170,1448642686598,895,550,0,0,0,4,1,3,5,0004-00-0001-74.png,0005-00-0001-18.png
00000014,536,1,1448642687608,1448642688102,879,480,0,0,0,4,2,2,6,0004-00-0001-35.png,0003-00-0000-36.png
00000014,537,1,1448642689181,1448642689554,388,484,0,0,0,0,4,4,4,0001-00-0000-55.png,0004-00-0001-80.png
00000014,538,1,1448642690652,1448642691071,874,515,0,0,0,3,2,1,5,0002-00-0001-75.png,0003-00-0000-58.png
00000014,539,1,1448642692210,1448642692667,905,480,0,0,0,4,0,4,4,0004-00-0000-09.png,0001-00-0000-46.png
00000014,540,1,1448642693842,1448642694314,905,480,0,0,0,2,1,1,3,0003-00-0000-50.png,0005-00-0000-54.png
00000014,541,1,1448642695354,1448642695828,891,497,0,0,0,2,0,2,2,0003-00-0000-36.png,0001-00-0001-00.png
00000014,542,1,1448642696914,1448642697288,376,462,0,0,0,0,1,1,1,0001-00-0001-38.png,0005-00-0000-62.png
00000014,543,1,1448642698393,1448642698778,442,469,0,0,0,0,3,3,3,0001-00-0000-04.png,0002-00-0000-88.png
00000014,544,1,1448642700004,1448642700557,887,528,0,0,0,4,0,4,4,0004-00-0001-17.png,0001-00-0000-59.png
00000014,545,1,1448642701653,1448642702047,427,501,0,0,0,2,4,2,6,0003-00-0000-88.png,0004-00-0001-53.png
00000014,546,1,1448642703145,1448642703559,414,474,0,0,0,1,3,2,4,0005-00-0001-12.png,0002-00-0001-15.png
00000014,547,1,1448642704666,1448642705182,895,497,0,0,0,4,1,3,5,0004-00-0000-78.png,0005-00-0000-89.png
00000014,548,1,1448642706347,1448642706767,874,490,0,0,0,2,1,1,3,0003-00-0000-67.png,0005-00-0001-52.png
00000014,549,0,1448642707906,1448642708280,460,524,0,0,0,3,2,1,5,0002-00-0001-35.png,0003-00-0001-78.png
00000014,550,1,1448642711232,1448642711663,426,443,0,0,0,0,2,2,2,0001-00-0000-63.png,0003-00-0000-80.png
00000014,551,1,1448642712729,1448642713101,389,501,0,0,0,3,4,1,7,0002-00-0001-13.png,0004-00-0001-58.png
00000014,552,1,1448642714360,1448642714829,905,480,0,0,0,3,0,3,3,0002-00-0000-74.png,0001-00-0000-14.png
00000014,553,1,1448642716020,1448642716441,390,502,0,0,0,0,4,4,4,0001-00-0001-04.png,0004-00-0001-39.png
00000014,554,0,1448642717609,1448642718088,873,534,0,0,0,2,3,1,5,0003-00-0000-48.png,0002-00-0001-14.png
00000014,555,1,1448642721206,1448642721659,941,518,0,0,0,4,2,2,6,0004-00-0001-62.png,0003-00-0001-35.png
00000014,556,1,1448642722834,1448642723230,344,478,0,0,0,1,2,1,3,0005-00-0000-68.png,0003-00-0001-86.png
00000014,557,1,1448642724488,1448642724964,861,502,0,0,0,4,3,1,7,0004-00-0000-41.png,0002-00-0000-01.png
00000014,558,1,1448642726086,1448642726540,891,513,0,0,0,1,0,1,1,0005-00-0001-19.png,0001-00-0000-41.png
00000014,559,1,1448642727717,1448642728673,898,483,0,0,0,3,1,2,4,0002-00-0000-44.png,0005-00-0000-83.png
00000014,560,1,1448642729754,1448642730157,407,487,0,0,0,1,4,3,5,0005-00-0001-32.png,0004-00-0000-86.png
00000014,561,0,1448642731394,1448642732262,905,479,0,0,0,0,1,1,1,0001-00-0001-96.png,0005-00-0000-52.png
00000014,562,0,1448642735208,1448642735743,428,444,0,0,0,4,3,1,7,0004-00-0000-81.png,0002-00-0001-47.png
00000014,563,0,1448642738978,1448642739503,954,519,0,0,0,0,3,3,3,0001-00-0001-51.png,0002-00-0001-34.png
00000014,564,1,1448642742492,1448642742949,900,426,0,0,0,2,0,2,2,0003-00-0001-20.png,0001-00-0001-28.png
00000014,565,0,1448642744033,1448642744531,924,511,0,0,0,1,3,2,4,0005-00-0001-15.png,0002-00-0001-63.png
00000014,566,0,1448642747354,1448642747988,965,466,0,0,0,2,3,1,5,0003-00-0001-24.png,0002-00-0000-42.png
00000014,567,1,1448642750877,1448642751339,427,436,0,0,0,0,4,4,4,0001-00-0000-58.png,0004-00-0001-96.png
00000014,568,1,1448642752465,1448642752954,899,501,0,0,0,4,1,3,5,0004-00-0000-62.png,0005-00-0000-08.png
00000014,569,1,1448642754032,1448642754504,901,513,0,0,0,3,1,2,4,0002-00-0000-79.png,0005-00-0000-69.png
00000014,570,0,1448642755645,1448642756040,397,493,0,0,0,3,2,1,5,0002-00-0001-97.png,0003-00-0001-99.png
00000014,571,0,1448642759124,1448642759595,931,510,0,0,0,3,4,1,7,0002-00-0001-03.png,0004-00-0000-37.png
00000014,572,1,1448642763051,1448642763194,442,553,0,0,0,1,2,1,3,0005-00-0000-70.png,0003-00-0001-42.png
00000014,573,1,1448642764279,1448642764712,902,493,0,0,0,4,0,4,4,0004-00-0000-76.png,0001-00-0001-62.png
00000014,574,1,1448642765814,1448642766276,905,485,0,0,0,4,2,2,6,0004-00-0001-39.png,0003-00-0000-76.png
00000014,575,1,1448642767394,1448642767864,905,486,0,0,0,3,0,3,3,0002-00-0001-55.png,0001-00-0001-38.png
00000014,576,1,1448642768935,1448642769409,876,480,0,0,0,2,1,1,3,0003-00-0000-84.png,0005-00-0001-49.png
00000014,577,0,1448642770747,1448642771216,874,464,0,0,0,2,4,2,6,0003-00-0000-96.png,0004-00-0000-25.png
00000014,578,1,1448642774349,1448642774875,358,419,0,0,0,1,4,3,5,0005-00-0001-96.png,0004-00-0000-63.png
00000014,579,1,1448642776080,1448642776604,900,514,0,0,0,1,0,1,1,0005-00-0000-84.png,0001-00-0001-23.png
00000014,580,1,1448642777666,1448642778011,376,486,0,0,0,0,2,2,2,0001-00-0000-89.png,0003-00-0001-76.png
00000014,581,0,1448642779223,1448642779684,863,501,0,0,0,2,4,2,6,0003-00-0000-19.png,0004-00-0000-43.png
00000014,582,1,1448642782641,1448642783107,887,555,0,0,0,2,0,2,2,0003-00-0000-61.png,0001-00-0001-77.png
00000014,583,1,1448642784257,1448642784897,407,388,0,0,0,0,1,1,1,0001-00-0001-39.png,0005-00-0001-81.png
00000014,584,0,1448642785903,1448642786360,883,512,0,0,0,1,3,2,4,0005-00-0001-60.png,0002-00-0000-76.png
00000014,585,1,1448642789280,1448642789727,893,548,0,0,0,1,0,1,1,0005-00-0000-88.png,0001-00-0000-70.png
00000014,586,0,1448642790722,1448642791062,465,501,0,0,0,2,1,1,3,0003-00-0001-36.png,0005-00-0001-70.png
00000014,587,1,1448642793999,1448642794403,383,393,0,0,0,0,2,2,2,0001-00-0001-84.png,0003-00-0001-86.png
00000014,588,1,1448642795485,1448642795867,387,488,0,0,0,1,2,1,3,0005-00-0001-40.png,0003-00-0000-91.png
00000014,589,1,1448642797037,1448642797558,873,509,0,0,0,4,3,1,7,0004-00-0000-14.png,0002-00-0001-40.png
00000014,590,0,1448642798636,1448642799598,889,497,0,0,0,2,3,1,5,0003-00-0001-07.png,0002-00-0001-64.png
00000014,591,1,1448642802665,1448642803154,951,475,0,0,0,3,1,2,4,0002-00-0000-51.png,0005-00-0001-22.png
00000014,592,0,1448642804232,1448642804703,899,464,0,0,0,1,4,3,5,0005-00-0000-82.png,0004-00-0001-95.png
00000014,593,1,1448642807668,1448642808147,424,480,0,0,0,0,3,3,3,0001-00-0000-37.png,0002-00-0001-84.png
00000014,594,1,1448642809221,1448642809699,877,521,0,0,0,3,2,1,5,0002-00-0000-28.png,0003-00-0001-41.png
00000014,595,1,1448642810820,1448642811313,905,467,0,0,0,4,2,2,6,0004-00-0001-16.png,0003-00-0000-99.png
00000014,596,1,1448642812402,1448642812849,401,462,0,0,0,0,4,4,4,0001-00-0000-80.png,0004-00-0000-24.png
00000014,597,1,1448642814100,1448642814522,874,490,0,0,0,4,0,4,4,0004-00-0001-36.png,0001-00-0000-34.png
00000014,598,1,1448642815623,1448642816057,469,454,0,0,0,3,4,1,7,0002-00-0000-25.png,0004-00-0000-53.png
00000014,599,1,1448642817212,1448642817655,893,468,0,0,0,3,0,3,3,0002-00-0000-60.png,0001-00-0001-76.png
00000014,600,1,1448642818803,1448642819449,875,540,0,0,0,4,1,3,5,0004-00-0000-61.png,0005-00-0000-66.png
00000014,601,1,1448642820661,1448642821313,407,445,0,0,0,1,4,3,5,0005-00-0001-72.png,0004-00-0000-74.png
00000014,602,1,1448642822446,1448642822921,893,497,0,0,0,4,1,3,5,0004-00-0001-37.png,0005-00-0001-12.png
00000014,603,1,1448642824033,1448642824482,872,511,0,0,0,3,2,1,5,0002-00-0001-10.png,0003-00-0000-99.png
00000014,604,1,1448642825603,1448642825957,369,480,0,0,0,0,1,1,1,0001-00-0001-81.png,0005-00-0000-23.png
00000014,605,1,1448642827146,1448642827490,440,488,0,0,0,0,3,3,3,0001-00-0000-12.png,0002-00-0000-91.png
00000014,606,1,1448642828624,1448642829083,893,511,0,0,0,4,3,1,7,0004-00-0000-72.png,0002-00-0001-33.png
00000014,607,1,1448642830174,1448642830616,367,472,0,0,0,0,4,4,4,0001-00-0000-50.png,0004-00-0000-51.png
00000014,608,0,1448642831762,1448642832775,922,524,0,0,0,1,2,1,3,0005-00-0001-49.png,0003-00-0001-07.png
00000014,609,0,1448642836316,1448642836793,913,502,0,0,0,2,3,1,5,0003-00-0001-38.png,0002-00-0000-32.png
00000014,610,0,1448642839779,1448642840299,447,492,0,0,0,3,0,3,3,0002-00-0001-80.png,0001-00-0001-97.png
00000014,611,1,1448642843340,1448642843775,897,418,0,0,0,2,1,1,3,0003-00-0000-10.png,0005-00-0001-89.png
00000014,612,0,1448642844833,1448642845347,921,472,0,0,0,1,3,2,4,0005-00-0001-31.png,0002-00-0000-85.png
00000014,613,1,1448642848330,1448642848865,926,475,0,0,0,4,2,2,6,0004-00-0000-43.png,0003-00-0000-76.png
00000014,614,1,1448642850031,1448642850493,866,492,0,0,0,1,0,1,1,0005-00-0001-47.png,0001-00-0000-21.png
00000014,615,0,1448642851660,1448642852318,900,515,0,0,0,3,4,1,7,0002-00-0001-42.png,0004-00-0001-04.png
00000014,616,1,1448642855685,1448642856112,384,391,0,0,0,0,2,2,2,0001-00-0001-70.png,0003-00-0001-62.png
00000014,617,1,1448642857199,1448642857700,903,496,0,0,0,4,0,4,4,0004-00-0001-24.png,0001-00-0000-65.png
00000014,618,0,1448642858789,1448642859283,899,491,0,0,0,2,4,2,6,0003-00-0000-04.png,0004-00-0000-54.png
00000014,619,1,1448642862142,1448642862739,903,431,0,0,0,3,1,2,4,0002-00-0001-96.png,0005-00-0000-62.png
00000014,620,1,1448642863907,1448642864381,907,487,0,0,0,2,0,2,2,0003-00-0000-53.png,0001-00-0001-81.png
00000014,621,1,1448642865516,1448642865978,874,514,0,0,0,4,3,1,7,0004-00-0001-62.png,0002-00-0001-97.png
00000014,622,1,1448642867125,1448642867614,878,495,0,0,0,2,1,1,3,0003-00-0001-49.png,0005-00-0000-70.png
00000014,623,1,1448642868759,1448642869234,874,490,0,0,0,3,2,1,5,0002-00-0001-48.png,0003-00-0001-90.png
00000014,624,1,1448642870340,1448642871251,422,435,0,0,0,2,3,1,5,0003-00-0000-23.png,0002-00-0001-52.png
00000014,625,0,1448642872418,1448642872895,864,501,0,0,0,2,4,2,6,0003-00-0000-93.png,0004-00-0000-74.png
00000014,626,0,1448642875805,1448642875845,504,436,0,0,0,2,0,2,2,0003-00-0000-14.png,0001-00-0001-44.png
00000014,627,0,1448642878715,1448642878743,518,451,0,0,0,1,0,1,1,0005-00-0000-61.png,0001-00-0000-71.png
00000014,628,1,1448642881756,1448642882156,417,441,0,0,0,0,3,3,3,0001-00-0000-51.png,0002-00-0000-07.png
00000014,629,1,1448642883220,1448642883693,888,534,0,0,0,4,1,3,5,0004-00-0001-93.png,0005-00-0001-37.png
00000014,630,1,1448642884729,1448642885134,394,487,0,0,0,1,4,3,5,0005-00-0001-79.png,0004-00-0001-70.png
00000014,631,1,1448642886452,1448642886891,362,450,0,0,0,1,2,1,3,0005-00-0000-42.png,0003-00-0001-99.png
00000014,632,1,1448642888038,1448642888383,414,475,0,0,0,0,4,4,4,0001-00-0000-45.png,0004-00-0000-45.png
00000014,633,1,1448642889541,1448642889991,902,494,0,0,0,3,0,3,3,0002-00-0001-15.png,0001-00-0000-66.png
00000014,634,0,1448642891129,1448642891627,875,456,0,0,0,0,1,1,1,0001-00-0001-04.png,0005-00-0001-66.png
00000014,635,0,1448642894598,1448642895126,921,498,0,0,0,1,3,2,4,0005-00-0000-26.png,0002-00-0000-19.png
00000014,636,0,1448642897997,1448642898419,934,474,0,0,0,0,2,2,2,0001-00-0000-88.png,0003-00-0001-59.png
00000014,637,0,1448642901468,1448642901542,517,535,0,0,0,4,2,2,6,0004-00-0000-90.png,0003-00-0000-29.png
00000014,638,1,1448642904566,1448642904999,388,409,0,0,0,3,4,1,7,0002-00-0000-16.png,0004-00-0001-31.png
00000014,639,1,1448642906068,1448642906522,862,423,0,0,0,4,0,4,4,0004-00-0001-17.png,0001-00-0001-01.png
00000014,640,0,1448642907520,1448642907892,443,466,0,0,0,3,1,2,4,0002-00-0000-23.png,0005-00-0001-80.png
00000014,641,0,1448642910988,1448642911485,960,510,0,0,0,2,3,1,5,0003-00-0000-52.png,0002-00-0000-19.png
00000014,642,1,1448642914314,1448642914791,879,479,0,0,0,4,1,3,5,0004-00-0001-14.png,0005-00-0000-91.png
00000014,643,0,1448642915908,1448642916537,899,535,0,0,0,1,3,2,4,0005-00-0001-94.png,0002-00-0000-67.png
00000014,644,1,1448642919948,1448642920386,951,463,0,0,0,3,0,3,3,0002-00-0001-64.png,0001-00-0001-34.png
00000014,645,1,1448642921384,1448642921759,444,481,0,0,0,3,4,1,7,0002-00-0000-95.png,0004-00-0001-60.png
00000014,646,0,1448642922855,1448642923186,432,483,0,0,0,4,0,4,4,0004-00-0001-78.png,0001-00-0001-41.png
00000014,647,0,1448642926053,1448642926473,906,460,0,0,0,0,4,4,4,0001-00-0000-59.png,0004-00-0000-79.png
00000014,648,1,1448642929409,1448642929895,342,401,0,0,0,0,1,1,1,0001-00-0000-11.png,0005-00-0001-59.png
00000014,649,1,1448642930923,1448642931276,367,453,0,0,0,1,2,1,3,0005-00-0000-56.png,0003-00-0001-05.png
00000014,650,1,1448642932391,1448642932819,453,475,0,0,0,1,4,3,5,0005-00-0000-13.png,0004-00-0000-54.png
00000014,651,1,1448642933876,1448642934391,926,463,0,0,0,2,0,2,2,0003-00-0001-88.png,0001-00-0000-73.png
00000014,652,0,1448642935447,1448642935850,444,454,0,0,0,4,2,2,6,0004-00-0001-74.png,0003-00-0001-41.png
00000014,653,1,1448642938762,1448642939436,926,528,0,0,0,3,2,1,5,0002-00-0000-12.png,0003-00-0000-78.png
00000014,654,1,1448642940556,1448642941006,894,480,0,0,0,2,1,1,3,0003-00-0001-96.png,0005-00-0000-40.png
00000014,655,0,1448642942077,1448642942634,902,495,0,0,0,2,4,2,6,0003-00-0001-40.png,0004-00-0000-24.png
00000014,656,1,1448642945834,1448642946321,440,477,0,0,0,0,2,2,2,0001-00-0001-03.png,0003-00-0000-25.png
00000014,657,0,1448642947382,1448642947755,453,488,0,0,0,1,0,1,1,0005-00-0001-69.png,0001-00-0000-34.png
00000014,658,0,1448642951109,1448642951717,910,496,0,0,0,0,3,3,3,0001-00-0000-14.png,0002-00-0000-97.png
00000014,659,0,1448642954667,1448642954699,506,444,0,0,0,4,3,1,7,0004-00-0001-59.png,0002-00-0000-48.png
00000014,660,0,1448642957675,1448642957715,514,462,0,0,0,3,1,2,4,0002-00-0000-90.png,0005-00-0000-76.png
00000014,661,1,1448642960697,1448642961345,868,408,0,0,0,4,1,3,5,0004-00-0001-89.png,0005-00-0001-54.png
00000014,662,0,1448642962381,1448642962842,907,501,0,0,0,2,4,2,6,0003-00-0000-40.png,0004-00-0000-72.png
00000014,663,0,1448642965969,1448642966465,439,424,0,0,0,3,2,1,5,0002-00-0001-38.png,0003-00-0000-91.png
00000014,664,1,1448642969365,1448642969783,901,494,0,0,0,3,0,3,3,0002-00-0001-10.png,0001-00-0000-95.png
00000014,665,1,1448642970834,1448642971353,390,405,0,0,0,1,2,1,3,0005-00-0001-58.png,0003-00-0001-10.png
00000014,666,1,1448642972493,1448642972850,399,446,0,0,0,1,4,3,5,0005-00-0000-73.png,0004-00-0000-04.png
00000014,667,1,1448642973959,1448642974375,900,464,0,0,0,2,1,1,3,0003-00-0000-91.png,0005-00-0000-51.png
00000014,668,1,1448642975451,1448642975820,385,491,0,0,0,0,4,4,4,0001-00-0001-20.png,0004-00-0001-79.png
00000014,669,1,1448642977040,1448642977712,359,431,0,0,0,3,4,1,7,0002-00-0000-22.png,0004-00-0000-82.png
00000014,670,1,1448642978769,1448642979374,394,433,0,0,0,1,3,2,4,0005-00-0000-56.png,0002-00-0001-25.png
00000014,671,1,1448642980520,1448642980923,391,494,0,0,0,0,3,3,3,0001-00-0001-02.png,0002-00-0001-49.png
00000014,672,0,1448642982030,1448642982360,376,476,0,0,0,4,3,1,7,0004-00-0000-00.png,0002-00-0000-23.png
00000014,673,1,1448642985409,1448642985851,938,487,0,0,0,1,0,1,1,0005-00-0001-31.png,0001-00-0000-37.png
00000014,674,1,1448642987059,1448642987515,881,515,0,0,0,3,1,2,4,0002-00-0000-06.png,0005-00-0001-13.png
00000014,675,1,1448642988581,1448642989020,925,515,0,0,0,2,0,2,2,0003-00-0001-43.png,0001-00-0000-81.png
00000014,676,0,1448642990202,1448642990630,421,524,0,0,0,4,0,4,4,0004-00-0000-15.png,0001-00-0001-43.png
00000014,677,1,1448642993665,1448642994253,389,396,0,0,0,2,3,1,5,0003-00-0000-75.png,0002-00-0001-81.png
00000014,678,1,1448642995236,1448642995650,358,497,0,0,0,0,2,2,2,0001-00-0000-75.png,0003-00-0001-76.png
00000014,679,0,1448642996730,1448642997146,415,503,0,0,0,4,2,2,6,0004-00-0001-82.png,0003-00-0001-37.png
00000014,680,1,1448643000255,1448643000709,453,398,0,0,0,0,1,1,1,0001-00-0001-90.png,0005-00-0000-92.png
00000014,681,1,1448643001898,1448643002373,901,502,0,0,0,3,0,3,3,0002-00-0000-37.png,0001-00-0001-25.png
00000014,682,1,1448643003399,1448643003794,419,478,0,0,0,0,4,4,4,0001-00-0001-35.png,0004-00-0001-92.png
00000014,683,0,1448643004929,1448643005537,914,528,0,0,0,2,4,2,6,0003-00-0001-25.png,0004-00-0001-81.png
00000014,684,1,1448643008403,1448643008872,924,430,0,0,0,1,0,1,1,0005-00-0000-55.png,0001-00-0000-16.png
00000014,685,1,1448643009961,1448643010580,417,559,0,0,0,1,3,2,4,0005-00-0000-53.png,0002-00-0000-44.png
00000014,686,0,1448643011739,1448643012150,419,465,0,0,0,4,2,2,6,0004-00-0000-88.png,0003-00-0001-14.png
00000014,687,0,1448643015216,1448643015236,523,443,0,0,0,2,0,2,2,0003-00-0000-41.png,0001-00-0001-45.png
00000014,688,1,1448643018495,1448643018934,896,461,0,0,0,3,1,2,4,0002-00-0001-82.png,0005-00-0000-93.png
00000014,689,1,1448643020018,1448643020439,879,480,0,0,0,4,0,4,4,0004-00-0000-05.png,0001-00-0000-89.png
00000014,690,0,1448643021566,1448643021942,462,485,0,0,0,4,3,1,7,0004-00-0001-42.png,0002-00-0001-98.png
00000014,691,0,1448643024865,1448643025275,940,449,0,0,0,0,1,1,1,0001-00-0001-25.png,0005-00-0000-69.png
00000014,692,1,1448643028280,1448643028785,420,397,0,0,0,1,2,1,3,0005-00-0000-82.png,0003-00-0001-88.png
00000014,693,1,1448643029868,1448643030298,374,492,0,0,0,3,4,1,7,0002-00-0000-52.png,0004-00-0001-22.png
00000014,694,1,1448643031401,1448643031837,879,531,0,0,0,4,1,3,5,0004-00-0000-94.png,0005-00-0000-87.png
00000014,695,0,1448643032979,1448643033314,409,520,0,0,0,3,2,1,5,0002-00-0000-56.png,0003-00-0001-06.png
00000014,696,1,1448643036459,1448643037011,950,533,0,0,0,2,1,1,3,0003-00-0001-45.png,0005-00-0001-95.png
00000014,697,1,1448643038138,1448643038519,417,495,0,0,0,1,4,3,5,0005-00-0001-48.png,0004-00-0000-70.png
00000014,698,1,1448643039618,1448643040004,386,488,0,0,0,0,2,2,2,0001-00-0001-70.png,0003-00-0000-31.png
00000014,699,1,1448643041163,1448643041534,453,488,0,0,0,0,3,3,3,0001-00-0000-33.png,0002-00-0000-14.png
00000014,700,0,1448643042750,1448643043492,901,528,0,0,0,2,3,1,5,0003-00-0001-71.png,0002-00-0001-02.png
00000014,701,1,1448643046655,1448643047121,875,449,0,0,0,1,0,1,1,0005-00-0000-91.png,0001-00-0000-14.png
00000014,702,1,1448643048275,1448643048701,879,506,0,0,0,2,1,1,3,0003-00-0000-76.png,0005-00-0000-54.png
00000014,703,1,1448643049963,1448643050447,933,500,0,0,0,3,1,2,4,0002-00-0000-28.png,0005-00-0000-13.png
00000014,704,0,1448643051591,1448643052062,872,508,0,0,0,2,4,2,6,0003-00-0000-82.png,0004-00-0001-62.png
00000014,705,1,1448643055213,1448643055740,924,491,0,0,0,4,0,4,4,0004-00-0001-77.png,0001-00-0001-60.png
00000014,706,0,1448643056856,1448643057222,434,478,0,0,0,3,2,1,5,0002-00-0000-95.png,0003-00-0000-49.png
00000014,707,1,1448643060099,1448643060166,504,505,0,0,0,1,2,1,3,0005-00-0000-07.png,0003-00-0001-16.png
00000014,708,1,1448643061210,1448643061747,381,443,0,0,0,1,4,3,5,0005-00-0001-43.png,0004-00-0000-80.png
00000014,709,1,1448643062866,1448643063326,902,495,0,0,0,2,0,2,2,0003-00-0001-08.png,0001-00-0001-42.png
00000014,710,1,1448643064377,1448643064698,471,480,0,0,0,2,3,1,5,0003-00-0001-36.png,0002-00-0000-45.png
00000014,711,0,1448643065908,1448643066258,433,464,0,0,0,4,2,2,6,0004-00-0000-16.png,0003-00-0001-05.png
00000014,712,1,1448643069306,1448643069754,925,501,0,0,0,4,3,1,7,0004-00-0000-35.png,0002-00-0001-22.png
00000014,713,1,1448643070936,1448643071435,901,501,0,0,0,3,0,3,3,0002-00-0001-35.png,0001-00-0000-50.png
00000014,714,1,1448643072501,1448643072866,356,488,0,0,0,0,2,2,2,0001-00-0000-69.png,0003-00-0001-39.png
00000014,715,1,1448643074069,1448643074454,406,466,0,0,0,0,4,4,4,0001-00-0000-63.png,0004-00-0000-38.png
00000014,716,1,1448643075798,1448643076197,406,489,0,0,0,1,3,2,4,0005-00-0001-72.png,0002-00-0000-36.png
00000014,717,1,1448643077311,1448643077791,911,503,0,0,0,4,1,3,5,0004-00-0001-67.png,0005-00-0001-55.png
00000014,718,0,1448643078940,1448643079539,899,542,0,0,0,3,4,1,7,0002-00-0001-98.png,0004-00-0000-10.png
00000014,719,1,1448643082565,1448643083031,385,453,0,0,0,0,3,3,3,0001-00-0001-49.png,0002-00-0000-59.png
00000014,720,1,1448643084256,1448643084679,378,441,0,0,0,0,1,1,1,0001-00-0001-34.png,0005-00-0001-95.png
00000014,721,1,1448643085816,1448643086198,350,527,0,0,0,0,2,2,2,0001-00-0001-75.png,0003-00-0001-29.png
00000014,722,0,1448643087348,1448643087759,901,502,0,0,0,1,4,3,5,0005-00-0001-50.png,0004-00-0000-37.png
00000014,723,0,1448643090620,1448643091112,942,518,0,0,0,2,3,1,5,0003-00-0001-40.png,0002-00-0001-25.png
00000014,724,0,1448643094096,1448643094531,948,469,0,0,0,2,4,2,6,0003-00-0000-22.png,0004-00-0001-15.png
00000014,725,1,1448643097712,1448643098145,359,407,0,0,0,0,3,3,3,0001-00-0001-86.png,0002-00-0000-36.png
00000014,726,0,1448643099401,1448643100167,347,375,0,0,0,4,2,2,6,0004-00-0001-46.png,0003-00-0000-47.png
00000014,727,0,1448643103367,1448643104002,907,495,0,0,0,3,4,1,7,0002-00-0000-76.png,0004-00-0001-03.png
00000014,728,1,1448643106966,1448643107463,453,410,0,0,0,1,2,1,3,0005-00-0001-05.png,0003-00-0001-75.png
00000014,729,1,1448643108518,1448643109018,926,501,0,0,0,4,3,1,7,0004-00-0000-69.png,0002-00-0001-35.png
00000014,730,0,1448643110117,1448643110509,445,532,0,0,0,3,2,1,5,0002-00-0000-15.png,0003-00-0001-50.png
00000014,731,0,1448643113366,1448643114019,423,402,0,0,0,4,0,4,4,0004-00-0000-78.png,0001-00-0000-92.png
00000014,732,1,1448643116845,1448643117397,376,425,0,0,0,0,1,1,1,0001-00-0000-91.png,0005-00-0001-54.png
00000014,733,1,1448643118545,1448643118986,862,436,0,0,0,2,1,1,3,0003-00-0001-47.png,0005-00-0001-90.png
00000014,734,0,1448643120236,1448643120718,900,489,0,0,0,0,4,4,4,0001-00-0000-53.png,0004-00-0001-54.png
00000014,735,1,1448643123731,1448643124249,370,427,0,0,0,1,3,2,4,0005-00-0001-88.png,0002-00-0000-11.png
00000014,736,1,1448643125294,1448643125762,897,497,0,0,0,3,0,3,3,0002-00-0001-19.png,0001-00-0000-70.png
00000014,737,1,1448643126827,1448643127308,894,517,0,0,0,1,0,1,1,0005-00-0001-76.png,0001-00-0000-35.png
00000014,738,0,1448643128345,1448643128666,427,489,0,0,0,3,1,2,4,0002-00-0000-03.png,0005-00-0000-37.png
00000014,739,1,1448643131525,1448643131998,880,454,0,0,0,4,1,3,5,0004-00-0000-42.png,0005-00-0001-27.png
00000014,740,1,1448643133165,1448643133583,898,483,0,0,0,2,0,2,2,0003-00-0000-81.png,0001-00-0001-94.png
00000014,741,1,1448643134846,1448643135215,440,502,0,0,0,1,4,3,5,0005-00-0000-05.png,0004-00-0001-14.png
00000014,742,1,1448643136347,1448643136825,902,521,0,0,0,3,0,3,3,0002-00-0000-51.png,0001-00-0000-62.png
00000014,743,0,1448643138313,1448643138869,925,501,0,0,0,3,4,1,7,0002-00-0000-94.png,0004-00-0001-57.png
00000014,744,1,1448643141763,1448643142180,862,462,0,0,0,4,1,3,5,0004-00-0001-42.png,0005-00-0001-48.png
00000014,745,1,1448643143374,1448643143738,343,426,0,0,0,0,2,2,2,0001-00-0000-64.png,0003-00-0001-40.png
00000014,746,1,1448643144907,1448643145446,899,516,0,0,0,1,0,1,1,0005-00-0001-98.png,0001-00-0000-25.png
00000014,747,0,1448643146555,1448643146909,416,520,0,0,0,3,2,1,5,0002-00-0001-27.png,0003-00-0000-43.png
00000014,748,1,1448643151019,1448643151496,952,507,0,0,0,4,0,4,4,0004-00-0000-77.png,0001-00-0001-48.png
00000014,749,1,1448643153002,1448643153473,902,513,0,0,0,4,3,1,7,0004-00-0001-36.png,0002-00-0000-43.png
00000014,750,1,1448643154496,1448643154874,371,500,0,0,0,0,3,3,3,0001-00-0000-00.png,0002-00-0001-37.png
00000014,751,1,1448643156059,1448643156518,349,482,0,0,0,0,1,1,1,0001-00-0000-42.png,0005-00-0001-25.png
00000014,752,1,1448643157719,1448643158099,362,501,0,0,0,0,4,4,4,0001-00-0000-41.png,0004-00-0000-50.png
00000014,753,0,1448643159357,1448643159844,894,474,0,0,0,1,3,2,4,0005-00-0000-12.png,0002-00-0001-38.png
00000014,754,1,1448643162680,1448643163081,874,542,0,0,0,2,0,2,2,0003-00-0001-67.png,0001-00-0001-05.png
00000014,755,1,1448643164185,1448643164630,899,490,0,0,0,2,1,1,3,0003-00-0000-09.png,0005-00-0000-92.png
00000014,756,1,1448643165974,1448643166409,874,514,0,0,0,4,2,2,6,0004-00-0000-38.png,0003-00-0001-09.png
00000014,757,1,1448643167561,1448643168115,875,489,0,0,0,3,1,2,4,0002-00-0001-23.png,0005-00-0001-36.png
00000014,758,1,1448643169345,1448643169749,393,481,0,0,0,1,2,1,3,0005-00-0001-63.png,0003-00-0000-41.png
00000014,759,1,1448643170994,1448643171644,448,429,0,0,0,2,3,1,5,0003-00-0001-09.png,0002-00-0000-45.png
00000014,760,0,1448643172795,1448643173275,897,510,0,0,0,2,4,2,6,0003-00-0000-91.png,0004-00-0000-32.png
00000014,761,0,1448643176153,1448643176775,401,462,0,0,0,3,2,1,5,0002-00-0000-16.png,0003-00-0001-01.png
00000014,762,1,1448643179723,1448643179759,519,462,0,0,0,1,3,2,4,0005-00-0001-77.png,0002-00-0000-37.png
00000014,763,1,1448643180935,1448643181340,372,471,0,0,0,0,2,2,2,0001-00-0000-18.png,0003-00-0000-81.png
00000014,764,1,1448643182456,1448643182929,874,501,0,0,0,3,0,3,3,0002-00-0000-61.png,0001-00-0001-56.png
00000014,765,0,1448643184026,1448643184508,875,522,0,0,0,3,4,1,7,0002-00-0000-94.png,0004-00-0000-78.png
00000014,766,1,1448643187593,1448643188275,389,398,0,0,0,1,2,1,3,0005-00-0001-04.png,0003-00-0001-17.png
00000014,767,0,1448643189874,1448643190366,381,437,0,0,0,4,2,2,6,0004-00-0000-72.png,0003-00-0001-84.png
00000014,768,0,1448643193534,1448643193965,875,565,0,0,0,2,4,2,6,0003-00-0000-67.png,0004-00-0001-18.png
00000014,769,0,1448643197165,1448643197857,364,409,0,0,0,4,1,3,5,0004-00-0001-06.png,0005-00-0001-45.png
00000014,770,1,1448643200872,1448643201336,957,473,0,0,0,2,1,1,3,0003-00-0000-82.png,0005-00-0000-60.png
00000014,771,1,1448643202498,1448643203106,907,526,0,0,0,4,0,4,4,0004-00-0000-39.png,0001-00-0001-04.png
00000014,772,1,1448643204293,1448643204664,400,483,0,0,0,1,4,3,5,0005-00-0001-84.png,0004-00-0001-94.png
00000014,773,1,1448643205843,1448643206294,886,477,0,0,0,1,0,1,1,0005-00-0000-97.png,0001-00-0001-66.png
00000014,774,1,1448643207472,1448643207827,375,472,0,0,0,0,3,3,3,0001-00-0000-22.png,0002-00-0000-77.png
00000014,775,1,1448643209005,1448643209382,350,488,0,0,0,0,4,4,4,0001-00-0000-29.png,0004-00-0000-85.png
00000014,776,0,1448643210644,1448643211075,876,502,0,0,0,2,3,1,5,0003-00-0000-78.png,0002-00-0000-40.png
00000014,777,1,1448643214121,1448643214691,425,540,0,0,0,0,1,1,1,0001-00-0000-26.png,0005-00-0000-19.png
00000014,778,0,1448643215778,1448643216183,407,479,0,0,0,4,3,1,7,0004-00-0001-66.png,0002-00-0001-01.png
00000014,779,1,1448643219159,1448643219638,950,485,0,0,0,3,1,2,4,0002-00-0000-96.png,0005-00-0001-33.png
00000014,780,1,1448643220831,1448643221279,900,515,0,0,0,2,0,2,2,0003-00-0000-56.png,0001-00-0001-30.png
00000014,781,1,1448643222382,1448643222855,875,502,0,0,0,4,2,2,6,0004-00-0001-93.png,0003-00-0001-61.png
00000014,782,1,1448643223931,1448643224371,898,511,0,0,0,1,0,1,1,0005-00-0000-05.png,0001-00-0000-83.png
00000014,783,1,1448643225569,1448643225957,350,488,0,0,0,1,4,3,5,0005-00-0000-99.png,0004-00-0000-24.png
00000014,784,1,1448643227162,1448643227536,341,469,0,0,0,0,2,2,2,0001-00-0001-86.png,0003-00-0001-08.png
00000014,785,0,1448643228803,1448643229455,401,450,0,0,0,4,3,1,7,0004-00-0001-13.png,0002-00-0001-79.png
00000014,786,1,1448643232314,1448643232849,398,422,0,0,0,3,4,1,7,0002-00-0000-83.png,0004-00-0000-54.png
00000014,787,1,1448643233988,1448643234953,868,562,0,0,0,2,1,1,3,0003-00-0000-64.png,0005-00-0001-31.png
00000014,788,1,1448643236453,1448643236984,944,504,0,0,0,3,1,2,4,0002-00-0000-16.png,0005-00-0000-92.png
00000014,789,1,1448643238255,1448643238709,921,497,0,0,0,3,0,3,3,0002-00-0001-29.png,0001-00-0001-64.png
00000014,790,1,1448643239846,1448643240287,876,521,0,0,0,2,0,2,2,0003-00-0001-39.png,0001-00-0000-88.png
00000014,791,0,1448643241466,1448643241827,504,527,0,0,0,3,2,1,5,0002-00-0001-43.png,0003-00-0000-73.png
00000014,792,0,1448643244957,1448643245354,925,501,0,0,0,2,3,1,5,0003-00-0001-38.png,0002-00-0000-42.png
00000014,793,0,1448643248451,1448643248922,952,458,0,0,0,2,4,2,6,0003-00-0000-20.png,0004-00-0000-93.png
00000014,794,1,1448643252213,1448643252690,393,402,0,0,0,1,3,2,4,0005-00-0000-20.png,0002-00-0001-25.png
00000014,795,1,1448643253844,1448643254221,428,496,0,0,0,0,1,1,1,0001-00-0001-76.png,0005-00-0001-40.png
00000014,796,1,1448643255359,1448643255728,382,460,0,0,0,1,2,1,3,0005-00-0001-79.png,0003-00-0001-23.png
00000014,797,1,1448643256867,1448643257372,888,501,0,0,0,4,1,3,5,0004-00-0000-85.png,0005-00-0001-71.png
00000014,798,1,1448643258565,1448643259051,900,475,0,0,0,4,0,4,4,0004-00-0001-10.png,0001-00-0001-15.png
00000014,799,1,1448643260204,1448643260594,369,479,0,0,0,0,3,3,3,0001-00-0001-76.png,0002-00-0000-85.png
00000014,800,1,1448643261836,1448643262220,380,564,0,0,0,0,4,4,4,0001-00-0001-34.png,0004-00-0000-18.png
00000014,801,1,1448643263459,1448643263894,900,482,0,0,0,3,0,3,3,0002-00-0000-48.png,0001-00-0001-26.png
00000014,802,1,1448643265071,1448643265463,444,506,0,0,0,0,3,3,3,0001-00-0001-66.png,0002-00-0001-90.png
00000014,803,1,1448643266790,1448643267291,870,498,0,0,0,4,1,3,5,0004-00-0000-21.png,0005-00-0001-14.png
00000014,804,0,1448643268479,1448643269411,896,472,0,0,0,3,4,1,7,0002-00-0000-25.png,0004-00-0000-10.png
00000014,805,1,1448643272968,1448643273431,945,510,0,0,0,1,0,1,1,0005-00-0001-71.png,0001-00-0001-71.png
00000014,806,1,1448643274811,1448643275179,402,527,0,0,0,0,1,1,1,0001-00-0000-16.png,0005-00-0001-80.png
00000014,807,1,1448643276382,1448643276857,891,520,0,0,0,2,0,2,2,0003-00-0000-57.png,0001-00-0000-44.png
00000014,808,1,1448643278034,1448643278405,357,498,0,0,0,0,4,4,4,0001-00-0000-87.png,0004-00-0000-43.png
00000014,809,0,1448643279997,1448643280588,918,502,0,0,0,2,4,2,6,0003-00-0001-73.png,0004-00-0000-39.png
00000014,810,1,1448643283748,1448643284225,913,514,0,0,0,2,1,1,3,0003-00-0000-77.png,0005-00-0000-73.png
00000014,811,1,1448643285308,1448643285813,877,495,0,0,0,3,1,2,4,0002-00-0000-11.png,0005-00-0000-92.png
00000014,812,1,1448643286898,1448643287342,874,490,0,0,0,4,3,1,7,0004-00-0001-38.png,0002-00-0000-35.png
00000014,813,1,1448643288439,1448643288802,453,487,0,0,0,2,3,1,5,0003-00-0000-09.png,0002-00-0000-80.png
00000014,814,1,1448643289912,1448643290295,472,496,0,0,0,1,4,3,5,0005-00-0001-97.png,0004-00-0001-41.png
00000014,815,1,1448643291463,1448643291881,863,475,0,0,0,4,2,2,6,0004-00-0001-26.png,0003-00-0000-28.png
00000014,816,1,1448643293013,1448643293459,876,493,0,0,0,4,0,4,4,0004-00-0001-02.png,0001-00-0001-11.png
00000014,817,1,1448643294671,1448643295149,870,498,0,0,0,3,2,1,5,0002-00-0001-74.png,0003-00-0000-89.png
00000014,818,0,1448643296270,1448643296685,877,496,0,0,0,1,2,1,3,0005-00-0001-55.png,0003-00-0000-76.png
00000014,819,1,1448643299831,1448643300276,371,435,0,0,0,0,2,2,2,0001-00-0000-68.png,0003-00-0000-03.png
00000014,820,0,1448643301443,1448643301972,885,511,0,0,0,1,3,2,4,0005-00-0001-21.png,0002-00-0001-56.png
00000014,821,1,1448643305020,1448643305499,445,444,0,0,0,0,4,4,4,0001-00-0000-27.png,0004-00-0000-11.png
00000014,822,0,1448643306792,1448643307307,876,495,0,0,0,2,4,2,6,0003-00-0001-65.png,0004-00-0001-67.png
00000014,823,1,1448643310899,1448643311444,333,428,0,0,0,3,4,1,7,0002-00-0001-30.png,0004-00-0000-12.png
00000014,824,1,1448643312550,1448643313006,880,480,0,0,0,4,0,4,4,0004-00-0001-13.png,0001-00-0001-65.png
00000014,825,1,1448643314459,1448643314933,874,464,0,0,0,3,1,2,4,0002-00-0000-46.png,0005-00-0000-05.png
00000014,826,1,1448643316124,1448643316547,876,495,0,0,0,2,1,1,3,0003-00-0000-54.png,0005-00-0000-59.png
00000014,827,1,1448643317728,1448643318089,415,501,0,0,0,0,1,1,1,0001-00-0001-19.png,0005-00-0001-81.png
00000014,828,1,1448643319314,1448643319734,899,491,0,0,0,1,0,1,1,0005-00-0001-72.png,0001-00-0000-01.png
00000014,829,1,1448643320912,1448643321342,873,508,0,0,0,3,2,1,5,0002-00-0000-06.png,0003-00-0001-74.png
00000014,830,0,1448643322469,1448643322841,401,503,0,0,0,3,0,3,3,0002-00-0001-36.png,0001-00-0001-41.png
00000014,831,1,1448643325967,1448643326400,924,457,0,0,0,2,0,2,2,0003-00-0000-95.png,0001-00-0000-91.png
00000014,832,0,1448643327654,1448643328072,873,509,0,0,0,2,3,1,5,0003-00-0001-20.png,0002-00-0001-54.png
00000014,833,1,1448643331046,1448643331531,879,453,0,0,0,4,1,3,5,0004-00-0000-48.png,0005-00-0000-64.png
00000014,834,1,1448643332648,1448643333412,862,462,0,0,0,4,2,2,6,0004-00-0000-96.png,0003-00-0000-55.png
00000014,835,1,1448643335051,1448643335760,361,502,0,0,0,0,3,3,3,0001-00-0001-21.png,0002-00-0001-87.png
00000014,836,1,1448643336882,1448643337260,419,505,0,0,0,1,4,3,5,0005-00-0001-37.png,0004-00-0000-40.png
00000014,837,1,1448643338398,1448643338814,376,410,0,0,0,1,2,1,3,0005-00-0001-56.png,0003-00-0001-73.png
00000014,838,1,1448643340122,1448643340505,410,497,0,0,0,0,2,2,2,0001-00-0000-87.png,0003-00-0000-19.png
00000014,839,1,1448643341794,1448643342228,877,495,0,0,0,4,3,1,7,0004-00-0001-96.png,0002-00-0001-93.png
00000014,840,1,1448643343320,1448643343665,362,489,0,0,0,1,3,2,4,0005-00-0001-90.png,0002-00-0001-50.png
00000014,841,1,1448643344905,1448643345550,913,502,0,0,0,4,1,3,5,0004-00-0001-87.png,0005-00-0001-59.png
00000014,842,1,1448643346644,1448643347084,896,524,0,0,0,3,1,2,4,0002-00-0001-73.png,0005-00-0001-25.png
00000014,843,0,1448643348330,1448643348844,902,547,0,0,0,2,3,1,5,0003-00-0000-00.png,0002-00-0001-77.png
00000014,844,1,1448643351860,1448643352292,442,443,0,0,0,1,3,2,4,0005-00-0000-99.png,0002-00-0001-61.png
00000014,845,1,1448643353461,1448643354421,908,495,0,0,0,4,3,1,7,0004-00-0001-58.png,0002-00-0001-27.png
00000014,846,1,1448643356274,1448643356740,946,507,0,0,0,1,0,1,1,0005-00-0001-01.png,0001-00-0001-29.png
00000014,847,1,1448643357981,1448643358487,888,501,0,0,0,4,2,2,6,0004-00-0001-67.png,0003-00-0000-02.png
00000014,848,1,1448643359710,1448643360094,443,506,0,0,0,0,2,2,2,0001-00-0000-03.png,0003-00-0000-07.png
00000014,849,1,1448643361343,1448643361737,427,476,0,0,0,3,4,1,7,0002-00-0000-33.png,0004-00-0001-44.png
00000014,850,1,1448643363031,1448643363425,439,471,0,0,0,0,4,4,4,0001-00-0000-87.png,0004-00-0000-68.png
00000014,851,1,1448643364744,1448643365165,880,506,0,0,0,2,1,1,3,0003-00-0000-45.png,0005-00-0000-29.png
00000014,852,1,1448643366595,1448643366996,359,496,0,0,0,1,2,1,3,0005-00-0001-64.png,0003-00-0000-47.png
00000014,853,0,1448643368282,1448643368675,433,516,0,0,0,3,2,1,5,0002-00-0001-44.png,0003-00-0001-05.png
00000014,854,1,1448643371800,1448643372255,389,488,0,0,0,0,3,3,3,0001-00-0001-63.png,0002-00-0000-35.png
00000014,855,1,1448643373423,1448643374027,862,492,0,0,0,4,0,4,4,0004-00-0001-35.png,0001-00-0001-09.png
00000014,856,1,1448643375231,1448643375684,899,515,0,0,0,3,0,3,3,0002-00-0001-02.png,0001-00-0000-96.png
00000014,857,1,1448643376880,1448643377315,390,525,0,0,0,0,1,1,1,0001-00-0000-89.png,0005-00-0001-98.png
00000014,858,1,1448643378577,1448643379026,896,505,0,0,0,2,0,2,2,0003-00-0001-93.png,0001-00-0001-05.png
00000014,859,1,1448643380188,1448643380560,401,499,0,0,0,2,4,2,6,0003-00-0001-43.png,0004-00-0001-41.png
00000014,860,1,1448643381759,1448643382234,407,497,0,0,0,1,4,3,5,0005-00-0000-23.png,0004-00-0001-46.png
00000014,861,1,1448643383541,1448643383912,392,520,0,0,0,0,2,2,2,0001-00-0001-60.png,0003-00-0000-05.png
00000014,862,0,1448643385098,1448643386099,908,500,0,0,0,1,4,3,5,0005-00-0000-12.png,0004-00-0000-66.png
00000014,863,1,1448643388982,1448643389437,370,436,0,0,0,3,4,1,7,0002-00-0001-23.png,0004-00-0000-18.png
00000014,864,1,1448643390606,1448643391035,900,502,0,0,0,2,0,2,2,0003-00-0000-78.png,0001-00-0000-31.png
00000014,865,0,1448643392189,1448643392589,422,437,0,0,0,4,1,3,5,0004-00-0001-72.png,0005-00-0001-82.png
00000014,866,0,1448643395586,1448643396150,393,427,0,0,0,1,0,1,1,0005-00-0001-50.png,0001-00-0000-48.png
00000014,867,1,1448643399403,1448643399836,902,521,0,0,0,3,0,3,3,0002-00-0000-08.png,0001-00-0000-01.png
00000014,868,1,1448643400962,1448643401310,419,480,0,0,0,0,1,1,1,0001-00-0000-45.png,0005-00-0000-85.png
00000014,869,1,1448643402542,1448643402953,900,501,0,0,0,3,1,2,4,0002-00-0000-61.png,0005-00-0001-08.png
00000014,870,1,1448643404183,1448643404564,358,498,0,0,0,0,3,3,3,0001-00-0001-47.png,0002-00-0000-22.png
00000014,871,1,1448643405736,1448643406123,463,501,0,0,0,1,3,2,4,0005-00-0001-55.png,0002-00-0001-43.png
00000014,872,1,1448643407431,1448643407878,900,490,0,0,0,4,0,4,4,0004-00-0001-48.png,0001-00-0000-46.png
00000014,873,1,1448643409132,1448643409573,867,490,0,0,0,4,2,2,6,0004-00-0001-29.png,0003-00-0000-73.png
00000014,874,1,1448643410792,1448643411181,395,499,0,0,0,1,2,1,3,0005-00-0000-05.png,0003-00-0000-59.png
00000014,875,0,1448643412320,1448643412718,453,513,0,0,0,3,2,1,5,0002-00-0001-03.png,0003-00-0000-14.png
00000014,876,1,1448643415872,1448643416441,418,561,0,0,0,0,4,4,4,0001-00-0000-02.png,0004-00-0000-15.png
00000014,877,1,1448643417791,1448643418245,895,523,0,0,0,2,1,1,3,0003-00-0001-96.png,0005-00-0000-42.png
00000014,878,1,1448643419380,1448643419810,883,508,0,0,0,4,3,1,7,0004-00-0000-13.png,0002-00-0001-79.png
00000014,879,0,1448643421091,1448643422081,907,516,0,0,0,2,4,2,6,0003-00-0000-98.png,0004-00-0001-78.png
00000014,880,0,1448643425075,1448643425525,928,469,0,0,0,2,3,1,5,0003-00-0000-23.png,0002-00-0001-87.png
00000014,881,0,1448643428993,1448643429823,418,383,0,0,0,4,2,2,6,0004-00-0000-76.png,0003-00-0000-22.png
00000014,882,1,1448643432663,1448643433188,406,427,0,0,0,3,4,1,7,0002-00-0001-65.png,0004-00-0000-74.png
00000014,883,1,1448643435075,1448643435551,925,501,0,0,0,1,0,1,1,0005-00-0001-45.png,0001-00-0000-49.png
00000014,884,1,1448643436934,1448643437384,364,450,0,0,0,1,3,2,4,0005-00-0001-00.png,0002-00-0001-72.png
00000014,885,0,1448643438772,1448643439197,899,490,0,0,0,2,3,1,5,0003-00-0001-05.png,0002-00-0000-26.png
00000014,886,0,1448643442458,1448643443051,420,423,0,0,0,4,3,1,7,0004-00-0000-07.png,0002-00-0000-34.png
00000014,887,0,1448643445907,1448643446351,440,437,0,0,0,3,1,2,4,0002-00-0001-86.png,0005-00-0001-92.png
00000014,888,1,1448643449189,1448643449687,934,551,0,0,0,3,2,1,5,0002-00-0000-41.png,0003-00-0001-28.png
00000014,889,1,1448643450778,1448643451242,379,405,0,0,0,0,3,3,3,0001-00-0001-06.png,0002-00-0001-27.png
00000014,890,1,1448643452369,1448643452823,427,514,0,0,0,0,1,1,1,0001-00-0001-29.png,0005-00-0001-95.png
00000014,891,1,1448643454048,1448643454514,900,489,0,0,0,4,1,3,5,0004-00-0001-02.png,0005-00-0001-84.png
00000014,892,1,1448643455656,1448643456134,875,529,0,0,0,2,1,1,3,0003-00-0001-27.png,0005-00-0001-70.png
00000014,893,1,1448643457229,1448643457663,910,491,0,0,0,3,0,3,3,0002-00-0001-55.png,0001-00-0001-02.png
00000014,894,1,1448643458929,1448643459333,376,476,0,0,0,0,2,2,2,0001-00-0001-07.png,0003-00-0000-50.png
00000014,895,1,1448643460464,1448643461182,873,561,0,0,0,2,0,2,2,0003-00-0001-59.png,0001-00-0001-87.png
00000014,896,1,1448643462330,1448643462671,427,488,0,0,0,0,4,4,4,0001-00-0000-46.png,0004-00-0001-66.png
00000014,897,0,1448643463810,1448643464363,864,501,0,0,0,2,4,2,6,0003-00-0001-80.png,0004-00-0000-81.png
00000014,898,1,1448643468014,1448643468463,939,527,0,0,0,4,0,4,4,0004-00-0000-85.png,0001-00-0000-36.png
00000014,899,1,1448643469656,1448643470065,401,436,0,0,0,1,2,1,3,0005-00-0001-90.png,0003-00-0001-85.png
00000014,900,0,1448643471344,1448643471759,875,520,0,0,0,1,4,3,5,0005-00-0001-03.png,0004-00-0001-65.png
00000014,901,1,1448643474783,1448643475286,396,439,0,0,0,0,3,3,3,0001-00-0000-53.png,0002-00-0001-20.png
00000014,902,1,1448643476423,1448643476907,901,502,0,0,0,4,3,1,7,0004-00-0001-65.png,0002-00-0001-18.png
00000014,903,0,1448643478083,1448643478571,874,516,0,0,0,2,4,2,6,0003-00-0000-77.png,0004-00-0000-27.png
00000014,904,1,1448643481451,1448643481903,404,417,0,0,0,1,4,3,5,0005-00-0001-65.png,0004-00-0001-74.png
00000014,905,0,1448643483058,1448643483504,905,506,0,0,0,2,3,1,5,0003-00-0001-31.png,0002-00-0000-55.png
00000014,906,1,1448643486427,1448643486886,951,528,0,0,0,2,1,1,3,0003-00-0000-97.png,0005-00-0000-28.png
00000014,907,1,1448643488004,1448643488408,896,471,0,0,0,3,2,1,5,0002-00-0001-48.png,0003-00-0001-98.png
00000014,908,0,1448643489602,1448643490010,898,511,0,0,0,3,4,1,7,0002-00-0001-35.png,0004-00-0000-79.png
00000014,909,1,1448643493255,1448643493846,405,427,0,0,0,1,2,1,3,0005-00-0000-25.png,0003-00-0000-68.png
00000014,910,0,1448643494937,1448643495325,405,488,0,0,0,4,0,4,4,0004-00-0001-82.png,0001-00-0000-80.png
00000014,911,0,1448643498273,1448643498294,504,476,0,0,0,3,0,3,3,0002-00-0001-81.png,0001-00-0000-59.png
00000014,912,1,1448643501242,1448643501734,934,500,0,0,0,1,0,1,1,0005-00-0000-86.png,0001-00-0001-33.png
00000014,913,1,1448643502971,1448643503341,395,452,0,0,0,0,1,1,1,0001-00-0000-81.png,0005-00-0001-27.png
00000014,914,0,1448643504421,1448643504856,418,458,0,0,0,4,2,2,6,0004-00-0000-02.png,0003-00-0000-96.png
00000014,915,1,1448643507880,1448643508480,914,460,0,0,0,3,1,2,4,0002-00-0001-27.png,0005-00-0000-66.png
00000014,916,1,1448643509590,1448643510055,920,508,0,0,0,2,0,2,2,0003-00-0000-82.png,0001-00-0001-24.png
00000014,917,1,1448643511346,1448643511760,403,521,0,0,0,1,3,2,4,0005-00-0000-42.png,0002-00-0000-41.png
00000014,918,1,1448643513021,1448643513460,427,462,0,0,0,0,2,2,2,0001-00-0000-93.png,0003-00-0001-74.png
00000014,919,0,1448643514749,1448643515184,886,502,0,0,0,0,4,4,4,0001-00-0000-53.png,0004-00-0001-13.png
00000014,920,1,1448643518132,1448643518750,878,454,0,0,0,4,1,3,5,0004-00-0000-56.png,0005-00-0001-89.png
00000014,921,1,1448643519907,1448643520331,888,502,0,0,0,3,1,2,4,0002-00-0000-79.png,0005-00-0001-14.png
00000014,922,0,1448643521477,1448643521796,437,484,0,0,0,4,2,2,6,0004-00-0001-21.png,0003-00-0000-46.png
00000014,923,1,1448643524873,1448643525361,936,463,0,0,0,3,0,3,3,0002-00-0000-24.png,0001-00-0001-68.png
00000014,924,0,1448643526486,1448643526977,903,521,0,0,0,3,4,1,7,0002-00-0001-41.png,0004-00-0001-61.png
00000014,925,1,1448643530749,1448643531425,875,476,0,0,0,3,2,1,5,0002-00-0000-32.png,0003-00-0001-57.png
00000014,926,1,1448643532627,1448643533018,374,495,0,0,0,0,3,3,3,0001-00-0000-76.png,0002-00-0001-43.png
00000014,927,0,1448643534218,1448643534679,861,524,0,0,0,0,4,4,4,0001-00-0001-08.png,0004-00-0000-52.png
00000014,928,1,1448643537555,1448643538021,418,428,0,0,0,1,2,1,3,0005-00-0001-09.png,0003-00-0000-41.png
00000014,929,1,1448643539068,1448643540057,919,480,0,0,0,2,0,2,2,0003-00-0001-46.png,0001-00-0001-85.png
00000014,930,1,1448643541378,1448643541794,883,511,0,0,0,1,0,1,1,0005-00-0000-55.png,0001-00-0001-36.png
00000014,931,1,1448643542973,1448643543360,383,479,0,0,0,0,1,1,1,0001-00-0000-86.png,0005-00-0000-24.png
00000014,932,0,1448643544581,1448643545409,416,560,0,0,0,4,3,1,7,0004-00-0001-03.png,0002-00-0000-42.png
00000014,933,1,1448643548709,1448643549191,966,527,0,0,0,4,1,3,5,0004-00-0000-84.png,0005-00-0000-96.png
00000014,934,1,1448643550226,1448643550632,887,480,0,0,0,4,0,4,4,0004-00-0000-03.png,0001-00-0001-16.png
00000014,935,0,1448643551787,1448643552265,916,504,0,0,0,1,3,2,4,0005-00-0001-60.png,0002-00-0001-26.png
00000014,936,0,1448643555219,1448643555691,945,465,0,0,0,0,2,2,2,0001-00-0000-53.png,0003-00-0001-04.png
00000014,937,1,1448643558876,1448643559333,897,457,0,0,0,2,1,1,3,0003-00-0000-18.png,0005-00-0001-27.png
00000014,938,0,1448643560447,1448643560888,904,492,0,0,0,2,4,2,6,0003-00-0001-92.png,0004-00-0001-20.png
00000014,939,0,1448643563818,1448643564271,919,432,0,0,0,2,3,1,5,0003-00-0000-08.png,0002-00-0001-48.png
00000014,940,1,1448643567635,1448643568094,397,545,0,0,0,1,4,3,5,0005-00-0001-65.png,0004-00-0000-02.png
00000014,941,0,1448643569203,1448643569598,362,505,0,0,0,4,1,3,5,0004-00-0001-27.png,0005-00-0000-47.png
00000014,942,1,1448643572644,1448643573092,899,543,0,0,0,3,0,3,3,0002-00-0000-17.png,0001-00-0001-77.png
00000014,943,1,1448643574204,1448643574679,919,494,0,0,0,4,2,2,6,0004-00-0000-39.png,0003-00-0000-64.png
00000014,944,0,1448643575880,1448643576314,877,513,0,0,0,3,4,1,7,0002-00-0000-83.png,0004-00-0001-81.png
00000014,945,1,1448643579189,1448643579757,902,468,0,0,0,4,0,4,4,0004-00-0001-14.png,0001-00-0000-97.png
00000014,946,0,1448643580813,1448643581246,873,508,0,0,0,2,3,1,5,0003-00-0000-77.png,0002-00-0001-39.png
00000014,947,0,1448643584514,1448643584965,924,508,0,0,0,1,2,1,3,0005-00-0001-03.png,0003-00-0000-69.png
00000014,948,0,1448643587895,1448643588448,950,500,0,0,0,1,3,2,4,0005-00-0000-26.png,0002-00-0000-95.png
00000014,949,1,1448643591537,1448643591998,956,480,0,0,0,4,3,1,7,0004-00-0000-68.png,0002-00-0000-90.png
00000014,950,1,1448643593277,1448643593741,921,498,0,0,0,1,0,1,1,0005-00-0001-72.png,0001-00-0000-54.png
00000014,951,1,1448643594926,1448643595327,888,501,0,0,0,3,2,1,5,0002-00-0000-59.png,0003-00-0001-13.png
