subject_id,trial,correct_response,stim_time,response_time,x_coord,y_coord,trial_timeout,timeout_time,interTrial_timeout,left_rank,right_rank,distance,joint_rank,left_image,right_image
00000009,1,1,1448297603294,1448297603831,1001,338,0,0,0,3,1,2,4,0002-00-0000-78.png,0005-00-0000-25.png
00000009,2,0,1448297605403,1448297605894,965,344,0,0,0,2,3,1,5,0003-00-0000-42.png,0002-00-0001-09.png
00000009,3,1,1448297610740,1448297611310,979,384,0,0,0,4,1,3,5,0004-00-0000-25.png,0005-00-0001-64.png
00000009,4,1,1448297612596,1448297613205,945,341,0,0,0,3,2,1,5,0002-00-0001-81.png,0003-00-0001-50.png
00000009,5,1,1448297614925,1448297615533,1044,260,0,0,0,2,1,1,3,0003-00-0001-32.png,0005-00-0001-62.png
00000009,6,0,1448297616682,1448297617030,1118,488,0,0,0,2,4,2,6,0003-00-0000-16.png,0004-00-0001-52.png
00000009,7,0,1448297622349,1448297622890,1117,278,0,0,0,1,4,3,5,0005-00-0001-25.png,0004-00-0000-36.png
00000009,8,1,1448297626780,1448297627402,966,345,0,0,0,2,0,2,2,0003-00-0000-64.png,0001-00-0000-08.png
00000009,9,0,1448297628468,1448297628536,938,422,0,0,0,3,4,1,7,0002-00-0000-06.png,0004-00-0001-83.png
00000009,10,1,1448297632237,1448297632750,1013,292,0,0,0,4,0,4,4,0004-00-0000-66.png,0001-00-0001-41.png
00000009,11,0,1448297634294,1448297635161,1067,279,0,0,0,1,2,1,3,0005-00-0001-78.png,0003-00-0001-92.png
00000009,12,1,1448297638717,1448297639201,1009,285,0,0,0,4,2,2,6,0004-00-0001-58.png,0003-00-0001-09.png
00000009,13,0,1448297640289,1448297640369,909,433,0,0,0,0,4,4,4,0001-00-0000-41.png,0004-00-0001-82.png
00000009,14,1,1448297643576,1448297644181,1090,307,0,0,0,4,3,1,7,0004-00-0001-16.png,0002-00-0000-98.png
00000009,15,0,1448297645165,1448297645213,888,423,0,0,0,1,3,2,4,0005-00-0001-77.png,0002-00-0000-42.png
00000009,16,1,1448297648404,1448297648452,927,278,0,0,0,3,0,3,3,0002-00-0000-62.png,0001-00-0001-52.png
00000009,17,0,1448297649479,1448297650325,1026,264,0,0,0,0,3,3,3,0001-00-0001-57.png,0002-00-0000-05.png
00000009,18,1,1448297653264,1448297653764,984,318,0,0,0,1,0,1,1,0005-00-0000-16.png,0001-00-0001-59.png
00000009,19,0,1448297654746,1448297654943,974,506,0,0,0,0,1,1,1,0001-00-0000-71.png,0005-00-0000-08.png
00000009,20,0,1448297658652,1448297658871,969,342,0,0,0,0,2,2,2,0001-00-0001-41.png,0003-00-0000-53.png
00000009,21,1,1448297662318,1448297662717,936,335,0,0,0,4,1,3,5,0004-00-0000-87.png,0005-00-0000-61.png
00000009,22,1,1448297663648,1448297663736,928,436,0,0,0,4,2,2,6,0004-00-0001-28.png,0003-00-0001-55.png
00000009,23,1,1448297664872,1448297665444,964,341,0,0,0,3,0,3,3,0002-00-0000-15.png,0001-00-0001-30.png
00000009,24,0,1448297666433,1448297666469,878,379,0,0,0,2,4,2,6,0003-00-0001-63.png,0004-00-0001-71.png
00000009,25,1,1448297669682,1448297670186,972,327,0,0,0,4,0,4,4,0004-00-0000-72.png,0001-00-0000-66.png
00000009,26,1,1448297671051,1448297671119,874,436,0,0,0,2,1,1,3,0003-00-0001-80.png,0005-00-0000-27.png
00000009,27,0,1448297672275,1448297672367,862,462,0,0,0,1,3,2,4,0005-00-0001-23.png,0002-00-0001-75.png
00000009,28,1,1448297675821,1448297676358,441,288,0,0,0,0,2,2,2,0001-00-0001-63.png,0003-00-0001-23.png
00000009,29,1,1448297677192,1448297677909,1049,278,0,0,0,3,1,2,4,0002-00-0001-00.png,0005-00-0000-57.png
00000009,30,1,1448297678823,1448297678863,862,384,0,0,0,2,0,2,2,0003-00-0000-89.png,0001-00-0001-24.png
00000009,31,1,1448297679967,1448297680782,964,369,0,0,0,1,0,1,1,0005-00-0001-32.png,0001-00-0001-04.png
00000009,32,1,1448297681725,1448297681832,888,436,0,0,0,3,2,1,5,0002-00-0001-08.png,0003-00-0000-23.png
00000009,33,1,1448297682976,1448297683704,952,326,0,0,0,4,3,1,7,0004-00-0000-33.png,0002-00-0000-01.png
00000009,34,0,1448297684695,1448297684743,858,376,0,0,0,0,3,3,3,0001-00-0001-63.png,0002-00-0000-51.png
00000009,35,0,1448297688166,1448297688285,889,305,0,0,0,1,2,1,3,0005-00-0001-79.png,0003-00-0001-79.png
00000009,36,1,1448297691206,1448297692013,366,332,0,0,0,3,4,1,7,0002-00-0000-66.png,0004-00-0000-27.png
00000009,37,0,1448297693204,1448297693299,898,433,0,0,0,0,1,1,1,0001-00-0000-17.png,0005-00-0000-23.png
00000009,38,0,1448297696131,1448297696219,985,359,0,0,0,0,4,4,4,0001-00-0001-54.png,0004-00-0000-16.png
00000009,39,1,1448297699397,1448297699938,393,366,0,0,0,1,4,3,5,0005-00-0000-13.png,0004-00-0001-48.png
00000009,40,0,1448297700896,1448297700941,865,393,0,0,0,2,3,1,5,0003-00-0001-07.png,0002-00-0000-53.png
00000009,41,1,1448297704036,1448297704522,987,307,0,0,0,2,0,2,2,0003-00-0001-65.png,0001-00-0000-06.png
00000009,42,1,1448297705353,1448297705405,862,436,0,0,0,2,1,1,3,0003-00-0000-36.png,0005-00-0001-68.png
00000009,43,0,1448297706619,1448297706906,935,543,0,0,0,1,4,3,5,0005-00-0000-70.png,0004-00-0000-78.png
00000009,44,1,1448297710168,1448297710399,874,339,0,0,0,4,1,3,5,0004-00-0000-43.png,0005-00-0000-10.png
00000009,45,0,1448297711373,1448297712106,961,360,0,0,0,0,4,4,4,0001-00-0001-51.png,0004-00-0001-54.png
00000009,46,1,1448297715594,1448297716118,964,332,0,0,0,4,2,2,6,0004-00-0001-03.png,0003-00-0001-36.png
00000009,47,1,1448297717043,1448297717107,862,409,0,0,0,3,1,2,4,0002-00-0000-53.png,0005-00-0001-19.png
00000009,48,1,1448297718168,1448297718971,374,322,0,0,0,3,4,1,7,0002-00-0001-62.png,0004-00-0001-41.png
00000009,49,1,1448297719965,1448297720751,459,257,0,0,0,0,2,2,2,0001-00-0001-70.png,0003-00-0000-48.png
00000009,50,0,1448297721725,1448297722442,1041,253,0,0,0,1,3,2,4,0005-00-0000-71.png,0002-00-0000-45.png
00000009,51,0,1448297725418,1448297725957,984,311,0,0,0,1,2,1,3,0005-00-0001-60.png,0003-00-0000-40.png
00000009,52,1,1448297729020,1448297729827,1072,251,0,0,0,4,3,1,7,0004-00-0000-72.png,0002-00-0000-68.png
00000009,53,1,1448297730859,1448297730895,867,403,0,0,0,3,2,1,5,0002-00-0001-12.png,0003-00-0000-69.png
00000009,54,1,1448297731833,1448297732589,392,339,0,0,0,2,3,1,5,0003-00-0001-76.png,0002-00-0001-69.png
00000009,55,1,1448297733592,1448297734268,467,244,0,0,0,0,3,3,3,0001-00-0001-42.png,0002-00-0000-01.png
00000009,56,1,1448297735324,1448297735961,920,341,0,0,0,4,0,4,4,0004-00-0001-89.png,0001-00-0001-43.png
00000009,57,0,1448297736940,1448297737000,888,392,0,0,0,0,1,1,1,0001-00-0000-29.png,0005-00-0001-63.png
00000009,58,1,1448297741105,1448297741634,990,400,0,0,0,1,0,1,1,0005-00-0000-20.png,0001-00-0000-62.png
00000009,59,0,1448297742525,1448297743313,943,315,0,0,0,2,4,2,6,0003-00-0000-20.png,0004-00-0001-57.png
00000009,60,1,1448297746460,1448297747067,931,314,0,0,0,3,0,3,3,0002-00-0000-29.png,0001-00-0000-81.png
00000009,61,1,1448297748539,1448297748654,911,437,0,0,0,2,1,1,3,0003-00-0001-96.png,0005-00-0000-82.png
00000009,62,1,1448297749631,1448297750377,483,253,0,0,0,0,4,4,4,0001-00-0001-28.png,0004-00-0001-49.png
00000009,63,0,1448297751303,1448297751363,879,456,0,0,0,2,3,1,5,0003-00-0001-08.png,0002-00-0001-22.png
00000009,64,1,1448297754322,1448297755011,374,370,0,0,0,0,2,2,2,0001-00-0001-07.png,0003-00-0000-33.png
00000009,65,1,1448297756629,1448297757440,1041,295,0,0,0,1,0,1,1,0005-00-0001-02.png,0001-00-0001-13.png
00000009,66,1,1448297758406,1448297758493,888,436,0,0,0,3,2,1,5,0002-00-0001-88.png,0003-00-0000-79.png
00000009,67,0,1448297759550,1448297759656,888,477,0,0,0,0,1,1,1,0001-00-0000-75.png,0005-00-0001-04.png
00000009,68,0,1448297763069,1448297763438,1113,541,0,0,0,0,3,3,3,0001-00-0000-56.png,0002-00-0001-39.png
00000009,69,1,1448297767044,1448297767602,1057,280,0,0,0,4,3,1,7,0004-00-0001-64.png,0002-00-0000-83.png
00000009,70,1,1448297768504,1448297768548,922,385,0,0,0,3,0,3,3,0002-00-0000-63.png,0001-00-0001-56.png
00000009,71,0,1448297769605,1448297770316,456,243,0,0,0,3,1,2,4,0002-00-0001-84.png,0005-00-0001-76.png
00000009,72,1,1448297773403,1448297774003,1026,279,0,0,0,4,2,2,6,0004-00-0001-90.png,0003-00-0000-83.png
00000009,73,1,1448297774984,1448297775905,955,384,0,0,0,4,0,4,4,0004-00-0001-05.png,0001-00-0001-76.png
00000009,74,1,1448297776770,1448297776850,888,436,0,0,0,4,1,3,5,0004-00-0001-28.png,0005-00-0001-84.png
00000009,75,0,1448297777776,1448297777844,862,410,0,0,0,2,4,2,6,0003-00-0000-58.png,0004-00-0000-31.png
00000009,76,0,1448297780789,1448297781629,460,254,0,0,0,2,0,2,2,0003-00-0001-43.png,0001-00-0000-95.png
00000009,77,1,1448297784753,1448297785287,480,250,0,0,0,3,4,1,7,0002-00-0001-08.png,0004-00-0000-40.png
00000009,78,1,1448297786164,1448297786799,467,243,0,0,0,1,2,1,3,0005-00-0001-11.png,0003-00-0001-36.png
00000009,79,1,1448297787713,1448297788508,389,292,0,0,0,1,4,3,5,0005-00-0001-22.png,0004-00-0001-20.png
00000009,80,1,1448297789463,1448297790217,467,231,0,0,0,1,3,2,4,0005-00-0000-88.png,0002-00-0001-61.png
00000009,81,0,1448297791151,1448297791769,380,371,0,0,0,3,2,1,5,0002-00-0000-05.png,0003-00-0000-95.png
00000009,82,1,1448297810162,1448297810799,962,290,0,0,0,4,2,2,6,0004-00-0001-50.png,0003-00-0000-23.png
00000009,83,0,1448297811873,1448297811889,859,340,0,0,0,0,3,3,3,0001-00-0000-44.png,0002-00-0001-99.png
00000009,84,1,1448297815089,1448297815804,471,250,0,0,0,2,3,1,5,0003-00-0001-75.png,0002-00-0000-17.png
00000009,85,0,1448297816832,1448297817619,438,244,0,0,0,2,1,1,3,0003-00-0000-31.png,0005-00-0000-66.png
00000009,86,0,1448297820577,1448297820798,858,366,0,0,0,3,4,1,7,0002-00-0001-18.png,0004-00-0000-25.png
00000009,87,1,1448297823956,1448297824552,945,327,0,0,0,1,0,1,1,0005-00-0000-85.png,0001-00-0001-01.png
00000009,88,1,1448297825427,1448297826089,923,326,0,0,0,3,1,2,4,0002-00-0000-73.png,0005-00-0000-63.png
00000009,89,0,1448297827018,1448297827046,897,401,0,0,0,0,4,4,4,0001-00-0000-86.png,0004-00-0001-00.png
00000009,90,1,1448297834943,1448297836592,315,398,0,0,0,2,4,2,6,0003-00-0000-44.png,0004-00-0001-60.png
00000009,91,1,1448297837691,1448297838332,447,260,0,0,0,1,3,2,4,0005-00-0000-67.png,0002-00-0000-79.png
00000009,92,1,1448297839196,1448297839284,888,462,0,0,0,2,0,2,2,0003-00-0001-20.png,0001-00-0001-45.png
00000009,93,0,1448297840242,1448297840270,864,411,0,0,0,1,2,1,3,0005-00-0001-28.png,0003-00-0001-75.png
00000009,94,0,1448297843532,1448297844064,1073,297,0,0,0,0,2,2,2,0001-00-0000-95.png,0003-00-0001-37.png
00000009,95,0,1448297846950,1448297847638,370,363,0,0,0,4,3,1,7,0004-00-0000-55.png,0002-00-0001-97.png
00000009,96,0,1448297850775,1448297850795,898,347,0,0,0,1,4,3,5,0005-00-0000-61.png,0004-00-0000-68.png
00000009,97,0,1448297853719,1448297854273,1056,248,0,0,0,0,1,1,1,0001-00-0000-19.png,0005-00-0000-59.png
00000009,98,1,1448297857537,1448297858022,991,303,0,0,0,4,0,4,4,0004-00-0000-49.png,0001-00-0001-19.png
00000009,99,1,1448297858873,1448297858925,862,436,0,0,0,4,1,3,5,0004-00-0001-50.png,0005-00-0000-87.png
00000009,100,0,1448297859862,1448297860724,390,376,0,0,0,3,0,3,3,0002-00-0000-13.png,0001-00-0001-22.png
00000009,101,1,1448297863608,1448297863676,885,338,0,0,0,1,0,1,1,0005-00-0000-37.png,0001-00-0001-32.png
00000009,102,1,1448297864714,1448297864718,874,401,0,0,0,4,1,3,5,0004-00-0001-53.png,0005-00-0001-55.png
00000009,103,0,1448297865657,1448297866378,416,384,0,0,0,3,0,3,3,0002-00-0000-53.png,0001-00-0001-60.png
00000009,104,1,1448297869384,1448297870401,444,287,0,0,0,1,2,1,3,0005-00-0001-62.png,0003-00-0001-71.png
00000009,105,0,1448297871270,1448297872104,949,332,0,0,0,3,4,1,7,0002-00-0001-89.png,0004-00-0001-42.png
00000009,106,0,1448297875833,1448297875913,893,330,0,0,0,0,4,4,4,0001-00-0000-57.png,0004-00-0000-57.png
00000009,107,0,1448297879808,1448297880375,1018,358,0,0,0,2,4,2,6,0003-00-0000-59.png,0004-00-0001-85.png
00000009,108,0,1448297883723,1448297883759,939,332,0,0,0,0,1,1,1,0001-00-0000-33.png,0005-00-0000-49.png
00000009,109,0,1448297886990,1448297887043,932,280,0,0,0,2,3,1,5,0003-00-0000-02.png,0002-00-0000-98.png
00000009,110,1,1448297891346,1448297892009,1089,337,0,0,0,3,2,1,5,0002-00-0001-28.png,0003-00-0001-79.png
00000009,111,0,1448297892945,1448297892981,876,410,0,0,0,0,3,3,3,0001-00-0001-46.png,0002-00-0000-76.png
00000009,112,1,1448297896087,1448297896135,917,327,0,0,0,4,0,4,4,0004-00-0000-65.png,0001-00-0001-13.png
00000009,113,1,1448297897078,1448297897138,905,447,0,0,0,3,1,2,4,0002-00-0001-52.png,0005-00-0000-19.png
00000009,114,0,1448297898184,1448297898941,486,221,0,0,0,2,0,2,2,0003-00-0001-07.png,0001-00-0001-91.png
00000009,115,0,1448297902031,1448297902056,965,338,0,0,0,0,2,2,2,0001-00-0001-67.png,0003-00-0001-03.png
00000009,116,1,1448297905656,1448297906322,351,342,0,0,0,1,4,3,5,0005-00-0000-71.png,0004-00-0001-42.png
00000009,117,1,1448297907267,1448297908118,935,329,0,0,0,2,1,1,3,0003-00-0001-63.png,0005-00-0001-03.png
00000009,118,1,1448297909076,1448297909877,1033,290,0,0,0,4,2,2,6,0004-00-0000-92.png,0003-00-0001-94.png
00000009,119,0,1448297910802,1448297910830,875,384,0,0,0,1,3,2,4,0005-00-0000-89.png,0002-00-0000-94.png
00000009,120,1,1448297913964,1448297914519,1080,296,0,0,0,4,3,1,7,0004-00-0001-94.png,0002-00-0000-67.png
00000009,121,1,1448297915361,1448297916088,966,288,0,0,0,2,0,2,2,0003-00-0001-24.png,0001-00-0001-02.png
00000009,122,1,1448297917045,1448297917671,386,378,0,0,0,1,3,2,4,0005-00-0000-36.png,0002-00-0000-39.png
00000009,123,1,1448297918644,1448297919693,1063,257,0,0,0,4,1,3,5,0004-00-0000-65.png,0005-00-0000-75.png
00000009,124,1,1448297920517,1448297920609,888,436,0,0,0,3,1,2,4,0002-00-0001-68.png,0005-00-0001-59.png
00000009,125,1,1448297921697,1448297921752,872,430,0,0,0,4,2,2,6,0004-00-0001-22.png,0003-00-0000-85.png
00000009,126,1,1448297922878,1448297923640,950,384,0,0,0,3,0,3,3,0002-00-0000-67.png,0001-00-0001-43.png
00000009,127,1,1448297924555,1448297924575,892,393,0,0,0,4,3,1,7,0004-00-0001-08.png,0002-00-0001-25.png
00000009,128,0,1448297925770,1448297925835,876,462,0,0,0,1,2,1,3,0005-00-0000-86.png,0003-00-0000-60.png
00000009,129,0,1448297928909,1448297929737,1092,274,0,0,0,2,4,2,6,0003-00-0001-73.png,0004-00-0001-75.png
00000009,130,1,1448297933015,1448297933536,376,330,0,0,0,3,4,1,7,0002-00-0000-90.png,0004-00-0001-14.png
00000009,131,0,1448297934564,1448297934592,879,388,0,0,0,0,3,3,3,0001-00-0000-77.png,0002-00-0000-51.png
00000009,132,1,1448297937583,1448297938134,493,261,0,0,0,0,1,1,1,0001-00-0000-70.png,0005-00-0000-62.png
00000009,133,0,1448297939077,1448297939098,857,414,0,0,0,0,2,2,2,0001-00-0001-39.png,0003-00-0000-27.png
00000009,134,1,1448297942108,1448297942156,880,381,0,0,0,1,0,1,1,0005-00-0000-11.png,0001-00-0000-01.png
00000009,135,1,1448297943201,1448297944035,944,319,0,0,0,4,0,4,4,0004-00-0001-69.png,0001-00-0001-75.png
00000009,136,1,1448297944928,1448297944996,912,461,0,0,0,2,1,1,3,0003-00-0000-09.png,0005-00-0001-34.png
00000009,137,0,1448297945893,1448297945941,862,419,0,0,0,2,3,1,5,0003-00-0000-06.png,0002-00-0001-46.png
00000009,138,0,1448297949524,1448297950067,964,384,0,0,0,1,4,3,5,0005-00-0000-69.png,0004-00-0000-47.png
00000009,139,1,1448297953199,1448297953783,1085,302,0,0,0,3,2,1,5,0002-00-0001-92.png,0003-00-0000-33.png
00000009,140,0,1448297954607,1448297954686,888,447,0,0,0,0,4,4,4,0001-00-0001-97.png,0004-00-0000-16.png
00000009,141,1,1448297957828,1448297958537,964,384,0,0,0,3,2,1,5,0002-00-0001-07.png,0003-00-0001-40.png
00000009,142,1,1448297959429,1448297960234,415,384,0,0,0,0,1,1,1,0001-00-0001-11.png,0005-00-0000-69.png
00000009,143,0,1448297961097,1448297961133,862,384,0,0,0,1,4,3,5,0005-00-0000-05.png,0004-00-0001-87.png
00000009,144,1,1448297964210,1448297964730,983,302,0,0,0,1,0,1,1,0005-00-0001-66.png,0001-00-0001-16.png
00000009,145,0,1448297965620,1448297965680,880,418,0,0,0,1,3,2,4,0005-00-0000-90.png,0002-00-0000-30.png
00000009,146,1,1448297968891,1448297969415,964,373,0,0,0,2,0,2,2,0003-00-0001-40.png,0001-00-0001-08.png
00000009,147,0,1448297970291,1448297970303,860,384,0,0,0,0,4,4,4,0001-00-0001-18.png,0004-00-0000-74.png
00000009,148,1,1448297973301,1448297973843,417,405,0,0,0,0,2,2,2,0001-00-0001-47.png,0003-00-0001-27.png
00000009,149,1,1448297974703,1448297975426,962,323,0,0,0,4,0,4,4,0004-00-0000-72.png,0001-00-0001-06.png
00000009,150,0,1448297976282,1448297976318,888,384,0,0,0,3,4,1,7,0002-00-0000-71.png,0004-00-0000-88.png
00000009,151,1,1448297979162,1448297979269,898,334,0,0,0,4,3,1,7,0004-00-0001-49.png,0002-00-0001-27.png
00000009,152,0,1448297980328,1448297980388,871,419,0,0,0,2,4,2,6,0003-00-0000-84.png,0004-00-0001-88.png
00000009,153,1,1448297983310,1448297983869,982,306,0,0,0,3,0,3,3,0002-00-0000-51.png,0001-00-0001-98.png
00000009,154,0,1448297984699,1448297984739,862,421,0,0,0,0,3,3,3,0001-00-0000-93.png,0002-00-0001-31.png
00000009,155,0,1448297987702,1448297987738,913,318,0,0,0,1,2,1,3,0005-00-0000-32.png,0003-00-0000-19.png
00000009,156,1,1448297990603,1448297990696,889,284,0,0,0,2,1,1,3,0003-00-0001-03.png,0005-00-0000-27.png
00000009,157,1,1448297991626,1448297992336,956,384,0,0,0,3,1,2,4,0002-00-0000-71.png,0005-00-0000-30.png
00000009,158,0,1448297993257,1448297993317,884,412,0,0,0,2,3,1,5,0003-00-0000-79.png,0002-00-0000-71.png
00000009,159,1,1448297996150,1448297996620,971,370,0,0,0,4,1,3,5,0004-00-0001-47.png,0005-00-0000-16.png
00000009,160,1,1448297997449,1448297997513,913,448,0,0,0,4,2,2,6,0004-00-0001-51.png,0003-00-0000-25.png
00000009,161,1,1448297998506,1448297999317,970,334,0,0,0,4,1,3,5,0004-00-0001-97.png,0005-00-0000-98.png
00000009,162,1,1448298000314,1448298000354,901,458,0,0,0,3,2,1,5,0002-00-0000-03.png,0003-00-0001-03.png
00000009,163,1,1448298001335,1448298002252,478,237,0,0,0,2,3,1,5,0003-00-0001-66.png,0002-00-0001-74.png
00000009,164,0,1448298003165,1448298003237,888,452,0,0,0,1,4,3,5,0005-00-0000-88.png,0004-00-0001-47.png
00000009,165,1,1448298006388,1448298006874,447,252,0,0,0,0,4,4,4,0001-00-0001-47.png,0004-00-0000-68.png
00000009,166,1,1448298007706,1448298008355,478,237,0,0,0,0,2,2,2,0001-00-0000-72.png,0003-00-0001-60.png
00000009,167,1,1448298009238,1448298009943,458,235,0,0,0,1,2,1,3,0005-00-0001-63.png,0003-00-0001-55.png
00000009,168,1,1448298010928,1448298011679,1085,243,0,0,0,4,0,4,4,0004-00-0001-06.png,0001-00-0001-19.png
00000009,169,1,1448298012687,1448298012743,922,478,0,0,0,2,1,1,3,0003-00-0000-49.png,0005-00-0000-97.png
00000009,170,0,1448298013818,1448298013858,888,424,0,0,0,0,1,1,1,0001-00-0000-37.png,0005-00-0000-24.png
00000009,171,1,1448298016880,1448298017660,413,359,0,0,0,2,4,2,6,0003-00-0001-86.png,0004-00-0001-44.png
00000009,172,1,1448298018568,1448298019233,411,321,0,0,0,3,4,1,7,0002-00-0001-71.png,0004-00-0000-69.png
00000009,173,1,1448298020156,1448298020216,864,446,0,0,0,4,2,2,6,0004-00-0000-19.png,0003-00-0000-09.png
00000009,174,0,1448298021222,1448298021258,870,436,0,0,0,0,3,3,3,0001-00-0000-78.png,0002-00-0001-72.png
00000009,175,1,1448298024403,1448298024427,871,321,0,0,0,2,0,2,2,0003-00-0001-62.png,0001-00-0001-62.png
00000009,176,1,1448298025513,1448298025717,913,500,0,0,0,1,0,1,1,0005-00-0000-23.png,0001-00-0001-61.png
00000009,177,1,1448298026816,1448298026868,862,471,0,0,0,4,3,1,7,0004-00-0001-66.png,0002-00-0001-32.png
00000009,178,1,1448298027837,1448298027877,873,462,0,0,0,3,0,3,3,0002-00-0000-96.png,0001-00-0000-20.png
00000009,179,1,1448298029100,1448298029156,888,476,0,0,0,3,1,2,4,0002-00-0001-83.png,0005-00-0001-59.png
00000009,180,0,1448298030383,1448298030443,879,497,0,0,0,1,3,2,4,0005-00-0001-21.png,0002-00-0000-77.png
00000009,181,1,1448298033609,1448298034202,964,388,0,0,0,4,3,1,7,0004-00-0000-12.png,0002-00-0000-58.png
00000009,182,0,1448298035242,1448298035294,885,394,0,0,0,1,4,3,5,0005-00-0000-32.png,0004-00-0001-67.png
00000009,183,1,1448298038473,1448298039049,486,279,0,0,0,0,3,3,3,0001-00-0001-16.png,0002-00-0001-32.png
00000009,184,1,1448298039922,1448298040589,477,240,0,0,0,0,1,1,1,0001-00-0000-67.png,0005-00-0001-17.png
00000009,185,1,1448298041544,1448298042197,1032,261,0,0,0,3,1,2,4,0002-00-0001-04.png,0005-00-0000-24.png
00000009,186,0,1448298043124,1448298043148,872,436,0,0,0,0,2,2,2,0001-00-0001-58.png,0003-00-0001-18.png
00000009,187,1,1448298046395,1448298046918,964,373,0,0,0,4,0,4,4,0004-00-0000-19.png,0001-00-0000-59.png
00000009,188,1,1448298047772,1448298047816,899,427,0,0,0,2,0,2,2,0003-00-0000-60.png,0001-00-0000-31.png
00000009,189,1,1448298048708,1448298049510,482,222,0,0,0,2,4,2,6,0003-00-0001-14.png,0004-00-0000-16.png
00000009,190,1,1448298050458,1448298050482,861,449,0,0,0,2,1,1,3,0003-00-0000-14.png,0005-00-0000-44.png
00000009,191,1,1448298051619,1448298051639,858,408,0,0,0,3,0,3,3,0002-00-0000-77.png,0001-00-0001-10.png
00000009,192,0,1448298052793,1448298053487,943,319,0,0,0,3,4,1,7,0002-00-0000-24.png,0004-00-0000-25.png
00000009,193,0,1448298056549,1448298057064,411,380,0,0,0,4,2,2,6,0004-00-0001-06.png,0003-00-0000-00.png
00000009,194,0,1448298060237,1448298060889,482,260,0,0,0,3,2,1,5,0002-00-0001-77.png,0003-00-0001-11.png
00000009,195,1,1448298063924,1448298064485,371,372,0,0,0,1,3,2,4,0005-00-0001-70.png,0002-00-0000-14.png
00000009,196,1,1448298065373,1448298066276,956,425,0,0,0,4,1,3,5,0004-00-0000-23.png,0005-00-0000-05.png
00000009,197,0,1448298067203,1448298067231,862,384,0,0,0,0,4,4,4,0001-00-0001-34.png,0004-00-0000-52.png
00000009,198,0,1448298070390,1448298070438,934,328,0,0,0,1,2,1,3,0005-00-0001-92.png,0003-00-0001-17.png
00000009,199,1,1448298073424,1448298074247,495,269,0,0,0,2,3,1,5,0003-00-0000-76.png,0002-00-0001-21.png
00000009,200,0,1448298075087,1448298075765,469,233,0,0,0,1,0,1,1,0005-00-0000-91.png,0001-00-0001-52.png
00000009,201,0,1448298079197,1448298079966,393,365,0,0,0,3,2,1,5,0002-00-0001-17.png,0003-00-0000-45.png
00000009,202,0,1448298082865,1448298083461,1067,279,0,0,0,2,3,1,5,0003-00-0001-54.png,0002-00-0001-98.png
00000009,203,1,1448298086951,1448298087475,967,300,0,0,0,3,0,3,3,0002-00-0001-11.png,0001-00-0001-65.png
00000009,204,0,1448298088400,1448298088420,862,410,0,0,0,0,2,2,2,0001-00-0000-76.png,0003-00-0000-34.png
00000009,205,1,1448298091672,1448298092191,485,262,0,0,0,0,4,4,4,0001-00-0000-72.png,0004-00-0000-48.png
00000009,206,1,1448298093379,1448298093524,913,421,0,0,0,2,0,2,2,0003-00-0000-40.png,0001-00-0001-38.png
00000009,207,0,1448298094562,1448298094641,878,444,0,0,0,0,1,1,1,0001-00-0001-50.png,0005-00-0001-23.png
00000009,208,1,1448298097543,1448298098071,1071,278,0,0,0,1,0,1,1,0005-00-0000-18.png,0001-00-0001-21.png
00000009,209,1,1448298098985,1448298099001,893,415,0,0,0,3,1,2,4,0002-00-0001-19.png,0005-00-0001-78.png
00000009,210,1,1448298099920,1448298100055,862,512,0,0,0,4,3,1,7,0004-00-0001-05.png,0002-00-0000-97.png
00000009,211,1,1448298101181,1448298101843,489,251,0,0,0,3,4,1,7,0002-00-0001-28.png,0004-00-0000-93.png
00000009,212,1,1448298102801,1448298103540,466,251,0,0,0,0,3,3,3,0001-00-0000-47.png,0002-00-0001-78.png
00000009,213,1,1448298104500,1448298105360,959,316,0,0,0,4,0,4,4,0004-00-0001-10.png,0001-00-0000-35.png
00000009,214,0,1448298106378,1448298106449,920,419,0,0,0,1,2,1,3,0005-00-0001-99.png,0003-00-0000-08.png
00000009,215,1,1448298109479,1448298110057,986,375,0,0,0,2,1,1,3,0003-00-0001-19.png,0005-00-0001-06.png
00000009,216,1,1448298110917,1448298110965,888,474,0,0,0,4,1,3,5,0004-00-0001-57.png,0005-00-0000-93.png
00000009,217,0,1448298111801,1448298111880,867,492,0,0,0,2,4,2,6,0003-00-0000-37.png,0004-00-0000-92.png
00000009,218,1,1448298115054,1448298115625,494,249,0,0,0,1,4,3,5,0005-00-0001-72.png,0004-00-0000-48.png
00000009,219,1,1448298117628,1448298118338,409,342,0,0,0,1,3,2,4,0005-00-0000-35.png,0002-00-0000-46.png
00000009,220,1,1448298119265,1448298120071,1093,275,0,0,0,4,2,2,6,0004-00-0001-60.png,0003-00-0001-03.png
00000009,221,1,1448298121022,1448298121105,899,462,0,0,0,4,0,4,4,0004-00-0001-87.png,0001-00-0001-26.png
00000009,222,0,1448298122119,1448298122183,862,449,0,0,0,0,1,1,1,0001-00-0001-38.png,0005-00-0000-94.png
00000009,223,0,1448298125307,1448298125808,960,323,0,0,0,2,4,2,6,0003-00-0001-46.png,0004-00-0000-99.png
00000009,224,1,1448298129067,1448298129851,470,279,0,0,0,0,2,2,2,0001-00-0001-93.png,0003-00-0001-38.png
00000009,225,1,1448298130754,1448298130792,876,454,0,0,0,2,1,1,3,0003-00-0000-36.png,0005-00-0001-63.png
00000009,226,0,1448298131738,1448298132542,1067,279,0,0,0,2,3,1,5,0003-00-0001-14.png,0002-00-0000-90.png
00000009,227,0,1448298135506,1448298136060,964,332,0,0,0,3,4,1,7,0002-00-0001-34.png,0004-00-0001-66.png
00000009,228,0,1448298139618,1448298140267,478,270,0,0,0,4,3,1,7,0004-00-0001-54.png,0002-00-0001-47.png
00000009,229,1,1448298143376,1448298144031,407,394,0,0,0,1,4,3,5,0005-00-0000-73.png,0004-00-0001-74.png
00000009,230,1,1448298144943,1448298145748,1067,270,0,0,0,4,1,3,5,0004-00-0001-12.png,0005-00-0000-25.png
00000009,231,1,1448298146695,1448298146755,888,436,0,0,0,4,2,2,6,0004-00-0001-23.png,0003-00-0001-02.png
00000009,232,0,1448298147757,1448298148457,473,245,0,0,0,3,2,1,5,0002-00-0000-32.png,0003-00-0000-45.png
00000009,233,0,1448298151564,1448298151600,876,358,0,0,0,1,2,1,3,0005-00-0000-78.png,0003-00-0000-44.png
00000009,234,0,1448298154835,1448298155729,418,355,0,0,0,3,1,2,4,0002-00-0001-01.png,0005-00-0000-36.png
00000009,235,1,1448298158831,1448298159329,984,308,0,0,0,3,0,3,3,0002-00-0001-32.png,0001-00-0000-14.png
00000009,236,0,1448298160198,1448298160258,862,448,0,0,0,0,3,3,3,0001-00-0001-73.png,0002-00-0000-92.png
00000009,237,0,1448298163370,1448298163428,953,357,0,0,0,0,4,4,4,0001-00-0000-94.png,0004-00-0000-69.png
00000009,238,0,1448298166560,1448298167097,468,259,0,0,0,2,0,2,2,0003-00-0001-60.png,0001-00-0001-75.png
00000009,239,1,1448298170945,1448298171629,477,229,0,0,0,1,3,2,4,0005-00-0000-66.png,0002-00-0000-14.png
00000009,240,0,1448298172504,1448298173280,471,239,0,0,0,1,0,1,1,0005-00-0001-52.png,0001-00-0001-12.png
00000009,241,1,1448298176848,1448298177461,435,376,0,0,0,3,4,1,7,0002-00-0000-78.png,0004-00-0001-39.png
00000009,242,0,1448298178337,1448298179056,1041,253,0,0,0,1,3,2,4,0005-00-0000-38.png,0002-00-0001-71.png
00000009,243,1,1448298182133,1448298182618,988,278,0,0,0,3,0,3,3,0002-00-0000-31.png,0001-00-0001-57.png
00000009,244,1,1448298184042,1448298184701,1050,296,0,0,0,4,1,3,5,0004-00-0000-03.png,0005-00-0000-62.png
00000009,245,0,1448298185703,1448298185751,874,407,0,0,0,1,4,3,5,0005-00-0000-04.png,0004-00-0000-68.png
00000009,246,1,1448298188805,1448298188841,878,359,0,0,0,2,1,1,3,0003-00-0001-98.png,0005-00-0000-76.png
00000009,247,1,1448298189856,1448298190732,974,402,0,0,0,4,2,2,6,0004-00-0001-20.png,0003-00-0000-30.png
00000009,248,1,1448298191622,1448298192425,975,308,0,0,0,4,3,1,7,0004-00-0001-55.png,0002-00-0001-01.png
00000009,249,1,1448298193415,1448298193459,899,426,0,0,0,2,0,2,2,0003-00-0000-67.png,0001-00-0000-14.png
00000009,250,1,1448298194447,1448298194503,862,410,0,0,0,3,1,2,4,0002-00-0000-02.png,0005-00-0000-60.png
00000009,251,1,1448298195631,1448298195707,892,443,0,0,0,1,0,1,1,0005-00-0001-45.png,0001-00-0001-25.png
00000009,252,0,1448298196803,1448298196864,862,449,0,0,0,2,4,2,6,0003-00-0000-57.png,0004-00-0001-16.png
00000009,253,0,1448298199943,1448298200579,964,332,0,0,0,0,1,1,1,0001-00-0000-36.png,0005-00-0001-43.png
00000009,254,1,1448298203749,1448298203785,900,333,0,0,0,4,0,4,4,0004-00-0001-84.png,0001-00-0000-45.png
00000009,255,1,1448298204753,1448298205333,395,372,0,0,0,0,2,2,2,0001-00-0001-92.png,0003-00-0000-22.png
00000009,256,1,1448298206234,1448298206846,489,244,0,0,0,0,4,4,4,0001-00-0001-92.png,0004-00-0001-29.png
00000009,257,0,1448298207732,1448298208524,1051,287,0,0,0,2,3,1,5,0003-00-0001-39.png,0002-00-0001-74.png
00000009,258,0,1448298211630,1448298211650,903,360,0,0,0,0,3,3,3,0001-00-0000-25.png,0002-00-0001-39.png
00000009,259,0,1448298214800,1448298214820,892,328,0,0,0,1,2,1,3,0005-00-0000-63.png,0003-00-0000-61.png
00000009,260,1,1448298218018,1448298218054,966,276,0,0,0,3,2,1,5,0002-00-0000-24.png,0003-00-0000-06.png
00000009,261,1,1448298219004,1448298219698,1067,245,0,0,0,3,0,3,3,0002-00-0000-87.png,0001-00-0001-56.png
00000009,262,0,1448298220573,1448298220581,920,369,0,0,0,2,4,2,6,0003-00-0001-73.png,0004-00-0001-70.png
00000009,263,1,1448298223854,1448298224407,508,241,0,0,0,0,3,3,3,0001-00-0000-38.png,0002-00-0000-72.png
00000009,264,0,1448298225304,1448298225348,860,445,0,0,0,1,3,2,4,0005-00-0000-61.png,0002-00-0000-24.png
00000009,265,1,1448298228364,1448298228947,964,332,0,0,0,4,1,3,5,0004-00-0001-54.png,0005-00-0000-34.png
00000009,266,1,1448298229793,1448298230599,401,332,0,0,0,1,2,1,3,0005-00-0000-32.png,0003-00-0000-61.png
00000009,267,1,1448298231495,1448298232168,477,263,0,0,0,0,4,4,4,0001-00-0001-91.png,0004-00-0001-66.png
00000009,268,1,1448298233185,1448298233785,472,263,0,0,0,1,4,3,5,0005-00-0000-08.png,0004-00-0001-98.png
00000009,269,1,1448298234792,1448298235672,950,384,0,0,0,4,2,2,6,0004-00-0001-48.png,0003-00-0000-41.png
00000009,270,0,1448298236582,1448298236638,888,410,0,0,0,2,3,1,5,0003-00-0001-57.png,0002-00-0001-80.png
00000009,271,1,1448298239607,1448298240171,964,332,0,0,0,2,1,1,3,0003-00-0000-58.png,0005-00-0001-98.png
00000009,272,1,1448298241572,1448298241734,960,552,0,0,0,4,3,1,7,0004-00-0000-60.png,0002-00-0000-81.png
00000009,273,1,1448298242772,1448298243563,1091,316,0,0,0,1,0,1,1,0005-00-0001-06.png,0001-00-0000-63.png
00000009,274,0,1448298244513,1448298244549,917,465,0,0,0,3,4,1,7,0002-00-0001-16.png,0004-00-0000-63.png
00000009,275,1,1448298248101,1448298248129,931,335,0,0,0,4,0,4,4,0004-00-0000-55.png,0001-00-0001-69.png
00000009,276,1,1448298249062,1448298249122,862,470,0,0,0,2,0,2,2,0003-00-0001-79.png,0001-00-0000-94.png
00000009,277,0,1448298250098,1448298250154,871,488,0,0,0,0,1,1,1,0001-00-0001-28.png,0005-00-0001-92.png
00000009,278,1,1448298253205,1448298253253,915,331,0,0,0,3,1,2,4,0002-00-0000-80.png,0005-00-0001-89.png
00000009,279,1,1448298254297,1448298254321,859,410,0,0,0,3,2,1,5,0002-00-0000-67.png,0003-00-0001-49.png
00000009,280,0,1448298255402,1448298255414,873,407,0,0,0,0,2,2,2,0001-00-0000-03.png,0003-00-0000-42.png
00000009,281,0,1448298258494,1448298258510,888,358,0,0,0,0,2,2,2,0001-00-0001-68.png,0003-00-0001-90.png
00000009,282,0,1448298261526,1448298261542,862,413,0,0,0,2,3,1,5,0003-00-0001-41.png,0002-00-0001-11.png
00000009,283,1,1448298264416,1448298265214,966,332,0,0,0,3,2,1,5,0002-00-0000-39.png,0003-00-0000-39.png
00000009,284,0,1448298266466,1448298266698,958,493,0,0,0,0,4,4,4,0001-00-0001-42.png,0004-00-0000-78.png
00000009,285,1,1448298269925,1448298270467,971,339,0,0,0,3,1,2,4,0002-00-0001-85.png,0005-00-0001-48.png
00000009,286,1,1448298271311,1448298271363,881,444,0,0,0,4,3,1,7,0004-00-0000-95.png,0002-00-0001-08.png
00000009,287,1,1448298272320,1448298272356,862,436,0,0,0,4,1,3,5,0004-00-0000-09.png,0005-00-0001-58.png
00000009,288,1,1448298273468,1448298274227,492,242,0,0,0,1,4,3,5,0005-00-0001-05.png,0004-00-0000-96.png
00000009,289,1,1448298275260,1448298275296,862,422,0,0,0,4,0,4,4,0004-00-0000-80.png,0001-00-0000-08.png
00000009,290,0,1448298276462,1448298276530,877,462,0,0,0,1,2,1,3,0005-00-0001-53.png,0003-00-0000-05.png
00000009,291,1,1448298279623,1448298279647,901,353,0,0,0,2,1,1,3,0003-00-0000-98.png,0005-00-0000-18.png
00000009,292,0,1448298280576,1448298280621,862,410,0,0,0,0,3,3,3,0001-00-0001-38.png,0002-00-0000-00.png
00000009,293,0,1448298283755,1448298283776,913,322,0,0,0,1,3,2,4,0005-00-0001-59.png,0002-00-0000-51.png
00000009,294,0,1448298286698,1448298287193,1067,292,0,0,0,2,4,2,6,0003-00-0000-53.png,0004-00-0001-78.png
00000009,295,1,1448298290582,1448298291190,1118,263,0,0,0,1,0,1,1,0005-00-0000-18.png,0001-00-0001-96.png
00000009,296,1,1448298292042,1448298292062,890,408,0,0,0,3,0,3,3,0002-00-0001-25.png,0001-00-0001-44.png
00000009,297,1,1448298293434,1448298293495,862,446,0,0,0,2,0,2,2,0003-00-0001-74.png,0001-00-0001-97.png
00000009,298,0,1448298294408,1448298294522,862,493,0,0,0,0,1,1,1,0001-00-0001-56.png,0005-00-0000-24.png
00000009,299,1,1448298298027,1448298298570,964,332,0,0,0,4,2,2,6,0004-00-0001-63.png,0003-00-0001-35.png
00000009,300,0,1448298299435,1448298299515,879,436,0,0,0,3,4,1,7,0002-00-0001-40.png,0004-00-0000-26.png
00000009,301,1,1448298302587,1448298303202,472,309,0,0,0,1,4,3,5,0005-00-0000-54.png,0004-00-0000-50.png
00000009,302,0,1448298304037,1448298304105,862,422,0,0,0,3,4,1,7,0002-00-0000-79.png,0004-00-0001-18.png
00000009,303,1,1448298307228,1448298307871,1067,263,0,0,0,3,1,2,4,0002-00-0001-52.png,0005-00-0001-25.png
00000009,304,1,1448298308769,1448298308785,900,383,0,0,0,3,0,3,3,0002-00-0001-56.png,0001-00-0001-98.png
00000009,305,1,1448298309782,1448298310565,485,243,0,0,0,0,4,4,4,0001-00-0001-54.png,0004-00-0000-21.png
00000009,306,1,1448298311432,1448298312167,477,244,0,0,0,0,3,3,3,0001-00-0001-10.png,0002-00-0001-26.png
00000009,307,1,1448298313070,1448298313118,862,375,0,0,0,4,1,3,5,0004-00-0000-72.png,0005-00-0001-09.png
00000009,308,0,1448298314225,1448298315293,975,309,0,0,0,2,4,2,6,0003-00-0001-82.png,0004-00-0001-95.png
00000009,309,1,1448298318427,1448298318927,1051,279,0,0,0,2,1,1,3,0003-00-0000-80.png,0005-00-0000-55.png
00000009,310,1,1448298319768,1448298319796,862,436,0,0,0,4,2,2,6,0004-00-0001-94.png,0003-00-0001-95.png
00000009,311,1,1448298320736,1448298321572,402,347,0,0,0,0,1,1,1,0001-00-0000-07.png,0005-00-0001-13.png
00000009,312,1,1448298322441,1448298323103,1051,272,0,0,0,2,0,2,2,0003-00-0000-01.png,0001-00-0001-92.png
00000009,313,1,1448298323971,1448298323999,866,411,0,0,0,4,0,4,4,0004-00-0000-27.png,0001-00-0001-42.png
00000009,314,1,1448298324987,1448298325015,866,397,0,0,0,3,2,1,5,0002-00-0000-38.png,0003-00-0001-95.png
00000009,315,0,1448298326031,1448298326059,862,398,0,0,0,2,3,1,5,0003-00-0000-19.png,0002-00-0000-23.png
00000009,316,1,1448298329169,1448298329696,1072,272,0,0,0,4,3,1,7,0004-00-0001-01.png,0002-00-0001-33.png
00000009,317,1,1448298330537,1448298330557,873,389,0,0,0,1,0,1,1,0005-00-0001-88.png,0001-00-0000-34.png
00000009,318,0,1448298331484,1448298331532,881,420,0,0,0,1,2,1,3,0005-00-0000-48.png,0003-00-0000-60.png
00000009,319,0,1448298334496,1448298334524,893,357,0,0,0,0,2,2,2,0001-00-0001-30.png,0003-00-0001-86.png
00000009,320,0,1448298337714,1448298337753,968,310,0,0,0,1,3,2,4,0005-00-0000-13.png,0002-00-0001-72.png
00000009,321,1,1448298340777,1448298341290,990,332,0,0,0,2,1,1,3,0003-00-0001-68.png,0005-00-0000-62.png
00000009,322,1,1448298342685,1448298343237,1041,268,0,0,0,2,0,2,2,0003-00-0000-09.png,0001-00-0001-52.png
00000009,323,1,1448298344114,1448298344166,885,420,0,0,0,3,0,3,3,0002-00-0001-23.png,0001-00-0000-01.png
00000009,324,0,1448298345119,1448298345813,465,250,0,0,0,1,0,1,1,0005-00-0000-99.png,0001-00-0001-89.png
00000009,325,1,1448298348688,1448298349260,411,332,0,0,0,0,4,4,4,0001-00-0001-89.png,0004-00-0000-40.png
00000009,326,1,1448298350140,1448298350878,480,239,0,0,0,1,4,3,5,0005-00-0000-14.png,0004-00-0001-16.png
00000009,327,1,1448298351837,1448298352570,501,280,0,0,0,1,2,1,3,0005-00-0000-55.png,0003-00-0000-10.png
00000009,328,1,1448298353616,1448298353689,862,462,0,0,0,3,1,2,4,0002-00-0001-89.png,0005-00-0000-42.png
00000009,329,1,1448298354740,1448298354784,876,436,0,0,0,3,2,1,5,0002-00-0001-89.png,0003-00-0000-10.png
00000009,330,0,1448298355873,1448298355929,878,469,0,0,0,2,3,1,5,0003-00-0000-76.png,0002-00-0000-64.png
00000009,331,1,1448298358834,1448298359413,441,410,0,0,0,0,3,3,3,0001-00-0000-28.png,0002-00-0001-75.png
00000009,332,1,1448298360710,1448298360730,863,382,0,0,0,4,0,4,4,0004-00-0000-64.png,0001-00-0001-31.png
00000009,333,0,1448298362083,1448298362143,883,462,0,0,0,1,3,2,4,0005-00-0001-04.png,0002-00-0001-38.png
00000009,334,1,1448298365014,1448298365034,866,409,0,0,0,4,2,2,6,0004-00-0000-98.png,0003-00-0001-60.png
00000009,335,1,1448298366109,1448298366165,888,453,0,0,0,4,1,3,5,0004-00-0000-21.png,0005-00-0000-03.png
00000009,336,1,1448298367091,1448298367159,862,460,0,0,0,4,3,1,7,0004-00-0000-18.png,0002-00-0000-28.png
00000009,337,0,1448298368283,1448298368303,871,461,0,0,0,2,4,2,6,0003-00-0000-28.png,0004-00-0000-24.png
00000009,338,0,1448298371462,1448298371588,863,300,0,0,0,0,2,2,2,0001-00-0001-19.png,0003-00-0001-46.png
00000009,339,1,1448298374973,1448298375519,420,362,0,0,0,3,4,1,7,0002-00-0000-27.png,0004-00-0000-28.png
00000009,340,1,1448298376422,1448298377056,453,245,0,0,0,0,1,1,1,0001-00-0001-82.png,0005-00-0001-73.png
00000009,341,0,1448298377973,1448298378001,862,410,0,0,0,0,3,3,3,0001-00-0001-45.png,0002-00-0000-47.png
00000009,342,1,1448298381112,1448298381635,478,410,0,0,0,0,4,4,4,0001-00-0001-64.png,0004-00-0001-71.png
00000009,343,1,1448298382484,1448298383216,964,398,0,0,0,1,0,1,1,0005-00-0001-16.png,0001-00-0001-62.png
00000009,344,1,1448298384093,1448298384142,869,412,0,0,0,4,2,2,6,0004-00-0000-61.png,0003-00-0001-42.png
00000009,345,1,1448298385118,1448298385162,888,426,0,0,0,2,0,2,2,0003-00-0001-99.png,0001-00-0000-48.png
00000009,346,1,1448298386260,1448298386276,863,418,0,0,0,3,1,2,4,0002-00-0000-30.png,0005-00-0000-02.png
00000009,347,0,1448298387412,1448298387432,865,431,0,0,0,1,3,2,4,0005-00-0000-56.png,0002-00-0000-02.png
00000009,348,1,1448298390551,1448298391037,990,306,0,0,0,4,1,3,5,0004-00-0001-03.png,0005-00-0001-98.png
00000009,349,0,1448298392351,1448298392380,905,377,0,0,0,2,3,1,5,0003-00-0001-11.png,0002-00-0000-73.png
00000009,350,1,1448298395592,1448298396088,1083,279,0,0,0,3,0,3,3,0002-00-0001-55.png,0001-00-0000-17.png
00000009,351,1,1448298396919,1448298396963,867,431,0,0,0,4,3,1,7,0004-00-0000-71.png,0002-00-0001-51.png
00000009,352,1,1448298397848,1448298397913,872,488,0,0,0,4,0,4,4,0004-00-0001-07.png,0001-00-0001-58.png
00000009,353,0,1448298398950,1448298399025,888,436,0,0,0,1,4,3,5,0005-00-0000-78.png,0004-00-0001-69.png
00000009,354,0,1448298402140,1448298402176,898,332,0,0,0,0,2,2,2,0001-00-0001-17.png,0003-00-0000-74.png
00000009,355,1,1448298405012,1448298405717,414,374,0,0,0,2,4,2,6,0003-00-0000-88.png,0004-00-0000-74.png
00000009,356,0,1448298406560,1448298406588,868,390,0,0,0,1,2,1,3,0005-00-0001-39.png,0003-00-0001-67.png
00000009,357,0,1448298409793,1448298409829,956,334,0,0,0,3,4,1,7,0002-00-0000-90.png,0004-00-0001-38.png
00000009,358,1,1448298412953,1448298413456,509,287,0,0,0,0,1,1,1,0001-00-0000-45.png,0005-00-0000-75.png
00000009,359,1,1448298414829,1448298415702,938,339,0,0,0,3,2,1,5,0002-00-0001-74.png,0003-00-0001-41.png
00000009,360,1,1448298416668,1448298416765,888,472,0,0,0,2,1,1,3,0003-00-0000-38.png,0005-00-0001-16.png
00000009,361,0,1448298417821,1448298417865,888,436,0,0,0,1,2,1,3,0005-00-0001-11.png,0003-00-0001-99.png
00000009,362,1,1448298421241,1448298421759,957,324,0,0,0,4,3,1,7,0004-00-0000-48.png,0002-00-0001-74.png
00000009,363,1,1448298422651,1448298423360,483,245,0,0,0,0,1,1,1,0001-00-0000-03.png,0005-00-0001-05.png
00000009,364,1,1448298424278,1448298424961,1067,269,0,0,0,3,1,2,4,0002-00-0000-37.png,0005-00-0000-26.png
00000009,365,1,1448298425880,1448298426873,964,440,0,0,0,4,1,3,5,0004-00-0000-91.png,0005-00-0001-83.png
00000009,366,1,1448298427776,1448298427847,889,486,0,0,0,4,2,2,6,0004-00-0001-67.png,0003-00-0001-55.png
00000009,367,1,1448298429019,1448298429047,900,441,0,0,0,3,0,3,3,0002-00-0001-45.png,0001-00-0000-76.png
00000009,368,0,1448298430134,1448298430797,489,267,0,0,0,3,2,1,5,0002-00-0000-28.png,0003-00-0000-78.png
00000009,369,1,1448298433918,1448298434422,495,253,0,0,0,0,4,4,4,0001-00-0000-80.png,0004-00-0000-40.png
00000009,370,1,1448298435400,1448298435964,1037,270,0,0,0,2,0,2,2,0003-00-0001-51.png,0001-00-0001-92.png
00000009,371,0,1448298436798,1448298436830,888,394,0,0,0,3,4,1,7,0002-00-0001-62.png,0004-00-0001-45.png
00000009,372,0,1448298440097,1448298440351,1012,330,0,0,0,0,2,2,2,0001-00-0000-29.png,0003-00-0000-73.png
00000009,373,1,1448298443529,1448298444076,437,410,0,0,0,2,3,1,5,0003-00-0000-39.png,0002-00-0001-48.png
00000009,374,1,1448298445002,1448298445590,966,297,0,0,0,4,0,4,4,0004-00-0001-80.png,0001-00-0001-02.png
00000009,375,0,1448298446436,1448298446490,888,446,0,0,0,2,4,2,6,0003-00-0001-46.png,0004-00-0000-89.png
00000009,376,0,1448298449380,1448298449408,960,383,0,0,0,1,3,2,4,0005-00-0000-53.png,0002-00-0000-86.png
00000009,377,1,1448298452503,1448298453044,454,284,0,0,0,1,4,3,5,0005-00-0000-26.png,0004-00-0000-02.png
00000009,378,1,1448298454391,1448298454947,1043,250,0,0,0,2,1,1,3,0003-00-0000-34.png,0005-00-0000-33.png
00000009,379,0,1448298455788,1448298455833,873,436,0,0,0,0,3,3,3,0001-00-0000-01.png,0002-00-0000-97.png
00000009,380,1,1448298459122,1448298459712,963,328,0,0,0,1,0,1,1,0005-00-0000-68.png,0001-00-0000-90.png
00000009,381,1,1448298461050,1448298461066,863,382,0,0,0,2,1,1,3,0003-00-0000-77.png,0005-00-0001-01.png
00000009,382,1,1448298462052,1448298462139,862,462,0,0,0,3,2,1,5,0002-00-0000-72.png,0003-00-0001-66.png
00000009,383,1,1448298463173,1448298463234,868,429,0,0,0,4,0,4,4,0004-00-0000-93.png,0001-00-0000-13.png
00000009,384,1,1448298464249,1448298465003,504,252,0,0,0,1,2,1,3,0005-00-0000-90.png,0003-00-0000-34.png
00000009,385,1,1448298465966,1448298466636,492,251,0,0,0,0,4,4,4,0001-00-0000-99.png,0004-00-0001-93.png
00000009,386,1,1448298467876,1448298468930,476,247,0,0,0,2,4,2,6,0003-00-0000-32.png,0004-00-0001-66.png
00000009,387,1,1448298469882,1448298470492,495,263,0,0,0,0,1,1,1,0001-00-0001-20.png,0005-00-0000-82.png
00000009,388,1,1448298471612,1448298472250,490,240,0,0,0,1,3,2,4,0005-00-0000-07.png,0002-00-0001-35.png
00000009,389,0,1448298473162,1448298473190,869,431,0,0,0,0,2,2,2,0001-00-0001-53.png,0003-00-0000-95.png
00000009,390,1,1448298476371,1448298476837,1076,253,0,0,0,3,0,3,3,0002-00-0000-72.png,0001-00-0000-60.png
00000009,391,0,1448298477692,1448298477712,913,384,0,0,0,1,4,3,5,0005-00-0001-18.png,0004-00-0000-47.png
00000009,392,1,1448298481043,1448298481553,1041,279,0,0,0,4,1,3,5,0004-00-0000-50.png,0005-00-0000-45.png
00000009,393,0,1448298482830,1448298483505,963,304,0,0,0,2,3,1,5,0003-00-0001-52.png,0002-00-0000-77.png
00000009,394,1,1448298486676,1448298487135,964,384,0,0,0,4,2,2,6,0004-00-0001-12.png,0003-00-0000-31.png
00000009,395,1,1448298488040,1448298488116,896,494,0,0,0,2,0,2,2,0003-00-0001-04.png,0001-00-0000-84.png
00000009,396,1,1448298489102,1448298489184,913,480,0,0,0,1,0,1,1,0005-00-0000-78.png,0001-00-0000-19.png
00000009,397,1,1448298490175,1448298490211,863,460,0,0,0,4,3,1,7,0004-00-0000-02.png,0002-00-0000-40.png
00000009,398,1,1448298491368,1448298491428,888,462,0,0,0,3,1,2,4,0002-00-0000-51.png,0005-00-0000-81.png
00000009,399,0,1448298492470,1448298492487,869,447,0,0,0,0,3,3,3,0001-00-0001-72.png,0002-00-0000-47.png
00000009,400,0,1448298495621,1448298495645,888,332,0,0,0,3,4,1,7,0002-00-0000-13.png,0004-00-0001-05.png
00000009,401,1,1448298498802,1448298499357,937,290,0,0,0,4,3,1,7,0004-00-0000-68.png,0002-00-0001-85.png
00000009,402,1,1448298500273,1448298500289,873,429,0,0,0,4,2,2,6,0004-00-0000-97.png,0003-00-0000-42.png
00000009,403,1,1448298501276,1448298501336,862,462,0,0,0,3,0,3,3,0002-00-0001-24.png,0001-00-0000-73.png
00000009,404,1,1448298502299,1448298503341,481,239,0,0,0,3,4,1,7,0002-00-0001-47.png,0004-00-0000-69.png
00000009,405,0,1448298504298,1448298504354,892,428,0,0,0,1,4,3,5,0005-00-0001-07.png,0004-00-0000-80.png
00000009,406,1,1448298507189,1448298507302,955,307,0,0,0,4,0,4,4,0004-00-0000-08.png,0001-00-0000-65.png
00000009,407,0,1448298508309,1448298508357,862,424,0,0,0,1,2,1,3,0005-00-0001-08.png,0003-00-0000-94.png
00000009,408,0,1448298511512,1448298511974,995,298,0,0,0,2,4,2,6,0003-00-0001-74.png,0004-00-0000-12.png
00000009,409,1,1448298515200,1448298515823,1001,430,0,0,0,3,2,1,5,0002-00-0001-08.png,0003-00-0000-08.png
00000009,410,0,1448298516759,1448298516771,862,406,0,0,0,0,1,1,1,0001-00-0000-78.png,0005-00-0001-61.png
00000009,411,1,1448298519950,1448298520592,478,264,0,0,0,2,3,1,5,0003-00-0001-72.png,0002-00-0000-17.png
00000009,412,1,1448298521425,1448298522479,472,368,0,0,0,0,3,3,3,0001-00-0001-83.png,0002-00-0001-55.png
00000009,413,1,1448298523312,1448298523364,861,441,0,0,0,1,0,1,1,0005-00-0000-04.png,0001-00-0000-44.png
00000009,414,1,1448298524258,1448298525056,1030,253,0,0,0,2,1,1,3,0003-00-0001-16.png,0005-00-0000-05.png
00000009,415,1,1448298525938,1448298525958,870,386,0,0,0,4,1,3,5,0004-00-0001-80.png,0005-00-0000-17.png
00000009,416,1,1448298527044,1448298528269,472,245,0,0,0,1,3,2,4,0005-00-0001-61.png,0002-00-0001-23.png
00000009,417,1,1448298529239,1448298529957,940,299,0,0,0,3,1,2,4,0002-00-0001-60.png,0005-00-0001-51.png
00000009,418,0,1448298530918,1448298530958,872,410,0,0,0,0,4,4,4,0001-00-0000-53.png,0004-00-0001-16.png
00000009,419,1,1448298534229,1448298534788,1065,311,0,0,0,2,0,2,2,0003-00-0000-78.png,0001-00-0001-33.png
00000009,420,0,1448298535868,1448298535904,889,411,0,0,0,0,2,2,2,0001-00-0001-62.png,0003-00-0000-29.png
00000009,421,1,1448298538979,1448298539769,967,338,0,0,0,4,2,2,6,0004-00-0000-80.png,0003-00-0001-52.png
00000009,422,1,1448298540874,1448298541760,939,332,0,0,0,2,0,2,2,0003-00-0001-61.png,0001-00-0000-90.png
00000009,423,0,1448298542654,1448298542683,866,455,0,0,0,1,2,1,3,0005-00-0000-39.png,0003-00-0000-86.png
00000009,424,0,1448298545593,1448298545626,890,389,0,0,0,0,2,2,2,0001-00-0000-27.png,0003-00-0000-72.png
00000009,425,0,1448298548835,1448298548883,961,331,0,0,0,2,3,1,5,0003-00-0001-36.png,0002-00-0001-23.png
00000009,426,1,1448298552165,1448298552189,915,327,0,0,0,4,1,3,5,0004-00-0000-13.png,0005-00-0000-09.png
00000009,427,1,1448298553416,1448298554008,469,245,0,0,0,1,4,3,5,0005-00-0001-78.png,0004-00-0001-74.png
00000009,428,1,1448298554856,1448298555492,463,251,0,0,0,0,3,3,3,0001-00-0000-39.png,0002-00-0001-00.png
00000009,429,0,1448298556478,1448298557073,466,265,0,0,0,3,2,1,5,0002-00-0000-76.png,0003-00-0000-58.png
00000009,430,0,1448298560237,1448298560840,463,258,0,0,0,3,1,2,4,0002-00-0001-86.png,0005-00-0000-18.png
00000009,431,1,1448298563968,1448298564028,892,380,0,0,0,4,0,4,4,0004-00-0000-44.png,0001-00-0000-64.png
00000009,432,1,1448298565034,1448298565780,1077,313,0,0,0,3,0,3,3,0002-00-0001-88.png,0001-00-0000-97.png
00000009,433,0,1448298566622,1448298566662,883,410,0,0,0,1,3,2,4,0005-00-0000-81.png,0002-00-0001-82.png
00000009,434,0,1448298569829,1448298569943,860,302,0,0,0,3,4,1,7,0002-00-0001-84.png,0004-00-0001-42.png
00000009,435,1,1448298572865,1448298573774,465,290,0,0,0,0,4,4,4,0001-00-0001-58.png,0004-00-0000-19.png
00000009,436,0,1448298574631,1448298575352,939,315,0,0,0,2,4,2,6,0003-00-0001-45.png,0004-00-0001-68.png
00000009,437,1,1448298578549,1448298578569,892,338,0,0,0,1,0,1,1,0005-00-0000-78.png,0001-00-0001-91.png
00000009,438,1,1448298579517,1448298579589,870,478,0,0,0,4,3,1,7,0004-00-0001-20.png,0002-00-0001-96.png
00000009,439,0,1448298580561,1448298580629,862,473,0,0,0,0,1,1,1,0001-00-0000-00.png,0005-00-0001-39.png
00000009,440,1,1448298583806,1448298584341,964,371,0,0,0,2,1,1,3,0003-00-0001-86.png,0005-00-0001-55.png
00000009,441,1,1448298585675,1448298586293,472,235,0,0,0,3,4,1,7,0002-00-0001-97.png,0004-00-0001-78.png
00000009,442,1,1448298587205,1448298587987,1045,277,0,0,0,2,1,1,3,0003-00-0000-77.png,0005-00-0001-28.png
00000009,443,1,1448298589612,1448298590217,1048,269,0,0,0,4,0,4,4,0004-00-0001-74.png,0001-00-0001-45.png
00000009,444,1,1448298591092,1448298591782,1050,328,0,0,0,1,0,1,1,0005-00-0000-55.png,0001-00-0000-51.png
00000009,445,0,1448298592931,1448298592999,894,462,0,0,0,1,3,2,4,0005-00-0001-75.png,0002-00-0000-32.png
00000009,446,1,1448298596148,1448298596176,872,331,0,0,0,3,1,2,4,0002-00-0001-53.png,0005-00-0000-04.png
00000009,447,1,1448298597139,1448298598311,490,246,0,0,0,1,4,3,5,0005-00-0000-05.png,0004-00-0001-65.png
00000009,448,0,1448298599188,1448298599240,869,401,0,0,0,2,3,1,5,0003-00-0001-48.png,0002-00-0001-67.png
00000009,449,0,1448298602429,1448298602461,888,306,0,0,0,1,2,1,3,0005-00-0000-72.png,0003-00-0001-43.png
00000009,450,1,1448298605358,1448298605827,478,267,0,0,0,0,2,2,2,0001-00-0001-19.png,0003-00-0001-00.png
00000009,451,0,1448298606762,1448298607412,490,237,0,0,0,4,2,2,6,0004-00-0000-52.png,0003-00-0001-96.png
00000009,452,0,1448298610377,1448298610435,939,357,0,0,0,0,1,1,1,0001-00-0001-95.png,0005-00-0001-74.png
00000009,453,1,1448298613618,1448298614163,1016,412,0,0,0,4,1,3,5,0004-00-0000-14.png,0005-00-0000-30.png
00000009,454,1,1448298615077,1448298615149,910,443,0,0,0,3,2,1,5,0002-00-0001-87.png,0003-00-0000-06.png
00000009,455,0,1448298616218,1448298616268,861,440,0,0,0,2,4,2,6,0003-00-0000-15.png,0004-00-0001-52.png
00000009,456,1,1448298621055,1448298621538,435,402,0,0,0,0,3,3,3,0001-00-0001-46.png,0002-00-0000-04.png
00000009,457,0,1448298622535,1448298623217,413,381,0,0,0,4,3,1,7,0004-00-0000-76.png,0002-00-0001-04.png
00000009,458,1,1448298626559,1448298627030,1063,314,0,0,0,3,0,3,3,0002-00-0001-67.png,0001-00-0000-77.png
00000009,459,0,1448298627896,1448298627927,889,397,0,0,0,0,4,4,4,0001-00-0000-54.png,0004-00-0001-61.png
00000009,460,1,1448298631216,1448298631713,1081,266,0,0,0,2,0,2,2,0003-00-0000-60.png,0001-00-0001-73.png
00000009,461,1,1448298633049,1448298633740,930,326,0,0,0,3,1,2,4,0002-00-0000-03.png,0005-00-0001-73.png
00000009,462,1,1448298634788,1448298635478,406,354,0,0,0,1,4,3,5,0005-00-0001-29.png,0004-00-0001-75.png
00000009,463,1,1448298636546,1448298637616,470,242,0,0,0,3,4,1,7,0002-00-0000-42.png,0004-00-0001-21.png
00000009,464,1,1448298638534,1448298639216,491,241,0,0,0,0,4,4,4,0001-00-0000-81.png,0004-00-0001-50.png
00000009,465,1,1448298640403,1448298641214,489,245,0,0,0,1,3,2,4,0005-00-0001-56.png,0002-00-0001-36.png
00000009,466,0,1448298642199,1448298643022,521,248,0,0,0,4,3,1,7,0004-00-0000-00.png,0002-00-0000-51.png
00000009,467,1,1448298646183,1448298646808,1067,343,0,0,0,4,0,4,4,0004-00-0001-75.png,0001-00-0000-86.png
00000009,468,1,1448298648121,1448298648717,495,260,0,0,0,1,2,1,3,0005-00-0000-44.png,0003-00-0000-36.png
00000009,469,1,1448298649643,1448298650487,963,331,0,0,0,4,2,2,6,0004-00-0000-03.png,0003-00-0001-38.png
00000009,470,1,1448298651361,1448298651417,883,463,0,0,0,1,0,1,1,0005-00-0001-87.png,0001-00-0000-37.png
00000009,471,1,1448298652573,1448298652641,878,462,0,0,0,3,2,1,5,0002-00-0000-20.png,0003-00-0000-52.png
00000009,472,0,1448298653747,1448298653783,880,470,0,0,0,2,3,1,5,0003-00-0001-80.png,0002-00-0000-60.png
00000009,473,1,1448298656937,1448298657591,506,265,0,0,0,2,4,2,6,0003-00-0000-43.png,0004-00-0000-76.png
00000009,474,0,1448298659094,1448298659685,516,237,0,0,0,4,1,3,5,0004-00-0000-76.png,0005-00-0001-58.png
00000009,475,0,1448298662628,1448298663254,511,239,0,0,0,3,0,3,3,0002-00-0000-18.png,0001-00-0001-75.png
00000009,476,1,1448298666226,1448298666272,953,436,0,0,0,2,1,1,3,0003-00-0001-46.png,0005-00-0001-79.png
00000009,477,1,1448298667241,1448298668179,398,347,0,0,0,0,2,2,2,0001-00-0001-77.png,0003-00-0001-55.png
00000009,478,0,1448298669198,1448298669230,866,363,0,0,0,0,3,3,3,0001-00-0000-48.png,0002-00-0001-55.png
00000009,479,1,1448298672429,1448298673035,963,338,0,0,0,2,0,2,2,0003-00-0000-43.png,0001-00-0001-34.png
00000009,480,0,1448298673979,1448298674017,862,421,0,0,0,0,1,1,1,0001-00-0000-27.png,0005-00-0001-53.png
00000009,481,1,1448298677090,1448298677617,1068,306,0,0,0,4,1,3,5,0004-00-0000-78.png,0005-00-0000-37.png
00000009,482,1,1448298678500,1448298679522,985,334,0,0,0,4,3,1,7,0004-00-0000-98.png,0002-00-0000-71.png
00000009,483,1,1448298680460,1448298680482,866,402,0,0,0,4,0,4,4,0004-00-0001-39.png,0001-00-0001-12.png
00000009,484,1,1448298681590,1448298681638,879,410,0,0,0,3,0,3,3,0002-00-0000-42.png,0001-00-0000-87.png
00000009,485,0,1448298682646,1448298682686,896,437,0,0,0,0,2,2,2,0001-00-0000-14.png,0003-00-0000-19.png
00000009,486,1,1448298685875,1448298686422,504,237,0,0,0,3,4,1,7,0002-00-0000-38.png,0004-00-0001-20.png
00000009,487,1,1448298687304,1448298688165,491,227,0,0,0,1,3,2,4,0005-00-0000-77.png,0002-00-0001-01.png
00000009,488,1,1448298689063,1448298690233,372,367,0,0,0,1,2,1,3,0005-00-0000-16.png,0003-00-0001-55.png
00000009,489,0,1448298691183,1448298692383,939,372,0,0,0,2,3,1,5,0003-00-0000-59.png,0002-00-0000-10.png
00000009,490,1,1448298695724,1448298696243,498,271,0,0,0,0,3,3,3,0001-00-0000-18.png,0002-00-0000-96.png
00000009,491,1,1448298697351,1448298698135,479,227,0,0,0,1,4,3,5,0005-00-0001-10.png,0004-00-0001-39.png
00000009,492,1,1448298699019,1448298699063,862,395,0,0,0,4,2,2,6,0004-00-0000-26.png,0003-00-0000-11.png
00000009,493,0,1448298700006,1448298700073,862,453,0,0,0,2,4,2,6,0003-00-0000-94.png,0004-00-0000-21.png
00000009,494,1,1448298703279,1448298703528,872,365,0,0,0,3,1,2,4,0002-00-0000-10.png,0005-00-0001-41.png
00000009,495,0,1448298704548,1448298705208,494,255,0,0,0,1,0,1,1,0005-00-0000-67.png,0001-00-0001-97.png
00000009,496,1,1448298708485,1448298709063,960,331,0,0,0,3,2,1,5,0002-00-0001-08.png,0003-00-0000-39.png
00000009,497,1,1448298710071,1448298710139,879,444,0,0,0,2,0,2,2,0003-00-0000-77.png,0001-00-0000-33.png
00000009,498,1,1448298711133,1448298711281,879,514,0,0,0,2,1,1,3,0003-00-0001-35.png,0005-00-0001-80.png
00000009,499,0,1448298712359,1448298712420,903,482,0,0,0,0,4,4,4,0001-00-0000-20.png,0004-00-0001-67.png
00000009,500,0,1448298715535,1448298716425,1059,262,0,0,0,0,1,1,1,0001-00-0001-91.png,0005-00-0000-72.png
00000009,501,1,1448298719413,1448298719921,1071,278,0,0,0,4,1,3,5,0004-00-0000-72.png,0005-00-0000-32.png
00000009,502,1,1448298720843,1448298720919,913,447,0,0,0,3,0,3,3,0002-00-0001-93.png,0001-00-0001-37.png
00000009,503,0,1448298721761,1448298721826,862,436,0,0,0,2,3,1,5,0003-00-0000-15.png,0002-00-0001-74.png
00000009,504,0,1448298725005,1448298725027,898,308,0,0,0,1,3,2,4,0005-00-0001-05.png,0002-00-0001-27.png
00000009,505,0,1448298728167,1448298728234,976,350,0,0,0,2,4,2,6,0003-00-0001-27.png,0004-00-0001-29.png
00000009,506,0,1448298731339,1448298731375,950,354,0,0,0,3,4,1,7,0002-00-0001-25.png,0004-00-0000-87.png
00000009,507,1,1448298734425,1448298735011,521,304,0,0,0,1,4,3,5,0005-00-0000-02.png,0004-00-0000-45.png
00000009,508,1,1448298735929,1448298735977,874,396,0,0,0,4,2,2,6,0004-00-0000-07.png,0003-00-0001-61.png
00000009,509,1,1448298736862,1448298736911,862,424,0,0,0,4,3,1,7,0004-00-0000-56.png,0002-00-0001-63.png
00000009,510,1,1448298737974,1448298738842,934,333,0,0,0,2,0,2,2,0003-00-0001-75.png,0001-00-0001-07.png
00000009,511,0,1448298739865,1448298739901,887,419,0,0,0,0,1,1,1,0001-00-0000-49.png,0005-00-0000-69.png
00000009,512,1,1448298742760,1448298743365,495,242,0,0,0,0,4,4,4,0001-00-0001-13.png,0004-00-0000-75.png
00000009,513,1,1448298745089,1448298745109,913,294,0,0,0,1,0,1,1,0005-00-0001-98.png,0001-00-0001-98.png
00000009,514,1,1448298746107,1448298746956,1039,256,0,0,0,4,0,4,4,0004-00-0000-21.png,0001-00-0001-46.png
00000009,515,1,1448298747902,1448298747922,865,446,0,0,0,2,1,1,3,0003-00-0000-57.png,0005-00-0001-76.png
00000009,516,1,1448298748907,1448298748993,879,462,0,0,0,3,2,1,5,0002-00-0000-07.png,0003-00-0000-21.png
00000009,517,1,1448298750072,1448298750136,859,463,0,0,0,3,1,2,4,0002-00-0001-74.png,0005-00-0001-87.png
00000009,518,0,1448298751219,1448298751275,862,453,0,0,0,1,2,1,3,0005-00-0001-50.png,0003-00-0001-25.png
00000009,519,0,1448298754176,1448298754232,947,462,0,0,0,0,3,3,3,0001-00-0000-22.png,0002-00-0001-38.png
00000009,520,0,1448298757449,1448298757961,959,340,0,0,0,0,2,2,2,0001-00-0001-60.png,0003-00-0000-58.png
00000009,521,1,1448298761080,1448298761898,493,271,0,0,0,2,4,2,6,0003-00-0000-11.png,0004-00-0001-68.png
00000009,522,0,1448298762778,1448298763558,1044,284,0,0,0,2,3,1,5,0003-00-0001-24.png,0002-00-0001-32.png
00000009,523,1,1448298766487,1448298767061,502,263,0,0,0,0,3,3,3,0001-00-0001-15.png,0002-00-0000-36.png
00000009,524,1,1448298767924,1448298768680,479,252,0,0,0,1,3,2,4,0005-00-0000-92.png,0002-00-0001-50.png
00000009,525,1,1448298769623,1448298770280,950,333,0,0,0,2,0,2,2,0003-00-0001-06.png,0001-00-0000-62.png
00000009,526,0,1448298771195,1448298771250,880,442,0,0,0,1,4,3,5,0005-00-0001-73.png,0004-00-0000-97.png
00000009,527,1,1448298774426,1448298774925,1083,261,0,0,0,3,1,2,4,0002-00-0001-72.png,0005-00-0001-37.png
00000009,528,0,1448298775745,1448298775768,879,436,0,0,0,0,4,4,4,0001-00-0000-37.png,0004-00-0000-79.png
00000009,529,1,1448298778855,1448298779390,521,257,0,0,0,0,2,2,2,0001-00-0001-69.png,0003-00-0001-09.png
00000009,530,1,1448298780258,1448298780274,861,408,0,0,0,3,2,1,5,0002-00-0000-84.png,0003-00-0000-36.png
00000009,531,0,1448298781185,1448298781908,511,256,0,0,0,2,1,1,3,0003-00-0000-57.png,0005-00-0001-67.png
00000009,532,0,1448298785060,1448298785602,494,276,0,0,0,1,0,1,1,0005-00-0001-89.png,0001-00-0001-83.png
00000009,533,1,1448298788667,1448298789179,965,307,0,0,0,4,1,3,5,0004-00-0000-71.png,0005-00-0000-53.png
00000009,534,1,1448298790045,1448298790069,862,433,0,0,0,4,0,4,4,0004-00-0001-27.png,0001-00-0000-43.png
00000009,535,1,1448298790992,1448298791076,862,450,0,0,0,3,0,3,3,0002-00-0000-93.png,0001-00-0001-05.png
00000009,536,1,1448298792065,1448298792780,509,244,0,0,0,3,4,1,7,0002-00-0001-50.png,0004-00-0000-09.png
00000009,537,0,1448298793923,1448298793951,858,426,0,0,0,1,2,1,3,0005-00-0000-98.png,0003-00-0000-19.png
00000009,538,1,1448298797118,1448298797170,968,312,0,0,0,4,3,1,7,0004-00-0001-60.png,0002-00-0001-51.png
00000009,539,1,1448298798116,1448298799018,1073,265,0,0,0,4,2,2,6,0004-00-0000-51.png,0003-00-0001-15.png
00000009,540,0,1448298799933,1448298799991,862,453,0,0,0,0,1,1,1,0001-00-0001-52.png,0005-00-0000-60.png
00000009,541,1,1448298803046,1448298803082,923,382,0,0,0,4,2,2,6,0004-00-0001-64.png,0003-00-0001-18.png
00000009,542,1,1448298804040,1448298804733,462,237,0,0,0,0,1,1,1,0001-00-0000-88.png,0005-00-0000-62.png
00000009,543,1,1448298805689,1448298806442,498,260,0,0,0,1,2,1,3,0005-00-0001-34.png,0003-00-0001-91.png
00000009,544,0,1448298807387,1448298807427,862,451,0,0,0,0,4,4,4,0001-00-0000-87.png,0004-00-0000-02.png
00000009,545,0,1448298810619,1448298811172,505,274,0,0,0,1,0,1,1,0005-00-0000-93.png,0001-00-0000-69.png
00000009,546,1,1448298814293,1448298814778,974,332,0,0,0,2,1,1,3,0003-00-0000-53.png,0005-00-0000-90.png
00000009,547,1,1448298815686,1448298816375,940,306,0,0,0,3,1,2,4,0002-00-0000-78.png,0005-00-0001-11.png
00000009,548,0,1448298817244,1448298817283,888,462,0,0,0,1,3,2,4,0005-00-0000-16.png,0002-00-0000-80.png
00000009,549,1,1448298820475,1448298820995,1084,298,0,0,0,3,0,3,3,0002-00-0000-86.png,0001-00-0001-29.png
00000009,550,0,1448298821843,1448298821863,888,422,0,0,0,0,3,3,3,0001-00-0000-35.png,0002-00-0001-76.png
00000009,551,0,1448298826467,1448298827041,935,348,0,0,0,3,4,1,7,0002-00-0001-22.png,0004-00-0000-82.png
00000009,552,1,1448298829901,1448298830487,964,398,0,0,0,2,0,2,2,0003-00-0000-62.png,0001-00-0001-44.png
00000009,553,1,1448298831405,1448298831429,864,431,0,0,0,4,0,4,4,0004-00-0001-74.png,0001-00-0000-50.png
00000009,554,1,1448298832457,1448298832526,862,462,0,0,0,4,1,3,5,0004-00-0000-01.png,0005-00-0000-51.png
00000009,555,1,1448298833632,1448298834456,512,242,0,0,0,2,3,1,5,0003-00-0001-69.png,0002-00-0001-29.png
00000009,556,1,1448298835660,1448298836313,518,259,0,0,0,0,2,2,2,0001-00-0001-42.png,0003-00-0001-99.png
00000009,557,1,1448298837261,1448298837309,865,440,0,0,0,4,3,1,7,0004-00-0000-59.png,0002-00-0001-87.png
00000009,558,1,1448298838224,1448298839723,467,233,0,0,0,2,4,2,6,0003-00-0000-56.png,0004-00-0001-45.png
00000009,559,0,1448298840689,1448298841727,506,264,0,0,0,3,2,1,5,0002-00-0000-13.png,0003-00-0000-78.png
00000009,560,1,1448298844853,1448298845460,435,393,0,0,0,1,4,3,5,0005-00-0000-88.png,0004-00-0001-62.png
00000009,561,1,1448298846374,1448298846402,874,439,0,0,0,4,0,4,4,0004-00-0000-50.png,0001-00-0000-03.png
00000009,562,0,1448298847241,1448298847301,873,436,0,0,0,0,3,3,3,0001-00-0001-24.png,0002-00-0000-04.png
00000009,563,1,1448298850519,1448298851032,435,332,0,0,0,1,3,2,4,0005-00-0001-17.png,0002-00-0001-69.png
00000009,564,0,1448298851998,1448298852042,862,410,0,0,0,0,2,2,2,0001-00-0001-53.png,0003-00-0001-03.png
00000009,565,0,1448298855139,1448298855167,900,355,0,0,0,1,4,3,5,0005-00-0000-94.png,0004-00-0001-59.png
00000009,566,1,1448298858259,1448298858841,1092,315,0,0,0,2,0,2,2,0003-00-0000-63.png,0001-00-0000-96.png
00000009,567,1,1448298859887,1448298860927,935,282,0,0,0,4,2,2,6,0004-00-0001-63.png,0003-00-0000-27.png
00000009,568,1,1448298861846,1448298861912,912,467,0,0,0,4,1,3,5,0004-00-0001-69.png,0005-00-0000-60.png
00000009,569,1,1448298862876,1448298862928,876,488,0,0,0,3,1,2,4,0002-00-0000-52.png,0005-00-0000-57.png
00000009,570,1,1448298864090,1448298864137,869,428,0,0,0,3,2,1,5,0002-00-0001-40.png,0003-00-0001-31.png
00000009,571,1,1448298865274,1448298865310,862,462,0,0,0,1,0,1,1,0005-00-0001-55.png,0001-00-0001-14.png
00000009,572,1,1448298866586,1448298867303,1048,274,0,0,0,2,1,1,3,0003-00-0000-67.png,0005-00-0001-77.png
00000009,573,0,1448298868173,1448298868209,887,450,0,0,0,0,4,4,4,0001-00-0001-60.png,0004-00-0000-63.png
00000009,574,0,1448298871305,1448298871333,887,353,0,0,0,0,1,1,1,0001-00-0001-83.png,0005-00-0001-60.png
00000009,575,1,1448298874248,1448298874328,910,387,0,0,0,3,0,3,3,0002-00-0000-79.png,0001-00-0001-75.png
00000009,576,0,1448298875400,1448298876386,1019,289,0,0,0,1,2,1,3,0005-00-0000-59.png,0003-00-0001-47.png
00000009,577,1,1448298879494,1448298880354,415,369,0,0,0,3,4,1,7,0002-00-0000-97.png,0004-00-0001-01.png
00000009,578,0,1448298881481,1448298882160,437,351,0,0,0,4,3,1,7,0004-00-0001-78.png,0002-00-0001-28.png
00000009,579,1,1448298885289,1448298886261,481,261,0,0,0,2,4,2,6,0003-00-0000-31.png,0004-00-0001-22.png
00000009,580,0,1448298887265,1448298887293,890,449,0,0,0,2,3,1,5,0003-00-0000-95.png,0002-00-0001-13.png
00000009,581,1,1448298890126,1448298890713,496,269,0,0,0,0,4,4,4,0001-00-0000-02.png,0004-00-0001-47.png
00000009,582,1,1448298891556,1448298892312,945,322,0,0,0,2,0,2,2,0003-00-0000-42.png,0001-00-0001-38.png
00000009,583,1,1448298893145,1448298893169,892,437,0,0,0,1,0,1,1,0005-00-0000-83.png,0001-00-0000-32.png
00000009,584,0,1448298894310,1448298895501,489,230,0,0,0,4,3,1,7,0004-00-0000-99.png,0002-00-0000-03.png
00000009,585,1,1448298898464,1448298899077,496,283,0,0,0,3,4,1,7,0002-00-0000-79.png,0004-00-0001-31.png
00000009,586,1,1448298900026,1448298900763,492,242,0,0,0,1,2,1,3,0005-00-0000-75.png,0003-00-0001-58.png
00000009,587,1,1448298901703,1448298902474,494,253,0,0,0,1,3,2,4,0005-00-0001-49.png,0002-00-0001-40.png
00000009,588,1,1448298903521,1448298904439,1067,262,0,0,0,4,2,2,6,0004-00-0001-15.png,0003-00-0001-97.png
00000009,589,0,1448298905372,1448298906469,964,384,0,0,0,2,3,1,5,0003-00-0000-17.png,0002-00-0001-51.png
00000009,590,1,1448298909835,1448298910097,880,367,0,0,0,4,1,3,5,0004-00-0000-47.png,0005-00-0001-29.png
00000009,591,1,1448298911116,1448298911813,504,266,0,0,0,1,4,3,5,0005-00-0001-66.png,0004-00-0000-86.png
00000009,592,1,1448298912685,1448298913473,947,420,0,0,0,4,0,4,4,0004-00-0000-61.png,0001-00-0000-82.png
00000009,593,0,1448298914433,1448298914493,884,476,0,0,0,0,3,3,3,0001-00-0000-79.png,0002-00-0000-20.png
00000009,594,1,1448298917631,1448298918676,484,291,0,0,0,2,4,2,6,0003-00-0001-84.png,0004-00-0001-43.png
00000009,595,1,1448298919660,1448298920552,482,252,0,0,0,0,2,2,2,0001-00-0001-14.png,0003-00-0001-90.png
00000009,596,0,1448298921448,1448298922309,504,235,0,0,0,2,1,1,3,0003-00-0001-17.png,0005-00-0000-37.png
00000009,597,0,1448298925314,1448298926024,425,333,0,0,0,3,2,1,5,0002-00-0001-31.png,0003-00-0000-15.png
00000009,598,0,1448298928880,1448298929439,1066,276,0,0,0,0,1,1,1,0001-00-0001-75.png,0005-00-0000-76.png
00000009,599,1,1448298932369,1448298932389,888,384,0,0,0,3,1,2,4,0002-00-0001-50.png,0005-00-0001-16.png
00000009,600,1,1448298933426,1448298934086,1074,311,0,0,0,3,0,3,3,0002-00-0000-32.png,0001-00-0000-51.png
00000009,601,0,1448298934964,1448298935041,910,443,0,0,0,1,3,2,4,0005-00-0001-79.png,0002-00-0000-80.png
00000009,602,1,1448298938046,1448298938739,990,358,0,0,0,3,2,1,5,0002-00-0001-90.png,0003-00-0001-41.png
00000009,603,1,1448298939704,1448298940340,943,308,0,0,0,2,0,2,2,0003-00-0000-35.png,0001-00-0000-58.png
00000009,604,1,1448298941224,1448298941290,906,447,0,0,0,4,3,1,7,0004-00-0001-63.png,0002-00-0000-76.png
00000009,605,0,1448298942487,1448298942499,857,462,0,0,0,1,4,3,5,0005-00-0000-48.png,0004-00-0001-97.png
00000009,606,1,1448298945555,1448298946145,479,245,0,0,0,0,1,1,1,0001-00-0001-05.png,0005-00-0000-98.png
00000009,607,1,1448298946976,1448298948054,964,369,0,0,0,4,0,4,4,0004-00-0001-79.png,0001-00-0001-91.png
00000009,608,1,1448298948922,1448298949173,913,541,0,0,0,4,1,3,5,0004-00-0000-57.png,0005-00-0000-05.png
00000009,609,1,1448298950365,1448298950977,1041,291,0,0,0,3,0,3,3,0002-00-0000-16.png,0001-00-0001-92.png
00000009,610,1,1448298952032,1448298952868,478,265,0,0,0,0,2,2,2,0001-00-0000-88.png,0003-00-0001-35.png
00000009,611,0,1448298953910,1448298954665,1067,314,0,0,0,0,3,3,3,0001-00-0001-54.png,0002-00-0001-09.png
00000009,612,0,1448298957604,1448298957626,888,379,0,0,0,1,2,1,3,0005-00-0001-57.png,0003-00-0001-35.png
00000009,613,0,1448298960691,1448298960712,884,399,0,0,0,2,3,1,5,0003-00-0000-94.png,0002-00-0001-55.png
00000009,614,1,1448298963819,1448298964765,422,373,0,0,0,2,4,2,6,0003-00-0000-46.png,0004-00-0000-30.png
00000009,615,1,1448298965768,1448298965796,863,410,0,0,0,2,1,1,3,0003-00-0000-43.png,0005-00-0001-15.png
00000009,616,1,1448298966881,1448298966926,862,436,0,0,0,1,0,1,1,0005-00-0001-67.png,0001-00-0000-54.png
00000009,617,1,1448298968017,1448298969174,496,234,0,0,0,3,4,1,7,0002-00-0001-85.png,0004-00-0000-82.png
00000009,618,1,1448298970289,1448298971087,492,252,0,0,0,0,4,4,4,0001-00-0001-21.png,0004-00-0000-69.png
00000009,619,1,1448298972027,1448298972859,940,325,0,0,0,4,2,2,6,0004-00-0001-89.png,0003-00-0000-30.png
00000009,620,1,1448298973817,1448298974777,954,386,0,0,0,3,1,2,4,0002-00-0000-83.png,0005-00-0001-95.png
00000009,621,1,1448298975797,1448298975848,862,449,0,0,0,3,1,2,4,0002-00-0000-29.png,0005-00-0000-61.png
00000009,622,0,1448298977027,1448298977047,865,491,0,0,0,0,2,2,2,0001-00-0000-95.png,0003-00-0001-64.png
00000009,623,1,1448298980098,1448298980615,982,308,0,0,0,1,0,1,1,0005-00-0001-10.png,0001-00-0000-99.png
00000009,624,0,1448298981947,1448298981975,862,384,0,0,0,2,3,1,5,0003-00-0001-57.png,0002-00-0001-66.png
00000009,625,1,1448298985049,1448298985513,395,388,0,0,0,1,2,1,3,0005-00-0000-63.png,0003-00-0001-25.png
00000009,626,1,1448298986429,1448298987103,1041,279,0,0,0,4,0,4,4,0004-00-0001-90.png,0001-00-0001-52.png
00000009,627,0,1448298987957,1448298987993,896,445,0,0,0,0,3,3,3,0001-00-0000-60.png,0002-00-0000-31.png
00000009,628,1,1448298990846,1448298991689,502,248,0,0,0,2,4,2,6,0003-00-0001-30.png,0004-00-0000-04.png
00000009,629,1,1448298992638,1448298993417,511,252,0,0,0,0,4,4,4,0001-00-0000-14.png,0004-00-0000-57.png
00000009,630,0,1448298994429,1448298995185,504,261,0,0,0,3,2,1,5,0002-00-0000-07.png,0003-00-0000-13.png
00000009,631,1,1448299000006,1448299000634,1084,290,0,0,0,3,0,3,3,0002-00-0001-93.png,0001-00-0001-59.png
00000009,632,1,1448299001520,1448299002266,1054,293,0,0,0,4,1,3,5,0004-00-0000-83.png,0005-00-0000-09.png
00000009,633,1,1448299003174,1448299003379,913,514,0,0,0,2,0,2,2,0003-00-0000-60.png,0001-00-0001-00.png
00000009,634,1,1448299004514,1448299005326,937,384,0,0,0,2,1,1,3,0003-00-0001-90.png,0005-00-0000-50.png
00000009,635,1,1448299006313,1448299006959,492,264,0,0,0,3,4,1,7,0002-00-0000-62.png,0004-00-0001-09.png
00000009,636,1,1448299007939,1448299008981,504,266,0,0,0,0,1,1,1,0001-00-0000-00.png,0005-00-0001-61.png
00000009,637,0,1448299009942,1448299010670,494,241,0,0,0,4,2,2,6,0004-00-0000-10.png,0003-00-0001-68.png
00000009,638,0,1448299013964,1448299013993,905,302,0,0,0,1,3,2,4,0005-00-0000-76.png,0002-00-0001-82.png
00000009,639,1,1448299017186,1448299017500,927,376,0,0,0,4,3,1,7,0004-00-0000-65.png,0002-00-0001-83.png
00000009,640,1,1448299018682,1448299019346,473,270,0,0,0,1,4,3,5,0005-00-0000-07.png,0004-00-0001-44.png
00000009,641,0,1448299020390,1448299020452,896,496,0,0,0,2,3,1,5,0003-00-0000-48.png,0002-00-0001-21.png
00000009,642,1,1448299023566,1448299024069,956,343,0,0,0,4,3,1,7,0004-00-0001-01.png,0002-00-0001-27.png
00000009,643,0,1448299025077,1448299025186,913,504,0,0,0,0,3,3,3,0001-00-0000-23.png,0002-00-0000-82.png
00000009,644,1,1448299028074,1448299028630,508,256,0,0,0,0,1,1,1,0001-00-0001-11.png,0005-00-0000-69.png
00000009,645,1,1448299029493,1448299030247,1046,290,0,0,0,4,0,4,4,0004-00-0000-23.png,0001-00-0000-54.png
00000009,646,1,1448299031167,1448299031205,886,413,0,0,0,3,2,1,5,0002-00-0001-08.png,0003-00-0000-49.png
00000009,647,1,1448299032370,1448299032432,880,506,0,0,0,2,0,2,2,0003-00-0000-05.png,0001-00-0001-96.png
00000009,648,1,1448299033481,1448299033509,893,427,0,0,0,3,0,3,3,0002-00-0001-87.png,0001-00-0000-68.png
00000009,649,1,1448299034801,1448299035604,504,263,0,0,0,1,3,2,4,0005-00-0001-47.png,0002-00-0001-82.png
00000009,650,1,1448299036622,1448299037361,450,403,0,0,0,1,4,3,5,0005-00-0000-16.png,0004-00-0000-29.png
00000009,651,0,1448299038330,1448299039082,498,254,0,0,0,3,1,2,4,0002-00-0000-47.png,0005-00-0001-64.png
00000009,652,1,1448299042066,1448299042631,509,257,0,0,0,0,4,4,4,0001-00-0000-32.png,0004-00-0001-67.png
00000009,653,1,1448299043945,1448299044460,965,330,0,0,0,2,1,1,3,0003-00-0001-18.png,0005-00-0001-30.png
00000009,654,1,1448299045963,1448299046729,447,263,0,0,0,3,4,1,7,0002-00-0000-44.png,0004-00-0000-22.png
00000009,655,1,1448299047711,1448299048585,500,241,0,0,0,1,2,1,3,0005-00-0001-47.png,0003-00-0000-77.png
00000009,656,1,1448299049508,1448299049530,862,398,0,0,0,4,1,3,5,0004-00-0000-12.png,0005-00-0001-05.png
00000009,657,0,1448299050611,1448299050677,878,445,0,0,0,2,4,2,6,0003-00-0001-44.png,0004-00-0001-44.png
00000009,658,1,1448299053762,1448299053790,927,352,0,0,0,4,2,2,6,0004-00-0001-46.png,0003-00-0000-62.png
00000009,659,1,1448299054813,1448299055619,501,247,0,0,0,0,2,2,2,0001-00-0000-49.png,0003-00-0000-07.png
00000009,660,1,1448299056554,1448299056567,888,411,0,0,0,1,0,1,1,0005-00-0000-35.png,0001-00-0000-73.png
00000009,661,0,1448299057552,1448299058371,478,400,0,0,0,3,2,1,5,0002-00-0000-66.png,0003-00-0001-23.png
00000009,662,0,1448299061494,1448299061534,888,358,0,0,0,1,4,3,5,0005-00-0001-03.png,0004-00-0000-41.png
00000009,663,0,1448299064455,1448299065019,1054,320,0,0,0,0,4,4,4,0001-00-0000-65.png,0004-00-0000-16.png
00000009,664,1,1448299068152,1448299068759,1092,353,0,0,0,4,3,1,7,0004-00-0001-14.png,0002-00-0001-84.png
00000009,665,0,1448299069712,1448299069758,862,488,0,0,0,0,2,2,2,0001-00-0001-20.png,0003-00-0001-41.png
00000009,666,1,1448299072715,1448299073314,493,263,0,0,0,3,4,1,7,0002-00-0000-47.png,0004-00-0000-34.png
00000009,667,1,1448299074215,1448299074252,872,437,0,0,0,2,1,1,3,0003-00-0000-32.png,0005-00-0001-16.png
00000009,668,1,1448299075279,1448299076179,506,252,0,0,0,1,2,1,3,0005-00-0001-61.png,0003-00-0000-23.png
00000009,669,1,1448299077117,1448299077847,917,298,0,0,0,2,0,2,2,0003-00-0001-19.png,0001-00-0001-16.png
00000009,670,1,1448299078742,1448299078838,888,476,0,0,0,4,2,2,6,0004-00-0000-83.png,0003-00-0001-62.png
00000009,671,1,1448299081937,1448299082532,1062,267,0,0,0,3,1,2,4,0002-00-0000-50.png,0005-00-0001-20.png
00000009,672,1,1448299083476,1448299084170,523,261,0,0,0,2,3,1,5,0003-00-0000-69.png,0002-00-0001-61.png
00000009,673,1,1448299085117,1448299085877,475,403,0,0,0,1,3,2,4,0005-00-0000-25.png,0002-00-0000-63.png
00000009,674,1,1448299086907,1448299087554,515,264,0,0,0,0,1,1,1,0001-00-0000-78.png,0005-00-0000-28.png
00000009,675,1,1448299088713,1448299089617,1069,315,0,0,0,4,1,3,5,0004-00-0000-87.png,0005-00-0000-77.png
00000009,676,1,1448299090592,1448299091326,509,226,0,0,0,0,3,3,3,0001-00-0001-90.png,0002-00-0001-49.png
00000009,677,1,1448299092412,1448299092428,862,463,0,0,0,3,0,3,3,0002-00-0001-73.png,0001-00-0000-50.png
00000009,678,0,1448299093504,1448299094200,968,276,0,0,0,2,4,2,6,0003-00-0001-65.png,0004-00-0000-75.png
00000009,679,1,1448299097477,1448299097526,927,308,0,0,0,1,0,1,1,0005-00-0001-96.png,0001-00-0001-64.png
00000009,680,1,1448299098489,1448299099241,966,321,0,0,0,4,0,4,4,0004-00-0000-85.png,0001-00-0001-68.png
00000009,681,0,1448299100209,1448299100225,869,407,0,0,0,1,2,1,3,0005-00-0000-93.png,0003-00-0001-06.png
00000009,682,1,1448299103401,1448299103437,966,346,0,0,0,4,0,4,4,0004-00-0000-39.png,0001-00-0000-04.png
00000009,683,1,1448299104425,1448299104469,873,436,0,0,0,3,2,1,5,0002-00-0000-08.png,0003-00-0001-03.png
00000009,684,1,1448299105490,1448299106426,467,398,0,0,0,2,4,2,6,0003-00-0000-16.png,0004-00-0000-19.png
00000009,685,1,1448299107435,1448299107451,862,410,0,0,0,2,1,1,3,0003-00-0000-63.png,0005-00-0001-37.png
00000009,686,0,1448299108574,1448299108633,900,442,0,0,0,2,3,1,5,0003-00-0000-70.png,0002-00-0001-18.png
00000009,687,1,1448299111598,1448299112298,491,263,0,0,0,1,4,3,5,0005-00-0000-15.png,0004-00-0001-54.png
00000009,688,1,1448299113217,1448299113906,1047,287,0,0,0,3,1,2,4,0002-00-0001-76.png,0005-00-0000-82.png
00000009,689,1,1448299114785,1448299114813,888,436,0,0,0,2,0,2,2,0003-00-0001-45.png,0001-00-0000-62.png
00000009,690,1,1448299115892,1448299116827,954,333,0,0,0,4,1,3,5,0004-00-0000-71.png,0005-00-0001-39.png
00000009,691,0,1448299117808,1448299117856,922,384,0,0,0,3,4,1,7,0002-00-0001-63.png,0004-00-0001-70.png
00000009,692,1,1448299121316,1448299121343,894,337,0,0,0,4,2,2,6,0004-00-0000-17.png,0003-00-0000-21.png
00000009,693,1,1448299122310,1448299123101,956,328,0,0,0,4,3,1,7,0004-00-0001-91.png,0002-00-0000-90.png
00000009,694,0,1448299124057,1448299124065,889,407,0,0,0,0,1,1,1,0001-00-0000-44.png,0005-00-0001-43.png
00000009,695,1,1448299127228,1448299127729,438,356,0,0,0,0,3,3,3,0001-00-0000-81.png,0002-00-0000-31.png
00000009,696,1,1448299128660,1448299129509,936,326,0,0,0,3,0,3,3,0002-00-0001-39.png,0001-00-0001-50.png
00000009,697,1,1448299130447,1448299131244,1082,306,0,0,0,1,0,1,1,0005-00-0000-94.png,0001-00-0001-62.png
00000009,698,1,1448299132165,1448299132894,404,332,0,0,0,1,3,2,4,0005-00-0000-68.png,0002-00-0001-55.png
00000009,699,0,1448299133753,1448299133806,857,487,0,0,0,0,4,4,4,0001-00-0001-90.png,0004-00-0000-66.png
00000009,700,0,1448299136728,1448299136767,872,412,0,0,0,0,2,2,2,0001-00-0001-96.png,0003-00-0000-29.png
00000009,701,0,1448299139618,1448299140226,965,279,0,0,0,0,1,1,1,0001-00-0000-03.png,0005-00-0000-43.png
00000009,702,1,1448299143071,1448299143185,944,359,0,0,0,4,1,3,5,0004-00-0000-10.png,0005-00-0001-28.png
00000009,703,1,1448299144253,1448299144974,491,254,0,0,0,1,3,2,4,0005-00-0000-92.png,0002-00-0001-23.png
00000009,704,1,1448299145941,1448299146831,1092,279,0,0,0,4,3,1,7,0004-00-0000-04.png,0002-00-0001-42.png
00000009,705,0,1448299147790,1448299147802,866,429,0,0,0,2,3,1,5,0003-00-0001-68.png,0002-00-0000-28.png
00000009,706,0,1448299150772,1448299150865,911,375,0,0,0,2,4,2,6,0003-00-0001-00.png,0004-00-0001-98.png
00000009,707,1,1448299154021,1448299154061,934,310,0,0,0,3,2,1,5,0002-00-0000-57.png,0003-00-0001-15.png
00000009,708,1,1448299155033,1448299155089,859,499,0,0,0,1,0,1,1,0005-00-0000-89.png,0001-00-0000-09.png
00000009,709,1,1448299156056,1448299156104,862,424,0,0,0,4,2,2,6,0004-00-0000-71.png,0003-00-0001-35.png
00000009,710,0,1448299157846,1448299157886,888,342,0,0,0,0,2,2,2,0001-00-0000-91.png,0003-00-0000-16.png
00000009,711,1,1448299160747,1448299161245,460,242,0,0,0,0,4,4,4,0001-00-0000-51.png,0004-00-0000-78.png
00000009,712,1,1448299162084,1448299162797,497,261,0,0,0,1,2,1,3,0005-00-0000-79.png,0003-00-0001-50.png
00000009,713,1,1448299163867,1448299164762,507,259,0,0,0,3,4,1,7,0002-00-0001-87.png,0004-00-0000-30.png
00000009,714,1,1448299165715,1448299166407,934,315,0,0,0,2,1,1,3,0003-00-0000-45.png,0005-00-0000-15.png
00000009,715,1,1448299167395,1448299167411,892,460,0,0,0,3,1,2,4,0002-00-0000-00.png,0005-00-0001-08.png
00000009,716,0,1448299168605,1448299168662,875,454,0,0,0,0,3,3,3,0001-00-0001-52.png,0002-00-0000-45.png
00000009,717,1,1448299171627,1448299172151,508,285,0,0,0,1,4,3,5,0005-00-0000-54.png,0004-00-0000-13.png
00000009,718,1,1448299173041,1448299173735,1054,293,0,0,0,4,0,4,4,0004-00-0001-80.png,0001-00-0001-96.png
00000009,719,1,1448299174567,1448299174587,867,408,0,0,0,3,0,3,3,0002-00-0000-10.png,0001-00-0000-05.png
00000009,720,1,1448299175566,1448299175620,862,462,0,0,0,2,0,2,2,0003-00-0000-72.png,0001-00-0001-89.png
00000009,721,1,1448299176857,1448299178080,464,242,0,0,0,0,2,2,2,0001-00-0000-94.png,0003-00-0000-95.png
00000009,722,1,1448299179651,1448299179818,913,514,0,0,0,2,0,2,2,0003-00-0001-52.png,0001-00-0001-52.png
00000009,723,1,1448299180873,1448299180909,888,448,0,0,0,2,1,1,3,0003-00-0000-70.png,0005-00-0000-16.png
00000009,724,0,1448299182055,1448299182916,468,391,0,0,0,3,2,1,5,0002-00-0000-06.png,0003-00-0001-49.png
00000009,725,1,1448299185989,1448299186522,1076,281,0,0,0,4,2,2,6,0004-00-0000-60.png,0003-00-0000-44.png
00000009,726,0,1448299187439,1448299187490,858,479,0,0,0,0,3,3,3,0001-00-0000-48.png,0002-00-0001-66.png
00000009,727,0,1448299190529,1448299191132,975,428,0,0,0,0,1,1,1,0001-00-0001-41.png,0005-00-0001-66.png
00000009,728,1,1448299194328,1448299194973,961,324,0,0,0,4,3,1,7,0004-00-0000-14.png,0002-00-0001-10.png
00000009,729,1,1448299196064,1448299196104,888,410,0,0,0,3,1,2,4,0002-00-0000-97.png,0005-00-0000-72.png
00000009,730,0,1448299197088,1448299197152,869,455,0,0,0,3,4,1,7,0002-00-0000-67.png,0004-00-0001-80.png
00000009,731,0,1448299200360,1448299200932,970,331,0,0,0,2,3,1,5,0003-00-0001-70.png,0002-00-0001-76.png
00000009,732,1,1448299204305,1448299204794,1041,279,0,0,0,3,0,3,3,0002-00-0001-90.png,0001-00-0001-77.png
00000009,733,0,1448299205662,1448299205703,863,463,0,0,0,0,4,4,4,0001-00-0001-10.png,0004-00-0000-22.png
00000009,734,1,1448299208608,1448299208637,909,390,0,0,0,4,0,4,4,0004-00-0001-09.png,0001-00-0001-36.png
00000009,735,0,1448299209691,1448299209749,894,452,0,0,0,2,4,2,6,0003-00-0000-82.png,0004-00-0000-65.png
00000009,736,1,1448299212898,1448299213362,426,357,0,0,0,1,4,3,5,0005-00-0000-16.png,0004-00-0001-09.png
00000009,737,1,1448299214302,1448299214975,963,284,0,0,0,4,1,3,5,0004-00-0001-82.png,0005-00-0001-19.png
00000009,738,0,1448299215988,1448299216008,862,453,0,0,0,1,2,1,3,0005-00-0001-34.png,0003-00-0000-89.png
00000009,739,0,1448299222359,1448299222411,894,324,0,0,0,1,3,2,4,0005-00-0000-96.png,0002-00-0000-63.png
00000009,740,1,1448299225653,1448299226205,1068,294,0,0,0,1,0,1,1,0005-00-0000-92.png,0001-00-0000-53.png
00000009,741,1,1448299227212,1448299227968,383,347,0,0,0,0,4,4,4,0001-00-0001-06.png,0004-00-0000-53.png
00000009,742,1,1448299228867,1448299229855,1040,307,0,0,0,4,3,1,7,0004-00-0000-07.png,0002-00-0000-74.png
00000009,743,1,1448299230817,1448299231438,452,290,0,0,0,0,2,2,2,0001-00-0001-04.png,0003-00-0000-58.png
00000009,744,1,1448299232786,1448299233522,489,266,0,0,0,1,3,2,4,0005-00-0001-26.png,0002-00-0001-41.png
00000009,745,1,1448299234571,1448299235235,404,362,0,0,0,1,4,3,5,0005-00-0001-45.png,0004-00-0001-34.png
00000009,746,0,1448299236350,1448299236975,947,337,0,0,0,2,4,2,6,0003-00-0001-16.png,0004-00-0001-99.png
00000009,747,0,1448299239977,1448299240046,902,428,0,0,0,1,2,1,3,0005-00-0000-65.png,0003-00-0000-21.png
00000009,748,1,1448299243308,1448299243336,905,355,0,0,0,1,0,1,1,0005-00-0001-85.png,0001-00-0000-06.png
00000009,749,1,1448299244345,1448299245166,933,344,0,0,0,4,1,3,5,0004-00-0000-62.png,0005-00-0000-13.png
00000009,750,1,1448299246112,1448299247037,474,272,0,0,0,0,1,1,1,0001-00-0001-98.png,0005-00-0000-11.png
00000009,751,1,1448299248029,1448299248657,1074,261,0,0,0,2,0,2,2,0003-00-0001-65.png,0001-00-0000-62.png
00000009,752,0,1448299249626,1448299249673,875,435,0,0,0,0,3,3,3,0001-00-0000-72.png,0002-00-0001-04.png
00000009,753,0,1448299253589,1448299253619,866,305,0,0,0,3,4,1,7,0002-00-0000-62.png,0004-00-0000-51.png
00000009,754,1,1448299256615,1448299257186,1064,310,0,0,0,4,0,4,4,0004-00-0001-83.png,0001-00-0000-23.png
00000009,755,1,1448299258064,1448299258072,862,462,0,0,0,4,2,2,6,0004-00-0001-90.png,0003-00-0001-60.png
00000009,756,1,1448299259137,1448299259256,862,500,0,0,0,3,1,2,4,0002-00-0001-39.png,0005-00-0001-77.png
00000009,757,1,1448299260296,1448299261022,1016,265,0,0,0,3,2,1,5,0002-00-0000-92.png,0003-00-0000-95.png
00000009,758,1,1448299262115,1448299262186,888,453,0,0,0,2,1,1,3,0003-00-0001-23.png,0005-00-0000-78.png
00000009,759,0,1448299263258,1448299263331,888,398,0,0,0,2,3,1,5,0003-00-0001-36.png,0002-00-0000-68.png
00000009,760,1,1448299266321,1448299266866,1063,277,0,0,0,3,0,3,3,0002-00-0001-85.png,0001-00-0000-25.png
00000009,761,0,1448299267784,1448299267812,884,432,0,0,0,1,3,2,4,0005-00-0001-05.png,0002-00-0000-47.png
00000009,762,0,1448299270885,1448299271453,412,355,0,0,0,3,1,2,4,0002-00-0000-46.png,0005-00-0001-72.png
00000009,763,1,1448299274449,1448299274508,913,358,0,0,0,4,3,1,7,0004-00-0000-39.png,0002-00-0001-91.png
00000009,764,0,1448299275440,1448299276332,501,248,0,0,0,3,0,3,3,0002-00-0000-56.png,0001-00-0001-50.png
00000009,765,0,1448299279321,1448299279421,871,348,0,0,0,3,4,1,7,0002-00-0000-81.png,0004-00-0000-17.png
00000009,766,1,1448299282472,1448299283027,1058,328,0,0,0,2,0,2,2,0003-00-0001-03.png,0001-00-0000-61.png
00000009,767,1,1448299283899,1448299283975,899,489,0,0,0,4,0,4,4,0004-00-0000-36.png,0001-00-0001-60.png
00000009,768,0,1448299285021,1448299285105,893,478,0,0,0,0,1,1,1,0001-00-0001-42.png,0005-00-0001-48.png
00000009,769,1,1448299288164,1448299289016,466,270,0,0,0,2,4,2,6,0003-00-0000-92.png,0004-00-0000-61.png
00000009,770,1,1448299289881,1448299289911,857,412,0,0,0,1,0,1,1,0005-00-0001-72.png,0001-00-0001-58.png
00000009,771,0,1448299290826,1448299290858,862,448,0,0,0,2,3,1,5,0003-00-0000-31.png,0002-00-0000-70.png
00000009,772,1,1448299293895,1448299294420,1041,306,0,0,0,4,1,3,5,0004-00-0000-01.png,0005-00-0001-97.png
00000009,773,1,1448299295259,1448299296037,1051,273,0,0,0,3,2,1,5,0002-00-0001-07.png,0003-00-0000-04.png
00000009,774,0,1448299296950,1448299296978,918,426,0,0,0,1,4,3,5,0005-00-0001-76.png,0004-00-0000-29.png
00000009,775,0,1448299301333,1448299301349,888,332,0,0,0,0,4,4,4,0001-00-0000-61.png,0004-00-0001-38.png
00000009,776,1,1448299304183,1448299304709,990,339,0,0,0,4,2,2,6,0004-00-0000-28.png,0003-00-0001-63.png
00000009,777,1,1448299305603,1448299305643,862,448,0,0,0,2,1,1,3,0003-00-0001-29.png,0005-00-0000-08.png
00000009,778,0,1448299306633,1448299306743,898,488,0,0,0,1,2,1,3,0005-00-0000-97.png,0003-00-0000-51.png
00000009,779,0,1448299309721,1448299310246,979,405,0,0,0,0,3,3,3,0001-00-0000-84.png,0002-00-0001-22.png
00000009,780,0,1448299313166,1448299313226,899,384,0,0,0,0,2,2,2,0001-00-0001-80.png,0003-00-0000-61.png
00000009,781,0,1448299316386,1448299316426,905,314,0,0,0,0,4,4,4,0001-00-0001-76.png,0004-00-0001-75.png
00000009,782,1,1448299319471,1448299320010,964,344,0,0,0,3,0,3,3,0002-00-0001-43.png,0001-00-0000-58.png
00000009,783,0,1448299320881,1448299320946,862,502,0,0,0,2,3,1,5,0003-00-0001-35.png,0002-00-0000-15.png
00000009,784,1,1448299324241,1448299324791,950,427,0,0,0,3,2,1,5,0002-00-0001-52.png,0003-00-0001-84.png
00000009,785,0,1448299325727,1448299325775,863,458,0,0,0,1,2,1,3,0005-00-0001-63.png,0003-00-0000-65.png
00000009,786,1,1448299328739,1448299329280,1063,323,0,0,0,4,1,3,5,0004-00-0000-44.png,0005-00-0000-63.png
00000009,787,0,1448299330166,1448299330236,880,494,0,0,0,3,4,1,7,0002-00-0000-14.png,0004-00-0000-24.png
00000009,788,1,1448299333809,1448299334342,1067,279,0,0,0,3,1,2,4,0002-00-0001-14.png,0005-00-0001-95.png
00000009,789,1,1448299335518,1448299336207,447,271,0,0,0,1,3,2,4,0005-00-0001-16.png,0002-00-0000-48.png
00000009,790,1,1448299337080,1448299337947,492,247,0,0,0,2,4,2,6,0003-00-0000-29.png,0004-00-0001-22.png
00000009,791,1,1448299338944,1448299339683,1057,279,0,0,0,1,0,1,1,0005-00-0000-06.png,0001-00-0001-53.png
00000009,792,0,1448299340676,1448299340720,883,440,0,0,0,0,3,3,3,0001-00-0000-72.png,0002-00-0001-26.png
00000009,793,1,1448299343873,1448299344764,941,334,0,0,0,4,2,2,6,0004-00-0000-74.png,0003-00-0001-73.png
00000009,794,1,1448299345756,1448299345827,865,493,0,0,0,2,1,1,3,0003-00-0001-50.png,0005-00-0001-63.png
00000009,795,1,1448299346946,1448299347642,522,260,0,0,0,0,1,1,1,0001-00-0001-43.png,0005-00-0000-67.png
00000009,796,0,1448299349230,1448299349846,514,284,0,0,0,4,0,4,4,0004-00-0000-37.png,0001-00-0000-52.png
00000009,797,0,1448299352905,1448299352946,866,303,0,0,0,0,2,2,2,0001-00-0000-20.png,0003-00-0000-82.png
00000009,798,1,1448299356050,1448299356094,903,330,0,0,0,2,0,2,2,0003-00-0001-58.png,0001-00-0001-89.png
00000009,799,1,1448299357148,1448299358212,954,306,0,0,0,4,3,1,7,0004-00-0001-92.png,0002-00-0000-40.png
00000009,800,1,1448299359159,1448299360173,487,253,0,0,0,1,4,3,5,0005-00-0001-43.png,0004-00-0000-37.png
00000009,801,1,1448299361115,1448299362208,964,375,0,0,0,3,1,2,4,0002-00-0001-39.png,0005-00-0001-99.png
00000009,802,0,1448299363274,1448299363314,860,488,0,0,0,1,4,3,5,0005-00-0000-66.png,0004-00-0000-76.png
00000009,803,1,1448299366181,1448299366774,1067,291,0,0,0,1,0,1,1,0005-00-0000-56.png,0001-00-0001-07.png
00000009,804,0,1448299367690,1448299367730,929,445,0,0,0,0,1,1,1,0001-00-0001-57.png,0005-00-0001-63.png
00000009,805,0,1448299370961,1448299371220,894,378,0,0,0,0,4,4,4,0001-00-0001-87.png,0004-00-0000-42.png
00000009,806,1,1448299374213,1448299374974,520,292,0,0,0,1,3,2,4,0005-00-0000-75.png,0002-00-0000-44.png
00000009,807,1,1448299376001,1448299377218,413,347,0,0,0,2,3,1,5,0003-00-0001-40.png,0002-00-0000-03.png
00000009,808,0,1448299378187,1448299379162,403,345,0,0,0,4,3,1,7,0004-00-0001-63.png,0002-00-0001-54.png
00000009,809,1,1448299382152,1448299382712,462,273,0,0,0,0,3,3,3,0001-00-0001-31.png,0002-00-0000-32.png
00000009,810,1,1448299383634,1448299384298,399,369,0,0,0,1,2,1,3,0005-00-0000-26.png,0003-00-0000-54.png
00000009,811,1,1448299385168,1448299386036,923,342,0,0,0,3,0,3,3,0002-00-0001-20.png,0001-00-0001-91.png
00000009,812,0,1448299387050,1448299387096,863,402,0,0,0,2,4,2,6,0003-00-0001-40.png,0004-00-0001-93.png
00000009,813,1,1448299390130,1448299390622,1040,280,0,0,0,3,2,1,5,0002-00-0000-21.png,0003-00-0000-43.png
00000009,814,0,1448299391491,1448299392707,943,335,0,0,0,3,4,1,7,0002-00-0000-21.png,0004-00-0000-87.png
00000009,815,1,1448299396156,1448299396188,867,335,0,0,0,4,2,2,6,0004-00-0000-06.png,0003-00-0001-41.png
00000009,816,1,1448299397172,1448299398101,464,253,0,0,0,0,2,2,2,0001-00-0001-76.png,0003-00-0000-34.png
00000009,817,1,1448299399093,1448299399733,964,374,0,0,0,4,0,4,4,0004-00-0000-00.png,0001-00-0001-29.png
00000009,818,1,1448299400637,1448299400658,912,432,0,0,0,2,1,1,3,0003-00-0001-05.png,0005-00-0001-82.png
00000009,819,1,1448299401809,1448299402696,951,356,0,0,0,4,1,3,5,0004-00-0001-68.png,0005-00-0001-66.png
00000009,820,1,1448299403681,1448299404373,1058,279,0,0,0,2,0,2,2,0003-00-0000-34.png,0001-00-0000-60.png
00000009,821,1,1448299405353,1448299406103,975,328,0,0,0,4,1,3,5,0004-00-0001-85.png,0005-00-0000-08.png
00000009,822,0,1448299407246,1448299408167,514,248,0,0,0,1,0,1,1,0005-00-0001-14.png,0001-00-0000-27.png
00000009,823,1,1448299411568,1448299412101,1039,309,0,0,0,2,0,2,2,0003-00-0001-42.png,0001-00-0000-55.png
00000009,824,1,1448299412967,1448299413697,488,258,0,0,0,0,3,3,3,0001-00-0001-84.png,0002-00-0000-58.png
00000009,825,1,1448299414629,1448299415281,938,387,0,0,0,4,0,4,4,0004-00-0001-63.png,0001-00-0000-72.png
00000009,826,1,1448299416456,1448299417320,966,304,0,0,0,2,1,1,3,0003-00-0000-13.png,0005-00-0001-61.png
00000009,827,1,1448299418190,1448299419099,1041,304,0,0,0,3,1,2,4,0002-00-0001-60.png,0005-00-0001-57.png
00000009,828,1,1448299420023,1448299421013,427,358,0,0,0,1,4,3,5,0005-00-0000-29.png,0004-00-0001-27.png
00000009,829,1,1448299422068,1448299422779,946,320,0,0,0,3,0,3,3,0002-00-0000-78.png,0001-00-0000-84.png
00000009,830,0,1448299423826,1448299424712,949,335,0,0,0,0,2,2,2,0001-00-0000-59.png,0003-00-0001-14.png
00000009,831,1,1448299428121,1448299428835,964,373,0,0,0,3,2,1,5,0002-00-0001-47.png,0003-00-0001-30.png
00000009,832,0,1448299430020,1448299430073,862,410,0,0,0,2,4,2,6,0003-00-0001-18.png,0004-00-0000-03.png
00000009,833,1,1448299433240,1448299433791,1043,284,0,0,0,4,2,2,6,0004-00-0001-28.png,0003-00-0000-35.png
00000009,834,1,1448299434699,1448299435479,1083,253,0,0,0,4,3,1,7,0004-00-0001-15.png,0002-00-0001-30.png
00000009,835,1,1448299436459,1448299437204,495,244,0,0,0,1,3,2,4,0005-00-0000-46.png,0002-00-0001-51.png
00000009,836,0,1448299438285,1448299438313,860,500,0,0,0,1,2,1,3,0005-00-0000-60.png,0003-00-0001-79.png
00000009,837,0,1448299441655,1448299441701,913,332,0,0,0,3,4,1,7,0002-00-0000-79.png,0004-00-0001-90.png
00000009,838,0,1448299444914,1448299444951,896,333,0,0,0,0,4,4,4,0001-00-0000-65.png,0004-00-0001-75.png
00000009,839,0,1448299448137,1448299448167,930,306,0,0,0,2,3,1,5,0003-00-0001-89.png,0002-00-0000-42.png
00000009,840,0,1448299451367,1448299451458,979,308,0,0,0,0,1,1,1,0001-00-0001-20.png,0005-00-0000-90.png
00000009,841,0,1448299454496,1448299454566,918,367,0,0,0,1,3,2,4,0005-00-0000-93.png,0002-00-0001-18.png
00000009,842,1,1448299457933,1448299458479,494,258,0,0,0,0,2,2,2,0001-00-0000-70.png,0003-00-0000-96.png
00000009,843,1,1448299460139,1448299460167,869,301,0,0,0,4,3,1,7,0004-00-0000-75.png,0002-00-0001-21.png
00000009,844,1,1448299461264,1448299462419,1020,275,0,0,0,3,1,2,4,0002-00-0001-16.png,0005-00-0000-56.png
00000009,845,1,1448299463409,1448299464115,1023,285,0,0,0,2,0,2,2,0003-00-0001-37.png,0001-00-0000-42.png
00000009,846,0,1448299465099,1448299465826,514,230,0,0,0,4,1,3,5,0004-00-0000-15.png,0005-00-0001-67.png
00000009,847,1,1448299469053,1448299469072,886,333,0,0,0,4,0,4,4,0004-00-0000-08.png,0001-00-0000-30.png
00000009,848,1,1448299470133,1448299470826,1039,288,0,0,0,3,0,3,3,0002-00-0001-98.png,0001-00-0001-39.png
00000009,849,0,1448299471797,1448299471926,888,488,0,0,0,3,4,1,7,0002-00-0000-28.png,0004-00-0000-89.png
00000009,850,0,1448299475068,1448299475084,894,354,0,0,0,2,4,2,6,0003-00-0001-65.png,0004-00-0000-57.png
00000009,851,1,1448299478256,1448299479167,946,345,0,0,0,3,2,1,5,0002-00-0001-16.png,0003-00-0000-44.png
00000009,852,0,1448299480185,1448299480221,871,436,0,0,0,2,3,1,5,0003-00-0001-80.png,0002-00-0000-88.png
00000009,853,1,1448299483693,1448299484371,940,346,0,0,0,1,0,1,1,0005-00-0001-49.png,0001-00-0000-58.png
00000009,854,1,1448299485359,1448299486150,464,265,0,0,0,1,2,1,3,0005-00-0000-90.png,0003-00-0001-66.png
00000009,855,0,1448299487030,1448299487046,870,414,0,0,0,0,4,4,4,0001-00-0001-91.png,0004-00-0000-45.png
00000009,856,0,1448299490253,1448299490312,888,348,0,0,0,0,3,3,3,0001-00-0001-52.png,0002-00-0001-62.png
00000009,857,0,1448299493501,1448299494042,962,332,0,0,0,0,1,1,1,0001-00-0000-92.png,0005-00-0000-74.png
00000009,858,1,1448299497328,1448299498232,503,267,0,0,0,1,4,3,5,0005-00-0001-06.png,0004-00-0000-21.png
00000009,859,1,1448299499266,1448299499985,1045,297,0,0,0,2,1,1,3,0003-00-0001-40.png,0005-00-0000-17.png
00000009,860,1,1448299500845,1448299500910,888,470,0,0,0,4,2,2,6,0004-00-0001-66.png,0003-00-0000-73.png
00000009,861,1,1448299502053,1448299502136,869,477,0,0,0,3,2,1,5,0002-00-0001-69.png,0003-00-0000-64.png
00000009,862,1,1448299503212,1448299504410,914,390,0,0,0,4,3,1,7,0004-00-0000-37.png,0002-00-0000-38.png
00000009,863,0,1448299505417,1448299505478,888,531,0,0,0,1,3,2,4,0005-00-0001-15.png,0002-00-0001-65.png
00000009,864,0,1448299508554,1448299508607,879,362,0,0,0,2,4,2,6,0003-00-0001-70.png,0004-00-0000-08.png
00000009,865,1,1448299511735,1448299511775,893,355,0,0,0,2,1,1,3,0003-00-0000-92.png,0005-00-0001-90.png
00000009,866,1,1448299512821,1448299513538,953,330,0,0,0,3,1,2,4,0002-00-0000-32.png,0005-00-0001-24.png
00000009,867,1,1448299514497,1448299514520,889,388,0,0,0,4,2,2,6,0004-00-0001-40.png,0003-00-0000-96.png
00000009,868,1,1448299515581,1448299516600,932,339,0,0,0,4,0,4,4,0004-00-0000-44.png,0001-00-0001-72.png
00000009,869,1,1448299517570,1448299517609,891,418,0,0,0,4,1,3,5,0004-00-0001-01.png,0005-00-0000-75.png
00000009,870,1,1448299518712,1448299518783,901,462,0,0,0,1,0,1,1,0005-00-0001-18.png,0001-00-0000-88.png
00000009,871,0,1448299519986,1448299520041,862,436,0,0,0,3,4,1,7,0002-00-0001-34.png,0004-00-0000-76.png
00000009,872,1,1448299523215,1448299523787,408,348,0,0,0,0,2,2,2,0001-00-0001-60.png,0003-00-0000-12.png
00000009,873,1,1448299524762,1448299525504,938,324,0,0,0,2,0,2,2,0003-00-0000-88.png,0001-00-0000-84.png
00000009,874,1,1448299526464,1448299527151,422,349,0,0,0,0,4,4,4,0001-00-0001-30.png,0004-00-0001-08.png
00000009,875,0,1448299528136,1448299528171,862,435,0,0,0,1,2,1,3,0005-00-0001-57.png,0003-00-0001-96.png
00000009,876,1,1448299531354,1448299532351,481,297,0,0,0,0,3,3,3,0001-00-0000-47.png,0002-00-0000-27.png
00000009,877,0,1448299533419,1448299534281,934,330,0,0,0,2,3,1,5,0003-00-0001-83.png,0002-00-0001-25.png
00000009,878,1,1448299537282,1448299537832,1061,297,0,0,0,3,0,3,3,0002-00-0001-45.png,0001-00-0001-27.png
00000009,879,1,1448299538704,1448299539373,490,245,0,0,0,0,1,1,1,0001-00-0000-25.png,0005-00-0000-48.png
00000009,880,0,1448299540355,1448299540371,859,423,0,0,0,1,4,3,5,0005-00-0000-41.png,0004-00-0001-70.png
00000009,881,1,1448299543276,1448299543313,877,394,0,0,0,4,1,3,5,0004-00-0000-08.png,0005-00-0000-08.png
00000009,882,0,1448299544291,1448299544978,945,326,0,0,0,3,4,1,7,0002-00-0001-50.png,0004-00-0001-92.png
00000009,883,1,1448299548127,1448299548155,892,349,0,0,0,4,0,4,4,0004-00-0001-96.png,0001-00-0001-85.png
00000009,884,1,1448299549263,1448299549926,492,280,0,0,0,0,4,4,4,0001-00-0001-10.png,0004-00-0000-13.png
00000009,885,1,1448299550891,1448299551745,1053,293,0,0,0,4,3,1,7,0004-00-0000-40.png,0002-00-0000-83.png
00000009,886,0,1448299552688,1448299552763,885,517,0,0,0,2,4,2,6,0003-00-0001-50.png,0004-00-0001-67.png
00000009,887,1,1448299555757,1448299556287,495,270,0,0,0,1,3,2,4,0005-00-0001-04.png,0002-00-0000-31.png
00000009,888,1,1448299557222,1448299557982,925,319,0,0,0,3,0,3,3,0002-00-0001-97.png,0001-00-0000-10.png
00000009,889,1,1448299558939,1448299559652,519,250,0,0,0,0,1,1,1,0001-00-0001-77.png,0005-00-0000-72.png
00000009,890,1,1448299560908,1448299561740,939,416,0,0,0,3,2,1,5,0002-00-0001-16.png,0003-00-0000-00.png
00000009,891,1,1448299562800,1448299563822,1049,257,0,0,0,2,0,2,2,0003-00-0001-24.png,0001-00-0001-95.png
00000009,892,0,1448299564890,1448299565775,942,429,0,0,0,0,2,2,2,0001-00-0000-44.png,0003-00-0000-39.png
00000009,893,0,1448299568964,1448299568992,883,322,0,0,0,0,3,3,3,0001-00-0001-54.png,0002-00-0000-64.png
00000009,894,1,1448299572146,1448299572647,968,342,0,0,0,1,0,1,1,0005-00-0000-76.png,0001-00-0001-65.png
00000009,895,1,1448299573606,1448299573675,862,450,0,0,0,3,1,2,4,0002-00-0000-07.png,0005-00-0001-95.png
00000009,896,1,1448299574717,1448299575408,497,261,0,0,0,1,4,3,5,0005-00-0001-82.png,0004-00-0000-82.png
00000009,897,1,1448299576524,1448299577234,1039,281,0,0,0,2,1,1,3,0003-00-0001-15.png,0005-00-0000-40.png
00000009,898,1,1448299578761,1448299579726,948,332,0,0,0,4,2,2,6,0004-00-0001-37.png,0003-00-0001-49.png
00000009,899,0,1448299580781,1448299580829,862,476,0,0,0,1,2,1,3,0005-00-0000-29.png,0003-00-0000-52.png
00000009,900,0,1448299584451,1448299584467,862,329,0,0,0,2,3,1,5,0003-00-0000-62.png,0002-00-0000-17.png
00000009,901,1,1448299587339,1448299587906,942,333,0,0,0,3,2,1,5,0002-00-0000-01.png,0003-00-0001-43.png
00000009,902,0,1448299588847,1448299588903,860,450,0,0,0,2,3,1,5,0003-00-0001-89.png,0002-00-0000-26.png
00000009,903,1,1448299592059,1448299592548,953,398,0,0,0,4,2,2,6,0004-00-0001-47.png,0003-00-0001-04.png
00000009,904,1,1448299593424,1448299594277,936,336,0,0,0,4,1,3,5,0004-00-0000-70.png,0005-00-0000-78.png
00000009,905,1,1448299595255,1448299596271,920,351,0,0,0,4,0,4,4,0004-00-0000-21.png,0001-00-0000-25.png
00000009,906,1,1448299597279,1448299597317,902,451,0,0,0,4,3,1,7,0004-00-0001-34.png,0002-00-0000-82.png
00000009,907,0,1448299598429,1448299598524,860,489,0,0,0,0,2,2,2,0001-00-0000-77.png,0003-00-0000-46.png
00000009,908,0,1448299601882,1448299601927,929,315,0,0,0,0,4,4,4,0001-00-0001-00.png,0004-00-0000-70.png
00000009,909,1,1448299605108,1448299605712,1065,317,0,0,0,3,1,2,4,0002-00-0000-92.png,0005-00-0001-68.png
00000009,910,1,1448299606619,1448299607390,508,237,0,0,0,0,3,3,3,0001-00-0000-12.png,0002-00-0001-01.png
00000009,911,1,1448299608364,1448299609294,495,265,0,0,0,0,1,1,1,0001-00-0001-68.png,0005-00-0000-93.png
00000009,912,1,1448299610298,1448299611558,402,327,0,0,0,2,4,2,6,0003-00-0001-68.png,0004-00-0001-94.png
00000009,913,1,1448299612582,1448299613285,1182,397,0,0,0,1,0,1,1,0005-00-0001-26.png,0001-00-0000-61.png
00000009,914,1,1448299614349,1448299615069,511,244,0,0,0,1,2,1,3,0005-00-0001-15.png,0003-00-0000-99.png
00000009,915,1,1448299616079,1448299616890,1065,274,0,0,0,2,0,2,2,0003-00-0000-71.png,0001-00-0000-81.png
00000009,916,0,1448299617876,1448299618873,952,336,0,0,0,3,4,1,7,0002-00-0000-93.png,0004-00-0001-88.png
00000009,917,1,1448299621953,1448299622502,943,377,0,0,0,3,0,3,3,0002-00-0000-78.png,0001-00-0001-58.png
00000009,918,1,1448299623413,1448299624118,510,224,0,0,0,1,3,2,4,0005-00-0000-41.png,0002-00-0001-72.png
00000009,919,1,1448299625222,1448299626052,516,242,0,0,0,1,4,3,5,0005-00-0000-20.png,0004-00-0000-90.png
00000009,920,1,1448299627077,1448299627093,864,457,0,0,0,2,1,1,3,0003-00-0000-13.png,0005-00-0000-03.png
00000009,921,1,1448299628262,1448299628298,862,397,0,0,0,4,0,4,4,0004-00-0000-53.png,0001-00-0001-26.png
00000009,922,1,1448299629514,1448299630404,916,323,0,0,0,2,1,1,3,0003-00-0001-95.png,0005-00-0000-09.png
00000009,923,1,1448299631480,1448299632358,955,298,0,0,0,1,0,1,1,0005-00-0001-94.png,0001-00-0001-13.png
00000009,924,1,1448299633360,1448299634756,513,246,0,0,0,0,2,2,2,0001-00-0001-88.png,0003-00-0001-04.png
00000009,925,1,1448299635771,1448299636675,927,310,0,0,0,4,1,3,5,0004-00-0000-48.png,0005-00-0000-66.png
00000009,926,1,1448299637680,1448299637692,932,401,0,0,0,4,3,1,7,0004-00-0000-32.png,0002-00-0001-23.png
00000009,927,1,1448299638934,1448299639693,921,328,0,0,0,2,0,2,2,0003-00-0000-82.png,0001-00-0001-10.png
00000009,928,1,1448299640853,1448299641556,518,240,0,0,0,1,4,3,5,0005-00-0001-52.png,0004-00-0000-73.png
00000009,929,1,1448299642607,1448299643229,507,267,0,0,0,0,1,1,1,0001-00-0001-68.png,0005-00-0001-99.png
00000009,930,0,1448299644289,1448299645053,1067,267,0,0,0,2,3,1,5,0003-00-0001-25.png,0002-00-0001-66.png
00000009,931,1,1448299648004,1448299648927,382,366,0,0,0,2,4,2,6,0003-00-0001-07.png,0004-00-0001-21.png
00000009,932,1,1448299649902,1448299650802,484,252,0,0,0,1,3,2,4,0005-00-0001-04.png,0002-00-0001-03.png
00000009,933,1,1448299651739,1448299652971,471,246,0,0,0,3,4,1,7,0002-00-0001-12.png,0004-00-0000-11.png
00000009,934,0,1448299653997,1448299654104,882,498,0,0,0,0,3,3,3,0001-00-0001-22.png,0002-00-0001-39.png
00000009,935,1,1448299657207,1448299657803,956,432,0,0,0,3,0,3,3,0002-00-0001-21.png,0001-00-0001-01.png
00000009,936,0,1448299658788,1448299658848,862,423,0,0,0,1,2,1,3,0005-00-0001-72.png,0003-00-0001-36.png
00000009,937,1,1448299662188,1448299662817,1059,277,0,0,0,3,2,1,5,0002-00-0001-27.png,0003-00-0001-05.png
00000009,938,1,1448299663736,1448299664467,940,296,0,0,0,3,1,2,4,0002-00-0001-90.png,0005-00-0001-50.png
00000009,939,1,1448299665461,1448299666133,506,235,0,0,0,0,4,4,4,0001-00-0001-90.png,0004-00-0000-33.png
00000009,940,1,1448299667191,1448299667251,862,488,0,0,0,4,2,2,6,0004-00-0001-71.png,0003-00-0000-40.png
00000009,941,0,1448299668469,1448299669296,516,263,0,0,0,4,3,1,7,0004-00-0001-96.png,0002-00-0000-65.png
00000009,942,1,1448299672252,1448299672284,909,410,0,0,0,2,0,2,2,0003-00-0001-70.png,0001-00-0001-40.png
00000009,943,1,1448299673464,1448299674118,396,337,0,0,0,1,4,3,5,0005-00-0000-96.png,0004-00-0001-99.png
00000009,944,0,1448299675091,1448299675957,1041,279,0,0,0,0,1,1,1,0001-00-0000-86.png,0005-00-0000-61.png
00000009,945,0,1448299678859,1448299678883,882,359,0,0,0,3,4,1,7,0002-00-0001-18.png,0004-00-0001-05.png
00000009,946,1,1448299682308,1448299683061,482,275,0,0,0,0,3,3,3,0001-00-0000-50.png,0002-00-0001-81.png
00000009,947,1,1448299684077,1448299684731,392,348,0,0,0,1,3,2,4,0005-00-0001-89.png,0002-00-0000-85.png
00000009,948,1,1448299685715,1448299686455,1025,266,0,0,0,4,1,3,5,0004-00-0000-09.png,0005-00-0001-75.png
00000009,949,1,1448299687507,1448299688247,462,255,0,0,0,1,2,1,3,0005-00-0001-33.png,0003-00-0001-35.png
00000009,950,1,1448299689295,1448299690219,951,308,0,0,0,4,2,2,6,0004-00-0001-08.png,0003-00-0001-88.png
