subject_id,trial,correct_response,stim_time,response_time,x_coord,y_coord,trial_timeout,timeout_time,interTrial_timeout,left_rank,right_rank,distance,joint_rank,left_image,right_image
00000014,1,0,1447257148679,1447257149126,370,325,0,0,0,2,1,1,3,0003-00-0001-98.png,0005-00-0000-35.png
00000014,2,1,1447257152098,1447257152494,376,404,0,0,0,1,2,1,3,0005-00-0000-07.png,0003-00-0000-93.png
00000014,3,1,1447257153469,1447257153980,393,376,0,0,0,0,4,4,4,0001-00-0000-80.png,0004-00-0000-48.png
00000014,4,0,1447257154946,1447257155429,900,482,0,0,0,2,3,1,5,0003-00-0001-51.png,0002-00-0000-14.png
00000014,5,1,1447257158336,1447257158931,377,335,0,0,0,0,3,3,3,0001-00-0000-98.png,0002-00-0000-81.png
00000014,6,1,1447257159907,1447257160394,887,502,0,0,0,3,1,2,4,0002-00-0001-91.png,0005-00-0001-32.png
00000014,7,0,1447257161427,1447257161965,858,462,0,0,0,0,2,2,2,0001-00-0001-42.png,0003-00-0001-35.png
00000014,8,0,1447257165156,1447257165578,951,384,0,0,0,2,4,2,6,0003-00-0000-66.png,0004-00-0001-17.png
00000014,9,1,1447257168643,1447257169107,873,405,0,0,0,2,0,2,2,0003-00-0000-92.png,0001-00-0000-24.png
00000014,10,1,1447257170154,1447257170599,390,467,0,0,0,1,4,3,5,0005-00-0000-97.png,0004-00-0000-33.png
00000014,11,1,1447257171653,1447257172120,927,424,0,0,0,1,0,1,1,0005-00-0001-43.png,0001-00-0001-13.png
00000014,12,0,1447257173325,1447257173831,905,399,0,0,0,3,4,1,7,0002-00-0001-17.png,0004-00-0001-80.png
00000014,13,0,1447257178472,1447257178930,898,514,0,0,0,0,1,1,1,0001-00-0001-40.png,0005-00-0001-71.png
00000014,14,1,1447257182071,1447257182508,955,427,0,0,0,4,0,4,4,0004-00-0001-11.png,0001-00-0001-14.png
00000014,15,0,1447257183592,1447257184026,329,462,0,0,0,3,0,3,3,0002-00-0000-71.png,0001-00-0000-61.png
00000014,16,0,1447257187129,1447257187562,446,540,0,0,0,4,1,3,5,0004-00-0000-84.png,0005-00-0000-48.png
00000014,17,0,1447257190433,1447257190465,478,422,0,0,0,3,2,1,5,0002-00-0000-88.png,0003-00-0001-46.png
00000014,18,1,1447257193679,1447257194164,902,463,0,0,0,4,3,1,7,0004-00-0000-00.png,0002-00-0000-99.png
00000014,19,0,1447257195318,1447257195792,877,493,0,0,0,1,3,2,4,0005-00-0000-70.png,0002-00-0000-47.png
00000014,20,0,1447257198777,1447257199210,401,501,0,0,0,4,2,2,6,0004-00-0001-15.png,0003-00-0000-09.png
00000014,21,1,1447257202185,1447257202715,925,449,0,0,0,4,3,1,7,0004-00-0001-55.png,0002-00-0000-54.png
00000014,22,0,1447257203727,1447257204264,902,414,0,0,0,2,3,1,5,0003-00-0001-10.png,0002-00-0001-46.png
00000014,23,0,1447257207811,1447257208316,909,501,0,0,0,2,4,2,6,0003-00-0000-27.png,0004-00-0000-19.png
00000014,24,1,1447257212285,1447257212787,950,436,0,0,0,3,0,3,3,0002-00-0000-19.png,0001-00-0000-20.png
00000014,25,1,1447257213987,1447257214417,367,520,0,0,0,0,2,2,2,0001-00-0000-18.png,0003-00-0000-17.png
00000014,26,1,1447257215631,1447257216099,875,492,0,0,0,2,0,2,2,0003-00-0001-52.png,0001-00-0001-40.png
00000014,27,1,1447257217276,1447257217804,877,363,0,0,0,3,2,1,5,0002-00-0000-20.png,0003-00-0000-29.png
00000014,28,0,1447257218995,1447257219764,880,376,0,0,0,3,4,1,7,0002-00-0000-19.png,0004-00-0000-75.png
00000014,29,1,1447257222861,1447257223290,391,502,0,0,0,0,1,1,1,0001-00-0001-98.png,0005-00-0000-53.png
00000014,30,0,1447257224402,1447257224866,368,546,0,0,0,3,1,2,4,0002-00-0000-00.png,0005-00-0000-55.png
00000014,31,1,1447257228020,1447257228494,947,415,0,0,0,4,0,4,4,0004-00-0001-74.png,0001-00-0001-19.png
00000014,32,1,1447257229628,1447257230049,344,448,0,0,0,0,4,4,4,0001-00-0000-29.png,0004-00-0001-77.png
00000014,33,0,1447257231379,1447257231852,947,445,0,0,0,1,4,3,5,0005-00-0000-15.png,0004-00-0001-86.png
00000014,34,1,1447257235056,1447257235526,883,475,0,0,0,2,1,1,3,0003-00-0000-00.png,0005-00-0001-80.png
00000014,35,1,1447257236608,1447257237112,932,423,0,0,0,1,0,1,1,0005-00-0000-52.png,0001-00-0001-02.png
00000014,36,1,1447257238208,1447257238648,374,552,0,0,0,1,3,2,4,0005-00-0000-17.png,0002-00-0000-30.png
00000014,37,1,1447257239837,1447257240523,369,433,0,0,0,0,3,3,3,0001-00-0001-21.png,0002-00-0000-15.png
00000014,38,1,1447257241649,1447257242099,900,397,0,0,0,4,1,3,5,0004-00-0000-99.png,0005-00-0001-07.png
00000014,39,1,1447257243218,1447257243732,899,439,0,0,0,4,2,2,6,0004-00-0001-79.png,0003-00-0000-18.png
00000014,40,1,1447257244838,1447257245831,339,345,0,0,0,1,2,1,3,0005-00-0001-51.png,0003-00-0000-56.png
00000014,41,1,1447257246965,1447257247345,377,437,0,0,0,1,2,1,3,0005-00-0001-41.png,0003-00-0001-93.png
00000014,42,0,1447257248536,1447257248969,905,428,0,0,0,2,3,1,5,0003-00-0001-73.png,0002-00-0000-71.png
00000014,43,1,1447257252441,1447257252947,872,513,0,0,0,2,1,1,3,0003-00-0000-72.png,0005-00-0001-74.png
00000014,44,0,1447257254132,1447257254645,885,490,0,0,0,1,3,2,4,0005-00-0000-62.png,0002-00-0001-32.png
00000014,45,0,1447257257488,1447257257980,337,425,0,0,0,3,0,3,3,0002-00-0001-59.png,0001-00-0001-74.png
00000014,46,1,1447257261126,1447257261573,937,422,0,0,0,4,3,1,7,0004-00-0000-81.png,0002-00-0001-71.png
00000014,47,1,1447257262738,1447257263263,896,420,0,0,0,1,0,1,1,0005-00-0001-56.png,0001-00-0001-74.png
00000014,48,1,1447257264479,1447257264997,899,410,0,0,0,4,0,4,4,0004-00-0000-27.png,0001-00-0000-09.png
00000014,49,0,1447257266227,1447257266693,903,415,0,0,0,2,4,2,6,0003-00-0000-41.png,0004-00-0001-07.png
00000014,50,1,1447257270540,1447257271000,900,502,0,0,0,2,0,2,2,0003-00-0001-65.png,0001-00-0000-68.png
00000014,51,0,1447257272046,1447257272474,357,447,0,0,0,4,2,2,6,0004-00-0001-30.png,0003-00-0000-48.png
00000014,52,1,1447257275858,1447257276272,396,448,0,0,0,3,4,1,7,0002-00-0000-19.png,0004-00-0000-72.png
00000014,53,1,1447257277885,1447257278383,362,440,0,0,0,0,1,1,1,0001-00-0001-32.png,0005-00-0001-00.png
00000014,54,1,1447257279445,1447257279877,392,543,0,0,0,0,3,3,3,0001-00-0000-72.png,0002-00-0000-15.png
00000014,55,1,1447257280965,1447257281423,351,424,0,0,0,0,2,2,2,0001-00-0000-04.png,0003-00-0001-03.png
00000014,56,0,1447257282607,1447257283116,880,428,0,0,0,1,4,3,5,0005-00-0001-36.png,0004-00-0001-64.png
00000014,57,1,1447257286553,1447257287027,893,510,0,0,0,3,1,2,4,0002-00-0000-22.png,0005-00-0000-42.png
00000014,58,1,1447257288064,1447257288585,378,427,0,0,0,0,4,4,4,0001-00-0000-65.png,0004-00-0000-43.png
00000014,59,1,1447257289664,1447257290634,937,398,0,0,0,4,1,3,5,0004-00-0000-23.png,0005-00-0001-15.png
00000014,60,0,1447257291762,1447257292133,453,514,0,0,0,3,2,1,5,0002-00-0000-24.png,0003-00-0000-80.png
00000014,61,1,1447257295647,1447257296091,903,520,0,0,0,4,0,4,4,0004-00-0000-89.png,0001-00-0000-57.png
00000014,62,1,1447257297169,1447257297615,391,472,0,0,0,0,3,3,3,0001-00-0000-94.png,0002-00-0001-75.png
00000014,63,1,1447257298798,1447257299307,874,516,0,0,0,3,2,1,5,0002-00-0000-06.png,0003-00-0001-77.png
00000014,64,1,1447257300468,1447257300913,350,474,0,0,0,0,4,4,4,0001-00-0000-46.png,0004-00-0001-19.png
00000014,65,0,1447257302139,1447257302639,879,428,0,0,0,1,3,2,4,0005-00-0000-82.png,0002-00-0001-71.png
00000014,66,0,1447257305527,1447257305969,930,402,0,0,0,3,4,1,7,0002-00-0001-20.png,0004-00-0000-15.png
00000014,67,0,1447257311003,1447257311609,390,358,0,0,0,2,0,2,2,0003-00-0001-32.png,0001-00-0001-96.png
00000014,68,0,1447257314759,1447257315177,427,388,0,0,0,1,0,1,1,0005-00-0001-89.png,0001-00-0000-43.png
00000014,69,0,1447257318407,1447257318843,926,410,0,0,0,0,1,1,1,0001-00-0001-07.png,0005-00-0000-48.png
00000014,70,1,1447257322194,1447257322705,370,475,0,0,0,1,4,3,5,0005-00-0001-30.png,0004-00-0000-04.png
00000014,71,1,1447257323884,1447257324307,364,449,0,0,0,0,2,2,2,0001-00-0001-92.png,0003-00-0000-61.png
00000014,72,0,1447257325453,1447257326007,389,467,0,0,0,4,2,2,6,0004-00-0000-65.png,0003-00-0000-56.png
00000014,73,1,1447257329111,1447257329513,930,403,0,0,0,2,1,1,3,0003-00-0000-65.png,0005-00-0000-65.png
00000014,74,0,1447257330503,1447257331151,887,398,0,0,0,1,2,1,3,0005-00-0001-09.png,0003-00-0001-82.png
00000014,75,0,1447257334208,1447257334707,929,388,0,0,0,2,3,1,5,0003-00-0001-48.png,0002-00-0000-92.png
00000014,76,0,1447257337794,1447257338234,374,423,0,0,0,3,1,2,4,0002-00-0000-27.png,0005-00-0000-66.png
00000014,77,1,1447257341413,1447257341987,896,464,0,0,0,4,1,3,5,0004-00-0000-45.png,0005-00-0000-55.png
00000014,78,1,1447257343053,1447257343570,912,473,0,0,0,3,0,3,3,0002-00-0000-75.png,0001-00-0001-40.png
00000014,79,0,1447257344664,1447257345128,901,435,0,0,0,2,4,2,6,0003-00-0001-42.png,0004-00-0001-52.png
00000014,80,0,1447257348172,1447257348578,400,390,0,0,0,4,3,1,7,0004-00-0000-12.png,0002-00-0001-68.png
00000014,81,1,1447257351949,1447257352499,900,489,0,0,0,4,1,3,5,0004-00-0001-98.png,0005-00-0001-58.png
00000014,82,1,1447257353550,1447257354000,872,533,0,0,0,3,0,3,3,0002-00-0000-34.png,0001-00-0001-14.png
00000014,83,1,1447257354976,1447257355381,325,423,0,0,0,0,1,1,1,0001-00-0001-25.png,0005-00-0001-53.png
00000014,84,1,1447257356484,1447257356969,861,535,0,0,0,1,0,1,1,0005-00-0000-25.png,0001-00-0000-91.png
00000014,85,1,1447257358083,1447257358519,413,488,0,0,0,0,2,2,2,0001-00-0000-12.png,0003-00-0000-06.png
00000014,86,1,1447257359699,1447257360108,412,424,0,0,0,0,4,4,4,0001-00-0001-67.png,0004-00-0000-78.png
00000014,87,0,1447257361462,1447257362045,895,524,0,0,0,1,4,3,5,0005-00-0001-21.png,0004-00-0000-49.png
00000014,88,1,1447257365803,1447257366271,950,411,0,0,0,4,0,4,4,0004-00-0001-84.png,0001-00-0001-37.png
00000014,89,1,1447257367340,1447257367768,425,472,0,0,0,0,3,3,3,0001-00-0001-83.png,0002-00-0000-51.png
00000014,90,1,1447257368906,1447257369971,928,545,0,0,0,2,0,2,2,0003-00-0001-03.png,0001-00-0000-74.png
00000014,91,0,1447257371181,1447257371677,898,406,0,0,0,2,4,2,6,0003-00-0000-38.png,0004-00-0001-49.png
00000014,92,1,1447257374742,1447257375191,876,358,0,0,0,2,1,1,3,0003-00-0001-37.png,0005-00-0001-42.png
00000014,93,1,1447257376686,1447257377096,401,418,0,0,0,3,4,1,7,0002-00-0000-94.png,0004-00-0001-02.png
00000014,94,1,1447257378157,1447257378604,899,448,0,0,0,3,2,1,5,0002-00-0000-79.png,0003-00-0001-32.png
00000014,95,0,1447257379865,1447257380277,431,505,0,0,0,4,3,1,7,0004-00-0001-66.png,0002-00-0000-92.png
00000014,96,1,1447257383339,1447257383800,905,471,0,0,0,3,1,2,4,0002-00-0001-39.png,0005-00-0000-94.png
00000014,97,1,1447257384768,1447257385329,881,446,0,0,0,4,2,2,6,0004-00-0001-56.png,0003-00-0000-77.png
00000014,98,1,1447257386418,1447257386972,402,455,0,0,0,1,2,1,3,0005-00-0000-82.png,0003-00-0000-49.png
00000014,99,0,1447257388058,1447257388619,872,458,0,0,0,2,3,1,5,0003-00-0000-15.png,0002-00-0001-88.png
00000014,100,0,1447257391835,1447257392397,925,410,0,0,0,1,3,2,4,0005-00-0001-07.png,0002-00-0000-14.png
00000014,101,1,1447257395383,1447257395886,350,396,0,0,0,1,2,1,3,0005-00-0000-71.png,0003-00-0000-10.png
00000014,102,0,1447257396982,1447257397393,385,483,0,0,0,4,1,3,5,0004-00-0000-37.png,0005-00-0000-51.png
00000014,103,0,1447257402374,1447257402834,881,361,0,0,0,2,4,2,6,0003-00-0000-30.png,0004-00-0000-20.png
00000014,104,1,1447257406098,1447257406602,363,502,0,0,0,0,2,2,2,0001-00-0000-19.png,0003-00-0001-27.png
00000014,105,1,1447257407618,1447257408112,869,507,0,0,0,2,0,2,2,0003-00-0000-47.png,0001-00-0000-19.png
00000014,106,1,1447257409645,1447257410167,895,394,0,0,0,2,1,1,3,0003-00-0000-94.png,0005-00-0001-58.png
00000014,107,1,1447257411250,1447257411869,341,398,0,0,0,0,1,1,1,0001-00-0000-03.png,0005-00-0001-60.png
00000014,108,1,1447257413026,1447257413540,472,515,0,0,0,0,3,3,3,0001-00-0000-92.png,0002-00-0001-58.png
00000014,109,1,1447257414687,1447257415141,358,454,0,0,0,1,3,2,4,0005-00-0001-44.png,0002-00-0001-11.png
00000014,110,1,1447257416285,1447257416809,873,516,0,0,0,3,0,3,3,0002-00-0000-73.png,0001-00-0000-66.png
00000014,111,0,1447257417918,1447257418459,887,450,0,0,0,2,3,1,5,0003-00-0000-03.png,0002-00-0001-46.png
00000014,112,1,1447257422071,1447257422517,931,427,0,0,0,4,2,2,6,0004-00-0001-10.png,0003-00-0000-11.png
00000014,113,1,1447257423620,1447257424102,410,498,0,0,0,1,4,3,5,0005-00-0000-13.png,0004-00-0000-85.png
00000014,114,1,1447257425320,1447257425932,868,535,0,0,0,4,3,1,7,0004-00-0001-75.png,0002-00-0000-05.png
00000014,115,0,1447257427050,1447257427476,408,472,0,0,0,3,2,1,5,0002-00-0000-22.png,0003-00-0001-29.png
00000014,116,0,1447257430459,1447257431023,432,363,0,0,0,3,1,2,4,0002-00-0000-54.png,0005-00-0000-78.png
00000014,117,1,1447257434258,1447257434660,351,419,0,0,0,0,4,4,4,0001-00-0000-28.png,0004-00-0001-63.png
00000014,118,1,1447257435707,1447257436357,337,413,0,0,0,3,4,1,7,0002-00-0001-21.png,0004-00-0001-03.png
00000014,119,1,1447257437476,1447257438052,898,466,0,0,0,4,0,4,4,0004-00-0001-94.png,0001-00-0000-21.png
00000014,120,1,1447257439188,1447257440197,923,490,0,0,0,1,0,1,1,0005-00-0000-65.png,0001-00-0000-51.png
00000014,121,1,1447257441323,1447257441762,379,445,0,0,0,0,3,3,3,0001-00-0001-26.png,0002-00-0000-15.png
00000014,122,0,1447257442914,1447257443432,366,475,0,0,0,1,0,1,1,0005-00-0000-24.png,0001-00-0001-78.png
00000014,123,1,1447257447992,1447257448433,926,423,0,0,0,3,0,3,3,0002-00-0000-79.png,0001-00-0000-32.png
00000014,124,0,1447257449622,1447257450044,385,468,0,0,0,4,2,2,6,0004-00-0000-19.png,0003-00-0001-75.png
00000014,125,1,1447257453260,1447257453756,874,501,0,0,0,4,0,4,4,0004-00-0000-25.png,0001-00-0001-59.png
00000014,126,1,1447257454874,1447257455470,931,427,0,0,0,3,1,2,4,0002-00-0001-16.png,0005-00-0000-79.png
00000014,127,1,1447257456540,1447257457151,898,435,0,0,0,2,0,2,2,0003-00-0001-35.png,0001-00-0000-23.png
00000014,128,1,1447257458209,1447257458825,895,429,0,0,0,4,1,3,5,0004-00-0000-34.png,0005-00-0001-46.png
00000014,129,1,1447257459944,1447257460364,392,468,0,0,0,1,4,3,5,0005-00-0001-87.png,0004-00-0001-02.png
00000014,130,1,1447257461511,1447257462424,338,412,0,0,0,0,4,4,4,0001-00-0001-79.png,0004-00-0001-54.png
00000014,131,1,1447257463614,1447257464055,427,502,0,0,0,1,2,1,3,0005-00-0001-55.png,0003-00-0000-78.png
00000014,132,0,1447257465248,1447257465734,900,437,0,0,0,3,4,1,7,0002-00-0000-11.png,0004-00-0001-64.png
00000014,133,1,1447257468602,1447257469065,395,513,0,0,0,1,3,2,4,0005-00-0001-57.png,0002-00-0000-21.png
00000014,134,0,1447257470137,1447257470698,877,441,0,0,0,2,4,2,6,0003-00-0001-31.png,0004-00-0001-47.png
00000014,135,1,1447257473818,1447257474269,340,386,0,0,0,0,2,2,2,0001-00-0000-89.png,0003-00-0000-87.png
00000014,136,0,1447257475263,1447257475875,876,461,0,0,0,2,3,1,5,0003-00-0000-13.png,0002-00-0001-83.png
00000014,137,1,1447257478934,1447257479369,375,419,0,0,0,0,1,1,1,0001-00-0000-31.png,0005-00-0000-76.png
00000014,138,0,1447257480364,1447257481292,376,410,0,0,0,3,2,1,5,0002-00-0000-60.png,0003-00-0001-01.png
00000014,139,1,1447257485084,1447257485639,875,462,0,0,0,4,3,1,7,0004-00-0001-53.png,0002-00-0000-53.png
00000014,140,1,1447257486721,1447257487231,912,450,0,0,0,2,1,1,3,0003-00-0000-64.png,0005-00-0000-74.png
00000014,141,1,1447257488382,1447257488848,902,442,0,0,0,1,0,1,1,0005-00-0000-66.png,0001-00-0001-62.png
00000014,142,0,1447257490223,1447257490618,411,478,0,0,0,3,0,3,3,0002-00-0000-66.png,0001-00-0000-12.png
00000014,143,1,1447257494807,1447257495317,901,410,0,0,0,4,0,4,4,0004-00-0001-21.png,0001-00-0001-18.png
00000014,144,1,1447257496624,1447257497173,870,445,0,0,0,2,0,2,2,0003-00-0001-33.png,0001-00-0000-87.png
00000014,145,0,1447257498354,1447257498939,341,429,0,0,0,4,1,3,5,0004-00-0000-89.png,0005-00-0001-89.png
00000014,146,1,1447257502399,1447257502850,346,386,0,0,0,1,4,3,5,0005-00-0001-99.png,0004-00-0001-15.png
00000014,147,0,1447257503811,1447257504344,876,460,0,0,0,1,3,2,4,0005-00-0000-05.png,0002-00-0001-06.png
00000014,148,0,1447257508394,1447257508859,885,503,0,0,0,2,4,2,6,0003-00-0001-30.png,0004-00-0001-70.png
00000014,149,0,1447257512022,1447257512509,885,517,0,0,0,3,4,1,7,0002-00-0000-65.png,0004-00-0001-57.png
00000014,150,1,1447257515469,1447257515943,395,373,0,0,0,0,4,4,4,0001-00-0000-69.png,0004-00-0001-01.png
00000014,151,0,1447257516953,1447257517476,863,539,0,0,0,2,3,1,5,0003-00-0000-72.png,0002-00-0000-95.png
00000014,152,1,1447257520667,1447257521095,901,477,0,0,0,3,1,2,4,0002-00-0001-39.png,0005-00-0001-38.png
00000014,153,1,1447257522167,1447257522548,381,452,0,0,0,0,3,3,3,0001-00-0000-56.png,0002-00-0000-53.png
00000014,154,1,1447257523658,1447257524053,393,453,0,0,0,0,1,1,1,0001-00-0000-98.png,0005-00-0000-09.png
00000014,155,0,1447257525198,1447257525652,342,429,0,0,0,3,2,1,5,0002-00-0000-70.png,0003-00-0001-04.png
00000014,156,0,1447257528989,1447257529428,901,398,0,0,0,0,2,2,2,0001-00-0000-08.png,0003-00-0000-93.png
00000014,157,1,1447257534979,1447257535433,377,443,0,0,0,1,2,1,3,0005-00-0001-50.png,0003-00-0001-04.png
00000014,158,0,1447257536494,1447257537117,423,410,0,0,0,4,2,2,6,0004-00-0000-86.png,0003-00-0001-98.png
00000014,159,0,1447257540236,1447257540760,401,390,0,0,0,4,3,1,7,0004-00-0000-67.png,0002-00-0000-99.png
00000014,160,1,1447257545821,1447257546256,903,414,0,0,0,2,1,1,3,0003-00-0001-01.png,0005-00-0000-87.png
00000014,161,0,1447257547235,1447257547670,376,474,0,0,0,2,1,1,3,0003-00-0000-51.png,0005-00-0000-79.png
00000014,162,1,1447257550830,1447257551252,346,411,0,0,0,0,1,1,1,0001-00-0000-38.png,0005-00-0001-97.png
00000014,163,1,1447257552291,1447257552839,914,424,0,0,0,3,1,2,4,0002-00-0001-14.png,0005-00-0000-69.png
00000014,164,1,1447257553983,1447257554533,384,403,0,0,0,0,3,3,3,0001-00-0000-80.png,0002-00-0001-21.png
00000014,165,0,1447257555660,1447257556260,466,450,0,0,0,4,2,2,6,0004-00-0001-43.png,0003-00-0001-33.png
00000014,166,0,1447257559826,1447257560268,902,495,0,0,0,3,4,1,7,0002-00-0001-06.png,0004-00-0001-44.png
00000014,167,0,1447257563264,1447257563673,376,396,0,0,0,4,3,1,7,0004-00-0001-07.png,0002-00-0000-08.png
00000014,168,1,1447257566755,1447257567218,921,498,0,0,0,1,0,1,1,0005-00-0000-57.png,0001-00-0001-87.png
00000014,169,1,1447257568274,1447257568649,373,464,0,0,0,1,2,1,3,0005-00-0001-99.png,0003-00-0001-01.png
00000014,170,1,1447257569726,1447257570216,912,450,0,0,0,3,0,3,3,0002-00-0001-04.png,0001-00-0001-63.png
00000014,171,1,1447257571406,1447257571894,382,453,0,0,0,1,4,3,5,0005-00-0000-32.png,0004-00-0001-83.png
00000014,172,0,1447257573035,1447257573505,398,456,0,0,0,4,0,4,4,0004-00-0001-73.png,0001-00-0001-31.png
00000014,173,0,1447257576694,1447257577191,922,419,0,0,0,1,3,2,4,0005-00-0001-02.png,0002-00-0001-86.png
00000014,174,0,1447257580329,1447257580736,927,423,0,0,0,2,3,1,5,0003-00-0001-83.png,0002-00-0001-42.png
00000014,175,0,1447257583890,1447257584661,433,387,0,0,0,3,2,1,5,0002-00-0001-03.png,0003-00-0001-02.png
00000014,176,0,1447257587754,1447257588190,924,404,0,0,0,0,4,4,4,0001-00-0000-17.png,0004-00-0000-40.png
00000014,177,1,1447257591172,1447257591688,899,515,0,0,0,4,1,3,5,0004-00-0001-89.png,0005-00-0000-62.png
00000014,178,0,1447257592773,1447257593275,914,421,0,0,0,2,4,2,6,0003-00-0001-89.png,0004-00-0001-44.png
00000014,179,1,1447257596881,1447257597351,927,442,0,0,0,2,0,2,2,0003-00-0000-67.png,0001-00-0001-52.png
00000014,180,1,1447257598478,1447257598850,378,422,0,0,0,0,2,2,2,0001-00-0000-24.png,0003-00-0001-50.png
00000014,181,0,1447257599975,1447257600510,396,539,0,0,0,3,2,1,5,0002-00-0001-50.png,0003-00-0000-27.png
00000014,182,0,1447257604035,1447257604551,899,435,0,0,0,2,3,1,5,0003-00-0000-58.png,0002-00-0001-91.png
00000014,183,1,1447257607642,1447257608074,925,501,0,0,0,1,0,1,1,0005-00-0000-03.png,0001-00-0000-15.png
00000014,184,0,1447257609114,1447257609656,912,451,0,0,0,2,4,2,6,0003-00-0000-43.png,0004-00-0001-78.png
00000014,185,1,1447257613149,1447257613549,413,448,0,0,0,1,2,1,3,0005-00-0000-28.png,0003-00-0000-11.png
00000014,186,0,1447257614648,1447257615263,920,442,0,0,0,0,1,1,1,0001-00-0001-22.png,0005-00-0000-68.png
00000014,187,1,1447257618398,1447257618834,924,406,0,0,0,3,1,2,4,0002-00-0000-10.png,0005-00-0000-86.png
00000014,188,1,1447257619886,1447257621308,931,416,0,0,0,4,0,4,4,0004-00-0001-30.png,0001-00-0000-80.png
00000014,189,1,1447257622332,1447257623065,893,480,0,0,0,4,3,1,7,0004-00-0001-02.png,0002-00-0001-44.png
00000014,190,0,1447257624141,1447257624557,399,463,0,0,0,4,1,3,5,0004-00-0000-82.png,0005-00-0000-10.png
00000014,191,1,1447257627559,1447257627982,414,449,0,0,0,0,2,2,2,0001-00-0001-73.png,0003-00-0001-70.png
00000014,192,0,1447257629100,1447257629732,942,431,0,0,0,0,4,4,4,0001-00-0000-07.png,0004-00-0000-46.png
00000014,193,0,1447257634579,1447257635122,401,391,0,0,0,3,0,3,3,0002-00-0001-88.png,0001-00-0000-59.png
00000014,194,1,1447257638145,1447257638593,350,423,0,0,0,1,4,3,5,0005-00-0000-30.png,0004-00-0000-53.png
00000014,195,1,1447257639824,1447257640447,874,516,0,0,0,2,0,2,2,0003-00-0001-45.png,0001-00-0000-23.png
00000014,196,0,1447257641513,1447257641907,388,460,0,0,0,2,1,1,3,0003-00-0001-13.png,0005-00-0000-08.png
00000014,197,0,1447257645033,1447257645476,927,390,0,0,0,3,4,1,7,0002-00-0001-00.png,0004-00-0001-73.png
00000014,198,1,1447257648639,1447257649165,430,557,0,0,0,0,3,3,3,0001-00-0001-53.png,0002-00-0001-00.png
00000014,199,0,1447257650269,1447257650801,876,436,0,0,0,1,3,2,4,0005-00-0001-68.png,0002-00-0001-19.png
00000014,200,0,1447257653726,1447257654158,350,399,0,0,0,4,2,2,6,0004-00-0001-20.png,0003-00-0001-54.png
00000014,201,1,1447257657559,1447257658031,949,430,0,0,0,2,1,1,3,0003-00-0000-40.png,0005-00-0001-22.png
00000014,202,0,1447257659173,1447257659723,904,428,0,0,0,2,4,2,6,0003-00-0000-62.png,0004-00-0001-35.png
00000014,203,1,1447257662633,1447257663246,414,319,0,0,0,0,2,2,2,0001-00-0001-15.png,0003-00-0000-40.png
00000014,204,0,1447257664253,1447257664685,376,447,0,0,0,3,1,2,4,0002-00-0001-26.png,0005-00-0001-45.png
00000014,205,1,1447257667615,1447257668235,884,474,0,0,0,3,0,3,3,0002-00-0000-45.png,0001-00-0001-90.png
00000014,206,0,1447257669345,1447257669957,405,480,0,0,0,1,0,1,1,0005-00-0000-58.png,0001-00-0001-11.png
00000014,207,1,1447257673834,1447257674320,887,476,0,0,0,4,3,1,7,0004-00-0000-83.png,0002-00-0000-05.png
00000014,208,1,1447257675407,1447257676172,439,398,0,0,0,1,4,3,5,0005-00-0000-01.png,0004-00-0000-44.png
00000014,209,0,1447257677302,1447257677941,876,450,0,0,0,3,4,1,7,0002-00-0001-63.png,0004-00-0001-30.png
00000014,210,0,1447257681508,1447257682042,887,426,0,0,0,2,3,1,5,0003-00-0001-44.png,0002-00-0001-13.png
00000014,211,1,1447257688058,1447257688619,926,397,0,0,0,4,1,3,5,0004-00-0000-06.png,0005-00-0001-88.png
00000014,212,0,1447257689778,1447257690305,863,553,0,0,0,0,4,4,4,0001-00-0000-08.png,0004-00-0001-87.png
00000014,213,1,1447257693874,1447257694344,333,429,0,0,0,1,2,1,3,0005-00-0001-75.png,0003-00-0000-26.png
00000014,214,1,1447257695404,1447257695847,332,471,0,0,0,0,1,1,1,0001-00-0001-64.png,0005-00-0000-68.png
00000014,215,0,1447257697083,1447257697629,878,441,0,0,0,1,3,2,4,0005-00-0001-85.png,0002-00-0001-37.png
00000014,216,1,1447257700681,1447257701154,931,417,0,0,0,4,0,4,4,0004-00-0001-34.png,0001-00-0001-65.png
00000014,217,0,1447257702252,1447257702738,352,433,0,0,0,4,2,2,6,0004-00-0001-67.png,0003-00-0000-90.png
00000014,218,1,1447257705939,1447257706453,444,481,0,0,0,0,3,3,3,0001-00-0001-03.png,0002-00-0000-22.png
00000014,219,0,1447257707609,1447257708520,332,375,0,0,0,3,2,1,5,0002-00-0000-33.png,0003-00-0000-90.png
00000014,220,1,1447257711623,1447257712084,893,510,0,0,0,2,0,2,2,0003-00-0001-09.png,0001-00-0000-74.png
00000014,221,0,1447257713147,1447257713791,877,521,0,0,0,2,4,2,6,0003-00-0001-74.png,0004-00-0000-79.png
00000014,222,1,1447257716894,1447257717456,932,480,0,0,0,1,0,1,1,0005-00-0001-47.png,0001-00-0000-23.png
00000014,223,1,1447257718503,1447257718904,373,485,0,0,0,1,3,2,4,0005-00-0000-91.png,0002-00-0001-60.png
00000014,224,1,1447257720218,1447257720714,899,457,0,0,0,4,1,3,5,0004-00-0000-87.png,0005-00-0001-47.png
00000014,225,0,1447257721938,1447257722438,413,462,0,0,0,2,1,1,3,0003-00-0000-59.png,0005-00-0000-95.png
00000014,226,1,1447257725471,1447257725946,869,534,0,0,0,4,0,4,4,0004-00-0001-53.png,0001-00-0001-32.png
00000014,227,0,1447257727044,1447257727523,431,473,0,0,0,4,2,2,6,0004-00-0000-09.png,0003-00-0001-92.png
00000014,228,1,1447257730670,1447257731039,401,463,0,0,0,0,2,2,2,0001-00-0001-35.png,0003-00-0001-98.png
00000014,229,1,1447257732355,1447257732870,896,471,0,0,0,2,0,2,2,0003-00-0001-67.png,0001-00-0001-37.png
00000014,230,1,1447257734007,1447257734549,905,453,0,0,0,3,0,3,3,0002-00-0000-87.png,0001-00-0001-05.png
00000014,231,1,1447257735807,1447257736244,375,482,0,0,0,0,4,4,4,0001-00-0000-41.png,0004-00-0000-73.png
00000014,232,1,1447257737475,1447257737916,386,480,0,0,0,0,1,1,1,0001-00-0000-54.png,0005-00-0000-19.png
00000014,233,0,1447257739237,1447257739854,879,454,0,0,0,3,4,1,7,0002-00-0001-45.png,0004-00-0001-37.png
00000014,234,1,1447257742933,1447257743350,417,441,0,0,0,0,3,3,3,0001-00-0000-45.png,0002-00-0000-57.png
00000014,235,1,1447257744920,1447257745855,376,396,0,0,0,2,3,1,5,0003-00-0001-08.png,0002-00-0001-39.png
00000014,236,1,1447257747059,1447257747633,913,410,0,0,0,3,1,2,4,0002-00-0000-59.png,0005-00-0000-95.png
00000014,237,0,1447257749014,1447257749679,417,433,0,0,0,4,3,1,7,0004-00-0001-19.png,0002-00-0000-22.png
00000014,238,1,1447257752784,1447257753221,415,424,0,0,0,1,2,1,3,0005-00-0001-72.png,0003-00-0001-71.png
00000014,239,1,1447257754304,1447257754721,359,471,0,0,0,1,4,3,5,0005-00-0000-84.png,0004-00-0000-41.png
00000014,240,0,1447257755875,1447257756389,348,439,0,0,0,3,2,1,5,0002-00-0001-33.png,0003-00-0000-69.png
00000014,241,1,1447257759230,1447257759677,369,375,0,0,0,0,3,3,3,0001-00-0001-94.png,0002-00-0000-12.png
00000014,242,1,1447257761368,1447257761774,376,460,0,0,0,0,4,4,4,0001-00-0001-65.png,0004-00-0001-73.png
00000014,243,0,1447257762973,1447257763374,441,483,0,0,0,4,2,2,6,0004-00-0001-12.png,0003-00-0001-09.png
00000014,244,1,1447257766401,1447257766835,889,506,0,0,0,3,0,3,3,0002-00-0000-88.png,0001-00-0001-59.png
00000014,245,1,1447257768180,1447257768693,901,475,0,0,0,2,1,1,3,0003-00-0001-25.png,0005-00-0001-27.png
00000014,246,1,1447257770039,1447257770425,382,467,0,0,0,0,2,2,2,0001-00-0000-54.png,0003-00-0000-56.png
00000014,247,0,1447257771648,1447257772117,358,453,0,0,0,4,3,1,7,0004-00-0001-06.png,0002-00-0000-89.png
00000014,248,0,1447257775080,1447257775562,901,443,0,0,0,2,3,1,5,0003-00-0001-35.png,0002-00-0001-78.png
00000014,249,0,1447257778768,1447257779207,888,384,0,0,0,1,2,1,3,0005-00-0000-86.png,0003-00-0001-13.png
00000014,250,1,1447257782425,1447257782866,382,381,0,0,0,0,1,1,1,0001-00-0000-30.png,0005-00-0001-54.png
00000014,251,0,1447257783964,1447257784467,380,479,0,0,0,1,0,1,1,0005-00-0001-77.png,0001-00-0001-29.png
00000014,252,1,1447257787611,1447257788202,359,373,0,0,0,1,4,3,5,0005-00-0000-13.png,0004-00-0000-96.png
00000014,253,1,1447257789316,1447257789813,889,422,0,0,0,4,0,4,4,0004-00-0001-17.png,0001-00-0001-03.png
00000014,254,0,1447257790989,1447257791445,401,490,0,0,0,4,1,3,5,0004-00-0001-76.png,0005-00-0001-24.png
00000014,255,0,1447257794528,1447257795210,357,362,0,0,0,3,2,1,5,0002-00-0001-11.png,0003-00-0000-60.png
00000014,256,0,1447257798771,1447257799193,926,403,0,0,0,3,4,1,7,0002-00-0000-06.png,0004-00-0000-59.png
00000014,257,0,1447257802445,1447257802885,364,465,0,0,0,3,1,2,4,0002-00-0000-23.png,0005-00-0000-65.png
00000014,258,1,1447257806881,1447257807334,925,423,0,0,0,2,0,2,2,0003-00-0000-19.png,0001-00-0000-57.png
00000014,259,1,1447257808412,1447257809296,365,394,0,0,0,1,3,2,4,0005-00-0000-93.png,0002-00-0001-74.png
00000014,260,0,1447257810519,1447257811146,870,498,0,0,0,2,4,2,6,0003-00-0000-29.png,0004-00-0001-06.png
00000014,261,1,1447257814275,1447257814702,878,519,0,0,0,1,0,1,1,0005-00-0000-17.png,0001-00-0001-55.png
00000014,262,1,1447257815908,1447257816364,414,514,0,0,0,0,2,2,2,0001-00-0000-22.png,0003-00-0000-76.png
00000014,263,1,1447257817761,1447257818303,896,472,0,0,0,4,0,4,4,0004-00-0000-66.png,0001-00-0000-58.png
00000014,264,1,1447257819632,1447257820228,414,436,0,0,0,1,4,3,5,0005-00-0000-23.png,0004-00-0001-89.png
00000014,265,1,1447257821696,1447257822250,385,443,0,0,0,1,3,2,4,0005-00-0001-56.png,0002-00-0001-04.png
00000014,266,1,1447257823578,1447257824120,872,460,0,0,0,3,1,2,4,0002-00-0000-54.png,0005-00-0001-76.png
00000014,267,0,1447257825608,1447257826003,429,476,0,0,0,3,2,1,5,0002-00-0000-55.png,0003-00-0000-14.png
00000014,268,0,1447257828904,1447257829397,951,384,0,0,0,2,4,2,6,0003-00-0001-99.png,0004-00-0001-16.png
00000014,269,1,1447257832375,1447257832757,409,425,0,0,0,0,4,4,4,0001-00-0001-80.png,0004-00-0000-83.png
00000014,270,1,1447257833816,1447257834246,394,507,0,0,0,0,3,3,3,0001-00-0001-00.png,0002-00-0001-86.png
00000014,271,0,1447257835486,1447257836116,437,554,0,0,0,4,2,2,6,0004-00-0001-71.png,0003-00-0001-48.png
00000014,272,1,1447257839074,1447257839546,905,427,0,0,0,2,0,2,2,0003-00-0000-51.png,0001-00-0001-64.png
00000014,273,1,1447257840654,1447257841058,420,479,0,0,0,0,1,1,1,0001-00-0000-91.png,0005-00-0001-92.png
00000014,274,1,1447257842204,1447257842929,876,408,0,0,0,2,1,1,3,0003-00-0000-77.png,0005-00-0000-01.png
00000014,275,0,1447257844650,1447257845264,372,393,0,0,0,3,0,3,3,0002-00-0001-30.png,0001-00-0001-35.png
00000014,276,0,1447257849402,1447257850021,353,364,0,0,0,4,3,1,7,0004-00-0001-42.png,0002-00-0000-37.png
00000014,277,0,1447257853017,1447257853492,922,392,0,0,0,2,3,1,5,0003-00-0001-91.png,0002-00-0000-21.png
00000014,278,1,1447257856526,1447257857010,873,484,0,0,0,4,1,3,5,0004-00-0000-38.png,0005-00-0000-46.png
00000014,279,1,1447257858077,1447257858519,372,485,0,0,0,3,4,1,7,0002-00-0000-62.png,0004-00-0000-61.png
00000014,280,1,1447257860142,1447257860604,414,450,0,0,0,1,2,1,3,0005-00-0001-04.png,0003-00-0000-20.png
00000014,281,1,1447257861963,1447257862510,340,440,0,0,0,0,4,4,4,0001-00-0001-04.png,0004-00-0001-29.png
00000014,282,1,1447257863613,1447257864114,350,423,0,0,0,1,4,3,5,0005-00-0000-57.png,0004-00-0001-47.png
00000014,283,1,1447257865322,1447257865923,880,506,0,0,0,4,2,2,6,0004-00-0000-05.png,0003-00-0000-11.png
00000014,284,0,1447257867321,1447257867874,878,442,0,0,0,3,4,1,7,0002-00-0000-75.png,0004-00-0000-07.png
00000014,285,0,1447257870968,1447257871479,916,465,0,0,0,2,4,2,6,0003-00-0001-64.png,0004-00-0001-14.png
00000014,286,1,1447257874715,1447257875176,888,527,0,0,0,1,0,1,1,0005-00-0001-56.png,0001-00-0000-00.png
00000014,287,1,1447257876286,1447257876665,375,463,0,0,0,0,1,1,1,0001-00-0000-04.png,0005-00-0001-32.png
00000014,288,1,1447257877867,1447257878440,861,448,0,0,0,4,3,1,7,0004-00-0001-04.png,0002-00-0001-39.png
00000014,289,1,1447257879686,1447257880088,325,462,0,0,0,0,2,2,2,0001-00-0000-22.png,0003-00-0001-25.png
00000014,290,0,1447257881445,1447257881891,401,476,0,0,0,3,2,1,5,0002-00-0001-66.png,0003-00-0000-69.png
00000014,291,1,1447257885289,1447257885753,875,527,0,0,0,3,1,2,4,0002-00-0001-44.png,0005-00-0000-33.png
00000014,292,1,1447257887238,1447257887670,363,488,0,0,0,2,3,1,5,0003-00-0001-94.png,0002-00-0000-63.png
00000014,293,0,1447257889148,1447257889642,417,508,0,0,0,4,1,3,5,0004-00-0000-64.png,0005-00-0001-82.png
00000014,294,1,1447257892895,1447257893367,903,462,0,0,0,2,1,1,3,0003-00-0001-23.png,0005-00-0001-75.png
00000014,295,1,1447257894532,1447257895115,889,468,0,0,0,3,0,3,3,0002-00-0000-50.png,0001-00-0000-31.png
00000014,296,1,1447257896211,1447257896717,897,434,0,0,0,4,0,4,4,0004-00-0000-41.png,0001-00-0001-16.png
00000014,297,1,1447257897981,1447257898909,349,442,0,0,0,0,3,3,3,0001-00-0001-39.png,0002-00-0000-16.png
00000014,298,1,1447257900149,1447257900685,350,436,0,0,0,1,2,1,3,0005-00-0000-08.png,0003-00-0000-01.png
00000014,299,1,1447257901888,1447257902521,418,390,0,0,0,1,3,2,4,0005-00-0000-04.png,0002-00-0000-10.png
00000014,300,1,1447257903867,1447257904423,888,449,0,0,0,2,0,2,2,0003-00-0001-05.png,0001-00-0000-17.png
00000014,301,0,1447257905628,1447257906273,901,437,0,0,0,1,3,2,4,0005-00-0001-79.png,0002-00-0000-23.png
00000014,302,1,1447257909384,1447257909789,924,432,0,0,0,1,0,1,1,0005-00-0000-48.png,0001-00-0000-09.png
00000014,303,1,1447257910891,1447257911314,425,493,0,0,0,0,3,3,3,0001-00-0000-05.png,0002-00-0001-86.png
00000014,304,0,1447257912523,1447257912938,414,489,0,0,0,3,2,1,5,0002-00-0000-70.png,0003-00-0000-84.png
00000014,305,1,1447257915882,1447257916368,384,394,0,0,0,0,1,1,1,0001-00-0000-05.png,0005-00-0000-95.png
00000014,306,1,1447257918080,1447257918601,874,554,0,0,0,2,0,2,2,0003-00-0000-08.png,0001-00-0000-89.png
00000014,307,1,1447257920039,1447257920523,386,479,0,0,0,1,2,1,3,0005-00-0001-34.png,0003-00-0001-26.png
00000014,308,0,1447257921817,1447257922219,418,507,0,0,0,4,3,1,7,0004-00-0000-67.png,0002-00-0000-32.png
00000014,309,1,1447257925315,1447257925767,390,403,0,0,0,0,4,4,4,0001-00-0000-86.png,0004-00-0000-29.png
00000014,310,1,1447257927036,1447257927532,875,463,0,0,0,2,1,1,3,0003-00-0000-00.png,0005-00-0001-15.png
00000014,311,0,1447257928826,1447257929695,365,389,0,0,0,4,2,2,6,0004-00-0001-47.png,0003-00-0000-60.png
00000014,312,0,1447257932891,1447257933334,925,437,0,0,0,2,4,2,6,0003-00-0000-13.png,0004-00-0000-02.png
00000014,313,1,1447257936339,1447257936771,902,417,0,0,0,3,0,3,3,0002-00-0001-21.png,0001-00-0000-42.png
00000014,314,1,1447257937920,1447257938342,384,465,0,0,0,0,2,2,2,0001-00-0000-34.png,0003-00-0000-63.png
00000014,315,1,1447257939704,1447257940342,375,406,0,0,0,1,4,3,5,0005-00-0000-27.png,0004-00-0001-73.png
00000014,316,1,1447257941661,1447257942121,401,488,0,0,0,3,4,1,7,0002-00-0001-62.png,0004-00-0000-86.png
00000014,317,1,1447257943268,1447257943809,872,446,0,0,0,4,0,4,4,0004-00-0001-37.png,0001-00-0001-60.png
00000014,318,0,1447257945037,1447257945939,470,402,0,0,0,3,1,2,4,0002-00-0000-47.png,0005-00-0000-15.png
00000014,319,1,1447257949292,1447257950180,391,383,0,0,0,2,3,1,5,0003-00-0000-00.png,0002-00-0000-68.png
00000014,320,1,1447257951267,1447257951867,861,450,0,0,0,4,1,3,5,0004-00-0001-93.png,0005-00-0001-84.png
00000014,321,1,1447257953645,1447257954040,383,432,0,0,0,1,2,1,3,0005-00-0000-68.png,0003-00-0001-03.png
00000014,322,1,1447257955164,1447257955572,409,498,0,0,0,2,4,2,6,0003-00-0000-51.png,0004-00-0000-66.png
00000014,323,1,1447257956857,1447257957399,875,475,0,0,0,3,1,2,4,0002-00-0001-68.png,0005-00-0000-94.png
00000014,324,1,1447257958822,1447257959303,361,420,0,0,0,1,4,3,5,0005-00-0001-44.png,0004-00-0001-65.png
00000014,325,0,1447257960492,1447257961132,376,427,0,0,0,2,1,1,3,0003-00-0000-21.png,0005-00-0001-13.png
00000014,326,0,1447257964109,1447257964714,918,401,0,0,0,0,3,3,3,0001-00-0001-50.png,0002-00-0001-81.png
00000014,327,1,1447257967648,1447257968311,898,398,0,0,0,4,2,2,6,0004-00-0001-40.png,0003-00-0001-08.png
00000014,328,1,1447257969416,1447257969953,878,466,0,0,0,4,3,1,7,0004-00-0000-51.png,0002-00-0001-95.png
00000014,329,1,1447257971146,1447257971567,406,479,0,0,0,0,1,1,1,0001-00-0001-47.png,0005-00-0001-33.png
00000014,330,1,1447257972736,1447257973745,406,510,0,0,0,0,2,2,2,0001-00-0000-02.png,0003-00-0000-54.png
00000014,331,1,1447257974962,1447257975374,397,472,0,0,0,1,3,2,4,0005-00-0001-35.png,0002-00-0001-70.png
00000014,332,1,1447257976555,1447257977054,895,455,0,0,0,2,0,2,2,0003-00-0000-14.png,0001-00-0001-55.png
00000014,333,0,1447257978316,1447257978798,402,497,0,0,0,4,1,3,5,0004-00-0000-36.png,0005-00-0000-56.png
00000014,334,0,1447257981811,1447257982303,901,435,0,0,0,2,3,1,5,0003-00-0001-39.png,0002-00-0001-99.png
00000014,335,1,1447257985319,1447257985806,860,421,0,0,0,1,0,1,1,0005-00-0001-91.png,0001-00-0000-78.png
00000014,336,1,1447257986909,1447257987507,879,472,0,0,0,3,2,1,5,0002-00-0000-55.png,0003-00-0001-47.png
00000014,337,0,1447257988560,1447257989005,454,471,0,0,0,3,0,3,3,0002-00-0001-17.png,0001-00-0001-54.png
00000014,338,1,1447257999310,1447257999658,349,535,0,0,0,0,4,4,4,0001-00-0000-38.png,0004-00-0000-09.png
00000014,339,0,1447258001190,1447258001674,862,554,0,0,0,3,4,1,7,0002-00-0001-55.png,0004-00-0000-85.png
00000014,340,1,1447258011610,1447258012026,951,423,0,0,0,4,0,4,4,0004-00-0000-83.png,0001-00-0001-38.png
00000014,341,0,1447258012921,1447258013346,427,514,0,0,0,4,3,1,7,0004-00-0001-54.png,0002-00-0001-79.png
00000014,342,1,1447258016420,1447258016428,523,452,0,0,0,1,3,2,4,0005-00-0001-89.png,0002-00-0000-83.png
00000014,343,1,1447258017404,1447258018208,862,514,0,0,0,4,0,4,4,0004-00-0000-97.png,0001-00-0000-68.png
00000014,344,0,1447258019164,1447258019555,419,506,0,0,0,3,1,2,4,0002-00-0000-27.png,0005-00-0000-95.png
00000014,345,1,1447258031219,1447258031610,350,410,0,0,0,0,3,3,3,0001-00-0000-13.png,0002-00-0001-42.png
00000014,346,1,1447258032489,1447258032959,905,454,0,0,0,2,1,1,3,0003-00-0001-64.png,0005-00-0000-94.png
00000014,347,1,1447258033882,1447258034295,412,453,0,0,0,0,4,4,4,0001-00-0000-85.png,0004-00-0000-41.png
00000014,348,0,1447258035244,1447258035743,914,496,0,0,0,2,3,1,5,0003-00-0001-22.png,0002-00-0001-86.png
00000014,349,1,1447258038822,1447258039188,926,398,0,0,0,2,0,2,2,0003-00-0000-06.png,0001-00-0001-48.png
00000014,350,1,1447258040081,1447258040633,915,515,0,0,0,4,1,3,5,0004-00-0000-61.png,0005-00-0001-07.png
00000014,351,1,1447258041503,1447258041911,401,485,0,0,0,3,4,1,7,0002-00-0001-80.png,0004-00-0000-31.png
00000014,352,0,1447258042816,1447258043220,413,501,0,0,0,3,2,1,5,0002-00-0001-03.png,0003-00-0001-00.png
00000014,353,0,1447258056620,1447258057024,912,499,0,0,0,2,4,2,6,0003-00-0000-33.png,0004-00-0000-25.png
00000014,354,1,1447258060200,1447258060724,900,515,0,0,0,4,2,2,6,0004-00-0001-83.png,0003-00-0000-68.png
00000014,355,1,1447258061660,1447258062061,401,475,0,0,0,0,2,2,2,0001-00-0001-08.png,0003-00-0000-63.png
00000014,356,1,1447258063014,1447258063481,899,490,0,0,0,1,0,1,1,0005-00-0000-68.png,0001-00-0000-78.png
00000014,357,1,1447258064445,1447258064895,922,471,0,0,0,3,0,3,3,0002-00-0000-75.png,0001-00-0001-74.png
00000014,358,1,1447258065864,1447258066712,420,505,0,0,0,1,4,3,5,0005-00-0001-00.png,0004-00-0001-44.png
00000014,359,1,1447258067862,1447258068274,414,438,0,0,0,1,2,1,3,0005-00-0000-03.png,0003-00-0000-43.png
00000014,360,1,1447258069343,1447258069778,444,480,0,0,0,0,1,1,1,0001-00-0001-17.png,0005-00-0000-38.png
00000014,361,1,1447258070813,1447258071296,478,488,0,0,0,2,3,1,5,0003-00-0001-73.png,0002-00-0001-76.png
00000014,362,0,1447258072245,1447258072839,435,419,0,0,0,4,3,1,7,0004-00-0001-86.png,0002-00-0000-14.png
00000014,363,1,1447258078845,1447258079252,370,425,0,0,0,0,1,1,1,0001-00-0001-90.png,0005-00-0000-78.png
00000014,364,1,1447258080246,1447258081146,444,427,0,0,0,3,4,1,7,0002-00-0000-54.png,0004-00-0000-67.png
00000014,365,1,1447258082085,1447258082560,902,491,0,0,0,3,0,3,3,0002-00-0000-26.png,0001-00-0001-64.png
00000014,366,1,1447258083566,1447258084039,439,554,0,0,0,0,4,4,4,0001-00-0000-48.png,0004-00-0000-80.png
00000014,367,0,1447258085036,1447258085462,350,490,0,0,0,2,0,2,2,0003-00-0001-79.png,0001-00-0001-06.png
00000014,368,0,1447258088710,1447258089211,927,520,0,0,0,1,4,3,5,0005-00-0001-87.png,0004-00-0000-77.png
00000014,369,0,1447258092861,1447258093253,325,397,0,0,0,4,2,2,6,0004-00-0000-59.png,0003-00-0001-29.png
00000014,370,1,1447258096219,1447258096623,427,384,0,0,0,0,3,3,3,0001-00-0000-75.png,0002-00-0001-65.png
00000014,371,1,1447258097568,1447258098085,877,440,0,0,0,3,2,1,5,0002-00-0001-00.png,0003-00-0000-59.png
00000014,372,1,1447258099121,1447258099604,912,476,0,0,0,1,0,1,1,0005-00-0000-71.png,0001-00-0001-45.png
00000014,373,0,1447258100603,1447258101033,376,476,0,0,0,2,1,1,3,0003-00-0000-72.png,0005-00-0001-56.png
00000014,374,1,1447258104679,1447258105101,902,545,0,0,0,4,1,3,5,0004-00-0000-18.png,0005-00-0000-79.png
00000014,375,0,1447258106078,1447258106603,888,449,0,0,0,2,4,2,6,0003-00-0001-37.png,0004-00-0000-88.png
00000014,376,1,1447258109506,1447258109991,371,466,0,0,0,1,2,1,3,0005-00-0001-88.png,0003-00-0001-69.png
00000014,377,1,1447258110908,1447258111423,914,476,0,0,0,4,0,4,4,0004-00-0000-64.png,0001-00-0001-82.png
00000014,378,1,1447258112380,1447258112770,335,483,0,0,0,0,2,2,2,0001-00-0001-13.png,0003-00-0000-02.png
00000014,379,1,1447258113719,1447258114139,438,501,0,0,0,1,3,2,4,0005-00-0001-78.png,0002-00-0000-09.png
00000014,380,0,1447258115069,1447258115505,438,476,0,0,0,3,1,2,4,0002-00-0001-83.png,0005-00-0001-73.png
00000014,381,1,1447258120073,1447258120544,858,494,0,0,0,3,1,2,4,0002-00-0001-69.png,0005-00-0000-37.png
00000014,382,1,1447258121470,1447258122016,881,477,0,0,0,2,1,1,3,0003-00-0001-96.png,0005-00-0001-48.png
00000014,383,0,1447258123031,1447258123573,873,435,0,0,0,2,3,1,5,0003-00-0001-63.png,0002-00-0001-24.png
00000014,384,1,1447258127019,1447258127453,877,548,0,0,0,1,0,1,1,0005-00-0000-86.png,0001-00-0000-15.png
00000014,385,1,1447258128379,1447258129237,332,366,0,0,0,0,3,3,3,0001-00-0001-22.png,0002-00-0000-85.png
00000014,386,0,1447258130188,1447258130616,369,452,0,0,0,4,2,2,6,0004-00-0000-04.png,0003-00-0001-14.png
00000014,387,0,1447258133839,1447258134346,875,397,0,0,0,1,3,2,4,0005-00-0001-15.png,0002-00-0000-51.png
00000014,388,1,1447258137306,1447258137723,345,383,0,0,0,0,2,2,2,0001-00-0001-60.png,0003-00-0000-05.png
00000014,389,0,1447258138676,1447258139183,908,474,0,0,0,0,4,4,4,0001-00-0001-08.png,0004-00-0000-74.png
00000014,390,1,1447258142220,1447258142682,860,508,0,0,0,2,0,2,2,0003-00-0001-35.png,0001-00-0001-38.png
00000014,391,0,1447258143614,1447258144258,919,439,0,0,0,3,4,1,7,0002-00-0000-31.png,0004-00-0000-86.png
00000014,392,0,1447258147402,1447258147989,434,355,0,0,0,3,2,1,5,0002-00-0001-76.png,0003-00-0001-94.png
00000014,393,1,1447258152529,1447258153090,388,410,0,0,0,0,1,1,1,0001-00-0001-02.png,0005-00-0000-33.png
00000014,394,1,1447258154139,1447258154633,901,449,0,0,0,4,1,3,5,0004-00-0000-37.png,0005-00-0001-22.png
00000014,395,0,1447258155641,1447258156083,406,548,0,0,0,3,0,3,3,0002-00-0000-19.png,0001-00-0000-09.png
00000014,396,0,1447258159946,1447258160941,930,401,0,0,0,1,4,3,5,0005-00-0000-02.png,0004-00-0001-17.png
00000014,397,1,1447258166543,1447258166992,417,468,0,0,0,1,2,1,3,0005-00-0001-17.png,0003-00-0001-65.png
00000014,398,1,1447258168004,1447258168547,861,475,0,0,0,4,3,1,7,0004-00-0001-65.png,0002-00-0000-22.png
00000014,399,0,1447258169485,1447258170079,890,469,0,0,0,2,4,2,6,0003-00-0001-77.png,0004-00-0001-26.png
00000014,400,1,1447258178488,1447258178896,951,371,0,0,0,4,0,4,4,0004-00-0001-28.png,0001-00-0000-87.png
00000014,401,1,1447258179882,1447258180295,392,480,0,0,0,0,3,3,3,0001-00-0001-29.png,0002-00-0001-12.png
00000014,402,1,1447258181292,1447258181776,876,477,0,0,0,4,2,2,6,0004-00-0001-45.png,0003-00-0000-08.png
00000014,403,1,1447258182734,1447258183232,899,489,0,0,0,1,0,1,1,0005-00-0000-03.png,0001-00-0000-28.png
00000014,404,1,1447258184207,1447258184587,395,479,0,0,0,0,4,4,4,0001-00-0001-82.png,0004-00-0000-20.png
00000014,405,1,1447258185685,1447258186099,380,471,0,0,0,1,2,1,3,0005-00-0001-58.png,0003-00-0001-58.png
00000014,406,1,1447258187128,1447258187549,394,493,0,0,0,0,1,1,1,0001-00-0000-48.png,0005-00-0000-01.png
00000014,407,1,1447258188738,1447258189240,894,463,0,0,0,4,3,1,7,0004-00-0000-76.png,0002-00-0001-66.png
00000014,408,0,1447258190268,1447258190793,878,496,0,0,0,2,3,1,5,0003-00-0000-85.png,0002-00-0001-36.png
00000014,409,0,1447258193957,1447258194444,327,391,0,0,0,3,2,1,5,0002-00-0001-33.png,0003-00-0000-91.png
00000014,410,1,1447258197472,1447258197855,416,469,0,0,0,0,2,2,2,0001-00-0001-46.png,0003-00-0000-59.png
00000014,411,1,1447258198766,1447258199264,912,476,0,0,0,3,0,3,3,0002-00-0001-73.png,0001-00-0000-38.png
00000014,412,0,1447258200219,1447258200752,893,469,0,0,0,3,4,1,7,0002-00-0000-59.png,0004-00-0000-91.png
00000014,413,0,1447258203907,1447258204347,895,498,0,0,0,2,4,2,6,0003-00-0001-78.png,0004-00-0000-71.png
00000014,414,1,1447258207423,1447258208035,936,400,0,0,0,4,1,3,5,0004-00-0000-50.png,0005-00-0000-82.png
00000014,415,0,1447258208973,1447258209857,413,501,0,0,0,2,1,1,3,0003-00-0000-00.png,0005-00-0000-04.png
00000014,416,0,1447258212838,1447258213313,453,436,0,0,0,3,1,2,4,0002-00-0000-69.png,0005-00-0000-21.png
00000014,417,1,1447258217851,1447258218348,366,401,0,0,0,1,3,2,4,0005-00-0001-40.png,0002-00-0001-54.png
00000014,418,0,1447258219361,1447258219880,393,547,0,0,0,4,0,4,4,0004-00-0001-92.png,0001-00-0001-12.png
00000014,419,1,1447258223056,1447258223512,859,522,0,0,0,2,0,2,2,0003-00-0000-23.png,0001-00-0000-27.png
00000014,420,0,1447258224489,1447258225103,867,402,0,0,0,1,4,3,5,0005-00-0000-26.png,0004-00-0001-71.png
00000014,421,1,1447258230219,1447258230844,464,319,0,0,0,1,2,1,3,0005-00-0001-12.png,0003-00-0000-95.png
00000014,422,0,1447258231808,1447258232325,885,496,0,0,0,2,3,1,5,0003-00-0000-76.png,0002-00-0000-15.png
00000014,423,0,1447258236981,1447258237445,863,489,0,0,0,2,4,2,6,0003-00-0001-85.png,0004-00-0001-63.png
00000014,424,1,1447258241481,1447258241901,380,390,0,0,0,0,1,1,1,0001-00-0001-91.png,0005-00-0000-44.png
00000014,425,0,1447258242843,1447258243450,385,478,0,0,0,4,0,4,4,0004-00-0001-31.png,0001-00-0001-95.png
00000014,426,1,1447258246392,1447258246788,397,395,0,0,0,0,2,2,2,0001-00-0000-27.png,0003-00-0001-39.png
00000014,427,0,1447258247738,1447258248266,395,449,0,0,0,4,1,3,5,0004-00-0000-78.png,0005-00-0001-11.png
00000014,428,1,1447258268338,1447258268766,870,498,0,0,0,3,1,2,4,0002-00-0000-37.png,0005-00-0000-35.png
00000014,429,0,1447258269701,1447258280904,388,565,0,0,0,4,2,2,6,0004-00-0000-41.png,0003-00-0001-26.png
00000014,430,0,1447258284169,1447258284557,931,427,0,0,0,1,3,2,4,0005-00-0001-02.png,0002-00-0001-33.png
00000014,431,1,1447258302837,1447258303292,976,359,0,0,0,2,0,2,2,0003-00-0000-20.png,0001-00-0001-52.png
00000014,432,1,1447258304420,1447258304948,875,539,0,0,0,3,0,3,3,0002-00-0000-96.png,0001-00-0001-10.png
00000014,433,1,1447258306109,1447258306614,375,490,0,0,0,1,4,3,5,0005-00-0000-72.png,0004-00-0000-12.png
00000014,434,0,1447258308027,1447258308597,905,427,0,0,0,0,3,3,3,0001-00-0001-18.png,0002-00-0000-84.png
00000014,435,1,1447258312757,1447258313171,898,509,0,0,0,1,0,1,1,0005-00-0000-09.png,0001-00-0000-21.png
00000014,436,0,1447258314180,1447258315045,387,386,0,0,0,2,1,1,3,0003-00-0000-75.png,0005-00-0000-05.png
00000014,437,0,1447258318216,1447258318639,420,464,0,0,0,3,2,1,5,0002-00-0000-05.png,0003-00-0000-38.png
00000014,438,0,1447258321928,1447258322536,942,407,0,0,0,3,4,1,7,0002-00-0000-98.png,0004-00-0000-46.png
00000014,439,1,1447258325888,1447258326315,428,412,0,0,0,0,4,4,4,0001-00-0000-31.png,0004-00-0000-40.png
00000014,440,0,1447258327316,1447258327919,348,429,0,0,0,4,3,1,7,0004-00-0000-41.png,0002-00-0001-17.png
00000014,441,0,1447258330886,1447258331253,376,384,0,0,0,3,2,1,5,0002-00-0000-26.png,0003-00-0001-85.png
00000014,442,0,1447258334135,1447258334555,926,461,0,0,0,2,3,1,5,0003-00-0000-14.png,0002-00-0001-30.png
00000014,443,1,1447258338817,1447258339265,427,488,0,0,0,1,2,1,3,0005-00-0001-26.png,0003-00-0000-46.png
00000014,444,0,1447258340296,1447258340856,401,472,0,0,0,3,0,3,3,0002-00-0000-25.png,0001-00-0001-93.png
00000014,445,1,1447258343836,1447258344301,903,520,0,0,0,4,0,4,4,0004-00-0000-09.png,0001-00-0001-76.png
00000014,446,1,1447258345424,1447258345947,925,489,0,0,0,1,0,1,1,0005-00-0000-44.png,0001-00-0001-74.png
00000014,447,1,1447258347145,1447258347671,399,494,0,0,0,3,4,1,7,0002-00-0000-82.png,0004-00-0000-92.png
00000014,448,1,1447258349013,1447258349417,417,509,0,0,0,0,2,2,2,0001-00-0001-61.png,0003-00-0000-38.png
00000014,449,1,1447258350525,1447258351082,880,453,0,0,0,4,1,3,5,0004-00-0000-59.png,0005-00-0000-93.png
00000014,450,1,1447258352343,1447258352817,382,488,0,0,0,1,3,2,4,0005-00-0001-88.png,0002-00-0001-03.png
00000014,451,0,1447258353904,1447258354439,875,469,0,0,0,2,4,2,6,0003-00-0001-41.png,0004-00-0001-06.png
00000014,452,1,1447258358129,1447258358574,927,414,0,0,0,4,3,1,7,0004-00-0001-68.png,0002-00-0001-70.png
00000014,453,1,1447258359608,1447258360166,877,493,0,0,0,2,1,1,3,0003-00-0001-49.png,0005-00-0000-65.png
00000014,454,1,1447258361298,1447258361872,364,426,0,0,0,0,1,1,1,0001-00-0001-06.png,0005-00-0001-87.png
00000014,455,1,1447258362968,1447258363408,398,489,0,0,0,1,4,3,5,0005-00-0001-72.png,0004-00-0001-27.png
00000014,456,1,1447258364545,1447258365064,401,474,0,0,0,0,3,3,3,0001-00-0001-32.png,0002-00-0001-47.png
00000014,457,1,1447258366209,1447258366713,863,449,0,0,0,3,1,2,4,0002-00-0001-78.png,0005-00-0000-86.png
00000014,458,1,1447258367859,1447258368836,926,392,0,0,0,2,0,2,2,0003-00-0000-10.png,0001-00-0000-72.png
00000014,459,0,1447258369948,1447258370371,392,486,0,0,0,4,2,2,6,0004-00-0000-60.png,0003-00-0000-71.png
00000014,460,1,1447258373448,1447258373878,407,463,0,0,0,0,4,4,4,0001-00-0001-71.png,0004-00-0001-32.png
00000014,461,0,1447258374887,1447258375294,445,505,0,0,0,4,2,2,6,0004-00-0000-32.png,0003-00-0001-75.png
00000014,462,1,1447258378416,1447258378927,871,419,0,0,0,3,0,3,3,0002-00-0000-35.png,0001-00-0001-04.png
00000014,463,1,1447258380174,1447258381162,359,419,0,0,0,0,3,3,3,0001-00-0000-84.png,0002-00-0000-66.png
00000014,464,1,1447258382262,1447258382716,876,460,0,0,0,2,0,2,2,0003-00-0001-37.png,0001-00-0000-04.png
00000014,465,1,1447258383912,1447258384293,412,506,0,0,0,1,2,1,3,0005-00-0000-32.png,0003-00-0000-94.png
00000014,466,1,1447258385430,1447258385953,870,457,0,0,0,4,1,3,5,0004-00-0001-50.png,0005-00-0001-66.png
00000014,467,0,1447258387053,1447258388034,426,384,0,0,0,4,3,1,7,0004-00-0000-04.png,0002-00-0001-22.png
00000014,468,1,1447258391135,1447258391576,932,419,0,0,0,4,0,4,4,0004-00-0001-19.png,0001-00-0001-73.png
00000014,469,0,1447258392540,1447258393503,453,424,0,0,0,1,0,1,1,0005-00-0001-82.png,0001-00-0000-57.png
00000014,470,0,1447258396386,1447258396812,889,369,0,0,0,1,4,3,5,0005-00-0001-79.png,0004-00-0000-19.png
00000014,471,0,1447258400074,1447258400511,878,494,0,0,0,1,3,2,4,0005-00-0001-81.png,0002-00-0001-54.png
00000014,472,1,1447258404804,1447258405205,360,410,0,0,0,2,3,1,5,0003-00-0000-79.png,0002-00-0000-47.png
00000014,473,0,1447258406295,1447258406890,919,398,0,0,0,0,4,4,4,0001-00-0000-83.png,0004-00-0001-76.png
00000014,474,1,1447258409818,1447258410360,870,495,0,0,0,3,1,2,4,0002-00-0000-71.png,0005-00-0001-75.png
00000014,475,0,1447258411363,1447258411859,884,441,0,0,0,2,4,2,6,0003-00-0000-97.png,0004-00-0001-65.png
00000014,476,1,1447258414951,1447258415336,378,421,0,0,0,0,1,1,1,0001-00-0001-63.png,0005-00-0000-56.png
00000014,477,0,1447258416372,1447258417344,393,389,0,0,0,3,2,1,5,0002-00-0000-48.png,0003-00-0000-96.png
00000014,478,1,1447258422296,1447258422723,378,459,0,0,0,0,2,2,2,0001-00-0001-64.png,0003-00-0000-44.png
00000014,479,1,1447258423727,1447258424273,896,446,0,0,0,2,1,1,3,0003-00-0001-42.png,0005-00-0000-78.png
00000014,480,0,1447258425307,1447258425840,873,490,0,0,0,3,4,1,7,0002-00-0001-02.png,0004-00-0001-74.png
00000014,481,1,1447258429709,1447258430101,313,409,0,0,0,0,2,2,2,0001-00-0001-65.png,0003-00-0001-37.png
00000014,482,0,1447258431042,1447258431968,364,398,0,0,0,4,1,3,5,0004-00-0000-66.png,0005-00-0001-40.png
00000014,483,1,1447258435407,1447258435803,365,528,0,0,0,0,1,1,1,0001-00-0000-82.png,0005-00-0001-11.png
00000014,484,1,1447258436676,1447258437101,395,463,0,0,0,2,3,1,5,0003-00-0001-00.png,0002-00-0001-04.png
00000014,485,1,1447258438218,1447258439147,362,397,0,0,0,1,4,3,5,0005-00-0000-31.png,0004-00-0000-35.png
00000014,486,0,1447258440205,1447258440723,864,466,0,0,0,0,3,3,3,0001-00-0001-08.png,0002-00-0001-43.png
00000014,487,1,1447258445085,1447258445551,910,417,0,0,0,4,2,2,6,0004-00-0000-04.png,0003-00-0001-77.png
00000014,488,0,1447258446548,1447258446958,350,477,0,0,0,3,2,1,5,0002-00-0001-58.png,0003-00-0001-42.png
00000014,489,0,1447258452629,1447258453143,902,518,0,0,0,1,3,2,4,0005-00-0000-14.png,0002-00-0000-89.png
00000014,490,0,1447258456371,1447258456791,884,500,0,0,0,3,4,1,7,0002-00-0001-34.png,0004-00-0000-50.png
00000014,491,1,1447258460342,1447258460878,906,471,0,0,0,3,1,2,4,0002-00-0000-78.png,0005-00-0000-96.png
00000014,492,1,1447258461910,1447258462462,898,430,0,0,0,2,1,1,3,0003-00-0001-38.png,0005-00-0000-67.png
00000014,493,0,1447258463451,1447258463873,411,483,0,0,0,3,0,3,3,0002-00-0001-37.png,0001-00-0001-21.png
00000014,494,1,1447258467036,1447258467680,914,408,0,0,0,1,0,1,1,0005-00-0001-13.png,0001-00-0001-77.png
00000014,495,1,1447258468646,1447258469166,900,449,0,0,0,4,0,4,4,0004-00-0000-22.png,0001-00-0001-23.png
00000014,496,1,1447258470262,1447258470606,352,471,0,0,0,0,4,4,4,0001-00-0000-28.png,0004-00-0000-72.png
00000014,497,1,1447258471642,1447258472157,876,449,0,0,0,2,0,2,2,0003-00-0000-94.png,0001-00-0000-89.png
00000014,498,0,1447258473461,1447258473970,873,456,0,0,0,1,2,1,3,0005-00-0001-02.png,0003-00-0000-30.png
00000014,499,0,1447258476999,1447258477513,906,400,0,0,0,2,4,2,6,0003-00-0001-60.png,0004-00-0001-71.png
00000014,500,1,1447258480755,1447258481175,921,394,0,0,0,4,3,1,7,0004-00-0000-88.png,0002-00-0001-63.png
00000014,501,1,1447258482347,1447258482870,374,420,0,0,0,1,3,2,4,0005-00-0001-60.png,0002-00-0000-45.png
00000014,502,0,1447258483937,1447258484423,878,441,0,0,0,1,4,3,5,0005-00-0001-97.png,0004-00-0001-54.png
00000014,503,0,1447258487528,1447258487978,876,384,0,0,0,2,4,2,6,0003-00-0000-32.png,0004-00-0000-03.png
00000014,504,1,1447258491188,1447258491667,899,464,0,0,0,2,1,1,3,0003-00-0001-11.png,0005-00-0001-70.png
00000014,505,0,1447258492664,1447258493034,388,476,0,0,0,4,2,2,6,0004-00-0000-44.png,0003-00-0001-92.png
00000014,506,1,1447258496244,1447258497069,364,395,0,0,0,1,2,1,3,0005-00-0000-37.png,0003-00-0001-23.png
00000014,507,0,1447258498129,1447258498571,397,471,0,0,0,3,1,2,4,0002-00-0000-62.png,0005-00-0001-83.png
00000014,508,0,1447258501837,1447258502271,871,497,0,0,0,2,3,1,5,0003-00-0001-71.png,0002-00-0001-78.png
00000014,509,1,1447258505455,1447258505959,888,449,0,0,0,4,3,1,7,0004-00-0001-24.png,0002-00-0000-36.png
00000014,510,1,1447258507054,1447258507490,394,499,0,0,0,0,2,2,2,0001-00-0001-91.png,0003-00-0001-59.png
00000014,511,0,1447258508504,1447258509566,409,386,0,0,0,4,1,3,5,0004-00-0000-30.png,0005-00-0000-41.png
00000014,512,0,1447258512411,1447258512793,388,410,0,0,0,3,0,3,3,0002-00-0000-23.png,0001-00-0001-78.png
00000014,513,0,1447258515711,1447258516252,386,400,0,0,0,3,2,1,5,0002-00-0000-66.png,0003-00-0001-17.png
00000014,514,1,1447258519449,1447258519868,331,427,0,0,0,0,1,1,1,0001-00-0000-28.png,0005-00-0001-70.png
00000014,515,0,1447258521087,1447258521551,350,495,0,0,0,1,0,1,1,0005-00-0001-55.png,0001-00-0000-27.png
00000014,516,1,1447258524874,1447258525450,407,555,0,0,0,0,3,3,3,0001-00-0000-03.png,0002-00-0000-30.png
00000014,517,1,1447258526615,1447258527573,298,376,0,0,0,3,4,1,7,0002-00-0001-51.png,0004-00-0000-27.png
00000014,518,1,1447258528599,1447258529004,406,464,0,0,0,0,4,4,4,0001-00-0001-11.png,0004-00-0001-31.png
00000014,519,1,1447258530094,1447258530560,873,458,0,0,0,2,0,2,2,0003-00-0001-00.png,0001-00-0001-45.png
00000014,520,1,1447258531672,1447258532171,899,457,0,0,0,4,0,4,4,0004-00-0001-40.png,0001-00-0001-35.png
00000014,521,0,1447258535173,1447258535683,939,475,0,0,0,0,1,1,1,0001-00-0000-16.png,0005-00-0000-40.png
00000014,522,1,1447258538821,1447258539300,364,432,0,0,0,1,2,1,3,0005-00-0001-27.png,0003-00-0001-23.png
00000014,523,0,1447258540331,1447258540828,929,470,0,0,0,3,4,1,7,0002-00-0001-70.png,0004-00-0001-86.png
00000014,524,1,1447258543937,1447258544317,325,412,0,0,0,0,2,2,2,0001-00-0001-04.png,0003-00-0000-66.png
00000014,525,1,1447258545340,1447258545807,901,460,0,0,0,3,1,2,4,0002-00-0001-11.png,0005-00-0000-32.png
00000014,526,1,1447258546849,1447258547280,385,464,0,0,0,1,4,3,5,0005-00-0000-04.png,0004-00-0001-38.png
00000014,527,1,1447258548402,1447258548843,446,505,0,0,0,2,4,2,6,0003-00-0001-78.png,0004-00-0000-09.png
00000014,528,1,1447258550031,1447258550459,485,480,0,0,0,1,3,2,4,0005-00-0001-46.png,0002-00-0000-38.png
00000014,529,0,1447258551592,1447258552173,373,413,0,0,0,3,2,1,5,0002-00-0000-68.png,0003-00-0001-59.png
00000014,530,1,1447258555280,1447258555704,927,382,0,0,0,2,0,2,2,0003-00-0001-99.png,0001-00-0000-66.png
00000014,531,1,1447258556720,1447258557135,443,496,0,0,0,0,4,4,4,0001-00-0000-18.png,0004-00-0001-98.png
00000014,532,0,1447258558300,1447258558728,389,501,0,0,0,4,2,2,6,0004-00-0000-78.png,0003-00-0000-59.png
00000014,533,1,1447258562627,1447258563063,925,464,0,0,0,2,1,1,3,0003-00-0000-14.png,0005-00-0000-67.png
00000014,534,1,1447258564256,1447258564845,895,445,0,0,0,4,1,3,5,0004-00-0000-17.png,0005-00-0001-17.png
00000014,535,1,1447258565864,1447258566437,888,449,0,0,0,4,0,4,4,0004-00-0000-34.png,0001-00-0000-40.png
00000014,536,0,1447258567524,1447258567957,463,508,0,0,0,1,0,1,1,0005-00-0000-76.png,0001-00-0001-53.png
00000014,537,0,1447258571351,1447258571807,907,472,0,0,0,2,3,1,5,0003-00-0000-27.png,0002-00-0000-43.png
00000014,538,0,1447258575606,1447258576136,870,472,0,0,0,0,3,3,3,0001-00-0000-31.png,0002-00-0000-32.png
00000014,539,1,1447258579368,1447258579834,877,466,0,0,0,4,3,1,7,0004-00-0000-03.png,0002-00-0001-98.png
00000014,540,1,1447258580800,1447258581319,910,437,0,0,0,3,0,3,3,0002-00-0001-13.png,0001-00-0000-74.png
00000014,541,1,1447258582362,1447258583353,939,399,0,0,0,1,0,1,1,0005-00-0001-09.png,0001-00-0000-93.png
00000014,542,0,1447258584400,1447258584845,416,502,0,0,0,4,2,2,6,0004-00-0000-74.png,0003-00-0000-35.png
00000014,543,1,1447258587748,1447258588161,877,494,0,0,0,2,0,2,2,0003-00-0000-87.png,0001-00-0000-13.png
00000014,544,0,1447258589060,1447258589475,478,511,0,0,0,3,2,1,5,0002-00-0000-11.png,0003-00-0001-14.png
00000014,545,1,1447258592704,1447258593141,922,446,0,0,0,4,0,4,4,0004-00-0000-61.png,0001-00-0001-54.png
00000014,546,0,1447258594259,1447258594630,401,485,0,0,0,4,1,3,5,0004-00-0000-76.png,0005-00-0000-70.png
00000014,547,0,1447258598143,1447258598608,974,433,0,0,0,2,4,2,6,0003-00-0000-42.png,0004-00-0000-68.png
00000014,548,1,1447258603570,1447258604043,404,501,0,0,0,1,4,3,5,0005-00-0001-22.png,0004-00-0001-37.png
00000014,549,0,1447258605053,1447258605673,905,471,0,0,0,1,3,2,4,0005-00-0001-67.png,0002-00-0000-58.png
00000014,550,1,1447258608839,1447258609374,411,523,0,0,0,3,4,1,7,0002-00-0000-18.png,0004-00-0000-48.png
00000014,551,0,1447258610408,1447258610894,900,464,0,0,0,2,3,1,5,0003-00-0001-04.png,0002-00-0000-29.png
00000014,552,1,1447258614258,1447258614720,913,527,0,0,0,4,3,1,7,0004-00-0000-83.png,0002-00-0000-86.png
00000014,553,1,1447258615675,1447258616212,893,496,0,0,0,3,0,3,3,0002-00-0001-22.png,0001-00-0000-09.png
00000014,554,1,1447258617247,1447258617713,886,536,0,0,0,3,1,2,4,0002-00-0001-15.png,0005-00-0000-69.png
00000014,555,0,1447258618828,1447258619341,889,469,0,0,0,0,1,1,1,0001-00-0001-02.png,0005-00-0001-75.png
00000014,556,1,1447258622916,1447258623412,964,476,0,0,0,2,1,1,3,0003-00-0000-88.png,0005-00-0001-52.png
00000014,557,1,1447258624521,1447258624910,401,476,0,0,0,0,3,3,3,0001-00-0001-20.png,0002-00-0001-20.png
00000014,558,1,1447258626033,1447258626473,371,478,0,0,0,0,4,4,4,0001-00-0001-94.png,0004-00-0000-82.png
00000014,559,1,1447258627580,1447258627988,350,475,0,0,0,0,2,2,2,0001-00-0000-18.png,0003-00-0000-10.png
00000014,560,0,1447258629265,1447258629806,863,461,0,0,0,1,2,1,3,0005-00-0000-53.png,0003-00-0001-51.png
00000014,561,0,1447258641977,1447258641985,516,472,0,0,0,4,3,1,7,0004-00-0000-90.png,0002-00-0001-51.png
00000014,562,0,1447258645655,1447258646066,949,430,0,0,0,2,4,2,6,0003-00-0001-63.png,0004-00-0000-61.png
00000014,563,1,1447258649171,1447258649656,909,514,0,0,0,3,0,3,3,0002-00-0001-63.png,0001-00-0000-79.png
00000014,564,1,1447258650714,1447258651408,920,465,0,0,0,4,1,3,5,0004-00-0000-77.png,0005-00-0000-87.png
00000014,565,1,1447258652344,1447258652869,875,437,0,0,0,3,1,2,4,0002-00-0000-87.png,0005-00-0000-88.png
00000014,566,1,1447258653903,1447258654424,861,437,0,0,0,4,2,2,6,0004-00-0001-24.png,0003-00-0000-43.png
00000014,567,1,1447258655545,1447258655887,447,453,0,0,0,0,2,2,2,0001-00-0000-13.png,0003-00-0001-58.png
00000014,568,1,1447258656965,1447258657391,412,483,0,0,0,1,2,1,3,0005-00-0000-10.png,0003-00-0000-90.png
00000014,569,0,1447258658536,1447258658986,370,479,0,0,0,2,1,1,3,0003-00-0000-81.png,0005-00-0000-30.png
00000014,570,1,1447258662013,1447258662461,950,431,0,0,0,4,0,4,4,0004-00-0001-56.png,0001-00-0001-45.png
00000014,571,1,1447258663653,1447258664254,386,422,0,0,0,0,1,1,1,0001-00-0001-71.png,0005-00-0001-48.png
00000014,572,1,1447258665294,1447258665811,898,485,0,0,0,1,0,1,1,0005-00-0001-42.png,0001-00-0001-11.png
00000014,573,0,1447258666887,1447258667310,418,496,0,0,0,3,2,1,5,0002-00-0000-01.png,0003-00-0001-54.png
00000014,574,1,1447258670341,1447258670818,874,516,0,0,0,2,0,2,2,0003-00-0000-57.png,0001-00-0001-28.png
00000014,575,1,1447258671746,1447258672146,427,490,0,0,0,0,4,4,4,0001-00-0000-55.png,0004-00-0001-55.png
00000014,576,0,1447258673255,1447258673790,891,518,0,0,0,2,3,1,5,0003-00-0001-42.png,0002-00-0000-36.png
00000014,577,0,1447258676992,1447258677553,926,449,0,0,0,1,4,3,5,0005-00-0000-14.png,0004-00-0000-22.png
00000014,578,0,1447258680629,1447258681077,927,435,0,0,0,1,3,2,4,0005-00-0000-98.png,0002-00-0000-99.png
00000014,579,1,1447258686413,1447258686845,364,495,0,0,0,3,4,1,7,0002-00-0000-37.png,0004-00-0000-05.png
00000014,580,0,1447258687854,1447258688392,885,472,0,0,0,0,3,3,3,0001-00-0000-36.png,0002-00-0000-76.png
00000014,581,0,1447258691382,1447258691756,414,462,0,0,0,4,0,4,4,0004-00-0000-44.png,0001-00-0001-06.png
00000014,582,1,1447258695285,1447258695672,332,418,0,0,0,0,2,2,2,0001-00-0000-29.png,0003-00-0000-95.png
00000014,583,1,1447258696759,1447258697889,388,423,0,0,0,0,1,1,1,0001-00-0001-23.png,0005-00-0000-38.png
00000014,584,1,1447258698976,1447258699501,873,537,0,0,0,2,1,1,3,0003-00-0001-20.png,0005-00-0001-12.png
00000014,585,1,1447258700973,1447258701540,434,553,0,0,0,2,3,1,5,0003-00-0001-66.png,0002-00-0001-08.png
00000014,586,0,1447258702674,1447258703225,434,462,0,0,0,4,3,1,7,0004-00-0001-31.png,0002-00-0000-08.png
00000014,587,0,1447258707016,1447258707567,437,384,0,0,0,1,0,1,1,0005-00-0001-36.png,0001-00-0000-27.png
00000014,588,0,1447258710682,1447258711244,986,426,0,0,0,1,3,2,4,0005-00-0001-16.png,0002-00-0001-32.png
00000014,589,1,1447258715938,1447258716442,874,399,0,0,0,4,1,3,5,0004-00-0001-22.png,0005-00-0001-00.png
00000014,590,0,1447258717598,1447258718173,879,453,0,0,0,2,4,2,6,0003-00-0000-98.png,0004-00-0000-40.png
00000014,591,1,1447258724519,1447258724916,926,384,0,0,0,3,0,3,3,0002-00-0000-96.png,0001-00-0000-93.png
00000014,592,1,1447258725932,1447258726344,426,509,0,0,0,0,3,3,3,0001-00-0001-57.png,0002-00-0000-82.png
00000014,593,1,1447258727453,1447258727922,350,476,0,0,0,0,4,4,4,0001-00-0001-76.png,0004-00-0000-61.png
00000014,594,1,1447258729142,1447258729600,926,476,0,0,0,2,0,2,2,0003-00-0001-78.png,0001-00-0001-59.png
00000014,595,1,1447258730673,1447258731100,447,490,0,0,0,1,2,1,3,0005-00-0000-32.png,0003-00-0001-42.png
00000014,596,1,1447258732291,1447258732867,412,527,0,0,0,3,4,1,7,0002-00-0000-20.png,0004-00-0001-31.png
00000014,597,0,1447258734061,1447258734710,391,416,0,0,0,4,2,2,6,0004-00-0001-50.png,0003-00-0001-84.png
00000014,598,1,1447258749396,1447258750062,357,454,0,0,0,1,4,3,5,0005-00-0000-62.png,0004-00-0001-30.png
00000014,599,0,1447258751506,1447258752232,430,553,0,0,0,3,2,1,5,0002-00-0000-60.png,0003-00-0001-23.png
00000014,600,0,1447258758227,1447258758854,397,428,0,0,0,3,1,2,4,0002-00-0001-28.png,0005-00-0000-95.png
00000014,601,0,1447258771998,1447258772472,338,398,0,0,0,4,3,1,7,0004-00-0001-77.png,0002-00-0000-86.png
00000014,602,1,1447258776672,1447258777155,925,397,0,0,0,2,0,2,2,0003-00-0001-40.png,0001-00-0000-85.png
00000014,603,1,1447258779267,1447258779778,951,448,0,0,0,1,0,1,1,0005-00-0001-59.png,0001-00-0000-60.png
00000014,604,0,1447258781143,1447258781763,900,498,0,0,0,2,4,2,6,0003-00-0000-15.png,0004-00-0000-66.png
00000014,605,0,1447258786248,1447258786800,931,505,0,0,0,0,3,3,3,0001-00-0000-03.png,0002-00-0000-61.png
00000014,606,1,1447258797613,1447258798040,377,383,0,0,0,0,4,4,4,0001-00-0001-59.png,0004-00-0000-75.png
00000014,607,0,1447258801072,1447258802091,388,336,0,0,0,2,1,1,3,0003-00-0000-01.png,0005-00-0000-17.png
00000014,608,1,1447258805842,1447258806331,915,470,0,0,0,3,1,2,4,0002-00-0000-97.png,0005-00-0001-48.png
00000014,609,1,1447258808119,1447258808591,900,554,0,0,0,3,2,1,5,0002-00-0000-83.png,0003-00-0000-77.png
00000014,610,1,1447258809699,1447258810203,900,475,0,0,0,3,0,3,3,0002-00-0001-43.png,0001-00-0001-61.png
00000014,611,1,1447258811516,1447258811872,346,471,0,0,0,1,4,3,5,0005-00-0001-48.png,0004-00-0000-92.png
00000014,612,1,1447258813416,1447258814274,400,377,0,0,0,1,2,1,3,0005-00-0000-09.png,0003-00-0000-03.png
00000014,613,0,1447258815495,1447258815920,900,489,0,0,0,1,3,2,4,0005-00-0000-53.png,0002-00-0001-89.png
00000014,614,1,1447258820155,1447258820586,382,443,0,0,0,2,3,1,5,0003-00-0000-98.png,0002-00-0000-31.png
00000014,615,1,1447258822212,1447258822707,315,494,0,0,0,0,2,2,2,0001-00-0001-05.png,0003-00-0001-78.png
00000014,616,1,1447258823978,1447258824507,903,490,0,0,0,4,0,4,4,0004-00-0001-67.png,0001-00-0001-60.png
00000014,617,1,1447258825732,1447258826146,336,502,0,0,0,3,4,1,7,0002-00-0001-66.png,0004-00-0000-39.png
00000014,618,0,1447258827590,1447258828027,348,473,0,0,0,4,2,2,6,0004-00-0001-27.png,0003-00-0000-64.png
00000014,619,1,1447258831479,1447258832020,925,431,0,0,0,4,1,3,5,0004-00-0000-57.png,0005-00-0001-68.png
00000014,620,0,1447258833437,1447258833959,895,488,0,0,0,0,1,1,1,0001-00-0000-57.png,0005-00-0000-40.png
00000014,621,1,1447258838680,1447258839061,351,430,0,0,0,0,3,3,3,0001-00-0000-58.png,0002-00-0000-75.png
00000014,622,0,1447258840391,1447258840904,864,469,0,0,0,3,4,1,7,0002-00-0001-89.png,0004-00-0000-71.png
00000014,623,0,1447258845129,1447258845620,916,438,0,0,0,2,3,1,5,0003-00-0000-00.png,0002-00-0001-53.png
00000014,624,1,1447258849612,1447258850135,930,480,0,0,0,2,1,1,3,0003-00-0000-50.png,0005-00-0000-49.png
00000014,625,1,1447258859396,1447258859802,350,449,0,0,0,0,4,4,4,0001-00-0001-80.png,0004-00-0001-62.png
00000014,626,1,1447258861476,1447258862385,361,405,0,0,0,0,2,2,2,0001-00-0001-36.png,0003-00-0001-12.png
00000014,627,1,1447258863340,1447258863710,376,470,0,0,0,2,4,2,6,0003-00-0001-01.png,0004-00-0000-29.png
00000014,628,0,1447258864695,1447258865082,365,454,0,0,0,3,2,1,5,0002-00-0001-74.png,0003-00-0000-53.png
00000014,629,0,1447258873369,1447258873797,913,450,0,0,0,1,4,3,5,0005-00-0000-52.png,0004-00-0001-85.png
00000014,630,1,1447258878090,1447258878574,903,517,0,0,0,2,0,2,2,0003-00-0001-04.png,0001-00-0000-01.png
00000014,631,0,1447258880429,1447258880850,378,454,0,0,0,4,1,3,5,0004-00-0000-97.png,0005-00-0000-44.png
00000014,632,1,1447258885001,1447258885443,950,456,0,0,0,3,0,3,3,0002-00-0001-83.png,0001-00-0001-41.png
00000014,633,1,1447258886998,1447258887457,435,497,0,0,0,1,2,1,3,0005-00-0001-17.png,0003-00-0001-62.png
00000014,634,1,1447258888578,1447258889080,876,450,0,0,0,4,0,4,4,0004-00-0001-42.png,0001-00-0001-04.png
00000014,635,0,1447258890107,1447258890470,408,495,0,0,0,4,3,1,7,0004-00-0000-25.png,0002-00-0000-36.png
00000014,636,1,1447258894053,1447258894464,423,430,0,0,0,1,3,2,4,0005-00-0000-14.png,0002-00-0000-82.png
00000014,637,1,1447258895687,1447258896189,897,456,0,0,0,1,0,1,1,0005-00-0000-15.png,0001-00-0001-54.png
00000014,638,1,1447258897484,1447258898021,376,462,0,0,0,0,1,1,1,0001-00-0001-69.png,0005-00-0001-55.png
00000014,639,1,1447258899123,1447258899565,903,470,0,0,0,3,1,2,4,0002-00-0000-21.png,0005-00-0001-77.png
00000014,640,1,1447258900744,1447258901240,921,472,0,0,0,4,2,2,6,0004-00-0000-55.png,0003-00-0001-61.png
00000014,641,0,1447258902458,1447258902809,432,494,0,0,0,4,3,1,7,0004-00-0000-80.png,0002-00-0000-78.png
00000014,642,1,1447258906410,1447258906881,880,480,0,0,0,2,1,1,3,0003-00-0000-10.png,0005-00-0001-07.png
00000014,643,0,1447258908278,1447258908658,398,466,0,0,0,4,2,2,6,0004-00-0001-40.png,0003-00-0000-52.png
00000014,644,0,1447258913256,1447258913719,365,477,0,0,0,3,1,2,4,0002-00-0000-16.png,0005-00-0000-55.png
00000014,645,1,1447258918472,1447258918943,875,514,0,0,0,3,2,1,5,0002-00-0001-65.png,0003-00-0000-99.png
00000014,646,1,1447258920311,1447258920786,385,420,0,0,0,0,3,3,3,0001-00-0001-93.png,0002-00-0001-24.png
00000014,647,1,1447258921868,1447258922416,882,479,0,0,0,1,0,1,1,0005-00-0001-87.png,0001-00-0001-55.png
00000014,648,1,1447258923432,1447258923918,385,448,0,0,0,2,4,2,6,0003-00-0001-71.png,0004-00-0000-76.png
00000014,649,1,1447258925094,1447258925564,913,462,0,0,0,3,0,3,3,0002-00-0000-24.png,0001-00-0000-55.png
00000014,650,1,1447258926713,1447258927128,388,501,0,0,0,1,3,2,4,0005-00-0000-55.png,0002-00-0000-85.png
00000014,651,1,1447258928163,1447258928633,409,454,0,0,0,0,1,1,1,0001-00-0000-22.png,0005-00-0000-94.png
00000014,652,1,1447258930013,1447258930403,401,455,0,0,0,1,4,3,5,0005-00-0001-38.png,0004-00-0000-51.png
00000014,653,0,1447258931424,1447258931956,401,436,0,0,0,4,1,3,5,0004-00-0001-66.png,0005-00-0001-23.png
00000014,654,1,1447258936115,1447258936531,898,458,0,0,0,2,0,2,2,0003-00-0000-35.png,0001-00-0001-59.png
00000014,655,1,1447258937555,1447258937968,406,501,0,0,0,0,2,2,2,0001-00-0000-32.png,0003-00-0001-42.png
00000014,656,0,1447258939013,1447258939471,863,449,0,0,0,2,3,1,5,0003-00-0001-69.png,0002-00-0001-30.png
00000014,657,1,1447258946262,1447258946718,348,446,0,0,0,0,4,4,4,0001-00-0001-86.png,0004-00-0000-62.png
00000014,658,0,1447258948201,1447258948732,872,512,0,0,0,1,2,1,3,0005-00-0000-48.png,0003-00-0001-77.png
00000014,659,1,1447258951880,1447258952318,890,422,0,0,0,4,0,4,4,0004-00-0001-92.png,0001-00-0001-02.png
00000014,660,1,1447258953240,1447258953612,367,490,0,0,0,3,4,1,7,0002-00-0000-07.png,0004-00-0000-31.png
00000014,661,0,1447258954678,1447258955304,875,462,0,0,0,3,4,1,7,0002-00-0000-09.png,0004-00-0001-90.png
00000014,662,1,1447258960784,1447258961204,346,428,0,0,0,1,3,2,4,0005-00-0000-56.png,0002-00-0001-87.png
00000014,663,1,1447258962493,1447258962893,350,422,0,0,0,1,2,1,3,0005-00-0001-34.png,0003-00-0001-35.png
00000014,664,0,1447258964102,1447258964604,895,525,0,0,0,0,1,1,1,0001-00-0001-33.png,0005-00-0001-55.png
00000014,665,1,1447258968766,1447258969264,888,372,0,0,0,4,0,4,4,0004-00-0000-72.png,0001-00-0000-08.png
00000014,666,0,1447258970723,1447258971218,387,490,0,0,0,4,2,2,6,0004-00-0000-67.png,0003-00-0001-37.png
00000014,667,1,1447258974222,1447258974685,896,471,0,0,0,1,0,1,1,0005-00-0000-58.png,0001-00-0000-13.png
00000014,668,0,1447258976041,1447258976513,351,441,0,0,0,4,1,3,5,0004-00-0001-27.png,0005-00-0000-49.png
00000014,669,0,1447258981071,1447258981573,908,397,0,0,0,2,4,2,6,0003-00-0000-42.png,0004-00-0000-78.png
00000014,670,0,1447258986136,1447258986651,386,383,0,0,0,2,0,2,2,0003-00-0001-47.png,0001-00-0001-41.png
00000014,671,1,1447258991187,1447258991588,929,388,0,0,0,2,1,1,3,0003-00-0000-54.png,0005-00-0001-75.png
00000014,672,1,1447258992729,1447258993114,375,468,0,0,0,0,2,2,2,0001-00-0000-10.png,0003-00-0001-62.png
00000014,673,1,1447258994066,1447258994599,873,490,0,0,0,3,1,2,4,0002-00-0000-75.png,0005-00-0000-00.png
00000014,674,0,1447258995596,1447258996019,453,503,0,0,0,3,2,1,5,0002-00-0000-16.png,0003-00-0000-09.png
00000014,675,0,1447259002595,1447259002991,356,384,0,0,0,4,3,1,7,0004-00-0000-62.png,0002-00-0001-56.png
00000014,676,0,1447259006608,1447259007150,904,485,0,0,0,0,3,3,3,0001-00-0000-92.png,0002-00-0000-74.png
00000014,677,0,1447259010662,1447259011310,920,446,0,0,0,1,4,3,5,0005-00-0000-35.png,0004-00-0001-59.png
00000014,678,1,1447259015633,1447259016126,928,435,0,0,0,3,0,3,3,0002-00-0000-86.png,0001-00-0001-58.png
00000014,679,1,1447259017494,1447259018420,350,383,0,0,0,2,3,1,5,0003-00-0001-16.png,0002-00-0000-88.png
00000014,680,1,1447259020107,1447259020512,347,489,0,0,0,0,4,4,4,0001-00-0001-52.png,0004-00-0000-32.png
00000014,681,1,1447259021526,1447259022117,349,400,0,0,0,2,4,2,6,0003-00-0000-54.png,0004-00-0001-00.png
00000014,682,1,1447259023286,1447259023768,878,469,0,0,0,4,3,1,7,0004-00-0001-40.png,0002-00-0000-15.png
00000014,683,1,1447259024798,1447259025196,440,479,0,0,0,0,4,4,4,0001-00-0001-71.png,0004-00-0000-23.png
00000014,684,1,1447259026427,1447259026911,899,431,0,0,0,2,1,1,3,0003-00-0001-29.png,0005-00-0001-16.png
00000014,685,0,1447259027914,1447259028439,869,495,0,0,0,3,4,1,7,0002-00-0001-34.png,0004-00-0000-54.png
00000014,686,1,1447259033921,1447259034474,874,488,0,0,0,4,0,4,4,0004-00-0000-33.png,0001-00-0000-59.png
00000014,687,0,1447259036238,1447259036655,903,442,0,0,0,2,3,1,5,0003-00-0000-97.png,0002-00-0000-78.png
00000014,688,1,1447259043386,1447259043813,383,401,0,0,0,0,2,2,2,0001-00-0000-85.png,0003-00-0000-49.png
00000014,689,0,1447259045348,1447259045800,325,529,0,0,0,1,0,1,1,0005-00-0000-44.png,0001-00-0000-27.png
00000014,690,1,1447259055398,1447259055892,866,404,0,0,0,3,0,3,3,0002-00-0001-05.png,0001-00-0001-48.png
00000014,691,1,1447259057001,1447259057484,920,472,0,0,0,3,1,2,4,0002-00-0001-13.png,0005-00-0000-38.png
00000014,692,0,1447259058551,1447259059208,389,475,0,0,0,4,1,3,5,0004-00-0000-80.png,0005-00-0000-46.png
00000014,693,0,1447259064023,1447259064446,975,429,0,0,0,1,3,2,4,0005-00-0000-66.png,0002-00-0001-17.png
00000014,694,1,1447259067897,1447259068362,350,395,0,0,0,1,4,3,5,0005-00-0001-10.png,0004-00-0001-39.png
00000014,695,0,1447259069819,1447259070403,427,436,0,0,0,2,0,2,2,0003-00-0001-67.png,0001-00-0000-53.png
00000014,696,0,1447259074253,1447259074672,333,444,0,0,0,4,2,2,6,0004-00-0001-01.png,0003-00-0000-45.png
00000014,697,0,1447259083285,1447259083700,888,384,0,0,0,1,2,1,3,0005-00-0000-03.png,0003-00-0000-56.png
00000014,698,0,1447259087487,1447259087899,355,432,0,0,0,3,2,1,5,0002-00-0001-95.png,0003-00-0001-78.png
00000014,699,1,1447259094940,1447259095376,312,414,0,0,0,0,1,1,1,0001-00-0000-75.png,0005-00-0001-31.png
00000014,700,1,1447259096993,1447259097506,342,442,0,0,0,0,3,3,3,0001-00-0000-86.png,0002-00-0001-47.png
00000014,701,0,1447259098661,1447259099172,913,479,0,0,0,1,4,3,5,0005-00-0000-52.png,0004-00-0001-65.png
00000014,702,1,1447259102577,1447259102949,380,473,0,0,0,2,3,1,5,0003-00-0000-81.png,0002-00-0001-12.png
00000014,703,1,1447259104176,1447259104640,898,457,0,0,0,2,0,2,2,0003-00-0001-89.png,0001-00-0001-48.png
00000014,704,0,1447259105937,1447259106287,362,484,0,0,0,4,1,3,5,0004-00-0001-42.png,0005-00-0000-60.png
00000014,705,1,1447259110737,1447259111200,974,509,0,0,0,4,2,2,6,0004-00-0000-41.png,0003-00-0000-88.png
00000014,706,0,1447259112415,1447259113068,453,554,0,0,0,3,2,1,5,0002-00-0000-62.png,0003-00-0001-10.png
00000014,707,1,1447259116391,1447259117254,358,396,0,0,0,1,2,1,3,0005-00-0000-78.png,0003-00-0000-23.png
00000014,708,1,1447259118467,1447259119067,409,454,0,0,0,3,4,1,7,0002-00-0001-10.png,0004-00-0001-49.png
00000014,709,1,1447259120247,1447259120784,916,461,0,0,0,4,0,4,4,0004-00-0000-33.png,0001-00-0001-76.png
00000014,710,1,1447259121807,1447259122353,403,466,0,0,0,2,4,2,6,0003-00-0000-97.png,0004-00-0001-20.png
00000014,711,1,1447259123556,1447259124154,430,420,0,0,0,1,3,2,4,0005-00-0001-45.png,0002-00-0000-36.png
00000014,712,1,1447259125246,1447259125629,375,490,0,0,0,0,3,3,3,0001-00-0000-24.png,0002-00-0001-30.png
00000014,713,1,1447259126728,1447259127114,399,472,0,0,0,0,4,4,4,0001-00-0001-77.png,0004-00-0001-22.png
00000014,714,0,1447259128686,1447259129232,369,438,0,0,0,4,3,1,7,0004-00-0000-48.png,0002-00-0001-95.png
00000014,715,0,1447259147626,1447259148111,349,398,0,0,0,1,0,1,1,0005-00-0001-85.png,0001-00-0001-66.png
00000014,716,1,1447259151022,1447259151410,363,410,0,0,0,0,2,2,2,0001-00-0001-45.png,0003-00-0001-87.png
00000014,717,1,1447259152458,1447259152883,877,467,0,0,0,3,0,3,3,0002-00-0000-95.png,0001-00-0000-39.png
00000014,718,1,1447259154175,1447259154730,875,501,0,0,0,3,1,2,4,0002-00-0000-42.png,0005-00-0001-70.png
00000014,719,0,1447259155716,1447259156136,407,496,0,0,0,2,1,1,3,0003-00-0001-06.png,0005-00-0000-00.png
00000014,720,1,1447259167041,1447259167550,369,386,0,0,0,0,1,1,1,0001-00-0001-42.png,0005-00-0000-68.png
00000014,721,0,1447259168677,1447259169279,901,450,0,0,0,2,4,2,6,0003-00-0001-78.png,0004-00-0000-09.png
00000014,722,0,1447259177814,1447259178277,1003,449,0,0,0,3,4,1,7,0002-00-0001-02.png,0004-00-0000-45.png
00000014,723,1,1447259195016,1447259195428,365,386,0,0,0,1,2,1,3,0005-00-0001-93.png,0003-00-0001-96.png
00000014,724,1,1447259196583,1447259197148,901,437,0,0,0,4,1,3,5,0004-00-0000-21.png,0005-00-0000-98.png
00000014,725,1,1447259198245,1447259198636,359,457,0,0,0,0,4,4,4,0001-00-0001-04.png,0004-00-0001-72.png
00000014,726,1,1447259199858,1447259200268,350,488,0,0,0,0,2,2,2,0001-00-0001-03.png,0003-00-0001-68.png
00000014,727,0,1447259201380,1447259201776,413,501,0,0,0,4,0,4,4,0004-00-0001-42.png,0001-00-0000-73.png
00000014,728,0,1447259207474,1447259207913,441,559,0,0,0,3,1,2,4,0002-00-0000-16.png,0005-00-0000-78.png
00000014,729,1,1447259212099,1447259212510,926,398,0,0,0,2,0,2,2,0003-00-0000-64.png,0001-00-0001-79.png
00000014,730,0,1447259213679,1447259214118,376,501,0,0,0,4,2,2,6,0004-00-0001-03.png,0003-00-0000-93.png
00000014,731,0,1447259220277,1447259220717,435,480,0,0,0,4,3,1,7,0004-00-0001-73.png,0002-00-0001-17.png
00000014,732,1,1447259242458,1447259242956,975,429,0,0,0,3,0,3,3,0002-00-0000-86.png,0001-00-0001-64.png
00000014,733,1,1447259244446,1447259244989,401,464,0,0,0,0,3,3,3,0001-00-0001-05.png,0002-00-0000-43.png
00000014,734,0,1447259246290,1447259246907,905,478,0,0,0,1,3,2,4,0005-00-0001-23.png,0002-00-0000-08.png
00000014,735,0,1447259251577,1447259252070,934,502,0,0,0,2,3,1,5,0003-00-0000-48.png,0002-00-0000-56.png
00000014,736,1,1447259258558,1447259258986,951,423,0,0,0,1,0,1,1,0005-00-0001-08.png,0001-00-0001-93.png
00000014,737,1,1447259260301,1447259260735,325,475,0,0,0,0,1,1,1,0001-00-0000-69.png,0005-00-0000-61.png
00000014,738,0,1447259261861,1447259262439,416,456,0,0,0,2,1,1,3,0003-00-0000-20.png,0005-00-0001-94.png
00000014,739,1,1447259267585,1447259268026,366,405,0,0,0,1,4,3,5,0005-00-0001-25.png,0004-00-0001-98.png
00000014,740,0,1447259269822,1447259270833,345,359,0,0,0,3,2,1,5,0002-00-0000-75.png,0003-00-0000-11.png
00000014,741,0,1447259278158,1447259278678,374,331,0,0,0,3,1,2,4,0002-00-0001-43.png,0005-00-0000-04.png
00000014,742,1,1447259283237,1447259283637,332,397,0,0,0,0,1,1,1,0001-00-0001-96.png,0005-00-0000-60.png
00000014,743,1,1447259287881,1447259288302,355,418,0,0,0,0,2,2,2,0001-00-0000-86.png,0003-00-0000-42.png
00000014,744,0,1447259289840,1447259290334,867,560,0,0,0,2,4,2,6,0003-00-0001-06.png,0004-00-0000-24.png
00000014,745,1,1447259294033,1447259294457,401,410,0,0,0,1,4,3,5,0005-00-0000-12.png,0004-00-0001-27.png
00000014,746,1,1447259295773,1447259296427,939,476,0,0,0,4,2,2,6,0004-00-0001-46.png,0003-00-0001-72.png
00000014,747,0,1447259297501,1447259297894,373,495,0,0,0,2,1,1,3,0003-00-0000-61.png,0005-00-0000-86.png
00000014,748,1,1447259301617,1447259302104,935,552,0,0,0,4,0,4,4,0004-00-0001-53.png,0001-00-0001-40.png
00000014,749,1,1447259303512,1447259303922,378,487,0,0,0,0,4,4,4,0001-00-0000-33.png,0004-00-0000-72.png
00000014,750,1,1447259305615,1447259306072,342,545,0,0,0,3,4,1,7,0002-00-0000-85.png,0004-00-0001-48.png
00000014,751,1,1447259307289,1447259307707,395,472,0,0,0,1,2,1,3,0005-00-0001-48.png,0003-00-0000-39.png
00000014,752,1,1447259309002,1447259309378,410,495,0,0,0,1,3,2,4,0005-00-0001-35.png,0002-00-0000-61.png
00000014,753,1,1447259310604,1447259311181,426,432,0,0,0,0,3,3,3,0001-00-0000-63.png,0002-00-0000-52.png
00000014,754,0,1447259312631,1447259313215,877,476,0,0,0,2,3,1,5,0003-00-0000-12.png,0002-00-0000-10.png
00000014,755,0,1447259323734,1447259325163,363,436,0,0,0,1,0,1,1,0005-00-0000-64.png,0001-00-0001-99.png
00000014,756,0,1447259336830,1447259337218,374,374,0,0,0,3,2,1,5,0002-00-0000-99.png,0003-00-0001-06.png
00000014,757,1,1447259340880,1447259341360,950,412,0,0,0,2,0,2,2,0003-00-0000-63.png,0001-00-0000-98.png
00000014,758,0,1447259342820,1447259343254,350,449,0,0,0,4,3,1,7,0004-00-0000-63.png,0002-00-0000-96.png
00000014,759,0,1447259347589,1447259348027,370,371,0,0,0,4,1,3,5,0004-00-0001-36.png,0005-00-0001-67.png
00000014,760,1,1447259353074,1447259353563,901,450,0,0,0,3,0,3,3,0002-00-0001-03.png,0001-00-0001-57.png
00000014,761,1,1447259355312,1447259355835,397,390,0,0,0,0,4,4,4,0001-00-0000-65.png,0004-00-0000-33.png
00000014,762,0,1447259356901,1447259357297,414,475,0,0,0,3,1,2,4,0002-00-0001-85.png,0005-00-0000-21.png
00000014,763,1,1447259366193,1447259366571,414,390,0,0,0,3,4,1,7,0002-00-0001-62.png,0004-00-0000-38.png
00000014,764,0,1447259368234,1447259368738,867,411,0,0,0,2,3,1,5,0003-00-0000-07.png,0002-00-0001-37.png
00000014,765,1,1447259373655,1447259374075,413,414,0,0,0,1,2,1,3,0005-00-0001-64.png,0003-00-0001-65.png
00000014,766,0,1447259376134,1447259376590,386,466,0,0,0,4,1,3,5,0004-00-0000-78.png,0005-00-0001-74.png
00000014,767,0,1447259380775,1447259381245,411,467,0,0,0,3,2,1,5,0002-00-0001-20.png,0003-00-0000-45.png
00000014,768,0,1447259386449,1447259386941,964,436,0,0,0,0,1,1,1,0001-00-0000-47.png,0005-00-0000-24.png
00000014,769,1,1447259390295,1447259390751,359,430,0,0,0,0,3,3,3,0001-00-0001-21.png,0002-00-0000-48.png
00000014,770,1,1447259392542,1447259393024,868,561,0,0,0,2,0,2,2,0003-00-0001-88.png,0001-00-0001-71.png
00000014,771,0,1447259394093,1447259394611,360,407,0,0,0,1,0,1,1,0005-00-0000-96.png,0001-00-0001-82.png
00000014,772,1,1447259399061,1447259399525,913,423,0,0,0,3,0,3,3,0002-00-0000-22.png,0001-00-0001-70.png
00000014,773,0,1447259400771,1447259401315,914,501,0,0,0,0,2,2,2,0001-00-0000-95.png,0003-00-0000-89.png
00000014,774,1,1447259406075,1447259406543,394,448,0,0,0,1,3,2,4,0005-00-0001-89.png,0002-00-0000-57.png
00000014,775,1,1447259407866,1447259408460,412,547,0,0,0,1,4,3,5,0005-00-0001-71.png,0004-00-0001-79.png
00000014,776,0,1447259409628,1447259410203,883,460,0,0,0,2,4,2,6,0003-00-0001-79.png,0004-00-0001-36.png
00000014,777,1,1447259414040,1447259414513,902,548,0,0,0,2,1,1,3,0003-00-0001-85.png,0005-00-0000-69.png
00000014,778,0,1447259415995,1447259416569,407,406,0,0,0,4,0,4,4,0004-00-0001-40.png,0001-00-0001-24.png
00000014,779,0,1447259420486,1447259420896,360,438,0,0,0,4,2,2,6,0004-00-0001-17.png,0003-00-0000-59.png
00000014,780,0,1447259424596,1447259425305,395,520,0,0,0,4,3,1,7,0004-00-0001-24.png,0002-00-0000-31.png
00000014,781,1,1447259429204,1447259429638,930,439,0,0,0,2,0,2,2,0003-00-0001-05.png,0001-00-0001-86.png
00000014,782,1,1447259430813,1447259431375,877,544,0,0,0,3,1,2,4,0002-00-0001-84.png,0005-00-0000-03.png
00000014,783,1,1447259432376,1447259432759,392,452,0,0,0,0,2,2,2,0001-00-0000-15.png,0003-00-0000-45.png
00000014,784,0,1447259433828,1447259434708,374,379,0,0,0,4,3,1,7,0004-00-0000-46.png,0002-00-0001-50.png
00000014,785,1,1447259438976,1447259439567,413,397,0,0,0,1,2,1,3,0005-00-0001-82.png,0003-00-0001-74.png
00000014,786,0,1447259443617,1447259444090,928,440,0,0,0,2,3,1,5,0003-00-0000-72.png,0002-00-0001-02.png
00000014,787,1,1447259447592,1447259448105,925,429,0,0,0,4,0,4,4,0004-00-0000-24.png,0001-00-0001-07.png
00000014,788,0,1447259450137,1447259451017,375,353,0,0,0,4,2,2,6,0004-00-0001-16.png,0003-00-0001-94.png
00000014,789,1,1447259454380,1447259454786,392,476,0,0,0,0,1,1,1,0001-00-0001-21.png,0005-00-0001-66.png
00000014,790,1,1447259455960,1447259456565,887,496,0,0,0,2,1,1,3,0003-00-0000-04.png,0005-00-0000-82.png
00000014,791,1,1447259457731,1447259458126,446,498,0,0,0,0,3,3,3,0001-00-0000-60.png,0002-00-0000-17.png
00000014,792,0,1447259459129,1447259459737,874,439,0,0,0,3,4,1,7,0002-00-0000-51.png,0004-00-0001-02.png
00000014,793,0,1447259464645,1447259465149,971,473,0,0,0,2,4,2,6,0003-00-0000-54.png,0004-00-0000-93.png
00000014,794,0,1447259469117,1447259469713,871,445,0,0,0,0,4,4,4,0001-00-0001-22.png,0004-00-0000-56.png
00000014,795,1,1447259473825,1447259474221,375,408,0,0,0,1,4,3,5,0005-00-0000-67.png,0004-00-0001-34.png
00000014,796,1,1447259476352,1447259476769,390,438,0,0,0,1,3,2,4,0005-00-0001-07.png,0002-00-0000-34.png
00000014,797,0,1447259478526,1447259479271,428,398,0,0,0,1,0,1,1,0005-00-0000-29.png,0001-00-0001-81.png
00000014,798,1,1447259482814,1447259483264,890,561,0,0,0,3,0,3,3,0002-00-0001-93.png,0001-00-0001-64.png
00000014,799,0,1447259484502,1447259484935,410,528,0,0,0,3,2,1,5,0002-00-0001-32.png,0003-00-0001-80.png
00000014,800,1,1447259488140,1447259488638,906,470,0,0,0,4,1,3,5,0004-00-0000-01.png,0005-00-0001-35.png
00000014,801,0,1447259489750,1447259490130,396,479,0,0,0,4,3,1,7,0004-00-0001-33.png,0002-00-0000-54.png
00000014,802,1,1447259496851,1447259497362,939,398,0,0,0,3,0,3,3,0002-00-0000-67.png,0001-00-0000-80.png
00000014,803,1,1447259498843,1447259499286,325,476,0,0,0,0,3,3,3,0001-00-0000-11.png,0002-00-0001-01.png
00000014,804,1,1447259500454,1447259500865,384,467,0,0,0,1,2,1,3,0005-00-0000-36.png,0003-00-0001-46.png
00000014,805,1,1447259501907,1447259502318,390,475,0,0,0,0,2,2,2,0001-00-0001-04.png,0003-00-0001-47.png
00000014,806,1,1447259503488,1447259503913,410,498,0,0,0,1,3,2,4,0005-00-0001-98.png,0002-00-0000-02.png
00000014,807,0,1447259505019,1447259505529,888,489,0,0,0,3,4,1,7,0002-00-0000-94.png,0004-00-0000-35.png
00000014,808,0,1447259508750,1447259509234,382,433,0,0,0,4,2,2,6,0004-00-0001-36.png,0003-00-0001-65.png
00000014,809,0,1447259512845,1447259513311,967,458,0,0,0,2,4,2,6,0003-00-0000-56.png,0004-00-0000-48.png
00000014,810,0,1447259516894,1447259517310,378,442,0,0,0,3,1,2,4,0002-00-0000-44.png,0005-00-0001-00.png
00000014,811,1,1447259521207,1447259521655,344,415,0,0,0,0,1,1,1,0001-00-0000-09.png,0005-00-0000-81.png
00000014,812,1,1447259523177,1447259523735,857,447,0,0,0,2,1,1,3,0003-00-0000-01.png,0005-00-0001-32.png
00000014,813,1,1447259525232,1447259525741,909,453,0,0,0,2,0,2,2,0003-00-0001-05.png,0001-00-0000-14.png
00000014,814,0,1447259527391,1447259527835,383,545,0,0,0,1,0,1,1,0005-00-0001-34.png,0001-00-0001-69.png
00000014,815,1,1447259532699,1447259533123,354,406,0,0,0,0,4,4,4,0001-00-0001-67.png,0004-00-0001-11.png
00000014,816,0,1447259534320,1447259534831,872,458,0,0,0,2,3,1,5,0003-00-0001-62.png,0002-00-0000-24.png
00000014,817,0,1447259538532,1447259538964,413,421,0,0,0,4,0,4,4,0004-00-0000-25.png,0001-00-0000-95.png
00000014,818,1,1447259543045,1447259543550,888,502,0,0,0,4,1,3,5,0004-00-0001-34.png,0005-00-0000-69.png
00000014,819,1,1447259544818,1447259545554,882,501,0,0,0,3,2,1,5,0002-00-0001-32.png,0003-00-0000-38.png
00000014,820,0,1447259547279,1447259547891,998,511,0,0,0,1,4,3,5,0005-00-0001-17.png,0004-00-0001-75.png
00000014,821,1,1447259553769,1447259554169,867,483,0,0,0,2,0,2,2,0003-00-0001-12.png,0001-00-0000-42.png
00000014,822,1,1447259555302,1447259555754,403,458,0,0,0,0,4,4,4,0001-00-0001-58.png,0004-00-0001-07.png
00000014,823,0,1447259556783,1447259557178,361,497,0,0,0,3,1,2,4,0002-00-0001-30.png,0005-00-0000-72.png
00000014,824,1,1447259560284,1447259560672,412,427,0,0,0,1,3,2,4,0005-00-0000-73.png,0002-00-0000-69.png
00000014,825,1,1447259561822,1447259562192,371,472,0,0,0,1,2,1,3,0005-00-0000-93.png,0003-00-0000-33.png
00000014,826,0,1447259563200,1447259563598,376,487,0,0,0,3,2,1,5,0002-00-0001-86.png,0003-00-0001-65.png
00000014,827,1,1447259566851,1447259567347,951,456,0,0,0,4,2,2,6,0004-00-0001-34.png,0003-00-0001-83.png
00000014,828,0,1447259568459,1447259568869,352,482,0,0,0,1,0,1,1,0005-00-0001-62.png,0001-00-0001-95.png
00000014,829,0,1447259572260,1447259572703,934,457,0,0,0,3,4,1,7,0002-00-0001-50.png,0004-00-0000-16.png
00000014,830,1,1447259575915,1447259576441,924,562,0,0,0,4,0,4,4,0004-00-0001-76.png,0001-00-0001-41.png
00000014,831,1,1447259577853,1447259578346,917,455,0,0,0,2,1,1,3,0003-00-0001-20.png,0005-00-0001-37.png
00000014,832,0,1447259579323,1447259579731,421,470,0,0,0,4,3,1,7,0004-00-0000-13.png,0002-00-0001-34.png
00000014,833,1,1447259583210,1447259583638,415,477,0,0,0,0,2,2,2,0001-00-0001-01.png,0003-00-0000-39.png
00000014,834,1,1447259584829,1447259585277,365,484,0,0,0,0,1,1,1,0001-00-0001-04.png,0005-00-0001-93.png
00000014,835,1,1447259586519,1447259587011,906,452,0,0,0,4,1,3,5,0004-00-0001-38.png,0005-00-0001-88.png
00000014,836,0,1447259588112,1447259588751,951,423,0,0,0,2,3,1,5,0003-00-0000-71.png,0002-00-0000-99.png
00000014,837,0,1447259592905,1447259593362,934,509,0,0,0,0,3,3,3,0001-00-0001-10.png,0002-00-0000-14.png
00000014,838,0,1447259596876,1447259597469,902,424,0,0,0,1,4,3,5,0005-00-0000-20.png,0004-00-0000-77.png
00000014,839,0,1447259601486,1447259601913,899,423,0,0,0,2,4,2,6,0003-00-0000-86.png,0004-00-0001-10.png
00000014,840,1,1447259606397,1447259606860,924,430,0,0,0,3,0,3,3,0002-00-0000-99.png,0001-00-0000-28.png
00000014,841,1,1447259607966,1447259608431,896,446,0,0,0,3,0,3,3,0002-00-0000-72.png,0001-00-0001-67.png
00000014,842,1,1447259609745,1447259610108,356,464,0,0,0,0,4,4,4,0001-00-0000-68.png,0004-00-0001-50.png
00000014,843,1,1447259611234,1447259611688,378,462,0,0,0,1,2,1,3,0005-00-0001-36.png,0003-00-0000-24.png
00000014,844,1,1447259612957,1447259613386,388,485,0,0,0,1,3,2,4,0005-00-0000-27.png,0002-00-0000-35.png
00000014,845,1,1447259614508,1447259615112,867,457,0,0,0,3,2,1,5,0002-00-0000-03.png,0003-00-0001-59.png
00000014,846,1,1447259616235,1447259616846,422,398,0,0,0,2,3,1,5,0003-00-0000-27.png,0002-00-0000-34.png
00000014,847,0,1447259618014,1447259618395,420,487,0,0,0,4,2,2,6,0004-00-0000-20.png,0003-00-0000-80.png
00000014,848,1,1447259622821,1447259622916,513,488,0,0,0,0,3,3,3,0001-00-0001-59.png,0002-00-0000-63.png
00000014,849,0,1447259624783,1447259625505,464,410,0,0,0,4,3,1,7,0004-00-0000-51.png,0002-00-0001-70.png
00000014,850,0,1447259629432,1447259629816,384,408,0,0,0,4,1,3,5,0004-00-0001-55.png,0005-00-0001-67.png
00000014,851,0,1447259635004,1447259635463,898,455,0,0,0,1,4,3,5,0005-00-0000-38.png,0004-00-0000-66.png
00000014,852,1,1447259638756,1447259639219,901,435,0,0,0,1,0,1,1,0005-00-0001-46.png,0001-00-0000-50.png
00000014,853,1,1447259640456,1447259641372,358,386,0,0,0,3,4,1,7,0002-00-0001-71.png,0004-00-0001-89.png
00000014,854,1,1447259642673,1447259643174,898,459,0,0,0,2,0,2,2,0003-00-0000-59.png,0001-00-0000-18.png
00000014,855,1,1447259644243,1447259645207,440,423,0,0,0,2,4,2,6,0003-00-0000-14.png,0004-00-0000-52.png
00000014,856,1,1447259646365,1447259646741,375,473,0,0,0,0,2,2,2,0001-00-0001-32.png,0003-00-0000-85.png
00000014,857,0,1447259647911,1447259648776,437,408,0,0,0,3,1,2,4,0002-00-0001-24.png,0005-00-0001-18.png
00000014,858,1,1447259655923,1447259656390,888,422,0,0,0,4,0,4,4,0004-00-0000-09.png,0001-00-0000-79.png
00000014,859,1,1447259657545,1447259657933,375,473,0,0,0,0,1,1,1,0001-00-0000-52.png,0005-00-0000-09.png
00000014,860,0,1447259659139,1447259659593,381,473,0,0,0,2,1,1,3,0003-00-0000-68.png,0005-00-0000-10.png
00000014,861,0,1447259664790,1447259665292,962,498,0,0,0,1,3,2,4,0005-00-0000-85.png,0002-00-0000-76.png
00000014,862,0,1447259670727,1447259671169,887,424,0,0,0,0,3,3,3,0001-00-0000-73.png,0002-00-0001-78.png
00000014,863,1,1447259675511,1447259675961,926,397,0,0,0,4,1,3,5,0004-00-0000-49.png,0005-00-0001-62.png
00000014,864,0,1447259677261,1447259677846,885,470,0,0,0,1,2,1,3,0005-00-0000-75.png,0003-00-0000-57.png
00000014,865,1,1447259683789,1447259684386,419,397,0,0,0,0,4,4,4,0001-00-0001-15.png,0004-00-0000-98.png
00000014,866,1,1447259685921,1447259686410,921,420,0,0,0,4,0,4,4,0004-00-0000-78.png,0001-00-0000-08.png
00000014,867,0,1447259687705,1447259688105,372,462,0,0,0,3,2,1,5,0002-00-0000-37.png,0003-00-0001-34.png
00000014,868,1,1447259693111,1447259694283,349,410,0,0,0,0,2,2,2,0001-00-0000-52.png,0003-00-0000-09.png
00000014,869,1,1447259695688,1447259696320,407,443,0,0,0,0,1,1,1,0001-00-0001-88.png,0005-00-0001-41.png
00000014,870,0,1447259697447,1447259697916,415,410,0,0,0,2,1,1,3,0003-00-0000-64.png,0005-00-0001-34.png
00000014,871,1,1447259701680,1447259702281,926,468,0,0,0,2,0,2,2,0003-00-0001-63.png,0001-00-0000-43.png
00000014,872,1,1447259704484,1447259705027,469,469,0,0,0,1,4,3,5,0005-00-0000-96.png,0004-00-0000-90.png
00000014,873,0,1447259706740,1447259707280,888,436,0,0,0,2,3,1,5,0003-00-0001-47.png,0002-00-0001-95.png
00000014,874,1,1447259719032,1447259719559,426,388,0,0,0,2,4,2,6,0003-00-0001-17.png,0004-00-0000-78.png
00000014,875,0,1447259721412,1447259722067,420,464,0,0,0,4,3,1,7,0004-00-0001-92.png,0002-00-0000-17.png
00000014,876,1,1447259756567,1447259757014,375,388,0,0,0,3,4,1,7,0002-00-0000-08.png,0004-00-0000-08.png
00000014,877,1,1447259759732,1447259760293,950,457,0,0,0,3,0,3,3,0002-00-0001-82.png,0001-00-0000-65.png
00000014,878,1,1447259762442,1447259762971,939,462,0,0,0,3,1,2,4,0002-00-0000-63.png,0005-00-0000-18.png
00000014,879,1,1447259764265,1447259764777,881,566,0,0,0,1,0,1,1,0005-00-0001-94.png,0001-00-0001-58.png
00000014,880,0,1447259766755,1447259767261,466,398,0,0,0,4,2,2,6,0004-00-0000-77.png,0003-00-0001-18.png
00000014,881,1,1447259770934,1447259771349,330,423,0,0,0,0,3,3,3,0001-00-0000-67.png,0002-00-0000-66.png
00000014,882,1,1447259772623,1447259773201,903,443,0,0,0,3,0,3,3,0002-00-0001-78.png,0001-00-0001-18.png
00000014,883,0,1447259774254,1447259774644,396,488,0,0,0,1,0,1,1,0005-00-0000-00.png,0001-00-0001-91.png
00000014,884,1,1447259779650,1447259780131,945,442,0,0,0,2,0,2,2,0003-00-0000-69.png,0001-00-0001-41.png
00000014,885,0,1447259781519,1447259782446,382,400,0,0,0,4,1,3,5,0004-00-0000-36.png,0005-00-0001-26.png
00000014,886,1,1447259785703,1447259786248,930,427,0,0,0,2,1,1,3,0003-00-0000-00.png,0005-00-0000-08.png
00000014,887,1,1447259787998,1447259788990,925,396,0,0,0,4,0,4,4,0004-00-0001-92.png,0001-00-0000-55.png
00000014,888,1,1447259790630,1447259791044,355,422,0,0,0,1,4,3,5,0005-00-0000-95.png,0004-00-0001-88.png
00000014,889,1,1447259792208,1447259792614,341,472,0,0,0,1,2,1,3,0005-00-0000-84.png,0003-00-0000-00.png
00000014,890,0,1447259793889,1447259794566,434,408,0,0,0,4,2,2,6,0004-00-0001-79.png,0003-00-0001-02.png
00000014,891,1,1447259797446,1447259797867,376,384,0,0,0,1,3,2,4,0005-00-0001-08.png,0002-00-0000-89.png
00000014,892,0,1447259799455,1447259799945,888,488,0,0,0,2,4,2,6,0003-00-0001-06.png,0004-00-0000-76.png
00000014,893,0,1447259803284,1447259803750,900,424,0,0,0,0,2,2,2,0001-00-0001-29.png,0003-00-0001-32.png
00000014,894,0,1447259808620,1447259809101,421,448,0,0,0,3,2,1,5,0002-00-0001-52.png,0003-00-0001-19.png
00000014,895,1,1447259814067,1447259814539,400,412,0,0,0,3,4,1,7,0002-00-0001-92.png,0004-00-0001-82.png
00000014,896,1,1447259816324,1447259817082,467,435,0,0,0,2,3,1,5,0003-00-0001-12.png,0002-00-0000-47.png
00000014,897,1,1447259818492,1447259819026,908,397,0,0,0,4,3,1,7,0004-00-0000-87.png,0002-00-0001-26.png
00000014,898,0,1447259820478,1447259821637,386,471,0,0,0,3,1,2,4,0002-00-0000-22.png,0005-00-0001-36.png
00000014,899,1,1447259824808,1447259825203,376,384,0,0,0,0,4,4,4,0001-00-0000-45.png,0004-00-0000-85.png
00000014,900,1,1447259826379,1447259827020,410,419,0,0,0,0,1,1,1,0001-00-0000-05.png,0005-00-0000-29.png
00000014,901,0,1447259828350,1447259829242,368,375,0,0,0,3,1,2,4,0002-00-0000-12.png,0005-00-0001-54.png
00000014,902,0,1447259834688,1447259835215,383,485,0,0,0,3,2,1,5,0002-00-0000-29.png,0003-00-0000-43.png
00000014,903,0,1447259839699,1447259840183,926,422,0,0,0,2,4,2,6,0003-00-0001-30.png,0004-00-0001-24.png
00000014,904,1,1447259845115,1447259845573,357,441,0,0,0,0,4,4,4,0001-00-0001-25.png,0004-00-0000-85.png
00000014,905,1,1447259847261,1447259847737,378,459,0,0,0,1,4,3,5,0005-00-0000-27.png,0004-00-0000-65.png
00000014,906,1,1447259849597,1447259849998,358,440,0,0,0,0,1,1,1,0001-00-0001-77.png,0005-00-0001-90.png
00000014,907,1,1447259852248,1447259852636,385,399,0,0,0,0,2,2,2,0001-00-0001-98.png,0003-00-0000-04.png
00000014,908,0,1447259853909,1447259854368,376,490,0,0,0,1,0,1,1,0005-00-0001-40.png,0001-00-0001-53.png
00000014,909,0,1447259858378,1447259858864,911,466,0,0,0,3,4,1,7,0002-00-0000-68.png,0004-00-0001-18.png
00000014,910,0,1447259868221,1447259868619,389,419,0,0,0,3,0,3,3,0002-00-0001-27.png,0001-00-0000-81.png
00000014,911,1,1447259872697,1447259873223,965,423,0,0,0,4,0,4,4,0004-00-0001-36.png,0001-00-0001-84.png
00000014,912,1,1447259874692,1447259875231,898,457,0,0,0,2,0,2,2,0003-00-0001-50.png,0001-00-0001-98.png
00000014,913,1,1447259876603,1447259877342,426,418,0,0,0,2,3,1,5,0003-00-0000-78.png,0002-00-0000-56.png
00000014,914,1,1447259879237,1447259879659,373,452,0,0,0,1,2,1,3,0005-00-0000-90.png,0003-00-0001-04.png
00000014,915,0,1447259880976,1447259881371,345,504,0,0,0,4,3,1,7,0004-00-0001-36.png,0002-00-0000-47.png
00000014,916,0,1447259885001,1447259885507,990,397,0,0,0,1,3,2,4,0005-00-0000-07.png,0002-00-0001-26.png
00000014,917,1,1447259889222,1447259890266,964,384,0,0,0,2,1,1,3,0003-00-0001-82.png,0005-00-0000-61.png
00000014,918,1,1447259891461,1447259892497,928,414,0,0,0,4,1,3,5,0004-00-0000-50.png,0005-00-0000-08.png
00000014,919,1,1447259893953,1447259894333,386,447,0,0,0,0,3,3,3,0001-00-0001-09.png,0002-00-0001-93.png
00000014,920,0,1447259895568,1447259895972,428,444,0,0,0,4,2,2,6,0004-00-0000-00.png,0003-00-0000-29.png
00000014,921,1,1447259899353,1447259899862,875,547,0,0,0,4,0,4,4,0004-00-0000-91.png,0001-00-0001-13.png
00000014,922,1,1447259900924,1447259901383,380,494,0,0,0,1,3,2,4,0005-00-0001-15.png,0002-00-0001-38.png
00000014,923,1,1447259902574,1447259902993,391,482,0,0,0,0,1,1,1,0001-00-0001-90.png,0005-00-0000-39.png
00000014,924,1,1447259904530,1447259905054,881,509,0,0,0,4,3,1,7,0004-00-0001-35.png,0002-00-0000-56.png
00000014,925,1,1447259906319,1447259906683,374,507,0,0,0,3,4,1,7,0002-00-0000-52.png,0004-00-0001-49.png
00000014,926,1,1447259907911,1447259908433,897,510,0,0,0,2,1,1,3,0003-00-0000-44.png,0005-00-0000-07.png
00000014,927,1,1447259909639,1447259910018,399,493,0,0,0,1,2,1,3,0005-00-0000-67.png,0003-00-0001-47.png
00000014,928,1,1447259911242,1447259911743,905,450,0,0,0,1,0,1,1,0005-00-0000-79.png,0001-00-0000-14.png
00000014,929,1,1447259912852,1447259913322,399,488,0,0,0,0,4,4,4,0001-00-0001-23.png,0004-00-0001-64.png
00000014,930,0,1447259914630,1447259915092,427,449,0,0,0,2,0,2,2,0003-00-0000-89.png,0001-00-0001-89.png
00000014,931,1,1447259919393,1447259919945,930,428,0,0,0,3,0,3,3,0002-00-0000-84.png,0001-00-0000-72.png
00000014,932,1,1447259921646,1447259922038,407,437,0,0,0,0,3,3,3,0001-00-0001-09.png,0002-00-0000-63.png
00000014,933,0,1447259923324,1447259923853,896,445,0,0,0,2,4,2,6,0003-00-0001-13.png,0004-00-0000-36.png
00000014,934,0,1447259927294,1447259927780,916,451,0,0,0,2,3,1,5,0003-00-0000-02.png,0002-00-0000-95.png
00000014,935,0,1447259930739,1447259931362,376,377,0,0,0,3,1,2,4,0002-00-0000-82.png,0005-00-0001-95.png
00000014,936,1,1447259938771,1447259939197,927,398,0,0,0,4,2,2,6,0004-00-0001-00.png,0003-00-0001-35.png
00000014,937,1,1447259941742,1447259942150,389,445,0,0,0,0,2,2,2,0001-00-0000-49.png,0003-00-0001-00.png
00000014,938,0,1447259943931,1447259944335,367,458,0,0,0,3,2,1,5,0002-00-0001-92.png,0003-00-0000-74.png
00000014,939,0,1447259950674,1447259951149,426,371,0,0,0,4,1,3,5,0004-00-0000-73.png,0005-00-0000-45.png
00000014,940,1,1447259955146,1447259955591,432,451,0,0,0,1,4,3,5,0005-00-0001-43.png,0004-00-0001-69.png
00000014,941,1,1447259957687,1447259958201,871,392,0,0,0,2,0,2,2,0003-00-0001-77.png,0001-00-0000-18.png
00000014,942,1,1447259959609,1447259960337,407,384,0,0,0,1,4,3,5,0005-00-0000-88.png,0004-00-0000-25.png
00000014,943,0,1447259962302,1447259962886,946,388,0,0,0,2,3,1,5,0003-00-0000-82.png,0002-00-0001-56.png
00000014,944,0,1447259966388,1447259966845,888,384,0,0,0,1,3,2,4,0005-00-0000-38.png,0002-00-0000-34.png
00000014,945,1,1447259971694,1447259972673,433,539,0,0,0,3,4,1,7,0002-00-0000-71.png,0004-00-0001-08.png
00000014,946,0,1447259974002,1447259974696,464,488,0,0,0,3,0,3,3,0002-00-0001-51.png,0001-00-0000-86.png
00000014,947,0,1447259979065,1447259979493,409,471,0,0,0,4,1,3,5,0004-00-0000-29.png,0005-00-0001-54.png
00000014,948,1,1447259983450,1447259983944,451,524,0,0,0,0,2,2,2,0001-00-0001-44.png,0003-00-0001-74.png
00000014,949,1,1447259985794,1447259986212,378,450,0,0,0,0,4,4,4,0001-00-0000-98.png,0004-00-0000-76.png
00000014,950,1,1447259987573,1447259988058,900,459,0,0,0,4,3,1,7,0004-00-0001-71.png,0002-00-0000-98.png
00000014,951,1,1447259989320,1447259989860,908,469,0,0,0,4,2,2,6,0004-00-0001-18.png,0003-00-0000-27.png
