subject_id,trial,correct_response,stim_time,response_time,x_coord,y_coord,trial_timeout,timeout_time,interTrial_timeout,left_rank,right_rank,distance,joint_rank,left_image,right_image
00000009,1,1,1448461522250,1448461522782,909,485,0,0,0,1,0,1,1,0005-00-0001-91.png,0001-00-0001-58.png
00000009,2,1,1448461524760,1448461525295,1042,255,0,0,0,3,1,2,4,0002-00-0000-89.png,0005-00-0001-30.png
00000009,3,0,1448461526756,1448461527627,954,329,0,0,0,1,2,1,3,0005-00-0000-53.png,0003-00-0000-75.png
00000009,4,1,1448461530801,1448461530829,891,261,0,0,0,4,1,3,5,0004-00-0001-41.png,0005-00-0000-12.png
00000009,5,1,1448461532154,1448461533047,421,254,0,0,0,2,4,2,6,0003-00-0001-75.png,0004-00-0000-27.png
00000009,6,1,1448461534311,1448461535026,333,309,0,0,0,0,3,3,3,0001-00-0001-50.png,0002-00-0000-94.png
00000009,7,1,1448461536695,1448461537220,1031,253,0,0,0,2,1,1,3,0003-00-0000-34.png,0005-00-0000-47.png
00000009,8,1,1448461538490,1448461539066,474,265,0,0,0,0,2,2,2,0001-00-0001-70.png,0003-00-0001-63.png
00000009,9,1,1448461540322,1448461540886,963,355,0,0,0,4,3,1,7,0004-00-0001-74.png,0002-00-0001-33.png
00000009,10,1,1448461542157,1448461543056,935,314,0,0,0,3,2,1,5,0002-00-0000-29.png,0003-00-0001-97.png
00000009,11,1,1448461544309,1448461544950,940,358,0,0,0,2,0,2,2,0003-00-0001-16.png,0001-00-0000-35.png
00000009,12,1,1448461546075,1448461546669,399,365,0,0,0,0,4,4,4,0001-00-0000-72.png,0004-00-0000-90.png
00000009,13,0,1448461547994,1448461548700,962,337,0,0,0,3,4,1,7,0002-00-0000-94.png,0004-00-0001-48.png
00000009,14,1,1448461551806,1448461552343,931,358,0,0,0,4,2,2,6,0004-00-0000-80.png,0003-00-0000-43.png
00000009,15,1,1448461553430,1448461554223,1037,299,0,0,0,4,0,4,4,0004-00-0001-92.png,0001-00-0000-31.png
00000009,16,0,1448461557317,1448461557876,1041,351,0,0,0,2,3,1,5,0003-00-0001-83.png,0002-00-0001-82.png
00000009,17,1,1448461560743,1448461561191,1047,306,0,0,0,3,0,3,3,0002-00-0001-17.png,0001-00-0001-35.png
00000009,18,0,1448461562485,1448461562517,869,385,0,0,0,0,1,1,1,0001-00-0001-93.png,0005-00-0001-28.png
00000009,19,1,1448461565703,1448461566306,411,415,0,0,0,1,4,3,5,0005-00-0001-98.png,0004-00-0000-26.png
00000009,20,0,1448461567896,1448461568117,890,485,0,0,0,1,3,2,4,0005-00-0001-59.png,0002-00-0001-80.png
00000009,21,1,1448461571260,1448461571761,959,336,0,0,0,4,1,3,5,0004-00-0001-78.png,0005-00-0000-47.png
00000009,22,1,1448461572907,1448461573915,952,359,0,0,0,4,2,2,6,0004-00-0000-35.png,0003-00-0001-91.png
00000009,23,1,1448461575242,1448461575801,949,356,0,0,0,4,0,4,4,0004-00-0000-61.png,0001-00-0001-49.png
00000009,24,0,1448461577202,1448461577762,1042,277,0,0,0,3,4,1,7,0002-00-0000-12.png,0004-00-0000-59.png
00000009,25,1,1448461580708,1448461581262,940,333,0,0,0,1,0,1,1,0005-00-0001-71.png,0001-00-0000-25.png
00000009,26,1,1448461582420,1448461583228,941,338,0,0,0,3,0,3,3,0002-00-0001-56.png,0001-00-0001-07.png
00000009,27,1,1448461584486,1448461585909,943,347,0,0,0,3,2,1,5,0002-00-0001-02.png,0003-00-0000-91.png
00000009,28,1,1448461587131,1448461587797,399,344,0,0,0,0,2,2,2,0001-00-0001-63.png,0003-00-0000-48.png
00000009,29,1,1448461589106,1448461589905,393,357,0,0,0,0,1,1,1,0001-00-0000-13.png,0005-00-0000-66.png
00000009,30,1,1448461591124,1448461591749,958,386,0,0,0,3,1,2,4,0002-00-0001-53.png,0005-00-0000-37.png
00000009,31,0,1448461592908,1448461593179,862,541,0,0,0,1,3,2,4,0005-00-0001-18.png,0002-00-0001-25.png
00000009,32,0,1448461596332,1448461596908,1041,279,0,0,0,0,3,3,3,0001-00-0001-83.png,0002-00-0000-41.png
00000009,33,0,1448461599899,1448461600530,964,371,0,0,0,2,3,1,5,0003-00-0001-90.png,0002-00-0000-85.png
00000009,34,1,1448461603366,1448461603985,1042,272,0,0,0,4,3,1,7,0004-00-0000-74.png,0002-00-0001-50.png
00000009,35,0,1448461605008,1448461606058,384,376,0,0,0,2,0,2,2,0003-00-0000-35.png,0001-00-0000-95.png
00000009,36,1,1448461609202,1448461609754,428,339,0,0,0,1,2,1,3,0005-00-0000-67.png,0003-00-0001-23.png
00000009,37,1,1448461610850,1448461611805,479,230,0,0,0,1,4,3,5,0005-00-0000-14.png,0004-00-0000-57.png
00000009,38,1,1448461613004,1448461613822,493,238,0,0,0,0,4,4,4,0001-00-0000-31.png,0004-00-0001-70.png
00000009,39,0,1448461614975,1448461615634,922,355,0,0,0,2,4,2,6,0003-00-0001-24.png,0004-00-0001-35.png
00000009,40,1,1448461619198,1448461619501,990,296,0,0,0,2,1,1,3,0003-00-0001-20.png,0005-00-0001-53.png
00000009,41,1,1448461621097,1448461621710,990,279,0,0,0,3,1,2,4,0002-00-0000-08.png,0005-00-0001-93.png
00000009,42,1,1448461622644,1448461623650,942,333,0,0,0,4,3,1,7,0004-00-0001-69.png,0002-00-0000-62.png
00000009,43,1,1448461624713,1448461625391,486,248,0,0,0,1,3,2,4,0005-00-0000-35.png,0002-00-0000-50.png
00000009,44,1,1448461626424,1448461627443,935,338,0,0,0,4,1,3,5,0004-00-0001-59.png,0005-00-0000-59.png
00000009,45,1,1448461628419,1448461629054,1016,306,0,0,0,3,0,3,3,0002-00-0001-87.png,0001-00-0000-93.png
00000009,46,1,1448461630089,1448461631098,478,244,0,0,0,0,3,3,3,0001-00-0001-83.png,0002-00-0001-26.png
00000009,47,1,1448461632119,1448461632173,879,532,0,0,0,4,0,4,4,0004-00-0000-00.png,0001-00-0001-30.png
00000009,48,1,1448461633737,1448461634385,427,267,0,0,0,1,4,3,5,0005-00-0001-66.png,0004-00-0001-98.png
00000009,49,1,1448461635446,1448461636558,409,263,0,0,0,0,1,1,1,0001-00-0000-77.png,0005-00-0001-19.png
00000009,50,1,1448461637681,1448461638888,468,283,0,0,0,3,4,1,7,0002-00-0000-98.png,0004-00-0001-84.png
00000009,51,1,1448461643286,1448461643901,400,397,0,0,0,1,2,1,3,0005-00-0000-68.png,0003-00-0001-34.png
00000009,52,1,1448461644804,1448461645945,490,283,0,0,0,2,3,1,5,0003-00-0000-88.png,0002-00-0000-89.png
00000009,53,1,1448461646913,1448461647761,1041,271,0,0,0,1,0,1,1,0005-00-0000-76.png,0001-00-0000-77.png
00000009,54,1,1448461648671,1448461649838,395,343,0,0,0,2,4,2,6,0003-00-0001-84.png,0004-00-0001-32.png
00000009,55,1,1448461650819,1448461651697,419,364,0,0,0,0,4,4,4,0001-00-0000-30.png,0004-00-0000-82.png
00000009,56,1,1448461652657,1448461653407,1041,279,0,0,0,2,0,2,2,0003-00-0001-30.png,0001-00-0000-66.png
00000009,57,1,1448461654307,1448461655116,1021,277,0,0,0,2,1,1,3,0003-00-0000-15.png,0005-00-0001-78.png
00000009,58,1,1448461656145,1448461656718,473,238,0,0,0,0,2,2,2,0001-00-0000-25.png,0003-00-0001-39.png
00000009,59,1,1448461657892,1448461657990,867,528,0,0,0,4,2,2,6,0004-00-0001-35.png,0003-00-0001-08.png
00000009,60,1,1448461659115,1448461659764,942,284,0,0,0,3,2,1,5,0002-00-0000-79.png,0003-00-0000-28.png
00000009,61,1,1448461660805,1448461661649,929,325,0,0,0,3,0,3,3,0002-00-0000-07.png,0001-00-0001-56.png
00000009,62,1,1448461662592,1448461663534,958,334,0,0,0,4,2,2,6,0004-00-0001-51.png,0003-00-0000-92.png
00000009,63,1,1448461664490,1448461664568,874,460,0,0,0,2,0,2,2,0003-00-0001-84.png,0001-00-0001-03.png
00000009,64,1,1448461665680,1448461667073,938,318,0,0,0,4,3,1,7,0004-00-0001-87.png,0002-00-0001-89.png
00000009,65,0,1448461667999,1448461668731,469,234,0,0,0,3,2,1,5,0002-00-0001-68.png,0003-00-0000-90.png
00000009,66,1,1448461671904,1448461672374,961,303,0,0,0,2,1,1,3,0003-00-0001-99.png,0005-00-0001-11.png
00000009,67,0,1448461673256,1448461674092,930,302,0,0,0,0,2,2,2,0001-00-0000-65.png,0003-00-0001-89.png
00000009,68,0,1448461677112,1448461677128,865,360,0,0,0,0,3,3,3,0001-00-0000-04.png,0002-00-0001-41.png
00000009,69,0,1448461680124,1448461680160,951,359,0,0,0,2,3,1,5,0003-00-0001-43.png,0002-00-0000-64.png
00000009,70,1,1448461683063,1448461683677,410,352,0,0,0,1,4,3,5,0005-00-0001-77.png,0004-00-0000-05.png
00000009,71,1,1448461684588,1448461685479,945,320,0,0,0,1,0,1,1,0005-00-0001-10.png,0001-00-0000-07.png
00000009,72,1,1448461686425,1448461687181,913,344,0,0,0,4,0,4,4,0004-00-0000-48.png,0001-00-0001-86.png
00000009,73,0,1448461688174,1448461688972,478,263,0,0,0,3,1,2,4,0002-00-0000-87.png,0005-00-0001-08.png
00000009,74,1,1448461692467,1448461693111,473,284,0,0,0,0,4,4,4,0001-00-0000-00.png,0004-00-0000-67.png
00000009,75,0,1448461694000,1448461694733,921,326,0,0,0,0,1,1,1,0001-00-0001-28.png,0005-00-0001-45.png
00000009,76,1,1448461698063,1448461698645,460,269,0,0,0,3,4,1,7,0002-00-0001-38.png,0004-00-0001-33.png
00000009,77,1,1448461699603,1448461700611,479,242,0,0,0,1,3,2,4,0005-00-0000-55.png,0002-00-0001-38.png
00000009,78,0,1448461701548,1448461702341,1004,312,0,0,0,2,4,2,6,0003-00-0001-85.png,0004-00-0000-56.png
00000009,79,1,1448461705713,1448461706306,1050,298,0,0,0,4,1,3,5,0004-00-0001-52.png,0005-00-0000-46.png
00000009,80,1,1448461707256,1448461708010,497,236,0,0,0,1,2,1,3,0005-00-0001-48.png,0003-00-0000-38.png
00000009,81,1,1448461709023,1448461709747,427,395,0,0,0,0,3,3,3,0001-00-0000-61.png,0002-00-0001-57.png
00000009,82,1,1448461710620,1448461711331,990,264,0,0,0,2,1,1,3,0003-00-0000-32.png,0005-00-0001-44.png
00000009,83,1,1448461712362,1448461712438,858,464,0,0,0,1,0,1,1,0005-00-0000-86.png,0001-00-0000-08.png
00000009,84,1,1448461713435,1448461714148,504,235,0,0,0,1,2,1,3,0005-00-0000-87.png,0003-00-0000-09.png
00000009,85,1,1448461715144,1448461715949,476,453,0,0,0,0,1,1,1,0001-00-0000-03.png,0005-00-0001-81.png
00000009,86,1,1448461717082,1448461718203,964,332,0,0,0,3,2,1,5,0002-00-0001-93.png,0003-00-0001-63.png
00000009,87,0,1448461719278,1448461720275,956,332,0,0,0,2,3,1,5,0003-00-0000-08.png,0002-00-0001-29.png
00000009,88,0,1448461723650,1448461724211,1041,265,0,0,0,0,2,2,2,0001-00-0000-67.png,0003-00-0001-61.png
00000009,89,1,1448461727153,1448461727696,935,336,0,0,0,3,0,3,3,0002-00-0000-93.png,0001-00-0000-89.png
00000009,90,1,1448461728588,1448461729360,957,317,0,0,0,3,1,2,4,0002-00-0000-27.png,0005-00-0000-20.png
00000009,91,1,1448461730378,1448461731416,943,330,0,0,0,4,3,1,7,0004-00-0000-83.png,0002-00-0000-17.png
00000009,92,1,1448461732484,1448461733183,389,344,0,0,0,1,4,3,5,0005-00-0000-87.png,0004-00-0001-17.png
00000009,93,1,1448461734073,1448461735175,475,288,0,0,0,3,4,1,7,0002-00-0001-52.png,0004-00-0001-76.png
00000009,94,1,1448461736161,1448461736944,952,430,0,0,0,2,0,2,2,0003-00-0001-57.png,0001-00-0000-74.png
00000009,95,1,1448461737988,1448461738684,498,245,0,0,0,0,4,4,4,0001-00-0000-03.png,0004-00-0001-25.png
00000009,96,1,1448461739818,1448461740599,1030,296,0,0,0,4,1,3,5,0004-00-0000-07.png,0005-00-0000-96.png
00000009,97,1,1448461741587,1448461742613,1067,279,0,0,0,4,0,4,4,0004-00-0001-13.png,0001-00-0000-86.png
00000009,98,0,1448461743702,1448461743891,915,517,0,0,0,1,3,2,4,0005-00-0000-72.png,0002-00-0000-56.png
00000009,99,0,1448461747062,1448461747726,463,286,0,0,0,4,2,2,6,0004-00-0000-58.png,0003-00-0000-22.png
00000009,100,1,1448461750631,1448461751385,474,281,0,0,0,2,4,2,6,0003-00-0000-75.png,0004-00-0000-23.png
00000009,101,1,1448461752321,1448461753288,467,226,0,0,0,2,4,2,6,0003-00-0000-65.png,0004-00-0000-79.png
00000009,102,1,1448461754297,1448461755105,493,281,0,0,0,0,4,4,4,0001-00-0000-93.png,0004-00-0000-83.png
00000009,103,1,1448461756086,1448461756208,875,488,0,0,0,4,0,4,4,0004-00-0001-22.png,0001-00-0001-61.png
00000009,104,0,1448461757377,1448461758131,488,261,0,0,0,3,2,1,5,0002-00-0001-89.png,0003-00-0000-60.png
00000009,105,1,1448461761284,1448461761308,870,324,0,0,0,4,1,3,5,0004-00-0001-29.png,0005-00-0001-72.png
00000009,106,1,1448461762267,1448461763268,1045,309,0,0,0,4,3,1,7,0004-00-0000-19.png,0002-00-0001-25.png
00000009,107,1,1448461764286,1448461765263,391,375,0,0,0,1,4,3,5,0005-00-0000-71.png,0004-00-0000-19.png
00000009,108,0,1448461766243,1448461767261,924,313,0,0,0,0,2,2,2,0001-00-0001-18.png,0003-00-0001-04.png
00000009,109,1,1448461770116,1448461770853,911,302,0,0,0,4,2,2,6,0004-00-0000-38.png,0003-00-0000-88.png
00000009,110,1,1448461771736,1448461772504,512,248,0,0,0,2,3,1,5,0003-00-0000-92.png,0002-00-0001-17.png
00000009,111,1,1448461773497,1448461774200,1041,288,0,0,0,2,0,2,2,0003-00-0001-74.png,0001-00-0001-62.png
00000009,112,0,1448461775173,1448461776227,939,427,0,0,0,1,3,2,4,0005-00-0001-22.png,0002-00-0001-08.png
00000009,113,1,1448461779410,1448461780001,1067,288,0,0,0,1,0,1,1,0005-00-0001-03.png,0001-00-0001-77.png
00000009,114,1,1448461780960,1448461781650,929,403,0,0,0,3,0,3,3,0002-00-0001-74.png,0001-00-0000-25.png
00000009,115,1,1448461782719,1448461782795,888,373,0,0,0,2,1,1,3,0003-00-0001-08.png,0005-00-0001-65.png
00000009,116,1,1448461783872,1448461784742,416,314,0,0,0,3,4,1,7,0002-00-0000-52.png,0004-00-0001-53.png
00000009,117,1,1448461785879,1448461786584,922,301,0,0,0,3,1,2,4,0002-00-0000-57.png,0005-00-0001-58.png
00000009,118,1,1448461787867,1448461788683,514,245,0,0,0,0,3,3,3,0001-00-0000-52.png,0002-00-0000-39.png
00000009,119,1,1448461789714,1448461790673,497,246,0,0,0,1,2,1,3,0005-00-0000-22.png,0003-00-0000-58.png
00000009,120,0,1448461791813,1448461792554,899,329,0,0,0,0,1,1,1,0001-00-0000-48.png,0005-00-0000-60.png
00000009,121,1,1448461795734,1448461795754,862,346,0,0,0,4,2,2,6,0004-00-0000-36.png,0003-00-0001-38.png
00000009,122,1,1448461796792,1448461797915,497,314,0,0,0,3,4,1,7,0002-00-0000-89.png,0004-00-0000-64.png
00000009,123,1,1448461798858,1448461799652,504,263,0,0,0,0,3,3,3,0001-00-0000-14.png,0002-00-0000-73.png
00000009,124,0,1448461800715,1448461801647,1041,290,0,0,0,0,2,2,2,0001-00-0000-38.png,0003-00-0000-09.png
00000009,125,0,1448461804740,1448461804973,892,381,0,0,0,1,3,2,4,0005-00-0000-08.png,0002-00-0000-66.png
00000009,126,1,1448461807824,1448461808274,464,259,0,0,0,0,4,4,4,0001-00-0000-72.png,0004-00-0000-74.png
00000009,127,0,1448461809160,1448461810267,1029,304,0,0,0,2,3,1,5,0003-00-0001-24.png,0002-00-0000-72.png
00000009,128,1,1448461813515,1448461814050,1056,279,0,0,0,2,0,2,2,0003-00-0001-75.png,0001-00-0000-61.png
00000009,129,1,1448461814942,1448461816499,427,375,0,0,0,0,1,1,1,0001-00-0000-11.png,0005-00-0000-99.png
00000009,130,1,1448461817420,1448461818327,1016,279,0,0,0,3,1,2,4,0002-00-0000-11.png,0005-00-0000-32.png
00000009,131,1,1448461819509,1448461821017,478,253,0,0,0,2,4,2,6,0003-00-0001-46.png,0004-00-0000-53.png
00000009,132,1,1448461822090,1448461823151,1050,253,0,0,0,4,3,1,7,0004-00-0001-62.png,0002-00-0001-86.png
00000009,133,0,1448461824148,1448461824192,863,446,0,0,0,1,2,1,3,0005-00-0000-15.png,0003-00-0000-15.png
00000009,134,1,1448461827119,1448461827829,913,332,0,0,0,3,0,3,3,0002-00-0000-43.png,0001-00-0000-49.png
00000009,135,1,1448461828689,1448461829502,949,400,0,0,0,4,0,4,4,0004-00-0001-07.png,0001-00-0001-77.png
00000009,136,1,1448461830490,1448461830667,862,474,0,0,0,1,0,1,1,0005-00-0001-87.png,0001-00-0001-92.png
00000009,137,1,1448461831840,1448461832823,937,400,0,0,0,4,1,3,5,0004-00-0000-11.png,0005-00-0001-06.png
00000009,138,1,1448461833819,1448461834647,933,330,0,0,0,3,2,1,5,0002-00-0000-27.png,0003-00-0000-95.png
00000009,139,1,1448461835627,1448461835671,864,436,0,0,0,2,1,1,3,0003-00-0000-47.png,0005-00-0001-85.png
00000009,140,0,1448461836840,1448461836943,871,487,0,0,0,1,4,3,5,0005-00-0000-03.png,0004-00-0001-16.png
00000009,141,1,1448461840178,1448461840803,1038,291,0,0,0,4,2,2,6,0004-00-0000-54.png,0003-00-0000-17.png
00000009,142,1,1448461841767,1448461842831,489,280,0,0,0,2,4,2,6,0003-00-0000-83.png,0004-00-0001-18.png
00000009,143,1,1448461843824,1448461844568,935,316,0,0,0,2,0,2,2,0003-00-0001-49.png,0001-00-0000-38.png
00000009,144,1,1448461845533,1448461846407,1041,296,0,0,0,4,1,3,5,0004-00-0000-03.png,0005-00-0000-08.png
00000009,145,1,1448461847562,1448461847606,877,425,0,0,0,4,3,1,7,0004-00-0000-22.png,0002-00-0001-25.png
00000009,146,0,1448461848853,1448461848917,862,403,0,0,0,1,2,1,3,0005-00-0000-29.png,0003-00-0000-04.png
00000009,147,1,1448461851891,1448461852553,1041,296,0,0,0,3,2,1,5,0002-00-0000-37.png,0003-00-0001-67.png
00000009,148,0,1448461853454,1448461854610,954,327,0,0,0,0,3,3,3,0001-00-0001-80.png,0002-00-0000-95.png
00000009,149,1,1448461857743,1448461858342,939,344,0,0,0,2,1,1,3,0003-00-0001-09.png,0005-00-0000-75.png
00000009,150,1,1448461859249,1448461860018,498,237,0,0,0,0,2,2,2,0001-00-0001-80.png,0003-00-0000-57.png
00000009,151,1,1448461861015,1448461861843,964,332,0,0,0,3,0,3,3,0002-00-0001-78.png,0001-00-0000-90.png
00000009,152,1,1448461862786,1448461863697,932,315,0,0,0,3,1,2,4,0002-00-0001-17.png,0005-00-0001-70.png
00000009,153,1,1448461865008,1448461865697,504,237,0,0,0,1,4,3,5,0005-00-0001-10.png,0004-00-0000-00.png
00000009,154,1,1448461866661,1448461867441,497,254,0,0,0,0,4,4,4,0001-00-0001-84.png,0004-00-0000-69.png
00000009,155,1,1448461868499,1448461868507,857,408,0,0,0,4,0,4,4,0004-00-0000-97.png,0001-00-0001-93.png
00000009,156,0,1448461869661,1448461870605,485,258,0,0,0,1,0,1,1,0005-00-0001-28.png,0001-00-0000-53.png
00000009,157,0,1448461873637,1448461873681,892,354,0,0,0,3,4,1,7,0002-00-0001-96.png,0004-00-0001-49.png
00000009,158,0,1448461876807,1448461877358,1041,279,0,0,0,2,3,1,5,0003-00-0001-92.png,0002-00-0000-91.png
00000009,159,0,1448461880475,1448461880491,893,381,0,0,0,1,3,2,4,0005-00-0001-16.png,0002-00-0001-18.png
00000009,160,1,1448461883534,1448461884019,507,279,0,0,0,0,1,1,1,0001-00-0001-63.png,0005-00-0001-56.png
00000009,161,1,1448461884926,1448461885726,1029,269,0,0,0,3,2,1,5,0002-00-0001-44.png,0003-00-0001-95.png
00000009,162,1,1448461886694,1448461887378,514,247,0,0,0,2,4,2,6,0003-00-0001-36.png,0004-00-0000-74.png
00000009,163,1,1448461888473,1448461889297,488,245,0,0,0,1,4,3,5,0005-00-0000-52.png,0004-00-0001-37.png
00000009,164,1,1448461890293,1448461891662,951,342,0,0,0,3,0,3,3,0002-00-0000-10.png,0001-00-0000-67.png
00000009,165,0,1448461892747,1448461893810,946,430,0,0,0,2,3,1,5,0003-00-0000-44.png,0002-00-0001-30.png
00000009,166,1,1448461897246,1448461897855,417,354,0,0,0,0,1,1,1,0001-00-0001-23.png,0005-00-0000-30.png
00000009,167,1,1448461898769,1448461900020,477,268,0,0,0,3,4,1,7,0002-00-0001-72.png,0004-00-0001-53.png
00000009,168,1,1448461901016,1448461901732,494,252,0,0,0,0,2,2,2,0001-00-0001-76.png,0003-00-0000-78.png
00000009,169,1,1448461902773,1448461903737,1067,239,0,0,0,4,1,3,5,0004-00-0000-82.png,0005-00-0001-07.png
00000009,170,1,1448461904760,1448461905947,998,336,0,0,0,4,2,2,6,0004-00-0001-50.png,0003-00-0000-02.png
00000009,171,1,1448461907025,1448461907797,970,332,0,0,0,3,1,2,4,0002-00-0000-77.png,0005-00-0001-48.png
00000009,172,1,1448461908964,1448461909685,504,297,0,0,0,1,3,2,4,0005-00-0001-34.png,0002-00-0000-56.png
00000009,173,1,1448461911051,1448461912803,452,333,0,0,0,0,3,3,3,0001-00-0001-60.png,0002-00-0001-89.png
00000009,174,1,1448461913854,1448461914503,1016,279,0,0,0,1,0,1,1,0005-00-0001-95.png,0001-00-0001-09.png
00000009,175,1,1448461915662,1448461916892,1048,319,0,0,0,4,0,4,4,0004-00-0000-38.png,0001-00-0000-98.png
00000009,176,0,1448461917939,1448461918665,399,359,0,0,0,4,3,1,7,0004-00-0001-20.png,0002-00-0000-96.png
00000009,177,1,1448461921833,1448461921857,903,306,0,0,0,2,0,2,2,0003-00-0001-99.png,0001-00-0001-35.png
00000009,178,1,1448461922866,1448461923490,915,391,0,0,0,2,1,1,3,0003-00-0001-71.png,0005-00-0001-60.png
00000009,179,1,1448461924607,1448461925329,411,370,0,0,0,1,2,1,3,0005-00-0001-86.png,0003-00-0000-70.png
00000009,180,0,1448461926454,1448461926542,872,514,0,0,0,0,4,4,4,0001-00-0000-08.png,0004-00-0000-50.png
00000009,181,1,1448461929534,1448461930082,523,286,0,0,0,0,4,4,4,0001-00-0001-27.png,0004-00-0000-28.png
00000009,182,1,1448461931579,1448461932101,494,263,0,0,0,0,3,3,3,0001-00-0000-30.png,0002-00-0000-56.png
00000009,183,1,1448461933032,1448461933717,921,310,0,0,0,3,1,2,4,0002-00-0000-79.png,0005-00-0001-45.png
00000009,184,1,1448461934661,1448461936094,401,401,0,0,0,1,2,1,3,0005-00-0001-56.png,0003-00-0000-16.png
00000009,185,0,1448461937077,1448461938288,504,239,0,0,0,3,0,3,3,0002-00-0001-37.png,0001-00-0001-78.png
00000009,186,1,1448461941388,1448461941436,910,331,0,0,0,3,2,1,5,0002-00-0000-90.png,0003-00-0000-98.png
00000009,187,1,1448461942424,1448461943128,1030,328,0,0,0,2,1,1,3,0003-00-0000-72.png,0005-00-0000-08.png
00000009,188,0,1448461944162,1448461944198,879,348,0,0,0,1,4,3,5,0005-00-0001-03.png,0004-00-0001-40.png
00000009,189,1,1448461947328,1448461947867,939,342,0,0,0,4,2,2,6,0004-00-0001-52.png,0003-00-0000-42.png
00000009,190,1,1448461948773,1448461949438,463,433,0,0,0,3,4,1,7,0002-00-0001-50.png,0004-00-0001-50.png
00000009,191,1,1448461950362,1448461951463,1016,332,0,0,0,4,0,4,4,0004-00-0000-28.png,0001-00-0001-99.png
00000009,192,1,1448461952519,1448461952523,864,381,0,0,0,4,1,3,5,0004-00-0000-99.png,0005-00-0000-89.png
00000009,193,1,1448461953682,1448461953718,878,377,0,0,0,4,3,1,7,0004-00-0001-04.png,0002-00-0001-49.png
00000009,194,0,1448461954905,1448461955587,503,221,0,0,0,1,0,1,1,0005-00-0001-17.png,0001-00-0001-76.png
00000009,195,1,1448461958490,1448461959006,939,420,0,0,0,2,0,2,2,0003-00-0000-98.png,0001-00-0000-57.png
00000009,196,1,1448461959921,1448461961976,452,251,0,0,0,2,4,2,6,0003-00-0000-25.png,0004-00-0000-27.png
00000009,197,1,1448461963024,1448461963813,491,253,0,0,0,1,3,2,4,0005-00-0000-92.png,0002-00-0001-05.png
00000009,198,1,1448461964790,1448461965883,478,256,0,0,0,2,3,1,5,0003-00-0000-70.png,0002-00-0000-21.png
00000009,199,1,1448461966859,1448461967523,485,219,0,0,0,0,2,2,2,0001-00-0001-85.png,0003-00-0000-55.png
00000009,200,1,1448461968559,1448461969266,494,260,0,0,0,0,1,1,1,0001-00-0001-58.png,0005-00-0000-12.png
00000009,201,1,1448461970237,1448461970971,481,293,0,0,0,1,2,1,3,0005-00-0000-46.png,0003-00-0001-00.png
00000009,202,0,1448461971917,1448461972694,924,302,0,0,0,0,1,1,1,0001-00-0001-87.png,0005-00-0001-07.png
00000009,203,0,1448461975833,1448461975869,876,332,0,0,0,1,3,2,4,0005-00-0001-73.png,0002-00-0001-46.png
00000009,204,0,1448461979031,1448461979047,906,327,0,0,0,0,2,2,2,0001-00-0000-30.png,0003-00-0001-91.png
00000009,205,1,1448461982172,1448461982192,881,360,0,0,0,2,0,2,2,0003-00-0000-19.png,0001-00-0001-46.png
00000009,206,1,1448461983179,1448461984061,917,314,0,0,0,4,2,2,6,0004-00-0001-81.png,0003-00-0000-04.png
00000009,207,1,1448461985045,1448461985793,1039,288,0,0,0,2,1,1,3,0003-00-0001-41.png,0005-00-0000-00.png
00000009,208,0,1448461986826,1448461987910,481,252,0,0,0,4,3,1,7,0004-00-0000-84.png,0002-00-0000-09.png
00000009,209,1,1448461991245,1448461991261,946,305,0,0,0,4,1,3,5,0004-00-0001-26.png,0005-00-0000-72.png
00000009,210,1,1448461992260,1448461993348,472,275,0,0,0,3,4,1,7,0002-00-0000-30.png,0004-00-0001-29.png
00000009,211,1,1448461994325,1448461995231,893,323,0,0,0,4,0,4,4,0004-00-0001-75.png,0001-00-0001-52.png
00000009,212,1,1448461996134,1448461996797,424,404,0,0,0,0,3,3,3,0001-00-0001-55.png,0002-00-0001-22.png
00000009,213,0,1448461997863,1448461998833,1143,401,0,0,0,2,3,1,5,0003-00-0001-31.png,0002-00-0000-01.png
00000009,214,1,1448462001978,1448462002543,503,268,0,0,0,1,4,3,5,0005-00-0001-95.png,0004-00-0001-09.png
00000009,215,0,1448462003469,1448462004424,400,348,0,0,0,3,2,1,5,0002-00-0000-65.png,0003-00-0000-12.png
00000009,216,1,1448462007489,1448462008139,488,274,0,0,0,2,4,2,6,0003-00-0000-28.png,0004-00-0001-14.png
00000009,217,1,1448462009086,1448462009967,917,338,0,0,0,3,0,3,3,0002-00-0001-80.png,0001-00-0000-84.png
00000009,218,1,1448462010952,1448462011841,1041,292,0,0,0,1,0,1,1,0005-00-0000-44.png,0001-00-0000-93.png
00000009,219,1,1448462012730,1448462012876,913,528,0,0,0,3,1,2,4,0002-00-0001-45.png,0005-00-0001-79.png
00000009,220,1,1448462014112,1448462014857,506,266,0,0,0,0,4,4,4,0001-00-0000-10.png,0004-00-0000-82.png
00000009,221,1,1448462015899,1448462016852,1122,388,0,0,0,4,1,3,5,0004-00-0000-52.png,0005-00-0000-52.png
00000009,222,1,1448462017976,1448462018879,464,370,0,0,0,0,2,2,2,0001-00-0000-56.png,0003-00-0001-47.png
00000009,223,0,1448462019994,1448462021429,453,263,0,0,0,3,0,3,3,0002-00-0000-75.png,0001-00-0001-51.png
00000009,224,1,1448462024368,1448462024887,1029,288,0,0,0,4,0,4,4,0004-00-0000-36.png,0001-00-0001-76.png
00000009,225,0,1448462025801,1448462026792,971,347,0,0,0,0,4,4,4,0001-00-0001-78.png,0004-00-0000-63.png
00000009,226,1,1448462029782,1448462030340,1041,306,0,0,0,3,2,1,5,0002-00-0000-56.png,0003-00-0001-61.png
00000009,227,1,1448462031239,1448462031878,491,240,0,0,0,1,4,3,5,0005-00-0000-54.png,0004-00-0001-91.png
00000009,228,1,1448462032892,1448462033990,1054,319,0,0,0,2,1,1,3,0003-00-0001-74.png,0005-00-0001-35.png
00000009,229,0,1448462034999,1448462035764,934,283,0,0,0,2,3,1,5,0003-00-0000-23.png,0002-00-0000-67.png
00000009,230,0,1448462038784,1448462038879,890,313,0,0,0,0,1,1,1,0001-00-0000-05.png,0005-00-0000-56.png
00000009,231,1,1448462041973,1448462042453,963,313,0,0,0,3,1,2,4,0002-00-0001-92.png,0005-00-0000-58.png
00000009,232,1,1448462043396,1448462044421,955,313,0,0,0,4,2,2,6,0004-00-0001-23.png,0003-00-0000-39.png
00000009,233,1,1448462045543,1448462046601,939,310,0,0,0,4,3,1,7,0004-00-0000-70.png,0002-00-0001-82.png
00000009,234,1,1448462047659,1448462048708,418,410,0,0,0,1,2,1,3,0005-00-0001-35.png,0003-00-0000-15.png
00000009,235,1,1448462049694,1448462050360,939,322,0,0,0,2,0,2,2,0003-00-0000-00.png,0001-00-0000-68.png
00000009,236,1,1448462051533,1448462052216,497,262,0,0,0,3,4,1,7,0002-00-0001-80.png,0004-00-0001-54.png
00000009,237,0,1448462053143,1448462054206,440,341,0,0,0,1,0,1,1,0005-00-0001-46.png,0001-00-0001-35.png
00000009,238,1,1448462057367,1448462057907,480,304,0,0,0,1,3,2,4,0005-00-0000-98.png,0002-00-0001-62.png
00000009,239,1,1448462058878,1448462059589,498,237,0,0,0,0,3,3,3,0001-00-0000-93.png,0002-00-0001-78.png
00000009,240,1,1448462060595,1448462061983,417,376,0,0,0,2,4,2,6,0003-00-0000-13.png,0004-00-0000-26.png
00000009,241,0,1448462063575,1448462063591,862,316,0,0,0,1,2,1,3,0005-00-0001-86.png,0003-00-0001-68.png
00000009,242,0,1448462066518,1448462066542,882,405,0,0,0,3,4,1,7,0002-00-0000-36.png,0004-00-0000-40.png
00000009,243,0,1448462069459,1448462069483,904,380,0,0,0,0,4,4,4,0001-00-0000-01.png,0004-00-0000-94.png
00000009,244,0,1448462072510,1448462072558,946,353,0,0,0,0,2,2,2,0001-00-0001-19.png,0003-00-0000-50.png
00000009,245,1,1448462075650,1448462076584,376,345,0,0,0,0,3,3,3,0001-00-0001-70.png,0002-00-0000-65.png
00000009,246,1,1448462077590,1448462078310,478,265,0,0,0,1,4,3,5,0005-00-0001-22.png,0004-00-0001-23.png
00000009,247,0,1448462079307,1448462080174,494,241,0,0,0,1,0,1,1,0005-00-0000-45.png,0001-00-0000-25.png
00000009,248,1,1448462083264,1448462084198,476,281,0,0,0,1,3,2,4,0005-00-0001-22.png,0002-00-0001-37.png
00000009,249,1,1448462085190,1448462086131,1047,287,0,0,0,3,2,1,5,0002-00-0001-21.png,0003-00-0001-87.png
00000009,250,1,1448462087148,1448462087951,930,343,0,0,0,2,1,1,3,0003-00-0001-88.png,0005-00-0001-78.png
00000009,251,1,1448462088935,1448462089101,887,553,0,0,0,2,0,2,2,0003-00-0001-82.png,0001-00-0001-92.png
00000009,252,1,1448462090277,1448462091300,1006,306,0,0,0,4,0,4,4,0004-00-0001-67.png,0001-00-0000-60.png
00000009,253,0,1448462092365,1448462093564,478,266,0,0,0,4,2,2,6,0004-00-0001-89.png,0003-00-0001-65.png
00000009,254,1,1448462098434,1448462098486,878,365,0,0,0,3,1,2,4,0002-00-0001-12.png,0005-00-0000-35.png
00000009,255,1,1448462099489,1448462100389,1013,262,0,0,0,3,0,3,3,0002-00-0000-53.png,0001-00-0001-95.png
00000009,256,1,1448462101337,1448462102263,947,306,0,0,0,4,3,1,7,0004-00-0000-11.png,0002-00-0000-25.png
00000009,257,0,1448462103186,1448462104203,1041,290,0,0,0,0,1,1,1,0001-00-0001-79.png,0005-00-0000-64.png
00000009,258,0,1448462110778,1448462110814,877,332,0,0,0,2,3,1,5,0003-00-0000-65.png,0002-00-0000-06.png
00000009,259,1,1448462113700,1448462114308,1028,322,0,0,0,4,1,3,5,0004-00-0000-99.png,0005-00-0001-77.png
00000009,260,1,1448462115249,1448462116164,508,255,0,0,0,2,4,2,6,0003-00-0001-77.png,0004-00-0000-82.png
00000009,261,1,1448462117195,1448462118145,461,245,0,0,0,0,4,4,4,0001-00-0001-24.png,0004-00-0000-83.png
00000009,262,0,1448462119916,1448462120383,500,245,0,0,0,4,3,1,7,0004-00-0000-79.png,0002-00-0000-53.png
00000009,263,1,1448462123548,1448462124238,393,351,0,0,0,3,4,1,7,0002-00-0001-50.png,0004-00-0000-94.png
00000009,264,1,1448462126448,1448462127269,504,253,0,0,0,1,3,2,4,0005-00-0000-94.png,0002-00-0000-47.png
00000009,265,0,1448462128338,1448462129179,490,226,0,0,0,1,0,1,1,0005-00-0000-58.png,0001-00-0001-19.png
00000009,266,1,1448462132274,1448462132808,477,291,0,0,0,0,1,1,1,0001-00-0000-72.png,0005-00-0001-16.png
00000009,267,1,1448462133784,1448462134660,1122,339,0,0,0,3,0,3,3,0002-00-0001-51.png,0001-00-0001-16.png
00000009,268,1,1448462135652,1448462136419,484,268,0,0,0,0,3,3,3,0001-00-0000-71.png,0002-00-0001-82.png
00000009,269,1,1448462138164,1448462138736,509,288,0,0,0,0,2,2,2,0001-00-0001-21.png,0003-00-0001-99.png
00000009,270,1,1448462139844,1448462140825,497,262,0,0,0,1,4,3,5,0005-00-0000-78.png,0004-00-0001-01.png
00000009,271,0,1448462141882,1448462143433,476,289,0,0,0,2,1,1,3,0003-00-0000-09.png,0005-00-0000-02.png
00000009,272,1,1448462146620,1448462147201,1042,327,0,0,0,4,0,4,4,0004-00-0000-75.png,0001-00-0001-25.png
00000009,273,1,1448462148180,1448462149375,513,272,0,0,0,2,4,2,6,0003-00-0001-98.png,0004-00-0001-22.png
00000009,274,1,1448462150437,1448462150461,517,504,0,0,0,2,3,1,5,0003-00-0000-68.png,0002-00-0001-65.png
00000009,275,1,1448462151698,1448462152522,503,277,0,0,0,1,2,1,3,0005-00-0001-98.png,0003-00-0000-10.png
00000009,276,1,1448462153667,1448462154635,909,322,0,0,0,4,2,2,6,0004-00-0000-62.png,0003-00-0001-26.png
00000009,277,1,1448462155714,1448462156886,913,335,0,0,0,3,2,1,5,0002-00-0001-55.png,0003-00-0001-12.png
00000009,278,1,1448462157969,1448462158859,896,332,0,0,0,4,1,3,5,0004-00-0001-34.png,0005-00-0001-90.png
00000009,279,1,1448462159988,1448462161069,921,356,0,0,0,3,1,2,4,0002-00-0000-34.png,0005-00-0001-67.png
00000009,280,1,1448462162082,1448462163068,937,329,0,0,0,2,0,2,2,0003-00-0001-49.png,0001-00-0001-71.png
00000009,281,1,1448462164219,1448462165764,468,241,0,0,0,2,4,2,6,0003-00-0000-17.png,0004-00-0001-15.png
00000009,282,1,1448462166773,1448462167583,933,323,0,0,0,2,0,2,2,0003-00-0001-48.png,0001-00-0000-74.png
00000009,283,1,1448462168652,1448462169685,1033,316,0,0,0,2,1,1,3,0003-00-0001-32.png,0005-00-0000-04.png
00000009,284,1,1448462170686,1448462171798,941,355,0,0,0,4,2,2,6,0004-00-0000-97.png,0003-00-0001-29.png
00000009,285,1,1448462172796,1448462173587,484,257,0,0,0,0,4,4,4,0001-00-0001-16.png,0004-00-0000-10.png
00000009,286,1,1448462175239,1448462176283,511,245,0,0,0,0,2,2,2,0001-00-0001-07.png,0003-00-0001-75.png
00000009,287,1,1448462177287,1448462178268,495,248,0,0,0,1,4,3,5,0005-00-0001-87.png,0004-00-0001-59.png
00000009,288,1,1448462179333,1448462180308,485,287,0,0,0,3,4,1,7,0002-00-0000-76.png,0004-00-0000-09.png
00000009,289,1,1448462181390,1448462182246,491,252,0,0,0,0,1,1,1,0001-00-0000-28.png,0005-00-0000-86.png
00000009,290,0,1448462183379,1448462184403,933,334,0,0,0,1,2,1,3,0005-00-0001-35.png,0003-00-0000-23.png
00000009,291,0,1448462187510,1448462187537,898,302,0,0,0,1,3,2,4,0005-00-0000-80.png,0002-00-0001-89.png
00000009,292,0,1448462190412,1448462191048,507,281,0,0,0,4,3,1,7,0004-00-0001-48.png,0002-00-0000-86.png
00000009,293,1,1448462194180,1448462194204,896,302,0,0,0,4,0,4,4,0004-00-0001-69.png,0001-00-0000-93.png
00000009,294,1,1448462195246,1448462196301,1025,300,0,0,0,3,2,1,5,0002-00-0000-93.png,0003-00-0000-36.png
00000009,295,1,1448462197399,1448462198373,939,319,0,0,0,4,1,3,5,0004-00-0001-46.png,0005-00-0000-19.png
00000009,296,0,1448462199416,1448462199490,867,464,0,0,0,0,3,3,3,0001-00-0000-93.png,0002-00-0000-76.png
00000009,297,1,1448462202343,1448462202908,1021,308,0,0,0,3,0,3,3,0002-00-0001-19.png,0001-00-0001-15.png
00000009,298,1,1448462203895,1448462204939,423,337,0,0,0,2,3,1,5,0003-00-0001-40.png,0002-00-0001-89.png
00000009,299,1,1448462205995,1448462207356,934,306,0,0,0,3,1,2,4,0002-00-0001-46.png,0005-00-0000-76.png
00000009,300,1,1448462208415,1448462209591,940,328,0,0,0,1,0,1,1,0005-00-0000-69.png,0001-00-0000-97.png
00000009,301,1,1448462210574,1448462211549,927,376,0,0,0,4,0,4,4,0004-00-0000-21.png,0001-00-0000-35.png
00000009,302,1,1448462212619,1448462213535,501,269,0,0,0,0,4,4,4,0001-00-0000-47.png,0004-00-0000-51.png
00000009,303,1,1448462214578,1448462215855,925,355,0,0,0,4,3,1,7,0004-00-0000-58.png,0002-00-0000-38.png
00000009,304,1,1448462216895,1448462217710,494,243,0,0,0,2,3,1,5,0003-00-0001-54.png,0002-00-0000-72.png
00000009,305,1,1448462218754,1448462219672,1027,279,0,0,0,3,0,3,3,0002-00-0000-19.png,0001-00-0001-02.png
00000009,306,1,1448462220642,1448462221890,490,259,0,0,0,0,3,3,3,0001-00-0001-17.png,0002-00-0000-94.png
00000009,307,1,1448462222906,1448462224096,931,335,0,0,0,3,1,2,4,0002-00-0000-27.png,0005-00-0001-57.png
00000009,308,1,1448462225143,1448462226297,930,342,0,0,0,4,2,2,6,0004-00-0000-45.png,0003-00-0001-96.png
00000009,309,1,1448462227360,1448462228435,409,349,0,0,0,1,2,1,3,0005-00-0001-40.png,0003-00-0001-37.png
00000009,310,1,1448462230181,1448462230702,998,286,0,0,0,4,1,3,5,0004-00-0001-35.png,0005-00-0001-24.png
00000009,311,1,1448462231661,1448462232701,1053,279,0,0,0,2,1,1,3,0003-00-0000-75.png,0005-00-0000-14.png
00000009,312,0,1448462233669,1448462233685,889,389,0,0,0,3,4,1,7,0002-00-0000-49.png,0004-00-0001-46.png
00000009,313,1,1448462237108,1448462237670,935,350,0,0,0,2,0,2,2,0003-00-0001-90.png,0001-00-0000-20.png
00000009,314,1,1448462238556,1448462239639,938,321,0,0,0,3,2,1,5,0002-00-0000-48.png,0003-00-0000-58.png
00000009,315,0,1448462240620,1448462241853,1016,302,0,0,0,0,1,1,1,0001-00-0000-89.png,0005-00-0001-55.png
00000009,316,1,1448462244871,1448462245553,505,278,0,0,0,0,2,2,2,0001-00-0001-35.png,0003-00-0000-21.png
00000009,317,1,1448462246426,1448462247328,893,308,0,0,0,1,0,1,1,0005-00-0000-86.png,0001-00-0000-84.png
00000009,318,0,1448462248348,1448462249275,1038,294,0,0,0,1,3,2,4,0005-00-0001-28.png,0002-00-0000-25.png
00000009,319,1,1448462252441,1448462253016,434,345,0,0,0,1,4,3,5,0005-00-0000-96.png,0004-00-0000-55.png
00000009,320,1,1448462253991,1448462255284,484,302,0,0,0,2,4,2,6,0003-00-0000-94.png,0004-00-0001-80.png
00000009,321,1,1448462256344,1448462257524,455,397,0,0,0,2,4,2,6,0003-00-0000-32.png,0004-00-0001-71.png
00000009,322,1,1448462258610,1448462258618,520,540,0,0,0,1,3,2,4,0005-00-0001-31.png,0002-00-0001-22.png
00000009,323,1,1448462259873,1448462261317,387,356,0,0,0,2,3,1,5,0003-00-0000-88.png,0002-00-0001-93.png
00000009,324,1,1448462262330,1448462263506,489,223,0,0,0,3,4,1,7,0002-00-0001-43.png,0004-00-0001-36.png
00000009,325,1,1448462264563,1448462264571,862,447,0,0,0,1,0,1,1,0005-00-0001-04.png,0001-00-0001-01.png
00000009,326,1,1448462265716,1448462266764,915,286,0,0,0,4,2,2,6,0004-00-0001-70.png,0003-00-0001-29.png
00000009,327,1,1448462267864,1448462268857,915,305,0,0,0,4,1,3,5,0004-00-0000-53.png,0005-00-0000-57.png
00000009,328,1,1448462269830,1448462271016,926,344,0,0,0,3,1,2,4,0002-00-0000-77.png,0005-00-0001-03.png
00000009,329,1,1448462272146,1448462272199,863,434,0,0,0,2,1,1,3,0003-00-0001-12.png,0005-00-0000-89.png
00000009,330,1,1448462273645,1448462274475,514,260,0,0,0,0,4,4,4,0001-00-0000-66.png,0004-00-0000-24.png
00000009,331,0,1448462275423,1448462276244,921,310,0,0,0,0,1,1,1,0001-00-0000-74.png,0005-00-0000-26.png
00000009,332,1,1448462279350,1448462279811,422,383,0,0,0,1,4,3,5,0005-00-0001-22.png,0004-00-0001-67.png
00000009,333,1,1448462280752,1448462282219,464,252,0,0,0,0,3,3,3,0001-00-0001-66.png,0002-00-0000-99.png
00000009,334,1,1448462283283,1448462284084,1036,302,0,0,0,3,0,3,3,0002-00-0001-87.png,0001-00-0001-57.png
00000009,335,0,1448462285123,1448462286229,510,261,0,0,0,3,2,1,5,0002-00-0000-87.png,0003-00-0000-13.png
00000009,336,1,1448462289248,1448462289869,1013,309,0,0,0,4,0,4,4,0004-00-0001-87.png,0001-00-0000-17.png
00000009,337,1,1448462290838,1448462291741,1028,325,0,0,0,2,0,2,2,0003-00-0001-41.png,0001-00-0000-31.png
00000009,338,1,1448462292823,1448462294015,1005,306,0,0,0,4,3,1,7,0004-00-0000-53.png,0002-00-0001-15.png
00000009,339,1,1448462295201,1448462296206,403,350,0,0,0,1,2,1,3,0005-00-0001-97.png,0003-00-0000-08.png
00000009,340,1,1448462297286,1448462298243,504,264,0,0,0,0,2,2,2,0001-00-0000-83.png,0003-00-0000-87.png
00000009,341,0,1448462299362,1448462300266,417,346,0,0,0,1,0,1,1,0005-00-0000-20.png,0001-00-0001-47.png
00000009,342,1,1448462303289,1448462304049,1017,308,0,0,0,2,0,2,2,0003-00-0000-64.png,0001-00-0000-95.png
00000009,343,0,1448462305056,1448462305741,913,301,0,0,0,0,1,1,1,0001-00-0000-83.png,0005-00-0001-88.png
00000009,344,1,1448462308832,1448462309511,964,363,0,0,0,4,3,1,7,0004-00-0000-09.png,0002-00-0001-26.png
00000009,345,1,1448462310565,1448462311465,511,245,0,0,0,1,3,2,4,0005-00-0001-27.png,0002-00-0001-88.png
00000009,346,1,1448462312526,1448462313391,512,247,0,0,0,0,3,3,3,0001-00-0001-39.png,0002-00-0000-74.png
00000009,347,1,1448462314397,1448462315535,509,235,0,0,0,0,4,4,4,0001-00-0001-18.png,0004-00-0001-18.png
00000009,348,1,1448462316675,1448462317529,918,326,0,0,0,2,1,1,3,0003-00-0000-58.png,0005-00-0000-21.png
00000009,349,1,1448462318531,1448462319729,505,268,0,0,0,1,4,3,5,0005-00-0000-73.png,0004-00-0001-74.png
00000009,350,1,1448462320807,1448462321662,1155,384,0,0,0,4,0,4,4,0004-00-0000-17.png,0001-00-0000-01.png
00000009,351,1,1448462322733,1448462324306,468,266,0,0,0,0,2,2,2,0001-00-0000-36.png,0003-00-0000-50.png
00000009,352,1,1448462325323,1448462326556,1041,253,0,0,0,4,2,2,6,0004-00-0000-19.png,0003-00-0001-19.png
00000009,353,1,1448462327634,1448462328735,445,297,0,0,0,3,4,1,7,0002-00-0001-38.png,0004-00-0000-83.png
00000009,354,1,1448462329839,1448462330982,990,306,0,0,0,4,1,3,5,0004-00-0000-58.png,0005-00-0000-27.png
00000009,355,1,1448462332025,1448462333368,494,260,0,0,0,2,4,2,6,0003-00-0000-77.png,0004-00-0000-45.png
00000009,356,0,1448462334530,1448462336019,491,248,0,0,0,3,2,1,5,0002-00-0000-78.png,0003-00-0000-03.png
00000009,357,1,1448462339297,1448462339792,1043,283,0,0,0,3,1,2,4,0002-00-0001-16.png,0005-00-0001-55.png
00000009,358,1,1448462340709,1448462341773,512,276,0,0,0,1,2,1,3,0005-00-0000-02.png,0003-00-0001-32.png
00000009,359,1,1448462342816,1448462343918,481,308,0,0,0,2,3,1,5,0003-00-0000-28.png,0002-00-0000-71.png
00000009,360,1,1448462345043,1448462346118,1033,295,0,0,0,3,0,3,3,0002-00-0001-93.png,0001-00-0001-81.png
00000009,361,1,1448462347228,1448462348211,477,273,0,0,0,1,3,2,4,0005-00-0000-12.png,0002-00-0000-62.png
00000009,362,1,1448462349417,1448462350695,520,260,0,0,0,0,2,2,2,0001-00-0001-08.png,0003-00-0001-18.png
00000009,363,1,1448462351797,1448462352971,504,273,0,0,0,0,4,4,4,0001-00-0001-15.png,0004-00-0000-93.png
00000009,364,1,1448462354280,1448462355084,518,266,0,0,0,2,4,2,6,0003-00-0000-31.png,0004-00-0001-46.png
00000009,365,1,1448462356173,1448462357338,1030,310,0,0,0,3,0,3,3,0002-00-0001-88.png,0001-00-0001-66.png
00000009,366,0,1448462358498,1448462359784,494,279,0,0,0,1,0,1,1,0005-00-0001-52.png,0001-00-0000-98.png
00000009,367,1,1448462362939,1448462362967,862,358,0,0,0,2,1,1,3,0003-00-0001-81.png,0005-00-0001-56.png
00000009,368,1,1448462364022,1448462364945,494,289,0,0,0,1,2,1,3,0005-00-0001-48.png,0003-00-0001-43.png
00000009,369,1,1448462366116,1448462367542,937,379,0,0,0,4,3,1,7,0004-00-0001-42.png,0002-00-0001-47.png
00000009,370,1,1448462368611,1448462369733,503,266,0,0,0,1,4,3,5,0005-00-0001-17.png,0004-00-0000-81.png
00000009,371,1,1448462371079,1448462371974,447,391,0,0,0,0,3,3,3,0001-00-0001-48.png,0002-00-0001-02.png
00000009,372,1,1448462373068,1448462373917,1015,343,0,0,0,3,2,1,5,0002-00-0000-63.png,0003-00-0000-91.png
00000009,373,1,1448462375253,1448462375309,877,518,0,0,0,2,0,2,2,0003-00-0001-60.png,0001-00-0001-18.png
00000009,374,1,1448462376561,1448462376669,857,467,0,0,0,3,1,2,4,0002-00-0000-23.png,0005-00-0001-38.png
00000009,375,1,1448462378630,1448462379930,406,362,0,0,0,3,4,1,7,0002-00-0001-47.png,0004-00-0000-38.png
00000009,376,1,1448462381035,1448462382322,1021,296,0,0,0,4,2,2,6,0004-00-0000-29.png,0003-00-0001-60.png
00000009,377,1,1448462383376,1448462384292,922,369,0,0,0,4,1,3,5,0004-00-0001-70.png,0005-00-0000-20.png
00000009,378,0,1448462385508,1448462386356,925,436,0,0,0,0,1,1,1,0001-00-0001-37.png,0005-00-0000-97.png
00000009,379,1,1448462398514,1448462399138,325,397,0,0,0,2,3,1,5,0003-00-0000-93.png,0002-00-0001-90.png
00000009,380,1,1448462400474,1448462401225,1025,307,0,0,0,4,0,4,4,0004-00-0001-16.png,0001-00-0001-50.png
00000009,381,0,1448462402322,1448462402378,872,419,0,0,0,0,4,4,4,0001-00-0000-00.png,0004-00-0001-85.png
00000009,382,0,1448462405315,1448462406067,501,260,0,0,0,4,3,1,7,0004-00-0000-05.png,0002-00-0000-03.png
00000009,383,0,1448462408900,1448462409054,888,393,0,0,0,0,2,2,2,0001-00-0000-78.png,0003-00-0000-08.png
00000009,384,1,1448462412550,1448462412554,864,332,0,0,0,3,1,2,4,0002-00-0001-13.png,0005-00-0000-82.png
00000009,385,0,1448462413654,1448462414723,1058,340,0,0,0,0,3,3,3,0001-00-0000-53.png,0002-00-0000-47.png
00000009,386,1,1448462417708,1448462418358,1040,314,0,0,0,3,2,1,5,0002-00-0000-85.png,0003-00-0001-42.png
00000009,387,1,1448462419425,1448462420717,970,350,0,0,0,3,0,3,3,0002-00-0000-36.png,0001-00-0001-83.png
00000009,388,0,1448462421901,1448462423716,1025,296,0,0,0,3,4,1,7,0002-00-0001-14.png,0004-00-0001-27.png
00000009,389,1,1448462426909,1448462427641,1035,302,0,0,0,4,0,4,4,0004-00-0000-79.png,0001-00-0000-67.png
00000009,390,1,1448462428676,1448462430109,484,257,0,0,0,1,3,2,4,0005-00-0001-56.png,0002-00-0000-93.png
00000009,391,0,1448462431182,1448462431923,924,335,0,0,0,2,3,1,5,0003-00-0000-50.png,0002-00-0000-54.png
00000009,392,1,1448462435108,1448462435638,488,249,0,0,0,0,1,1,1,0001-00-0001-55.png,0005-00-0000-85.png
00000009,393,1,1448462436678,1448462437440,519,239,0,0,0,1,4,3,5,0005-00-0000-82.png,0004-00-0001-05.png
00000009,394,0,1448462438504,1448462439359,438,355,0,0,0,1,0,1,1,0005-00-0001-21.png,0001-00-0001-50.png
00000009,395,0,1448462445404,1448462446303,448,293,0,0,0,2,1,1,3,0003-00-0000-91.png,0005-00-0000-95.png
00000009,396,1,1448462449516,1448462449572,978,325,0,0,0,4,2,2,6,0004-00-0000-81.png,0003-00-0001-92.png
00000009,397,0,1448462450589,1448462451778,422,364,0,0,0,2,0,2,2,0003-00-0001-63.png,0001-00-0000-98.png
00000009,398,0,1448462455876,1448462455971,943,303,0,0,0,1,2,1,3,0005-00-0001-66.png,0003-00-0001-85.png
00000009,399,1,1448462459207,1448462459223,863,342,0,0,0,4,1,3,5,0004-00-0001-14.png,0005-00-0001-06.png
00000009,400,1,1448462460258,1448462461361,477,250,0,0,0,2,4,2,6,0003-00-0000-27.png,0004-00-0001-06.png
00000009,401,1,1448462462506,1448462463477,912,338,0,0,0,4,0,4,4,0004-00-0000-13.png,0001-00-0000-47.png
00000009,402,1,1448462464464,1448462465725,487,243,0,0,0,1,4,3,5,0005-00-0001-14.png,0004-00-0001-65.png
00000009,403,1,1448462467007,1448462468002,915,318,0,0,0,2,1,1,3,0003-00-0001-94.png,0005-00-0000-85.png
00000009,404,1,1448462469144,1448462469995,417,343,0,0,0,0,4,4,4,0001-00-0000-24.png,0004-00-0001-03.png
00000009,405,1,1448462471161,1448462472391,427,334,0,0,0,2,4,2,6,0003-00-0001-77.png,0004-00-0000-85.png
00000009,406,1,1448462473497,1448462474509,491,252,0,0,0,0,3,3,3,0001-00-0000-41.png,0002-00-0000-08.png
00000009,407,1,1448462476268,1448462476304,877,306,0,0,0,4,2,2,6,0004-00-0000-39.png,0003-00-0001-34.png
00000009,408,0,1448462477371,1448462478295,1019,311,0,0,0,2,3,1,5,0003-00-0001-68.png,0002-00-0000-76.png
00000009,409,0,1448462512772,1448462512939,888,253,0,0,0,0,2,2,2,0001-00-0000-73.png,0003-00-0001-21.png
00000009,410,0,1448462516122,1448462516162,894,312,0,0,0,0,1,1,1,0001-00-0000-48.png,0005-00-0001-37.png
00000009,411,1,1448462521042,1448462521597,942,374,0,0,0,3,1,2,4,0002-00-0000-77.png,0005-00-0000-99.png
00000009,412,1,1448462522683,1448462523545,470,261,0,0,0,1,2,1,3,0005-00-0000-87.png,0003-00-0001-04.png
00000009,413,0,1448462524691,1448462525848,486,245,0,0,0,4,3,1,7,0004-00-0000-94.png,0002-00-0000-60.png
00000009,414,1,1448462528745,1448462529267,926,384,0,0,0,2,0,2,2,0003-00-0001-44.png,0001-00-0000-00.png
00000009,415,1,1448462530255,1448462531228,1022,285,0,0,0,3,2,1,5,0002-00-0001-63.png,0003-00-0001-11.png
00000009,416,1,1448462532351,1448462532473,875,454,0,0,0,4,1,3,5,0004-00-0001-89.png,0005-00-0001-43.png
00000009,417,1,1448462533724,1448462535103,480,252,0,0,0,1,3,2,4,0005-00-0000-89.png,0002-00-0001-69.png
00000009,418,0,1448462536296,1448462537361,927,325,0,0,0,3,4,1,7,0002-00-0001-96.png,0004-00-0001-48.png
00000009,419,1,1448462650024,1448462650120,959,365,0,0,0,3,0,3,3,0002-00-0000-01.png,0001-00-0001-53.png
00000009,420,1,1448462652016,1448462652167,951,306,0,0,0,1,0,1,1,0005-00-0001-68.png,0001-00-0001-42.png
00000009,421,0,1448462653813,1448462654142,913,475,0,0,0,0,3,3,3,0001-00-0000-53.png,0002-00-0001-68.png
00000009,422,1,1448462657394,1448462658014,510,331,0,0,0,1,3,2,4,0005-00-0001-83.png,0002-00-0000-11.png
00000009,423,0,1448462659371,1448462659630,1101,505,0,0,0,1,2,1,3,0005-00-0000-81.png,0003-00-0000-60.png
00000009,424,1,1448462662695,1448462663265,423,386,0,0,0,1,4,3,5,0005-00-0000-08.png,0004-00-0000-20.png
00000009,425,1,1448462664430,1448462664452,938,364,0,0,0,3,0,3,3,0002-00-0000-31.png,0001-00-0000-28.png
00000009,426,1,1448462666606,1448462667517,937,304,0,0,0,1,0,1,1,0005-00-0000-38.png,0001-00-0001-03.png
00000009,427,1,1448462669568,1448462670244,938,280,0,0,0,2,1,1,3,0003-00-0000-55.png,0005-00-0001-22.png
00000009,428,1,1448462672286,1448462672630,1073,548,0,0,0,4,3,1,7,0004-00-0001-59.png,0002-00-0000-00.png
00000009,429,1,1448462675267,1448462675892,356,351,0,0,0,2,4,2,6,0003-00-0000-10.png,0004-00-0000-88.png
00000009,430,0,1448462677138,1448462677154,878,367,0,0,0,0,2,2,2,0001-00-0000-70.png,0003-00-0000-52.png
00000009,431,1,1448462680437,1448462681115,493,275,0,0,0,0,4,4,4,0001-00-0001-56.png,0004-00-0000-58.png
00000009,432,1,1448462682499,1448462683714,915,373,0,0,0,4,0,4,4,0004-00-0001-98.png,0001-00-0001-35.png
00000009,433,1,1448462685026,1448462686309,489,250,0,0,0,3,4,1,7,0002-00-0000-14.png,0004-00-0000-31.png
00000009,434,1,1448462687531,1448462688931,926,436,0,0,0,4,2,2,6,0004-00-0000-26.png,0003-00-0000-50.png
00000009,435,1,1448462690152,1448462691357,1020,332,0,0,0,3,1,2,4,0002-00-0001-27.png,0005-00-0000-83.png
00000009,436,0,1448462692580,1448462693761,926,375,0,0,0,0,1,1,1,0001-00-0001-32.png,0005-00-0001-11.png
00000009,437,1,1448462779518,1448462779546,863,297,0,0,0,2,0,2,2,0003-00-0001-92.png,0001-00-0000-29.png
00000009,438,1,1448462780573,1448462781468,921,349,0,0,0,3,2,1,5,0002-00-0000-51.png,0003-00-0000-57.png
00000009,439,1,1448462782496,1448462783430,929,332,0,0,0,4,1,3,5,0004-00-0001-70.png,0005-00-0001-63.png
00000009,440,0,1448462784468,1448462785164,895,363,0,0,0,2,3,1,5,0003-00-0000-32.png,0002-00-0001-02.png
00000009,441,0,1448462788373,1448462788397,863,333,0,0,0,0,4,4,4,0001-00-0000-10.png,0004-00-0001-63.png
00000009,442,1,1448462791793,1448462791845,891,308,0,0,0,4,2,2,6,0004-00-0000-21.png,0003-00-0000-32.png
00000009,443,1,1448462792883,1448462793890,481,267,0,0,0,3,4,1,7,0002-00-0001-83.png,0004-00-0000-09.png
00000009,444,1,1448462795053,1448462796090,478,264,0,0,0,1,4,3,5,0005-00-0000-59.png,0004-00-0000-83.png
00000009,445,1,1448462797201,1448462798298,462,258,0,0,0,1,3,2,4,0005-00-0000-65.png,0002-00-0000-05.png
00000009,446,1,1448462799406,1448462800133,498,262,0,0,0,2,4,2,6,0003-00-0001-87.png,0004-00-0001-13.png
00000009,447,1,1448462801293,1448462801956,921,305,0,0,0,2,1,1,3,0003-00-0000-88.png,0005-00-0000-86.png
00000009,448,0,1448462803121,1448462804524,513,231,0,0,0,4,3,1,7,0004-00-0001-20.png,0002-00-0001-14.png
00000009,449,1,1448462807837,1448462808393,1040,311,0,0,0,3,0,3,3,0002-00-0001-12.png,0001-00-0000-43.png
00000009,450,1,1448462809454,1448462810431,944,341,0,0,0,4,1,3,5,0004-00-0000-91.png,0005-00-0000-76.png
00000009,451,1,1448462811557,1448462812699,959,358,0,0,0,3,1,2,4,0002-00-0000-56.png,0005-00-0000-35.png
00000009,452,1,1448462813894,1448462814582,499,296,0,0,0,0,1,1,1,0001-00-0000-46.png,0005-00-0000-42.png
00000009,453,1,1448462815692,1448462816674,499,247,0,0,0,0,2,2,2,0001-00-0001-06.png,0003-00-0001-33.png
00000009,454,1,1448462817799,1448462818546,1058,317,0,0,0,4,0,4,4,0004-00-0001-93.png,0001-00-0000-94.png
00000009,455,1,1448462819607,1448462820295,519,277,0,0,0,1,2,1,3,0005-00-0001-27.png,0003-00-0000-20.png
00000009,456,1,1448462821438,1448462822695,493,248,0,0,0,0,3,3,3,0001-00-0000-44.png,0002-00-0001-19.png
00000009,457,1,1448462823970,1448462824013,513,566,0,0,0,2,3,1,5,0003-00-0001-49.png,0002-00-0000-16.png
00000009,458,1,1448462825301,1448462826229,1149,363,0,0,0,1,0,1,1,0005-00-0000-01.png,0001-00-0000-11.png
00000009,459,1,1448462827356,1448462828285,960,347,0,0,0,3,2,1,5,0002-00-0000-18.png,0003-00-0001-91.png
00000009,460,1,1448462829440,1448462830458,953,340,0,0,0,2,0,2,2,0003-00-0000-34.png,0001-00-0001-23.png
00000009,461,0,1448462831673,1448462833289,485,249,0,0,0,4,2,2,6,0004-00-0000-95.png,0003-00-0001-34.png
00000009,462,1,1448462838031,1448462838601,1015,396,0,0,0,4,1,3,5,0004-00-0001-98.png,0005-00-0000-81.png
00000009,463,1,1448462840334,1448462840887,497,263,0,0,0,1,2,1,3,0005-00-0000-85.png,0003-00-0000-25.png
00000009,464,1,1448462842008,1448462843234,1029,326,0,0,0,3,0,3,3,0002-00-0000-21.png,0001-00-0000-41.png
00000009,465,1,1448462844366,1448462845552,881,338,0,0,0,2,0,2,2,0003-00-0001-18.png,0001-00-0001-42.png
00000009,466,1,1448462846706,1448462847749,481,249,0,0,0,2,4,2,6,0003-00-0000-66.png,0004-00-0000-23.png
00000009,467,1,1448462848812,1448462849804,985,296,0,0,0,2,1,1,3,0003-00-0000-48.png,0005-00-0001-12.png
00000009,468,1,1448462850952,1448462851977,481,264,0,0,0,3,4,1,7,0002-00-0001-67.png,0004-00-0000-69.png
00000009,469,1,1448462852976,1448462853747,380,361,0,0,0,0,4,4,4,0001-00-0001-14.png,0004-00-0000-95.png
00000009,470,1,1448462854964,1448462855918,1043,266,0,0,0,3,2,1,5,0002-00-0000-37.png,0003-00-0001-33.png
00000009,471,1,1448462857109,1448462858050,490,279,0,0,0,1,3,2,4,0005-00-0001-79.png,0002-00-0001-35.png
00000009,472,1,1448462859485,1448462860835,960,309,0,0,0,4,3,1,7,0004-00-0000-24.png,0002-00-0001-34.png
00000009,473,1,1448462862045,1448462862793,398,347,0,0,0,0,2,2,2,0001-00-0001-55.png,0003-00-0001-09.png
00000009,474,0,1448462865238,1448462865262,898,306,0,0,0,0,3,3,3,0001-00-0000-12.png,0002-00-0001-20.png
00000009,475,0,1448462942050,1448462942826,1048,327,0,0,0,2,3,1,5,0003-00-0000-55.png,0002-00-0001-25.png
00000009,476,1,1448462946597,1448462947193,490,279,0,0,0,1,4,3,5,0005-00-0001-72.png,0004-00-0000-36.png
00000009,477,1,1448462948156,1448462949016,917,319,0,0,0,4,0,4,4,0004-00-0001-95.png,0001-00-0001-02.png
00000009,478,1,1448462950044,1448462950795,886,318,0,0,0,1,0,1,1,0005-00-0001-25.png,0001-00-0001-67.png
00000009,479,1,1448462951843,1448462953010,480,265,0,0,0,0,1,1,1,0001-00-0001-68.png,0005-00-0001-13.png
00000009,480,1,1448462954023,1448462955098,1045,276,0,0,0,3,1,2,4,0002-00-0000-48.png,0005-00-0001-08.png
00000009,481,1,1448462956105,1448462957524,923,383,0,0,0,2,1,1,3,0003-00-0001-36.png,0005-00-0001-97.png
00000009,482,1,1448462958539,1448462959212,919,313,0,0,0,2,0,2,2,0003-00-0001-67.png,0001-00-0001-62.png
00000009,483,1,1448462960350,1448462961036,409,358,0,0,0,1,4,3,5,0005-00-0000-39.png,0004-00-0001-79.png
00000009,484,1,1448462962187,1448462963315,523,246,0,0,0,3,4,1,7,0002-00-0001-88.png,0004-00-0001-24.png
00000009,485,1,1448462964291,1448462965174,1013,280,0,0,0,3,2,1,5,0002-00-0001-02.png,0003-00-0000-92.png
00000009,486,1,1448462966327,1448462967066,467,250,0,0,0,1,2,1,3,0005-00-0000-64.png,0003-00-0000-90.png
00000009,487,1,1448462968171,1448462969137,403,331,0,0,0,0,4,4,4,0001-00-0000-81.png,0004-00-0001-92.png
00000009,488,1,1448462970340,1448462971571,919,314,0,0,0,4,2,2,6,0004-00-0001-23.png,0003-00-0000-27.png
00000009,489,1,1448462972690,1448462973450,501,291,0,0,0,0,2,2,2,0001-00-0000-89.png,0003-00-0000-26.png
00000009,490,1,1448462974752,1448462975440,924,310,0,0,0,1,0,1,1,0005-00-0000-41.png,0001-00-0001-11.png
00000009,491,0,1448462976505,1448462977903,510,261,0,0,0,3,0,3,3,0002-00-0001-22.png,0001-00-0001-93.png
00000009,492,1,1448462982737,1448462983268,1058,315,0,0,0,3,1,2,4,0002-00-0001-10.png,0005-00-0001-95.png
00000009,493,1,1448462984198,1448462985357,909,319,0,0,0,4,3,1,7,0004-00-0000-34.png,0002-00-0001-00.png
00000009,494,1,1448462986395,1448462987387,1017,280,0,0,0,4,0,4,4,0004-00-0001-02.png,0001-00-0000-56.png
00000009,495,1,1448462988521,1448462989454,492,272,0,0,0,0,3,3,3,0001-00-0000-80.png,0002-00-0001-71.png
00000009,496,1,1448462990737,1448462991782,503,265,0,0,0,1,3,2,4,0005-00-0001-69.png,0002-00-0001-64.png
00000009,497,1,1448462992843,1448462994081,485,282,0,0,0,2,4,2,6,0003-00-0001-53.png,0004-00-0001-08.png
00000009,498,0,1448462995249,1448462995984,489,302,0,0,0,4,1,3,5,0004-00-0001-35.png,0005-00-0001-69.png
00000009,499,1,1448463000214,1448463163359,402,384,0,0,0,2,3,1,5,0003-00-0001-65.png,0002-00-0001-44.png
00000009,500,1,1448463164565,1448463165339,465,281,0,0,0,0,1,1,1,0001-00-0000-20.png,0005-00-0001-10.png
00000009,501,0,1448463166324,1448463167161,964,279,0,0,0,2,3,1,5,0003-00-0001-86.png,0002-00-0000-08.png
00000009,502,1,1448463199589,1448463200340,493,280,0,0,0,1,2,1,3,0005-00-0001-45.png,0003-00-0001-76.png
00000009,503,0,1448463201261,1448463202564,476,276,0,0,0,4,3,1,7,0004-00-0000-56.png,0002-00-0000-18.png
00000009,504,1,1448463209814,1448463210344,460,221,0,0,0,0,1,1,1,0001-00-0000-80.png,0005-00-0000-43.png
00000009,505,1,1448463211368,1448463212410,1015,283,0,0,0,4,2,2,6,0004-00-0000-04.png,0003-00-0000-33.png
00000009,506,0,1448463213483,1448463213559,523,471,0,0,0,3,0,3,3,0002-00-0000-28.png,0001-00-0001-98.png
00000009,507,1,1448463216565,1448463217107,912,405,0,0,0,2,1,1,3,0003-00-0000-60.png,0005-00-0001-54.png
00000009,508,1,1448463218086,1448463219053,494,259,0,0,0,1,3,2,4,0005-00-0000-23.png,0002-00-0000-47.png
00000009,509,1,1448463220165,1448463221298,930,355,0,0,0,3,2,1,5,0002-00-0000-90.png,0003-00-0001-27.png
00000009,510,1,1448463222413,1448463223617,939,327,0,0,0,4,1,3,5,0004-00-0000-47.png,0005-00-0001-32.png
00000009,511,1,1448463224744,1448463225725,908,343,0,0,0,3,1,2,4,0002-00-0000-56.png,0005-00-0000-32.png
00000009,512,1,1448463227220,1448463228003,485,265,0,0,0,0,2,2,2,0001-00-0000-14.png,0003-00-0001-00.png
00000009,513,1,1448463229393,1448463230372,469,278,0,0,0,2,4,2,6,0003-00-0000-77.png,0004-00-0001-29.png
00000009,514,1,1448463232144,1448463232790,478,262,0,0,0,1,4,3,5,0005-00-0001-54.png,0004-00-0000-22.png
00000009,515,1,1448463234202,1448463234934,1144,405,0,0,0,2,0,2,2,0003-00-0000-54.png,0001-00-0000-51.png
00000009,516,0,1448463236131,1448463593918,926,540,0,0,0,3,4,1,7,0002-00-0000-01.png,0004-00-0000-49.png
00000009,517,1,1448463597162,1448463597734,478,263,0,0,0,0,3,3,3,0001-00-0001-18.png,0002-00-0000-98.png
00000009,518,0,1448463598820,1448463599914,497,285,0,0,0,4,0,4,4,0004-00-0001-65.png,0001-00-0000-73.png
00000009,519,1,1448463603130,1448463603717,471,269,0,0,0,0,4,4,4,0001-00-0000-22.png,0004-00-0000-91.png
00000009,520,1,1448463604783,1448463605500,896,348,0,0,0,1,0,1,1,0005-00-0001-16.png,0001-00-0001-86.png
00000009,521,1,1448463606532,1448463607761,464,278,0,0,0,1,3,2,4,0005-00-0001-11.png,0002-00-0000-05.png
00000009,522,1,1448463700246,1448463700868,899,263,0,0,0,3,0,3,3,0002-00-0000-71.png,0001-00-0001-60.png
00000009,523,1,1448463702540,1448463702840,940,306,0,0,0,3,2,1,5,0002-00-0001-05.png,0003-00-0001-57.png
00000009,524,1,1448463704150,1448463705027,944,297,0,0,0,3,1,2,4,0002-00-0001-87.png,0005-00-0000-55.png
