subject_id,trial,correct_response,stim_time,response_time,x_coord,y_coord,trial_timeout,timeout_time,interTrial_timeout,left_rank,right_rank,distance,joint_rank,left_image,right_image
00000014,1,1,1447954151656,1447954152390,341,482,0,0,0,0,2,2,2,0001-00-0001-20.png,0003-00-0000-15.png
00000014,2,0,1447954482110,1447954483318,381,337,0,0,0,3,2,1,5,0002-00-0000-07.png,0003-00-0000-22.png
00000014,3,1,1447954487816,1447954487828,521,439,0,0,0,1,4,3,5,0005-00-0001-51.png,0004-00-0000-73.png
00000014,4,1,1447954489109,1447954489530,384,419,0,0,0,1,2,1,3,0005-00-0000-35.png,0003-00-0000-46.png
00000014,5,0,1447954490449,1447954490947,913,535,0,0,0,0,4,4,4,0001-00-0001-73.png,0004-00-0000-19.png
00000014,6,1,1447954494534,1447954494994,392,402,0,0,0,1,3,2,4,0005-00-0001-64.png,0002-00-0001-67.png
00000014,7,0,1447954496185,1447954496702,943,565,0,0,0,2,4,2,6,0003-00-0001-26.png,0004-00-0000-43.png
00000014,8,1,1447954503230,1447954503595,408,495,0,0,0,0,3,3,3,0001-00-0001-91.png,0002-00-0000-50.png
00000014,9,1,1447954505024,1447954505564,966,501,0,0,0,2,1,1,3,0003-00-0001-72.png,0005-00-0001-73.png
00000014,10,0,1447954506492,1447954507046,963,476,0,0,0,2,3,1,5,0003-00-0000-19.png,0002-00-0001-34.png
00000014,11,0,1447954510230,1447954510704,930,427,0,0,0,3,4,1,7,0002-00-0001-85.png,0004-00-0000-42.png
00000014,12,1,1447954513854,1447954514313,1001,406,0,0,0,3,1,2,4,0002-00-0000-65.png,0005-00-0000-09.png
00000014,13,0,1447954515531,1447954515991,409,429,0,0,0,4,2,2,6,0004-00-0000-17.png,0003-00-0001-96.png
00000014,14,1,1447954519424,1447954519885,913,446,0,0,0,1,0,1,1,0005-00-0001-38.png,0001-00-0000-38.png
00000014,15,1,1447954520954,1447954521459,975,481,0,0,0,4,1,3,5,0004-00-0000-29.png,0005-00-0001-47.png
00000014,16,0,1447954522714,1447954523277,405,408,0,0,0,3,0,3,3,0002-00-0000-87.png,0001-00-0000-92.png
00000014,17,1,1447954526429,1447954526960,348,438,0,0,0,0,1,1,1,0001-00-0000-47.png,0005-00-0000-34.png
00000014,18,1,1447954527885,1447954528393,955,467,0,0,0,2,0,2,2,0003-00-0001-91.png,0001-00-0001-76.png
00000014,19,1,1447954529720,1447954530234,927,469,0,0,0,4,0,4,4,0004-00-0001-25.png,0001-00-0001-89.png
00000014,20,1,1447954531349,1447954531866,866,564,0,0,0,4,3,1,7,0004-00-0000-49.png,0002-00-0001-49.png
00000014,21,1,1447954532730,1447954533163,429,445,0,0,0,0,2,2,2,0001-00-0000-16.png,0003-00-0000-72.png
00000014,22,1,1447954534131,1447954535052,949,482,0,0,0,1,0,1,1,0005-00-0001-34.png,0001-00-0000-48.png
00000014,23,0,1447954536139,1447954536571,407,438,0,0,0,3,2,1,5,0002-00-0000-45.png,0003-00-0001-61.png
00000014,24,1,1447954539578,1447954540026,350,396,0,0,0,0,3,3,3,0001-00-0001-74.png,0002-00-0000-53.png
00000014,25,1,1447954545812,1447954546188,420,397,0,0,0,1,3,2,4,0005-00-0001-98.png,0002-00-0001-69.png
00000014,26,1,1447954548078,1447954548525,900,410,0,0,0,4,3,1,7,0004-00-0001-79.png,0002-00-0000-66.png
00000014,27,1,1447954549730,1447954550211,380,418,0,0,0,1,4,3,5,0005-00-0001-90.png,0004-00-0001-74.png
00000014,28,0,1447954551727,1447954552210,372,431,0,0,0,2,1,1,3,0003-00-0001-68.png,0005-00-0001-76.png
00000014,29,1,1447954555753,1447954556236,975,410,0,0,0,3,0,3,3,0002-00-0000-73.png,0001-00-0000-67.png
00000014,30,0,1447954558733,1447954559234,882,462,0,0,0,2,3,1,5,0003-00-0001-20.png,0002-00-0000-89.png
00000014,31,1,1447954562443,1447954562975,946,498,0,0,0,4,2,2,6,0004-00-0000-31.png,0003-00-0001-37.png
00000014,32,1,1447954564639,1447954565231,955,440,0,0,0,4,1,3,5,0004-00-0000-37.png,0005-00-0001-20.png
00000014,33,0,1447954566705,1447954567167,433,420,0,0,0,3,1,2,4,0002-00-0001-41.png,0005-00-0000-02.png
00000014,34,1,1447954571465,1447954571959,1002,422,0,0,0,4,0,4,4,0004-00-0001-57.png,0001-00-0001-79.png
00000014,35,1,1447954573723,1447954574156,395,505,0,0,0,0,1,1,1,0001-00-0001-48.png,0005-00-0000-17.png
00000014,36,1,1447954575799,1447954576289,435,508,0,0,0,0,4,4,4,0001-00-0000-89.png,0004-00-0000-85.png
00000014,37,1,1447954577704,1447954578242,951,464,0,0,0,2,0,2,2,0003-00-0000-99.png,0001-00-0000-24.png
00000014,38,1,1447954579691,1447954580248,380,372,0,0,0,1,2,1,3,0005-00-0000-97.png,0003-00-0000-35.png
00000014,39,1,1447954581753,1447954582266,417,522,0,0,0,3,4,1,7,0002-00-0000-32.png,0004-00-0001-53.png
00000014,40,0,1447954584167,1447954584713,927,436,0,0,0,2,4,2,6,0003-00-0001-11.png,0004-00-0001-02.png
00000014,41,1,1447954588422,1447954588893,961,426,0,0,0,4,3,1,7,0004-00-0000-27.png,0002-00-0001-32.png
00000014,42,1,1447954590302,1447954590707,427,436,0,0,0,1,3,2,4,0005-00-0000-81.png,0002-00-0001-41.png
00000014,43,0,1447954592189,1447954592637,392,441,0,0,0,3,1,2,4,0002-00-0000-15.png,0005-00-0001-62.png
00000014,44,1,1447954596999,1447954597506,376,384,0,0,0,0,3,3,3,0001-00-0000-56.png,0002-00-0000-02.png
00000014,45,1,1447954598661,1447954599174,937,450,0,0,0,3,0,3,3,0002-00-0001-83.png,0001-00-0000-95.png
00000014,46,1,1447954600528,1447954601070,922,487,0,0,0,4,1,3,5,0004-00-0000-80.png,0005-00-0000-67.png
00000014,47,1,1447954602199,1447954602877,865,483,0,0,0,2,1,1,3,0003-00-0001-31.png,0005-00-0000-34.png
00000014,48,1,1447954636283,1447954636689,414,435,0,0,0,1,4,3,5,0005-00-0000-95.png,0004-00-0001-99.png
00000014,49,1,1447954637585,1447954637991,431,441,0,0,0,1,2,1,3,0005-00-0001-66.png,0003-00-0001-73.png
00000014,50,1,1447954638947,1447954639567,978,461,0,0,0,4,2,2,6,0004-00-0001-19.png,0003-00-0000-23.png
00000014,51,1,1447954640437,1447954640935,411,412,0,0,0,3,4,1,7,0002-00-0001-83.png,0004-00-0001-60.png
00000014,52,1,1447954641838,1447954642274,427,528,0,0,0,0,1,1,1,0001-00-0001-74.png,0005-00-0000-32.png
00000014,53,1,1447954643159,1447954643707,952,487,0,0,0,2,0,2,2,0003-00-0001-05.png,0001-00-0000-53.png
00000014,54,0,1447954644939,1447954645401,386,393,0,0,0,3,2,1,5,0002-00-0000-07.png,0003-00-0001-59.png
00000014,55,1,1447954648854,1447954649348,934,527,0,0,0,1,0,1,1,0005-00-0000-86.png,0001-00-0001-83.png
00000014,56,1,1447954650277,1447954650748,1003,455,0,0,0,4,0,4,4,0004-00-0001-61.png,0001-00-0000-95.png
00000014,57,1,1447954651627,1447954652018,412,439,0,0,0,0,2,2,2,0001-00-0000-60.png,0003-00-0000-64.png
00000014,58,0,1447954652931,1447954653425,915,563,0,0,0,0,4,4,4,0001-00-0000-97.png,0004-00-0000-75.png
00000014,59,0,1447954656537,1447954656992,884,505,0,0,0,2,3,1,5,0003-00-0001-06.png,0002-00-0000-31.png
00000014,60,0,1447954660085,1447954660540,977,450,0,0,0,2,4,2,6,0003-00-0001-15.png,0004-00-0000-54.png
00000014,61,1,1447954664151,1447954664574,498,436,0,0,0,2,4,2,6,0003-00-0000-48.png,0004-00-0000-42.png
00000014,62,0,1447954665581,1447954666147,896,496,0,0,0,1,3,2,4,0005-00-0001-38.png,0002-00-0000-69.png
00000014,63,0,1447954669014,1447954669541,351,395,0,0,0,2,1,1,3,0003-00-0000-44.png,0005-00-0000-76.png
00000014,64,0,1447954672419,1447954672895,926,503,0,0,0,1,4,3,5,0005-00-0001-21.png,0004-00-0000-62.png
00000014,65,1,1447954676005,1447954676491,921,390,0,0,0,3,2,1,5,0002-00-0001-74.png,0003-00-0000-37.png
00000014,66,1,1447954677438,1447954677887,396,415,0,0,0,0,1,1,1,0001-00-0000-11.png,0005-00-0000-88.png
00000014,67,1,1447954678999,1447954679452,376,436,0,0,0,0,3,3,3,0001-00-0001-06.png,0002-00-0001-53.png
00000014,68,1,1447954680301,1447954680822,872,418,0,0,0,3,0,3,3,0002-00-0001-97.png,0001-00-0001-46.png
00000014,69,0,1447954681770,1447954682745,389,416,0,0,0,4,2,2,6,0004-00-0001-04.png,0003-00-0001-49.png
00000014,70,1,1447954685936,1447954686601,952,450,0,0,0,1,0,1,1,0005-00-0000-00.png,0001-00-0001-93.png
00000014,71,1,1447954687546,1447954688070,947,485,0,0,0,4,0,4,4,0004-00-0000-90.png,0001-00-0001-46.png
00000014,72,1,1447954689314,1447954689814,367,444,0,0,0,3,4,1,7,0002-00-0001-53.png,0004-00-0000-25.png
00000014,73,1,1447954690662,1447954691135,401,458,0,0,0,1,2,1,3,0005-00-0000-89.png,0003-00-0001-17.png
00000014,74,1,1447954691976,1447954692532,911,472,0,0,0,4,1,3,5,0004-00-0001-06.png,0005-00-0001-96.png
00000014,75,1,1447954693474,1447954693921,341,414,0,0,0,0,4,4,4,0001-00-0001-34.png,0004-00-0001-31.png
00000014,76,0,1447954694768,1447954695310,925,439,0,0,0,2,3,1,5,0003-00-0000-76.png,0002-00-0000-32.png
00000014,77,1,1447954698616,1447954699097,915,501,0,0,0,2,0,2,2,0003-00-0001-25.png,0001-00-0000-68.png
00000014,78,1,1447954699998,1447954700538,914,501,0,0,0,4,3,1,7,0004-00-0001-50.png,0002-00-0000-24.png
00000014,79,1,1447954701468,1447954702220,407,414,0,0,0,0,2,2,2,0001-00-0001-72.png,0003-00-0000-27.png
00000014,80,1,1447954703085,1447954703650,895,493,0,0,0,3,1,2,4,0002-00-0001-78.png,0005-00-0001-33.png
00000014,81,1,1447954704540,1447954704960,397,461,0,0,0,1,2,1,3,0005-00-0000-58.png,0003-00-0000-40.png
00000014,82,0,1447954705856,1447954706544,900,438,0,0,0,1,4,3,5,0005-00-0001-25.png,0004-00-0000-44.png
00000014,83,1,1447954710373,1447954710831,976,385,0,0,0,1,0,1,1,0005-00-0001-76.png,0001-00-0001-81.png
00000014,84,0,1447954711678,1447954712444,927,522,0,0,0,1,3,2,4,0005-00-0000-65.png,0002-00-0001-20.png
00000014,85,0,1447954719376,1447954719781,998,393,0,0,0,2,4,2,6,0003-00-0001-80.png,0004-00-0001-56.png
00000014,86,1,1447954724215,1447954724750,944,483,0,0,0,4,0,4,4,0004-00-0001-87.png,0001-00-0001-95.png
00000014,87,1,1447954725576,1447954726056,421,454,0,0,0,0,4,4,4,0001-00-0001-10.png,0004-00-0000-95.png
00000014,88,1,1447954726922,1447954727453,905,480,0,0,0,3,0,3,3,0002-00-0001-36.png,0001-00-0001-97.png
00000014,89,1,1447954728351,1447954728877,895,471,0,0,0,4,3,1,7,0004-00-0000-53.png,0002-00-0001-46.png
00000014,90,0,1447954729783,1447954730391,435,534,0,0,0,2,1,1,3,0003-00-0001-44.png,0005-00-0001-42.png
00000014,91,0,1447954733384,1447954733894,902,491,0,0,0,2,3,1,5,0003-00-0000-42.png,0002-00-0000-65.png
00000014,92,1,1447954737158,1447954737691,376,384,0,0,0,0,3,3,3,0001-00-0000-20.png,0002-00-0001-59.png
00000014,93,1,1447954738599,1447954739163,927,476,0,0,0,4,1,3,5,0004-00-0000-42.png,0005-00-0000-79.png
00000014,94,1,1447954740060,1447954740632,913,449,0,0,0,2,0,2,2,0003-00-0001-84.png,0001-00-0000-35.png
00000014,95,0,1447954741845,1447954742381,396,463,0,0,0,3,2,1,5,0002-00-0000-20.png,0003-00-0001-66.png
00000014,96,1,1447954745328,1447954745874,373,394,0,0,0,3,4,1,7,0002-00-0001-46.png,0004-00-0000-18.png
00000014,97,1,1447954747166,1447954747618,350,370,0,0,0,0,1,1,1,0001-00-0001-27.png,0005-00-0000-83.png
00000014,98,1,1447954748844,1447954749337,912,476,0,0,0,4,2,2,6,0004-00-0001-10.png,0003-00-0001-38.png
00000014,99,1,1447954750181,1447954750694,924,482,0,0,0,3,1,2,4,0002-00-0001-91.png,0005-00-0001-65.png
00000014,100,1,1447954751566,1447954751987,433,549,0,0,0,0,2,2,2,0001-00-0001-81.png,0003-00-0001-26.png
00000014,101,1,1447954752848,1447954753421,895,472,0,0,0,2,1,1,3,0003-00-0001-70.png,0005-00-0001-45.png
00000014,102,0,1447954754319,1447954754936,901,437,0,0,0,2,3,1,5,0003-00-0000-18.png,0002-00-0001-91.png
00000014,103,1,1447954758017,1447954758473,391,403,0,0,0,0,3,3,3,0001-00-0001-85.png,0002-00-0001-78.png
00000014,104,1,1447954759347,1447954759751,393,427,0,0,0,0,1,1,1,0001-00-0001-79.png,0005-00-0001-32.png
00000014,105,1,1447954760597,1447954761134,905,454,0,0,0,2,0,2,2,0003-00-0001-44.png,0001-00-0001-37.png
00000014,106,0,1447954762112,1447954762760,899,561,0,0,0,1,4,3,5,0005-00-0001-34.png,0004-00-0001-51.png
00000014,107,1,1447954765595,1447954766056,362,410,0,0,0,2,4,2,6,0003-00-0000-27.png,0004-00-0001-83.png
00000014,108,1,1447954767019,1447954767593,952,476,0,0,0,4,1,3,5,0004-00-0000-60.png,0005-00-0001-18.png
00000014,109,1,1447954768481,1447954769035,896,471,0,0,0,4,3,1,7,0004-00-0000-29.png,0002-00-0000-17.png
00000014,110,1,1447954769973,1447954770387,401,554,0,0,0,0,2,2,2,0001-00-0001-73.png,0003-00-0000-48.png
00000014,111,1,1447954771240,1447954771792,879,466,0,0,0,4,0,4,4,0004-00-0000-18.png,0001-00-0001-50.png
00000014,112,0,1447954772714,1447954773279,409,446,0,0,0,3,1,2,4,0002-00-0001-33.png,0005-00-0001-56.png
00000014,113,1,1447954780206,1447954780608,447,411,0,0,0,1,2,1,3,0005-00-0001-46.png,0003-00-0001-90.png
00000014,114,1,1447954781473,1447954781973,469,480,0,0,0,1,3,2,4,0005-00-0001-08.png,0002-00-0001-58.png
00000014,115,0,1447954782813,1447954783295,369,454,0,0,0,3,2,1,5,0002-00-0001-45.png,0003-00-0000-46.png
00000014,116,1,1447954787659,1447954788136,951,439,0,0,0,1,0,1,1,0005-00-0000-28.png,0001-00-0001-50.png
00000014,117,1,1447954789039,1447954789521,888,436,0,0,0,3,0,3,3,0002-00-0000-82.png,0001-00-0000-15.png
00000014,118,0,1447954790338,1447954790811,427,476,0,0,0,4,2,2,6,0004-00-0000-91.png,0003-00-0001-40.png
00000014,119,0,1447954794170,1447954794651,959,421,0,0,0,0,4,4,4,0001-00-0000-65.png,0004-00-0000-10.png
00000014,120,0,1447954797775,1447954798308,928,441,0,0,0,3,4,1,7,0002-00-0000-22.png,0004-00-0000-45.png
00000014,121,1,1447954802417,1447954802850,418,402,0,0,0,1,4,3,5,0005-00-0001-36.png,0004-00-0000-30.png
00000014,122,1,1447954803686,1447954804512,929,545,0,0,0,2,0,2,2,0003-00-0001-85.png,0001-00-0000-97.png
00000014,123,0,1447954805426,1447954806209,428,457,0,0,0,3,1,2,4,0002-00-0000-35.png,0005-00-0001-35.png
00000014,124,1,1447954810983,1447954811486,350,346,0,0,0,0,4,4,4,0001-00-0001-77.png,0004-00-0000-93.png
00000014,125,1,1447954812380,1447954813007,947,472,0,0,0,3,0,3,3,0002-00-0001-63.png,0001-00-0000-33.png
00000014,126,0,1447954813890,1447954814446,864,561,0,0,0,1,2,1,3,0005-00-0001-72.png,0003-00-0000-07.png
00000014,127,0,1447954817830,1447954818314,902,467,0,0,0,2,3,1,5,0003-00-0000-97.png,0002-00-0000-47.png
00000014,128,1,1447954821586,1447954822011,389,397,0,0,0,1,3,2,4,0005-00-0001-13.png,0002-00-0000-59.png
00000014,129,1,1447954823260,1447954823699,878,401,0,0,0,4,0,4,4,0004-00-0001-67.png,0001-00-0001-68.png
00000014,130,1,1447954824912,1447954825554,952,436,0,0,0,4,1,3,5,0004-00-0001-44.png,0005-00-0000-85.png
00000014,131,1,1447954826843,1447954827345,924,482,0,0,0,4,3,1,7,0004-00-0000-81.png,0002-00-0000-39.png
00000014,132,0,1447954828213,1447954829225,462,407,0,0,0,3,2,1,5,0002-00-0000-55.png,0003-00-0001-00.png
00000014,133,0,1447954835321,1447954835744,965,449,0,0,0,2,4,2,6,0003-00-0001-47.png,0004-00-0001-40.png
00000014,134,1,1447954839526,1447954839991,895,498,0,0,0,1,0,1,1,0005-00-0000-77.png,0001-00-0000-26.png
00000014,135,1,1447954841264,1447954841719,376,527,0,0,0,0,1,1,1,0001-00-0000-80.png,0005-00-0000-75.png
00000014,136,1,1447954842553,1447954843096,926,463,0,0,0,4,2,2,6,0004-00-0000-38.png,0003-00-0000-98.png
00000014,137,1,1447954843925,1447954844408,417,451,0,0,0,0,3,3,3,0001-00-0001-41.png,0002-00-0000-27.png
00000014,138,1,1447954845267,1447954845710,438,450,0,0,0,3,4,1,7,0002-00-0001-30.png,0004-00-0000-98.png
00000014,139,1,1447954846590,1447954847038,427,464,0,0,0,0,2,2,2,0001-00-0000-68.png,0003-00-0001-78.png
00000014,140,1,1447954848246,1447954848767,925,475,0,0,0,2,1,1,3,0003-00-0000-11.png,0005-00-0001-02.png
00000014,141,0,1447954849661,1447954850234,900,489,0,0,0,2,3,1,5,0003-00-0000-23.png,0002-00-0000-75.png
00000014,142,1,1447954853299,1447954853754,952,436,0,0,0,2,1,1,3,0003-00-0001-99.png,0005-00-0001-60.png
00000014,143,1,1447954854730,1447954855213,364,450,0,0,0,0,4,4,4,0001-00-0001-33.png,0004-00-0001-57.png
00000014,144,1,1447954856048,1447954856492,362,428,0,0,0,0,3,3,3,0001-00-0001-79.png,0002-00-0001-87.png
00000014,145,1,1447954857342,1447954857791,432,461,0,0,0,0,2,2,2,0001-00-0001-75.png,0003-00-0001-11.png
00000014,146,1,1447954858705,1447954859259,874,475,0,0,0,4,2,2,6,0004-00-0000-33.png,0003-00-0000-47.png
00000014,147,1,1447954860194,1447954860870,905,453,0,0,0,4,1,3,5,0004-00-0000-73.png,0005-00-0000-30.png
00000014,148,0,1447954861766,1447954862262,401,461,0,0,0,3,2,1,5,0002-00-0001-56.png,0003-00-0001-28.png
00000014,149,1,1447954865523,1447954865976,903,376,0,0,0,2,0,2,2,0003-00-0000-25.png,0001-00-0000-04.png
00000014,150,0,1447954866809,1447954867390,902,469,0,0,0,2,4,2,6,0003-00-0000-00.png,0004-00-0001-76.png
00000014,151,1,1447954870330,1447954870929,936,449,0,0,0,3,1,2,4,0002-00-0000-94.png,0005-00-0000-20.png
00000014,152,1,1447954871792,1447954872279,376,450,0,0,0,3,4,1,7,0002-00-0000-07.png,0004-00-0001-27.png
00000014,153,1,1447954873175,1447954873901,897,510,0,0,0,4,0,4,4,0004-00-0001-11.png,0001-00-0001-24.png
00000014,154,1,1447954874751,1447954875372,912,450,0,0,0,4,3,1,7,0004-00-0000-20.png,0002-00-0001-45.png
00000014,155,0,1447954876245,1447954877214,917,418,0,0,0,1,3,2,4,0005-00-0001-72.png,0002-00-0000-36.png
00000014,156,1,1447954880077,1447954880557,401,411,0,0,0,0,1,1,1,0001-00-0001-13.png,0005-00-0000-52.png
00000014,157,1,1447954881820,1447954882254,926,450,0,0,0,1,0,1,1,0005-00-0001-88.png,0001-00-0000-70.png
00000014,158,1,1447954883193,1447954883809,970,442,0,0,0,3,0,3,3,0002-00-0001-29.png,0001-00-0001-66.png
00000014,159,1,1447954884762,1447954885201,388,463,0,0,0,1,4,3,5,0005-00-0000-51.png,0004-00-0001-38.png
00000014,160,1,1447954886082,1447954886616,373,416,0,0,0,1,2,1,3,0005-00-0001-99.png,0003-00-0000-84.png
00000014,161,0,1447954887545,1447954888136,901,488,0,0,0,1,2,1,3,0005-00-0000-27.png,0003-00-0001-72.png
00000014,162,0,1447954891064,1447954891618,883,545,0,0,0,0,1,1,1,0001-00-0001-15.png,0005-00-0001-96.png
00000014,163,1,1447954895210,1447954895731,341,359,0,0,0,1,3,2,4,0005-00-0000-96.png,0002-00-0000-14.png
00000014,164,1,1447954896737,1447954897231,926,461,0,0,0,1,0,1,1,0005-00-0001-46.png,0001-00-0000-85.png
00000014,165,1,1447954898094,1447954898632,395,488,0,0,0,1,4,3,5,0005-00-0000-30.png,0004-00-0001-39.png
00000014,166,1,1447954899551,1447954900066,924,484,0,0,0,2,0,2,2,0003-00-0000-38.png,0001-00-0000-11.png
00000014,167,1,1447954901011,1447954901453,330,437,0,0,0,0,3,3,3,0001-00-0000-69.png,0002-00-0000-39.png
00000014,168,0,1447954902320,1447954903043,903,493,0,0,0,2,3,1,5,0003-00-0000-65.png,0002-00-0001-16.png
00000014,169,0,1447954906351,1447954906799,980,403,0,0,0,2,4,2,6,0003-00-0001-74.png,0004-00-0001-42.png
00000014,170,1,1447954909668,1447954910135,950,404,0,0,0,4,3,1,7,0004-00-0001-37.png,0002-00-0001-61.png
00000014,171,1,1447954911466,1447954911956,913,476,0,0,0,3,0,3,3,0002-00-0000-50.png,0001-00-0000-50.png
00000014,172,1,1447954912939,1447954913362,344,434,0,0,0,0,4,4,4,0001-00-0001-79.png,0004-00-0000-80.png
00000014,173,1,1447954914259,1447954914815,913,500,0,0,0,2,1,1,3,0003-00-0000-69.png,0005-00-0000-58.png
00000014,174,1,1447954915800,1447954916243,363,449,0,0,0,0,2,2,2,0001-00-0000-10.png,0003-00-0001-04.png
00000014,175,1,1447954917150,1447954917714,901,462,0,0,0,4,0,4,4,0004-00-0001-50.png,0001-00-0000-37.png
00000014,176,0,1447954918743,1447954919211,365,442,0,0,0,4,2,2,6,0004-00-0000-52.png,0003-00-0001-82.png
00000014,177,0,1447954923410,1447954923815,925,462,0,0,0,3,4,1,7,0002-00-0000-41.png,0004-00-0001-93.png
00000014,178,1,1447954926959,1447954927425,881,513,0,0,0,3,1,2,4,0002-00-0001-12.png,0005-00-0000-58.png
00000014,179,0,1447954928321,1447954928923,375,398,0,0,0,3,2,1,5,0002-00-0000-30.png,0003-00-0001-30.png
00000014,180,1,1447954931940,1447954932444,927,475,0,0,0,4,1,3,5,0004-00-0001-05.png,0005-00-0001-67.png
00000014,181,1,1447954933359,1447954933841,430,551,0,0,0,2,4,2,6,0003-00-0001-79.png,0004-00-0000-15.png
00000014,182,1,1447954934751,1447954935373,870,550,0,0,0,3,2,1,5,0002-00-0001-80.png,0003-00-0001-49.png
00000014,183,1,1447954936312,1447954936998,889,501,0,0,0,4,1,3,5,0004-00-0001-26.png,0005-00-0000-62.png
00000014,184,1,1447954937869,1447954938486,406,462,0,0,0,2,3,1,5,0003-00-0000-29.png,0002-00-0000-03.png
00000014,185,1,1447954939431,1447954939928,470,454,0,0,0,0,4,4,4,0001-00-0001-62.png,0004-00-0001-59.png
00000014,186,1,1447954940869,1447954941582,900,489,0,0,0,2,1,1,3,0003-00-0001-11.png,0005-00-0001-95.png
00000014,187,1,1447954942936,1447954943470,418,434,0,0,0,1,4,3,5,0005-00-0000-76.png,0004-00-0001-94.png
00000014,188,1,1447954944379,1447954944985,903,468,0,0,0,4,0,4,4,0004-00-0000-75.png,0001-00-0000-36.png
00000014,189,1,1447954945900,1447954946475,896,498,0,0,0,2,0,2,2,0003-00-0001-92.png,0001-00-0000-23.png
00000014,190,1,1447954947369,1447954947873,462,554,0,0,0,0,3,3,3,0001-00-0001-95.png,0002-00-0000-36.png
00000014,191,0,1447954948781,1447954949483,891,453,0,0,0,1,2,1,3,0005-00-0000-83.png,0003-00-0000-20.png
00000014,192,1,1447954952895,1447954953364,925,457,0,0,0,1,0,1,1,0005-00-0000-96.png,0001-00-0000-78.png
00000014,193,1,1447954954202,1447954954743,432,474,0,0,0,1,3,2,4,0005-00-0000-43.png,0002-00-0001-77.png
00000014,194,1,1447954955709,1447954956494,876,486,0,0,0,3,1,2,4,0002-00-0000-18.png,0005-00-0000-41.png
00000014,195,1,1447954957387,1447954958017,898,480,0,0,0,4,3,1,7,0004-00-0001-18.png,0002-00-0000-69.png
00000014,196,0,1447954958947,1447954960083,901,409,0,0,0,0,2,2,2,0001-00-0000-43.png,0003-00-0001-79.png
00000014,197,0,1447954962982,1447954963420,420,463,0,0,0,4,2,2,6,0004-00-0000-97.png,0003-00-0001-81.png
00000014,198,1,1447954966408,1447954966866,938,450,0,0,0,3,0,3,3,0002-00-0000-86.png,0001-00-0000-87.png
00000014,199,1,1447954967741,1447954968232,414,488,0,0,0,0,1,1,1,0001-00-0001-32.png,0005-00-0001-39.png
00000014,200,1,1447954969061,1447954969553,408,469,0,0,0,3,4,1,7,0002-00-0001-91.png,0004-00-0001-31.png
00000014,201,1,1447954970545,1447954971086,900,489,0,0,0,4,0,4,4,0004-00-0000-88.png,0001-00-0000-81.png
00000014,202,1,1447954972067,1447954972650,900,463,0,0,0,3,2,1,5,0002-00-0000-53.png,0003-00-0001-36.png
00000014,203,1,1447954973646,1447954974146,464,462,0,0,0,0,1,1,1,0001-00-0000-89.png,0005-00-0000-52.png
00000014,204,1,1447954975116,1447954975572,401,450,0,0,0,1,4,3,5,0005-00-0000-20.png,0004-00-0000-13.png
00000014,205,0,1447954976506,1447954977099,376,450,0,0,0,2,1,1,3,0003-00-0001-32.png,0005-00-0000-59.png
00000014,206,0,1447954980204,1447954980669,936,451,0,0,0,2,3,1,5,0003-00-0000-43.png,0002-00-0001-31.png
00000014,207,1,1447954983781,1447954984201,964,423,0,0,0,1,0,1,1,0005-00-0000-41.png,0001-00-0000-62.png
00000014,208,1,1447954985135,1447954985731,430,447,0,0,0,2,4,2,6,0003-00-0000-87.png,0004-00-0000-84.png
00000014,209,0,1447954986675,1447954987355,387,369,0,0,0,3,1,2,4,0002-00-0000-62.png,0005-00-0001-27.png
00000014,210,1,1447954990460,1447954990928,350,422,0,0,0,0,4,4,4,0001-00-0000-57.png,0004-00-0001-32.png
00000014,211,1,1447954991973,1447954992516,389,406,0,0,0,0,2,2,2,0001-00-0000-02.png,0003-00-0001-86.png
00000014,212,0,1447954993443,1447954993846,418,454,0,0,0,4,2,2,6,0004-00-0001-42.png,0003-00-0001-42.png
00000014,213,1,1447954996881,1447954997426,388,412,0,0,0,3,4,1,7,0002-00-0000-97.png,0004-00-0001-68.png
00000014,214,0,1447954998418,1447954998952,413,476,0,0,0,4,1,3,5,0004-00-0000-12.png,0005-00-0000-85.png
00000014,215,0,1447955002109,1447955002557,455,448,0,0,0,4,3,1,7,0004-00-0001-01.png,0002-00-0001-13.png
00000014,216,1,1447955005698,1447955006183,430,439,0,0,0,1,3,2,4,0005-00-0001-15.png,0002-00-0000-33.png
00000014,217,1,1447955007456,1447955007880,420,427,0,0,0,1,2,1,3,0005-00-0001-40.png,0003-00-0000-52.png
00000014,218,1,1447955008701,1447955009530,926,462,0,0,0,3,0,3,3,0002-00-0000-59.png,0001-00-0000-00.png
00000014,219,1,1447955010395,1447955011003,901,496,0,0,0,2,0,2,2,0003-00-0001-98.png,0001-00-0001-71.png
00000014,220,1,1447955011864,1447955012353,343,427,0,0,0,0,3,3,3,0001-00-0001-45.png,0002-00-0000-05.png
00000014,221,0,1447955013527,1447955014086,875,515,0,0,0,2,3,1,5,0003-00-0001-65.png,0002-00-0000-80.png
00000014,222,1,1447955020505,1447955020814,376,410,0,0,0,0,1,1,1,0001-00-0000-20.png,0005-00-0001-39.png
00000014,223,1,1447955021736,1447955022692,427,451,0,0,0,0,3,3,3,0001-00-0001-24.png,0002-00-0000-55.png
00000014,224,0,1447955023572,1447955024050,403,476,0,0,0,4,1,3,5,0004-00-0001-33.png,0005-00-0001-26.png
00000014,225,1,1447955059660,1447955066552,205,457,0,0,0,0,2,2,2,0001-00-0000-74.png,0003-00-0000-88.png
00000014,226,1,1447955067488,1447955067999,974,497,0,0,0,2,0,2,2,0003-00-0001-28.png,0001-00-0000-25.png
00000014,227,1,1447955069262,1447955069704,917,560,0,0,0,4,3,1,7,0004-00-0001-57.png,0002-00-0001-79.png
00000014,228,1,1447955070862,1447955071439,1003,449,0,0,0,3,1,2,4,0002-00-0000-51.png,0005-00-0001-30.png
00000014,229,1,1447955072268,1447955072812,990,475,0,0,0,1,0,1,1,0005-00-0001-65.png,0001-00-0000-05.png
00000014,230,0,1447955074068,1447955074587,902,502,0,0,0,1,3,2,4,0005-00-0001-60.png,0002-00-0001-21.png
00000014,231,0,1447955086315,1447955086769,427,397,0,0,0,2,1,1,3,0003-00-0000-65.png,0005-00-0000-47.png
00000014,232,1,1447955089662,1447955090029,930,480,0,0,0,3,0,3,3,0002-00-0000-53.png,0001-00-0000-28.png
00000014,233,0,1447955090923,1447955091394,383,446,0,0,0,4,0,4,4,0004-00-0000-59.png,0001-00-0000-01.png
00000014,234,1,1447955095606,1447955096043,953,435,0,0,0,4,2,2,6,0004-00-0000-52.png,0003-00-0000-57.png
00000014,235,0,1447955097157,1447955097592,376,475,0,0,0,3,2,1,5,0002-00-0001-35.png,0003-00-0001-34.png
00000014,236,1,1447955101799,1447955102211,376,345,0,0,0,0,4,4,4,0001-00-0001-59.png,0004-00-0001-89.png
00000014,237,1,1447955103121,1447955103522,453,489,0,0,0,1,2,1,3,0005-00-0000-05.png,0003-00-0001-96.png
00000014,238,0,1447955104730,1447955105184,926,488,0,0,0,2,4,2,6,0003-00-0000-84.png,0004-00-0000-15.png
00000014,239,0,1447955110136,1447955110589,977,424,0,0,0,3,4,1,7,0002-00-0001-99.png,0004-00-0001-15.png
00000014,240,1,1447955113872,1447955114454,413,378,0,0,0,1,4,3,5,0005-00-0001-53.png,0004-00-0000-59.png
00000014,241,1,1447955115419,1447955115941,364,423,0,0,0,1,3,2,4,0005-00-0000-90.png,0002-00-0001-93.png
00000014,242,1,1447955116813,1447955117329,943,485,0,0,0,2,0,2,2,0003-00-0001-89.png,0001-00-0001-68.png
00000014,243,0,1447955118144,1447955118661,926,487,0,0,0,2,3,1,5,0003-00-0001-73.png,0002-00-0000-23.png
00000014,244,1,1447955122331,1447955122753,366,432,0,0,0,1,2,1,3,0005-00-0001-40.png,0003-00-0000-96.png
00000014,245,0,1447955124047,1447955124446,427,395,0,0,0,3,2,1,5,0002-00-0000-18.png,0003-00-0001-48.png
00000014,246,1,1447955128492,1447955128928,922,498,0,0,0,3,0,3,3,0002-00-0001-89.png,0001-00-0000-61.png
00000014,247,1,1447955129865,1447955130345,927,487,0,0,0,4,1,3,5,0004-00-0001-72.png,0005-00-0000-53.png
00000014,248,0,1447955136076,1447955136541,939,441,0,0,0,1,4,3,5,0005-00-0001-29.png,0004-00-0000-45.png
00000014,249,0,1447955140006,1447955140442,464,463,0,0,0,4,3,1,7,0004-00-0001-04.png,0002-00-0001-65.png
00000014,250,1,1447955143867,1447955144263,369,373,0,0,0,0,3,3,3,0001-00-0001-26.png,0002-00-0000-07.png
00000014,251,1,1447955145169,1447955145624,376,464,0,0,0,0,4,4,4,0001-00-0001-33.png,0004-00-0000-12.png
00000014,252,1,1447955147245,1447955147699,407,391,0,0,0,2,4,2,6,0003-00-0000-84.png,0004-00-0001-38.png
00000014,253,0,1447955148577,1447955149156,900,488,0,0,0,3,4,1,7,0002-00-0001-34.png,0004-00-0000-49.png
00000014,254,1,1447955152339,1447955152783,927,387,0,0,0,4,0,4,4,0004-00-0001-25.png,0001-00-0001-48.png
00000014,255,1,1447955153666,1447955154211,406,420,0,0,0,0,1,1,1,0001-00-0000-06.png,0005-00-0000-83.png
00000014,256,0,1447955155474,1447955155911,472,479,0,0,0,4,2,2,6,0004-00-0001-59.png,0003-00-0000-36.png
00000014,257,1,1447955160074,1447955160526,440,424,0,0,0,0,2,2,2,0001-00-0000-07.png,0003-00-0001-22.png
00000014,258,0,1447955161437,1447955161963,382,428,0,0,0,2,1,1,3,0003-00-0001-19.png,0005-00-0001-64.png
00000014,259,0,1447955164953,1447955165488,414,378,0,0,0,1,0,1,1,0005-00-0001-62.png,0001-00-0001-25.png
00000014,260,1,1447955168483,1447955168927,965,411,0,0,0,3,1,2,4,0002-00-0000-31.png,0005-00-0001-59.png
00000014,261,1,1447955169792,1447955170342,861,555,0,0,0,3,2,1,5,0002-00-0000-96.png,0003-00-0001-07.png
00000014,262,1,1447955171226,1447955171659,350,461,0,0,0,0,3,3,3,0001-00-0000-56.png,0002-00-0000-66.png
00000014,263,1,1447955172503,1447955173082,931,480,0,0,0,1,0,1,1,0005-00-0001-65.png,0001-00-0001-20.png
00000014,264,1,1447955173925,1447955174562,872,458,0,0,0,3,1,2,4,0002-00-0001-79.png,0005-00-0001-36.png
00000014,265,0,1447955175470,1447955175925,440,489,0,0,0,4,2,2,6,0004-00-0001-52.png,0003-00-0001-34.png
00000014,266,1,1447955179207,1447955179629,953,410,0,0,0,4,0,4,4,0004-00-0001-15.png,0001-00-0000-98.png
00000014,267,1,1447955180478,1447955180952,342,453,0,0,0,1,2,1,3,0005-00-0001-40.png,0003-00-0000-43.png
00000014,268,1,1447955181797,1447955182245,439,476,0,0,0,0,1,1,1,0001-00-0001-74.png,0005-00-0001-91.png
00000014,269,0,1447955183150,1447955183695,919,483,0,0,0,2,4,2,6,0003-00-0000-76.png,0004-00-0000-83.png
00000014,270,0,1447955186545,1447955186996,395,417,0,0,0,4,3,1,7,0004-00-0000-56.png,0002-00-0001-76.png
00000014,271,0,1447955190368,1447955190823,899,517,0,0,0,2,3,1,5,0003-00-0001-94.png,0002-00-0000-23.png
00000014,272,0,1447955194065,1447955194089,520,473,0,0,0,4,1,3,5,0004-00-0000-23.png,0005-00-0000-45.png
00000014,273,1,1447955197304,1447955197762,417,442,0,0,0,0,2,2,2,0001-00-0000-49.png,0003-00-0000-95.png
00000014,274,1,1447955198735,1447955199257,872,444,0,0,0,3,0,3,3,0002-00-0001-93.png,0001-00-0000-19.png
00000014,275,1,1447955200206,1447955200711,943,470,0,0,0,2,0,2,2,0003-00-0001-09.png,0001-00-0000-28.png
00000014,276,1,1447955201636,1447955202197,889,475,0,0,0,2,1,1,3,0003-00-0000-46.png,0005-00-0001-54.png
00000014,277,1,1447955203097,1447955203515,343,428,0,0,0,0,4,4,4,0001-00-0001-25.png,0004-00-0000-24.png
00000014,278,0,1447955204415,1447955205125,902,468,0,0,0,3,4,1,7,0002-00-0000-80.png,0004-00-0001-95.png
00000014,279,1,1447955209179,1447955209666,368,401,0,0,0,1,4,3,5,0005-00-0001-88.png,0004-00-0000-99.png
00000014,280,1,1447955210621,1447955211396,350,410,0,0,0,1,3,2,4,0005-00-0000-77.png,0002-00-0001-92.png
00000014,281,1,1447955212317,1447955212859,902,494,0,0,0,2,0,2,2,0003-00-0000-11.png,0001-00-0001-02.png
00000014,282,1,1447955213742,1447955214511,887,554,0,0,0,2,1,1,3,0003-00-0001-42.png,0005-00-0001-33.png
00000014,283,1,1447955215407,1447955215831,314,440,0,0,0,0,1,1,1,0001-00-0001-86.png,0005-00-0000-46.png
00000014,284,0,1447955216691,1447955217260,896,498,0,0,0,3,4,1,7,0002-00-0000-72.png,0004-00-0000-62.png
00000014,285,1,1447955220301,1447955220785,401,500,0,0,0,1,2,1,3,0005-00-0000-78.png,0003-00-0001-59.png
00000014,286,0,1447955221701,1447955222178,367,428,0,0,0,1,0,1,1,0005-00-0001-91.png,0001-00-0001-90.png
00000014,287,1,1447955225329,1447955225813,369,400,0,0,0,0,4,4,4,0001-00-0001-35.png,0004-00-0001-69.png
00000014,288,0,1447955226759,1447955227327,926,481,0,0,0,2,4,2,6,0003-00-0001-67.png,0004-00-0000-93.png
00000014,289,1,1447955230339,1447955230980,429,366,0,0,0,1,3,2,4,0005-00-0001-75.png,0002-00-0001-81.png
00000014,290,0,1447955231936,1447955232391,382,472,0,0,0,4,2,2,6,0004-00-0001-16.png,0003-00-0001-69.png
00000014,291,1,1447955235451,1447955236129,899,501,0,0,0,4,1,3,5,0004-00-0001-01.png,0005-00-0001-87.png
00000014,292,1,1447955237095,1447955237870,381,412,0,0,0,2,3,1,5,0003-00-0001-05.png,0002-00-0000-48.png
00000014,293,1,1447955238795,1447955239213,376,476,0,0,0,0,2,2,2,0001-00-0000-61.png,0003-00-0001-07.png
00000014,294,1,1447955240085,1447955240600,927,502,0,0,0,4,0,4,4,0004-00-0000-26.png,0001-00-0001-58.png
00000014,295,1,1447955241486,1447955241910,418,461,0,0,0,1,4,3,5,0005-00-0000-90.png,0004-00-0000-82.png
00000014,296,1,1447955242784,1447955248712,915,527,0,0,0,4,3,1,7,0004-00-0001-73.png,0002-00-0001-58.png
00000014,297,1,1447955249676,1447955250241,887,399,0,0,0,3,2,1,5,0002-00-0000-70.png,0003-00-0001-74.png
00000014,298,1,1447955251605,1447955259746,504,358,0,0,0,0,3,3,3,0001-00-0000-41.png,0002-00-0001-14.png
00000014,299,0,1447955261244,1447955261688,404,421,0,0,0,3,1,2,4,0002-00-0001-30.png,0005-00-0000-32.png
00000014,300,1,1447955264584,1447955265057,926,528,0,0,0,3,0,3,3,0002-00-0000-03.png,0001-00-0001-02.png
00000014,301,1,1447955266093,1447955275168,351,330,0,0,0,2,3,1,5,0003-00-0000-86.png,0002-00-0000-11.png
00000014,302,0,1447955277082,1447955277559,900,540,0,0,0,1,4,3,5,0005-00-0001-52.png,0004-00-0001-07.png
00000014,303,0,1447955280434,1447955282173,376,501,0,0,0,1,0,1,1,0005-00-0000-00.png,0001-00-0000-38.png
00000014,304,0,1447955285524,1447955285967,401,421,0,0,0,3,2,1,5,0002-00-0000-03.png,0003-00-0001-28.png
00000014,305,1,1447955289824,1447955290265,369,400,0,0,0,0,3,3,3,0001-00-0001-94.png,0002-00-0000-30.png
00000014,306,1,1447955291730,1447955292212,950,508,0,0,0,4,0,4,4,0004-00-0001-50.png,0001-00-0001-19.png
00000014,307,1,1447955293492,1447955294129,888,538,0,0,0,4,3,1,7,0004-00-0001-05.png,0002-00-0001-55.png
00000014,308,1,1447955295204,1447955295787,872,563,0,0,0,2,1,1,3,0003-00-0001-60.png,0005-00-0001-71.png
00000014,309,1,1447955296666,1447955297226,381,462,0,0,0,1,3,2,4,0005-00-0001-90.png,0002-00-0000-86.png
00000014,310,1,1447955298124,1447955298617,414,475,0,0,0,1,2,1,3,0005-00-0000-31.png,0003-00-0001-76.png
00000014,311,1,1447955299496,1447955300049,880,480,0,0,0,4,2,2,6,0004-00-0001-31.png,0003-00-0001-22.png
00000014,312,1,1447955300937,1447955301625,867,468,0,0,0,3,1,2,4,0002-00-0000-28.png,0005-00-0001-24.png
00000014,313,1,1447955302527,1447955303100,899,463,0,0,0,4,1,3,5,0004-00-0000-21.png,0005-00-0001-30.png
00000014,314,1,1447955304029,1447955304502,431,452,0,0,0,0,2,2,2,0001-00-0001-37.png,0003-00-0000-96.png
00000014,315,1,1447955305379,1447955305905,427,450,0,0,0,3,4,1,7,0002-00-0000-70.png,0004-00-0000-80.png
00000014,316,1,1447955306754,1447955307218,401,448,0,0,0,0,1,1,1,0001-00-0001-68.png,0005-00-0001-76.png
00000014,317,1,1447955308221,1447955308839,908,481,0,0,0,3,0,3,3,0002-00-0000-10.png,0001-00-0000-82.png
00000014,318,1,1447955309761,1447955310217,401,554,0,0,0,0,4,4,4,0001-00-0000-41.png,0004-00-0000-37.png
00000014,319,1,1447955311192,1447955311694,918,495,0,0,0,2,0,2,2,0003-00-0000-17.png,0001-00-0000-55.png
00000014,320,0,1447955312603,1447955313120,869,480,0,0,0,2,4,2,6,0003-00-0001-60.png,0004-00-0001-76.png
00000014,321,1,1447955316480,1447955317194,970,417,0,0,0,3,0,3,3,0002-00-0000-92.png,0001-00-0000-27.png
00000014,322,1,1447955318189,1447955318682,369,453,0,0,0,2,4,2,6,0003-00-0001-55.png,0004-00-0001-49.png
00000014,323,1,1447955319538,1447955320145,903,487,0,0,0,1,0,1,1,0005-00-0001-91.png,0001-00-0001-26.png
00000014,324,0,1447955321049,1447955321515,401,462,0,0,0,4,2,2,6,0004-00-0001-17.png,0003-00-0001-28.png
00000014,325,1,1447955325259,1447955325704,338,382,0,0,0,0,2,2,2,0001-00-0001-45.png,0003-00-0001-43.png
00000014,326,0,1447955327054,1447955327574,928,495,0,0,0,1,3,2,4,0005-00-0000-97.png,0002-00-0000-23.png
00000014,327,1,1447955330929,1447955331366,899,509,0,0,0,2,0,2,2,0003-00-0001-57.png,0001-00-0000-25.png
00000014,328,0,1447955332347,1447955332925,415,554,0,0,0,4,1,3,5,0004-00-0000-78.png,0005-00-0000-38.png
00000014,329,1,1447955336080,1447955336556,369,388,0,0,0,0,1,1,1,0001-00-0000-54.png,0005-00-0000-33.png
00000014,330,1,1447955337867,1447955338331,415,423,0,0,0,0,4,4,4,0001-00-0001-82.png,0004-00-0000-39.png
00000014,331,1,1447955339259,1447955339783,440,449,0,0,0,1,2,1,3,0005-00-0001-84.png,0003-00-0000-57.png
00000014,332,1,1447955340650,1447955341383,900,527,0,0,0,4,0,4,4,0004-00-0001-63.png,0001-00-0001-23.png
00000014,333,0,1447955342285,1447955342874,874,465,0,0,0,2,3,1,5,0003-00-0000-94.png,0002-00-0001-67.png
00000014,334,1,1447955345747,1447955346355,375,426,0,0,0,1,4,3,5,0005-00-0001-44.png,0004-00-0000-55.png
00000014,335,1,1447955347384,1447955347938,928,470,0,0,0,4,3,1,7,0004-00-0001-71.png,0002-00-0000-26.png
00000014,336,0,1447955348854,1447955349454,453,436,0,0,0,2,1,1,3,0003-00-0001-01.png,0005-00-0001-03.png
00000014,337,1,1447955352899,1447955353363,900,423,0,0,0,3,1,2,4,0002-00-0001-42.png,0005-00-0001-39.png
00000014,338,1,1447955354390,1447955354830,405,421,0,0,0,3,4,1,7,0002-00-0001-15.png,0004-00-0001-02.png
00000014,339,1,1447955355819,1447955356342,912,477,0,0,0,3,2,1,5,0002-00-0001-21.png,0003-00-0001-79.png
00000014,340,1,1447955357249,1447955357733,412,475,0,0,0,0,3,3,3,0001-00-0000-88.png,0002-00-0000-95.png
00000014,341,1,1447955358693,1447955359304,926,489,0,0,0,3,1,2,4,0002-00-0001-88.png,0005-00-0001-60.png
00000014,342,1,1447955360213,1447955360792,900,475,0,0,0,3,0,3,3,0002-00-0000-48.png,0001-00-0001-70.png
00000014,343,1,1447955361694,1447955362274,888,490,0,0,0,4,2,2,6,0004-00-0000-13.png,0003-00-0001-80.png
00000014,344,1,1447955363163,1447955363839,879,480,0,0,0,4,3,1,7,0004-00-0001-60.png,0002-00-0001-63.png
00000014,345,0,1447955364757,1447955365216,478,476,0,0,0,4,0,4,4,0004-00-0001-64.png,0001-00-0000-34.png
00000014,346,0,1447955368770,1447955369218,955,441,0,0,0,2,4,2,6,0003-00-0000-46.png,0004-00-0000-98.png
00000014,347,1,1447955372110,1447955372665,877,519,0,0,0,2,1,1,3,0003-00-0001-15.png,0005-00-0000-77.png
00000014,348,1,1447955373660,1447955374104,427,449,0,0,0,1,2,1,3,0005-00-0001-48.png,0003-00-0001-63.png
00000014,349,0,1447955375082,1447955375629,920,467,0,0,0,3,4,1,7,0002-00-0001-53.png,0004-00-0000-55.png
00000014,350,0,1447955379076,1447955379528,931,473,0,0,0,0,3,3,3,0001-00-0001-54.png,0002-00-0001-19.png
00000014,351,1,1447955383449,1447955384093,964,423,0,0,0,4,1,3,5,0004-00-0001-89.png,0005-00-0000-26.png
00000014,352,1,1447955385116,1447955385660,926,476,0,0,0,2,0,2,2,0003-00-0000-13.png,0001-00-0001-25.png
00000014,353,1,1447955386585,1447955387020,427,449,0,0,0,0,4,4,4,0001-00-0001-69.png,0004-00-0001-57.png
00000014,354,1,1447955387987,1447955388469,369,472,0,0,0,0,2,2,2,0001-00-0001-58.png,0003-00-0000-47.png
00000014,355,0,1447955389410,1447955390003,903,489,0,0,0,2,3,1,5,0003-00-0001-49.png,0002-00-0001-75.png
00000014,356,0,1447955393235,1447955393683,389,396,0,0,0,3,2,1,5,0002-00-0000-78.png,0003-00-0001-26.png
00000014,357,0,1447955396722,1447955397258,950,413,0,0,0,1,3,2,4,0005-00-0000-01.png,0002-00-0000-04.png
00000014,358,1,1447955400311,1447955401012,427,372,0,0,0,1,4,3,5,0005-00-0000-41.png,0004-00-0000-37.png
00000014,359,1,1447955402050,1447955402614,939,476,0,0,0,1,0,1,1,0005-00-0000-67.png,0001-00-0001-02.png
00000014,360,1,1447955403440,1447955404390,401,410,0,0,0,0,1,1,1,0001-00-0000-62.png,0005-00-0000-20.png
00000014,361,1,1447955405359,1447955406093,918,495,0,0,0,2,1,1,3,0003-00-0001-71.png,0005-00-0000-79.png
00000014,362,0,1447955407019,1447955407647,436,566,0,0,0,4,1,3,5,0004-00-0000-95.png,0005-00-0000-50.png
00000014,363,1,1447955410783,1447955411250,927,424,0,0,0,1,0,1,1,0005-00-0001-38.png,0001-00-0001-46.png
00000014,364,0,1447955412257,1447955412694,439,488,0,0,0,4,3,1,7,0004-00-0001-66.png,0002-00-0001-16.png
00000014,365,0,1447955416342,1447955416860,928,441,0,0,0,2,3,1,5,0003-00-0001-88.png,0002-00-0001-39.png
00000014,366,1,1447955419810,1447955420484,973,419,0,0,0,3,2,1,5,0002-00-0001-11.png,0003-00-0000-23.png
00000014,367,1,1447955421490,1447955421874,401,449,0,0,0,0,1,1,1,0001-00-0001-58.png,0005-00-0001-84.png
00000014,368,1,1447955422851,1447955423605,375,398,0,0,0,1,3,2,4,0005-00-0001-09.png,0002-00-0001-64.png
00000014,369,1,1447955424552,1447955425133,868,555,0,0,0,2,0,2,2,0003-00-0001-06.png,0001-00-0001-40.png
00000014,370,0,1447955426040,1447955426467,419,453,0,0,0,3,0,3,3,0002-00-0000-23.png,0001-00-0000-92.png
00000014,371,1,1447955429582,1447955430024,370,498,0,0,0,0,4,4,4,0001-00-0001-13.png,0004-00-0001-82.png
00000014,372,1,1447955431032,1447955431482,383,479,0,0,0,1,4,3,5,0005-00-0000-18.png,0004-00-0000-80.png
00000014,373,1,1447955432424,1447955433051,887,476,0,0,0,3,1,2,4,0002-00-0001-84.png,0005-00-0001-70.png
00000014,374,1,1447955433985,1447955434421,350,449,0,0,0,0,2,2,2,0001-00-0001-77.png,0003-00-0001-23.png
00000014,375,1,1447955435384,1447955435853,401,450,0,0,0,1,2,1,3,0005-00-0000-41.png,0003-00-0000-97.png
00000014,376,1,1447955436807,1447955437418,410,467,0,0,0,2,4,2,6,0003-00-0001-09.png,0004-00-0001-21.png
00000014,377,1,1447955438385,1447955439267,398,394,0,0,0,0,3,3,3,0001-00-0001-21.png,0002-00-0000-40.png
00000014,378,1,1447955440225,1447955440838,924,510,0,0,0,4,0,4,4,0004-00-0001-91.png,0001-00-0001-81.png
00000014,379,0,1447955441728,1447955442291,447,561,0,0,0,4,2,2,6,0004-00-0001-02.png,0003-00-0001-89.png
00000014,380,1,1447955445176,1447955445745,414,404,0,0,0,3,4,1,7,0002-00-0001-85.png,0004-00-0000-48.png
00000014,381,0,1447955446827,1447955447259,392,458,0,0,0,4,1,3,5,0004-00-0000-12.png,0005-00-0000-66.png
00000014,382,0,1447955450324,1447955450384,515,462,0,0,0,3,2,1,5,0002-00-0000-55.png,0003-00-0000-34.png
00000014,383,1,1447955453525,1447955453988,951,412,0,0,0,4,0,4,4,0004-00-0001-05.png,0001-00-0001-72.png
00000014,384,1,1447955455007,1447955455426,349,423,0,0,0,0,1,1,1,0001-00-0000-69.png,0005-00-0000-66.png
00000014,385,0,1447955456398,1447955456836,427,436,0,0,0,4,2,2,6,0004-00-0000-47.png,0003-00-0001-63.png
00000014,386,0,1447955459683,1447955459715,488,410,0,0,0,1,0,1,1,0005-00-0000-18.png,0001-00-0001-52.png
00000014,387,1,1447955463142,1447955463679,367,386,0,0,0,0,4,4,4,0001-00-0000-02.png,0004-00-0000-51.png
00000014,388,1,1447955464654,1447955465145,390,454,0,0,0,0,2,2,2,0001-00-0000-96.png,0003-00-0001-59.png
00000014,389,0,1447955466059,1447955466610,915,481,0,0,0,3,4,1,7,0002-00-0000-92.png,0004-00-0000-10.png
00000014,390,1,1447955469776,1447955470250,928,444,0,0,0,4,3,1,7,0004-00-0001-68.png,0002-00-0001-45.png
00000014,391,0,1447955471256,1447955471744,416,484,0,0,0,2,1,1,3,0003-00-0000-69.png,0005-00-0001-43.png
00000014,392,0,1447955474918,1447955475565,965,449,0,0,0,1,3,2,4,0005-00-0001-28.png,0002-00-0001-55.png
00000014,393,1,1447955478491,1447955478946,343,374,0,0,0,2,3,1,5,0003-00-0000-76.png,0002-00-0000-90.png
00000014,394,1,1447955479894,1447955480322,357,400,0,0,0,0,3,3,3,0001-00-0001-98.png,0002-00-0001-11.png
00000014,395,0,1447955481222,1447955481931,358,423,0,0,0,3,0,3,3,0002-00-0001-10.png,0001-00-0000-97.png
00000014,396,0,1447955485210,1447955485658,939,423,0,0,0,2,4,2,6,0003-00-0001-28.png,0004-00-0000-28.png
00000014,397,1,1447955488821,1447955489298,931,427,0,0,0,2,0,2,2,0003-00-0000-33.png,0001-00-0000-07.png
00000014,398,1,1447955490626,1447955491352,947,445,0,0,0,3,1,2,4,0002-00-0001-43.png,0005-00-0000-97.png
00000014,399,0,1447955492386,1447955492999,929,468,0,0,0,1,4,3,5,0005-00-0001-08.png,0004-00-0001-36.png
00000014,400,1,1447955496164,1447955496732,404,348,0,0,0,1,2,1,3,0005-00-0000-32.png,0003-00-0001-73.png
00000014,401,1,1447955497762,1447955498279,900,501,0,0,0,2,0,2,2,0003-00-0000-76.png,0001-00-0000-54.png
00000014,402,1,1447955499204,1447955499663,445,480,0,0,0,1,2,1,3,0005-00-0000-40.png,0003-00-0000-49.png
00000014,403,1,1447955500590,1447955501117,914,475,0,0,0,3,0,3,3,0002-00-0001-54.png,0001-00-0001-40.png
00000014,404,1,1447955502187,1447955502729,913,502,0,0,0,1,0,1,1,0005-00-0000-74.png,0001-00-0001-42.png
00000014,405,1,1447955503605,1447955504040,366,438,0,0,0,0,1,1,1,0001-00-0001-17.png,0005-00-0001-27.png
00000014,406,1,1447955504946,1447955505613,874,464,0,0,0,4,1,3,5,0004-00-0000-79.png,0005-00-0001-91.png
00000014,407,1,1447955506527,1447955507159,896,472,0,0,0,3,1,2,4,0002-00-0001-05.png,0005-00-0001-54.png
00000014,408,1,1447955508148,1447955508630,376,462,0,0,0,1,4,3,5,0005-00-0001-97.png,0004-00-0001-82.png
00000014,409,1,1447955509588,1447955510050,401,474,0,0,0,0,4,4,4,0001-00-0000-52.png,0004-00-0000-68.png
00000014,410,1,1447955511010,1447955511535,900,475,0,0,0,4,0,4,4,0004-00-0001-90.png,0001-00-0000-94.png
00000014,411,0,1447955512531,1447955513583,901,424,0,0,0,2,4,2,6,0003-00-0000-85.png,0004-00-0000-56.png
00000014,412,1,1447955516721,1447955517188,901,450,0,0,0,2,1,1,3,0003-00-0000-23.png,0005-00-0000-23.png
00000014,413,0,1447955518235,1447955518681,424,471,0,0,0,4,3,1,7,0004-00-0001-01.png,0002-00-0000-26.png
00000014,414,0,1447955521832,1447955522455,376,384,0,0,0,4,2,2,6,0004-00-0000-65.png,0003-00-0001-24.png
00000014,415,0,1447955525569,1447955526095,941,475,0,0,0,2,3,1,5,0003-00-0000-89.png,0002-00-0000-50.png
00000014,416,1,1447955528965,1447955528985,517,384,0,0,0,0,3,3,3,0001-00-0001-63.png,0002-00-0000-49.png
00000014,417,1,1447955530001,1447955530440,401,514,0,0,0,0,2,2,2,0001-00-0000-30.png,0003-00-0000-67.png
00000014,418,0,1447955531504,1447955531895,436,470,0,0,0,3,2,1,5,0002-00-0001-61.png,0003-00-0001-99.png
00000014,419,1,1447955535341,1447955535907,416,521,0,0,0,1,3,2,4,0005-00-0000-94.png,0002-00-0001-01.png
00000014,420,0,1447955536961,1447955537520,871,418,0,0,0,3,4,1,7,0002-00-0000-37.png,0004-00-0000-05.png
00000014,421,1,1447955540589,1447955541040,948,420,0,0,0,3,2,1,5,0002-00-0001-78.png,0003-00-0001-31.png
00000014,422,0,1447955542046,1447955542563,395,464,0,0,0,4,2,2,6,0004-00-0000-53.png,0003-00-0000-70.png
00000014,423,1,1447955545914,1447955546486,1003,423,0,0,0,4,3,1,7,0004-00-0001-72.png,0002-00-0000-61.png
00000014,424,1,1447955547892,1447955548391,923,457,0,0,0,4,0,4,4,0004-00-0000-56.png,0001-00-0001-93.png
00000014,425,1,1447955549482,1447955550001,391,456,0,0,0,0,4,4,4,0001-00-0001-29.png,0004-00-0001-85.png
00000014,426,1,1447955550891,1447955551503,392,434,0,0,0,0,3,3,3,0001-00-0001-75.png,0002-00-0001-16.png
00000014,427,0,1447955552503,1447955553113,884,460,0,0,0,1,3,2,4,0005-00-0001-74.png,0002-00-0000-67.png
00000014,428,0,1447955556608,1447955557099,925,464,0,0,0,2,3,1,5,0003-00-0000-81.png,0002-00-0000-40.png
00000014,429,1,1447955560074,1447955560604,950,483,0,0,0,4,1,3,5,0004-00-0001-36.png,0005-00-0001-60.png
00000014,430,1,1447955561623,1447955562079,433,438,0,0,0,0,1,1,1,0001-00-0001-60.png,0005-00-0001-30.png
00000014,431,0,1447955563058,1447955563485,399,448,0,0,0,3,1,2,4,0002-00-0001-65.png,0005-00-0001-42.png
00000014,432,1,1447955566674,1447955567208,344,435,0,0,0,0,2,2,2,0001-00-0001-14.png,0003-00-0000-79.png
00000014,433,0,1447955568533,1447955569034,942,514,0,0,0,3,4,1,7,0002-00-0000-47.png,0004-00-0000-80.png
00000014,434,1,1447955572101,1447955572663,418,402,0,0,0,2,4,2,6,0003-00-0000-88.png,0004-00-0001-22.png
00000014,435,1,1447955574258,1447955574889,399,396,0,0,0,1,2,1,3,0005-00-0000-53.png,0003-00-0000-17.png
00000014,436,1,1447955576367,1447955576985,898,560,0,0,0,1,0,1,1,0005-00-0001-23.png,0001-00-0001-10.png
00000014,437,0,1447955577936,1447955578527,453,384,0,0,0,3,0,3,3,0002-00-0000-22.png,0001-00-0000-52.png
00000014,438,0,1447955581525,1447955582040,888,410,0,0,0,1,4,3,5,0005-00-0000-66.png,0004-00-0001-74.png
00000014,439,1,1447955585212,1447955585670,926,449,0,0,0,2,1,1,3,0003-00-0000-56.png,0005-00-0001-91.png
00000014,440,1,1447955586612,1447955587268,925,475,0,0,0,2,0,2,2,0003-00-0000-20.png,0001-00-0000-27.png
00000014,441,0,1447955588232,1447955588654,510,556,0,0,0,1,0,1,1,0005-00-0000-55.png,0001-00-0000-22.png
00000014,442,1,1447955591701,1447955592190,951,422,0,0,0,3,2,1,5,0002-00-0001-19.png,0003-00-0001-87.png
00000014,443,1,1447955593153,1447955593562,350,398,0,0,0,0,3,3,3,0001-00-0001-86.png,0002-00-0001-61.png
00000014,444,0,1447955594673,1447955595380,383,439,0,0,0,2,1,1,3,0003-00-0000-00.png,0005-00-0000-75.png
00000014,445,1,1447955598428,1447955598890,951,476,0,0,0,3,0,3,3,0002-00-0001-87.png,0001-00-0000-56.png
00000014,446,1,1447955600168,1447955600866,402,513,0,0,0,2,3,1,5,0003-00-0000-69.png,0002-00-0000-42.png
00000014,447,1,1447955601838,1447955602950,427,409,0,0,0,1,4,3,5,0005-00-0001-46.png,0004-00-0001-90.png
00000014,448,0,1447955603892,1447955604502,904,514,0,0,0,2,4,2,6,0003-00-0000-20.png,0004-00-0000-22.png
00000014,449,0,1447955607701,1447955608508,949,435,0,0,0,3,4,1,7,0002-00-0000-79.png,0004-00-0001-17.png
00000014,450,1,1447955611797,1447955612310,337,398,0,0,0,1,3,2,4,0005-00-0000-09.png,0002-00-0000-86.png
00000014,451,0,1447955613297,1447955613731,417,456,0,0,0,4,3,1,7,0004-00-0000-84.png,0002-00-0001-55.png
00000014,452,1,1447955616726,1447955617328,951,423,0,0,0,4,1,3,5,0004-00-0001-75.png,0005-00-0000-04.png
00000014,453,1,1447955618407,1447955619104,878,403,0,0,0,4,0,4,4,0004-00-0001-07.png,0001-00-0001-89.png
00000014,454,1,1447955619940,1447955620355,401,556,0,0,0,0,4,4,4,0001-00-0001-73.png,0004-00-0001-44.png
00000014,455,1,1447955621280,1447955621760,394,479,0,0,0,1,2,1,3,0005-00-0000-46.png,0003-00-0001-25.png
00000014,456,1,1447955622729,1447955623603,889,475,0,0,0,3,1,2,4,0002-00-0001-74.png,0005-00-0001-58.png
00000014,457,1,1447955624577,1447955625096,928,496,0,0,0,2,0,2,2,0003-00-0001-32.png,0001-00-0001-44.png
00000014,458,1,1447955626010,1447955626466,350,464,0,0,0,0,1,1,1,0001-00-0000-28.png,0005-00-0001-86.png
00000014,459,1,1447955627639,1447955628117,401,462,0,0,0,0,2,2,2,0001-00-0000-87.png,0003-00-0001-16.png
00000014,460,1,1447955629090,1447955629662,862,476,0,0,0,4,2,2,6,0004-00-0001-87.png,0003-00-0001-23.png
00000014,461,1,1447955630544,1447955631132,875,501,0,0,0,3,0,3,3,0002-00-0000-80.png,0001-00-0000-44.png
00000014,462,1,1447955632080,1447955632535,424,497,0,0,0,3,4,1,7,0002-00-0000-14.png,0004-00-0000-51.png
00000014,463,1,1447955633470,1447955633921,436,476,0,0,0,0,1,1,1,0001-00-0001-96.png,0005-00-0000-44.png
00000014,464,0,1447955634870,1447955635404,391,469,0,0,0,4,2,2,6,0004-00-0000-22.png,0003-00-0001-51.png
00000014,465,1,1447955639405,1447955640084,950,410,0,0,0,3,2,1,5,0002-00-0001-05.png,0003-00-0001-92.png
00000014,466,1,1447955641084,1447955641650,925,465,0,0,0,2,0,2,2,0003-00-0000-13.png,0001-00-0001-39.png
00000014,467,1,1447955642488,1447955642922,398,471,0,0,0,0,4,4,4,0001-00-0001-93.png,0004-00-0001-25.png
00000014,468,0,1447955643814,1447955644386,377,446,0,0,0,4,3,1,7,0004-00-0001-04.png,0002-00-0000-72.png
00000014,469,1,1447955647274,1447955647859,401,410,0,0,0,1,2,1,3,0005-00-0001-42.png,0003-00-0000-15.png
00000014,470,0,1447955648965,1447955649581,901,527,0,0,0,2,4,2,6,0003-00-0000-77.png,0004-00-0000-71.png
00000014,471,1,1447955652782,1447955653245,413,449,0,0,0,0,3,3,3,0001-00-0001-16.png,0002-00-0001-73.png
00000014,472,1,1447955654481,1447955654963,937,476,0,0,0,1,0,1,1,0005-00-0000-12.png,0001-00-0001-85.png
00000014,473,0,1447955655819,1447955656560,947,498,0,0,0,2,3,1,5,0003-00-0000-23.png,0002-00-0001-95.png
00000014,474,1,1447955659470,1447955659994,394,414,0,0,0,1,4,3,5,0005-00-0000-61.png,0004-00-0001-71.png
00000014,475,1,1447955661002,1447955661544,897,481,0,0,0,2,1,1,3,0003-00-0001-42.png,0005-00-0000-45.png
00000014,476,1,1447955662423,1447955663127,912,449,0,0,0,4,1,3,5,0004-00-0001-82.png,0005-00-0001-62.png
00000014,477,1,1447955664039,1447955664488,406,437,0,0,0,0,2,2,2,0001-00-0000-49.png,0003-00-0000-48.png
00000014,478,1,1447955665362,1447955665934,887,476,0,0,0,3,1,2,4,0002-00-0000-31.png,0005-00-0000-65.png
00000014,479,1,1447955666874,1447955667404,901,487,0,0,0,4,0,4,4,0004-00-0000-04.png,0001-00-0000-60.png
00000014,480,1,1447955668394,1447955668888,376,462,0,0,0,1,3,2,4,0005-00-0001-70.png,0002-00-0000-50.png
00000014,481,0,1447955669825,1447955670436,402,449,0,0,0,4,2,2,6,0004-00-0000-53.png,0003-00-0000-86.png
00000014,482,0,1447955673722,1447955674188,897,537,0,0,0,2,4,2,6,0003-00-0001-69.png,0004-00-0000-56.png
00000014,483,1,1447955677130,1447955677588,341,376,0,0,0,0,2,2,2,0001-00-0000-98.png,0003-00-0000-63.png
00000014,484,1,1447955678583,1447955679278,900,490,0,0,0,3,1,2,4,0002-00-0000-59.png,0005-00-0000-01.png
00000014,485,0,1447955680148,1447955680562,406,441,0,0,0,1,0,1,1,0005-00-0001-35.png,0001-00-0001-21.png
00000014,486,1,1447955683709,1447955684203,397,393,0,0,0,0,3,3,3,0001-00-0000-08.png,0002-00-0000-42.png
00000014,487,0,1447955685230,1447955686118,872,518,0,0,0,3,4,1,7,0002-00-0000-94.png,0004-00-0001-99.png
00000014,488,0,1447955689275,1447955689750,926,449,0,0,0,2,3,1,5,0003-00-0000-22.png,0002-00-0001-39.png
00000014,489,0,1447955692882,1447955693485,380,364,0,0,0,3,0,3,3,0002-00-0001-51.png,0001-00-0000-08.png
00000014,490,1,1447955696390,1447955696924,951,438,0,0,0,4,0,4,4,0004-00-0001-35.png,0001-00-0001-22.png
00000014,491,1,1447955697810,1447955698247,372,445,0,0,0,0,1,1,1,0001-00-0000-05.png,0005-00-0001-02.png
00000014,492,1,1447955699193,1447955699760,897,456,0,0,0,2,0,2,2,0003-00-0000-18.png,0001-00-0000-63.png
00000014,493,0,1447955700664,1447955701274,875,476,0,0,0,1,3,2,4,0005-00-0001-88.png,0002-00-0000-78.png
00000014,494,1,1447955705691,1447955706154,362,424,0,0,0,0,4,4,4,0001-00-0000-62.png,0004-00-0000-42.png
00000014,495,0,1447955707371,1447955707908,929,467,0,0,0,1,4,3,5,0005-00-0000-87.png,0004-00-0001-46.png
00000014,496,1,1447955710746,1447955711235,975,404,0,0,0,4,3,1,7,0004-00-0000-80.png,0002-00-0001-38.png
00000014,497,0,1447955712190,1447955712718,373,437,0,0,0,4,1,3,5,0004-00-0001-27.png,0005-00-0001-85.png
00000014,498,1,1447955715914,1447955716408,924,458,0,0,0,2,1,1,3,0003-00-0000-54.png,0005-00-0001-31.png
00000014,499,1,1447955717319,1447955717741,401,455,0,0,0,1,2,1,3,0005-00-0001-05.png,0003-00-0001-39.png
00000014,500,0,1447955718597,1447955719062,388,450,0,0,0,3,2,1,5,0002-00-0000-95.png,0003-00-0001-51.png
00000014,501,1,1447955722568,1447955722580,520,428,0,0,0,0,4,4,4,0001-00-0000-92.png,0004-00-0000-10.png
00000014,502,1,1447955723552,1447955724217,927,521,0,0,0,3,1,2,4,0002-00-0000-27.png,0005-00-0001-41.png
00000014,503,0,1447955725065,1447955725485,363,423,0,0,0,3,0,3,3,0002-00-0000-70.png,0001-00-0001-62.png
00000014,504,1,1447955728439,1447955730079,406,350,0,0,0,1,2,1,3,0005-00-0000-91.png,0003-00-0001-89.png
00000014,505,1,1447955731015,1447955731582,898,508,0,0,0,2,1,1,3,0003-00-0001-21.png,0005-00-0000-83.png
00000014,506,1,1447955732515,1447955733029,440,476,0,0,0,0,3,3,3,0001-00-0000-64.png,0002-00-0001-10.png
00000014,507,1,1447955733906,1447955734640,898,483,0,0,0,4,0,4,4,0004-00-0000-30.png,0001-00-0001-09.png
00000014,508,0,1447955735606,1447955736445,925,490,0,0,0,2,4,2,6,0003-00-0000-70.png,0004-00-0001-20.png
00000014,509,1,1447955740984,1447955741532,390,385,0,0,0,2,3,1,5,0003-00-0000-89.png,0002-00-0001-51.png
00000014,510,1,1447955742520,1447955742934,384,472,0,0,0,3,4,1,7,0002-00-0000-01.png,0004-00-0000-03.png
00000014,511,1,1447955743826,1447955744494,367,417,0,0,0,1,4,3,5,0005-00-0000-08.png,0004-00-0001-62.png
00000014,512,0,1447955745373,1447955745811,409,472,0,0,0,4,1,3,5,0004-00-0000-86.png,0005-00-0001-71.png
00000014,513,0,1447955749550,1447955749980,424,418,0,0,0,4,2,2,6,0004-00-0000-62.png,0003-00-0001-08.png
00000014,514,0,1447955752894,1447955753475,446,417,0,0,0,3,2,1,5,0002-00-0001-66.png,0003-00-0001-52.png
00000014,515,1,1447955756485,1447955757070,898,491,0,0,0,2,0,2,2,0003-00-0001-50.png,0001-00-0001-31.png
00000014,516,1,1447955758087,1447955758530,442,468,0,0,0,0,1,1,1,0001-00-0001-91.png,0005-00-0000-00.png
00000014,517,0,1447955759488,1447955760298,416,532,0,0,0,4,3,1,7,0004-00-0000-22.png,0002-00-0000-11.png
00000014,518,1,1447955764349,1447955764768,337,345,0,0,0,0,2,2,2,0001-00-0001-77.png,0003-00-0000-01.png
00000014,519,1,1447955765977,1447955766441,921,493,0,0,0,1,0,1,1,0005-00-0001-94.png,0001-00-0001-21.png
00000014,520,1,1447955767327,1447955767743,406,447,0,0,0,1,3,2,4,0005-00-0001-66.png,0002-00-0001-78.png
00000014,521,1,1447955768680,1447955769126,409,486,0,0,0,0,4,4,4,0001-00-0001-10.png,0004-00-0001-35.png
00000014,522,1,1447955770068,1447955770716,927,493,0,0,0,3,1,2,4,0002-00-0001-47.png,0005-00-0001-25.png
00000014,523,0,1447955771639,1447955772240,880,453,0,0,0,2,4,2,6,0003-00-0000-95.png,0004-00-0000-36.png
00000014,524,1,1447955776054,1447955776526,442,469,0,0,0,0,2,2,2,0001-00-0000-39.png,0003-00-0000-70.png
00000014,525,1,1447955777444,1447955777952,889,501,0,0,0,2,1,1,3,0003-00-0000-43.png,0005-00-0000-83.png
00000014,526,1,1447955778866,1447955779373,890,458,0,0,0,4,0,4,4,0004-00-0000-66.png,0001-00-0000-74.png
00000014,527,1,1447955780285,1447955780701,434,455,0,0,0,1,3,2,4,0005-00-0001-55.png,0002-00-0000-31.png
00000014,528,1,1447955781622,1447955782083,354,438,0,0,0,0,3,3,3,0001-00-0001-47.png,0002-00-0000-16.png
00000014,529,0,1447955782952,1447955783453,439,449,0,0,0,3,2,1,5,0002-00-0001-33.png,0003-00-0001-55.png
00000014,530,1,1447955786759,1447955787173,386,402,0,0,0,1,2,1,3,0005-00-0001-48.png,0003-00-0001-25.png
00000014,531,1,1447955788089,1447955788708,927,495,0,0,0,4,3,1,7,0004-00-0001-38.png,0002-00-0000-69.png
00000014,532,1,1447955789629,1447955790131,901,488,0,0,0,3,0,3,3,0002-00-0000-45.png,0001-00-0000-67.png
00000014,533,0,1447955791030,1447955791611,888,475,0,0,0,2,3,1,5,0003-00-0000-53.png,0002-00-0000-42.png
00000014,534,1,1447955794824,1447955795248,933,469,0,0,0,2,0,2,2,0003-00-0000-84.png,0001-00-0000-43.png
00000014,535,1,1447955796137,1447955796603,384,445,0,0,0,3,4,1,7,0002-00-0000-96.png,0004-00-0001-38.png
00000014,536,0,1447955797479,1447955798001,419,482,0,0,0,4,2,2,6,0004-00-0001-13.png,0003-00-0001-46.png
00000014,537,1,1447955801803,1447955802256,427,424,0,0,0,0,1,1,1,0001-00-0000-09.png,0005-00-0000-49.png
00000014,538,1,1447955803194,1447955804088,913,449,0,0,0,4,1,3,5,0004-00-0001-94.png,0005-00-0000-68.png
00000014,539,1,1447955804971,1447955805468,874,541,0,0,0,1,0,1,1,0005-00-0000-90.png,0001-00-0001-97.png
00000014,540,1,1447955806330,1447955806836,381,460,0,0,0,1,4,3,5,0005-00-0001-83.png,0004-00-0001-98.png
00000014,541,1,1447955807736,1447955808167,401,449,0,0,0,0,2,2,2,0001-00-0001-27.png,0003-00-0000-51.png
00000014,542,1,1447955809116,1447955809599,396,488,0,0,0,0,1,1,1,0001-00-0001-49.png,0005-00-0001-92.png
00000014,543,0,1447955810528,1447955811120,898,491,0,0,0,3,4,1,7,0002-00-0000-60.png,0004-00-0001-31.png
00000014,544,1,1447955816609,1447955817162,915,546,0,0,0,2,1,1,3,0003-00-0000-21.png,0005-00-0001-21.png
00000014,545,1,1447955818130,1447955818550,427,476,0,0,0,1,2,1,3,0005-00-0000-84.png,0003-00-0001-65.png
00000014,546,1,1447955819462,1447955820028,879,480,0,0,0,4,1,3,5,0004-00-0000-04.png,0005-00-0000-83.png
00000014,547,1,1447955834932,1447955835374,413,344,0,0,0,1,3,2,4,0005-00-0000-38.png,0002-00-0001-61.png
00000014,548,1,1447955836601,1447955837353,433,359,0,0,0,2,4,2,6,0003-00-0001-50.png,0004-00-0000-17.png
00000014,549,1,1447955838290,1447955838897,932,468,0,0,0,4,2,2,6,0004-00-0000-91.png,0003-00-0000-17.png
00000014,550,1,1447955839779,1447955840278,418,443,0,0,0,0,4,4,4,0001-00-0001-60.png,0004-00-0001-11.png
00000014,551,0,1447955841141,1447955841613,413,436,0,0,0,3,0,3,3,0002-00-0001-48.png,0001-00-0000-43.png
00000014,552,1,1447955844612,1447955845044,939,424,0,0,0,2,0,2,2,0003-00-0000-20.png,0001-00-0001-16.png
00000014,553,0,1447955845921,1447955846492,926,501,0,0,0,1,4,3,5,0005-00-0001-76.png,0004-00-0001-64.png
00000014,554,1,1447955850201,1447955850666,945,459,0,0,0,3,1,2,4,0002-00-0001-36.png,0005-00-0000-39.png
00000014,555,1,1447955851667,1447955852066,363,428,0,0,0,0,3,3,3,0001-00-0001-68.png,0002-00-0001-13.png
00000014,556,0,1447955852947,1447955853518,901,487,0,0,0,2,3,1,5,0003-00-0001-18.png,0002-00-0000-13.png
00000014,557,0,1447955856536,1447955857036,386,455,0,0,0,3,2,1,5,0002-00-0000-89.png,0003-00-0000-26.png
00000014,558,1,1447955860662,1447955861135,950,432,0,0,0,1,0,1,1,0005-00-0001-09.png,0001-00-0000-10.png
00000014,559,1,1447955862440,1447955863111,925,475,0,0,0,4,3,1,7,0004-00-0001-38.png,0002-00-0000-83.png
00000014,560,1,1447955864150,1447955864613,912,502,0,0,0,4,0,4,4,0004-00-0000-94.png,0001-00-0000-97.png
00000014,561,0,1447955865521,1447955866081,877,486,0,0,0,2,3,1,5,0003-00-0000-71.png,0002-00-0000-07.png
00000014,562,1,1447955869570,1447955870181,353,383,0,0,0,0,2,2,2,0001-00-0000-47.png,0003-00-0000-99.png
00000014,563,0,1447955871256,1447955871758,376,436,0,0,0,3,2,1,5,0002-00-0001-84.png,0003-00-0001-51.png
00000014,564,1,1447955874863,1447955875377,427,413,0,0,0,3,4,1,7,0002-00-0000-76.png,0004-00-0000-82.png
00000014,565,1,1447955876640,1447955877128,350,450,0,0,0,0,3,3,3,0001-00-0001-00.png,0002-00-0001-17.png
00000014,566,1,1447955878084,1447955878645,900,475,0,0,0,2,0,2,2,0003-00-0000-62.png,0001-00-0001-48.png
00000014,567,0,1447955879623,1447955880243,877,495,0,0,0,1,4,3,5,0005-00-0001-92.png,0004-00-0001-84.png
00000014,568,1,1447955883250,1447955883776,954,469,0,0,0,3,0,3,3,0002-00-0000-80.png,0001-00-0000-32.png
00000014,569,0,1447955884691,1447955885232,900,463,0,0,0,1,3,2,4,0005-00-0001-82.png,0002-00-0000-46.png
00000014,570,1,1447955888078,1447955888579,888,436,0,0,0,1,0,1,1,0005-00-0000-43.png,0001-00-0001-63.png
00000014,571,0,1447955889479,1447955890006,930,480,0,0,0,2,4,2,6,0003-00-0001-17.png,0004-00-0000-64.png
00000014,572,1,1447955893444,1447955894161,923,434,0,0,0,2,1,1,3,0003-00-0000-11.png,0005-00-0001-67.png
00000014,573,0,1447955895242,1447955896005,422,399,0,0,0,4,3,1,7,0004-00-0001-60.png,0002-00-0000-77.png
00000014,574,1,1447955899445,1447955899849,440,450,0,0,0,0,4,4,4,0001-00-0000-74.png,0004-00-0001-80.png
00000014,575,1,1447955900866,1447955901341,325,423,0,0,0,0,1,1,1,0001-00-0000-69.png,0005-00-0000-10.png
00000014,576,1,1447955902229,1447955902757,453,514,0,0,0,1,2,1,3,0005-00-0001-54.png,0003-00-0001-65.png
00000014,577,1,1447955903690,1447955904226,933,500,0,0,0,4,0,4,4,0004-00-0001-10.png,0001-00-0001-69.png
00000014,578,0,1447955905129,1447955905598,383,480,0,0,0,3,1,2,4,0002-00-0001-44.png,0005-00-0000-11.png
00000014,579,0,1447955921603,1447955922044,380,340,0,0,0,4,2,2,6,0004-00-0001-13.png,0003-00-0000-39.png
00000014,580,1,1447955925220,1447955925697,901,553,0,0,0,4,1,3,5,0004-00-0000-86.png,0005-00-0001-30.png
00000014,581,0,1447955926960,1447955927454,926,488,0,0,0,2,3,1,5,0003-00-0001-98.png,0002-00-0000-00.png
00000014,582,1,1447955930557,1447955931033,436,563,0,0,0,0,1,1,1,0001-00-0001-20.png,0005-00-0001-33.png
00000014,583,1,1447955932261,1447955933118,899,528,0,0,0,4,1,3,5,0004-00-0001-98.png,0005-00-0000-86.png
00000014,584,1,1447955934114,1447955934724,940,499,0,0,0,4,3,1,7,0004-00-0001-48.png,0002-00-0000-81.png
00000014,585,1,1447955935554,1447955936269,874,516,0,0,0,4,2,2,6,0004-00-0001-34.png,0003-00-0000-27.png
00000014,586,1,1447955937138,1447955937757,390,411,0,0,0,0,2,2,2,0001-00-0000-53.png,0003-00-0001-09.png
00000014,587,1,1447955938658,1447955939225,900,491,0,0,0,4,0,4,4,0004-00-0000-15.png,0001-00-0001-75.png
00000014,588,1,1447955940108,1447955940597,392,480,0,0,0,1,2,1,3,0005-00-0000-36.png,0003-00-0001-58.png
00000014,589,1,1447955941520,1447955942139,369,431,0,0,0,3,4,1,7,0002-00-0001-31.png,0004-00-0001-84.png
00000014,590,1,1447955943047,1447955943530,455,503,0,0,0,0,3,3,3,0001-00-0001-58.png,0002-00-0001-33.png
00000014,591,0,1447955944432,1447955945062,902,491,0,0,0,2,4,2,6,0003-00-0001-44.png,0004-00-0001-77.png
00000014,592,1,1447955948424,1447955948863,950,489,0,0,0,2,0,2,2,0003-00-0000-97.png,0001-00-0001-06.png
00000014,593,0,1447955949846,1447955950432,913,475,0,0,0,1,3,2,4,0005-00-0000-47.png,0002-00-0001-51.png
00000014,594,0,1447955953603,1447955954128,393,392,0,0,0,3,0,3,3,0002-00-0000-38.png,0001-00-0001-22.png
00000014,595,0,1447955958829,1447955959354,430,460,0,0,0,3,1,2,4,0002-00-0000-09.png,0005-00-0000-59.png
00000014,596,0,1447955964042,1447955964663,955,490,0,0,0,1,4,3,5,0005-00-0000-75.png,0004-00-0000-96.png
00000014,597,1,1447955968691,1447955969206,951,463,0,0,0,1,0,1,1,0005-00-0001-35.png,0001-00-0000-13.png
00000014,598,0,1447955970408,1447955971322,406,488,0,0,0,3,2,1,5,0002-00-0000-83.png,0003-00-0000-26.png
00000014,599,1,1447955975239,1447955975716,888,488,0,0,0,2,1,1,3,0003-00-0001-84.png,0005-00-0000-75.png
00000014,600,1,1447955976800,1447955977749,407,423,0,0,0,0,4,4,4,0001-00-0000-44.png,0004-00-0000-72.png
00000014,601,1,1447955978746,1447955979323,876,502,0,0,0,1,0,1,1,0005-00-0001-10.png,0001-00-0001-41.png
00000014,602,0,1447955980188,1447955980646,418,493,0,0,0,4,1,3,5,0004-00-0000-17.png,0005-00-0001-47.png
00000014,603,0,1447955984230,1447955984826,979,493,0,0,0,1,4,3,5,0005-00-0000-93.png,0004-00-0000-61.png
00000014,604,1,1447955988246,1447955988858,952,487,0,0,0,4,3,1,7,0004-00-0000-16.png,0002-00-0001-18.png
00000014,605,1,1447955989861,1447955990249,414,494,0,0,0,0,1,1,1,0001-00-0001-44.png,0005-00-0001-03.png
00000014,606,0,1447955991129,1447955991726,875,475,0,0,0,3,4,1,7,0002-00-0001-69.png,0004-00-0000-09.png
00000014,607,1,1447955994589,1447955995200,964,476,0,0,0,3,1,2,4,0002-00-0001-26.png,0005-00-0000-06.png
00000014,608,0,1447955996200,1447955996721,394,501,0,0,0,3,2,1,5,0002-00-0001-35.png,0003-00-0001-84.png
00000014,609,1,1447955999767,1447956000260,416,430,0,0,0,0,4,4,4,0001-00-0001-66.png,0004-00-0000-94.png
00000014,610,0,1447956001190,1447956001946,902,494,0,0,0,1,2,1,3,0005-00-0000-38.png,0003-00-0000-09.png
00000014,611,1,1447956004821,1447956005246,913,410,0,0,0,2,0,2,2,0003-00-0000-89.png,0001-00-0000-51.png
00000014,612,0,1447956006576,1447956006993,478,465,0,0,0,4,2,2,6,0004-00-0001-60.png,0003-00-0000-71.png
00000014,613,0,1447956011964,1447956012461,951,489,0,0,0,1,3,2,4,0005-00-0000-47.png,0002-00-0000-74.png
00000014,614,1,1447956015591,1447956016181,940,475,0,0,0,4,0,4,4,0004-00-0000-00.png,0001-00-0000-04.png
00000014,615,1,1447956017090,1447956018174,376,395,0,0,0,2,3,1,5,0003-00-0000-75.png,0002-00-0001-34.png
00000014,616,0,1447956019112,1447956019583,478,462,0,0,0,3,0,3,3,0002-00-0001-86.png,0001-00-0001-51.png
00000014,617,1,1447956023514,1447956023989,358,418,0,0,0,0,2,2,2,0001-00-0000-19.png,0003-00-0000-24.png
00000014,618,0,1447956025245,1447956025765,899,474,0,0,0,2,4,2,6,0003-00-0000-85.png,0004-00-0000-61.png
00000014,619,1,1447956028990,1447956029457,925,463,0,0,0,2,1,1,3,0003-00-0000-38.png,0005-00-0000-18.png
00000014,620,1,1447956030638,1447956031081,356,463,0,0,0,0,3,3,3,0001-00-0000-89.png,0002-00-0000-45.png
00000014,621,0,1447956031999,1447956032750,873,457,0,0,0,0,4,4,4,0001-00-0000-43.png,0004-00-0000-85.png
00000014,622,1,1447956035834,1447956036438,899,554,0,0,0,4,3,1,7,0004-00-0000-27.png,0002-00-0001-19.png
00000014,623,1,1447956037474,1447956038110,875,476,0,0,0,2,1,1,3,0003-00-0000-65.png,0005-00-0000-07.png
00000014,624,1,1447956038955,1447956039404,423,470,0,0,0,1,3,2,4,0005-00-0000-18.png,0002-00-0000-66.png
00000014,625,1,1447956040269,1447956040712,381,475,0,0,0,0,2,2,2,0001-00-0001-93.png,0003-00-0001-80.png
00000014,626,1,1447956041639,1447956042227,409,470,0,0,0,3,4,1,7,0002-00-0000-25.png,0004-00-0000-87.png
00000014,627,0,1447956043169,1447956043632,427,488,0,0,0,4,1,3,5,0004-00-0001-92.png,0005-00-0001-51.png
00000014,628,1,1447956047194,1447956047885,876,436,0,0,0,2,0,2,2,0003-00-0000-08.png,0001-00-0000-17.png
00000014,629,0,1447956048803,1447956049357,398,487,0,0,0,4,2,2,6,0004-00-0001-33.png,0003-00-0000-50.png
00000014,630,1,1447956052362,1447956052829,925,456,0,0,0,4,0,4,4,0004-00-0001-05.png,0001-00-0001-39.png
00000014,631,0,1447956054112,1447956054581,925,515,0,0,0,2,3,1,5,0003-00-0000-54.png,0002-00-0000-48.png
00000014,632,1,1447956057421,1447956057833,916,535,0,0,0,1,0,1,1,0005-00-0001-45.png,0001-00-0001-47.png
00000014,633,0,1447956058733,1447956059249,875,490,0,0,0,2,4,2,6,0003-00-0001-39.png,0004-00-0000-25.png
00000014,634,0,1447956062548,1447956063113,421,452,0,0,0,3,1,2,4,0002-00-0001-62.png,0005-00-0000-06.png
00000014,635,1,1447956067417,1447956068110,429,370,0,0,0,0,3,3,3,0001-00-0001-10.png,0002-00-0001-08.png
00000014,636,1,1447956069107,1447956069880,421,420,0,0,0,0,1,1,1,0001-00-0000-26.png,0005-00-0001-95.png
00000014,637,1,1447956070747,1447956071351,415,431,0,0,0,1,4,3,5,0005-00-0001-41.png,0004-00-0001-66.png
00000014,638,0,1447956072338,1447956073015,402,446,0,0,0,3,2,1,5,0002-00-0000-47.png,0003-00-0001-48.png
00000014,639,0,1447956076382,1447956077095,913,436,0,0,0,1,2,1,3,0005-00-0000-60.png,0003-00-0000-58.png
00000014,640,1,1447956080328,1447956080809,921,436,0,0,0,3,0,3,3,0002-00-0001-14.png,0001-00-0001-94.png
00000014,641,1,1447956082107,1447956082680,904,454,0,0,0,3,0,3,3,0002-00-0001-45.png,0001-00-0000-15.png
00000014,642,1,1447956083580,1447956084441,864,469,0,0,0,2,1,1,3,0003-00-0000-97.png,0005-00-0000-66.png
00000014,643,0,1447956085406,1447956086403,453,384,0,0,0,4,3,1,7,0004-00-0000-11.png,0002-00-0001-52.png
00000014,644,1,1447956089530,1447956090056,368,375,0,0,0,1,3,2,4,0005-00-0001-17.png,0002-00-0001-71.png
00000014,645,1,1447956091061,1447956091973,874,554,0,0,0,3,2,1,5,0002-00-0000-38.png,0003-00-0000-08.png
00000014,646,0,1447956092900,1447956093383,453,555,0,0,0,4,0,4,4,0004-00-0000-32.png,0001-00-0001-20.png
00000014,647,1,1447956096377,1447956096862,928,466,0,0,0,1,0,1,1,0005-00-0000-15.png,0001-00-0001-39.png
00000014,648,1,1447956098028,1447956098470,350,464,0,0,0,0,1,1,1,0001-00-0001-69.png,0005-00-0000-32.png
00000014,649,0,1447956099621,1447956100177,903,467,0,0,0,2,3,1,5,0003-00-0001-70.png,0002-00-0001-24.png
00000014,650,1,1447956103693,1447956104280,940,475,0,0,0,2,0,2,2,0003-00-0001-11.png,0001-00-0001-95.png
00000014,651,1,1447956105326,1447956105803,895,493,0,0,0,4,1,3,5,0004-00-0000-42.png,0005-00-0001-89.png
00000014,652,1,1447956106699,1447956107149,401,462,0,0,0,0,3,3,3,0001-00-0001-09.png,0002-00-0001-52.png
00000014,653,1,1447956108017,1447956108707,880,506,0,0,0,3,1,2,4,0002-00-0001-90.png,0005-00-0001-66.png
00000014,654,0,1447956109658,1447956110317,876,468,0,0,0,0,4,4,4,0001-00-0000-64.png,0004-00-0000-39.png
00000014,655,1,1447956113473,1447956113935,359,443,0,0,0,3,4,1,7,0002-00-0000-52.png,0004-00-0001-48.png
00000014,656,1,1447956115047,1447956115515,397,475,0,0,0,0,2,2,2,0001-00-0000-24.png,0003-00-0000-08.png
00000014,657,1,1447956116425,1447956117064,875,462,0,0,0,4,2,2,6,0004-00-0001-54.png,0003-00-0001-06.png
00000014,658,1,1447956118037,1447956118456,453,500,0,0,0,1,2,1,3,0005-00-0001-40.png,0003-00-0000-67.png
00000014,659,1,1447956119406,1447956120688,374,417,0,0,0,2,4,2,6,0003-00-0001-21.png,0004-00-0000-82.png
00000014,660,1,1447956121651,1447956122165,387,478,0,0,0,1,4,3,5,0005-00-0000-83.png,0004-00-0000-38.png
00000014,661,1,1447956123043,1447956123614,878,495,0,0,0,3,0,3,3,0002-00-0000-56.png,0001-00-0000-18.png
00000014,662,0,1447956124544,1447956125144,406,461,0,0,0,4,1,3,5,0004-00-0001-21.png,0005-00-0000-79.png
00000014,663,1,1447956128280,1447956128813,420,443,0,0,0,0,2,2,2,0001-00-0001-02.png,0003-00-0000-38.png
00000014,664,0,1447956130580,1447956131474,376,436,0,0,0,4,0,4,4,0004-00-0001-42.png,0001-00-0000-61.png
00000014,665,0,1447956134592,1447956135083,953,494,0,0,0,1,4,3,5,0005-00-0000-57.png,0004-00-0000-14.png
00000014,666,0,1447956138140,1447956138176,523,551,0,0,0,4,3,1,7,0004-00-0001-07.png,0002-00-0001-42.png
00000014,667,0,1447956141421,1447956141933,880,532,0,0,0,1,3,2,4,0005-00-0000-42.png,0002-00-0001-14.png
00000014,668,0,1447956145146,1447956145620,878,402,0,0,0,2,3,1,5,0003-00-0001-65.png,0002-00-0001-73.png
00000014,669,1,1447956149519,1447956150282,370,397,0,0,0,0,1,1,1,0001-00-0000-50.png,0005-00-0001-53.png
00000014,670,1,1447956151455,1447956151918,913,501,0,0,0,1,0,1,1,0005-00-0000-51.png,0001-00-0000-13.png
00000014,671,0,1447956152799,1447956153404,914,480,0,0,0,3,4,1,7,0002-00-0001-68.png,0004-00-0000-22.png
00000014,672,1,1447956156396,1447956156909,384,401,0,0,0,0,4,4,4,0001-00-0001-19.png,0004-00-0001-74.png
00000014,673,0,1447956158217,1447956158730,407,492,0,0,0,3,2,1,5,0002-00-0000-63.png,0003-00-0001-84.png
00000014,674,0,1447956162619,1447956163348,478,384,0,0,0,2,1,1,3,0003-00-0001-86.png,0005-00-0001-69.png
00000014,675,1,1447956166854,1447956167400,950,439,0,0,0,3,1,2,4,0002-00-0001-29.png,0005-00-0000-08.png
00000014,676,0,1447956168711,1447956169237,919,482,0,0,0,2,4,2,6,0003-00-0000-14.png,0004-00-0001-40.png
00000014,677,1,1447956174569,1447956175055,416,417,0,0,0,0,3,3,3,0001-00-0000-59.png,0002-00-0001-05.png
00000014,678,1,1447956176275,1447956176730,410,457,0,0,0,1,2,1,3,0005-00-0001-31.png,0003-00-0001-85.png
00000014,679,1,1447956177674,1447956178226,873,562,0,0,0,2,0,2,2,0003-00-0000-25.png,0001-00-0000-28.png
00000014,680,0,1447956179204,1447956180034,423,468,0,0,0,4,2,2,6,0004-00-0001-16.png,0003-00-0001-30.png
00000014,681,1,1447956183150,1447956184681,418,507,0,0,0,0,2,2,2,0001-00-0001-21.png,0003-00-0000-90.png
00000014,682,1,1447956185670,1447956186223,915,527,0,0,0,3,1,2,4,0002-00-0000-05.png,0005-00-0000-93.png
00000014,683,1,1447956187119,1447956187530,459,489,0,0,0,1,4,3,5,0005-00-0000-33.png,0004-00-0001-27.png
00000014,684,0,1447956188480,1447956189045,898,482,0,0,0,1,3,2,4,0005-00-0000-05.png,0002-00-0001-24.png
00000014,685,1,1447956192198,1447956192794,900,489,0,0,0,4,3,1,7,0004-00-0001-40.png,0002-00-0000-11.png
00000014,686,1,1447956193946,1447956194400,342,480,0,0,0,0,3,3,3,0001-00-0000-76.png,0002-00-0000-57.png
00000014,687,1,1447956195407,1447956195918,894,481,0,0,0,1,0,1,1,0005-00-0000-58.png,0001-00-0000-54.png
00000014,688,1,1447956196877,1447956197390,413,470,0,0,0,0,1,1,1,0001-00-0001-85.png,0005-00-0000-92.png
00000014,689,0,1447956198368,1447956199031,871,484,0,0,0,2,3,1,5,0003-00-0000-73.png,0002-00-0000-89.png
00000014,690,1,1447956202162,1447956202685,427,461,0,0,0,2,4,2,6,0003-00-0001-53.png,0004-00-0000-72.png
00000014,691,1,1447956203852,1447956204303,387,472,0,0,0,3,4,1,7,0002-00-0001-15.png,0004-00-0001-51.png
00000014,692,0,1447956205284,1447956205877,420,447,0,0,0,4,0,4,4,0004-00-0001-84.png,0001-00-0001-88.png
00000014,693,0,1447956209239,1447956209794,409,419,0,0,0,4,2,2,6,0004-00-0001-63.png,0003-00-0001-24.png
00000014,694,1,1447956213272,1447956213779,926,450,0,0,0,4,1,3,5,0004-00-0001-91.png,0005-00-0001-68.png
00000014,695,1,1447956214767,1447956215372,900,475,0,0,0,2,1,1,3,0003-00-0001-49.png,0005-00-0000-19.png
00000014,696,1,1447956216366,1447956216777,407,410,0,0,0,1,2,1,3,0005-00-0000-18.png,0003-00-0001-00.png
00000014,697,0,1447956217689,1447956218257,416,493,0,0,0,2,0,2,2,0003-00-0000-97.png,0001-00-0000-43.png
00000014,698,1,1447956221135,1447956221597,896,551,0,0,0,3,0,3,3,0002-00-0000-86.png,0001-00-0001-35.png
00000014,699,0,1447956222845,1447956223307,420,505,0,0,0,3,2,1,5,0002-00-0000-65.png,0003-00-0000-96.png
00000014,700,0,1447956226872,1447956227376,913,501,0,0,0,0,4,4,4,0001-00-0000-48.png,0004-00-0000-73.png
00000014,701,0,1447956230826,1447956231283,479,480,0,0,0,4,2,2,6,0004-00-0001-08.png,0003-00-0000-34.png
00000014,702,1,1447956234811,1447956235546,376,397,0,0,0,1,2,1,3,0005-00-0001-71.png,0003-00-0000-35.png
00000014,703,1,1447956236779,1447956237323,907,499,0,0,0,3,0,3,3,0002-00-0001-72.png,0001-00-0001-31.png
00000014,704,1,1447956238479,1447956238984,922,471,0,0,0,2,0,2,2,0003-00-0001-88.png,0001-00-0001-58.png
00000014,705,1,1447956239931,1447956240691,931,480,0,0,0,4,1,3,5,0004-00-0000-65.png,0005-00-0001-47.png
00000014,706,1,1447956241730,1447956242321,903,495,0,0,0,2,1,1,3,0003-00-0000-28.png,0005-00-0001-65.png
00000014,707,1,1447956243230,1447956243678,490,501,0,0,0,3,4,1,7,0002-00-0000-77.png,0004-00-0001-02.png
00000014,708,1,1447956244701,1447956245334,862,436,0,0,0,3,1,2,4,0002-00-0001-35.png,0005-00-0001-60.png
00000014,709,1,1447956246260,1447956246683,404,466,0,0,0,1,3,2,4,0005-00-0001-96.png,0002-00-0001-62.png
00000014,710,0,1447956247663,1447956248322,876,494,0,0,0,2,3,1,5,0003-00-0001-51.png,0002-00-0001-50.png
00000014,711,1,1447956251290,1447956251877,339,384,0,0,0,0,4,4,4,0001-00-0000-83.png,0004-00-0001-88.png
00000014,712,0,1447956252960,1447956253402,418,482,0,0,0,3,2,1,5,0002-00-0000-95.png,0003-00-0000-41.png
00000014,713,1,1447956256565,1447956257275,930,428,0,0,0,4,3,1,7,0004-00-0000-00.png,0002-00-0001-64.png
00000014,714,0,1447956258434,1447956258903,468,519,0,0,0,4,0,4,4,0004-00-0001-71.png,0001-00-0000-84.png
00000014,715,0,1447956261844,1447956262446,919,461,0,0,0,1,4,3,5,0005-00-0000-59.png,0004-00-0001-84.png
00000014,716,1,1447956265630,1447956266116,439,562,0,0,0,0,3,3,3,0001-00-0000-54.png,0002-00-0000-38.png
00000014,717,1,1447956267429,1447956268464,366,408,0,0,0,0,1,1,1,0001-00-0000-73.png,0005-00-0001-32.png
00000014,718,1,1447956269438,1447956269841,350,450,0,0,0,0,2,2,2,0001-00-0001-81.png,0003-00-0000-95.png
00000014,719,1,1447956270758,1447956271306,860,476,0,0,0,1,0,1,1,0005-00-0001-19.png,0001-00-0000-50.png
00000014,720,0,1447956272230,1447956273104,951,474,0,0,0,2,4,2,6,0003-00-0000-12.png,0004-00-0000-03.png
00000014,721,0,1447956276523,1447956277178,889,457,0,0,0,0,1,1,1,0001-00-0000-57.png,0005-00-0001-13.png
00000014,722,0,1447956280477,1447956281112,401,549,0,0,0,4,3,1,7,0004-00-0000-93.png,0002-00-0000-22.png
00000014,723,1,1447956284085,1447956284519,419,402,0,0,0,0,2,2,2,0001-00-0000-94.png,0003-00-0000-54.png
00000014,724,0,1447956285538,1447956286144,940,476,0,0,0,2,3,1,5,0003-00-0000-41.png,0002-00-0001-33.png
00000014,725,1,1447956289116,1447956289678,381,445,0,0,0,0,4,4,4,0001-00-0000-22.png,0004-00-0001-88.png
00000014,726,0,1447956290666,1447956291272,913,528,0,0,0,1,4,3,5,0005-00-0000-76.png,0004-00-0000-52.png
00000014,727,1,1447956294420,1447956294872,913,501,0,0,0,2,1,1,3,0003-00-0001-01.png,0005-00-0001-11.png
00000014,728,1,1447956295834,1447956296291,426,470,0,0,0,0,3,3,3,0001-00-0001-58.png,0002-00-0000-99.png
00000014,729,1,1447956297236,1447956297887,863,475,0,0,0,4,2,2,6,0004-00-0000-84.png,0003-00-0000-28.png
00000014,730,1,1447956298815,1447956299450,875,487,0,0,0,3,1,2,4,0002-00-0001-03.png,0005-00-0000-19.png
00000014,731,1,1447956300374,1447956300885,444,453,0,0,0,3,4,1,7,0002-00-0001-71.png,0004-00-0000-00.png
00000014,732,1,1447956301874,1447956302386,422,444,0,0,0,1,2,1,3,0005-00-0001-76.png,0003-00-0001-00.png
00000014,733,0,1447956303346,1447956303819,453,449,0,0,0,4,1,3,5,0004-00-0000-46.png,0005-00-0000-83.png
00000014,734,0,1447956306892,1447956307373,415,431,0,0,0,1,0,1,1,0005-00-0001-67.png,0001-00-0000-17.png
00000014,735,1,1447956310310,1447956310797,949,481,0,0,0,3,2,1,5,0002-00-0001-26.png,0003-00-0001-32.png
00000014,736,0,1447956311784,1447956312174,427,462,0,0,0,3,0,3,3,0002-00-0000-99.png,0001-00-0000-09.png
00000014,737,1,1447956315539,1447956316021,925,465,0,0,0,2,0,2,2,0003-00-0000-78.png,0001-00-0000-74.png
00000014,738,0,1447956316981,1447956317611,903,495,0,0,0,2,4,2,6,0003-00-0000-30.png,0004-00-0001-13.png
00000014,739,0,1447956320896,1447956321315,920,482,0,0,0,1,3,2,4,0005-00-0001-25.png,0002-00-0000-99.png
00000014,740,1,1447956325171,1447956325605,874,386,0,0,0,4,0,4,4,0004-00-0001-31.png,0001-00-0001-04.png
00000014,741,1,1447956326750,1447956327242,385,478,0,0,0,1,2,1,3,0005-00-0001-92.png,0003-00-0001-83.png
00000014,742,0,1447956328240,1447956328692,925,489,0,0,0,3,4,1,7,0002-00-0001-72.png,0004-00-0000-64.png
00000014,743,1,1447956331591,1447956332495,371,358,0,0,0,1,3,2,4,0005-00-0001-44.png,0002-00-0000-25.png
00000014,744,0,1447956333472,1447956334014,857,448,0,0,0,2,3,1,5,0003-00-0001-43.png,0002-00-0000-76.png
00000014,745,1,1447956337127,1447956337572,871,418,0,0,0,3,1,2,4,0002-00-0000-03.png,0005-00-0000-75.png
00000014,746,1,1447956338848,1447956339401,927,476,0,0,0,4,0,4,4,0004-00-0001-13.png,0001-00-0000-83.png
00000014,747,1,1447956340318,1447956341272,376,522,0,0,0,0,1,1,1,0001-00-0001-64.png,0005-00-0001-78.png
00000014,748,1,1447956342295,1447956342840,908,500,0,0,0,1,0,1,1,0005-00-0001-79.png,0001-00-0001-47.png
00000014,749,1,1447956343709,1447956344318,875,502,0,0,0,2,1,1,3,0003-00-0001-65.png,0005-00-0001-21.png
00000014,750,1,1447956345216,1447956345642,463,450,0,0,0,0,4,4,4,0001-00-0000-12.png,0004-00-0001-09.png
00000014,751,1,1447956346540,1447956347078,901,487,0,0,0,2,0,2,2,0003-00-0000-62.png,0001-00-0001-40.png
00000014,752,1,1447956348108,1447956348583,918,486,0,0,0,3,0,3,3,0002-00-0000-48.png,0001-00-0000-70.png
00000014,753,1,1447956349460,1447956349935,368,453,0,0,0,0,2,2,2,0001-00-0001-41.png,0003-00-0000-56.png
00000014,754,1,1447956350862,1447956351620,872,457,0,0,0,4,2,2,6,0004-00-0001-34.png,0003-00-0000-47.png
00000014,755,0,1447956352533,1447956352954,460,473,0,0,0,3,2,1,5,0002-00-0000-03.png,0003-00-0000-40.png
00000014,756,0,1447956355958,1447956355990,484,445,0,0,0,4,3,1,7,0004-00-0001-05.png,0002-00-0001-00.png
00000014,757,1,1447956359072,1447956359785,365,355,0,0,0,0,3,3,3,0001-00-0000-14.png,0002-00-0001-23.png
00000014,758,0,1447956360830,1447956361724,938,476,0,0,0,1,4,3,5,0005-00-0001-95.png,0004-00-0001-57.png
00000014,759,0,1447956364597,1447956364660,519,509,0,0,0,4,1,3,5,0004-00-0000-68.png,0005-00-0000-49.png
00000014,760,0,1447956367787,1447956368364,935,472,0,0,0,2,4,2,6,0003-00-0001-32.png,0004-00-0000-43.png
00000014,761,1,1447956371221,1447956371686,926,449,0,0,0,2,1,1,3,0003-00-0001-92.png,0005-00-0001-85.png
00000014,762,1,1447956372666,1447956373349,913,476,0,0,0,4,2,2,6,0004-00-0001-16.png,0003-00-0001-55.png
00000014,763,1,1447956374226,1447956374979,427,449,0,0,0,2,3,1,5,0003-00-0001-93.png,0002-00-0000-86.png
00000014,764,0,1447956375995,1447956376406,427,450,0,0,0,3,2,1,5,0002-00-0001-42.png,0003-00-0000-63.png
00000014,765,1,1447956379355,1447956379817,888,397,0,0,0,2,0,2,2,0003-00-0000-72.png,0001-00-0001-65.png
00000014,766,1,1447956380797,1447956381288,913,501,0,0,0,4,1,3,5,0004-00-0000-48.png,0005-00-0000-45.png
00000014,767,1,1447956382247,1447956382853,887,450,0,0,0,3,0,3,3,0002-00-0000-50.png,0001-00-0000-66.png
00000014,768,0,1447956383756,1447956384225,465,475,0,0,0,4,3,1,7,0004-00-0001-40.png,0002-00-0001-01.png
00000014,769,1,1447956387594,1447956388395,350,370,0,0,0,1,2,1,3,0005-00-0001-77.png,0003-00-0000-01.png
00000014,770,1,1447956389381,1447956389851,325,424,0,0,0,0,2,2,2,0001-00-0001-70.png,0003-00-0000-53.png
00000014,771,1,1447956390802,1447956391815,923,430,0,0,0,1,0,1,1,0005-00-0000-79.png,0001-00-0001-18.png
00000014,772,0,1447956392667,1447956393227,877,469,0,0,0,1,3,2,4,0005-00-0000-51.png,0002-00-0000-81.png
00000014,773,0,1447956396170,1447956396790,905,428,0,0,0,2,4,2,6,0003-00-0001-75.png,0004-00-0000-83.png
00000014,774,0,1447956401180,1447956402721,317,373,0,0,0,3,1,2,4,0002-00-0000-12.png,0005-00-0000-98.png
00000014,775,1,1447956405711,1447956406194,900,541,0,0,0,4,0,4,4,0004-00-0000-46.png,0001-00-0000-18.png
00000014,776,1,1447956407419,1447956408202,405,418,0,0,0,0,1,1,1,0001-00-0000-57.png,0005-00-0001-23.png
00000014,777,1,1447956409137,1447956409665,385,450,0,0,0,1,4,3,5,0005-00-0001-97.png,0004-00-0000-02.png
00000014,778,1,1447956410710,1447956411193,375,430,0,0,0,0,4,4,4,0001-00-0001-34.png,0004-00-0000-48.png
00000014,779,1,1447956412148,1447956412661,393,449,0,0,0,0,3,3,3,0001-00-0000-09.png,0002-00-0000-65.png
00000014,780,1,1447956413660,1447956414444,419,407,0,0,0,3,4,1,7,0002-00-0000-37.png,0004-00-0000-42.png
00000014,781,0,1447956415401,1447956415921,442,449,0,0,0,3,2,1,5,0002-00-0001-23.png,0003-00-0000-26.png
00000014,782,1,1447956419000,1447956419490,923,484,0,0,0,2,1,1,3,0003-00-0001-18.png,0005-00-0000-99.png
00000014,783,0,1447956420508,1447956420999,406,477,0,0,0,4,1,3,5,0004-00-0000-86.png,0005-00-0000-67.png
00000014,784,1,1447956424227,1447956424638,379,411,0,0,0,0,2,2,2,0001-00-0000-15.png,0003-00-0000-00.png
00000014,785,1,1447956425630,1447956426241,944,483,0,0,0,3,0,3,3,0002-00-0001-83.png,0001-00-0000-81.png
00000014,786,1,1447956427116,1447956427695,899,489,0,0,0,4,3,1,7,0004-00-0000-40.png,0002-00-0000-70.png
00000014,787,1,1447956428669,1447956429431,872,456,0,0,0,4,2,2,6,0004-00-0000-91.png,0003-00-0001-03.png
00000014,788,1,1447956430307,1447956430710,432,460,0,0,0,1,2,1,3,0005-00-0000-04.png,0003-00-0001-84.png
00000014,789,1,1447956431636,1447956432196,405,471,0,0,0,0,4,4,4,0001-00-0001-03.png,0004-00-0000-98.png
00000014,790,1,1447956433152,1447956433675,893,494,0,0,0,4,0,4,4,0004-00-0001-09.png,0001-00-0000-56.png
00000014,791,0,1447956434581,1447956435301,875,488,0,0,0,2,4,2,6,0003-00-0000-39.png,0004-00-0001-02.png
00000014,792,0,1447956438282,1447956438987,385,443,0,0,0,2,0,2,2,0003-00-0000-15.png,0001-00-0000-53.png
00000014,793,0,1447956442444,1447956442911,915,501,0,0,0,2,3,1,5,0003-00-0000-68.png,0002-00-0001-14.png
00000014,794,1,1447956446097,1447956446117,520,472,0,0,0,3,4,1,7,0002-00-0001-03.png,0004-00-0001-96.png
00000014,795,1,1447956447395,1447956447775,382,461,0,0,0,1,3,2,4,0005-00-0000-19.png,0002-00-0001-55.png
00000014,796,0,1447956448812,1447956449328,875,487,0,0,0,1,4,3,5,0005-00-0000-19.png,0004-00-0000-07.png
00000014,797,1,1447956452377,1447956453046,958,395,0,0,0,3,1,2,4,0002-00-0000-53.png,0005-00-0001-59.png
00000014,798,1,1447956454191,1447956454663,925,501,0,0,0,1,0,1,1,0005-00-0000-83.png,0001-00-0001-19.png
00000014,799,1,1447956455541,1447956456004,427,541,0,0,0,0,3,3,3,0001-00-0000-73.png,0002-00-0001-06.png
00000014,800,1,1447956456963,1447956457499,357,435,0,0,0,0,1,1,1,0001-00-0001-53.png,0005-00-0001-81.png
00000014,801,1,1447956458413,1447956459238,876,513,0,0,0,4,3,1,7,0004-00-0001-14.png,0002-00-0001-90.png
00000014,802,1,1447956460164,1447956460688,927,489,0,0,0,1,0,1,1,0005-00-0001-92.png,0001-00-0000-71.png
00000014,803,0,1447956461516,1447956462096,904,470,0,0,0,1,3,2,4,0005-00-0000-01.png,0002-00-0001-93.png
00000014,804,1,1447956465441,1447956466020,375,437,0,0,0,3,4,1,7,0002-00-0000-38.png,0004-00-0000-01.png
00000014,805,1,1447956467449,1447956468314,901,449,0,0,0,3,2,1,5,0002-00-0001-98.png,0003-00-0001-72.png
00000014,806,1,1447956469337,1447956469772,391,564,0,0,0,0,4,4,4,0001-00-0000-18.png,0004-00-0000-28.png
00000014,807,0,1447956470656,1447956471256,898,483,0,0,0,1,4,3,5,0005-00-0001-89.png,0004-00-0001-85.png
00000014,808,1,1447956474115,1447956474693,878,428,0,0,0,3,1,2,4,0002-00-0000-08.png,0005-00-0001-51.png
00000014,809,1,1447956475921,1447956476406,370,499,0,0,0,0,1,1,1,0001-00-0001-73.png,0005-00-0000-52.png
00000014,810,1,1447956477398,1447956477917,900,514,0,0,0,2,1,1,3,0003-00-0001-51.png,0005-00-0001-17.png
00000014,811,1,1447956478923,1447956479594,905,506,0,0,0,3,0,3,3,0002-00-0001-36.png,0001-00-0001-93.png
00000014,812,0,1447956480574,1447956481699,901,449,0,0,0,2,3,1,5,0003-00-0001-24.png,0002-00-0000-60.png
00000014,813,1,1447956484979,1447956485458,926,515,0,0,0,4,1,3,5,0004-00-0000-70.png,0005-00-0000-24.png
00000014,814,1,1447956486559,1447956487000,399,465,0,0,0,0,3,3,3,0001-00-0000-61.png,0002-00-0000-67.png
00000014,815,1,1447956487960,1447956488532,405,467,0,0,0,1,2,1,3,0005-00-0000-55.png,0003-00-0000-27.png
00000014,816,1,1447956489547,1447956490128,897,482,0,0,0,2,0,2,2,0003-00-0001-47.png,0001-00-0001-99.png
00000014,817,0,1447956491072,1447956491673,895,498,0,0,0,2,4,2,6,0003-00-0001-38.png,0004-00-0001-63.png
00000014,818,1,1447956494668,1447956495134,896,444,0,0,0,4,0,4,4,0004-00-0001-60.png,0001-00-0001-42.png
00000014,819,1,1447956496357,1447956496748,370,461,0,0,0,0,2,2,2,0001-00-0000-70.png,0003-00-0000-70.png
00000014,820,1,1447956497731,1447956498303,913,500,0,0,0,4,2,2,6,0004-00-0000-29.png,0003-00-0000-06.png
00000014,821,1,1447956499261,1447956499790,895,481,0,0,0,3,0,3,3,0002-00-0001-03.png,0001-00-0000-13.png
00000014,822,0,1447956500769,1447956501776,362,410,0,0,0,1,0,1,1,0005-00-0001-73.png,0001-00-0000-43.png
00000014,823,1,1447956504839,1447956505448,427,453,0,0,0,1,2,1,3,0005-00-0000-51.png,0003-00-0001-42.png
00000014,824,1,1447956506874,1447956507338,915,501,0,0,0,4,0,4,4,0004-00-0000-90.png,0001-00-0000-12.png
00000014,825,0,1447956508234,1447956508765,437,480,0,0,0,3,2,1,5,0002-00-0000-60.png,0003-00-0001-75.png
00000014,826,1,1447956511791,1447956512237,366,404,0,0,0,0,2,2,2,0001-00-0000-76.png,0003-00-0000-65.png
00000014,827,1,1447956513819,1447956514312,413,536,0,0,0,0,1,1,1,0001-00-0001-88.png,0005-00-0001-12.png
00000014,828,1,1447956515270,1447956515963,878,454,0,0,0,4,1,3,5,0004-00-0000-29.png,0005-00-0000-95.png
00000014,829,1,1447956516870,1447956517324,470,480,0,0,0,1,4,3,5,0005-00-0001-51.png,0004-00-0000-40.png
00000014,830,0,1447956518252,1447956518774,888,489,0,0,0,1,3,2,4,0005-00-0000-04.png,0002-00-0001-93.png
00000014,831,1,1447956521802,1447956522307,933,500,0,0,0,2,0,2,2,0003-00-0000-07.png,0001-00-0000-50.png
00000014,832,1,1447956523639,1447956524256,919,482,0,0,0,4,3,1,7,0004-00-0000-29.png,0002-00-0000-75.png
00000014,833,0,1447956525169,1447956525990,888,475,0,0,0,2,3,1,5,0003-00-0000-46.png,0002-00-0001-05.png
00000014,834,1,1447956529767,1447956530215,891,484,0,0,0,3,1,2,4,0002-00-0001-03.png,0005-00-0000-78.png
00000014,835,0,1447956531293,1447956531740,411,496,0,0,0,4,2,2,6,0004-00-0000-19.png,0003-00-0001-30.png
00000014,836,0,1447956535118,1447956535683,926,521,0,0,0,2,4,2,6,0003-00-0000-31.png,0004-00-0001-37.png
00000014,837,1,1447956538714,1447956539211,418,414,0,0,0,0,4,4,4,0001-00-0000-36.png,0004-00-0000-86.png
00000014,838,1,1447956540217,1447956540617,378,467,0,0,0,0,3,3,3,0001-00-0000-76.png,0002-00-0001-15.png
00000014,839,1,1447956541597,1447956542270,393,403,0,0,0,3,4,1,7,0002-00-0000-28.png,0004-00-0000-68.png
00000014,840,1,1447956543236,1447956543821,925,490,0,0,0,2,1,1,3,0003-00-0001-07.png,0005-00-0000-21.png
00000014,841,1,1447956544684,1447956545259,365,449,0,0,0,1,4,3,5,0005-00-0001-16.png,0004-00-0000-49.png
00000014,842,1,1447956546214,1447956546992,899,491,0,0,0,4,3,1,7,0004-00-0000-72.png,0002-00-0001-11.png
00000014,843,0,1447956547947,1447956548512,901,442,0,0,0,1,3,2,4,0005-00-0000-06.png,0002-00-0000-52.png
00000014,844,1,1447956551538,1447956552131,925,488,0,0,0,1,0,1,1,0005-00-0001-35.png,0001-00-0000-81.png
00000014,845,1,1447956553373,1447956553921,899,474,0,0,0,4,0,4,4,0004-00-0000-42.png,0001-00-0001-04.png
00000014,846,0,1447956554943,1447956555417,423,471,0,0,0,3,0,3,3,0002-00-0000-32.png,0001-00-0001-03.png
00000014,847,1,1447956558483,1447956559194,904,415,0,0,0,2,1,1,3,0003-00-0001-17.png,0005-00-0001-30.png
00000014,848,1,1447956560260,1447956560916,902,490,0,0,0,4,1,3,5,0004-00-0001-28.png,0005-00-0001-82.png
00000014,849,1,1447956561860,1447956562384,912,476,0,0,0,2,0,2,2,0003-00-0001-60.png,0001-00-0001-20.png
00000014,850,0,1447956563293,1447956563992,888,476,0,0,0,1,2,1,3,0005-00-0000-16.png,0003-00-0001-12.png
00000014,851,0,1447956567014,1447956568010,427,410,0,0,0,3,1,2,4,0002-00-0001-22.png,0005-00-0001-38.png
00000014,852,0,1447956571254,1447956572053,401,395,0,0,0,4,2,2,6,0004-00-0001-10.png,0003-00-0000-81.png
00000014,853,1,1447956575138,1447956575719,337,397,0,0,0,3,4,1,7,0002-00-0000-13.png,0004-00-0001-05.png
00000014,854,0,1447956576728,1447956577250,901,494,0,0,0,2,3,1,5,0003-00-0001-10.png,0002-00-0001-93.png
00000014,855,0,1447956580217,1447956580764,384,404,0,0,0,3,2,1,5,0002-00-0001-23.png,0003-00-0000-41.png
00000014,856,1,1447956583731,1447956584181,363,462,0,0,0,0,2,2,2,0001-00-0001-09.png,0003-00-0001-99.png
00000014,857,1,1447956585004,1447956585449,401,476,0,0,0,0,4,4,4,0001-00-0000-47.png,0004-00-0000-28.png
00000014,858,0,1447956586427,1447956587078,902,512,0,0,0,0,1,1,1,0001-00-0001-62.png,0005-00-0001-01.png
00000014,859,1,1447956590082,1447956590666,376,438,0,0,0,2,4,2,6,0003-00-0001-87.png,0004-00-0000-28.png
00000014,860,0,1447956591814,1447956592693,898,510,0,0,0,0,3,3,3,0001-00-0000-17.png,0002-00-0000-29.png
00000014,861,1,1447956595800,1447956596340,906,426,0,0,0,3,1,2,4,0002-00-0001-52.png,0005-00-0001-85.png
00000014,862,1,1447956597411,1447956598064,925,501,0,0,0,2,0,2,2,0003-00-0001-53.png,0001-00-0001-01.png
00000014,863,1,1447956599041,1447956599563,373,460,0,0,0,1,2,1,3,0005-00-0000-19.png,0003-00-0001-26.png
00000014,864,1,1447956600522,1447956601065,405,466,0,0,0,2,3,1,5,0003-00-0001-95.png,0002-00-0001-91.png
00000014,865,0,1447956602062,1447956602643,875,513,0,0,0,2,4,2,6,0003-00-0000-15.png,0004-00-0001-69.png
00000014,866,0,1447956605779,1447956606249,341,441,0,0,0,3,2,1,5,0002-00-0000-02.png,0003-00-0001-23.png
00000014,867,0,1447956609284,1447956609764,900,560,0,0,0,1,3,2,4,0005-00-0000-97.png,0002-00-0000-09.png
00000014,868,1,1447956612936,1447956613461,890,474,0,0,0,4,3,1,7,0004-00-0001-69.png,0002-00-0000-97.png
00000014,869,1,1447956614562,1447956615192,903,519,0,0,0,4,2,2,6,0004-00-0000-21.png,0003-00-0000-16.png
00000014,870,1,1447956616205,1447956616621,341,462,0,0,0,0,3,3,3,0001-00-0000-35.png,0002-00-0001-13.png
00000014,871,0,1447956617785,1447956618316,439,462,0,0,0,4,0,4,4,0004-00-0000-64.png,0001-00-0001-69.png
00000014,872,1,1447956621711,1447956622198,924,485,0,0,0,4,1,3,5,0004-00-0001-58.png,0005-00-0001-82.png
00000014,873,0,1447956623242,1447956623836,913,476,0,0,0,3,4,1,7,0002-00-0000-17.png,0004-00-0000-56.png
00000014,874,1,1447956627157,1447956627820,398,360,0,0,0,0,4,4,4,0001-00-0001-87.png,0004-00-0000-85.png
00000014,875,1,1447956629006,1447956629531,901,486,0,0,0,1,0,1,1,0005-00-0001-95.png,0001-00-0001-14.png
00000014,876,0,1447956630406,1447956630920,900,489,0,0,0,1,4,3,5,0005-00-0000-48.png,0004-00-0001-63.png
00000014,877,1,1447956633948,1447956634406,392,455,0,0,0,0,1,1,1,0001-00-0000-82.png,0005-00-0001-36.png
00000014,878,1,1447956635626,1447956636080,453,464,0,0,0,0,2,2,2,0001-00-0001-31.png,0003-00-0001-58.png
00000014,879,1,1447956637036,1447956637801,897,490,0,0,0,2,1,1,3,0003-00-0000-44.png,0005-00-0000-73.png
00000014,880,1,1447956638785,1447956639302,896,472,0,0,0,3,0,3,3,0002-00-0000-33.png,0001-00-0000-99.png
00000014,881,1,1447956640246,1447956640757,418,471,0,0,0,0,1,1,1,0001-00-0000-30.png,0005-00-0000-51.png
00000014,882,0,1447956641684,1447956642107,461,472,0,0,0,4,2,2,6,0004-00-0000-74.png,0003-00-0000-97.png
00000014,883,1,1447956645141,1447956645858,925,463,0,0,0,1,0,1,1,0005-00-0001-13.png,0001-00-0001-13.png
00000014,884,0,1447956646794,1447956647375,900,516,0,0,0,0,4,4,4,0001-00-0001-38.png,0004-00-0000-50.png
00000014,885,1,1447956650759,1447956651249,874,560,0,0,0,2,0,2,2,0003-00-0000-97.png,0001-00-0001-23.png
00000014,886,1,1447956652280,1447956652739,422,482,0,0,0,1,3,2,4,0005-00-0001-26.png,0002-00-0001-34.png
00000014,887,1,1447956653632,1447956654178,880,532,0,0,0,4,3,1,7,0004-00-0000-47.png,0002-00-0000-43.png
00000014,888,1,1447956655142,1447956655643,456,458,0,0,0,2,4,2,6,0003-00-0001-51.png,0004-00-0000-67.png
00000014,889,1,1447956656608,1447956657318,903,493,0,0,0,4,1,3,5,0004-00-0000-56.png,0005-00-0000-31.png
00000014,890,0,1447956658179,1447956658643,460,454,0,0,0,3,0,3,3,0002-00-0000-92.png,0001-00-0001-88.png
00000014,891,0,1447956661807,1447956662296,384,402,0,0,0,3,2,1,5,0002-00-0000-18.png,0003-00-0000-32.png
00000014,892,1,1447956665482,1447956665928,413,419,0,0,0,3,4,1,7,0002-00-0000-52.png,0004-00-0000-27.png
00000014,893,0,1447956667008,1447956668014,926,540,0,0,0,1,4,3,5,0005-00-0000-23.png,0004-00-0000-80.png
00000014,894,1,1447956670939,1447956671523,901,521,0,0,0,2,1,1,3,0003-00-0000-83.png,0005-00-0000-17.png
00000014,895,0,1447956672604,1447956673047,453,500,0,0,0,4,0,4,4,0004-00-0001-54.png,0001-00-0000-02.png
00000014,896,1,1447956676030,1447956676538,418,445,0,0,0,0,3,3,3,0001-00-0001-31.png,0002-00-0000-72.png
00000014,897,1,1447956677878,1447956678293,408,480,0,0,0,1,2,1,3,0005-00-0001-87.png,0003-00-0001-76.png
00000014,898,1,1447956679253,1447956679663,387,464,0,0,0,0,2,2,2,0001-00-0001-73.png,0003-00-0000-73.png
00000014,899,0,1447956680553,1447956681799,899,528,0,0,0,2,3,1,5,0003-00-0001-02.png,0002-00-0001-64.png
00000014,900,0,1447956684997,1447956685583,401,427,0,0,0,3,1,2,4,0002-00-0001-26.png,0005-00-0001-72.png
00000014,901,0,1447956688873,1447956689374,933,500,0,0,0,1,3,2,4,0005-00-0000-49.png,0002-00-0000-95.png
00000014,902,1,1447956692451,1447956693096,870,445,0,0,0,3,0,3,3,0002-00-0001-48.png,0001-00-0001-87.png
00000014,903,1,1447956694152,1447956694590,373,477,0,0,0,1,4,3,5,0005-00-0000-42.png,0004-00-0000-05.png
00000014,904,0,1447956695489,1447956696617,376,436,0,0,0,1,0,1,1,0005-00-0000-94.png,0001-00-0001-90.png
00000014,905,0,1447956699516,1447956700116,940,449,0,0,0,2,4,2,6,0003-00-0001-31.png,0004-00-0000-69.png
00000014,906,1,1447956703512,1447956703988,925,437,0,0,0,3,1,2,4,0002-00-0001-27.png,0005-00-0000-18.png
00000014,907,0,1447956705182,1447956705595,410,468,0,0,0,3,2,1,5,0002-00-0001-19.png,0003-00-0001-15.png
00000014,908,1,1447956708711,1447956709200,927,474,0,0,0,2,0,2,2,0003-00-0001-75.png,0001-00-0001-43.png
00000014,909,1,1447956710168,1447956710677,946,472,0,0,0,2,1,1,3,0003-00-0000-76.png,0005-00-0001-77.png
00000014,910,1,1447956711652,1447956712175,903,493,0,0,0,4,3,1,7,0004-00-0001-29.png,0002-00-0001-74.png
00000014,911,0,1447956713071,1447956713847,913,489,0,0,0,0,3,3,3,0001-00-0000-39.png,0002-00-0001-19.png
00000014,912,0,1447956716779,1447956716799,504,518,0,0,0,4,0,4,4,0004-00-0000-35.png,0001-00-0001-36.png
00000014,913,1,1447956719980,1447956720766,427,358,0,0,0,0,1,1,1,0001-00-0000-41.png,0005-00-0000-54.png
00000014,914,0,1447956721766,1447956722291,913,514,0,0,0,2,3,1,5,0003-00-0001-20.png,0002-00-0001-59.png
00000014,915,1,1447956725575,1447956726101,401,449,0,0,0,1,2,1,3,0005-00-0000-85.png,0003-00-0000-15.png
00000014,916,1,1447956727136,1447956727561,388,463,0,0,0,0,4,4,4,0001-00-0000-82.png,0004-00-0000-16.png
00000014,917,1,1447956728527,1447956728984,397,490,0,0,0,0,2,2,2,0001-00-0001-76.png,0003-00-0001-21.png
00000014,918,1,1447956729934,1447956730470,382,490,0,0,0,3,4,1,7,0002-00-0000-23.png,0004-00-0001-47.png
00000014,919,1,1447956731389,1447956731932,869,498,0,0,0,4,1,3,5,0004-00-0001-53.png,0005-00-0000-56.png
00000014,920,0,1447956732786,1447956733245,418,481,0,0,0,4,2,2,6,0004-00-0001-05.png,0003-00-0001-86.png
00000014,921,1,1447956736449,1447956736935,924,483,0,0,0,2,1,1,3,0003-00-0001-78.png,0005-00-0001-48.png
00000014,922,0,1447956737869,1447956738714,888,475,0,0,0,3,4,1,7,0002-00-0001-73.png,0004-00-0000-14.png
00000014,923,1,1447956741714,1447956742274,383,423,0,0,0,1,2,1,3,0005-00-0001-20.png,0003-00-0001-99.png
00000014,924,1,1447956743252,1447956743708,415,500,0,0,0,1,3,2,4,0005-00-0001-64.png,0002-00-0000-11.png
00000014,925,0,1447956744642,1447956745331,874,501,0,0,0,0,3,3,3,0001-00-0001-44.png,0002-00-0001-17.png
00000014,926,1,1447956748382,1447956749122,877,544,0,0,0,4,1,3,5,0004-00-0001-11.png,0005-00-0001-04.png
00000014,927,1,1447956750133,1447956750554,384,476,0,0,0,0,4,4,4,0001-00-0001-21.png,0004-00-0001-86.png
00000014,928,1,1447956751505,1447956752014,862,462,0,0,0,1,0,1,1,0005-00-0001-89.png,0001-00-0001-76.png
00000014,929,1,1447956752975,1447956753583,926,507,0,0,0,4,0,4,4,0004-00-0001-75.png,0001-00-0000-01.png
00000014,930,1,1447956754506,1447956754999,465,475,0,0,0,2,3,1,5,0003-00-0001-72.png,0002-00-0001-08.png
00000014,931,1,1447956755985,1447956757015,895,445,0,0,0,4,3,1,7,0004-00-0000-18.png,0002-00-0001-92.png
00000014,932,1,1447956757922,1447956758426,408,488,0,0,0,2,4,2,6,0003-00-0000-68.png,0004-00-0001-72.png
00000014,933,1,1447956759323,1447956759932,877,494,0,0,0,3,0,3,3,0002-00-0000-06.png,0001-00-0001-84.png
00000014,934,1,1447956760893,1447956761529,899,464,0,0,0,2,0,2,2,0003-00-0001-29.png,0001-00-0001-59.png
00000014,935,0,1447956762445,1447956762983,384,471,0,0,0,3,2,1,5,0002-00-0000-19.png,0003-00-0001-21.png
00000014,936,1,1447956765992,1447956766012,519,471,0,0,0,1,4,3,5,0005-00-0000-60.png,0004-00-0000-09.png
00000014,937,1,1447956767057,1447956767609,897,458,0,0,0,3,1,2,4,0002-00-0000-47.png,0005-00-0000-06.png
00000014,938,1,1447956768496,1447956768919,385,496,0,0,0,0,2,2,2,0001-00-0000-67.png,0003-00-0001-85.png
00000014,939,0,1447956770325,1447956770999,905,480,0,0,0,0,1,1,1,0001-00-0000-84.png,0005-00-0000-05.png
00000014,940,0,1447956773959,1447956774685,362,423,0,0,0,4,2,2,6,0004-00-0000-67.png,0003-00-0001-38.png
00000014,941,0,1447956778238,1447956778651,375,472,0,0,0,3,0,3,3,0002-00-0001-62.png,0001-00-0001-87.png
00000014,942,1,1447956781786,1447956782320,873,436,0,0,0,4,1,3,5,0004-00-0000-76.png,0005-00-0000-30.png
00000014,943,1,1447956783479,1447956783904,379,473,0,0,0,0,2,2,2,0001-00-0000-58.png,0003-00-0000-94.png
00000014,944,1,1447956784838,1447956785385,875,476,0,0,0,4,2,2,6,0004-00-0001-17.png,0003-00-0000-12.png
00000014,945,1,1447956786286,1447956787496,372,411,0,0,0,2,4,2,6,0003-00-0001-67.png,0004-00-0001-11.png
00000014,946,1,1447956788465,1447956789047,894,483,0,0,0,1,0,1,1,0005-00-0001-29.png,0001-00-0000-09.png
00000014,947,0,1447956789880,1447956790433,456,464,0,0,0,2,0,2,2,0003-00-0001-60.png,0001-00-0001-88.png
00000014,948,0,1447956793363,1447956794061,401,436,0,0,0,4,3,1,7,0004-00-0000-37.png,0002-00-0001-74.png
00000014,949,1,1447956797901,1447956798393,449,446,0,0,0,1,2,1,3,0005-00-0001-39.png,0003-00-0000-67.png
00000014,950,1,1447956799587,1447956800310,343,456,0,0,0,0,4,4,4,0001-00-0000-47.png,0004-00-0000-06.png
00000014,951,1,1447956801304,1447956801852,899,464,0,0,0,3,1,2,4,0002-00-0001-03.png,0005-00-0001-52.png
