subject_id,trial,correct_response,stim_time,response_time,x_coord,y_coord,trial_timeout,timeout_time,interTrial_timeout,left_rank,right_rank,distance,joint_rank,left_image,right_image
00000014,1,1,1448464070728,1448464071839,340,418,0,0,0,0,2,2,2,0001-00-0001-28.png,0003-00-0001-05.png
00000014,2,0,1448464073358,1448464097442,461,435,0,0,0,2,1,1,3,0003-00-0000-86.png,0005-00-0000-34.png
00000014,3,0,1448464100637,1448464101075,488,433,0,0,0,3,2,1,5,0002-00-0000-55.png,0003-00-0001-19.png
00000014,4,1,1448464104869,1448464105271,939,462,0,0,0,1,0,1,1,0005-00-0000-11.png,0001-00-0000-23.png
00000014,5,1,1448464106311,1448464106881,927,488,0,0,0,3,1,2,4,0002-00-0001-16.png,0005-00-0000-71.png
00000014,6,1,1448464107782,1448464108307,435,405,0,0,0,1,3,2,4,0005-00-0001-24.png,0002-00-0001-24.png
00000014,7,0,1448464109213,1448464109633,392,480,0,0,0,4,1,3,5,0004-00-0000-59.png,0005-00-0000-72.png
00000014,8,0,1448464112602,1448464113056,958,518,0,0,0,2,4,2,6,0003-00-0000-53.png,0004-00-0001-47.png
00000014,9,1,1448464116787,1448464117365,1030,438,0,0,0,3,0,3,3,0002-00-0000-35.png,0001-00-0000-61.png
00000014,10,1,1448464118537,1448464119026,926,475,0,0,0,4,2,2,6,0004-00-0000-93.png,0003-00-0000-36.png
00000014,11,1,1448464120306,1448464120938,383,436,0,0,0,0,1,1,1,0001-00-0000-32.png,0005-00-0000-45.png
00000014,12,1,1448464122235,1448464122704,403,434,0,0,0,0,3,3,3,0001-00-0000-89.png,0002-00-0001-44.png
00000014,13,0,1448464124093,1448464124624,875,478,0,0,0,2,3,1,5,0003-00-0000-02.png,0002-00-0001-32.png
00000014,14,1,1448464129758,1448464130281,441,424,0,0,0,1,2,1,3,0005-00-0000-58.png,0003-00-0001-79.png
00000014,15,1,1448464131496,1448464131938,938,476,0,0,0,2,0,2,2,0003-00-0000-19.png,0001-00-0001-26.png
00000014,16,1,1448464133261,1448464133749,926,474,0,0,0,4,0,4,4,0004-00-0001-84.png,0001-00-0000-79.png
00000014,17,1,1448464134833,1448464135278,382,415,0,0,0,3,4,1,7,0002-00-0000-23.png,0004-00-0001-23.png
00000014,18,0,1448464136702,1448464137297,949,541,0,0,0,0,4,4,4,0001-00-0001-22.png,0004-00-0000-90.png
00000014,19,1,1448464140626,1448464140630,523,454,0,0,0,1,4,3,5,0005-00-0000-96.png,0004-00-0001-66.png
00000014,20,1,1448464141788,1448464142270,919,483,0,0,0,4,3,1,7,0004-00-0000-38.png,0002-00-0000-20.png
00000014,21,1,1448464143408,1448464143937,925,489,0,0,0,2,1,1,3,0003-00-0001-28.png,0005-00-0000-55.png
00000014,22,0,1448464144880,1448464145406,864,444,0,0,0,2,3,1,5,0003-00-0001-62.png,0002-00-0001-49.png
00000014,23,1,1448464148448,1448464148959,427,526,0,0,0,0,1,1,1,0001-00-0001-48.png,0005-00-0000-93.png
00000014,24,1,1448464150098,1448464150611,926,514,0,0,0,2,0,2,2,0003-00-0000-56.png,0001-00-0000-65.png
00000014,25,1,1448464151666,1448464152191,876,476,0,0,0,3,0,3,3,0002-00-0000-86.png,0001-00-0000-86.png
00000014,26,0,1448464153189,1448464153757,885,467,0,0,0,0,4,4,4,0001-00-0000-44.png,0004-00-0001-29.png
00000014,27,0,1448464156641,1448464157065,947,497,0,0,0,0,3,3,3,0001-00-0000-89.png,0002-00-0000-55.png
00000014,28,1,1448464160074,1448464160494,381,416,0,0,0,3,4,1,7,0002-00-0001-37.png,0004-00-0000-93.png
00000014,29,0,1448464161447,1448464161926,889,456,0,0,0,2,4,2,6,0003-00-0000-97.png,0004-00-0001-19.png
00000014,30,1,1448464164872,1448464165327,901,486,0,0,0,3,2,1,5,0002-00-0000-74.png,0003-00-0001-47.png
00000014,31,0,1448464166347,1448464166814,933,474,0,0,0,1,3,2,4,0005-00-0000-73.png,0002-00-0000-74.png
00000014,32,1,1448464170053,1448464170448,935,451,0,0,0,1,0,1,1,0005-00-0000-70.png,0001-00-0001-61.png
00000014,33,1,1448464171563,1448464172128,952,493,0,0,0,3,1,2,4,0002-00-0001-61.png,0005-00-0001-76.png
00000014,34,1,1448464173093,1448464173485,367,475,0,0,0,1,2,1,3,0005-00-0000-69.png,0003-00-0001-89.png
00000014,35,1,1448464174573,1448464175071,887,560,0,0,0,4,3,1,7,0004-00-0000-42.png,0002-00-0001-67.png
00000014,36,1,1448464176163,1448464176788,938,424,0,0,0,4,2,2,6,0004-00-0001-34.png,0003-00-0001-17.png
00000014,37,1,1448464177872,1448464178299,391,438,0,0,0,0,2,2,2,0001-00-0000-50.png,0003-00-0000-82.png
00000014,38,1,1448464179362,1448464179870,924,456,0,0,0,4,0,4,4,0004-00-0001-95.png,0001-00-0001-85.png
00000014,39,1,1448464180973,1448464181481,912,450,0,0,0,4,1,3,5,0004-00-0000-84.png,0005-00-0001-01.png
00000014,40,1,1448464182601,1448464182987,409,472,0,0,0,1,4,3,5,0005-00-0001-92.png,0004-00-0001-48.png
00000014,41,1,1448464184125,1448464184562,375,404,0,0,0,0,3,3,3,0001-00-0000-14.png,0002-00-0001-27.png
00000014,42,1,1448464186169,1448464186658,922,498,0,0,0,3,1,2,4,0002-00-0000-61.png,0005-00-0001-54.png
00000014,43,0,1448464187861,1448464188407,869,440,0,0,0,2,3,1,5,0003-00-0001-04.png,0002-00-0000-87.png
00000014,44,0,1448464191379,1448464191821,422,417,0,0,0,3,2,1,5,0002-00-0000-90.png,0003-00-0001-05.png
00000014,45,0,1448464194846,1448464195272,931,470,0,0,0,2,4,2,6,0003-00-0001-93.png,0004-00-0001-23.png
00000014,46,1,1448464198256,1448464198737,879,462,0,0,0,4,0,4,4,0004-00-0000-39.png,0001-00-0001-86.png
00000014,47,1,1448464199796,1448464200331,952,462,0,0,0,1,0,1,1,0005-00-0001-66.png,0001-00-0000-84.png
00000014,48,1,1448464201404,1448464201776,400,472,0,0,0,0,2,2,2,0001-00-0001-69.png,0003-00-0001-49.png
00000014,49,1,1448464202965,1448464203463,376,463,0,0,0,1,2,1,3,0005-00-0000-62.png,0003-00-0000-32.png
00000014,50,1,1448464204694,1448464205150,862,410,0,0,0,2,1,1,3,0003-00-0001-42.png,0005-00-0001-98.png
00000014,51,1,1448464206789,1448464207254,926,449,0,0,0,4,3,1,7,0004-00-0001-72.png,0002-00-0000-38.png
00000014,52,1,1448464208527,1448464208905,377,563,0,0,0,0,1,1,1,0001-00-0001-05.png,0005-00-0000-38.png
00000014,53,0,1448464210068,1448464210532,875,443,0,0,0,3,4,1,7,0002-00-0001-20.png,0004-00-0000-54.png
00000014,54,1,1448464213430,1448464213872,893,563,0,0,0,2,0,2,2,0003-00-0000-85.png,0001-00-0001-03.png
00000014,55,0,1448464214959,1448464215359,420,474,0,0,0,4,2,2,6,0004-00-0001-87.png,0003-00-0001-46.png
00000014,56,1,1448464218559,1448464218995,950,473,0,0,0,4,1,3,5,0004-00-0001-77.png,0005-00-0000-64.png
00000014,57,0,1448464220130,1448464220721,920,463,0,0,0,1,4,3,5,0005-00-0000-21.png,0004-00-0001-09.png
00000014,58,1,1448464223575,1448464223679,513,488,0,0,0,0,4,4,4,0001-00-0001-78.png,0004-00-0001-99.png
00000014,59,1,1448464224750,1448464225211,914,449,0,0,0,3,0,3,3,0002-00-0001-39.png,0001-00-0000-11.png
00000014,60,1,1448464226311,1448464226695,388,467,0,0,0,1,3,2,4,0005-00-0001-87.png,0002-00-0001-63.png
00000014,61,1,1448464227760,1448464228227,337,445,0,0,0,1,2,1,3,0005-00-0001-91.png,0003-00-0001-61.png
00000014,62,1,1448464229362,1448464229916,928,442,0,0,0,1,0,1,1,0005-00-0000-18.png,0001-00-0001-59.png
00000014,63,0,1448464231141,1448464231611,898,469,0,0,0,2,3,1,5,0003-00-0000-34.png,0002-00-0000-93.png
00000014,64,1,1448464234861,1448464235304,391,404,0,0,0,1,4,3,5,0005-00-0001-98.png,0004-00-0001-11.png
00000014,65,1,1448464236831,1448464237350,929,442,0,0,0,4,0,4,4,0004-00-0000-62.png,0001-00-0001-92.png
00000014,66,0,1448464238713,1448464239676,365,360,0,0,0,4,2,2,6,0004-00-0001-27.png,0003-00-0000-62.png
00000014,67,1,1448464242866,1448464243237,411,442,0,0,0,3,4,1,7,0002-00-0001-24.png,0004-00-0000-35.png
00000014,68,1,1448464244286,1448464244821,914,475,0,0,0,2,1,1,3,0003-00-0000-18.png,0005-00-0001-84.png
00000014,69,1,1448464245964,1448464246372,358,566,0,0,0,0,2,2,2,0001-00-0001-52.png,0003-00-0000-85.png
00000014,70,1,1448464247507,1448464248042,351,379,0,0,0,0,1,1,1,0001-00-0001-94.png,0005-00-0001-60.png
00000014,71,1,1448464249193,1448464249674,921,446,0,0,0,4,3,1,7,0004-00-0001-90.png,0002-00-0000-13.png
00000014,72,0,1448464250892,1448464251529,899,432,0,0,0,2,4,2,6,0003-00-0000-89.png,0004-00-0000-23.png
00000014,73,1,1448464254444,1448464254886,924,433,0,0,0,3,0,3,3,0002-00-0001-72.png,0001-00-0001-85.png
00000014,74,1,1448464256002,1448464256514,861,543,0,0,0,4,1,3,5,0004-00-0001-88.png,0005-00-0001-10.png
00000014,75,1,1448464257614,1448464257988,356,460,0,0,0,0,3,3,3,0001-00-0001-45.png,0002-00-0001-87.png
00000014,76,1,1448464259153,1448464260230,383,386,0,0,0,1,3,2,4,0005-00-0001-72.png,0002-00-0000-24.png
00000014,77,1,1448464261308,1448464261821,868,547,0,0,0,3,2,1,5,0002-00-0001-44.png,0003-00-0000-76.png
00000014,78,1,1448464262949,1448464263417,862,398,0,0,0,2,0,2,2,0003-00-0001-62.png,0001-00-0000-50.png
00000014,79,1,1448464264578,1448464264967,401,485,0,0,0,0,4,4,4,0001-00-0001-71.png,0004-00-0000-88.png
00000014,80,0,1448464266059,1448464266533,421,399,0,0,0,3,1,2,4,0002-00-0000-19.png,0005-00-0001-51.png
00000014,81,1,1448464269598,1448464270062,929,488,0,0,0,2,1,1,3,0003-00-0000-09.png,0005-00-0001-72.png
00000014,82,1,1448464271244,1448464271691,401,396,0,0,0,1,4,3,5,0005-00-0001-31.png,0004-00-0001-28.png
00000014,83,0,1448464272815,1448464273306,900,426,0,0,0,3,4,1,7,0002-00-0001-58.png,0004-00-0000-63.png
00000014,84,1,1448464276506,1448464276931,422,531,0,0,0,0,1,1,1,0001-00-0000-78.png,0005-00-0000-88.png
00000014,85,0,1448464277961,1448464278448,880,400,0,0,0,2,3,1,5,0003-00-0000-78.png,0002-00-0001-68.png
00000014,86,1,1448464281536,1448464281961,953,468,0,0,0,3,2,1,5,0002-00-0001-53.png,0003-00-0000-91.png
00000014,87,0,1448464283111,1448464283648,909,445,0,0,0,1,2,1,3,0005-00-0001-06.png,0003-00-0001-49.png
00000014,88,1,1448464286759,1448464287252,431,387,0,0,0,0,2,2,2,0001-00-0001-21.png,0003-00-0001-94.png
00000014,89,0,1448464288309,1448464288832,882,484,0,0,0,2,4,2,6,0003-00-0001-65.png,0004-00-0001-21.png
00000014,90,0,1448464291839,1448464292319,401,422,0,0,0,4,2,2,6,0004-00-0000-29.png,0003-00-0001-59.png
00000014,91,1,1448464295304,1448464295817,939,436,0,0,0,2,0,2,2,0003-00-0000-51.png,0001-00-0000-53.png
00000014,92,0,1448464296925,1448464297517,883,419,0,0,0,0,3,3,3,0001-00-0000-36.png,0002-00-0001-98.png
00000014,93,1,1448464300691,1448464301185,415,433,0,0,0,1,3,2,4,0005-00-0000-27.png,0002-00-0000-51.png
00000014,94,1,1448464302191,1448464302697,906,458,0,0,0,3,0,3,3,0002-00-0000-69.png,0001-00-0000-45.png
00000014,95,0,1448464303821,1448464304212,350,475,0,0,0,4,0,4,4,0004-00-0001-73.png,0001-00-0000-48.png
00000014,96,1,1448464307168,1448464307666,350,436,0,0,0,0,4,4,4,0001-00-0000-66.png,0004-00-0000-37.png
00000014,97,1,1448464309305,1448464309784,878,436,0,0,0,4,3,1,7,0004-00-0000-62.png,0002-00-0001-58.png
00000014,98,1,1448464310834,1448464311321,946,446,0,0,0,4,1,3,5,0004-00-0000-96.png,0005-00-0001-22.png
00000014,99,1,1448464312556,1448464313063,901,461,0,0,0,1,0,1,1,0005-00-0000-49.png,0001-00-0000-30.png
00000014,100,1,1448464314185,1448464314756,888,412,0,0,0,3,1,2,4,0002-00-0001-23.png,0005-00-0001-16.png
00000014,101,1,1448464315861,1448464316497,921,445,0,0,0,1,0,1,1,0005-00-0001-21.png,0001-00-0000-39.png
00000014,102,0,1448464317684,1448464318178,904,433,0,0,0,1,3,2,4,0005-00-0001-58.png,0002-00-0000-18.png
00000014,103,0,1448464321311,1448464321736,899,436,0,0,0,2,3,1,5,0003-00-0001-81.png,0002-00-0001-52.png
00000014,104,1,1448464324795,1448464325252,427,436,0,0,0,0,2,2,2,0001-00-0000-96.png,0003-00-0001-22.png
00000014,105,1,1448464326407,1448464326959,912,450,0,0,0,3,2,1,5,0002-00-0000-30.png,0003-00-0000-97.png
00000014,106,1,1448464328087,1448464328633,922,469,0,0,0,4,3,1,7,0004-00-0001-44.png,0002-00-0000-65.png
00000014,107,1,1448464329777,1448464330225,419,537,0,0,0,0,3,3,3,0001-00-0001-01.png,0002-00-0001-76.png
00000014,108,1,1448464331353,1448464331791,879,427,0,0,0,2,1,1,3,0003-00-0001-96.png,0005-00-0001-95.png
00000014,109,1,1448464333004,1448464333403,341,439,0,0,0,0,1,1,1,0001-00-0000-95.png,0005-00-0000-73.png
00000014,110,1,1448464334597,1448464335237,954,443,0,0,0,3,0,3,3,0002-00-0000-79.png,0001-00-0000-04.png
00000014,111,1,1448464336386,1448464336909,927,449,0,0,0,4,1,3,5,0004-00-0000-11.png,0005-00-0001-66.png
00000014,112,1,1448464338034,1448464338537,890,437,0,0,0,2,0,2,2,0003-00-0001-98.png,0001-00-0001-06.png
00000014,113,0,1448464339784,1448464340273,876,553,0,0,0,3,4,1,7,0002-00-0001-13.png,0004-00-0000-60.png
00000014,114,0,1448464343155,1448464343799,412,415,0,0,0,3,1,2,4,0002-00-0001-40.png,0005-00-0000-28.png
00000014,115,0,1448464346747,1448464347193,870,444,0,0,0,2,4,2,6,0003-00-0001-12.png,0004-00-0001-01.png
00000014,116,1,1448464350238,1448464350658,879,453,0,0,0,4,0,4,4,0004-00-0000-39.png,0001-00-0000-64.png
00000014,117,1,1448464351798,1448464352312,874,423,0,0,0,4,2,2,6,0004-00-0001-14.png,0003-00-0001-28.png
00000014,118,1,1448464353595,1448464354047,382,432,0,0,0,1,2,1,3,0005-00-0000-90.png,0003-00-0001-54.png
00000014,119,1,1448464355202,1448464356020,361,397,0,0,0,1,4,3,5,0005-00-0001-18.png,0004-00-0000-92.png
00000014,120,1,1448464357203,1448464357678,411,391,0,0,0,0,4,4,4,0001-00-0000-05.png,0004-00-0001-94.png
00000014,121,0,1448464358933,1448464359415,898,458,0,0,0,0,3,3,3,0001-00-0001-22.png,0002-00-0000-02.png
00000014,122,1,1448464362328,1448464362721,383,376,0,0,0,0,2,2,2,0001-00-0001-28.png,0003-00-0001-98.png
00000014,123,1,1448464363950,1448464364361,904,445,0,0,0,2,0,2,2,0003-00-0000-19.png,0001-00-0000-06.png
00000014,124,1,1448464365507,1448464366086,946,467,0,0,0,4,1,3,5,0004-00-0000-14.png,0005-00-0001-51.png
00000014,125,0,1448464367251,1448464367775,878,427,0,0,0,3,4,1,7,0002-00-0001-45.png,0004-00-0000-15.png
00000014,126,1,1448464370786,1448464371853,359,362,0,0,0,1,2,1,3,0005-00-0001-33.png,0003-00-0001-10.png
00000014,127,1,1448464373040,1448464373578,913,476,0,0,0,3,1,2,4,0002-00-0000-69.png,0005-00-0000-19.png
00000014,128,0,1448464375116,1448464375524,396,435,0,0,0,3,2,1,5,0002-00-0000-52.png,0003-00-0001-81.png
00000014,129,1,1448464378498,1448464378963,376,397,0,0,0,0,4,4,4,0001-00-0001-20.png,0004-00-0000-85.png
00000014,130,1,1448464380119,1448464380627,403,426,0,0,0,1,3,2,4,0005-00-0000-39.png,0002-00-0001-02.png
00000014,131,1,1448464381778,1448464382300,898,560,0,0,0,4,2,2,6,0004-00-0001-81.png,0003-00-0000-12.png
00000014,132,1,1448464383631,1448464384575,401,410,0,0,0,0,1,1,1,0001-00-0000-82.png,0005-00-0000-47.png
00000014,133,1,1448464385781,1448464386245,898,429,0,0,0,3,0,3,3,0002-00-0000-40.png,0001-00-0000-32.png
00000014,134,1,1448464387398,1448464387926,925,463,0,0,0,4,3,1,7,0004-00-0000-31.png,0002-00-0001-32.png
00000014,135,1,1448464389060,1448464389546,405,423,0,0,0,1,4,3,5,0005-00-0000-57.png,0004-00-0001-10.png
00000014,136,1,1448464390718,1448464391191,858,443,0,0,0,4,0,4,4,0004-00-0000-37.png,0001-00-0001-31.png
00000014,137,1,1448464392395,1448464392916,907,474,0,0,0,1,0,1,1,0005-00-0001-03.png,0001-00-0001-15.png
00000014,138,0,1448464394082,1448464394581,903,469,0,0,0,2,4,2,6,0003-00-0000-83.png,0004-00-0001-19.png
00000014,139,0,1448464397764,1448464398281,951,501,0,0,0,2,3,1,5,0003-00-0001-46.png,0002-00-0001-01.png
00000014,140,1,1448464401475,1448464401926,923,562,0,0,0,2,1,1,3,0003-00-0000-31.png,0005-00-0000-16.png
00000014,141,1,1448464403087,1448464403564,925,464,0,0,0,3,0,3,3,0002-00-0001-16.png,0001-00-0001-40.png
00000014,142,1,1448464404696,1448464405192,939,450,0,0,0,2,0,2,2,0003-00-0000-41.png,0001-00-0001-61.png
00000014,143,1,1448464406330,1448464406703,386,460,0,0,0,0,1,1,1,0001-00-0001-03.png,0005-00-0001-16.png
00000014,144,0,1448464407977,1448464408472,901,476,0,0,0,2,4,2,6,0003-00-0000-35.png,0004-00-0001-43.png
00000014,145,0,1448464411330,1448464411788,938,450,0,0,0,2,3,1,5,0003-00-0001-38.png,0002-00-0000-81.png
00000014,146,1,1448464414864,1448464415851,389,489,0,0,0,1,4,3,5,0005-00-0000-29.png,0004-00-0001-45.png
00000014,147,1,1448464416893,1448464417426,394,454,0,0,0,3,4,1,7,0002-00-0000-62.png,0004-00-0001-13.png
00000014,148,1,1448464418503,1448464418999,898,456,0,0,0,1,0,1,1,0005-00-0001-74.png,0001-00-0001-47.png
00000014,149,1,1448464420143,1448464420587,876,451,0,0,0,2,1,1,3,0003-00-0000-86.png,0005-00-0000-21.png
00000014,150,1,1448464421800,1448464422372,898,410,0,0,0,3,1,2,4,0002-00-0000-58.png,0005-00-0001-30.png
00000014,151,1,1448464423427,1448464423812,354,462,0,0,0,0,4,4,4,0001-00-0001-13.png,0004-00-0001-98.png
00000014,152,1,1448464425083,1448464425971,372,394,0,0,0,0,2,2,2,0001-00-0000-72.png,0003-00-0000-80.png
00000014,153,1,1448464427186,1448464427755,867,549,0,0,0,4,2,2,6,0004-00-0000-15.png,0003-00-0001-50.png
00000014,154,1,1448464428976,1448464429469,895,419,0,0,0,4,0,4,4,0004-00-0000-85.png,0001-00-0000-33.png
00000014,155,0,1448464430544,1448464431049,873,452,0,0,0,1,3,2,4,0005-00-0000-33.png,0002-00-0000-98.png
00000014,156,1,1448464435577,1448464436032,913,479,0,0,0,4,1,3,5,0004-00-0001-72.png,0005-00-0000-77.png
00000014,157,1,1448464437059,1448464437574,908,449,0,0,0,3,2,1,5,0002-00-0001-39.png,0003-00-0000-93.png
00000014,158,0,1448464438770,1448464439284,866,444,0,0,0,0,3,3,3,0001-00-0000-21.png,0002-00-0001-57.png
00000014,159,1,1448464442336,1448464442773,926,488,0,0,0,4,3,1,7,0004-00-0001-05.png,0002-00-0000-60.png
00000014,160,1,1448464443987,1448464444386,449,421,0,0,0,1,2,1,3,0005-00-0001-76.png,0003-00-0001-72.png
00000014,161,1,1448464445557,1448464446023,902,466,0,0,0,4,1,3,5,0004-00-0001-96.png,0005-00-0000-19.png
00000014,162,1,1448464447167,1448464447565,388,454,0,0,0,0,4,4,4,0001-00-0000-54.png,0004-00-0001-14.png
00000014,163,1,1448464448897,1448464449367,900,452,0,0,0,3,0,3,3,0002-00-0001-15.png,0001-00-0000-89.png
00000014,164,1,1448464450487,1448464451082,906,445,0,0,0,3,2,1,5,0002-00-0000-54.png,0003-00-0001-18.png
00000014,165,0,1448464453352,1448464453774,921,445,0,0,0,2,3,1,5,0003-00-0000-18.png,0002-00-0001-19.png
00000014,166,1,1448464456815,1448464457341,418,547,0,0,0,0,1,1,1,0001-00-0001-04.png,0005-00-0001-54.png
00000014,167,1,1448464458385,1448464458841,412,472,0,0,0,0,2,2,2,0001-00-0000-86.png,0003-00-0001-85.png
00000014,168,1,1448464460005,1448464460482,858,554,0,0,0,4,0,4,4,0004-00-0001-56.png,0001-00-0001-97.png
00000014,169,1,1448464461566,1448464461958,433,560,0,0,0,2,4,2,6,0003-00-0001-54.png,0004-00-0000-34.png
00000014,170,1,1448464463208,1448464463685,401,432,0,0,0,1,4,3,5,0005-00-0001-64.png,0004-00-0001-17.png
00000014,171,1,1448464464884,1448464465386,891,425,0,0,0,2,1,1,3,0003-00-0001-87.png,0005-00-0000-41.png
00000014,172,0,1448464466546,1448464466959,364,460,0,0,0,1,0,1,1,0005-00-0000-60.png,0001-00-0000-92.png
00000014,173,1,1448464470125,1448464470839,462,489,0,0,0,3,4,1,7,0002-00-0000-97.png,0004-00-0001-69.png
00000014,174,0,1448464471940,1448464472501,871,442,0,0,0,0,3,3,3,0001-00-0000-17.png,0002-00-0001-90.png
00000014,175,1,1448464475489,1448464475956,965,475,0,0,0,3,1,2,4,0002-00-0000-21.png,0005-00-0001-12.png
00000014,176,1,1448464477068,1448464477552,913,424,0,0,0,2,0,2,2,0003-00-0001-24.png,0001-00-0000-37.png
00000014,177,0,1448464478806,1448464479272,875,449,0,0,0,1,3,2,4,0005-00-0000-49.png,0002-00-0000-65.png
00000014,178,1,1448464482451,1448464482989,413,416,0,0,0,1,2,1,3,0005-00-0000-72.png,0003-00-0000-50.png
00000014,179,1,1448464484325,1448464484739,913,476,0,0,0,4,3,1,7,0004-00-0000-62.png,0002-00-0001-19.png
00000014,180,1,1448464485959,1448464486750,891,457,0,0,0,4,2,2,6,0004-00-0001-84.png,0003-00-0000-55.png
00000014,181,1,1448464487918,1448464488308,416,460,0,0,0,0,3,3,3,0001-00-0001-86.png,0002-00-0001-01.png
00000014,182,0,1448464489558,1448464490050,870,479,0,0,0,3,4,1,7,0002-00-0001-24.png,0004-00-0001-59.png
00000014,183,1,1448464493493,1448464493969,410,450,0,0,0,1,3,2,4,0005-00-0001-34.png,0002-00-0001-19.png
00000014,184,1,1448464495043,1448464495544,917,478,0,0,0,3,1,2,4,0002-00-0001-85.png,0005-00-0001-12.png
00000014,185,1,1448464496772,1448464497247,882,460,0,0,0,4,1,3,5,0004-00-0000-10.png,0005-00-0001-40.png
00000014,186,0,1448464498429,1448464498920,920,480,0,0,0,2,4,2,6,0003-00-0001-86.png,0004-00-0000-32.png
00000014,187,1,1448464502717,1448464503149,932,514,0,0,0,2,0,2,2,0003-00-0000-87.png,0001-00-0000-86.png
00000014,188,1,1448464504393,1448464504830,402,457,0,0,0,0,4,4,4,0001-00-0000-83.png,0004-00-0000-71.png
00000014,189,1,1448464505943,1448464506440,912,476,0,0,0,4,3,1,7,0004-00-0001-57.png,0002-00-0001-52.png
00000014,190,1,1448464507812,1448464508298,872,564,0,0,0,2,1,1,3,0003-00-0001-20.png,0005-00-0001-19.png
00000014,191,1,1448464509871,1448464510476,930,499,0,0,0,1,0,1,1,0005-00-0001-79.png,0001-00-0001-25.png
00000014,192,1,1448464511578,1448464512053,883,463,0,0,0,4,2,2,6,0004-00-0000-05.png,0003-00-0000-68.png
00000014,193,0,1448464513536,1448464514111,922,434,0,0,0,1,4,3,5,0005-00-0000-35.png,0004-00-0001-20.png
00000014,194,1,1448464517460,1448464517855,933,450,0,0,0,4,0,4,4,0004-00-0000-32.png,0001-00-0000-42.png
00000014,195,1,1448464518952,1448464519352,432,471,0,0,0,1,2,1,3,0005-00-0001-10.png,0003-00-0000-78.png
00000014,196,1,1448464520482,1448464520966,884,474,0,0,0,3,2,1,5,0002-00-0001-60.png,0003-00-0000-34.png
00000014,197,0,1448464522967,1448464524514,401,402,0,0,0,3,0,3,3,0002-00-0000-38.png,0001-00-0001-40.png
00000014,198,1,1448464527905,1448464528768,336,384,0,0,0,0,1,1,1,0001-00-0000-61.png,0005-00-0000-36.png
00000014,199,0,1448464530367,1448464530862,927,450,0,0,0,2,3,1,5,0003-00-0001-08.png,0002-00-0001-65.png
00000014,200,1,1448464533859,1448464533875,503,389,0,0,0,0,2,2,2,0001-00-0000-84.png,0003-00-0001-11.png
00000014,201,0,1448464535952,1448464536518,862,530,0,0,0,0,4,4,4,0001-00-0000-59.png,0004-00-0000-64.png
00000014,202,1,1448464539711,1448464540692,297,368,0,0,0,0,3,3,3,0001-00-0000-56.png,0002-00-0000-73.png
00000014,203,1,1448464541714,1448464542200,886,455,0,0,0,4,0,4,4,0004-00-0000-55.png,0001-00-0000-31.png
00000014,204,1,1448464543535,1448464545044,884,411,0,0,0,4,3,1,7,0004-00-0001-82.png,0002-00-0000-26.png
00000014,205,1,1448464546327,1448464547835,900,363,0,0,0,3,0,3,3,0002-00-0001-37.png,0001-00-0000-65.png
00000014,206,0,1448464549381,1448464549806,397,408,0,0,0,3,1,2,4,0002-00-0000-16.png,0005-00-0000-72.png
00000014,207,0,1448464552736,1448464553232,929,458,0,0,0,3,4,1,7,0002-00-0000-25.png,0004-00-0000-76.png
00000014,208,0,1448464556466,1448464557512,948,424,0,0,0,0,1,1,1,0001-00-0000-91.png,0005-00-0001-82.png
00000014,209,1,1448464560636,1448464561102,936,443,0,0,0,4,1,3,5,0004-00-0001-74.png,0005-00-0000-98.png
00000014,210,1,1448464562266,1448464562765,925,489,0,0,0,2,1,1,3,0003-00-0001-55.png,0005-00-0000-86.png
00000014,211,1,1448464563797,1448464564164,379,450,0,0,0,0,2,2,2,0001-00-0000-52.png,0003-00-0001-09.png
00000014,212,1,1448464565309,1448464565971,380,399,0,0,0,1,4,3,5,0005-00-0000-74.png,0004-00-0000-40.png
00000014,213,0,1448464567144,1448464567610,894,450,0,0,0,2,3,1,5,0003-00-0001-46.png,0002-00-0000-65.png
00000014,214,1,1448464570873,1448464571729,349,530,0,0,0,1,3,2,4,0005-00-0001-70.png,0002-00-0000-81.png
00000014,215,1,1448464573027,1448464573655,951,437,0,0,0,4,2,2,6,0004-00-0000-00.png,0003-00-0001-29.png
00000014,216,0,1448464575338,1448464576336,368,412,0,0,0,1,0,1,1,0005-00-0000-61.png,0001-00-0001-24.png
00000014,217,0,1448464579512,1448464580576,973,509,0,0,0,2,4,2,6,0003-00-0001-77.png,0004-00-0000-78.png
00000014,218,1,1448464583702,1448464584256,413,477,0,0,0,1,2,1,3,0005-00-0000-73.png,0003-00-0000-35.png
00000014,219,1,1448464585547,1448464586036,926,463,0,0,0,2,0,2,2,0003-00-0001-71.png,0001-00-0001-47.png
00000014,220,1,1448464587589,1448464588259,922,517,0,0,0,3,2,1,5,0002-00-0001-11.png,0003-00-0001-96.png
00000014,221,1,1448464590269,1448464590695,940,475,0,0,0,4,1,3,5,0004-00-0001-49.png,0005-00-0001-70.png
00000014,222,1,1448464591831,1448464592352,950,458,0,0,0,2,1,1,3,0003-00-0001-27.png,0005-00-0000-32.png
00000014,223,0,1448464593518,1448464593980,898,481,0,0,0,3,4,1,7,0002-00-0001-45.png,0004-00-0001-21.png
00000014,224,1,1448464596890,1448464597322,926,463,0,0,0,1,0,1,1,0005-00-0000-47.png,0001-00-0000-64.png
00000014,225,1,1448464598567,1448464599048,900,449,0,0,0,3,2,1,5,0002-00-0000-25.png,0003-00-0001-98.png
00000014,226,1,1448464600256,1448464600681,465,514,0,0,0,1,4,3,5,0005-00-0000-77.png,0004-00-0001-32.png
00000014,227,1,1448464601835,1448464602337,926,462,0,0,0,2,0,2,2,0003-00-0000-33.png,0001-00-0001-70.png
00000014,228,1,1448464603542,1448464604032,875,450,0,0,0,4,3,1,7,0004-00-0001-13.png,0002-00-0001-56.png
00000014,229,1,1448464605242,1448464605730,411,546,0,0,0,0,4,4,4,0001-00-0001-76.png,0004-00-0000-98.png
00000014,230,1,1448464607340,1448464608432,908,455,0,0,0,3,1,2,4,0002-00-0000-28.png,0005-00-0001-28.png
00000014,231,1,1448464609580,1448464609990,423,551,0,0,0,0,3,3,3,0001-00-0001-64.png,0002-00-0000-53.png
00000014,232,1,1448464611236,1448464611693,896,472,0,0,0,4,2,2,6,0004-00-0001-98.png,0003-00-0000-54.png
00000014,233,0,1448464612835,1448464613340,888,476,0,0,0,0,2,2,2,0001-00-0000-48.png,0003-00-0000-13.png
00000014,234,0,1448464616535,1448464616987,915,475,0,0,0,2,4,2,6,0003-00-0000-86.png,0004-00-0001-96.png
00000014,235,0,1448464620627,1448464621094,952,436,0,0,0,1,2,1,3,0005-00-0000-05.png,0003-00-0000-19.png
00000014,236,0,1448464623936,1448464624387,888,410,0,0,0,2,3,1,5,0003-00-0001-64.png,0002-00-0001-73.png
00000014,237,1,1448464627559,1448464628958,370,358,0,0,0,1,3,2,4,0005-00-0001-70.png,0002-00-0001-56.png
00000014,238,1,1448464629997,1448464630549,875,554,0,0,0,4,0,4,4,0004-00-0001-99.png,0001-00-0001-50.png
00000014,239,1,1448464631696,1448464632100,384,466,0,0,0,0,1,1,1,0001-00-0000-72.png,0005-00-0001-20.png
00000014,240,1,1448464633285,1448464633789,924,474,0,0,0,3,0,3,3,0002-00-0000-41.png,0001-00-0000-75.png
00000014,241,0,1448464634915,1448464635356,861,554,0,0,0,2,3,1,5,0003-00-0000-55.png,0002-00-0001-06.png
00000014,242,1,1448464638533,1448464639425,376,501,0,0,0,0,1,1,1,0001-00-0000-56.png,0005-00-0000-91.png
00000014,243,1,1448464640639,1448464641598,369,399,0,0,0,1,3,2,4,0005-00-0000-39.png,0002-00-0001-03.png
00000014,244,0,1448464642886,1448464643362,913,476,0,0,0,1,4,3,5,0005-00-0000-53.png,0004-00-0001-31.png
00000014,245,0,1448464646692,1448464647156,933,489,0,0,0,1,2,1,3,0005-00-0001-68.png,0003-00-0000-06.png
00000014,246,1,1448464650448,1448464650919,882,542,0,0,0,3,2,1,5,0002-00-0000-94.png,0003-00-0001-77.png
00000014,247,1,1448464652169,1448464652589,925,488,0,0,0,2,1,1,3,0003-00-0000-33.png,0005-00-0000-94.png
00000014,248,1,1448464653802,1448464654761,940,450,0,0,0,3,1,2,4,0002-00-0001-17.png,0005-00-0000-74.png
00000014,249,1,1448464656279,1448464656689,938,476,0,0,0,2,0,2,2,0003-00-0000-40.png,0001-00-0001-58.png
00000014,250,1,1448464657853,1448464658374,901,494,0,0,0,4,0,4,4,0004-00-0001-95.png,0001-00-0001-65.png
00000014,251,0,1448464659486,1448464660027,940,475,0,0,0,3,4,1,7,0002-00-0001-75.png,0004-00-0001-75.png
00000014,252,1,1448464663167,1448464663665,435,389,0,0,0,0,3,3,3,0001-00-0000-57.png,0002-00-0000-72.png
00000014,253,0,1448464664795,1448464665376,947,479,0,0,0,2,4,2,6,0003-00-0000-37.png,0004-00-0001-33.png
00000014,254,1,1448464668413,1448464668838,959,473,0,0,0,3,0,3,3,0002-00-0001-06.png,0001-00-0000-79.png
00000014,255,1,1448464670019,1448464670438,376,451,0,0,0,0,4,4,4,0001-00-0000-29.png,0004-00-0000-49.png
00000014,256,1,1448464671682,1448464672177,897,485,0,0,0,4,2,2,6,0004-00-0001-81.png,0003-00-0000-84.png
00000014,257,0,1448464673349,1448464673964,401,393,0,0,0,1,0,1,1,0005-00-0000-20.png,0001-00-0001-88.png
00000014,258,1,1448464676979,1448464677441,926,475,0,0,0,4,1,3,5,0004-00-0000-80.png,0005-00-0000-22.png
00000014,259,1,1448464678560,1448464679372,350,420,0,0,0,0,2,2,2,0001-00-0001-71.png,0003-00-0000-49.png
00000014,260,1,1448464680528,1448464680984,937,502,0,0,0,4,3,1,7,0004-00-0001-14.png,0002-00-0001-97.png
00000014,261,0,1448464682314,1448464682856,921,472,0,0,0,2,4,2,6,0003-00-0000-69.png,0004-00-0000-22.png
00000014,262,0,1448464686468,1448464686909,960,473,0,0,0,2,3,1,5,0003-00-0001-78.png,0002-00-0001-70.png
00000014,263,0,1448464690276,1448464690698,938,450,0,0,0,0,4,4,4,0001-00-0001-22.png,0004-00-0001-10.png
00000014,264,1,1448464693854,1448464694316,952,488,0,0,0,2,0,2,2,0003-00-0001-82.png,0001-00-0000-16.png
00000014,265,0,1448464695469,1448464695919,923,432,0,0,0,1,4,3,5,0005-00-0000-29.png,0004-00-0001-46.png
00000014,266,1,1448464699265,1448464699691,953,466,0,0,0,4,1,3,5,0004-00-0000-33.png,0005-00-0000-18.png
00000014,267,1,1448464700835,1448464701420,925,476,0,0,0,4,2,2,6,0004-00-0000-94.png,0003-00-0001-03.png
00000014,268,0,1448464702837,1448464703279,370,479,0,0,0,4,3,1,7,0004-00-0001-06.png,0002-00-0000-81.png
00000014,269,1,1448464706312,1448464706825,410,399,0,0,0,1,3,2,4,0005-00-0000-96.png,0002-00-0001-41.png
00000014,270,1,1448464708026,1448464708871,341,377,0,0,0,0,2,2,2,0001-00-0000-69.png,0003-00-0000-32.png
00000014,271,1,1448464710585,1448464711015,900,476,0,0,0,4,0,4,4,0004-00-0000-70.png,0001-00-0000-27.png
00000014,272,1,1448464712131,1448464712647,903,494,0,0,0,1,0,1,1,0005-00-0000-08.png,0001-00-0000-25.png
00000014,273,1,1448464713873,1448464714337,410,536,0,0,0,0,3,3,3,0001-00-0001-81.png,0002-00-0001-32.png
00000014,274,1,1448464715544,1448464715943,395,462,0,0,0,0,1,1,1,0001-00-0000-71.png,0005-00-0000-83.png
00000014,275,1,1448464717596,1448464718037,414,426,0,0,0,1,2,1,3,0005-00-0000-56.png,0003-00-0001-46.png
00000014,276,1,1448464719427,1448464720051,899,425,0,0,0,3,2,1,5,0002-00-0000-54.png,0003-00-0001-05.png
00000014,277,1,1448464721373,1448464721841,924,457,0,0,0,3,1,2,4,0002-00-0001-71.png,0005-00-0000-80.png
00000014,278,0,1448464723404,1448464723986,952,475,0,0,0,3,4,1,7,0002-00-0000-71.png,0004-00-0000-89.png
00000014,279,1,1448464727424,1448464727854,950,475,0,0,0,2,1,1,3,0003-00-0000-97.png,0005-00-0000-82.png
00000014,280,1,1448464728978,1448464729453,928,476,0,0,0,3,0,3,3,0002-00-0001-79.png,0001-00-0001-08.png
00000014,281,1,1448464730606,1448464731003,381,480,0,0,0,1,2,1,3,0005-00-0000-62.png,0003-00-0001-10.png
00000014,282,1,1448464732585,1448464733024,873,559,0,0,0,4,0,4,4,0004-00-0001-79.png,0001-00-0000-05.png
00000014,283,0,1448464734145,1448464734600,471,480,0,0,0,4,2,2,6,0004-00-0001-47.png,0003-00-0001-29.png
00000014,284,1,1448464737804,1448464738326,393,391,0,0,0,1,4,3,5,0005-00-0000-61.png,0004-00-0001-14.png
00000014,285,1,1448464739388,1448464739857,897,481,0,0,0,3,0,3,3,0002-00-0001-73.png,0001-00-0001-65.png
00000014,286,0,1448464741124,1448464741589,369,451,0,0,0,3,1,2,4,0002-00-0001-33.png,0005-00-0001-76.png
00000014,287,1,1448464744904,1448464745320,928,467,0,0,0,4,1,3,5,0004-00-0000-70.png,0005-00-0000-13.png
00000014,288,0,1448464746657,1448464747119,923,484,0,0,0,1,3,2,4,0005-00-0001-73.png,0002-00-0000-20.png
00000014,289,1,1448464750106,1448464750530,947,446,0,0,0,4,3,1,7,0004-00-0001-33.png,0002-00-0000-34.png
00000014,290,1,1448464751762,1448464752241,913,462,0,0,0,1,0,1,1,0005-00-0000-99.png,0001-00-0001-77.png
00000014,291,1,1448464753454,1448464754148,401,436,0,0,0,0,1,1,1,0001-00-0000-49.png,0005-00-0001-77.png
00000014,292,0,1448464755291,1448464755764,898,456,0,0,0,2,3,1,5,0003-00-0001-24.png,0002-00-0001-08.png
00000014,293,1,1448464758776,1448464759206,884,520,0,0,0,2,0,2,2,0003-00-0001-30.png,0001-00-0001-34.png
00000014,294,1,1448464760408,1448464760985,873,436,0,0,0,3,2,1,5,0002-00-0001-95.png,0003-00-0000-01.png
00000014,295,1,1448464762218,1448464762669,900,475,0,0,0,2,1,1,3,0003-00-0001-42.png,0005-00-0000-89.png
00000014,296,0,1448464764507,1448464765145,900,474,0,0,0,3,4,1,7,0002-00-0000-30.png,0004-00-0000-84.png
00000014,297,1,1448464768288,1448464769166,358,376,0,0,0,0,3,3,3,0001-00-0000-78.png,0002-00-0001-91.png
00000014,298,0,1448464770336,1448464770809,913,489,0,0,0,2,4,2,6,0003-00-0000-57.png,0004-00-0001-33.png
00000014,299,0,1448464773996,1448464774546,953,469,0,0,0,0,2,2,2,0001-00-0001-82.png,0003-00-0001-93.png
00000014,300,1,1448464777551,1448464777563,504,424,0,0,0,0,4,4,4,0001-00-0001-13.png,0004-00-0000-41.png
00000014,301,1,1448464778791,1448464779437,951,448,0,0,0,3,2,1,5,0002-00-0000-07.png,0003-00-0000-81.png
00000014,302,0,1448464780688,1448464781168,900,514,0,0,0,2,3,1,5,0003-00-0000-58.png,0002-00-0000-71.png
00000014,303,0,1448464784130,1448464784554,936,464,0,0,0,0,3,3,3,0001-00-0000-57.png,0002-00-0000-55.png
00000014,304,1,1448464787718,1448464788181,940,518,0,0,0,4,1,3,5,0004-00-0001-77.png,0005-00-0001-51.png
00000014,305,1,1448464789346,1448464789869,916,482,0,0,0,4,2,2,6,0004-00-0001-49.png,0003-00-0001-85.png
00000014,306,1,1448464791123,1448464791568,380,453,0,0,0,1,3,2,4,0005-00-0001-04.png,0002-00-0000-41.png
00000014,307,1,1448464792826,1448464793306,900,489,0,0,0,2,1,1,3,0003-00-0000-05.png,0005-00-0001-78.png
00000014,308,1,1448464794531,1448464794891,376,488,0,0,0,0,4,4,4,0001-00-0001-52.png,0004-00-0000-29.png
00000014,309,1,1448464796096,1448464796556,396,457,0,0,0,1,4,3,5,0005-00-0000-08.png,0004-00-0000-44.png
00000014,310,1,1448464797731,1448464798213,876,476,0,0,0,4,0,4,4,0004-00-0001-86.png,0001-00-0000-61.png
00000014,311,1,1448464799400,1448464799942,875,489,0,0,0,1,0,1,1,0005-00-0001-50.png,0001-00-0000-07.png
00000014,312,1,1448464801150,1448464801631,901,462,0,0,0,3,0,3,3,0002-00-0001-46.png,0001-00-0001-28.png
00000014,313,1,1448464802881,1448464803324,913,476,0,0,0,2,0,2,2,0003-00-0001-63.png,0001-00-0001-13.png
00000014,314,1,1448464804517,1448464804925,381,469,0,0,0,0,1,1,1,0001-00-0001-11.png,0005-00-0000-22.png
00000014,315,1,1448464806107,1448464807129,912,450,0,0,0,3,1,2,4,0002-00-0001-71.png,0005-00-0001-27.png
00000014,316,0,1448464808224,1448464808629,381,463,0,0,0,4,3,1,7,0004-00-0001-06.png,0002-00-0000-04.png
00000014,317,1,1448464812260,1448464812704,400,428,0,0,0,0,2,2,2,0001-00-0000-93.png,0003-00-0000-84.png
00000014,318,1,1448464813908,1448464814343,370,452,0,0,0,1,2,1,3,0005-00-0000-22.png,0003-00-0001-08.png
00000014,319,0,1448464815549,1448464816162,924,535,0,0,0,3,4,1,7,0002-00-0001-54.png,0004-00-0001-59.png
00000014,320,1,1448464819188,1448464819747,343,371,0,0,0,2,4,2,6,0003-00-0000-60.png,0004-00-0000-85.png
00000014,321,1,1448464821286,1448464822177,895,550,0,0,0,2,1,1,3,0003-00-0000-68.png,0005-00-0000-31.png
00000014,322,1,1448464823430,1448464823842,394,419,0,0,0,1,4,3,5,0005-00-0001-28.png,0004-00-0000-83.png
00000014,323,1,1448464824992,1448464825486,927,476,0,0,0,2,0,2,2,0003-00-0000-22.png,0001-00-0000-41.png
00000014,324,0,1448464826667,1448464827161,922,471,0,0,0,2,4,2,6,0003-00-0001-32.png,0004-00-0001-95.png
00000014,325,1,1448464830272,1448464830745,924,485,0,0,0,4,3,1,7,0004-00-0001-76.png,0002-00-0001-40.png
00000014,326,1,1448464831987,1448464832372,392,453,0,0,0,1,2,1,3,0005-00-0001-54.png,0003-00-0001-00.png
00000014,327,0,1448464833683,1448464834135,863,468,0,0,0,2,3,1,5,0003-00-0000-75.png,0002-00-0001-83.png
00000014,328,1,1448464837094,1448464837565,876,555,0,0,0,1,0,1,1,0005-00-0001-34.png,0001-00-0000-94.png
00000014,329,1,1448464838791,1448464839211,399,471,0,0,0,0,1,1,1,0001-00-0000-87.png,0005-00-0000-25.png
00000014,330,1,1448464840389,1448464840792,368,462,0,0,0,0,4,4,4,0001-00-0001-97.png,0004-00-0001-52.png
00000014,331,1,1448464842118,1448464842584,430,477,0,0,0,1,3,2,4,0005-00-0001-89.png,0002-00-0000-39.png
00000014,332,0,1448464843896,1448464844415,901,487,0,0,0,3,4,1,7,0002-00-0001-45.png,0004-00-0001-42.png
00000014,333,1,1448464847567,1448464848050,928,519,0,0,0,3,1,2,4,0002-00-0000-96.png,0005-00-0000-15.png
00000014,334,1,1448464849191,1448464850165,951,463,0,0,0,4,2,2,6,0004-00-0000-24.png,0003-00-0001-43.png
00000014,335,1,1448464851412,1448464851872,896,472,0,0,0,4,1,3,5,0004-00-0001-41.png,0005-00-0001-18.png
00000014,336,1,1448464853049,1448464853414,384,472,0,0,0,0,2,2,2,0001-00-0001-55.png,0003-00-0001-03.png
00000014,337,0,1448464854670,1448464855160,901,493,0,0,0,0,3,3,3,0001-00-0000-34.png,0002-00-0000-98.png
00000014,338,1,1448464858437,1448464858864,945,482,0,0,0,3,0,3,3,0002-00-0001-67.png,0001-00-0000-05.png
00000014,339,1,1448464859919,1448464860467,899,410,0,0,0,3,2,1,5,0002-00-0000-42.png,0003-00-0001-78.png
00000014,340,1,1448464861655,1448464862178,898,482,0,0,0,4,0,4,4,0004-00-0001-25.png,0001-00-0000-88.png
00000014,341,1,1448464863396,1448464863823,899,517,0,0,0,3,2,1,5,0002-00-0001-76.png,0003-00-0001-10.png
00000014,342,1,1448464864903,1448464865391,912,476,0,0,0,1,0,1,1,0005-00-0000-59.png,0001-00-0001-23.png
00000014,343,1,1448464866453,1448464866988,901,489,0,0,0,3,1,2,4,0002-00-0001-02.png,0005-00-0001-52.png
00000014,344,1,1448464868521,1448464868975,453,557,0,0,0,1,2,1,3,0005-00-0000-44.png,0003-00-0001-13.png
00000014,345,1,1448464870557,1448464871000,439,436,0,0,0,2,3,1,5,0003-00-0001-87.png,0002-00-0001-99.png
00000014,346,1,1448464872545,1448464873077,905,506,0,0,0,4,2,2,6,0004-00-0001-49.png,0003-00-0000-55.png
00000014,347,1,1448464874251,1448464874711,415,483,0,0,0,0,1,1,1,0001-00-0001-60.png,0005-00-0001-23.png
00000014,348,0,1448464875875,1448464876847,934,456,0,0,0,3,4,1,7,0002-00-0000-62.png,0004-00-0000-55.png
00000014,349,0,1448464881568,1448464882022,952,489,0,0,0,1,3,2,4,0005-00-0001-97.png,0002-00-0000-39.png
00000014,350,1,1448464884879,1448464885244,952,436,0,0,0,2,1,1,3,0003-00-0000-51.png,0005-00-0000-42.png
00000014,351,1,1448464886269,1448464886711,938,452,0,0,0,2,0,2,2,0003-00-0000-95.png,0001-00-0000-69.png
00000014,352,1,1448464888139,1448464888501,372,471,0,0,0,0,3,3,3,0001-00-0000-72.png,0002-00-0001-19.png
00000014,353,1,1448464890123,1448464890571,900,482,0,0,0,4,1,3,5,0004-00-0000-08.png,0005-00-0000-72.png
00000014,354,1,1448464891746,1448464892164,413,482,0,0,0,2,4,2,6,0003-00-0000-51.png,0004-00-0001-05.png
00000014,355,0,1448464893521,1448464893990,865,564,0,0,0,1,4,3,5,0005-00-0000-55.png,0004-00-0000-32.png
00000014,356,0,1448464897605,1448464898029,975,484,0,0,0,0,4,4,4,0001-00-0000-79.png,0004-00-0000-10.png
00000014,357,1,1448464900986,1448464901385,427,462,0,0,0,0,2,2,2,0001-00-0000-87.png,0003-00-0000-14.png
00000014,358,1,1448464902916,1448464903318,925,474,0,0,0,3,0,3,3,0002-00-0000-34.png,0001-00-0000-47.png
00000014,359,1,1448464904495,1448464904969,902,476,0,0,0,4,0,4,4,0004-00-0001-48.png,0001-00-0001-90.png
00000014,360,0,1448464906152,1448464906696,497,518,0,0,0,4,3,1,7,0004-00-0001-76.png,0002-00-0001-90.png
00000014,361,1,1448464909880,1448464910314,937,503,0,0,0,4,1,3,5,0004-00-0000-47.png,0005-00-0000-67.png
00000014,362,1,1448464911369,1448464911875,946,467,0,0,0,1,0,1,1,0005-00-0000-97.png,0001-00-0000-34.png
00000014,363,1,1448464912997,1448464913456,901,502,0,0,0,3,1,2,4,0002-00-0000-24.png,0005-00-0001-49.png
00000014,364,0,1448464914781,1448464915244,900,489,0,0,0,2,3,1,5,0003-00-0000-96.png,0002-00-0001-13.png
00000014,365,1,1448464918225,1448464918630,435,522,0,0,0,0,3,3,3,0001-00-0000-33.png,0002-00-0001-29.png
00000014,366,1,1448464919744,1448464920161,389,486,0,0,0,0,4,4,4,0001-00-0000-96.png,0004-00-0000-19.png
00000014,367,0,1448464921416,1448464921841,398,471,0,0,0,3,2,1,5,0002-00-0001-83.png,0003-00-0000-92.png
00000014,368,1,1448464924845,1448464925257,963,502,0,0,0,2,1,1,3,0003-00-0000-08.png,0005-00-0000-86.png
00000014,369,1,1448464926297,1448464926732,938,473,0,0,0,4,3,1,7,0004-00-0001-79.png,0002-00-0001-32.png
00000014,370,0,1448464927965,1448464928404,900,501,0,0,0,0,1,1,1,0001-00-0000-99.png,0005-00-0001-66.png
00000014,371,1,1448464931484,1448464931928,393,418,0,0,0,1,2,1,3,0005-00-0001-44.png,0003-00-0001-73.png
00000014,372,1,1448464933172,1448464933690,920,476,0,0,0,3,0,3,3,0002-00-0001-84.png,0001-00-0000-34.png
00000014,373,1,1448464935023,1448464935466,369,472,0,0,0,3,4,1,7,0002-00-0001-86.png,0004-00-0000-21.png
00000014,374,1,1448464936600,1448464937009,400,446,0,0,0,0,2,2,2,0001-00-0001-93.png,0003-00-0001-88.png
00000014,375,1,1448464938190,1448464938668,902,495,0,0,0,2,0,2,2,0003-00-0001-11.png,0001-00-0000-02.png
00000014,376,0,1448464939838,1448464940312,906,479,0,0,0,2,4,2,6,0003-00-0001-06.png,0004-00-0000-45.png
00000014,377,1,1448464943606,1448464944327,862,410,0,0,0,4,0,4,4,0004-00-0000-75.png,0001-00-0001-33.png
00000014,378,1,1448464945626,1448464946065,403,452,0,0,0,1,3,2,4,0005-00-0000-94.png,0002-00-0000-24.png
00000014,379,0,1448464947176,1448464947615,466,489,0,0,0,4,2,2,6,0004-00-0000-40.png,0003-00-0001-22.png
00000014,380,1,1448464950649,1448464951936,334,397,0,0,0,1,4,3,5,0005-00-0000-60.png,0004-00-0001-35.png
00000014,381,1,1448464953147,1448464953884,387,392,0,0,0,3,4,1,7,0002-00-0001-12.png,0004-00-0001-21.png
00000014,382,1,1448464955058,1448464955573,404,562,0,0,0,1,4,3,5,0005-00-0001-90.png,0004-00-0001-12.png
00000014,383,0,1448464956725,1448464957257,900,464,0,0,0,2,3,1,5,0003-00-0000-11.png,0002-00-0001-95.png
00000014,384,0,1448464960580,1448464961096,360,418,0,0,0,2,1,1,3,0003-00-0001-87.png,0005-00-0000-01.png
00000014,385,1,1448464965352,1448464965779,899,437,0,0,0,4,3,1,7,0004-00-0000-78.png,0002-00-0001-77.png
00000014,386,1,1448464966901,1448464967337,387,488,0,0,0,1,2,1,3,0005-00-0000-52.png,0003-00-0001-21.png
00000014,387,1,1448464968461,1448464968983,951,464,0,0,0,3,1,2,4,0002-00-0000-38.png,0005-00-0000-01.png
00000014,388,1,1448464970048,1448464970532,869,445,0,0,0,2,0,2,2,0003-00-0001-33.png,0001-00-0000-66.png
00000014,389,1,1448464971727,1448464972275,905,479,0,0,0,4,2,2,6,0004-00-0000-73.png,0003-00-0000-69.png
00000014,390,1,1448464973523,1448464974035,888,501,0,0,0,4,1,3,5,0004-00-0000-66.png,0005-00-0001-86.png
00000014,391,0,1448464975128,1448464975503,385,463,0,0,0,3,2,1,5,0002-00-0001-82.png,0003-00-0000-36.png
00000014,392,1,1448464979690,1448464980149,381,412,0,0,0,0,3,3,3,0001-00-0000-27.png,0002-00-0001-62.png
00000014,393,1,1448464981460,1448464981823,356,434,0,0,0,0,2,2,2,0001-00-0000-93.png,0003-00-0000-34.png
00000014,394,0,1448464982907,1448464983471,908,499,0,0,0,2,4,2,6,0003-00-0001-55.png,0004-00-0001-38.png
00000014,395,1,1448464987283,1448464987707,393,434,0,0,0,0,1,1,1,0001-00-0000-54.png,0005-00-0001-06.png
00000014,396,0,1448464988831,1448464989728,389,409,0,0,0,4,0,4,4,0004-00-0001-23.png,0001-00-0000-64.png
00000014,397,0,1448464993393,1448464993832,405,453,0,0,0,1,0,1,1,0005-00-0001-62.png,0001-00-0000-53.png
00000014,398,0,1448464997247,1448464997737,949,542,0,0,0,1,3,2,4,0005-00-0001-66.png,0002-00-0001-41.png
00000014,399,1,1448465000974,1448465001707,350,382,0,0,0,0,4,4,4,0001-00-0000-28.png,0004-00-0001-63.png
00000014,400,1,1448465002791,1448465003277,919,483,0,0,0,3,0,3,3,0002-00-0001-64.png,0001-00-0001-80.png
00000014,401,0,1448465004390,1448465004916,907,482,0,0,0,2,3,1,5,0003-00-0001-69.png,0002-00-0000-00.png
00000014,402,1,1448465007889,1448465008305,912,528,0,0,0,3,1,2,4,0002-00-0000-85.png,0005-00-0000-62.png
00000014,403,1,1448465009666,1448465010165,949,481,0,0,0,4,0,4,4,0004-00-0000-28.png,0001-00-0001-30.png
00000014,404,0,1448465011239,1448465011755,902,513,0,0,0,2,4,2,6,0003-00-0001-93.png,0004-00-0000-33.png
00000014,405,0,1448465014616,1448465015320,401,436,0,0,0,1,0,1,1,0005-00-0000-94.png,0001-00-0000-29.png
00000014,406,1,1448465018937,1448465019376,927,470,0,0,0,4,2,2,6,0004-00-0001-12.png,0003-00-0001-07.png
00000014,407,1,1448465020540,1448465020969,406,452,0,0,0,1,2,1,3,0005-00-0001-51.png,0003-00-0001-31.png
00000014,408,1,1448465022327,1448465022817,926,449,0,0,0,4,3,1,7,0004-00-0000-45.png,0002-00-0000-61.png
00000014,409,1,1448465024008,1448465024440,419,497,0,0,0,0,2,2,2,0001-00-0000-54.png,0003-00-0001-83.png
00000014,410,1,1448465025604,1448465026080,916,480,0,0,0,4,1,3,5,0004-00-0000-33.png,0005-00-0001-85.png
00000014,411,1,1448465027255,1448465027695,398,445,0,0,0,0,4,4,4,0001-00-0001-62.png,0004-00-0000-36.png
00000014,412,1,1448465028875,1448465029403,899,491,0,0,0,3,0,3,3,0002-00-0000-10.png,0001-00-0001-17.png
00000014,413,1,1448465030455,1448465030864,391,476,0,0,0,0,3,3,3,0001-00-0001-53.png,0002-00-0000-88.png
00000014,414,0,1448465032091,1448465032595,899,508,0,0,0,3,4,1,7,0002-00-0000-48.png,0004-00-0001-01.png
00000014,415,1,1448465036121,1448465036573,935,544,0,0,0,2,0,2,2,0003-00-0001-62.png,0001-00-0000-22.png
00000014,416,0,1448465037789,1448465038286,901,502,0,0,0,1,3,2,4,0005-00-0001-93.png,0002-00-0001-73.png
00000014,417,1,1448465041578,1448465042089,938,502,0,0,0,2,1,1,3,0003-00-0001-75.png,0005-00-0000-48.png
00000014,418,1,1448465043204,1448465043862,375,393,0,0,0,1,4,3,5,0005-00-0000-34.png,0004-00-0001-41.png
00000014,419,0,1448465045064,1448465045517,368,454,0,0,0,3,2,1,5,0002-00-0001-38.png,0003-00-0000-87.png
00000014,420,1,1448465048591,1448465049024,415,431,0,0,0,0,1,1,1,0001-00-0001-01.png,0005-00-0000-57.png
00000014,421,1,1448465050160,1448465050518,403,473,0,0,0,0,4,4,4,0001-00-0001-55.png,0004-00-0001-55.png
00000014,422,1,1448465051743,1448465052222,899,509,0,0,0,2,1,1,3,0003-00-0001-54.png,0005-00-0000-23.png
00000014,423,0,1448465053402,1448465053779,426,497,0,0,0,3,1,2,4,0002-00-0001-79.png,0005-00-0000-77.png
00000014,424,1,1448465057080,1448465057525,938,502,0,0,0,4,2,2,6,0004-00-0000-39.png,0003-00-0001-64.png
00000014,425,0,1448465058697,1448465059117,407,462,0,0,0,3,2,1,5,0002-00-0000-85.png,0003-00-0001-51.png
00000014,426,1,1448465062373,1448465062846,864,467,0,0,0,4,3,1,7,0004-00-0000-89.png,0002-00-0000-84.png
00000014,427,1,1448465064122,1448465064522,378,476,0,0,0,0,1,1,1,0001-00-0001-22.png,0005-00-0001-97.png
00000014,428,1,1448465065600,1448465065992,417,474,0,0,0,0,2,2,2,0001-00-0000-80.png,0003-00-0000-18.png
00000014,429,0,1448465067272,1448465067725,923,508,0,0,0,1,2,1,3,0005-00-0000-76.png,0003-00-0001-79.png
00000014,430,1,1448465070904,1448465071343,913,475,0,0,0,4,0,4,4,0004-00-0000-60.png,0001-00-0000-56.png
00000014,431,0,1448465072429,1448465072872,917,491,0,0,0,2,3,1,5,0003-00-0000-13.png,0002-00-0001-72.png
00000014,432,1,1448465075938,1448465076680,954,491,0,0,0,4,1,3,5,0004-00-0000-86.png,0005-00-0000-49.png
00000014,433,1,1448465077895,1448465078278,407,450,0,0,0,0,3,3,3,0001-00-0000-71.png,0002-00-0001-57.png
00000014,434,1,1448465079486,1448465079936,906,504,0,0,0,3,0,3,3,0002-00-0000-04.png,0001-00-0001-14.png
00000014,435,0,1448465081184,1448465081696,901,502,0,0,0,1,3,2,4,0005-00-0000-85.png,0002-00-0000-07.png
00000014,436,0,1448465084971,1448465085444,929,522,0,0,0,3,4,1,7,0002-00-0000-63.png,0004-00-0001-92.png
00000014,437,1,1448465088326,1448465088362,504,384,0,0,0,2,4,2,6,0003-00-0001-95.png,0004-00-0001-50.png
00000014,438,0,1448465089578,1448465090048,927,501,0,0,0,1,4,3,5,0005-00-0000-53.png,0004-00-0001-43.png
00000014,439,1,1448465093100,1448465093573,933,498,0,0,0,2,0,2,2,0003-00-0000-52.png,0001-00-0001-19.png
00000014,440,1,1448465094727,1448465095222,925,489,0,0,0,1,0,1,1,0005-00-0001-21.png,0001-00-0000-19.png
00000014,441,1,1448465096407,1448465096903,905,480,0,0,0,3,0,3,3,0002-00-0000-72.png,0001-00-0001-01.png
00000014,442,1,1448465098035,1448465098530,912,502,0,0,0,2,0,2,2,0003-00-0001-48.png,0001-00-0001-19.png
00000014,443,0,1448465099633,1448465100100,900,462,0,0,0,3,4,1,7,0002-00-0000-41.png,0004-00-0000-61.png
00000014,444,1,1448465103260,1448465103704,462,537,0,0,0,1,4,3,5,0005-00-0001-80.png,0004-00-0000-31.png
00000014,445,1,1448465104892,1448465105404,896,498,0,0,0,3,1,2,4,0002-00-0000-51.png,0005-00-0001-61.png
00000014,446,0,1448465106562,1448465107086,918,495,0,0,0,2,4,2,6,0003-00-0000-78.png,0004-00-0000-75.png
00000014,447,1,1448465110438,1448465110881,375,418,0,0,0,0,4,4,4,0001-00-0001-35.png,0004-00-0000-23.png
00000014,448,1,1448465112216,1448465112651,913,502,0,0,0,4,1,3,5,0004-00-0001-84.png,0005-00-0001-31.png
00000014,449,0,1448465114016,1448465114467,900,463,0,0,0,2,3,1,5,0003-00-0001-61.png,0002-00-0000-63.png
00000014,450,1,1448465117611,1448465118107,925,463,0,0,0,4,3,1,7,0004-00-0000-72.png,0002-00-0000-80.png
00000014,451,0,1448465119401,1448465119953,925,463,0,0,0,0,1,1,1,0001-00-0001-60.png,0005-00-0000-49.png
00000014,452,1,1448465122968,1448465123478,950,465,0,0,0,2,1,1,3,0003-00-0000-30.png,0005-00-0001-07.png
00000014,453,1,1448465124728,1448465125175,924,456,0,0,0,4,2,2,6,0004-00-0000-54.png,0003-00-0001-59.png
00000014,454,0,1448465126427,1448465126823,441,483,0,0,0,3,2,1,5,0002-00-0001-26.png,0003-00-0001-75.png
00000014,455,1,1448465130556,1448465131041,408,430,0,0,0,1,2,1,3,0005-00-0001-41.png,0003-00-0000-59.png
00000014,456,0,1448465132520,1448465133024,931,506,0,0,0,0,3,3,3,0001-00-0000-39.png,0002-00-0000-87.png
00000014,457,0,1448465136203,1448465136728,932,473,0,0,0,1,3,2,4,0005-00-0000-11.png,0002-00-0000-22.png
00000014,458,0,1448465139781,1448465140498,408,407,0,0,0,1,0,1,1,0005-00-0000-00.png,0001-00-0000-54.png
00000014,459,0,1448465143362,1448465143422,478,436,0,0,0,4,0,4,4,0004-00-0000-33.png,0001-00-0001-83.png
00000014,460,1,1448465146718,1448465147171,380,419,0,0,0,0,2,2,2,0001-00-0001-58.png,0003-00-0001-18.png
00000014,461,0,1448465148423,1448465148957,904,427,0,0,0,1,3,2,4,0005-00-0000-33.png,0002-00-0000-75.png
00000014,462,1,1448465152214,1448465152716,928,450,0,0,0,2,0,2,2,0003-00-0000-17.png,0001-00-0001-68.png
00000014,463,0,1448465154169,1448465154704,903,470,0,0,0,3,4,1,7,0002-00-0001-43.png,0004-00-0000-05.png
00000014,464,1,1448465157828,1448465158327,951,463,0,0,0,3,1,2,4,0002-00-0001-03.png,0005-00-0001-25.png
00000014,465,1,1448465159520,1448465160100,920,480,0,0,0,4,1,3,5,0004-00-0000-70.png,0005-00-0001-00.png
00000014,466,0,1448465161165,1448465161614,901,461,0,0,0,2,4,2,6,0003-00-0000-49.png,0004-00-0000-20.png
00000014,467,0,1448465165032,1448465165495,915,493,0,0,0,2,3,1,5,0003-00-0000-17.png,0002-00-0001-36.png
00000014,468,1,1448465168442,1448465168945,875,565,0,0,0,3,2,1,5,0002-00-0000-72.png,0003-00-0001-60.png
00000014,469,1,1448465170109,1448465170501,403,482,0,0,0,1,4,3,5,0005-00-0001-63.png,0004-00-0000-11.png
00000014,470,1,1448465171710,1448465172162,392,493,0,0,0,0,3,3,3,0001-00-0001-46.png,0002-00-0000-13.png
00000014,471,1,1448465173369,1448465173828,411,548,0,0,0,0,2,2,2,0001-00-0000-98.png,0003-00-0001-16.png
00000014,472,1,1448465175118,1448465175568,382,462,0,0,0,0,1,1,1,0001-00-0000-64.png,0005-00-0000-01.png
00000014,473,1,1448465176808,1448465177278,889,494,0,0,0,2,1,1,3,0003-00-0001-19.png,0005-00-0001-85.png
00000014,474,1,1448465178307,1448465178762,427,436,0,0,0,1,2,1,3,0005-00-0001-01.png,0003-00-0001-23.png
00000014,475,1,1448465180074,1448465180567,891,521,0,0,0,3,0,3,3,0002-00-0001-17.png,0001-00-0001-20.png
00000014,476,1,1448465181889,1448465182359,899,464,0,0,0,4,0,4,4,0004-00-0001-92.png,0001-00-0000-28.png
00000014,477,1,1448465183524,1448465183927,422,497,0,0,0,0,4,4,4,0001-00-0001-82.png,0004-00-0000-31.png
00000014,478,0,1448465185225,1448465185684,438,472,0,0,0,1,0,1,1,0005-00-0000-74.png,0001-00-0001-44.png
00000014,479,1,1448465188602,1448465189062,939,475,0,0,0,4,3,1,7,0004-00-0000-01.png,0002-00-0001-05.png
00000014,480,1,1448465190212,1448465190745,926,489,0,0,0,4,2,2,6,0004-00-0000-92.png,0003-00-0001-10.png
00000014,481,1,1448465192129,1448465192564,361,461,0,0,0,0,1,1,1,0001-00-0001-67.png,0005-00-0001-22.png
00000014,482,1,1448465193755,1448465194228,903,492,0,0,0,2,0,2,2,0003-00-0000-70.png,0001-00-0001-75.png
00000014,483,1,1448465195528,1448465196032,907,494,0,0,0,4,0,4,4,0004-00-0000-60.png,0001-00-0001-22.png
00000014,484,0,1448465197207,1448465197606,446,494,0,0,0,1,0,1,1,0005-00-0001-87.png,0001-00-0000-90.png
00000014,485,1,1448465200841,1448465201344,366,430,0,0,0,1,4,3,5,0005-00-0000-78.png,0004-00-0001-91.png
00000014,486,0,1448465202410,1448465202841,453,436,0,0,0,3,2,1,5,0002-00-0001-08.png,0003-00-0001-76.png
00000014,487,0,1448465206110,1448465206665,401,423,0,0,0,4,2,2,6,0004-00-0000-77.png,0003-00-0000-94.png
00000014,488,1,1448465209646,1448465210290,370,450,0,0,0,3,4,1,7,0002-00-0000-46.png,0004-00-0000-00.png
00000014,489,0,1448465211625,1448465212228,869,445,0,0,0,1,2,1,3,0005-00-0001-31.png,0003-00-0000-65.png
00000014,490,1,1448465215452,1448465215891,396,423,0,0,0,0,2,2,2,0001-00-0000-30.png,0003-00-0000-32.png
00000014,491,1,1448465217530,1448465218011,871,445,0,0,0,3,1,2,4,0002-00-0000-37.png,0005-00-0001-00.png
00000014,492,1,1448465219287,1448465219679,353,448,0,0,0,0,3,3,3,0001-00-0001-80.png,0002-00-0001-26.png
00000014,493,0,1448465220984,1448465221468,897,509,0,0,0,2,3,1,5,0003-00-0001-00.png,0002-00-0000-10.png
00000014,494,1,1448465224356,1448465224890,414,407,0,0,0,2,4,2,6,0003-00-0001-70.png,0004-00-0000-26.png
00000014,495,1,1448465226278,1448465226758,927,489,0,0,0,3,0,3,3,0002-00-0000-61.png,0001-00-0000-23.png
00000014,496,1,1448465227913,1448465228402,905,480,0,0,0,4,3,1,7,0004-00-0000-72.png,0002-00-0000-39.png
00000014,497,1,1448465229601,1448465230009,401,465,0,0,0,1,3,2,4,0005-00-0000-95.png,0002-00-0000-51.png
00000014,498,1,1448465231301,1448465231813,913,476,0,0,0,4,1,3,5,0004-00-0001-62.png,0005-00-0001-05.png
00000014,499,1,1448465232940,1448465233332,479,478,0,0,0,0,4,4,4,0001-00-0000-12.png,0004-00-0001-27.png
00000014,500,1,1448465234581,1448465235133,888,488,0,0,0,2,1,1,3,0003-00-0001-68.png,0005-00-0001-63.png
00000014,501,0,1448465236357,1448465237480,951,542,0,0,0,3,4,1,7,0002-00-0001-55.png,0004-00-0001-10.png
00000014,502,1,1448465240662,1448465241155,408,392,0,0,0,1,4,3,5,0005-00-0001-49.png,0004-00-0000-53.png
00000014,503,1,1448465242333,1448465242843,902,520,0,0,0,4,2,2,6,0004-00-0000-11.png,0003-00-0001-90.png
00000014,504,1,1448465244188,1448465244731,898,485,0,0,0,2,1,1,3,0003-00-0001-98.png,0005-00-0000-63.png
00000014,505,1,1448465246003,1448465246502,902,518,0,0,0,4,1,3,5,0004-00-0001-71.png,0005-00-0001-58.png
00000014,506,1,1448465247685,1448465248128,389,472,0,0,0,0,3,3,3,0001-00-0001-36.png,0002-00-0001-30.png
00000014,507,1,1448465249324,1448465250289,928,471,0,0,0,3,1,2,4,0002-00-0001-63.png,0005-00-0001-62.png
00000014,508,1,1448465251548,1448465251946,376,514,0,0,0,2,3,1,5,0003-00-0000-98.png,0002-00-0000-79.png
00000014,509,1,1448465253148,1448465253707,949,484,0,0,0,4,3,1,7,0004-00-0001-27.png,0002-00-0001-22.png
00000014,510,1,1448465254796,1448465255335,901,487,0,0,0,1,0,1,1,0005-00-0001-59.png,0001-00-0001-08.png
00000014,511,1,1448465256507,1448465256978,887,502,0,0,0,3,2,1,5,0002-00-0001-56.png,0003-00-0000-40.png
00000014,512,1,1448465258268,1448465258653,459,504,0,0,0,1,3,2,4,0005-00-0001-16.png,0002-00-0001-18.png
00000014,513,1,1448465259963,1448465260378,427,450,0,0,0,0,4,4,4,0001-00-0000-33.png,0004-00-0000-93.png
00000014,514,0,1448465261709,1448465262292,927,521,0,0,0,2,4,2,6,0003-00-0001-45.png,0004-00-0001-23.png
00000014,515,0,1448465265350,1448465265866,914,501,0,0,0,0,1,1,1,0001-00-0001-12.png,0005-00-0000-18.png
00000014,516,1,1448465269156,1448465269652,394,557,0,0,0,1,2,1,3,0005-00-0001-48.png,0003-00-0001-02.png
00000014,517,1,1448465270878,1448465271306,357,486,0,0,0,0,2,2,2,0001-00-0000-42.png,0003-00-0001-54.png
00000014,518,1,1448465272585,1448465273049,901,514,0,0,0,2,0,2,2,0003-00-0001-19.png,0001-00-0001-35.png
00000014,519,1,1448465274295,1448465274810,924,510,0,0,0,3,0,3,3,0002-00-0000-43.png,0001-00-0001-11.png
00000014,520,1,1448465276048,1448465276565,888,476,0,0,0,4,0,4,4,0004-00-0000-53.png,0001-00-0000-83.png
00000014,521,1,1448465277911,1448465278307,432,471,0,0,0,1,3,2,4,0005-00-0001-00.png,0002-00-0001-86.png
00000014,522,1,1448465279431,1448465279841,365,449,0,0,0,0,3,3,3,0001-00-0000-35.png,0002-00-0001-98.png
00000014,523,0,1448465281101,1448465282032,939,476,0,0,0,3,4,1,7,0002-00-0000-21.png,0004-00-0000-49.png
00000014,524,0,1448465285437,1448465285905,953,488,0,0,0,2,3,1,5,0003-00-0000-00.png,0002-00-0000-70.png
00000014,525,1,1448465289397,1448465290257,393,402,0,0,0,0,1,1,1,0001-00-0001-54.png,0005-00-0001-04.png
00000014,526,1,1448465291336,1448465291810,921,498,0,0,0,4,0,4,4,0004-00-0001-25.png,0001-00-0001-60.png
00000014,527,1,1448465293095,1448465293585,876,487,0,0,0,3,0,3,3,0002-00-0000-67.png,0001-00-0001-97.png
00000014,528,1,1448465294784,1448465295278,901,515,0,0,0,3,1,2,4,0002-00-0000-27.png,0005-00-0001-49.png
00000014,529,1,1448465296376,1448465296885,882,483,0,0,0,4,2,2,6,0004-00-0000-42.png,0003-00-0001-78.png
00000014,530,0,1448465298191,1448465298603,420,468,0,0,0,1,0,1,1,0005-00-0000-22.png,0001-00-0001-44.png
00000014,531,0,1448465301839,1448465302510,416,431,0,0,0,4,3,1,7,0004-00-0001-46.png,0002-00-0001-91.png
00000014,532,1,1448465305488,1448465306417,350,429,0,0,0,1,2,1,3,0005-00-0001-58.png,0003-00-0000-71.png
00000014,533,1,1448465307929,1448465308392,899,500,0,0,0,4,1,3,5,0004-00-0000-01.png,0005-00-0000-88.png
00000014,534,1,1448465309976,1448465310468,414,436,0,0,0,1,4,3,5,0005-00-0001-38.png,0004-00-0001-00.png
00000014,535,1,1448465312157,1448465312642,899,482,0,0,0,2,1,1,3,0003-00-0000-17.png,0005-00-0000-96.png
00000014,536,1,1448465314001,1448465314487,896,498,0,0,0,3,2,1,5,0002-00-0001-28.png,0003-00-0000-87.png
00000014,537,0,1448465315689,1448465316215,875,462,0,0,0,2,4,2,6,0003-00-0001-52.png,0004-00-0000-97.png
00000014,538,1,1448465319578,1448465320049,443,548,0,0,0,0,2,2,2,0001-00-0001-91.png,0003-00-0000-46.png
00000014,539,1,1448465321218,1448465321725,900,489,0,0,0,2,0,2,2,0003-00-0001-68.png,0001-00-0001-41.png
00000014,540,1,1448465322971,1448465323371,367,449,0,0,0,0,4,4,4,0001-00-0001-36.png,0004-00-0000-78.png
00000014,541,1,1448465325105,1448465325556,925,464,0,0,0,1,0,1,1,0005-00-0000-50.png,0001-00-0001-02.png
00000014,542,1,1448465326799,1448465327240,370,477,0,0,0,0,2,2,2,0001-00-0000-77.png,0003-00-0000-49.png
00000014,543,1,1448465328434,1448465328908,876,494,0,0,0,2,0,2,2,0003-00-0000-54.png,0001-00-0000-08.png
00000014,544,1,1448465330149,1448465330728,874,449,0,0,0,3,1,2,4,0002-00-0000-58.png,0005-00-0000-44.png
00000014,545,0,1448465331929,1448465332882,937,477,0,0,0,2,4,2,6,0003-00-0001-03.png,0004-00-0000-68.png
00000014,546,1,1448465338037,1448465338479,939,528,0,0,0,4,1,3,5,0004-00-0001-83.png,0005-00-0000-64.png
00000014,547,1,1448465339588,1448465339971,376,449,0,0,0,0,3,3,3,0001-00-0001-86.png,0002-00-0001-28.png
00000014,548,1,1448465341152,1448465341599,385,487,0,0,0,0,1,1,1,0001-00-0000-03.png,0005-00-0000-02.png
00000014,549,1,1448465342850,1448465343385,911,477,0,0,0,2,1,1,3,0003-00-0001-90.png,0005-00-0001-66.png
00000014,550,0,1448465344599,1448465345082,899,465,0,0,0,2,3,1,5,0003-00-0000-02.png,0002-00-0000-38.png
00000014,551,1,1448465348477,1448465348866,873,543,0,0,0,4,0,4,4,0004-00-0000-49.png,0001-00-0000-29.png
00000014,552,0,1448465350053,1448465350500,902,492,0,0,0,1,4,3,5,0005-00-0001-59.png,0004-00-0001-76.png
00000014,553,0,1448465354197,1448465355348,334,385,0,0,0,4,2,2,6,0004-00-0001-14.png,0003-00-0001-35.png
00000014,554,1,1448465358437,1448465358983,396,436,0,0,0,1,3,2,4,0005-00-0000-45.png,0002-00-0000-39.png
00000014,555,0,1448465360268,1448465360794,898,511,0,0,0,3,4,1,7,0002-00-0000-14.png,0004-00-0000-30.png
00000014,556,1,1448465364122,1448465364697,401,462,0,0,0,1,2,1,3,0005-00-0001-95.png,0003-00-0000-51.png
00000014,557,1,1448465365842,1448465366277,436,548,0,0,0,0,4,4,4,0001-00-0000-50.png,0004-00-0001-82.png
00000014,558,1,1448465367583,1448465368172,929,496,0,0,0,4,3,1,7,0004-00-0001-43.png,0002-00-0001-05.png
00000014,559,1,1448465369378,1448465369926,893,483,0,0,0,3,0,3,3,0002-00-0001-93.png,0001-00-0000-02.png
00000014,560,1,1448465371457,1448465371924,922,484,0,0,0,3,2,1,5,0002-00-0000-53.png,0003-00-0000-05.png
00000014,561,0,1448465373144,1448465373188,504,462,0,0,0,3,1,2,4,0002-00-0001-11.png,0005-00-0000-65.png
00000014,562,1,1448465376400,1448465376868,927,502,0,0,0,4,1,3,5,0004-00-0001-42.png,0005-00-0001-49.png
00000014,563,1,1448465378004,1448465378421,900,501,0,0,0,3,0,3,3,0002-00-0000-30.png,0001-00-0001-44.png
00000014,564,1,1448465379969,1448465380566,365,394,0,0,0,1,4,3,5,0005-00-0001-66.png,0004-00-0000-46.png
00000014,565,0,1448465381770,1448465382272,915,533,0,0,0,3,4,1,7,0002-00-0000-88.png,0004-00-0000-93.png
00000014,566,1,1448465385569,1448465386433,381,398,0,0,0,2,3,1,5,0003-00-0000-14.png,0002-00-0000-66.png
00000014,567,1,1448465387545,1448465387984,915,475,0,0,0,2,0,2,2,0003-00-0000-32.png,0001-00-0000-00.png
00000014,568,0,1448465389343,1448465389883,954,481,0,0,0,2,4,2,6,0003-00-0000-92.png,0004-00-0001-13.png
00000014,569,1,1448465392988,1448465393407,387,440,0,0,0,0,2,2,2,0001-00-0000-49.png,0003-00-0001-91.png
00000014,570,0,1448465394625,1448465395353,427,545,0,0,0,3,2,1,5,0002-00-0001-67.png,0003-00-0000-69.png
00000014,571,1,1448465398616,1448465399044,417,471,0,0,0,0,1,1,1,0001-00-0000-10.png,0005-00-0000-11.png
00000014,572,0,1448465400553,1448465401064,378,426,0,0,0,4,2,2,6,0004-00-0001-90.png,0003-00-0001-66.png
00000014,573,1,1448465404025,1448465404456,439,424,0,0,0,1,2,1,3,0005-00-0000-10.png,0003-00-0000-95.png
00000014,574,1,1448465405812,1448465406751,878,428,0,0,0,1,0,1,1,0005-00-0001-05.png,0001-00-0001-04.png
00000014,575,1,1448465407993,1448465408496,874,449,0,0,0,2,1,1,3,0003-00-0000-82.png,0005-00-0001-04.png
00000014,576,0,1448465409707,1448465410088,430,493,0,0,0,4,3,1,7,0004-00-0000-79.png,0002-00-0000-41.png
00000014,577,1,1448465413093,1448465413626,350,448,0,0,0,1,3,2,4,0005-00-0000-61.png,0002-00-0001-05.png
00000014,578,1,1448465414771,1448465415167,418,454,0,0,0,0,4,4,4,0001-00-0000-15.png,0004-00-0000-78.png
00000014,579,1,1448465416450,1448465416984,920,487,0,0,0,4,0,4,4,0004-00-0000-79.png,0001-00-0000-13.png
00000014,580,1,1448465418056,1448465418425,407,486,0,0,0,0,3,3,3,0001-00-0000-12.png,0002-00-0001-94.png
00000014,581,1,1448465419599,1448465420054,427,556,0,0,0,0,3,3,3,0001-00-0000-34.png,0002-00-0000-35.png
00000014,582,1,1448465421178,1448465421664,873,508,0,0,0,4,1,3,5,0004-00-0000-15.png,0005-00-0001-89.png
00000014,583,0,1448465422830,1448465423265,371,479,0,0,0,4,2,2,6,0004-00-0000-97.png,0003-00-0000-49.png
00000014,584,0,1448465427415,1448465427850,871,471,0,0,0,2,3,1,5,0003-00-0001-51.png,0002-00-0001-08.png
00000014,585,1,1448465431018,1448465431462,409,428,0,0,0,0,1,1,1,0001-00-0001-11.png,0005-00-0001-36.png
00000014,586,1,1448465433020,1448465433434,354,425,0,0,0,0,4,4,4,0001-00-0000-15.png,0004-00-0000-20.png
00000014,587,1,1448465434546,1448465435082,902,517,0,0,0,3,2,1,5,0002-00-0001-42.png,0003-00-0001-05.png
00000014,588,1,1448465436493,1448465436970,902,502,0,0,0,3,0,3,3,0002-00-0001-62.png,0001-00-0001-15.png
00000014,589,0,1448465438014,1448465438498,876,487,0,0,0,1,2,1,3,0005-00-0001-95.png,0003-00-0000-56.png
00000014,590,1,1448465441849,1448465442388,896,443,0,0,0,4,0,4,4,0004-00-0001-37.png,0001-00-0001-06.png
00000014,591,1,1448465443688,1448465444176,901,493,0,0,0,1,0,1,1,0005-00-0000-30.png,0001-00-0001-57.png
00000014,592,1,1448465445301,1448465445748,888,501,0,0,0,2,0,2,2,0003-00-0000-46.png,0001-00-0000-26.png
00000014,593,1,1448465447603,1448465448260,383,426,0,0,0,1,3,2,4,0005-00-0000-23.png,0002-00-0001-21.png
00000014,594,1,1448465449619,1448465450017,390,468,0,0,0,1,4,3,5,0005-00-0000-35.png,0004-00-0000-21.png
00000014,595,0,1448465451652,1448465452173,440,555,0,0,0,3,1,2,4,0002-00-0000-73.png,0005-00-0000-66.png
00000014,596,1,1448465455334,1448465455783,452,443,0,0,0,0,2,2,2,0001-00-0001-98.png,0003-00-0001-65.png
00000014,597,1,1448465457302,1448465457737,379,452,0,0,0,2,4,2,6,0003-00-0001-87.png,0004-00-0001-30.png
00000014,598,1,1448465458912,1448465459399,900,475,0,0,0,2,1,1,3,0003-00-0001-46.png,0005-00-0000-28.png
00000014,599,0,1448465460686,1448465461143,875,489,0,0,0,3,4,1,7,0002-00-0001-65.png,0004-00-0001-83.png
00000014,600,1,1448465464567,1448465464962,949,483,0,0,0,4,3,1,7,0004-00-0001-34.png,0002-00-0000-60.png
00000014,601,1,1448465466154,1448465466576,403,447,0,0,0,1,2,1,3,0005-00-0000-58.png,0003-00-0001-93.png
00000014,602,1,1448465468242,1448465468672,339,410,0,0,0,0,2,2,2,0001-00-0001-65.png,0003-00-0001-28.png
00000014,603,1,1448465469810,1448465470727,921,471,0,0,0,4,1,3,5,0004-00-0001-49.png,0005-00-0001-11.png
00000014,604,1,1448465471928,1448465472388,876,476,0,0,0,1,0,1,1,0005-00-0001-36.png,0001-00-0000-13.png
00000014,605,1,1448465473594,1448465474048,874,490,0,0,0,2,1,1,3,0003-00-0001-08.png,0005-00-0000-75.png
00000014,606,1,1448465475209,1448465475719,899,484,0,0,0,4,2,2,6,0004-00-0000-86.png,0003-00-0000-78.png
00000014,607,0,1448465476962,1448465477484,868,525,0,0,0,1,4,3,5,0005-00-0001-05.png,0004-00-0000-77.png
00000014,608,1,1448465480610,1448465481077,440,450,0,0,0,0,4,4,4,0001-00-0001-63.png,0004-00-0000-04.png
00000014,609,1,1448465482283,1448465482808,349,392,0,0,0,1,3,2,4,0005-00-0001-58.png,0002-00-0000-12.png
00000014,610,1,1448465484080,1448465484597,880,480,0,0,0,2,0,2,2,0003-00-0001-77.png,0001-00-0000-98.png
00000014,611,0,1448465486249,1448465486653,418,455,0,0,0,3,2,1,5,0002-00-0001-98.png,0003-00-0000-49.png
00000014,612,1,1448465490274,1448465490719,898,561,0,0,0,4,0,4,4,0004-00-0001-15.png,0001-00-0000-35.png
00000014,613,1,1448465492000,1448465492451,870,498,0,0,0,3,0,3,3,0002-00-0000-41.png,0001-00-0000-39.png
00000014,614,0,1448465493649,1448465494130,873,509,0,0,0,2,3,1,5,0003-00-0001-98.png,0002-00-0000-24.png
00000014,615,1,1448465497314,1448465497909,924,486,0,0,0,3,1,2,4,0002-00-0000-97.png,0005-00-0001-72.png
00000014,616,1,1448465499048,1448465499468,408,476,0,0,0,0,3,3,3,0001-00-0000-81.png,0002-00-0000-27.png
00000014,617,1,1448465500795,1448465501917,926,514,0,0,0,4,3,1,7,0004-00-0000-13.png,0002-00-0001-64.png
00000014,618,0,1448465503129,1448465504189,947,446,0,0,0,3,4,1,7,0002-00-0001-76.png,0004-00-0000-22.png
00000014,619,0,1448465507063,1448465507557,927,488,0,0,0,0,1,1,1,0001-00-0000-03.png,0005-00-0000-79.png
00000014,620,0,1448465511000,1448465511441,951,480,0,0,0,2,4,2,6,0003-00-0001-66.png,0004-00-0000-20.png
00000014,621,1,1448465514676,1448465515247,443,533,0,0,0,2,3,1,5,0003-00-0001-35.png,0002-00-0001-15.png
00000014,622,1,1448465516834,1448465517324,369,435,0,0,0,1,4,3,5,0005-00-0001-19.png,0004-00-0000-78.png
00000014,623,1,1448465518571,1448465518946,382,450,0,0,0,0,2,2,2,0001-00-0001-73.png,0003-00-0000-68.png
00000014,624,1,1448465520111,1448465522482,945,442,0,0,0,4,1,3,5,0004-00-0001-79.png,0005-00-0001-44.png
00000014,625,1,1448465523578,1448465524419,353,414,0,0,0,0,4,4,4,0001-00-0000-56.png,0004-00-0000-86.png
00000014,626,1,1448465525537,1448465525891,458,520,0,0,0,1,3,2,4,0005-00-0001-79.png,0002-00-0000-75.png
00000014,627,1,1448465527735,1448465528222,448,442,0,0,0,0,1,1,1,0001-00-0001-00.png,0005-00-0001-07.png
00000014,628,0,1448465529350,1448465529853,892,494,0,0,0,3,4,1,7,0002-00-0000-43.png,0004-00-0000-48.png
00000014,629,1,1448465533131,1448465533573,923,483,0,0,0,2,0,2,2,0003-00-0001-68.png,0001-00-0000-36.png
00000014,630,0,1448465535548,1448465535965,378,404,0,0,0,1,0,1,1,0005-00-0001-87.png,0001-00-0001-12.png
00000014,631,0,1448465539780,1448465540693,372,463,0,0,0,4,3,1,7,0004-00-0000-83.png,0002-00-0001-71.png
00000014,632,0,1448465544848,1448465545318,1003,448,0,0,0,2,4,2,6,0003-00-0000-72.png,0004-00-0001-61.png
00000014,633,0,1448465548642,1448465549077,389,410,0,0,0,4,2,2,6,0004-00-0000-58.png,0003-00-0000-54.png
00000014,634,1,1448465551910,1448465552400,389,486,0,0,0,0,3,3,3,0001-00-0000-91.png,0002-00-0001-29.png
00000014,635,1,1448465553548,1448465554016,917,481,0,0,0,4,0,4,4,0004-00-0001-13.png,0001-00-0000-58.png
00000014,636,0,1448465555318,1448465555792,368,457,0,0,0,3,2,1,5,0002-00-0001-97.png,0003-00-0000-99.png
00000014,637,1,1448465559395,1448465559920,950,459,0,0,0,3,0,3,3,0002-00-0001-10.png,0001-00-0001-01.png
00000014,638,1,1448465561095,1448465561626,350,425,0,0,0,1,2,1,3,0005-00-0000-32.png,0003-00-0000-12.png
00000014,639,0,1448465563219,1448465563627,397,445,0,0,0,3,1,2,4,0002-00-0000-35.png,0005-00-0000-57.png
00000014,640,0,1448465567033,1448465567549,417,435,0,0,0,2,1,1,3,0003-00-0001-35.png,0005-00-0001-10.png
00000014,641,1,1448465571328,1448465571833,373,420,0,0,0,0,4,4,4,0001-00-0001-06.png,0004-00-0001-15.png
00000014,642,1,1448465573017,1448465573533,888,503,0,0,0,4,3,1,7,0004-00-0000-38.png,0002-00-0000-60.png
00000014,643,0,1448465574656,1448465575118,900,502,0,0,0,2,3,1,5,0003-00-0001-42.png,0002-00-0000-44.png
00000014,644,0,1448465578629,1448465579058,926,463,0,0,0,2,4,2,6,0003-00-0001-48.png,0004-00-0001-41.png
00000014,645,1,1448465583699,1448465584186,409,428,0,0,0,1,3,2,4,0005-00-0001-86.png,0002-00-0000-93.png
00000014,646,1,1448465585319,1448465585888,925,543,0,0,0,3,1,2,4,0002-00-0000-80.png,0005-00-0001-83.png
00000014,647,0,1448465587127,1448465587546,372,445,0,0,0,4,2,2,6,0004-00-0001-26.png,0003-00-0001-45.png
00000014,648,1,1448465590826,1448465591298,932,497,0,0,0,4,0,4,4,0004-00-0000-52.png,0001-00-0000-45.png
00000014,649,1,1448465592405,1448465592916,914,475,0,0,0,1,0,1,1,0005-00-0000-41.png,0001-00-0001-31.png
00000014,650,1,1448465594558,1448465594995,876,468,0,0,0,4,1,3,5,0004-00-0001-29.png,0005-00-0001-05.png
00000014,651,1,1448465596199,1448465597029,294,426,0,0,0,1,2,1,3,0005-00-0000-99.png,0003-00-0000-91.png
00000014,652,1,1448465598247,1448465598731,907,500,0,0,0,2,0,2,2,0003-00-0000-56.png,0001-00-0001-77.png
00000014,653,1,1448465599913,1448465600419,902,494,0,0,0,3,0,3,3,0002-00-0000-23.png,0001-00-0001-35.png
00000014,654,0,1448465601581,1448465601980,383,479,0,0,0,3,2,1,5,0002-00-0001-27.png,0003-00-0001-27.png
00000014,655,1,1448465605172,1448465605612,426,481,0,0,0,0,3,3,3,0001-00-0000-45.png,0002-00-0000-63.png
00000014,656,1,1448465606982,1448465607479,367,448,0,0,0,0,1,1,1,0001-00-0001-23.png,0005-00-0000-36.png
00000014,657,0,1448465608672,1448465609127,857,526,0,0,0,3,4,1,7,0002-00-0000-41.png,0004-00-0001-37.png
00000014,658,1,1448465612116,1448465612608,394,390,0,0,0,1,4,3,5,0005-00-0001-65.png,0004-00-0000-93.png
00000014,659,1,1448465613730,1448465614129,416,554,0,0,0,0,2,2,2,0001-00-0000-27.png,0003-00-0000-53.png
00000014,660,1,1448465615726,1448465616221,921,523,0,0,0,2,1,1,3,0003-00-0000-73.png,0005-00-0000-26.png
00000014,661,1,1448465617365,1448465617803,876,486,0,0,0,3,0,3,3,0002-00-0001-51.png,0001-00-0001-57.png
00000014,662,1,1448465618994,1448465619609,933,500,0,0,0,2,1,1,3,0003-00-0001-80.png,0005-00-0000-76.png
00000014,663,1,1448465620724,1448465621130,436,492,0,0,0,0,4,4,4,0001-00-0000-63.png,0004-00-0000-91.png
00000014,664,1,1448465622360,1448465622896,903,469,0,0,0,2,0,2,2,0003-00-0001-44.png,0001-00-0001-16.png
00000014,665,1,1448465624071,1448465624545,865,497,0,0,0,4,2,2,6,0004-00-0000-38.png,0003-00-0001-57.png
00000014,666,0,1448465625732,1448465626210,887,528,0,0,0,2,4,2,6,0003-00-0000-82.png,0004-00-0000-96.png
00000014,667,1,1448465630148,1448465630590,389,396,0,0,0,1,2,1,3,0005-00-0000-85.png,0003-00-0000-55.png
00000014,668,1,1448465631736,1448465632538,865,453,0,0,0,4,3,1,7,0004-00-0000-28.png,0002-00-0001-04.png
00000014,669,0,1448465633658,1448465634157,924,481,0,0,0,3,4,1,7,0002-00-0000-57.png,0004-00-0001-42.png
00000014,670,1,1448465637575,1448465638025,948,497,0,0,0,4,0,4,4,0004-00-0001-24.png,0001-00-0000-75.png
00000014,671,0,1448465639282,1448465640861,406,405,0,0,0,3,2,1,5,0002-00-0001-64.png,0003-00-0001-26.png
00000014,672,1,1448465644941,1448465645429,427,462,0,0,0,0,3,3,3,0001-00-0001-97.png,0002-00-0000-76.png
00000014,673,1,1448465646727,1448465647187,905,507,0,0,0,4,1,3,5,0004-00-0001-91.png,0005-00-0000-82.png
00000014,674,1,1448465648576,1448465649012,947,498,0,0,0,3,1,2,4,0002-00-0001-04.png,0005-00-0001-78.png
00000014,675,1,1448465650403,1448465650772,420,477,0,0,0,0,2,2,2,0001-00-0001-46.png,0003-00-0000-96.png
00000014,676,1,1448465652036,1448465652479,412,442,0,0,0,0,1,1,1,0001-00-0000-91.png,0005-00-0001-41.png
00000014,677,1,1448465653595,1448465654001,419,477,0,0,0,1,3,2,4,0005-00-0000-80.png,0002-00-0001-41.png
00000014,678,1,1448465655286,1448465655791,418,454,0,0,0,1,4,3,5,0005-00-0001-20.png,0004-00-0001-43.png
00000014,679,1,1448465657051,1448465657968,434,427,0,0,0,2,3,1,5,0003-00-0000-21.png,0002-00-0001-06.png
00000014,680,1,1448465659168,1448465660243,875,422,0,0,0,1,0,1,1,0005-00-0001-23.png,0001-00-0000-36.png
00000014,681,1,1448465661344,1448465661841,897,508,0,0,0,3,0,3,3,0002-00-0001-16.png,0001-00-0001-45.png
00000014,682,1,1448465662985,1448465663389,396,478,0,0,0,0,1,1,1,0001-00-0000-19.png,0005-00-0000-71.png
00000014,683,1,1448465664616,1448465665112,888,476,0,0,0,3,2,1,5,0002-00-0001-45.png,0003-00-0001-13.png
00000014,684,1,1448465666375,1448465666774,350,476,0,0,0,0,2,2,2,0001-00-0001-13.png,0003-00-0001-06.png
00000014,685,1,1448465667972,1448465668548,369,419,0,0,0,1,4,3,5,0005-00-0001-92.png,0004-00-0001-96.png
00000014,686,0,1448465669817,1448465670373,342,417,0,0,0,1,0,1,1,0005-00-0000-10.png,0001-00-0000-54.png
00000014,687,1,1448465673470,1448465673962,427,384,0,0,0,1,2,1,3,0005-00-0001-33.png,0003-00-0000-75.png
00000014,688,1,1448465675047,1448465676497,922,446,0,0,0,2,0,2,2,0003-00-0000-40.png,0001-00-0001-87.png
00000014,689,1,1448465678050,1448465678536,376,423,0,0,0,1,3,2,4,0005-00-0001-96.png,0002-00-0000-55.png
00000014,690,1,1448465680070,1448465680679,922,543,0,0,0,4,3,1,7,0004-00-0001-93.png,0002-00-0001-15.png
00000014,691,0,1448465681786,1448465682150,438,472,0,0,0,4,1,3,5,0004-00-0001-74.png,0005-00-0001-63.png
00000014,692,0,1448465685840,1448465686821,489,423,0,0,0,4,2,2,6,0004-00-0001-88.png,0003-00-0001-53.png
00000014,693,1,1448465690868,1448465691775,350,397,0,0,0,0,3,3,3,0001-00-0000-99.png,0002-00-0001-98.png
00000014,694,1,1448465693293,1448465693912,920,528,0,0,0,4,0,4,4,0004-00-0000-46.png,0001-00-0000-30.png
00000014,695,1,1448465695581,1448465696051,913,488,0,0,0,2,1,1,3,0003-00-0001-18.png,0005-00-0000-20.png
00000014,696,0,1448465697238,1448465697791,898,484,0,0,0,2,4,2,6,0003-00-0000-90.png,0004-00-0001-29.png
00000014,697,0,1448465701181,1448465701757,925,490,0,0,0,2,3,1,5,0003-00-0001-04.png,0002-00-0001-39.png
00000014,698,1,1448465704967,1448465705473,391,432,0,0,0,0,4,4,4,0001-00-0001-15.png,0004-00-0000-36.png
00000014,699,0,1448465706609,1448465707728,921,446,0,0,0,3,4,1,7,0002-00-0001-36.png,0004-00-0001-35.png
00000014,700,1,1448465711029,1448465712107,977,423,0,0,0,3,1,2,4,0002-00-0000-22.png,0005-00-0000-40.png
00000014,701,1,1448465713216,1448465714725,392,508,0,0,0,1,3,2,4,0005-00-0000-18.png,0002-00-0001-71.png
00000014,702,0,1448465716006,1448465716456,367,454,0,0,0,4,2,2,6,0004-00-0000-63.png,0003-00-0001-98.png
00000014,703,1,1448465720131,1448465720694,433,385,0,0,0,3,4,1,7,0002-00-0000-86.png,0004-00-0000-13.png
00000014,704,1,1448465721834,1448465722308,401,455,0,0,0,1,2,1,3,0005-00-0000-16.png,0003-00-0001-83.png
00000014,705,0,1448465723461,1448465724397,894,551,0,0,0,2,4,2,6,0003-00-0000-96.png,0004-00-0001-78.png
00000014,706,1,1448465727604,1448465728745,917,418,0,0,0,4,0,4,4,0004-00-0000-64.png,0001-00-0001-52.png
00000014,707,1,1448465729889,1448465730367,398,466,0,0,0,0,2,2,2,0001-00-0000-26.png,0003-00-0001-66.png
00000014,708,1,1448465731709,1448465732295,961,491,0,0,0,4,1,3,5,0004-00-0000-37.png,0005-00-0000-53.png
00000014,709,1,1448465733464,1448465733984,371,464,0,0,0,0,3,3,3,0001-00-0000-60.png,0002-00-0000-11.png
00000014,710,1,1448465735297,1448465735724,434,471,0,0,0,0,1,1,1,0001-00-0000-12.png,0005-00-0000-26.png
00000014,711,0,1448465737501,1448465737956,401,541,0,0,0,3,2,1,5,0002-00-0000-61.png,0003-00-0000-21.png
00000014,712,0,1448465741125,1448465741979,401,450,0,0,0,1,0,1,1,0005-00-0001-83.png,0001-00-0001-64.png
00000014,713,1,1448465745529,1448465746008,924,483,0,0,0,2,1,1,3,0003-00-0000-65.png,0005-00-0000-46.png
00000014,714,1,1448465747288,1448465747763,927,502,0,0,0,2,0,2,2,0003-00-0001-15.png,0001-00-0001-23.png
00000014,715,1,1448465748907,1448465749436,902,495,0,0,0,4,3,1,7,0004-00-0001-31.png,0002-00-0001-80.png
00000014,716,0,1448465750661,1448465751127,889,501,0,0,0,2,3,1,5,0003-00-0001-73.png,0002-00-0000-01.png
00000014,717,1,1448465754205,1448465754706,376,410,0,0,0,0,4,4,4,0001-00-0001-38.png,0004-00-0000-99.png
00000014,718,1,1448465755964,1448465756855,970,477,0,0,0,3,1,2,4,0002-00-0001-44.png,0005-00-0001-09.png
00000014,719,1,1448465758030,1448465758436,428,475,0,0,0,1,4,3,5,0005-00-0000-39.png,0004-00-0001-35.png
00000014,720,1,1448465759660,1448465760119,925,489,0,0,0,3,0,3,3,0002-00-0000-05.png,0001-00-0000-54.png
00000014,721,1,1448465761442,1448465761920,872,511,0,0,0,2,0,2,2,0003-00-0000-70.png,0001-00-0000-53.png
00000014,722,1,1448465763496,1448465764049,370,446,0,0,0,0,3,3,3,0001-00-0000-84.png,0002-00-0000-45.png
00000014,723,0,1448465765255,1448465765662,409,473,0,0,0,3,1,2,4,0002-00-0000-04.png,0005-00-0001-14.png
00000014,724,1,1448465768721,1448465769663,374,377,0,0,0,0,2,2,2,0001-00-0001-89.png,0003-00-0000-74.png
00000014,725,1,1448465771384,1448465771838,406,539,0,0,0,1,2,1,3,0005-00-0000-64.png,0003-00-0001-52.png
00000014,726,1,1448465773204,1448465773601,420,480,0,0,0,0,4,4,4,0001-00-0000-51.png,0004-00-0001-76.png
00000014,727,0,1448465774964,1448465775401,438,554,0,0,0,3,2,1,5,0002-00-0001-77.png,0003-00-0000-02.png
00000014,728,0,1448465778257,1448465778691,952,449,0,0,0,2,3,1,5,0003-00-0000-55.png,0002-00-0000-54.png
00000014,729,1,1448465781559,1448465781964,406,530,0,0,0,0,1,1,1,0001-00-0000-51.png,0005-00-0000-49.png
00000014,730,1,1448465783013,1448465783504,899,501,0,0,0,3,0,3,3,0002-00-0001-17.png,0001-00-0001-14.png
00000014,731,1,1448465784761,1448465785200,395,457,0,0,0,1,4,3,5,0005-00-0000-34.png,0004-00-0001-72.png
00000014,732,1,1448465786447,1448465786980,898,484,0,0,0,4,2,2,6,0004-00-0001-87.png,0003-00-0001-61.png
00000014,733,0,1448465788179,1448465788709,859,527,0,0,0,3,4,1,7,0002-00-0001-67.png,0004-00-0001-19.png
00000014,734,0,1448465791657,1448465791697,479,477,0,0,0,4,0,4,4,0004-00-0001-97.png,0001-00-0000-93.png
00000014,735,1,1448465794747,1448465795275,880,452,0,0,0,2,1,1,3,0003-00-0001-11.png,0005-00-0001-80.png
00000014,736,0,1448465796527,1448465797001,925,490,0,0,0,1,3,2,4,0005-00-0001-54.png,0002-00-0001-59.png
00000014,737,1,1448465800433,1448465800986,958,500,0,0,0,4,3,1,7,0004-00-0000-70.png,0002-00-0001-94.png
00000014,738,1,1448465802200,1448465802714,925,501,0,0,0,1,0,1,1,0005-00-0001-26.png,0001-00-0001-39.png
00000014,739,0,1448465804485,1448465804919,924,509,0,0,0,2,4,2,6,0003-00-0000-91.png,0004-00-0000-97.png
00000014,740,1,1448465808195,1448465808606,898,561,0,0,0,4,1,3,5,0004-00-0001-69.png,0005-00-0000-52.png
00000014,741,0,1448465809941,1448465810353,382,449,0,0,0,1,0,1,1,0005-00-0000-80.png,0001-00-0001-06.png
00000014,742,1,1448465813570,1448465814208,440,529,0,0,0,3,4,1,7,0002-00-0000-14.png,0004-00-0000-00.png
00000014,743,1,1448465815437,1448465815891,417,519,0,0,0,0,1,1,1,0001-00-0000-20.png,0005-00-0000-63.png
00000014,744,1,1448465817205,1448465817706,889,527,0,0,0,4,3,1,7,0004-00-0000-94.png,0002-00-0001-22.png
00000014,745,1,1448465818896,1448465819402,917,515,0,0,0,3,2,1,5,0002-00-0000-24.png,0003-00-0001-03.png
00000014,746,0,1448465820632,1448465821304,926,489,0,0,0,2,4,2,6,0003-00-0001-48.png,0004-00-0000-31.png
00000014,747,1,1448465824330,1448465824995,876,436,0,0,0,2,1,1,3,0003-00-0001-02.png,0005-00-0000-05.png
00000014,748,1,1448465826222,1448465826738,900,502,0,0,0,4,0,4,4,0004-00-0000-53.png,0001-00-0000-05.png
00000014,749,1,1448465827946,1448465828930,927,462,0,0,0,4,1,3,5,0004-00-0001-89.png,0005-00-0000-88.png
00000014,750,1,1448465830112,1448465830547,404,447,0,0,0,0,4,4,4,0001-00-0001-79.png,0004-00-0001-02.png
00000014,751,1,1448465831782,1448465832196,465,501,0,0,0,0,3,3,3,0001-00-0001-64.png,0002-00-0001-32.png
00000014,752,1,1448465833462,1448465833902,416,476,0,0,0,0,2,2,2,0001-00-0000-05.png,0003-00-0000-93.png
00000014,753,1,1448465835111,1448465836080,926,488,0,0,0,4,2,2,6,0004-00-0000-37.png,0003-00-0001-55.png
00000014,754,1,1448465837257,1448465838741,959,448,0,0,0,2,0,2,2,0003-00-0001-17.png,0001-00-0001-72.png
00000014,755,1,1448465839939,1448465840355,456,476,0,0,0,1,2,1,3,0005-00-0000-70.png,0003-00-0000-90.png
00000014,756,0,1448465841569,1448465842069,925,489,0,0,0,2,3,1,5,0003-00-0000-31.png,0002-00-0000-84.png
00000014,757,1,1448465845119,1448465845590,382,436,0,0,0,1,4,3,5,0005-00-0000-50.png,0004-00-0001-82.png
00000014,758,1,1448465846698,1448465847209,905,480,0,0,0,3,0,3,3,0002-00-0001-17.png,0001-00-0001-15.png
00000014,759,1,1448465848500,1448465849041,386,436,0,0,0,1,3,2,4,0005-00-0001-03.png,0002-00-0001-13.png
00000014,760,1,1448465850575,1448465851162,937,555,0,0,0,3,1,2,4,0002-00-0001-23.png,0005-00-0000-75.png
00000014,761,0,1448465852291,1448465852791,878,494,0,0,0,2,4,2,6,0003-00-0001-57.png,0004-00-0001-18.png
00000014,762,1,1448465856572,1448465857050,450,559,0,0,0,0,2,2,2,0001-00-0000-15.png,0003-00-0001-04.png
00000014,763,1,1448465858356,1448465858836,384,485,0,0,0,0,4,4,4,0001-00-0000-02.png,0004-00-0001-39.png
00000014,764,1,1448465860652,1448465861638,896,444,0,0,0,4,0,4,4,0004-00-0001-24.png,0001-00-0000-81.png
00000014,765,1,1448465863549,1448465863947,401,436,0,0,0,0,3,3,3,0001-00-0000-56.png,0002-00-0000-05.png
00000014,766,0,1448465865526,1448465866037,389,424,0,0,0,4,1,3,5,0004-00-0001-60.png,0005-00-0000-50.png
00000014,767,1,1448465869337,1448465870029,947,523,0,0,0,3,1,2,4,0002-00-0000-16.png,0005-00-0000-48.png
00000014,768,1,1448465871195,1448465871678,898,511,0,0,0,2,0,2,2,0003-00-0000-34.png,0001-00-0001-69.png
00000014,769,0,1448465873522,1448465873956,376,449,0,0,0,4,2,2,6,0004-00-0000-52.png,0003-00-0000-53.png
00000014,770,1,1448465877143,1448465878572,349,423,0,0,0,1,2,1,3,0005-00-0000-61.png,0003-00-0000-98.png
00000014,771,0,1448465880492,1448465881368,392,376,0,0,0,1,0,1,1,0005-00-0000-13.png,0001-00-0000-95.png
00000014,772,1,1448465884609,1448465885560,465,461,0,0,0,1,4,3,5,0005-00-0000-05.png,0004-00-0001-77.png
00000014,773,1,1448465887112,1448465887689,900,476,0,0,0,2,1,1,3,0003-00-0001-09.png,0005-00-0000-23.png
00000014,774,0,1448465888841,1448465889366,924,480,0,0,0,3,4,1,7,0002-00-0000-45.png,0004-00-0000-09.png
00000014,775,0,1448465892626,1448465893153,401,449,0,0,0,4,3,1,7,0004-00-0000-20.png,0002-00-0001-11.png
00000014,776,0,1448465897396,1448465897850,939,474,0,0,0,2,3,1,5,0003-00-0001-75.png,0002-00-0001-67.png
00000014,777,1,1448465900983,1448465901362,380,381,0,0,0,0,1,1,1,0001-00-0001-28.png,0005-00-0000-71.png
00000014,778,0,1448465902919,1448465903406,407,429,0,0,0,3,2,1,5,0002-00-0001-09.png,0003-00-0000-94.png
00000014,779,1,1448465906616,1448465907074,926,489,0,0,0,3,0,3,3,0002-00-0000-30.png,0001-00-0000-88.png
00000014,780,1,1448465908547,1448465909077,356,430,0,0,0,1,3,2,4,0005-00-0001-58.png,0002-00-0000-40.png
00000014,781,1,1448465910384,1448465910789,359,449,0,0,0,0,2,2,2,0001-00-0000-91.png,0003-00-0001-89.png
00000014,782,0,1448465912143,1448465912563,453,462,0,0,0,3,2,1,5,0002-00-0001-39.png,0003-00-0000-21.png
00000014,783,1,1448465916088,1448465916632,369,427,0,0,0,1,3,2,4,0005-00-0001-00.png,0002-00-0000-92.png
00000014,784,1,1448465918254,1448465918758,934,508,0,0,0,4,1,3,5,0004-00-0000-12.png,0005-00-0000-30.png
00000014,785,1,1448465920052,1448465920534,887,528,0,0,0,2,1,1,3,0003-00-0000-14.png,0005-00-0001-79.png
00000014,786,1,1448465921746,1448465922222,388,490,0,0,0,0,1,1,1,0001-00-0000-33.png,0005-00-0000-63.png
00000014,787,0,1448465923551,1448465924630,386,502,0,0,0,4,2,2,6,0004-00-0001-91.png,0003-00-0001-68.png
00000014,788,1,1448465928347,1448465928900,973,471,0,0,0,3,1,2,4,0002-00-0000-51.png,0005-00-0001-97.png
00000014,789,1,1448465930097,1448465931144,930,454,0,0,0,4,0,4,4,0004-00-0001-33.png,0001-00-0000-88.png
00000014,790,1,1448465932322,1448465932807,908,500,0,0,0,2,0,2,2,0003-00-0000-47.png,0001-00-0001-48.png
00000014,791,1,1448465934716,1448465935096,369,389,0,0,0,0,4,4,4,0001-00-0000-15.png,0004-00-0001-03.png
00000014,792,1,1448465936220,1448465936734,888,476,0,0,0,1,0,1,1,0005-00-0000-67.png,0001-00-0000-86.png
00000014,793,1,1448465937862,1448465938382,900,475,0,0,0,3,0,3,3,0002-00-0000-99.png,0001-00-0001-29.png
00000014,794,0,1448465939616,1448465940106,873,483,0,0,0,0,3,3,3,0001-00-0000-99.png,0002-00-0000-46.png
00000014,795,0,1448465944347,1448465944788,453,502,0,0,0,4,3,1,7,0004-00-0001-06.png,0002-00-0001-42.png
00000014,796,1,1448465947980,1448465948595,421,436,0,0,0,1,4,3,5,0005-00-0000-38.png,0004-00-0001-08.png
00000014,797,1,1448465950122,1448465950537,347,437,0,0,0,1,2,1,3,0005-00-0001-28.png,0003-00-0000-56.png
00000014,798,0,1448465951740,1448465952719,972,496,0,0,0,2,4,2,6,0003-00-0001-79.png,0004-00-0000-77.png
00000014,799,0,1448465956461,1448465956895,925,482,0,0,0,3,4,1,7,0002-00-0001-03.png,0004-00-0000-03.png
00000014,800,1,1448465960607,1448465961175,419,419,0,0,0,2,3,1,5,0003-00-0000-27.png,0002-00-0001-88.png
00000014,801,0,1448465963018,1448465963672,927,502,0,0,0,1,2,1,3,0005-00-0000-91.png,0003-00-0000-08.png
00000014,802,0,1448465966986,1448465967518,894,496,0,0,0,0,3,3,3,0001-00-0001-51.png,0002-00-0001-24.png
00000014,803,0,1448465971109,1448465971621,942,523,0,0,0,2,4,2,6,0003-00-0000-19.png,0004-00-0001-94.png
00000014,804,1,1448465974531,1448465974992,924,458,0,0,0,2,1,1,3,0003-00-0001-33.png,0005-00-0000-86.png
00000014,805,1,1448465976284,1448465976742,324,460,0,0,0,0,4,4,4,0001-00-0000-37.png,0004-00-0000-23.png
00000014,806,1,1448465978007,1448465978504,365,438,0,0,0,1,3,2,4,0005-00-0000-85.png,0002-00-0000-58.png
00000014,807,1,1448465979992,1448465980435,411,535,0,0,0,0,1,1,1,0001-00-0001-04.png,0005-00-0001-94.png
00000014,808,1,1448465981697,1448465982702,341,439,0,0,0,1,4,3,5,0005-00-0001-72.png,0004-00-0001-14.png
00000014,809,1,1448465984426,1448465984912,395,531,0,0,0,3,4,1,7,0002-00-0001-64.png,0004-00-0000-23.png
00000014,810,0,1448465986213,1448465986637,409,497,0,0,0,3,2,1,5,0002-00-0001-52.png,0003-00-0000-92.png
00000014,811,0,1448465990157,1448465990630,401,436,0,0,0,4,1,3,5,0004-00-0001-27.png,0005-00-0001-26.png
00000014,812,1,1448465994092,1448465994564,924,509,0,0,0,3,0,3,3,0002-00-0000-66.png,0001-00-0000-54.png
00000014,813,0,1448465996266,1448465997254,907,474,0,0,0,2,3,1,5,0003-00-0000-39.png,0002-00-0001-37.png
00000014,814,1,1448466000498,1448466000947,928,441,0,0,0,4,0,4,4,0004-00-0001-52.png,0001-00-0001-57.png
00000014,815,1,1448466002260,1448466002763,888,450,0,0,0,1,0,1,1,0005-00-0001-95.png,0001-00-0000-96.png
00000014,816,0,1448466003959,1448466004425,415,441,0,0,0,2,0,2,2,0003-00-0000-91.png,0001-00-0000-99.png
00000014,817,1,1448466007437,1448466007868,376,422,0,0,0,0,2,2,2,0001-00-0000-35.png,0003-00-0000-52.png
00000014,818,1,1448466009167,1448466009786,885,497,0,0,0,4,3,1,7,0004-00-0001-32.png,0002-00-0000-92.png
00000014,819,1,1448466010956,1448466011448,902,488,0,0,0,4,2,2,6,0004-00-0000-15.png,0003-00-0000-93.png
00000014,820,1,1448466012718,1448466013215,912,502,0,0,0,3,1,2,4,0002-00-0001-36.png,0005-00-0001-77.png
00000014,821,1,1448466014333,1448466014715,367,480,0,0,0,1,3,2,4,0005-00-0001-84.png,0002-00-0000-87.png
00000014,822,0,1448466015955,1448466016488,898,508,0,0,0,2,4,2,6,0003-00-0000-12.png,0004-00-0001-33.png
00000014,823,0,1448466019729,1448466020199,476,554,0,0,0,3,2,1,5,0002-00-0001-89.png,0003-00-0001-48.png
00000014,824,1,1448466027143,1448466027653,945,503,0,0,0,4,1,3,5,0004-00-0000-02.png,0005-00-0000-96.png
00000014,825,1,1448466028858,1448466029295,410,474,0,0,0,0,3,3,3,0001-00-0000-09.png,0002-00-0001-12.png
00000014,826,1,1448466031123,1448466031596,926,489,0,0,0,3,0,3,3,0002-00-0001-39.png,0001-00-0000-68.png
00000014,827,1,1448466032767,1448466033164,427,482,0,0,0,1,2,1,3,0005-00-0000-47.png,0003-00-0000-46.png
00000014,828,1,1448466034479,1448466034948,870,472,0,0,0,4,0,4,4,0004-00-0001-19.png,0001-00-0001-02.png
00000014,829,0,1448466036211,1448466036749,907,514,0,0,0,2,3,1,5,0003-00-0000-50.png,0002-00-0001-14.png
00000014,830,0,1448466039684,1448466040175,862,448,0,0,0,3,4,1,7,0002-00-0001-84.png,0004-00-0001-06.png
00000014,831,1,1448466043490,1448466043962,407,395,0,0,0,0,1,1,1,0001-00-0000-80.png,0005-00-0000-30.png
00000014,832,1,1448466045199,1448466045637,416,491,0,0,0,1,4,3,5,0005-00-0001-62.png,0004-00-0000-77.png
00000014,833,1,1448466047063,1448466047535,902,503,0,0,0,1,0,1,1,0005-00-0001-95.png,0001-00-0001-82.png
00000014,834,1,1448466048632,1448466049005,426,473,0,0,0,0,2,2,2,0001-00-0001-55.png,0003-00-0001-77.png
00000014,835,1,1448466050223,1448466050634,412,560,0,0,0,0,4,4,4,0001-00-0001-45.png,0004-00-0001-77.png
00000014,836,1,1448466051769,1448466052369,902,519,0,0,0,2,0,2,2,0003-00-0001-80.png,0001-00-0001-53.png
00000014,837,1,1448466053542,1448466054068,876,493,0,0,0,4,3,1,7,0004-00-0001-35.png,0002-00-0001-88.png
00000014,838,1,1448466055332,1448466055869,913,476,0,0,0,3,1,2,4,0002-00-0001-43.png,0005-00-0000-84.png
00000014,839,1,1448466057107,1448466057578,897,485,0,0,0,2,1,1,3,0003-00-0000-86.png,0005-00-0001-83.png
00000014,840,0,1448466059022,1448466059433,396,463,0,0,0,4,2,2,6,0004-00-0000-44.png,0003-00-0001-24.png
00000014,841,1,1448466062626,1448466063102,869,444,0,0,0,2,1,1,3,0003-00-0000-83.png,0005-00-0000-98.png
00000014,842,0,1448466064345,1448466064886,901,502,0,0,0,0,3,3,3,0001-00-0001-24.png,0002-00-0001-09.png
00000014,843,1,1448466068599,1448466069056,359,446,0,0,0,0,1,1,1,0001-00-0000-55.png,0005-00-0001-26.png
00000014,844,1,1448466070330,1448466070746,354,476,0,0,0,0,4,4,4,0001-00-0000-76.png,0004-00-0000-49.png
00000014,845,1,1448466072003,1448466072511,889,513,0,0,0,3,1,2,4,0002-00-0001-59.png,0005-00-0000-65.png
00000014,846,1,1448466073720,1448466074101,393,481,0,0,0,1,3,2,4,0005-00-0000-78.png,0002-00-0001-91.png
00000014,847,0,1448466075423,1448466075873,443,462,0,0,0,3,2,1,5,0002-00-0000-90.png,0003-00-0001-81.png
00000014,848,1,1448466079332,1448466079854,390,413,0,0,0,1,2,1,3,0005-00-0001-31.png,0003-00-0001-53.png
00000014,849,0,1448466081157,1448466081659,883,526,0,0,0,2,3,1,5,0003-00-0001-90.png,0002-00-0001-78.png
00000014,850,0,1448466085131,1448466085567,939,476,0,0,0,2,4,2,6,0003-00-0000-22.png,0004-00-0001-06.png
00000014,851,0,1448466089001,1448466089029,521,460,0,0,0,4,0,4,4,0004-00-0001-09.png,0001-00-0000-84.png
00000014,852,1,1448466092002,1448466092423,430,498,0,0,0,0,2,2,2,0001-00-0000-35.png,0003-00-0001-85.png
00000014,853,1,1448466093660,1448466094678,936,467,0,0,0,4,1,3,5,0004-00-0000-49.png,0005-00-0000-14.png
00000014,854,1,1448466095836,1448466096356,898,492,0,0,0,1,0,1,1,0005-00-0001-43.png,0001-00-0000-26.png
00000014,855,0,1448466097992,1448466098392,437,470,0,0,0,3,0,3,3,0002-00-0001-57.png,0001-00-0000-03.png
00000014,856,1,1448466102065,1448466102571,357,427,0,0,0,1,4,3,5,0005-00-0001-71.png,0004-00-0000-27.png
00000014,857,1,1448466103767,1448466104223,906,489,0,0,0,2,0,2,2,0003-00-0000-80.png,0001-00-0000-97.png
00000014,858,1,1448466105565,1448466105970,422,439,0,0,0,3,4,1,7,0002-00-0001-48.png,0004-00-0000-26.png
00000014,859,0,1448466107275,1448466107715,419,483,0,0,0,4,2,2,6,0004-00-0000-97.png,0003-00-0000-61.png
00000014,860,1,1448466111462,1448466112195,933,500,0,0,0,4,3,1,7,0004-00-0000-36.png,0002-00-0001-78.png
00000014,861,1,1448466113485,1448466113875,406,475,0,0,0,3,4,1,7,0002-00-0000-71.png,0004-00-0001-52.png
00000014,862,1,1448466115324,1448466115877,888,436,0,0,0,3,1,2,4,0002-00-0000-45.png,0005-00-0001-02.png
00000014,863,1,1448466117265,1448466117769,911,503,0,0,0,3,0,3,3,0002-00-0000-58.png,0001-00-0000-76.png
00000014,864,0,1448466119028,1448466119455,409,479,0,0,0,3,2,1,5,0002-00-0001-93.png,0003-00-0000-71.png
00000014,865,1,1448466122987,1448466123459,404,439,0,0,0,1,2,1,3,0005-00-0000-15.png,0003-00-0001-27.png
00000014,866,1,1448466124616,1448466125079,895,493,0,0,0,4,1,3,5,0004-00-0000-58.png,0005-00-0001-50.png
00000014,867,1,1448466126511,1448466126928,369,453,0,0,0,0,2,2,2,0001-00-0000-69.png,0003-00-0001-12.png
00000014,868,0,1448466128161,1448466129133,872,563,0,0,0,2,3,1,5,0003-00-0001-18.png,0002-00-0000-78.png
00000014,869,1,1448466132353,1448466132841,934,474,0,0,0,2,0,2,2,0003-00-0001-48.png,0001-00-0001-18.png
00000014,870,0,1448466134059,1448466134577,895,523,0,0,0,1,3,2,4,0005-00-0001-62.png,0002-00-0001-37.png
00000014,871,1,1448466137719,1448466138274,385,377,0,0,0,0,3,3,3,0001-00-0000-42.png,0002-00-0000-40.png
00000014,872,1,1448466139474,1448466140011,925,501,0,0,0,4,3,1,7,0004-00-0000-60.png,0002-00-0000-79.png
00000014,873,1,1448466141271,1448466141756,900,502,0,0,0,2,1,1,3,0003-00-0001-33.png,0005-00-0000-20.png
00000014,874,1,1448466142994,1448466143384,434,469,0,0,0,0,1,1,1,0001-00-0001-99.png,0005-00-0001-20.png
00000014,875,1,1448466144699,1448466145131,491,501,0,0,0,1,4,3,5,0005-00-0001-75.png,0004-00-0000-00.png
00000014,876,1,1448466146437,1448466146910,427,449,0,0,0,0,4,4,4,0001-00-0001-74.png,0004-00-0001-58.png
00000014,877,0,1448466148184,1448466148739,899,535,0,0,0,2,4,2,6,0003-00-0001-11.png,0004-00-0001-56.png
00000014,878,1,1448466151791,1448466152459,903,492,0,0,0,4,2,2,6,0004-00-0000-45.png,0003-00-0001-21.png
00000014,879,0,1448466153565,1448466154013,410,453,0,0,0,1,0,1,1,0005-00-0001-45.png,0001-00-0000-86.png
00000014,880,1,1448466157525,1448466157965,950,533,0,0,0,4,0,4,4,0004-00-0001-78.png,0001-00-0001-58.png
00000014,881,1,1448466159284,1448466159708,427,516,0,0,0,0,4,4,4,0001-00-0000-57.png,0004-00-0000-95.png
00000014,882,0,1448466161004,1448466161467,881,526,0,0,0,2,3,1,5,0003-00-0000-57.png,0002-00-0001-71.png
00000014,883,1,1448466165113,1448466165533,450,431,0,0,0,1,2,1,3,0005-00-0000-08.png,0003-00-0000-76.png
00000014,884,1,1448466166715,1448466167569,345,410,0,0,0,0,3,3,3,0001-00-0001-77.png,0002-00-0001-05.png
00000014,885,0,1448466168731,1448466169112,445,510,0,0,0,2,0,2,2,0003-00-0000-61.png,0001-00-0000-92.png
00000014,886,0,1448466172374,1448466172893,900,501,0,0,0,3,4,1,7,0002-00-0001-58.png,0004-00-0001-45.png
00000014,887,1,1448466176045,1448466176563,387,424,0,0,0,1,4,3,5,0005-00-0001-90.png,0004-00-0001-80.png
00000014,888,1,1448466177824,1448466178309,905,506,0,0,0,4,2,2,6,0004-00-0000-83.png,0003-00-0000-08.png
00000014,889,1,1448466179615,1448466180096,868,482,0,0,0,4,3,1,7,0004-00-0000-41.png,0002-00-0001-09.png
00000014,890,0,1448466181335,1448466181945,896,523,0,0,0,0,1,1,1,0001-00-0000-26.png,0005-00-0001-47.png
00000014,891,1,1448466185294,1448466185826,967,522,0,0,0,4,1,3,5,0004-00-0000-18.png,0005-00-0000-78.png
00000014,892,1,1448466187086,1448466187631,902,556,0,0,0,3,0,3,3,0002-00-0000-36.png,0001-00-0001-63.png
00000014,893,1,1448466188905,1448466189399,897,485,0,0,0,1,0,1,1,0005-00-0001-06.png,0001-00-0001-20.png
00000014,894,1,1448466190628,1448466191078,415,486,0,0,0,0,2,2,2,0001-00-0001-51.png,0003-00-0001-28.png
00000014,895,0,1448466192301,1448466192805,445,453,0,0,0,4,0,4,4,0004-00-0001-75.png,0001-00-0001-78.png
00000014,896,1,1448466196724,1448466197210,951,501,0,0,0,2,1,1,3,0003-00-0001-72.png,0005-00-0000-86.png
00000014,897,1,1448466198794,1448466199317,929,520,0,0,0,3,1,2,4,0002-00-0001-69.png,0005-00-0001-99.png
00000014,898,0,1448466200442,1448466200836,386,462,0,0,0,3,2,1,5,0002-00-0001-79.png,0003-00-0001-66.png
00000014,899,0,1448466204029,1448466204664,919,482,0,0,0,2,4,2,6,0003-00-0001-01.png,0004-00-0001-35.png
00000014,900,1,1448466208485,1448466209143,413,383,0,0,0,1,3,2,4,0005-00-0000-01.png,0002-00-0001-74.png
00000014,901,1,1448466210311,1448466210826,901,502,0,0,0,4,3,1,7,0004-00-0000-87.png,0002-00-0000-56.png
00000014,902,1,1448466212208,1448466212792,904,480,0,0,0,4,2,2,6,0004-00-0000-65.png,0003-00-0001-34.png
00000014,903,1,1448466213951,1448466214462,878,521,0,0,0,2,1,1,3,0003-00-0000-33.png,0005-00-0000-33.png
00000014,904,1,1448466215565,1448466215968,417,479,0,0,0,1,2,1,3,0005-00-0000-57.png,0003-00-0000-52.png
00000014,905,1,1448466217633,1448466218126,465,501,0,0,0,1,4,3,5,0005-00-0001-06.png,0004-00-0000-00.png
00000014,906,1,1448466219283,1448466219725,390,468,0,0,0,0,3,3,3,0001-00-0001-72.png,0002-00-0001-78.png
00000014,907,0,1448466221029,1448466221513,880,506,0,0,0,3,4,1,7,0002-00-0000-11.png,0004-00-0000-58.png
00000014,908,1,1448466224668,1448466225182,385,386,0,0,0,0,4,4,4,0001-00-0001-24.png,0004-00-0001-04.png
00000014,909,1,1448466226364,1448466227389,914,476,0,0,0,3,0,3,3,0002-00-0000-20.png,0001-00-0000-63.png
00000014,910,1,1448466228664,1448466229081,396,468,0,0,0,0,2,2,2,0001-00-0000-79.png,0003-00-0000-35.png
00000014,911,0,1448466230251,1448466230708,899,490,0,0,0,2,3,1,5,0003-00-0000-41.png,0002-00-0001-19.png
00000014,912,0,1448466234218,1448466234710,954,545,0,0,0,2,4,2,6,0003-00-0001-92.png,0004-00-0000-29.png
00000014,913,1,1448466238614,1448466239046,962,462,0,0,0,4,0,4,4,0004-00-0000-20.png,0001-00-0001-74.png
00000014,914,1,1448466240657,1448466241110,876,450,0,0,0,4,1,3,5,0004-00-0001-38.png,0005-00-0001-35.png
00000014,915,1,1448466242467,1448466243003,949,482,0,0,0,2,0,2,2,0003-00-0000-88.png,0001-00-0000-40.png
00000014,916,1,1448466244203,1448466244731,870,497,0,0,0,3,1,2,4,0002-00-0001-34.png,0005-00-0001-58.png
00000014,917,1,1448466246094,1448466246553,385,518,0,0,0,1,3,2,4,0005-00-0001-51.png,0002-00-0000-95.png
00000014,918,1,1448466247769,1448466248240,378,489,0,0,0,0,1,1,1,0001-00-0001-09.png,0005-00-0001-41.png
00000014,919,1,1448466249472,1448466250093,927,502,0,0,0,3,2,1,5,0002-00-0001-51.png,0003-00-0000-33.png
00000014,920,0,1448466251257,1448466251712,388,512,0,0,0,1,0,1,1,0005-00-0000-36.png,0001-00-0001-24.png
00000014,921,1,1448466254677,1448466255139,952,488,0,0,0,3,0,3,3,0002-00-0000-98.png,0001-00-0000-35.png
00000014,922,1,1448466256358,1448466256864,926,501,0,0,0,2,0,2,2,0003-00-0001-14.png,0001-00-0001-49.png
00000014,923,1,1448466258058,1448466258707,923,543,0,0,0,4,3,1,7,0004-00-0001-23.png,0002-00-0001-86.png
00000014,924,1,1448466259954,1448466260988,925,554,0,0,0,4,1,3,5,0004-00-0000-71.png,0005-00-0000-77.png
00000014,925,1,1448466262158,1448466262563,458,495,0,0,0,1,2,1,3,0005-00-0000-97.png,0003-00-0001-34.png
00000014,926,1,1448466263829,1448466264510,362,438,0,0,0,1,3,2,4,0005-00-0001-92.png,0002-00-0001-75.png
00000014,927,0,1448466265701,1448466266100,460,462,0,0,0,3,2,1,5,0002-00-0000-52.png,0003-00-0001-13.png
00000014,928,1,1448466271068,1448466271509,398,445,0,0,0,0,4,4,4,0001-00-0000-24.png,0004-00-0001-80.png
00000014,929,0,1448466272731,1448466273176,343,499,0,0,0,4,2,2,6,0004-00-0001-03.png,0003-00-0001-06.png
00000014,930,0,1448466277095,1448466277552,870,471,0,0,0,0,2,2,2,0001-00-0001-85.png,0003-00-0001-35.png
00000014,931,0,1448466281211,1448466281895,969,487,0,0,0,3,4,1,7,0002-00-0000-79.png,0004-00-0000-34.png
00000014,932,1,1448466286459,1448466287071,423,417,0,0,0,0,1,1,1,0001-00-0000-86.png,0005-00-0000-41.png
00000014,933,1,1448466288394,1448466288870,390,502,0,0,0,0,3,3,3,0001-00-0000-27.png,0002-00-0000-05.png
00000014,934,1,1448466290132,1448466290625,937,522,0,0,0,4,0,4,4,0004-00-0000-23.png,0001-00-0001-44.png
00000014,935,0,1448466291911,1448466292438,425,410,0,0,0,3,1,2,4,0002-00-0000-64.png,0005-00-0000-77.png
00000014,936,0,1448466295657,1448466296154,943,494,0,0,0,2,3,1,5,0003-00-0001-70.png,0002-00-0000-02.png
00000014,937,1,1448466300151,1448466300742,939,553,0,0,0,2,1,1,3,0003-00-0000-89.png,0005-00-0000-70.png
00000014,938,0,1448466301908,1448466302322,365,447,0,0,0,1,0,1,1,0005-00-0000-60.png,0001-00-0000-94.png
00000014,939,0,1448466305654,1448466306260,931,497,0,0,0,2,4,2,6,0003-00-0000-77.png,0004-00-0000-21.png
00000014,940,0,1448466309829,1448466310484,928,468,0,0,0,1,4,3,5,0005-00-0001-80.png,0004-00-0000-16.png
00000014,941,0,1448466314081,1448466314617,491,554,0,0,0,3,2,1,5,0002-00-0001-71.png,0003-00-0000-14.png
00000014,942,1,1448466318107,1448466318675,416,491,0,0,0,0,4,4,4,0001-00-0000-21.png,0004-00-0000-56.png
00000014,943,0,1448466319914,1448466320470,904,506,0,0,0,2,4,2,6,0003-00-0000-34.png,0004-00-0000-70.png
00000014,944,1,1448466324781,1448466325377,358,427,0,0,0,1,4,3,5,0005-00-0001-68.png,0004-00-0000-26.png
00000014,945,1,1448466326549,1448466327084,424,459,0,0,0,0,2,2,2,0001-00-0000-59.png,0003-00-0001-30.png
00000014,946,1,1448466328313,1448466328791,922,498,0,0,0,4,1,3,5,0004-00-0000-15.png,0005-00-0001-33.png
00000014,947,0,1448466329940,1448466330415,898,483,0,0,0,2,3,1,5,0003-00-0000-95.png,0002-00-0000-38.png
00000014,948,1,1448466333577,1448466334782,350,462,0,0,0,0,1,1,1,0001-00-0001-42.png,0005-00-0000-69.png
00000014,949,1,1448466335933,1448466336417,902,496,0,0,0,1,0,1,1,0005-00-0000-47.png,0001-00-0000-62.png
00000014,950,1,1448466337587,1448466337943,432,485,0,0,0,0,3,3,3,0001-00-0001-64.png,0002-00-0000-03.png
00000014,951,1,1448466339177,1448466339733,900,516,0,0,0,2,1,1,3,0003-00-0000-20.png,0005-00-0000-24.png
