subject_id,trial,correct_response,stim_time,response_time,x_coord,y_coord,trial_timeout,timeout_time,interTrial_timeout,left_rank,right_rank,distance,joint_rank,left_image,right_image
00000009,1,1,1447260394460,1447260394468,868,274,0,0,0,4,0,4,4,0004-00-0001-62.png,0001-00-0000-08.png
00000009,2,1,1447260395733,1447260396289,965,423,0,0,0,4,3,1,7,0004-00-0000-47.png,0002-00-0001-86.png
00000009,3,0,1447260397569,1447260398210,955,374,0,0,0,0,1,1,1,0001-00-0001-91.png,0005-00-0000-89.png
00000009,4,1,1447260401326,1447260401809,1082,294,0,0,0,3,0,3,3,0002-00-0000-40.png,0001-00-0001-73.png
00000009,5,0,1447260402758,1447260402814,922,393,0,0,0,1,3,2,4,0005-00-0001-65.png,0002-00-0001-97.png
00000009,6,0,1447260405848,1447260405884,888,271,0,0,0,1,4,3,5,0005-00-0000-47.png,0004-00-0001-85.png
00000009,7,1,1447260409047,1447260409299,974,269,0,0,0,2,0,2,2,0003-00-0000-84.png,0001-00-0000-43.png
00000009,8,0,1447260410269,1447260410325,891,409,0,0,0,0,4,4,4,0001-00-0001-48.png,0004-00-0000-65.png
00000009,9,0,1447260413378,1447260413882,941,327,0,0,0,0,3,3,3,0001-00-0001-08.png,0002-00-0001-32.png
00000009,10,1,1447260417037,1447260417621,425,276,0,0,0,0,2,2,2,0001-00-0001-45.png,0003-00-0000-43.png
00000009,11,1,1447260418528,1447260418576,897,419,0,0,0,4,2,2,6,0004-00-0000-93.png,0003-00-0000-54.png
00000009,12,1,1447260419680,1447260419716,892,416,0,0,0,1,0,1,1,0005-00-0001-75.png,0001-00-0001-86.png
00000009,13,1,1447260420883,1447260420981,913,488,0,0,0,3,1,2,4,0002-00-0001-25.png,0005-00-0001-42.png
00000009,14,1,1447260422135,1447260422195,900,436,0,0,0,3,2,1,5,0002-00-0000-90.png,0003-00-0001-43.png
00000009,15,1,1447260423325,1447260423353,872,410,0,0,0,4,1,3,5,0004-00-0001-54.png,0005-00-0000-38.png
00000009,16,1,1447260424630,1447260424674,891,442,0,0,0,2,1,1,3,0003-00-0000-40.png,0005-00-0000-72.png
00000009,17,0,1447260425901,1447260425929,888,448,0,0,0,1,2,1,3,0005-00-0001-33.png,0003-00-0001-16.png
00000009,18,1,1447260429028,1447260429555,466,245,0,0,0,2,3,1,5,0003-00-0001-07.png,0002-00-0001-03.png
00000009,19,0,1447260430472,1447260430529,879,463,0,0,0,2,4,2,6,0003-00-0001-76.png,0004-00-0000-71.png
00000009,20,1,1447260433502,1447260434123,447,273,0,0,0,3,4,1,7,0002-00-0000-58.png,0004-00-0000-60.png
00000009,21,1,1447260435032,1447260435100,871,451,0,0,0,1,0,1,1,0005-00-0001-23.png,0001-00-0001-38.png
00000009,22,1,1447260436105,1447260436904,492,227,0,0,0,1,2,1,3,0005-00-0001-55.png,0003-00-0001-05.png
00000009,23,0,1447260437915,1447260438657,472,257,0,0,0,3,2,1,5,0002-00-0001-47.png,0003-00-0001-65.png
00000009,24,1,1447260441701,1447260442123,1067,272,0,0,0,2,1,1,3,0003-00-0000-71.png,0005-00-0001-23.png
00000009,25,1,1447260443560,1447260444343,409,339,0,0,0,3,4,1,7,0002-00-0001-41.png,0004-00-0001-02.png
00000009,26,1,1447260445289,1447260446010,940,355,0,0,0,4,3,1,7,0004-00-0001-99.png,0002-00-0001-25.png
00000009,27,0,1447260446938,1447260446966,881,391,0,0,0,0,4,4,4,0001-00-0000-29.png,0004-00-0000-91.png
00000009,28,0,1447260450367,1447260450451,924,251,0,0,0,0,3,3,3,0001-00-0000-17.png,0002-00-0001-94.png
00000009,29,1,1447260453596,1447260454058,916,329,0,0,0,3,0,3,3,0002-00-0001-71.png,0001-00-0000-15.png
00000009,30,1,1447260454897,1447260454937,869,393,0,0,0,4,2,2,6,0004-00-0000-13.png,0003-00-0000-64.png
00000009,31,1,1447260455980,1447260456707,913,349,0,0,0,2,0,2,2,0003-00-0000-20.png,0001-00-0000-31.png
00000009,32,0,1447260457650,1447260457699,870,417,0,0,0,1,4,3,5,0005-00-0000-69.png,0004-00-0000-26.png
00000009,33,0,1447260461071,1447260461545,891,354,0,0,0,0,2,2,2,0001-00-0001-71.png,0003-00-0001-00.png
00000009,34,0,1447260466379,1447260466849,936,345,0,0,0,2,4,2,6,0003-00-0000-94.png,0004-00-0000-32.png
00000009,35,1,1447260469984,1447260470491,1068,256,0,0,0,3,1,2,4,0002-00-0001-73.png,0005-00-0000-03.png
00000009,36,1,1447260471396,1447260472092,944,353,0,0,0,4,0,4,4,0004-00-0001-48.png,0001-00-0000-28.png
00000009,37,1,1447260473086,1447260473154,869,411,0,0,0,4,1,3,5,0004-00-0001-30.png,0005-00-0001-76.png
00000009,38,0,1447260474258,1447260475192,931,336,0,0,0,2,3,1,5,0003-00-0000-47.png,0002-00-0000-28.png
00000009,39,0,1447260478292,1447260478418,879,358,0,0,0,0,1,1,1,0001-00-0000-95.png,0005-00-0000-47.png
00000009,40,0,1447260481643,1447260482232,1023,434,0,0,0,1,3,2,4,0005-00-0000-00.png,0002-00-0000-24.png
00000009,41,1,1447260485328,1447260485590,920,324,0,0,0,4,1,3,5,0004-00-0001-31.png,0005-00-0001-66.png
00000009,42,0,1447260486522,1447260486530,877,373,0,0,0,1,2,1,3,0005-00-0000-81.png,0003-00-0001-61.png
00000009,43,1,1447260489669,1447260490156,937,324,0,0,0,2,0,2,2,0003-00-0000-85.png,0001-00-0000-41.png
00000009,44,0,1447260491459,1447260492428,420,366,0,0,0,1,0,1,1,0005-00-0000-66.png,0001-00-0001-83.png
00000009,45,1,1447260495576,1447260496161,470,244,0,0,0,1,4,3,5,0005-00-0001-37.png,0004-00-0000-51.png
00000009,46,1,1447260497023,1447260497959,1039,277,0,0,0,4,0,4,4,0004-00-0000-27.png,0001-00-0001-75.png
00000009,47,0,1447260498894,1447260499723,929,340,0,0,0,2,3,1,5,0003-00-0001-82.png,0002-00-0000-32.png
00000009,48,0,1447260502888,1447260502908,864,270,0,0,0,0,3,3,3,0001-00-0000-22.png,0002-00-0000-87.png
00000009,49,0,1447260506019,1447260506575,485,251,0,0,0,4,2,2,6,0004-00-0001-06.png,0003-00-0001-31.png
00000009,50,0,1447260509745,1447260509993,1009,257,0,0,0,0,1,1,1,0001-00-0000-05.png,0005-00-0000-27.png
00000009,51,1,1447260512978,1447260513448,1017,277,0,0,0,3,2,1,5,0002-00-0001-94.png,0003-00-0000-88.png
00000009,52,1,1447260514326,1447260515045,477,233,0,0,0,0,2,2,2,0001-00-0000-57.png,0003-00-0000-04.png
00000009,53,1,1447260516066,1447260516858,931,338,0,0,0,3,0,3,3,0002-00-0001-76.png,0001-00-0001-82.png
00000009,54,1,1447260517805,1447260517841,862,368,0,0,0,2,1,1,3,0003-00-0001-73.png,0005-00-0000-33.png
00000009,55,0,1447260518917,1447260518974,862,420,0,0,0,1,3,2,4,0005-00-0000-83.png,0002-00-0001-03.png
00000009,56,0,1447260521837,1447260522367,1013,278,0,0,0,2,4,2,6,0003-00-0001-90.png,0004-00-0000-35.png
00000009,57,1,1447260525225,1447260525722,1041,265,0,0,0,3,1,2,4,0002-00-0001-55.png,0005-00-0001-75.png
00000009,58,0,1447260526588,1447260526660,896,384,0,0,0,3,4,1,7,0002-00-0000-18.png,0004-00-0000-46.png
00000009,59,1,1447260529477,1447260530133,478,251,0,0,0,0,4,4,4,0001-00-0000-40.png,0004-00-0000-75.png
00000009,60,1,1447260531469,1447260532234,912,308,0,0,0,4,3,1,7,0004-00-0000-47.png,0002-00-0000-21.png
00000009,61,1,1447260533217,1447260534251,965,339,0,0,0,4,1,3,5,0004-00-0001-26.png,0005-00-0000-60.png
00000009,62,1,1447260535354,1447260535422,893,480,0,0,0,4,2,2,6,0004-00-0000-53.png,0003-00-0000-57.png
00000009,63,0,1447260536536,1447260537322,395,354,0,0,0,3,2,1,5,0002-00-0001-36.png,0003-00-0000-35.png
00000009,64,1,1447260540492,1447260540996,1071,257,0,0,0,4,3,1,7,0004-00-0000-05.png,0002-00-0001-44.png
00000009,65,0,1447260541910,1447260542750,1013,271,0,0,0,2,4,2,6,0003-00-0001-54.png,0004-00-0001-77.png
00000009,66,0,1447260545926,1447260545938,913,280,0,0,0,1,2,1,3,0005-00-0001-37.png,0003-00-0000-23.png
00000009,67,1,1447260548878,1447260548886,521,408,0,0,0,0,4,4,4,0001-00-0000-30.png,0004-00-0000-77.png
00000009,68,1,1447260549871,1447260550045,913,462,0,0,0,3,0,3,3,0002-00-0001-15.png,0001-00-0001-34.png
00000009,69,0,1447260551085,1447260552136,1042,280,0,0,0,2,3,1,5,0003-00-0001-33.png,0002-00-0000-68.png
00000009,70,1,1447260555148,1447260555685,964,410,0,0,0,2,1,1,3,0003-00-0001-03.png,0005-00-0001-91.png
00000009,71,0,1447260556571,1447260556627,870,443,0,0,0,0,2,2,2,0001-00-0000-93.png,0003-00-0000-47.png
00000009,72,0,1447260559828,1447260560300,1041,227,0,0,0,0,1,1,1,0001-00-0001-33.png,0005-00-0001-48.png
00000009,73,1,1447260563395,1447260563933,1042,255,0,0,0,1,0,1,1,0005-00-0000-46.png,0001-00-0001-99.png
00000009,74,0,1447260564807,1447260565658,1015,281,0,0,0,1,3,2,4,0005-00-0000-04.png,0002-00-0000-54.png
00000009,75,1,1447260568721,1447260568749,914,335,0,0,0,4,0,4,4,0004-00-0001-59.png,0001-00-0001-21.png
00000009,76,1,1447260569776,1447260570419,504,237,0,0,0,0,3,3,3,0001-00-0001-43.png,0002-00-0000-20.png
00000009,77,1,1447260571476,1447260572128,873,349,0,0,0,2,0,2,2,0003-00-0001-56.png,0001-00-0000-93.png
00000009,78,0,1447260573333,1447260573448,922,454,0,0,0,1,4,3,5,0005-00-0001-73.png,0004-00-0000-36.png
00000009,79,0,1447260576325,1447260577029,935,337,0,0,0,3,4,1,7,0002-00-0000-34.png,0004-00-0000-86.png
00000009,80,0,1447260581990,1447260582524,449,267,0,0,0,3,1,2,4,0002-00-0001-02.png,0005-00-0001-08.png
00000009,81,1,1447260586569,1447260587114,885,371,0,0,0,3,1,2,4,0002-00-0001-02.png,0005-00-0001-77.png
00000009,82,0,1447260588129,1447260588852,931,350,0,0,0,2,3,1,5,0003-00-0000-67.png,0002-00-0000-89.png
00000009,83,1,1447260591976,1447260592565,413,410,0,0,0,1,3,2,4,0005-00-0001-42.png,0002-00-0001-30.png
00000009,84,0,1447260593487,1447260594300,453,267,0,0,0,3,2,1,5,0002-00-0001-02.png,0003-00-0000-03.png
00000009,85,0,1447260597339,1447260597482,862,410,0,0,0,0,2,2,2,0001-00-0000-79.png,0003-00-0000-15.png
00000009,86,1,1447260600611,1447260601155,484,254,0,0,0,0,4,4,4,0001-00-0000-58.png,0004-00-0000-92.png
00000009,87,0,1447260602509,1447260603250,438,384,0,0,0,4,1,3,5,0004-00-0000-27.png,0005-00-0000-35.png
00000009,88,1,1447260606094,1447260606606,1067,252,0,0,0,4,0,4,4,0004-00-0001-31.png,0001-00-0000-68.png
00000009,89,1,1447260607489,1447260607537,868,427,0,0,0,2,1,1,3,0003-00-0001-61.png,0005-00-0000-37.png
00000009,90,0,1447260608500,1447260608556,862,436,0,0,0,2,4,2,6,0003-00-0000-62.png,0004-00-0001-34.png
00000009,91,1,1447260611401,1447260611899,497,225,0,0,0,3,4,1,7,0002-00-0000-40.png,0004-00-0000-08.png
00000009,92,1,1447260612738,1447260612836,862,436,0,0,0,4,2,2,6,0004-00-0001-31.png,0003-00-0000-35.png
00000009,93,1,1447260613827,1447260614740,453,273,0,0,0,0,3,3,3,0001-00-0001-62.png,0002-00-0000-62.png
00000009,94,0,1447260615675,1447260615723,862,420,0,0,0,1,2,1,3,0005-00-0000-00.png,0003-00-0001-24.png
00000009,95,1,1447260618677,1447260618715,878,398,0,0,0,1,0,1,1,0005-00-0000-37.png,0001-00-0001-30.png
00000009,96,1,1447260619630,1447260620286,941,326,0,0,0,3,0,3,3,0002-00-0001-26.png,0001-00-0001-30.png
00000009,97,0,1447260621241,1447260621317,913,447,0,0,0,1,4,3,5,0005-00-0001-58.png,0004-00-0001-55.png
00000009,98,1,1447260624241,1447260624721,1063,260,0,0,0,4,3,1,7,0004-00-0000-31.png,0002-00-0000-73.png
00000009,99,0,1447260625583,1447260625675,868,490,0,0,0,0,1,1,1,0001-00-0001-49.png,0005-00-0001-70.png
00000009,100,1,1447260628663,1447260629138,940,302,0,0,0,2,0,2,2,0003-00-0001-92.png,0001-00-0001-27.png
00000009,101,1,1447260630004,1447260630276,937,541,0,0,0,3,1,2,4,0002-00-0000-38.png,0005-00-0000-34.png
00000009,102,0,1447260631375,1447260631387,862,410,0,0,0,2,4,2,6,0003-00-0001-52.png,0004-00-0000-32.png
00000009,103,1,1447260634646,1447260635130,474,277,0,0,0,0,4,4,4,0001-00-0001-49.png,0004-00-0000-95.png
00000009,104,0,1447260635996,1447260636190,913,492,0,0,0,0,3,3,3,0001-00-0000-84.png,0002-00-0001-60.png
00000009,105,0,1447260639178,1447260639222,1044,377,0,0,0,0,1,1,1,0001-00-0001-06.png,0005-00-0001-77.png
00000009,106,1,1447260642296,1447260642324,939,282,0,0,0,4,0,4,4,0004-00-0000-88.png,0001-00-0001-38.png
00000009,107,1,1447260643269,1447260643341,901,398,0,0,0,2,0,2,2,0003-00-0001-36.png,0001-00-0001-85.png
00000009,108,0,1447260644382,1447260644511,882,444,0,0,0,1,2,1,3,0005-00-0001-73.png,0003-00-0000-65.png
00000009,109,1,1447260647679,1447260648154,918,331,0,0,0,1,0,1,1,0005-00-0000-55.png,0001-00-0001-54.png
00000009,110,1,1447260649009,1447260649140,913,446,0,0,0,3,0,3,3,0002-00-0000-08.png,0001-00-0000-90.png
00000009,111,0,1447260650177,1447260650229,858,452,0,0,0,3,4,1,7,0002-00-0001-70.png,0004-00-0000-61.png
00000009,112,0,1447260653097,1447260653101,862,347,0,0,0,1,4,3,5,0005-00-0000-17.png,0004-00-0000-40.png
00000009,113,1,1447260656129,1447260656625,1041,268,0,0,0,4,2,2,6,0004-00-0000-38.png,0003-00-0000-38.png
00000009,114,1,1447260657508,1447260658220,940,332,0,0,0,4,1,3,5,0004-00-0001-71.png,0005-00-0000-60.png
00000009,115,0,1447260659290,1447260659401,931,442,0,0,0,2,3,1,5,0003-00-0001-79.png,0002-00-0001-45.png
00000009,116,1,1447260662527,1447260662547,886,313,0,0,0,3,2,1,5,0002-00-0000-73.png,0003-00-0001-30.png
00000009,117,1,1447260663472,1447260663544,871,419,0,0,0,4,3,1,7,0004-00-0000-62.png,0002-00-0000-68.png
00000009,118,1,1447260664595,1447260665487,446,331,0,0,0,0,2,2,2,0001-00-0001-39.png,0003-00-0000-51.png
00000009,119,1,1447260666621,1447260666689,862,421,0,0,0,2,1,1,3,0003-00-0001-82.png,0005-00-0000-13.png
00000009,120,0,1447260667754,1447260667802,862,423,0,0,0,1,3,2,4,0005-00-0000-95.png,0002-00-0001-62.png
00000009,121,1,1447260670885,1447260671350,488,266,0,0,0,0,3,3,3,0001-00-0001-99.png,0002-00-0000-08.png
00000009,122,0,1447260673210,1447260673844,484,229,0,0,0,3,2,1,5,0002-00-0001-80.png,0003-00-0000-42.png
00000009,123,1,1447260676787,1447260677324,420,391,0,0,0,0,2,2,2,0001-00-0001-66.png,0003-00-0000-45.png
00000009,124,1,1447260678240,1447260679167,909,305,0,0,0,1,0,1,1,0005-00-0001-45.png,0001-00-0000-17.png
00000009,125,0,1447260680078,1447260680190,883,467,0,0,0,2,4,2,6,0003-00-0001-80.png,0004-00-0001-63.png
00000009,126,1,1447260683076,1447260683573,939,322,0,0,0,2,1,1,3,0003-00-0001-88.png,0005-00-0000-06.png
00000009,127,0,1447260684529,1447260684565,859,428,0,0,0,0,4,4,4,0001-00-0001-70.png,0004-00-0001-71.png
00000009,128,1,1447260687397,1447260687975,913,321,0,0,0,3,0,3,3,0002-00-0000-08.png,0001-00-0000-25.png
00000009,129,1,1447260688785,1447260689796,1046,280,0,0,0,4,2,2,6,0004-00-0000-00.png,0003-00-0000-46.png
00000009,130,1,1447260690758,1447260690834,870,404,0,0,0,2,0,2,2,0003-00-0000-33.png,0001-00-0000-73.png
00000009,131,0,1447260692053,1447260692145,888,449,0,0,0,0,1,1,1,0001-00-0001-14.png,0005-00-0001-96.png
00000009,132,0,1447260695140,1447260695715,453,384,0,0,0,4,3,1,7,0004-00-0000-64.png,0002-00-0000-31.png
00000009,133,0,1447260701781,1447260702576,959,419,0,0,0,1,3,2,4,0005-00-0000-77.png,0002-00-0001-47.png
00000009,134,1,1447260705725,1447260706221,1047,282,0,0,0,3,1,2,4,0002-00-0000-14.png,0005-00-0001-54.png
00000009,135,1,1447260707108,1447260708074,369,350,0,0,0,3,4,1,7,0002-00-0000-37.png,0004-00-0001-90.png
00000009,136,1,1447260709114,1447260709130,862,390,0,0,0,4,1,3,5,0004-00-0000-55.png,0005-00-0001-55.png
00000009,137,1,1447260710166,1447260711078,478,228,0,0,0,1,2,1,3,0005-00-0001-60.png,0003-00-0000-74.png
00000009,138,0,1447260712025,1447260712061,870,410,0,0,0,1,4,3,5,0005-00-0001-70.png,0004-00-0000-33.png
00000009,139,0,1447260715356,1447260715850,1026,253,0,0,0,2,3,1,5,0003-00-0000-54.png,0002-00-0001-21.png
00000009,140,1,1447260718669,1447260719204,1040,308,0,0,0,4,0,4,4,0004-00-0001-89.png,0001-00-0001-59.png
00000009,141,0,1447260720033,1447260720848,911,335,0,0,0,2,3,1,5,0003-00-0000-55.png,0002-00-0001-65.png
00000009,142,0,1447260723952,1447260724476,463,264,0,0,0,4,3,1,7,0004-00-0000-02.png,0002-00-0000-51.png
00000009,143,1,1447260727418,1447260727625,862,410,0,0,0,3,2,1,5,0002-00-0000-47.png,0003-00-0000-21.png
00000009,144,0,1447260728642,1447260728742,888,410,0,0,0,2,4,2,6,0003-00-0001-60.png,0004-00-0001-29.png
00000009,145,0,1447260732038,1447260732086,887,284,0,0,0,0,4,4,4,0001-00-0001-35.png,0004-00-0000-28.png
00000009,146,0,1447260735010,1447260735058,905,381,0,0,0,0,2,2,2,0001-00-0001-79.png,0003-00-0000-61.png
00000009,147,1,1447260738465,1447260738489,869,345,0,0,0,2,1,1,3,0003-00-0001-53.png,0005-00-0000-90.png
00000009,148,0,1447260739552,1447260740334,913,354,0,0,0,3,4,1,7,0002-00-0001-81.png,0004-00-0001-17.png
00000009,149,1,1447260743593,1447260744164,939,345,0,0,0,3,0,3,3,0002-00-0000-27.png,0001-00-0000-90.png
00000009,150,1,1447260744995,1447260745047,897,408,0,0,0,3,1,2,4,0002-00-0000-65.png,0005-00-0000-36.png
00000009,151,1,1447260746209,1447260746570,887,521,0,0,0,2,0,2,2,0003-00-0000-56.png,0001-00-0000-72.png
00000009,152,1,1447260747600,1447260748475,1048,304,0,0,0,4,1,3,5,0004-00-0000-52.png,0005-00-0000-13.png
00000009,153,1,1447260749539,1447260749587,874,410,0,0,0,1,0,1,1,0005-00-0000-39.png,0001-00-0000-19.png
00000009,154,1,1447260750750,1447260750867,888,462,0,0,0,4,0,4,4,0004-00-0001-18.png,0001-00-0000-92.png
00000009,155,1,1447260752041,1447260753254,893,305,0,0,0,4,2,2,6,0004-00-0001-20.png,0003-00-0000-82.png
00000009,156,0,1447260754210,1447260754262,891,418,0,0,0,0,3,3,3,0001-00-0000-30.png,0002-00-0000-74.png
00000009,157,0,1447260757428,1447260757563,858,400,0,0,0,1,3,2,4,0005-00-0001-13.png,0002-00-0001-58.png
00000009,158,1,1447260760688,1447260761204,476,260,0,0,0,0,1,1,1,0001-00-0000-34.png,0005-00-0001-94.png
00000009,159,1,1447260762080,1447260762927,478,250,0,0,0,1,2,1,3,0005-00-0001-59.png,0003-00-0000-41.png
00000009,160,0,1447260763866,1447260764879,1042,265,0,0,0,1,4,3,5,0005-00-0000-76.png,0004-00-0001-99.png
00000009,161,1,1447260767800,1447260767840,911,354,0,0,0,4,0,4,4,0004-00-0000-36.png,0001-00-0000-44.png
00000009,162,0,1447260768803,1447260768841,862,429,0,0,0,0,3,3,3,0001-00-0001-58.png,0002-00-0000-27.png
00000009,163,1,1447260771947,1447260772529,488,232,0,0,0,0,1,1,1,0001-00-0000-99.png,0005-00-0001-45.png
00000009,164,0,1447260773875,1447260774530,909,340,0,0,0,1,4,3,5,0005-00-0000-19.png,0004-00-0001-78.png
00000009,165,1,1447260777659,1447260778156,1092,279,0,0,0,2,0,2,2,0003-00-0001-71.png,0001-00-0000-18.png
00000009,166,1,1447260779021,1447260779768,936,342,0,0,0,2,1,1,3,0003-00-0001-37.png,0005-00-0000-66.png
00000009,167,0,1447260780762,1447260780810,897,429,0,0,0,0,4,4,4,0001-00-0001-74.png,0004-00-0001-20.png
00000009,168,1,1447260783651,1447260784156,940,320,0,0,0,4,1,3,5,0004-00-0000-59.png,0005-00-0000-11.png
00000009,169,0,1447260785056,1447260785076,866,384,0,0,0,2,4,2,6,0003-00-0000-37.png,0004-00-0001-72.png
00000009,170,0,1447260788156,1447260788783,1081,321,0,0,0,0,2,2,2,0001-00-0000-39.png,0003-00-0001-32.png
00000009,171,1,1447260791646,1447260792231,939,342,0,0,0,3,1,2,4,0002-00-0001-23.png,0005-00-0001-47.png
00000009,172,0,1447260793123,1447260793171,887,427,0,0,0,1,3,2,4,0005-00-0001-85.png,0002-00-0000-05.png
00000009,173,1,1447260796105,1447260796540,394,341,0,0,0,1,2,1,3,0005-00-0000-27.png,0003-00-0000-55.png
00000009,174,0,1447260797866,1447260798700,441,372,0,0,0,3,2,1,5,0002-00-0000-33.png,0003-00-0000-23.png
00000009,175,1,1447260801800,1447260801836,915,307,0,0,0,1,0,1,1,0005-00-0000-85.png,0001-00-0001-69.png
00000009,176,1,1447260802743,1447260803775,392,336,0,0,0,3,4,1,7,0002-00-0001-87.png,0004-00-0000-06.png
00000009,177,0,1447260804713,1447260805479,467,227,0,0,0,4,2,2,6,0004-00-0000-02.png,0003-00-0001-95.png
00000009,178,0,1447260808378,1447260808851,939,318,0,0,0,2,3,1,5,0003-00-0000-26.png,0002-00-0001-46.png
00000009,179,1,1447260811924,1447260811976,907,309,0,0,0,4,3,1,7,0004-00-0000-38.png,0002-00-0000-25.png
00000009,180,1,1447260812900,1447260813531,906,336,0,0,0,3,0,3,3,0002-00-0001-26.png,0001-00-0000-55.png
00000009,181,0,1447260814469,1447260814505,862,410,0,0,0,1,2,1,3,0005-00-0000-41.png,0003-00-0000-86.png
00000009,182,0,1447260817442,1447260817944,1041,265,0,0,0,2,3,1,5,0003-00-0000-02.png,0002-00-0001-19.png
00000009,183,1,1447260820879,1447260821399,478,238,0,0,0,2,4,2,6,0003-00-0001-00.png,0004-00-0001-63.png
00000009,184,1,1447260822267,1447260823089,936,321,0,0,0,3,1,2,4,0002-00-0000-31.png,0005-00-0000-86.png
00000009,185,0,1447260824036,1447260824104,884,445,0,0,0,0,4,4,4,0001-00-0000-13.png,0004-00-0001-33.png
00000009,186,1,1447260827245,1447260827336,902,288,0,0,0,4,3,1,7,0004-00-0000-61.png,0002-00-0001-26.png
00000009,187,1,1447260828251,1447260829105,1047,289,0,0,0,4,1,3,5,0004-00-0001-80.png,0005-00-0000-54.png
00000009,188,1,1447260830038,1447260830981,483,251,0,0,0,1,3,2,4,0005-00-0001-12.png,0002-00-0001-99.png
00000009,189,1,1447260831977,1447260832013,859,439,0,0,0,4,0,4,4,0004-00-0001-59.png,0001-00-0000-23.png
00000009,190,1,1447260833129,1447260833986,425,321,0,0,0,0,2,2,2,0001-00-0000-57.png,0003-00-0001-89.png
00000009,191,1,1447260834888,1447260834956,894,429,0,0,0,3,2,1,5,0002-00-0000-96.png,0003-00-0001-20.png
00000009,192,0,1447260836251,1447260837139,917,323,0,0,0,3,4,1,7,0002-00-0000-32.png,0004-00-0000-63.png
00000009,193,0,1447260840205,1447260840273,939,333,0,0,0,0,3,3,3,0001-00-0001-52.png,0002-00-0000-15.png
00000009,194,0,1447260843366,1447260843885,506,260,0,0,0,4,2,2,6,0004-00-0001-63.png,0003-00-0000-66.png
00000009,195,1,1447260848347,1447260848367,883,338,0,0,0,1,0,1,1,0005-00-0000-83.png,0001-00-0000-29.png
00000009,196,0,1447260849390,1447260849683,939,422,0,0,0,0,1,1,1,0001-00-0001-50.png,0005-00-0000-95.png
00000009,197,1,1447260852777,1447260853322,1062,276,0,0,0,2,0,2,2,0003-00-0001-17.png,0001-00-0000-79.png
00000009,198,1,1447260854217,1447260854277,899,384,0,0,0,2,1,1,3,0003-00-0001-40.png,0005-00-0000-90.png
00000009,199,1,1447260855399,1447260856332,520,233,0,0,0,1,4,3,5,0005-00-0000-51.png,0004-00-0001-27.png
00000009,200,1,1447260857279,1447260857323,862,393,0,0,0,3,0,3,3,0002-00-0001-32.png,0001-00-0000-73.png
00000009,201,1,1447260858390,1447260859412,1014,285,0,0,0,4,3,1,7,0004-00-0000-72.png,0002-00-0001-20.png
00000009,202,1,1447260860289,1447260861182,503,221,0,0,0,0,3,3,3,0001-00-0001-91.png,0002-00-0001-54.png
00000009,203,0,1447260862076,1447260862581,953,562,0,0,0,1,2,1,3,0005-00-0000-37.png,0003-00-0000-02.png
00000009,204,1,1447260865652,1447260866215,480,272,0,0,0,1,4,3,5,0005-00-0001-53.png,0004-00-0001-96.png
00000009,205,1,1447260867085,1447260867902,404,351,0,0,0,3,4,1,7,0002-00-0001-84.png,0004-00-0001-64.png
00000009,206,1,1447260868825,1447260869654,916,307,0,0,0,4,1,3,5,0004-00-0000-70.png,0005-00-0000-01.png
00000009,207,0,1447260870534,1447260870570,862,419,0,0,0,0,4,4,4,0001-00-0001-31.png,0004-00-0000-95.png
00000009,208,1,1447260873656,1447260873672,918,298,0,0,0,3,0,3,3,0002-00-0001-99.png,0001-00-0000-74.png
00000009,209,1,1447260874589,1447260875253,499,245,0,0,0,1,3,2,4,0005-00-0001-85.png,0002-00-0000-44.png
00000009,210,1,1447260876279,1447260877449,922,341,0,0,0,4,0,4,4,0004-00-0000-09.png,0001-00-0001-89.png
00000009,211,1,1447260878375,1447260878395,887,387,0,0,0,2,1,1,3,0003-00-0000-24.png,0005-00-0000-53.png
00000009,212,0,1447260879519,1447260879595,872,488,0,0,0,0,2,2,2,0001-00-0001-77.png,0003-00-0001-86.png
00000009,213,1,1447260882440,1447260882962,944,328,0,0,0,4,2,2,6,0004-00-0000-22.png,0003-00-0001-09.png
00000009,214,0,1447260883840,1447260883876,910,441,0,0,0,2,4,2,6,0003-00-0000-61.png,0004-00-0001-28.png
00000009,215,1,1447260886968,1447260887525,1081,262,0,0,0,3,2,1,5,0002-00-0000-63.png,0003-00-0000-89.png
00000009,216,1,1447260888399,1447260888466,862,436,0,0,0,1,0,1,1,0005-00-0001-53.png,0001-00-0000-15.png
00000009,217,1,1447260889534,1447260889657,896,488,0,0,0,2,0,2,2,0003-00-0000-42.png,0001-00-0000-76.png
00000009,218,1,1447260890686,1447260890746,862,462,0,0,0,3,1,2,4,0002-00-0000-39.png,0005-00-0000-86.png
00000009,219,0,1447260891900,1447260891964,904,462,0,0,0,0,1,1,1,0001-00-0000-46.png,0005-00-0000-21.png
00000009,220,0,1447260895000,1447260895523,961,307,0,0,0,2,3,1,5,0003-00-0000-43.png,0002-00-0001-91.png
00000009,221,0,1447260898712,1447260899219,487,261,0,0,0,1,0,1,1,0005-00-0000-58.png,0001-00-0001-60.png
00000009,222,1,1447260902394,1447260902848,1096,277,0,0,0,2,0,2,2,0003-00-0001-49.png,0001-00-0000-41.png
00000009,223,0,1447260903816,1447260903852,873,406,0,0,0,0,3,3,3,0001-00-0000-08.png,0002-00-0001-81.png
00000009,224,0,1447260906823,1447260907315,1076,279,0,0,0,1,4,3,5,0005-00-0001-68.png,0004-00-0000-10.png
00000009,225,1,1447260910463,1447260911043,516,237,0,0,0,0,1,1,1,0001-00-0001-19.png,0005-00-0000-69.png
00000009,226,0,1447260911932,1447260912892,939,322,0,0,0,0,2,2,2,0001-00-0001-15.png,0003-00-0000-73.png
00000009,227,1,1447260915976,1447260916004,893,353,0,0,0,2,1,1,3,0003-00-0001-76.png,0005-00-0000-32.png
00000009,228,1,1447260916932,1447260917121,863,490,0,0,0,3,2,1,5,0002-00-0000-78.png,0003-00-0000-51.png
00000009,229,1,1447260918263,1447260919326,921,335,0,0,0,4,3,1,7,0004-00-0000-02.png,0002-00-0000-22.png
00000009,230,0,1447260920381,1447260920405,872,416,0,0,0,3,4,1,7,0002-00-0000-03.png,0004-00-0001-39.png
00000009,231,1,1447260923234,1447260924046,909,337,0,0,0,4,2,2,6,0004-00-0000-48.png,0003-00-0001-28.png
00000009,232,0,1447260924949,1447260925091,898,489,0,0,0,0,4,4,4,0001-00-0000-14.png,0004-00-0001-08.png
00000009,233,1,1447260928219,1447260928737,1082,277,0,0,0,4,1,3,5,0004-00-0000-61.png,0005-00-0000-22.png
00000009,234,0,1447260929601,1447260929689,891,447,0,0,0,2,4,2,6,0003-00-0001-98.png,0004-00-0001-85.png
00000009,235,1,1447260932838,1447260933371,1066,278,0,0,0,4,0,4,4,0004-00-0001-34.png,0001-00-0000-01.png
00000009,236,0,1447260934208,1447260934319,891,435,0,0,0,1,2,1,3,0005-00-0000-92.png,0003-00-0001-03.png
00000009,237,0,1447260937552,1447260938008,1017,278,0,0,0,1,3,2,4,0005-00-0001-95.png,0002-00-0001-37.png
00000009,238,1,1447260941139,1447260941574,966,298,0,0,0,3,0,3,3,0002-00-0001-61.png,0001-00-0000-93.png
00000009,239,0,1447260942405,1447260943156,417,332,0,0,0,3,1,2,4,0002-00-0000-23.png,0005-00-0001-94.png
00000009,240,0,1447260946206,1447260946700,1063,276,0,0,0,2,3,1,5,0003-00-0001-49.png,0002-00-0001-59.png
00000009,241,0,1447260949552,1447260949584,868,449,0,0,0,0,1,1,1,0001-00-0001-74.png,0005-00-0000-37.png
00000009,242,0,1447260952515,1447260953233,487,274,0,0,0,3,2,1,5,0002-00-0000-29.png,0003-00-0000-39.png
00000009,243,1,1447260956382,1447260956868,941,332,0,0,0,3,0,3,3,0002-00-0001-96.png,0001-00-0000-25.png
00000009,244,1,1447260957804,1447260958764,939,336,0,0,0,4,2,2,6,0004-00-0001-13.png,0003-00-0001-69.png
00000009,245,1,1447260959753,1447260959803,879,393,0,0,0,4,0,4,4,0004-00-0001-17.png,0001-00-0001-06.png
00000009,246,1,1447260961033,1447260961101,872,462,0,0,0,2,0,2,2,0003-00-0001-11.png,0001-00-0001-67.png
00000009,247,1,1447260962316,1447260963169,1033,318,0,0,0,3,1,2,4,0002-00-0000-17.png,0005-00-0000-54.png
00000009,248,0,1447260964124,1447260964160,882,419,0,0,0,1,4,3,5,0005-00-0001-25.png,0004-00-0000-67.png
00000009,249,0,1447260967245,1447260967815,974,410,0,0,0,2,3,1,5,0003-00-0001-89.png,0002-00-0001-07.png
00000009,250,1,1447260970803,1447260970843,860,353,0,0,0,4,3,1,7,0004-00-0001-93.png,0002-00-0001-07.png
00000009,251,1,1447260971823,1447260972998,452,252,0,0,0,3,4,1,7,0002-00-0001-01.png,0004-00-0001-76.png
00000009,252,1,1447260973861,1447260973889,861,408,0,0,0,2,1,1,3,0003-00-0000-34.png,0005-00-0000-29.png
00000009,253,0,1447260974996,1447260975059,862,462,0,0,0,1,2,1,3,0005-00-0001-48.png,0003-00-0001-33.png
00000009,254,0,1447260978201,1447260978757,944,318,0,0,0,1,3,2,4,0005-00-0001-61.png,0002-00-0001-05.png
00000009,255,0,1447260981872,1447260982104,964,334,0,0,0,2,4,2,6,0003-00-0001-58.png,0004-00-0000-18.png
00000009,256,1,1447260985082,1447260985608,942,347,0,0,0,1,0,1,1,0005-00-0001-64.png,0001-00-0001-94.png
00000009,257,1,1447260986526,1447260986549,863,389,0,0,0,4,1,3,5,0004-00-0000-32.png,0005-00-0001-06.png
00000009,258,0,1447260987614,1447260987656,866,426,0,0,0,0,3,3,3,0001-00-0001-19.png,0002-00-0000-62.png
00000009,259,0,1447260990527,1447260990567,898,382,0,0,0,0,2,2,2,0001-00-0000-27.png,0003-00-0000-95.png
00000009,260,0,1447260993628,1447260993865,930,360,0,0,0,0,4,4,4,0001-00-0001-46.png,0004-00-0001-66.png
00000009,261,1,1447260997029,1447260997649,488,247,0,0,0,1,2,1,3,0005-00-0001-95.png,0003-00-0001-43.png
00000009,262,0,1447260998527,1447260999579,1041,279,0,0,0,2,3,1,5,0003-00-0001-12.png,0002-00-0001-06.png
00000009,263,0,1447261002593,1447261002673,918,354,0,0,0,0,1,1,1,0001-00-0000-25.png,0005-00-0000-37.png
00000009,264,1,1447261005811,1447261005831,883,326,0,0,0,4,1,3,5,0004-00-0001-42.png,0005-00-0001-61.png
00000009,265,1,1447261006779,1447261007386,903,351,0,0,0,1,0,1,1,0005-00-0000-21.png,0001-00-0000-60.png
00000009,266,1,1447261008234,1447261008258,879,364,0,0,0,3,2,1,5,0002-00-0000-03.png,0003-00-0001-97.png
00000009,267,1,1447261009422,1447261009499,867,441,0,0,0,2,1,1,3,0003-00-0000-55.png,0005-00-0000-49.png
00000009,268,1,1447261010624,1447261011751,1035,300,0,0,0,4,0,4,4,0004-00-0001-38.png,0001-00-0001-00.png
00000009,269,1,1447261012829,1447261012932,897,462,0,0,0,3,1,2,4,0002-00-0001-53.png,0005-00-0000-63.png
00000009,270,0,1447261014080,1447261014128,862,410,0,0,0,3,4,1,7,0002-00-0000-59.png,0004-00-0000-19.png
00000009,271,0,1447261017052,1447261017088,867,386,0,0,0,0,2,2,2,0001-00-0000-80.png,0003-00-0001-19.png
00000009,272,0,1447261020101,1447261020129,910,351,0,0,0,1,4,3,5,0005-00-0001-35.png,0004-00-0000-78.png
00000009,273,0,1447261023061,1447261024082,458,255,0,0,0,4,2,2,6,0004-00-0001-96.png,0003-00-0001-15.png
00000009,274,0,1447261027177,1447261027189,867,321,0,0,0,0,4,4,4,0001-00-0001-66.png,0004-00-0000-50.png
00000009,275,1,1447261030367,1447261030904,382,374,0,0,0,2,4,2,6,0003-00-0000-19.png,0004-00-0001-02.png
00000009,276,1,1447261031829,1447261032482,470,234,0,0,0,0,3,3,3,0001-00-0000-45.png,0002-00-0000-97.png
00000009,277,1,1447261033449,1447261034363,1013,284,0,0,0,4,3,1,7,0004-00-0001-10.png,0002-00-0001-06.png
00000009,278,0,1447261035327,1447261035387,908,436,0,0,0,1,3,2,4,0005-00-0001-16.png,0002-00-0001-58.png
00000009,279,1,1447261038278,1447261038750,1040,274,0,0,0,2,0,2,2,0003-00-0001-38.png,0001-00-0001-15.png
00000009,280,1,1447261039615,1447261039659,888,410,0,0,0,3,0,3,3,0002-00-0001-07.png,0001-00-0000-57.png
00000009,281,1,1447261040721,1447261040777,862,454,0,0,0,2,0,2,2,0003-00-0001-43.png,0001-00-0001-05.png
00000009,282,1,1447261041882,1447261041983,862,448,0,0,0,2,1,1,3,0003-00-0000-45.png,0005-00-0000-05.png
00000009,283,0,1447261043336,1447261043477,939,488,0,0,0,0,2,2,2,0001-00-0000-74.png,0003-00-0001-07.png
00000009,284,1,1447261048662,1447261049123,419,350,0,0,0,1,2,1,3,0005-00-0000-76.png,0003-00-0001-14.png
00000009,285,1,1447261050112,1447261050830,890,355,0,0,0,4,3,1,7,0004-00-0000-26.png,0002-00-0000-74.png
00000009,286,0,1447261051762,1447261051798,866,411,0,0,0,1,4,3,5,0005-00-0000-34.png,0004-00-0000-68.png
00000009,287,0,1447261054989,1447261055077,857,292,0,0,0,0,1,1,1,0001-00-0000-75.png,0005-00-0001-20.png
00000009,288,1,1447261058161,1447261058724,394,355,0,0,0,0,4,4,4,0001-00-0000-50.png,0004-00-0001-00.png
00000009,289,0,1447261059571,1447261060588,479,263,0,0,0,3,2,1,5,0002-00-0000-31.png,0003-00-0001-67.png
00000009,290,0,1447261063675,1447261063732,915,310,0,0,0,2,4,2,6,0003-00-0000-66.png,0004-00-0001-51.png
00000009,291,1,1447261066896,1447261067418,1067,288,0,0,0,3,1,2,4,0002-00-0001-03.png,0005-00-0001-11.png
00000009,292,1,1447261068256,1447261068319,867,411,0,0,0,3,0,3,3,0002-00-0000-68.png,0001-00-0001-91.png
00000009,293,1,1447261069270,1447261070187,437,318,0,0,0,1,3,2,4,0005-00-0000-08.png,0002-00-0000-81.png
00000009,294,1,1447261071088,1447261071175,863,439,0,0,0,1,0,1,1,0005-00-0001-18.png,0001-00-0000-69.png
00000009,295,1,1447261072231,1447261072318,870,460,0,0,0,4,2,2,6,0004-00-0001-89.png,0003-00-0001-22.png
00000009,296,1,1447261073375,1447261074127,468,259,0,0,0,0,3,3,3,0001-00-0000-29.png,0002-00-0001-90.png
00000009,297,1,1447261075028,1447261075083,873,436,0,0,0,4,0,4,4,0004-00-0001-11.png,0001-00-0001-01.png
00000009,298,1,1447261076238,1447261077265,488,244,0,0,0,2,3,1,5,0003-00-0001-39.png,0002-00-0000-65.png
00000009,299,0,1447261078185,1447261078209,889,415,0,0,0,3,4,1,7,0002-00-0001-06.png,0004-00-0001-93.png
00000009,300,1,1447261081442,1447261082022,1072,281,0,0,0,4,1,3,5,0004-00-0000-56.png,0005-00-0001-62.png
00000009,301,1,1447261082923,1447261082999,913,480,0,0,0,4,0,4,4,0004-00-0001-74.png,0001-00-0000-52.png
00000009,302,1,1447261083926,1447261085385,504,298,0,0,0,3,4,1,7,0002-00-0001-44.png,0004-00-0001-10.png
00000009,303,0,1447261086273,1447261086297,874,411,0,0,0,2,4,2,6,0003-00-0001-45.png,0004-00-0001-24.png
00000009,304,1,1447261089271,1447261089922,950,389,0,0,0,1,0,1,1,0005-00-0000-65.png,0001-00-0000-26.png
00000009,305,1,1447261090763,1447261090815,893,446,0,0,0,2,0,2,2,0003-00-0001-76.png,0001-00-0000-66.png
00000009,306,0,1447261091677,1447261091737,885,426,0,0,0,1,3,2,4,0005-00-0000-12.png,0002-00-0000-67.png
00000009,307,0,1447261094668,1447261094688,862,358,0,0,0,0,2,2,2,0001-00-0000-33.png,0003-00-0001-14.png
00000009,308,1,1447261097889,1447261098379,1062,262,0,0,0,3,0,3,3,0002-00-0000-39.png,0001-00-0000-01.png
00000009,309,1,1447261099229,1447261099281,904,410,0,0,0,3,1,2,4,0002-00-0000-05.png,0005-00-0000-79.png
00000009,310,1,1447261100245,1447261100309,888,436,0,0,0,3,2,1,5,0002-00-0000-20.png,0003-00-0000-76.png
00000009,311,0,1447261102094,1447261102705,925,336,0,0,0,0,1,1,1,0001-00-0000-26.png,0005-00-0000-97.png
00000009,312,0,1447261105617,1447261105653,863,330,0,0,0,1,2,1,3,0005-00-0001-27.png,0003-00-0000-57.png
00000009,313,1,1447261108792,1447261108808,911,285,0,0,0,4,2,2,6,0004-00-0001-36.png,0003-00-0000-76.png
00000009,314,1,1447261109735,1447261109819,888,448,0,0,0,4,3,1,7,0004-00-0000-93.png,0002-00-0000-80.png
00000009,315,1,1447261110796,1447261111737,443,339,0,0,0,0,4,4,4,0001-00-0001-81.png,0004-00-0001-49.png
00000009,316,0,1447261112694,1447261112763,888,396,0,0,0,0,3,3,3,0001-00-0000-49.png,0002-00-0001-66.png
00000009,317,1,1447261115844,1447261116316,946,323,0,0,0,4,1,3,5,0004-00-0001-46.png,0005-00-0001-55.png
00000009,318,1,1447261117620,1447261118240,934,373,0,0,0,2,1,1,3,0003-00-0001-29.png,0005-00-0000-72.png
00000009,319,0,1447261119143,1447261119175,862,436,0,0,0,1,4,3,5,0005-00-0000-00.png,0004-00-0001-59.png
00000009,320,1,1447261122225,1447261122800,503,279,0,0,0,2,3,1,5,0003-00-0000-37.png,0002-00-0001-07.png
00000009,321,1,1447261123633,1447261124301,435,260,0,0,0,0,3,3,3,0001-00-0000-72.png,0002-00-0000-78.png
00000009,322,1,1447261125177,1447261126058,910,355,0,0,0,4,2,2,6,0004-00-0000-38.png,0003-00-0000-97.png
00000009,323,0,1447261127054,1447261127127,862,410,0,0,0,0,4,4,4,0001-00-0001-75.png,0004-00-0001-37.png
00000009,324,1,1447261130294,1447261130840,490,227,0,0,0,1,4,3,5,0005-00-0000-80.png,0004-00-0001-50.png
00000009,325,0,1447261131683,1447261132399,916,328,0,0,0,2,3,1,5,0003-00-0001-34.png,0002-00-0001-98.png
00000009,326,1,1447261135248,1447261135735,416,343,0,0,0,0,2,2,2,0001-00-0000-69.png,0003-00-0001-38.png
00000009,327,0,1447261136567,1447261137272,409,298,0,0,0,1,0,1,1,0005-00-0001-98.png,0001-00-0000-18.png
00000009,328,1,1447261140398,1447261140866,969,318,0,0,0,4,0,4,4,0004-00-0000-87.png,0001-00-0000-58.png
00000009,329,1,1447261142177,1447261142852,1042,277,0,0,0,2,1,1,3,0003-00-0000-87.png,0005-00-0000-02.png
00000009,330,1,1447261143706,1447261143766,873,436,0,0,0,2,0,2,2,0003-00-0000-01.png,0001-00-0000-72.png
00000009,331,1,1447261144829,1447261145656,496,237,0,0,0,3,4,1,7,0002-00-0001-83.png,0004-00-0000-08.png
00000009,332,1,1447261146578,1447261147346,441,358,0,0,0,1,2,1,3,0005-00-0000-98.png,0003-00-0001-32.png
00000009,333,1,1447261148258,1447261149029,471,376,0,0,0,1,3,2,4,0005-00-0001-72.png,0002-00-0001-56.png
00000009,334,1,1447261150029,1447261150105,865,452,0,0,0,4,1,3,5,0004-00-0001-23.png,0005-00-0001-43.png
00000009,335,1,1447261151162,1447261151206,862,450,0,0,0,3,0,3,3,0002-00-0001-17.png,0001-00-0000-54.png
00000009,336,0,1447261152314,1447261153295,918,315,0,0,0,2,4,2,6,0003-00-0001-84.png,0004-00-0001-35.png
00000009,337,1,1447261156347,1447261156887,1075,284,0,0,0,4,3,1,7,0004-00-0001-08.png,0002-00-0001-52.png
00000009,338,0,1447261157768,1447261157788,898,389,0,0,0,0,1,1,1,0001-00-0001-00.png,0005-00-0000-25.png
00000009,339,1,1447261160609,1447261161077,949,331,0,0,0,3,1,2,4,0002-00-0001-62.png,0005-00-0000-49.png
00000009,340,1,1447261162508,1447261163451,1046,263,0,0,0,3,2,1,5,0002-00-0000-51.png,0003-00-0000-89.png
00000009,341,0,1447261164405,1447261164447,897,410,0,0,0,1,4,3,5,0005-00-0001-93.png,0004-00-0001-36.png
00000009,342,0,1447261167408,1447261167416,913,384,0,0,0,1,2,1,3,0005-00-0001-87.png,0003-00-0000-63.png
00000009,343,0,1447261170267,1447261170753,1049,297,0,0,0,0,1,1,1,0001-00-0000-53.png,0005-00-0001-15.png
00000009,344,1,1447261180100,1447261180588,1042,249,0,0,0,4,3,1,7,0004-00-0000-39.png,0002-00-0000-37.png
00000009,345,0,1447261181563,1447261181659,900,358,0,0,0,0,4,4,4,0001-00-0000-07.png,0004-00-0000-66.png
00000009,346,1,1447261184741,1447261185213,1070,279,0,0,0,3,0,3,3,0002-00-0000-63.png,0001-00-0000-22.png
00000009,347,0,1447261186512,1447261187158,514,224,0,0,0,1,0,1,1,0005-00-0000-82.png,0001-00-0000-65.png
00000009,348,1,1447261208214,1447261208700,913,420,0,0,0,2,0,2,2,0003-00-0001-10.png,0001-00-0001-12.png
00000009,349,0,1447261209985,1447261210653,1066,280,0,0,0,2,4,2,6,0003-00-0000-65.png,0004-00-0001-31.png
00000009,350,1,1447261218909,1447261219330,1035,226,0,0,0,2,1,1,3,0003-00-0001-76.png,0005-00-0000-54.png
00000009,351,1,1447261220301,1447261220894,916,361,0,0,0,4,2,2,6,0004-00-0001-87.png,0003-00-0000-79.png
00000009,352,0,1447261221831,1447261221891,934,419,0,0,0,0,3,3,3,0001-00-0001-24.png,0002-00-0000-76.png
00000009,353,1,1447261225934,1447261226431,1047,241,0,0,0,4,0,4,4,0004-00-0000-14.png,0001-00-0001-64.png
00000009,354,1,1447261227280,1447261227304,861,408,0,0,0,4,1,3,5,0004-00-0000-16.png,0005-00-0000-08.png
00000009,355,0,1447261228298,1447261228366,888,454,0,0,0,1,3,2,4,0005-00-0000-70.png,0002-00-0000-10.png
00000009,356,0,1447261231450,1447261231478,891,294,0,0,0,3,4,1,7,0002-00-0000-30.png,0004-00-0001-18.png
00000009,357,0,1447261234389,1447261234877,456,238,0,0,0,3,2,1,5,0002-00-0001-10.png,0003-00-0000-02.png
00000009,358,1,1447261237768,1447261238248,1044,302,0,0,0,3,1,2,4,0002-00-0001-03.png,0005-00-0000-90.png
00000009,359,1,1447261239629,1447261240149,478,244,0,0,0,0,2,2,2,0001-00-0001-19.png,0003-00-0001-05.png
00000009,360,0,1447261241041,1447261241945,913,394,0,0,0,2,3,1,5,0003-00-0000-24.png,0002-00-0000-25.png
00000009,361,0,1447261245025,1447261245217,888,410,0,0,0,0,3,3,3,0001-00-0000-92.png,0002-00-0000-53.png
00000009,362,0,1447261248316,1447261248773,477,266,0,0,0,3,2,1,5,0002-00-0000-86.png,0003-00-0000-24.png
00000009,363,1,1447261256488,1447261257070,359,361,0,0,0,1,4,3,5,0005-00-0001-29.png,0004-00-0001-27.png
00000009,364,1,1447261258049,1447261258109,874,410,0,0,0,4,0,4,4,0004-00-0001-03.png,0001-00-0000-29.png
00000009,365,0,1447261259002,1447261259155,904,436,0,0,0,2,3,1,5,0003-00-0000-63.png,0002-00-0001-98.png
00000009,366,1,1447261262133,1447261262619,514,266,0,0,0,1,3,2,4,0005-00-0001-70.png,0002-00-0001-32.png
00000009,367,1,1447261263914,1447261264701,1038,279,0,0,0,3,1,2,4,0002-00-0000-76.png,0005-00-0000-94.png
00000009,368,1,1447261265644,1447261265676,871,357,0,0,0,1,0,1,1,0005-00-0000-80.png,0001-00-0001-60.png
00000009,369,1,1447261266873,1447261266955,862,436,0,0,0,2,0,2,2,0003-00-0001-29.png,0001-00-0001-72.png
00000009,370,1,1447261268029,1447261269131,509,237,0,0,0,2,4,2,6,0003-00-0001-57.png,0004-00-0001-51.png
00000009,371,1,1447261270021,1447261270990,1021,308,0,0,0,4,3,1,7,0004-00-0001-87.png,0002-00-0001-60.png
00000009,372,1,1447261271964,1447261272027,902,460,0,0,0,4,2,2,6,0004-00-0001-46.png,0003-00-0001-98.png
00000009,373,1,1447261273176,1447261273205,862,450,0,0,0,3,0,3,3,0002-00-0001-37.png,0001-00-0001-00.png
00000009,374,0,1447261274286,1447261274326,872,462,0,0,0,3,4,1,7,0002-00-0001-75.png,0004-00-0000-11.png
00000009,375,1,1447261277476,1447261277942,943,306,0,0,0,2,1,1,3,0003-00-0000-59.png,0005-00-0000-04.png
00000009,376,0,1447261278807,1447261278867,893,451,0,0,0,1,2,1,3,0005-00-0000-71.png,0003-00-0001-97.png
00000009,377,1,1447261281698,1447261282326,498,248,0,0,0,0,1,1,1,0001-00-0001-05.png,0005-00-0001-93.png
00000009,378,1,1447261283677,1447261284249,934,358,0,0,0,4,1,3,5,0004-00-0000-14.png,0005-00-0001-42.png
00000009,379,0,1447261285107,1447261285135,872,389,0,0,0,0,4,4,4,0001-00-0001-74.png,0004-00-0000-66.png
00000009,380,0,1447261288189,1447261288763,1092,291,0,0,0,0,2,2,2,0001-00-0000-98.png,0003-00-0000-11.png
00000009,381,1,1447261292047,1447261292538,1086,284,0,0,0,1,0,1,1,0005-00-0000-77.png,0001-00-0000-28.png
00000009,382,0,1447261293405,1447261293449,874,436,0,0,0,0,4,4,4,0001-00-0000-28.png,0004-00-0001-10.png
00000009,383,1,1447261296358,1447261296402,873,356,0,0,0,3,1,2,4,0002-00-0000-81.png,0005-00-0000-01.png
00000009,384,1,1447261297421,1447261297497,888,462,0,0,0,2,1,1,3,0003-00-0001-82.png,0005-00-0001-72.png
00000009,385,1,1447261298585,1447261298672,888,436,0,0,0,3,2,1,5,0002-00-0000-38.png,0003-00-0000-86.png
00000009,386,1,1447261299758,1447261299798,862,451,0,0,0,4,2,2,6,0004-00-0001-69.png,0003-00-0001-95.png
00000009,387,0,1447261300978,1447261301014,894,452,0,0,0,2,3,1,5,0003-00-0000-65.png,0002-00-0001-84.png
00000009,388,1,1447261303865,1447261304360,967,409,0,0,0,4,3,1,7,0004-00-0001-87.png,0002-00-0000-40.png
00000009,389,0,1447261305199,1447261305237,878,410,0,0,0,1,4,3,5,0005-00-0001-62.png,0004-00-0000-67.png
00000009,390,1,1447261308143,1447261308653,964,387,0,0,0,4,0,4,4,0004-00-0001-73.png,0001-00-0000-35.png
00000009,391,0,1447261309503,1447261309551,881,417,0,0,0,1,3,2,4,0005-00-0000-83.png,0002-00-0001-77.png
00000009,392,0,1447261312386,1447261312973,416,347,0,0,0,3,0,3,3,0002-00-0001-30.png,0001-00-0000-34.png
00000009,393,0,1447261316304,1447261316400,898,332,0,0,0,2,4,2,6,0003-00-0001-85.png,0004-00-0001-93.png
00000009,394,1,1447261319553,1447261319766,913,322,0,0,0,4,1,3,5,0004-00-0000-34.png,0005-00-0001-47.png
00000009,395,1,1447261320656,1447261320727,871,453,0,0,0,2,0,2,2,0003-00-0001-95.png,0001-00-0001-84.png
00000009,396,1,1447261321710,1447261322522,442,384,0,0,0,0,2,2,2,0001-00-0000-24.png,0003-00-0001-67.png
00000009,397,0,1447261323454,1447261323927,897,551,0,0,0,1,2,1,3,0005-00-0000-72.png,0003-00-0001-14.png
00000009,398,0,1447261327181,1447261327221,919,280,0,0,0,0,3,3,3,0001-00-0001-41.png,0002-00-0000-70.png
00000009,399,0,1447261330343,1447261330371,873,333,0,0,0,3,4,1,7,0002-00-0000-77.png,0004-00-0000-44.png
00000009,400,0,1447261333585,1447261334073,945,308,0,0,0,0,1,1,1,0001-00-0000-96.png,0005-00-0000-67.png
00000009,401,1,1447261337160,1447261337200,878,356,0,0,0,4,1,3,5,0004-00-0000-16.png,0005-00-0001-32.png
00000009,402,0,1447261338096,1447261338787,428,362,0,0,0,2,1,1,3,0003-00-0000-31.png,0005-00-0001-91.png
00000009,403,0,1447261341824,1447261341993,862,421,0,0,0,3,4,1,7,0002-00-0001-47.png,0004-00-0000-68.png
00000009,404,1,1447261345597,1447261346091,483,219,0,0,0,1,4,3,5,0005-00-0000-63.png,0004-00-0000-85.png
00000009,405,1,1447261347048,1447261347720,1058,280,0,0,0,2,0,2,2,0003-00-0001-21.png,0001-00-0001-05.png
00000009,406,0,1447261348630,1447261348670,898,401,0,0,0,1,3,2,4,0005-00-0001-74.png,0002-00-0000-87.png
00000009,407,1,1447261351682,1447261352309,419,374,0,0,0,0,2,2,2,0001-00-0001-23.png,0003-00-0000-30.png
00000009,408,1,1447261353668,1447261354450,1065,315,0,0,0,3,1,2,4,0002-00-0001-19.png,0005-00-0000-27.png
00000009,409,0,1447261355337,1447261355385,882,423,0,0,0,0,4,4,4,0001-00-0000-56.png,0004-00-0000-64.png
00000009,410,1,1447261358476,1447261358492,864,306,0,0,0,4,2,2,6,0004-00-0000-26.png,0003-00-0000-08.png
00000009,411,1,1447261359400,1447261360093,397,362,0,0,0,1,2,1,3,0005-00-0001-09.png,0003-00-0001-11.png
00000009,412,1,1447261361042,1447261361995,921,337,0,0,0,4,3,1,7,0004-00-0001-05.png,0002-00-0000-46.png
00000009,413,1,1447261362986,1447261363014,885,384,0,0,0,3,0,3,3,0002-00-0000-48.png,0001-00-0001-97.png
00000009,414,1,1447261364191,1447261365171,911,336,0,0,0,3,2,1,5,0002-00-0001-20.png,0003-00-0000-98.png
00000009,415,0,1447261366138,1447261366205,889,390,0,0,0,2,3,1,5,0003-00-0001-84.png,0002-00-0001-55.png
00000009,416,0,1447261369357,1447261369987,501,267,0,0,0,1,0,1,1,0005-00-0000-26.png,0001-00-0000-21.png
00000009,417,0,1447261372886,1447261373479,1059,286,0,0,0,0,1,1,1,0001-00-0001-56.png,0005-00-0000-91.png
00000009,418,0,1447261381553,1447261381557,887,470,0,0,0,2,4,2,6,0003-00-0000-50.png,0004-00-0001-83.png
00000009,419,0,1447261384494,1447261384530,862,358,0,0,0,0,3,3,3,0001-00-0000-33.png,0002-00-0000-87.png
00000009,420,1,1447261387504,1447261388019,1063,279,0,0,0,4,0,4,4,0004-00-0000-83.png,0001-00-0000-33.png
00000009,421,1,1447261389402,1447261389954,933,321,0,0,0,4,1,3,5,0004-00-0001-10.png,0005-00-0001-39.png
00000009,422,0,1447261390832,1447261391818,498,227,0,0,0,4,0,4,4,0004-00-0001-78.png,0001-00-0000-41.png
00000009,423,0,1447261394879,1447261395518,495,282,0,0,0,4,2,2,6,0004-00-0000-37.png,0003-00-0000-78.png
00000009,424,0,1447261398351,1447261398399,874,384,0,0,0,2,3,1,5,0003-00-0001-28.png,0002-00-0000-55.png
00000009,425,1,1447261401485,1447261401505,901,305,0,0,0,4,3,1,7,0004-00-0000-60.png,0002-00-0000-34.png
00000009,426,1,1447261402481,1447261402654,888,462,0,0,0,3,2,1,5,0002-00-0000-91.png,0003-00-0000-60.png
00000009,427,1,1447261403732,1447261404515,504,254,0,0,0,0,4,4,4,0001-00-0001-54.png,0004-00-0000-05.png
00000009,428,1,1447261406069,1447261406780,509,257,0,0,0,0,2,2,2,0001-00-0001-76.png,0003-00-0000-96.png
00000009,429,1,1447261407726,1447261407774,872,414,0,0,0,1,0,1,1,0005-00-0000-64.png,0001-00-0000-52.png
00000009,430,0,1447261408969,1447261409025,862,447,0,0,0,1,4,3,5,0005-00-0001-78.png,0004-00-0001-67.png
00000009,431,1,1447261412556,1447261413014,482,239,0,0,0,1,2,1,3,0005-00-0001-91.png,0003-00-0001-00.png
00000009,432,0,1447261413918,1447261413965,862,462,0,0,0,0,3,3,3,0001-00-0000-90.png,0002-00-0001-96.png
00000009,433,1,1447261416850,1447261416865,913,306,0,0,0,2,0,2,2,0003-00-0000-10.png,0001-00-0001-53.png
00000009,434,1,1447261417874,1447261418593,1028,292,0,0,0,2,1,1,3,0003-00-0001-37.png,0005-00-0001-04.png
00000009,435,1,1447261419432,1447261419472,897,404,0,0,0,3,0,3,3,0002-00-0001-52.png,0001-00-0001-44.png
00000009,436,0,1447261420477,1447261421450,931,357,0,0,0,2,4,2,6,0003-00-0001-23.png,0004-00-0001-46.png
00000009,437,1,1447261424997,1447261425460,483,271,0,0,0,3,4,1,7,0002-00-0001-73.png,0004-00-0000-72.png
00000009,438,0,1447261426360,1447261426448,888,398,0,0,0,0,1,1,1,0001-00-0000-04.png,0005-00-0000-04.png
00000009,439,0,1447261429483,1447261429766,1015,309,0,0,0,1,3,2,4,0005-00-0001-08.png,0002-00-0001-51.png
00000009,440,1,1447261432722,1447261433289,1063,299,0,0,0,3,1,2,4,0002-00-0000-79.png,0005-00-0000-21.png
00000009,441,1,1447261434679,1447261435365,470,245,0,0,0,1,3,2,4,0005-00-0001-08.png,0002-00-0001-20.png
00000009,442,1,1447261436249,1447261436289,867,386,0,0,0,4,1,3,5,0004-00-0001-73.png,0005-00-0001-93.png
00000009,443,1,1447261437492,1447261437540,888,450,0,0,0,2,1,1,3,0003-00-0000-01.png,0005-00-0001-86.png
00000009,444,0,1447261438664,1447261439557,1033,258,0,0,0,3,4,1,7,0002-00-0001-15.png,0004-00-0001-76.png
00000009,445,1,1447261442750,1447261443235,1085,272,0,0,0,3,2,1,5,0002-00-0001-61.png,0003-00-0000-04.png
00000009,446,0,1447261444596,1447261444938,943,558,0,0,0,1,2,1,3,0005-00-0000-36.png,0003-00-0000-65.png
00000009,447,1,1447261455511,1447261455979,1015,239,0,0,0,3,1,2,4,0002-00-0000-75.png,0005-00-0000-95.png
00000009,448,1,1447261456876,1447261457527,489,243,0,0,0,0,4,4,4,0001-00-0001-98.png,0004-00-0000-07.png
00000009,449,1,1447261458395,1447261458423,875,393,0,0,0,1,0,1,1,0005-00-0001-44.png,0001-00-0001-85.png
00000009,450,1,1447261459479,1447261459545,881,458,0,0,0,4,3,1,7,0004-00-0000-13.png,0002-00-0000-73.png
00000009,451,0,1447261460641,1447261460689,879,462,0,0,0,0,2,2,2,0001-00-0001-96.png,0003-00-0001-48.png
00000009,452,0,1447261463620,1447261464106,500,265,0,0,0,4,2,2,6,0004-00-0001-63.png,0003-00-0000-38.png
00000009,453,1,1447261467230,1447261467258,893,338,0,0,0,3,0,3,3,0002-00-0001-50.png,0001-00-0001-82.png
00000009,454,1,1447261468185,1447261468788,381,371,0,0,0,0,3,3,3,0001-00-0001-26.png,0002-00-0000-63.png
00000009,455,1,1447261469767,1447261470590,906,316,0,0,0,2,0,2,2,0003-00-0001-45.png,0001-00-0000-80.png
00000009,456,1,1447261471573,1447261471613,871,418,0,0,0,4,0,4,4,0004-00-0001-01.png,0001-00-0001-82.png
00000009,457,1,1447261472655,1447261473477,519,233,0,0,0,2,4,2,6,0003-00-0000-91.png,0004-00-0000-68.png
00000009,458,0,1447261474427,1447261475254,929,334,0,0,0,2,3,1,5,0003-00-0001-37.png,0002-00-0000-59.png
00000009,459,1,1447261479364,1447261479884,376,374,0,0,0,1,4,3,5,0005-00-0000-74.png,0004-00-0001-30.png
00000009,460,0,1447261480805,1447261480861,862,384,0,0,0,0,1,1,1,0001-00-0000-11.png,0005-00-0001-08.png
00000009,461,1,1447261483946,1447261484395,1041,279,0,0,0,3,1,2,4,0002-00-0001-90.png,0005-00-0001-01.png
00000009,462,1,1447261485694,1447261486400,516,240,0,0,0,1,3,2,4,0005-00-0000-30.png,0002-00-0001-22.png
00000009,463,1,1447261487230,1447261487254,858,362,0,0,0,4,2,2,6,0004-00-0001-97.png,0003-00-0000-21.png
00000009,464,0,1447261488278,1447261488366,894,454,0,0,0,0,4,4,4,0001-00-0001-38.png,0004-00-0000-65.png
00000009,465,0,1447261491285,1447261491771,1036,281,0,0,0,0,1,1,1,0001-00-0000-92.png,0005-00-0001-85.png
00000009,466,0,1447261496713,1447261497287,475,245,0,0,0,1,0,1,1,0005-00-0001-60.png,0001-00-0000-02.png
00000009,467,1,1447261500109,1447261500149,882,414,0,0,0,4,0,4,4,0004-00-0000-55.png,0001-00-0001-08.png
00000009,468,1,1447261501036,1447261501124,862,423,0,0,0,4,1,3,5,0004-00-0001-95.png,0005-00-0001-40.png
00000009,469,1,1447261502088,1447261502881,896,339,0,0,0,2,1,1,3,0003-00-0000-49.png,0005-00-0001-35.png
00000009,470,1,1447261503829,1447261505014,521,286,0,0,0,2,4,2,6,0003-00-0001-30.png,0004-00-0000-24.png
00000009,471,1,1447261505996,1447261506016,857,390,0,0,0,2,0,2,2,0003-00-0001-54.png,0001-00-0001-95.png
00000009,472,0,1447261507128,1447261507156,862,462,0,0,0,0,2,2,2,0001-00-0001-24.png,0003-00-0001-16.png
00000009,473,1,1447261510089,1447261510605,1012,288,0,0,0,4,3,1,7,0004-00-0001-58.png,0002-00-0000-50.png
00000009,474,0,1447261511448,1447261511589,913,488,0,0,0,0,3,3,3,0001-00-0000-19.png,0002-00-0001-83.png
00000009,475,1,1447261514638,1447261515182,501,255,0,0,0,1,4,3,5,0005-00-0000-67.png,0004-00-0000-16.png
00000009,476,0,1447261516574,1447261516606,862,384,0,0,0,2,3,1,5,0003-00-0000-02.png,0002-00-0001-04.png
00000009,477,0,1447261519739,1447261519751,863,373,0,0,0,3,4,1,7,0002-00-0001-50.png,0004-00-0000-73.png
00000009,478,0,1447261522840,1447261522856,871,335,0,0,0,1,2,1,3,0005-00-0001-17.png,0003-00-0001-33.png
00000009,479,0,1447261525940,1447261526411,475,265,0,0,0,3,2,1,5,0002-00-0001-37.png,0003-00-0001-62.png
00000009,480,1,1447261531556,1447261532011,1013,257,0,0,0,3,0,3,3,0002-00-0001-61.png,0001-00-0001-47.png
00000009,481,0,1447261533145,1447261533220,862,424,0,0,0,1,2,1,3,0005-00-0001-80.png,0003-00-0001-30.png
00000009,482,0,1447261539909,1447261540356,504,253,0,0,0,3,1,2,4,0002-00-0000-29.png,0005-00-0000-73.png
00000009,483,1,1447261543592,1447261544057,1053,273,0,0,0,2,1,1,3,0003-00-0001-30.png,0005-00-0000-57.png
00000009,484,1,1447261544879,1447261544899,871,378,0,0,0,3,0,3,3,0002-00-0001-79.png,0001-00-0001-94.png
00000009,485,0,1447261545898,1447261545997,872,439,0,0,0,0,4,4,4,0001-00-0000-22.png,0004-00-0001-62.png
00000009,486,1,1447261549266,1447261549779,436,261,0,0,0,0,1,1,1,0001-00-0001-26.png,0005-00-0001-90.png
00000009,487,1,1447261551142,1447261551910,1024,314,0,0,0,3,2,1,5,0002-00-0001-85.png,0003-00-0000-38.png
00000009,488,1,1447261552852,1447261552880,871,404,0,0,0,4,3,1,7,0004-00-0001-45.png,0002-00-0001-19.png
00000009,489,1,1447261553935,1447261554801,498,236,0,0,0,1,3,2,4,0005-00-0001-27.png,0002-00-0001-88.png
00000009,490,1,1447261555703,1447261555755,873,396,0,0,0,4,1,3,5,0004-00-0001-80.png,0005-00-0000-64.png
00000009,491,1,1447261556749,1447261557846,1009,288,0,0,0,4,0,4,4,0004-00-0001-32.png,0001-00-0001-30.png
00000009,492,0,1447261558743,1447261558759,862,370,0,0,0,1,4,3,5,0005-00-0001-09.png,0004-00-0000-70.png
00000009,493,0,1447261561897,1447261562484,503,237,0,0,0,1,0,1,1,0005-00-0000-52.png,0001-00-0001-74.png
00000009,494,0,1447261565590,1447261566138,1090,289,0,0,0,3,4,1,7,0002-00-0001-06.png,0004-00-0001-80.png
00000009,495,1,1447261569101,1447261569558,1064,302,0,0,0,2,0,2,2,0003-00-0001-40.png,0001-00-0001-73.png
00000009,496,1,1447261570930,1447261571544,476,243,0,0,0,2,3,1,5,0003-00-0000-91.png,0002-00-0000-10.png
00000009,497,0,1447261572430,1447261572496,878,442,0,0,0,2,4,2,6,0003-00-0000-79.png,0004-00-0001-15.png
00000009,498,1,1447261575429,1447261575471,872,408,0,0,0,4,2,2,6,0004-00-0001-94.png,0003-00-0001-73.png
00000009,499,1,1447261576470,1447261577074,495,262,0,0,0,0,2,2,2,0001-00-0001-56.png,0003-00-0000-78.png
00000009,500,1,1447261578025,1447261578779,511,245,0,0,0,0,3,3,3,0001-00-0001-96.png,0002-00-0001-43.png
00000009,501,0,1447261579725,1447261579773,882,446,0,0,0,0,4,4,4,0001-00-0000-54.png,0004-00-0001-53.png
00000009,502,0,1447261582881,1447261582925,900,306,0,0,0,0,1,1,1,0001-00-0000-30.png,0005-00-0001-02.png
00000009,503,1,1447261585855,1447261586409,1041,297,0,0,0,4,2,2,6,0004-00-0000-12.png,0003-00-0001-45.png
00000009,504,0,1447261587237,1447261587992,921,312,0,0,0,2,3,1,5,0003-00-0000-55.png,0002-00-0001-97.png
00000009,505,0,1447261591034,1447261591523,478,410,0,0,0,4,3,1,7,0004-00-0000-36.png,0002-00-0001-60.png
00000009,506,1,1447261594461,1447261595014,500,262,0,0,0,1,4,3,5,0005-00-0001-79.png,0004-00-0001-49.png
00000009,507,1,1447261595881,1447261596650,523,244,0,0,0,1,3,2,4,0005-00-0000-25.png,0002-00-0001-71.png
00000009,508,1,1447261597563,1447261597626,870,455,0,0,0,2,0,2,2,0003-00-0001-92.png,0001-00-0000-46.png
00000009,509,1,1447261598746,1447261598794,862,436,0,0,0,1,0,1,1,0005-00-0001-26.png,0001-00-0001-32.png
00000009,510,1,1447261599879,1447261600736,514,257,0,0,0,1,2,1,3,0005-00-0001-53.png,0003-00-0001-65.png
00000009,511,1,1447261601607,1447261601635,874,395,0,0,0,3,2,1,5,0002-00-0000-36.png,0003-00-0001-85.png
00000009,512,0,1447261602748,1447261602776,879,462,0,0,0,2,4,2,6,0003-00-0000-31.png,0004-00-0000-89.png
00000009,513,1,1447261616642,1447261617152,523,274,0,0,0,0,2,2,2,0001-00-0000-36.png,0003-00-0000-39.png
00000009,514,1,1447261618181,1447261618253,862,384,0,0,0,2,1,1,3,0003-00-0001-87.png,0005-00-0000-38.png
00000009,515,1,1447261619198,1447261619234,872,401,0,0,0,4,1,3,5,0004-00-0001-67.png,0005-00-0001-55.png
00000009,516,1,1447261620257,1447261620297,875,442,0,0,0,3,1,2,4,0002-00-0000-59.png,0005-00-0001-26.png
00000009,517,1,1447261621420,1447261621460,869,452,0,0,0,3,0,3,3,0002-00-0000-93.png,0001-00-0000-62.png
00000009,518,0,1447261622468,1447261622492,862,450,0,0,0,3,4,1,7,0002-00-0001-24.png,0004-00-0000-30.png
00000009,519,0,1447261625607,1447261626102,990,399,0,0,0,0,3,3,3,0001-00-0001-75.png,0002-00-0001-12.png
00000009,520,1,1447261629046,1447261629477,941,319,0,0,0,4,0,4,4,0004-00-0000-61.png,0001-00-0000-80.png
00000009,521,0,1447261630319,1447261630383,884,452,0,0,0,0,2,2,2,0001-00-0001-81.png,0003-00-0000-98.png
00000009,522,1,1447261633495,1447261634033,1080,299,0,0,0,2,0,2,2,0003-00-0000-93.png,0001-00-0000-88.png
00000009,523,1,1447261634887,1447261635025,890,489,0,0,0,2,1,1,3,0003-00-0000-95.png,0005-00-0001-48.png
00000009,524,1,1447261635911,1447261636687,429,360,0,0,0,3,4,1,7,0002-00-0001-76.png,0004-00-0001-99.png
00000009,525,1,1447261637650,1447261638701,941,344,0,0,0,4,3,1,7,0004-00-0000-42.png,0002-00-0001-60.png
00000009,526,1,1447261639685,1447261640445,516,228,0,0,0,2,4,2,6,0003-00-0000-31.png,0004-00-0001-24.png
00000009,527,0,1447261641387,1447261642397,432,331,0,0,0,3,2,1,5,0002-00-0001-74.png,0003-00-0000-08.png
00000009,528,1,1447261645282,1447261645819,499,251,0,0,0,1,4,3,5,0005-00-0001-58.png,0004-00-0000-69.png
00000009,529,0,1447261647299,1447261647570,939,514,0,0,0,0,4,4,4,0001-00-0001-11.png,0004-00-0000-87.png
00000009,530,1,1447261651998,1447261652755,481,272,0,0,0,2,3,1,5,0003-00-0000-88.png,0002-00-0001-48.png
00000009,531,1,1447261653715,1447261654333,416,378,0,0,0,0,3,3,3,0001-00-0001-64.png,0002-00-0001-74.png
00000009,532,1,1447261655208,1447261656073,912,331,0,0,0,4,1,3,5,0004-00-0001-92.png,0005-00-0001-19.png
00000009,533,1,1447261656977,1447261657028,907,392,0,0,0,4,2,2,6,0004-00-0001-24.png,0003-00-0000-55.png
00000009,534,0,1447261658172,1447261658220,875,460,0,0,0,1,3,2,4,0005-00-0001-38.png,0002-00-0001-74.png
00000009,535,0,1447261661082,1447261661648,505,277,0,0,0,3,0,3,3,0002-00-0001-10.png,0001-00-0000-16.png
00000009,536,1,1447261666119,1447261666590,1038,245,0,0,0,4,0,4,4,0004-00-0000-65.png,0001-00-0001-02.png
00000009,537,1,1447261667568,1447261668315,1034,272,0,0,0,3,1,2,4,0002-00-0000-95.png,0005-00-0001-77.png
00000009,538,0,1447261669139,1447261669155,939,358,0,0,0,1,2,1,3,0005-00-0001-84.png,0003-00-0001-99.png
00000009,539,0,1447261672387,1447261672849,512,258,0,0,0,1,0,1,1,0005-00-0001-15.png,0001-00-0001-41.png
00000009,540,1,1447261676036,1447261676523,498,239,0,0,0,0,1,1,1,0001-00-0001-26.png,0005-00-0000-87.png
00000009,541,1,1447261677364,1447261677404,863,410,0,0,0,1,0,1,1,0005-00-0000-17.png,0001-00-0000-90.png
00000009,542,1,1447261678368,1447261678406,862,436,0,0,0,4,0,4,4,0004-00-0000-87.png,0001-00-0000-11.png
00000009,543,1,1447261679524,1447261679560,862,398,0,0,0,4,1,3,5,0004-00-0001-86.png,0005-00-0000-49.png
00000009,544,0,1447261680717,1447261680806,905,496,0,0,0,0,1,1,1,0001-00-0001-37.png,0005-00-0000-46.png
00000009,545,1,1447261683941,1447261683957,900,332,0,0,0,3,2,1,5,0002-00-0000-30.png,0003-00-0001-94.png
00000009,546,0,1447261684880,1447261684920,862,410,0,0,0,2,4,2,6,0003-00-0001-41.png,0004-00-0001-24.png
00000009,547,0,1447261688036,1447261688580,1063,264,0,0,0,3,4,1,7,0002-00-0000-70.png,0004-00-0001-25.png
00000009,548,1,1447261699760,1447261700235,453,267,0,0,0,0,2,2,2,0001-00-0001-28.png,0003-00-0000-45.png
00000009,549,0,1447261701231,1447261702137,1002,290,0,0,0,2,3,1,5,0003-00-0000-53.png,0002-00-0000-85.png
00000009,550,0,1447261705168,1447261705635,418,352,0,0,0,4,3,1,7,0004-00-0000-63.png,0002-00-0000-85.png
00000009,551,1,1447261708744,1447261708764,888,332,0,0,0,3,1,2,4,0002-00-0000-89.png,0005-00-0001-53.png
00000009,552,1,1447261709677,1447261709760,888,462,0,0,0,4,2,2,6,0004-00-0001-21.png,0003-00-0001-19.png
00000009,553,1,1447261710763,1447261710837,872,436,0,0,0,2,1,1,3,0003-00-0001-11.png,0005-00-0000-73.png
00000009,554,1,1447261711946,1447261712719,501,248,0,0,0,0,3,3,3,0001-00-0001-00.png,0002-00-0001-71.png
00000009,555,0,1447261713542,1447261713594,877,436,0,0,0,0,4,4,4,0001-00-0000-27.png,0004-00-0001-52.png
00000009,556,1,1447261716752,1447261717239,964,398,0,0,0,2,0,2,2,0003-00-0000-73.png,0001-00-0001-17.png
00000009,557,0,1447261718147,1447261718185,871,480,0,0,0,1,2,1,3,0005-00-0000-64.png,0003-00-0001-76.png
00000009,558,1,1447261721719,1447261722242,510,264,0,0,0,1,4,3,5,0005-00-0000-20.png,0004-00-0001-51.png
00000009,559,0,1447261723072,1447261723133,873,410,0,0,0,1,3,2,4,0005-00-0000-18.png,0002-00-0000-67.png
00000009,560,1,1447261726265,1447261726285,888,332,0,0,0,3,0,3,3,0002-00-0001-87.png,0001-00-0001-76.png
00000009,561,1,1447261727197,1447261727258,869,454,0,0,0,4,0,4,4,0004-00-0000-99.png,0001-00-0001-20.png
00000009,562,1,1447261728258,1447261728325,888,436,0,0,0,2,1,1,3,0003-00-0000-80.png,0005-00-0001-93.png
00000009,563,1,1447261729375,1447261730123,521,245,0,0,0,0,4,4,4,0001-00-0001-44.png,0004-00-0001-70.png
00000009,564,1,1447261731053,1447261732037,488,264,0,0,0,3,4,1,7,0002-00-0001-87.png,0004-00-0000-06.png
00000009,565,1,1447261732982,1447261733002,865,406,0,0,0,3,0,3,3,0002-00-0000-80.png,0001-00-0001-72.png
00000009,566,0,1447261734105,1447261734174,879,462,0,0,0,0,1,1,1,0001-00-0000-53.png,0005-00-0001-69.png
00000009,567,1,1447261737473,1447261737958,924,334,0,0,0,3,1,2,4,0002-00-0001-45.png,0005-00-0000-66.png
00000009,568,0,1447261738826,1447261738890,888,436,0,0,0,1,3,2,4,0005-00-0000-01.png,0002-00-0000-58.png
00000009,569,1,1447261742094,1447261742589,500,274,0,0,0,0,3,3,3,0001-00-0000-77.png,0002-00-0001-56.png
00000009,570,1,1447261743998,1447261744563,922,339,0,0,0,1,0,1,1,0005-00-0000-43.png,0001-00-0001-39.png
00000009,571,1,1447261746048,1447261746155,888,488,0,0,0,4,2,2,6,0004-00-0000-39.png,0003-00-0001-02.png
00000009,572,1,1447261747362,1447261748106,873,336,0,0,0,4,3,1,7,0004-00-0000-26.png,0002-00-0001-62.png
00000009,573,1,1447261749073,1447261749898,1062,283,0,0,0,4,1,3,5,0004-00-0001-57.png,0005-00-0000-32.png
00000009,574,1,1447261750840,1447261750868,898,418,0,0,0,3,2,1,5,0002-00-0001-71.png,0003-00-0000-04.png
00000009,575,1,1447261752063,1447261752103,870,462,0,0,0,2,0,2,2,0003-00-0001-91.png,0001-00-0000-33.png
00000009,576,0,1447261753230,1447261753274,888,451,0,0,0,1,4,3,5,0005-00-0001-57.png,0004-00-0001-37.png
00000009,577,0,1447261756361,1447261756377,862,347,0,0,0,1,2,1,3,0005-00-0000-49.png,0003-00-0000-14.png
00000009,578,0,1447261759462,1447261759536,864,302,0,0,0,2,3,1,5,0003-00-0000-30.png,0002-00-0001-95.png
00000009,579,0,1447261762518,1447261762538,863,378,0,0,0,2,4,2,6,0003-00-0000-63.png,0004-00-0001-91.png
00000009,580,0,1447261765545,1447261765597,860,392,0,0,0,0,2,2,2,0001-00-0000-81.png,0003-00-0001-92.png
00000009,581,1,1447261768794,1447261769300,1090,283,0,0,0,2,1,1,3,0003-00-0000-26.png,0005-00-0001-85.png
00000009,582,1,1447261770146,1447261770166,898,409,0,0,0,3,0,3,3,0002-00-0001-04.png,0001-00-0001-03.png
00000009,583,0,1447261771191,1447261771239,873,454,0,0,0,0,3,3,3,0001-00-0000-58.png,0002-00-0000-09.png
00000009,584,1,1447261774313,1447261774770,1069,275,0,0,0,4,3,1,7,0004-00-0001-91.png,0002-00-0000-40.png
00000009,585,1,1447261775610,1447261775698,894,454,0,0,0,2,0,2,2,0003-00-0001-75.png,0001-00-0001-22.png
00000009,586,1,1447261776681,1447261777544,452,276,0,0,0,0,2,2,2,0001-00-0001-31.png,0003-00-0001-58.png
00000009,587,0,1447261778406,1447261778443,861,387,0,0,0,1,3,2,4,0005-00-0001-88.png,0002-00-0001-00.png
00000009,588,0,1447261781296,1447261781846,507,277,0,0,0,3,1,2,4,0002-00-0000-16.png,0005-00-0001-69.png
00000009,589,1,1447261786316,1447261786816,510,280,0,0,0,1,2,1,3,0005-00-0000-54.png,0003-00-0001-61.png
00000009,590,1,1447261787775,1447261788542,1014,291,0,0,0,4,1,3,5,0004-00-0001-15.png,0005-00-0000-60.png
00000009,591,0,1447261789408,1447261789425,917,394,0,0,0,0,1,1,1,0001-00-0000-83.png,0005-00-0000-93.png
00000009,592,1,1447261792548,1447261793038,1059,251,0,0,0,4,0,4,4,0004-00-0001-77.png,0001-00-0001-74.png
00000009,593,0,1447261793864,1447261793876,868,424,0,0,0,2,4,2,6,0003-00-0000-44.png,0004-00-0001-81.png
00000009,594,1,1447261797038,1447261797132,904,280,0,0,0,3,2,1,5,0002-00-0001-65.png,0003-00-0001-73.png
00000009,595,1,1447261798081,1447261798129,888,462,0,0,0,1,0,1,1,0005-00-0000-23.png,0001-00-0000-01.png
00000009,596,0,1447261799207,1447261799274,905,462,0,0,0,2,3,1,5,0003-00-0000-97.png,0002-00-0000-62.png
00000009,597,1,1447261802134,1447261802681,485,272,0,0,0,0,4,4,4,0001-00-0001-16.png,0004-00-0001-82.png
00000009,598,1,1447261804023,1447261804667,480,266,0,0,0,1,4,3,5,0005-00-0001-16.png,0004-00-0001-71.png
00000009,599,1,1447261805501,1447261805582,879,417,0,0,0,4,2,2,6,0004-00-0000-58.png,0003-00-0000-28.png
00000009,600,0,1447261806759,1447261806857,888,514,0,0,0,3,4,1,7,0002-00-0001-53.png,0004-00-0001-30.png
00000009,601,0,1447261810093,1447261810286,871,418,0,0,0,2,4,2,6,0003-00-0001-77.png,0004-00-0001-73.png
00000009,602,1,1447261813159,1447261813192,862,349,0,0,0,2,1,1,3,0003-00-0001-62.png,0005-00-0000-93.png
00000009,603,1,1447261814201,1447261814272,922,462,0,0,0,3,0,3,3,0002-00-0000-10.png,0001-00-0001-69.png
00000009,604,0,1447261815244,1447261815359,883,488,0,0,0,1,2,1,3,0005-00-0000-27.png,0003-00-0001-10.png
00000009,605,1,1447261818474,1447261818498,907,330,0,0,0,4,3,1,7,0004-00-0000-03.png,0002-00-0001-27.png
00000009,606,0,1447261819464,1447261819517,880,392,0,0,0,2,3,1,5,0003-00-0001-16.png,0002-00-0000-50.png
00000009,607,1,1447261822676,1447261823195,940,338,0,0,0,4,0,4,4,0004-00-0001-01.png,0001-00-0000-00.png
00000009,608,1,1447261824545,1447261824905,936,545,0,0,0,1,0,1,1,0005-00-0000-39.png,0001-00-0000-46.png
00000009,609,0,1447261825905,1447261825950,862,462,0,0,0,0,1,1,1,0001-00-0000-77.png,0005-00-0001-32.png
00000009,610,1,1447261828936,1447261828972,883,385,0,0,0,4,1,3,5,0004-00-0000-03.png,0005-00-0001-90.png
00000009,611,0,1447261829899,1447261830014,879,462,0,0,0,0,4,4,4,0001-00-0001-74.png,0004-00-0001-07.png
00000009,612,1,1447261840353,1447261840879,434,241,0,0,0,3,4,1,7,0002-00-0000-41.png,0004-00-0001-22.png
00000009,613,0,1447261842172,1447261842220,862,358,0,0,0,1,4,3,5,0005-00-0000-68.png,0004-00-0001-02.png
00000009,614,1,1447261845880,1447261846332,1027,226,0,0,0,4,2,2,6,0004-00-0000-55.png,0003-00-0000-34.png
00000009,615,0,1447261847164,1447261847208,860,411,0,0,0,0,2,2,2,0001-00-0000-79.png,0003-00-0000-40.png
00000009,616,1,1447261850330,1447261850355,874,332,0,0,0,3,2,1,5,0002-00-0001-71.png,0003-00-0001-60.png
00000009,617,1,1447261851656,1447261852218,473,284,0,0,0,0,3,3,3,0001-00-0001-49.png,0002-00-0001-96.png
00000009,618,0,1447261853679,1447261854484,1021,279,0,0,0,1,3,2,4,0005-00-0001-51.png,0002-00-0000-29.png
00000009,619,1,1447261857530,1447261858051,1041,279,0,0,0,3,1,2,4,0002-00-0001-74.png,0005-00-0001-83.png
00000009,620,0,1447261859434,1447261860044,401,378,0,0,0,2,0,2,2,0003-00-0000-31.png,0001-00-0001-15.png
00000009,621,1,1447261863205,1447261863520,973,337,0,0,0,4,0,4,4,0004-00-0000-54.png,0001-00-0001-88.png
00000009,622,1,1447261864460,1447261864511,869,454,0,0,0,1,0,1,1,0005-00-0001-91.png,0001-00-0001-75.png
00000009,623,0,1447261865461,1447261866394,1049,318,0,0,0,0,2,2,2,0001-00-0001-34.png,0003-00-0001-49.png
00000009,624,1,1447261869248,1447261869765,1056,288,0,0,0,2,1,1,3,0003-00-0000-70.png,0005-00-0001-41.png
00000009,625,0,1447261871109,1447261871205,891,440,0,0,0,1,4,3,5,0005-00-0000-19.png,0004-00-0000-45.png
00000009,626,0,1447261874360,1447261874649,924,349,0,0,0,2,4,2,6,0003-00-0001-21.png,0004-00-0000-63.png
00000009,627,1,1447261877534,1447261878216,1045,270,0,0,0,3,2,1,5,0002-00-0000-80.png,0003-00-0001-21.png
00000009,628,1,1447261879069,1447261879112,913,436,0,0,0,2,0,2,2,0003-00-0000-65.png,0001-00-0000-96.png
00000009,629,1,1447261880091,1447261881165,513,231,0,0,0,0,4,4,4,0001-00-0001-85.png,0004-00-0000-37.png
00000009,630,1,1447261882072,1447261882100,895,400,0,0,0,4,2,2,6,0004-00-0001-83.png,0003-00-0000-53.png
00000009,631,0,1447261883393,1447261883441,913,436,0,0,0,1,2,1,3,0005-00-0000-14.png,0003-00-0001-49.png
00000009,632,0,1447261886731,1447261887223,482,276,0,0,0,3,0,3,3,0002-00-0001-93.png,0001-00-0001-69.png
00000009,633,0,1447261892238,1447261892334,937,332,0,0,0,0,3,3,3,0001-00-0000-54.png,0002-00-0000-57.png
00000009,634,0,1447261895487,1447261895788,960,321,0,0,0,3,4,1,7,0002-00-0001-34.png,0004-00-0001-24.png
00000009,635,1,1447261898974,1447261899021,870,345,0,0,0,3,1,2,4,0002-00-0001-51.png,0005-00-0001-07.png
00000009,636,0,1447261899965,1447261900029,888,395,0,0,0,2,3,1,5,0003-00-0001-41.png,0002-00-0000-10.png
00000009,637,0,1447261903109,1447261903590,939,297,0,0,0,0,1,1,1,0001-00-0000-75.png,0005-00-0000-45.png
00000009,638,1,1447261906656,1447261906684,877,323,0,0,0,4,3,1,7,0004-00-0000-27.png,0002-00-0001-68.png
00000009,639,1,1447261907581,1447261908283,915,312,0,0,0,4,1,3,5,0004-00-0001-25.png,0005-00-0001-86.png
00000009,640,0,1447261909209,1447261909269,867,396,0,0,0,1,3,2,4,0005-00-0000-10.png,0002-00-0000-43.png
00000009,641,1,1447261912447,1447261912996,483,266,0,0,0,1,4,3,5,0005-00-0001-71.png,0004-00-0000-58.png
00000009,642,1,1447261914373,1447261915010,479,245,0,0,0,1,3,2,4,0005-00-0001-77.png,0002-00-0000-67.png
00000009,643,1,1447261915861,1447261917020,1031,284,0,0,0,4,2,2,6,0004-00-0001-51.png,0003-00-0001-50.png
00000009,644,1,1447261918011,1447261918864,949,311,0,0,0,2,0,2,2,0003-00-0001-76.png,0001-00-0001-48.png
00000009,645,1,1447261919793,1447261919836,913,436,0,0,0,3,2,1,5,0002-00-0000-10.png,0003-00-0001-32.png
00000009,646,0,1447261921006,1447261921054,888,436,0,0,0,0,4,4,4,0001-00-0000-51.png,0004-00-0000-22.png
00000009,647,1,1447261923897,1447261924384,908,323,0,0,0,4,1,3,5,0004-00-0000-58.png,0005-00-0000-47.png
00000009,648,0,1447261925225,1447261925278,878,436,0,0,0,0,1,1,1,0001-00-0000-54.png,0005-00-0000-30.png
00000009,649,1,1447261928437,1447261928881,946,327,0,0,0,3,1,2,4,0002-00-0001-68.png,0005-00-0001-12.png
00000009,650,0,1447261929720,1447261929756,882,421,0,0,0,3,4,1,7,0002-00-0000-46.png,0004-00-0001-09.png
00000009,651,0,1447261932878,1447261933471,506,235,0,0,0,4,3,1,7,0004-00-0001-27.png,0002-00-0000-17.png
00000009,652,1,1447261936604,1447261937077,1086,273,0,0,0,2,1,1,3,0003-00-0000-57.png,0005-00-0000-49.png
00000009,653,0,1447261938374,1447261938544,913,462,0,0,0,2,4,2,6,0003-00-0000-84.png,0004-00-0000-53.png
00000009,654,1,1447261941453,1447261941481,874,306,0,0,0,1,0,1,1,0005-00-0000-62.png,0001-00-0000-13.png
00000009,655,1,1447261942637,1447261943283,474,350,0,0,0,1,2,1,3,0005-00-0000-07.png,0003-00-0001-21.png
00000009,656,0,1447261944136,1447261944203,862,411,0,0,0,0,2,2,2,0001-00-0001-44.png,0003-00-0001-57.png
00000009,657,1,1447261947085,1447261947706,491,239,0,0,0,0,3,3,3,0001-00-0000-52.png,0002-00-0000-82.png
00000009,658,1,1447261948545,1447261949876,503,268,0,0,0,2,3,1,5,0003-00-0000-75.png,0002-00-0000-07.png
00000009,659,1,1447261950754,1447261951537,914,279,0,0,0,3,0,3,3,0002-00-0001-25.png,0001-00-0001-59.png
00000009,660,1,1447261952493,1447261953489,922,347,0,0,0,4,0,4,4,0004-00-0000-30.png,0001-00-0000-78.png
00000009,661,1,1447261954401,1447261954413,917,443,0,0,0,2,1,1,3,0003-00-0000-11.png,0005-00-0000-14.png
00000009,662,0,1447261955526,1447261955571,898,462,0,0,0,0,4,4,4,0001-00-0001-35.png,0004-00-0000-12.png
00000009,663,1,1447261958665,1447261958697,914,306,0,0,0,1,0,1,1,0005-00-0001-66.png,0001-00-0000-35.png
00000009,664,0,1447261959561,1447261959598,879,410,0,0,0,0,2,2,2,0001-00-0000-62.png,0003-00-0000-79.png
00000009,665,1,1447261962590,1447261963094,513,269,0,0,0,1,4,3,5,0005-00-0001-54.png,0004-00-0001-60.png
00000009,666,1,1447261963950,1447261963990,899,427,0,0,0,3,0,3,3,0002-00-0000-77.png,0001-00-0000-60.png
00000009,667,0,1447261964991,1447261965033,874,410,0,0,0,2,4,2,6,0003-00-0000-02.png,0004-00-0000-17.png
00000009,668,0,1447261968065,1447261968573,1047,298,0,0,0,1,3,2,4,0005-00-0001-99.png,0002-00-0001-32.png
00000009,669,0,1447261971737,1447261972311,1045,274,0,0,0,2,3,1,5,0003-00-0000-56.png,0002-00-0000-21.png
00000009,670,1,1447261975508,1447261976056,937,313,0,0,0,4,2,2,6,0004-00-0001-29.png,0003-00-0000-85.png
00000009,671,1,1447261976951,1447261976979,858,411,0,0,0,4,1,3,5,0004-00-0001-35.png,0005-00-0001-22.png
00000009,672,1,1447261978030,1447261978062,862,375,0,0,0,3,1,2,4,0002-00-0001-94.png,0005-00-0001-02.png
00000009,673,1,1447261979186,1447261979281,876,462,0,0,0,4,3,1,7,0004-00-0001-91.png,0002-00-0000-76.png
00000009,674,1,1447261980479,1447261980527,882,445,0,0,0,4,0,4,4,0004-00-0000-60.png,0001-00-0000-22.png
00000009,675,0,1447261981646,1447261981698,878,443,0,0,0,0,1,1,1,0001-00-0001-29.png,0005-00-0001-77.png
00000009,676,1,1447261984553,1447261985100,478,374,0,0,0,3,4,1,7,0002-00-0001-72.png,0004-00-0000-79.png
00000009,677,1,1447261985982,1447261986799,932,333,0,0,0,3,2,1,5,0002-00-0001-90.png,0003-00-0000-72.png
00000009,678,0,1447261987692,1447261987731,862,384,0,0,0,1,2,1,3,0005-00-0001-69.png,0003-00-0001-21.png
00000009,679,1,1447261990826,1447261991345,489,243,0,0,0,0,3,3,3,0001-00-0000-69.png,0002-00-0001-45.png
00000009,680,1,1447261992721,1447261993341,1028,315,0,0,0,2,0,2,2,0003-00-0001-52.png,0001-00-0000-48.png
00000009,681,0,1447261994219,1447261994251,894,368,0,0,0,3,4,1,7,0002-00-0000-19.png,0004-00-0001-25.png
00000009,682,1,1447262010703,1447262011151,896,333,0,0,0,3,1,2,4,0002-00-0001-96.png,0005-00-0001-63.png
00000009,683,0,1447262012097,1447262012799,894,340,0,0,0,2,3,1,5,0003-00-0001-48.png,0002-00-0000-26.png
00000009,684,0,1447262015885,1447262016400,444,431,0,0,0,1,0,1,1,0005-00-0001-60.png,0001-00-0000-32.png
00000009,685,1,1447262019499,1447262019975,470,275,0,0,0,0,4,4,4,0001-00-0001-05.png,0004-00-0001-00.png
00000009,686,1,1447262021308,1447262021976,931,330,0,0,0,2,1,1,3,0003-00-0000-17.png,0005-00-0000-53.png
00000009,687,0,1447262022837,1447262022880,873,384,0,0,0,0,2,2,2,0001-00-0001-75.png,0003-00-0001-31.png
00000009,688,0,1447262026012,1447262026475,1053,279,0,0,0,2,4,2,6,0003-00-0000-82.png,0004-00-0000-07.png
00000009,689,1,1447262029606,1447262030119,1026,276,0,0,0,4,0,4,4,0004-00-0001-62.png,0001-00-0001-97.png
00000009,690,0,1447262031357,1447262032405,489,252,0,0,0,3,0,3,3,0002-00-0000-88.png,0001-00-0001-50.png
00000009,691,0,1447262035390,1447262035438,862,384,0,0,0,1,4,3,5,0005-00-0001-43.png,0004-00-0000-49.png
00000009,692,0,1447262038520,1447262038550,861,325,0,0,0,0,1,1,1,0001-00-0001-95.png,0005-00-0000-21.png
00000009,693,1,1447262041644,1447262042141,501,247,0,0,0,1,2,1,3,0005-00-0000-85.png,0003-00-0001-24.png
00000009,694,1,1447262043122,1447262044198,1013,302,0,0,0,4,3,1,7,0004-00-0001-86.png,0002-00-0001-99.png
00000009,695,0,1447262045099,1447262045147,891,360,0,0,0,0,3,3,3,0001-00-0001-61.png,0002-00-0001-93.png
00000009,696,1,1447262048001,1447262048041,862,358,0,0,0,4,1,3,5,0004-00-0000-20.png,0005-00-0000-72.png
00000009,697,1,1447262049007,1447262049035,888,410,0,0,0,3,2,1,5,0002-00-0001-00.png,0003-00-0000-10.png
00000009,698,0,1447262049960,1447262050928,915,339,0,0,0,1,3,2,4,0005-00-0001-35.png,0002-00-0000-72.png
00000009,699,1,1447262053975,1447262054535,1065,273,0,0,0,4,2,2,6,0004-00-0000-45.png,0003-00-0000-66.png
00000009,700,1,1447262055352,1447262055416,862,436,0,0,0,2,0,2,2,0003-00-0000-37.png,0001-00-0000-81.png
00000009,701,1,1447262056379,1447262057312,1013,323,0,0,0,3,1,2,4,0002-00-0001-18.png,0005-00-0000-30.png
00000009,702,1,1447262058376,1447262058447,888,462,0,0,0,4,2,2,6,0004-00-0000-22.png,0003-00-0000-38.png
00000009,703,0,1447262059610,1447262059656,867,440,0,0,0,0,2,2,2,0001-00-0000-40.png,0003-00-0001-50.png
00000009,704,1,1447262062819,1447262063313,1068,263,0,0,0,4,3,1,7,0004-00-0000-27.png,0002-00-0000-22.png
00000009,705,0,1447262064696,1447262064814,867,488,0,0,0,1,2,1,3,0005-00-0000-70.png,0003-00-0001-82.png
00000009,706,0,1447262067717,1447262068233,1037,288,0,0,0,2,3,1,5,0003-00-0000-69.png,0002-00-0001-52.png
00000009,707,1,1447262071277,1447262071285,512,460,0,0,0,1,3,2,4,0005-00-0001-05.png,0002-00-0001-85.png
00000009,708,0,1447262072349,1447262072413,879,391,0,0,0,2,4,2,6,0003-00-0001-10.png,0004-00-0000-80.png
00000009,709,1,1447262075569,1447262075597,934,305,0,0,0,4,1,3,5,0004-00-0001-91.png,0005-00-0000-14.png
00000009,710,1,1447262076523,1447262076675,888,462,0,0,0,2,1,1,3,0003-00-0000-22.png,0005-00-0000-31.png
00000009,711,0,1447262077594,1447262077689,888,410,0,0,0,0,1,1,1,0001-00-0000-12.png,0005-00-0000-82.png
00000009,712,0,1447262080536,1447262081052,485,240,0,0,0,3,2,1,5,0002-00-0000-15.png,0003-00-0000-97.png
00000009,713,0,1447262084052,1447262084060,867,360,0,0,0,0,4,4,4,0001-00-0000-53.png,0004-00-0001-62.png
00000009,714,1,1447262087105,1447262087156,964,353,0,0,0,1,0,1,1,0005-00-0001-68.png,0001-00-0001-88.png
00000009,715,0,1447262088037,1447262088121,859,437,0,0,0,3,4,1,7,0002-00-0001-81.png,0004-00-0000-83.png
00000009,716,0,1447262091267,1447262091283,920,293,0,0,0,0,3,3,3,0001-00-0000-60.png,0002-00-0000-65.png
00000009,717,1,1447262094158,1447262094653,1070,282,0,0,0,2,0,2,2,0003-00-0000-15.png,0001-00-0001-51.png
00000009,718,0,1447262095976,1447262096636,515,251,0,0,0,4,0,4,4,0004-00-0000-10.png,0001-00-0001-97.png
00000009,719,0,1447262099716,1447262100217,1075,271,0,0,0,1,4,3,5,0005-00-0000-57.png,0004-00-0001-41.png
00000009,720,1,1447262105073,1447262105532,915,323,0,0,0,3,0,3,3,0002-00-0000-85.png,0001-00-0000-63.png
00000009,721,0,1447262106513,1447262107235,466,358,0,0,0,4,1,3,5,0004-00-0001-92.png,0005-00-0001-64.png
00000009,722,1,1447262110119,1447262110585,1052,250,0,0,0,1,0,1,1,0005-00-0000-65.png,0001-00-0001-39.png
00000009,723,0,1447262111447,1447262111510,888,451,0,0,0,0,2,2,2,0001-00-0001-52.png,0003-00-0001-84.png
00000009,724,1,1447262114542,1447262114558,889,404,0,0,0,2,1,1,3,0003-00-0000-65.png,0005-00-0001-80.png
00000009,725,0,1447262115500,1447262115576,893,453,0,0,0,2,4,2,6,0003-00-0000-47.png,0004-00-0001-57.png
00000009,726,1,1447262119015,1447262119678,1057,297,0,0,0,4,2,2,6,0004-00-0001-18.png,0003-00-0001-30.png
00000009,727,0,1447262120512,1447262120654,897,475,0,0,0,3,4,1,7,0002-00-0001-64.png,0004-00-0001-01.png
00000009,728,1,1447262123722,1447262124200,942,309,0,0,0,4,3,1,7,0004-00-0000-31.png,0002-00-0001-77.png
00000009,729,1,1447262125023,1447262125106,888,436,0,0,0,2,0,2,2,0003-00-0000-49.png,0001-00-0001-57.png
00000009,730,1,1447262126020,1447262126801,497,236,0,0,0,1,3,2,4,0005-00-0000-64.png,0002-00-0001-13.png
00000009,731,0,1447262128204,1447262128424,912,470,0,0,0,1,4,3,5,0005-00-0000-43.png,0004-00-0001-42.png
00000009,732,1,1447262131612,1447262132089,1045,258,0,0,0,4,0,4,4,0004-00-0000-94.png,0001-00-0000-23.png
00000009,733,1,1447262132955,1447262133073,903,462,0,0,0,3,0,3,3,0002-00-0000-59.png,0001-00-0000-53.png
00000009,734,0,1447262134098,1447262134170,870,429,0,0,0,1,2,1,3,0005-00-0001-83.png,0003-00-0000-88.png
00000009,735,0,1447262137387,1447262137924,1046,264,0,0,0,0,3,3,3,0001-00-0001-75.png,0002-00-0001-70.png
00000009,736,0,1447262140943,1447262141003,881,354,0,0,0,0,1,1,1,0001-00-0001-93.png,0005-00-0001-80.png
00000009,737,0,1447262144133,1447262144161,900,332,0,0,0,2,3,1,5,0003-00-0001-91.png,0002-00-0001-63.png
00000009,738,1,1447262148527,1447262149141,903,358,0,0,0,3,1,2,4,0002-00-0000-71.png,0005-00-0001-62.png
00000009,739,0,1447262150134,1447262151179,404,378,0,0,0,3,2,1,5,0002-00-0001-89.png,0003-00-0001-63.png
00000009,740,1,1447262166167,1447262166668,488,280,0,0,0,0,4,4,4,0001-00-0001-38.png,0004-00-0000-17.png
00000009,741,1,1447262167668,1447262168430,399,345,0,0,0,0,4,4,4,0001-00-0001-46.png,0004-00-0001-44.png
00000009,742,1,1447262169328,1447262170105,899,331,0,0,0,4,2,2,6,0004-00-0001-09.png,0003-00-0001-07.png
00000009,743,0,1447262171079,1447262171144,877,436,0,0,0,2,3,1,5,0003-00-0000-27.png,0002-00-0001-93.png
00000009,744,1,1447262174195,1447262174652,490,240,0,0,0,1,2,1,3,0005-00-0001-77.png,0003-00-0000-22.png
00000009,745,1,1447262175488,1447262176314,498,239,0,0,0,0,1,1,1,0001-00-0000-43.png,0005-00-0001-97.png
00000009,746,1,1447262177178,1447262178040,909,361,0,0,0,4,0,4,4,0004-00-0001-85.png,0001-00-0001-67.png
00000009,747,1,1447262178896,1447262178924,896,380,0,0,0,4,3,1,7,0004-00-0001-04.png,0002-00-0000-82.png
00000009,748,0,1447262180102,1447262180145,862,449,0,0,0,3,4,1,7,0002-00-0001-82.png,0004-00-0001-60.png
00000009,749,1,1447262183109,1447262183589,1047,296,0,0,0,2,1,1,3,0003-00-0000-80.png,0005-00-0001-66.png
00000009,750,1,1447262184882,1447262185462,889,357,0,0,0,2,0,2,2,0003-00-0001-32.png,0001-00-0000-89.png
00000009,751,0,1447262186310,1447262187110,915,315,0,0,0,1,3,2,4,0005-00-0000-61.png,0002-00-0000-19.png
00000009,752,0,1447262190037,1447262190576,916,330,0,0,0,0,2,2,2,0001-00-0001-68.png,0003-00-0000-11.png
00000009,753,0,1447262193415,1447262193461,941,390,0,0,0,2,4,2,6,0003-00-0001-63.png,0004-00-0001-28.png
00000009,754,1,1447262196289,1447262196751,938,336,0,0,0,1,0,1,1,0005-00-0000-37.png,0001-00-0001-64.png
00000009,755,1,1447262197632,1447262197668,896,456,0,0,0,4,1,3,5,0004-00-0000-11.png,0005-00-0000-92.png
00000009,756,1,1447262198676,1447262198704,865,436,0,0,0,3,0,3,3,0002-00-0000-95.png,0001-00-0001-64.png
00000009,757,0,1447262199840,1447262199898,896,488,0,0,0,0,3,3,3,0001-00-0001-78.png,0002-00-0001-82.png
00000009,758,0,1447262202917,1447262203540,506,249,0,0,0,3,1,2,4,0002-00-0000-00.png,0005-00-0001-49.png
00000009,759,0,1447262206675,1447262207261,504,264,0,0,0,3,2,1,5,0002-00-0001-17.png,0003-00-0001-52.png
00000009,760,1,1447262221752,1447262222359,471,279,0,0,0,1,4,3,5,0005-00-0001-66.png,0004-00-0000-92.png
00000009,761,1,1447262223438,1447262223478,909,403,0,0,0,2,0,2,2,0003-00-0000-03.png,0001-00-0001-23.png
00000009,762,0,1447262224383,1447262224416,862,396,0,0,0,2,4,2,6,0003-00-0001-22.png,0004-00-0000-36.png
00000009,763,0,1447262227303,1447262227323,862,421,0,0,0,2,3,1,5,0003-00-0001-59.png,0002-00-0000-57.png
00000009,764,1,1447262230472,1447262230500,891,317,0,0,0,4,2,2,6,0004-00-0000-43.png,0003-00-0000-02.png
00000009,765,1,1447262231437,1447262231496,888,396,0,0,0,4,3,1,7,0004-00-0001-31.png,0002-00-0001-56.png
00000009,766,1,1447262232431,1447262233283,922,324,0,0,0,4,0,4,4,0004-00-0000-62.png,0001-00-0001-59.png
00000009,767,1,1447262234203,1447262234231,913,391,0,0,0,3,1,2,4,0002-00-0001-25.png,0005-00-0000-35.png
00000009,768,1,1447262235305,1447262236359,518,221,0,0,0,1,3,2,4,0005-00-0000-80.png,0002-00-0001-55.png
00000009,769,1,1447262237282,1447262238177,515,254,0,0,0,0,3,3,3,0001-00-0000-07.png,0002-00-0000-28.png
00000009,770,0,1447262239067,1447262239217,888,448,0,0,0,1,4,3,5,0005-00-0000-17.png,0004-00-0000-77.png
00000009,771,1,1447262242903,1447262243461,504,218,0,0,0,3,4,1,7,0002-00-0001-14.png,0004-00-0000-42.png
00000009,772,1,1447262244933,1447262245668,518,235,0,0,0,1,2,1,3,0005-00-0001-10.png,0003-00-0000-48.png
00000009,773,1,1447262246532,1447262247264,916,332,0,0,0,1,0,1,1,0005-00-0001-41.png,0001-00-0001-20.png
00000009,774,0,1447262248220,1447262248244,925,454,0,0,0,0,1,1,1,0001-00-0000-92.png,0005-00-0001-84.png
00000009,775,1,1447262425261,1447262427262,958,375,0,0,0,4,1,3,5,0004-00-0001-33.png,0005-00-0000-36.png
00000009,776,0,1447262428402,1447262429279,467,222,0,0,0,3,2,1,5,0002-00-0000-25.png,0003-00-0000-13.png
00000009,777,1,1447262432383,1447262432961,515,243,0,0,0,0,2,2,2,0001-00-0001-00.png,0003-00-0001-88.png
00000009,778,1,1447262433827,1447262434621,1040,296,0,0,0,2,1,1,3,0003-00-0000-21.png,0005-00-0001-57.png
00000009,779,0,1447262435453,1447262435505,904,410,0,0,0,0,4,4,4,0001-00-0000-31.png,0004-00-0001-26.png
00000009,780,1,1447262438574,1447262438606,888,332,0,0,0,3,0,3,3,0002-00-0001-73.png,0001-00-0000-42.png
00000009,781,1,1447262439540,1447262439588,879,410,0,0,0,2,1,1,3,0003-00-0000-31.png,0005-00-0001-88.png
00000009,782,0,1447262440504,1447262440568,862,436,0,0,0,1,3,2,4,0005-00-0001-64.png,0002-00-0000-08.png
00000009,783,1,1447262443814,1447262444342,516,227,0,0,0,1,2,1,3,0005-00-0001-70.png,0003-00-0001-48.png
00000009,784,0,1447262445264,1447262445312,862,410,0,0,0,0,2,2,2,0001-00-0001-43.png,0003-00-0001-83.png
00000009,785,1,1447262448263,1447262448726,1100,256,0,0,0,4,2,2,6,0004-00-0000-28.png,0003-00-0000-44.png
00000009,786,0,1447262449600,1447262449668,893,425,0,0,0,0,1,1,1,0001-00-0001-09.png,0005-00-0001-11.png
00000009,787,0,1447262452837,1447262453368,519,244,0,0,0,4,1,3,5,0004-00-0000-10.png,0005-00-0001-82.png
00000009,788,1,1447262456536,1447262457025,943,315,0,0,0,3,1,2,4,0002-00-0001-79.png,0005-00-0000-17.png
00000009,789,0,1447262457908,1447262457956,913,410,0,0,0,2,3,1,5,0003-00-0000-84.png,0002-00-0001-40.png
00000009,790,1,1447262460919,1447262461471,1066,270,0,0,0,2,0,2,2,0003-00-0001-00.png,0001-00-0001-15.png
00000009,791,0,1447262462415,1447262462476,922,415,0,0,0,3,4,1,7,0002-00-0000-64.png,0004-00-0000-27.png
00000009,792,0,1447262465489,1447262465977,1075,257,0,0,0,1,4,3,5,0005-00-0000-36.png,0004-00-0000-54.png
00000009,793,0,1447262468885,1447262469737,1039,275,0,0,0,2,4,2,6,0003-00-0001-59.png,0004-00-0001-10.png
00000009,794,1,1447262472711,1447262472731,941,384,0,0,0,4,3,1,7,0004-00-0001-75.png,0002-00-0001-23.png
00000009,795,1,1447262473797,1447262474575,1050,287,0,0,0,4,0,4,4,0004-00-0001-46.png,0001-00-0001-97.png
00000009,796,0,1447262475586,1447262475662,928,447,0,0,0,0,3,3,3,0001-00-0000-82.png,0002-00-0001-04.png
00000009,797,0,1447262478637,1447262479157,409,351,0,0,0,3,2,1,5,0002-00-0001-37.png,0003-00-0001-48.png
00000009,798,1,1447262482284,1447262482760,1046,261,0,0,0,1,0,1,1,0005-00-0001-12.png,0001-00-0000-81.png
00000009,799,0,1447262483750,1447262483809,913,451,0,0,0,0,4,4,4,0001-00-0001-77.png,0004-00-0001-17.png
00000009,800,1,1447262486970,1447262487567,1057,286,0,0,0,3,0,3,3,0002-00-0000-71.png,0001-00-0001-78.png
00000009,801,0,1447262488493,1447262488586,928,413,0,0,0,2,4,2,6,0003-00-0001-96.png,0004-00-0000-16.png
00000009,802,1,1447262491670,1447262492277,481,402,0,0,0,0,3,3,3,0001-00-0000-17.png,0002-00-0000-10.png
00000009,803,1,1447262493283,1447262494044,407,339,0,0,0,1,3,2,4,0005-00-0001-49.png,0002-00-0000-63.png
00000009,804,1,1447262494931,1447262494985,900,414,0,0,0,1,0,1,1,0005-00-0000-67.png,0001-00-0000-99.png
00000009,805,1,1447262495991,1447262496059,925,449,0,0,0,3,2,1,5,0002-00-0000-53.png,0003-00-0001-52.png
00000009,806,1,1447262497138,1447262497178,874,436,0,0,0,4,2,2,6,0004-00-0001-38.png,0003-00-0000-24.png
00000009,807,0,1447262498273,1447262498343,913,453,0,0,0,1,2,1,3,0005-00-0001-08.png,0003-00-0001-60.png
00000009,808,1,1447262501532,1447262501769,871,341,0,0,0,3,0,3,3,0002-00-0001-54.png,0001-00-0001-36.png
00000009,809,1,1447262502772,1447262503585,1033,251,0,0,0,4,0,4,4,0004-00-0000-85.png,0001-00-0001-06.png
00000009,810,1,1447262504602,1447262505771,504,245,0,0,0,1,4,3,5,0005-00-0001-18.png,0004-00-0001-82.png
00000009,811,0,1447262506699,1447262506720,873,410,0,0,0,0,4,4,4,0001-00-0000-86.png,0004-00-0000-98.png
00000009,812,1,1447262509952,1447262510485,1050,271,0,0,0,4,1,3,5,0004-00-0000-54.png,0005-00-0000-40.png
00000009,813,0,1447262511316,1447262511371,928,410,0,0,0,0,2,2,2,0001-00-0000-08.png,0003-00-0001-83.png
00000009,814,0,1447262514211,1447262514752,1067,293,0,0,0,2,3,1,5,0003-00-0001-28.png,0002-00-0001-92.png
00000009,815,1,1447262517894,1447262518114,862,410,0,0,0,2,0,2,2,0003-00-0001-65.png,0001-00-0000-47.png
00000009,816,0,1447262519140,1447262519228,939,436,0,0,0,3,4,1,7,0002-00-0000-30.png,0004-00-0001-24.png
00000009,817,1,1447262522288,1447262522867,1024,251,0,0,0,4,3,1,7,0004-00-0000-24.png,0002-00-0001-21.png
00000009,818,1,1447262523811,1447262524591,1035,272,0,0,0,2,1,1,3,0003-00-0000-39.png,0005-00-0000-10.png
00000009,819,0,1447262525489,1447262525561,925,425,0,0,0,0,1,1,1,0001-00-0001-24.png,0005-00-0000-40.png
00000009,820,1,1447262528668,1447262529181,1092,257,0,0,0,3,1,2,4,0002-00-0000-20.png,0005-00-0001-80.png
00000009,821,1,1447262530175,1447262530260,964,474,0,0,0,4,2,2,6,0004-00-0001-64.png,0003-00-0000-47.png
00000009,822,1,1447262531128,1447262531882,518,243,0,0,0,0,1,1,1,0001-00-0001-63.png,0005-00-0001-35.png
00000009,823,1,1447262532911,1447262533589,514,246,0,0,0,0,3,3,3,0001-00-0001-64.png,0002-00-0001-94.png
00000009,824,1,1447262534552,1447262534608,863,452,0,0,0,3,0,3,3,0002-00-0001-92.png,0001-00-0000-40.png
00000009,825,1,1447262535699,1447262536538,1016,312,0,0,0,1,0,1,1,0005-00-0000-35.png,0001-00-0001-93.png
00000009,826,0,1447262537544,1447262538228,384,336,0,0,0,4,1,3,5,0004-00-0001-04.png,0005-00-0000-02.png
00000009,827,0,1447262543617,1447262543955,1031,489,0,0,0,0,4,4,4,0001-00-0000-75.png,0004-00-0001-51.png
00000009,828,1,1447262546874,1447262547416,493,265,0,0,0,3,4,1,7,0002-00-0001-75.png,0004-00-0000-41.png
00000009,829,0,1447262548395,1447262549577,1050,285,0,0,0,2,4,2,6,0003-00-0000-13.png,0004-00-0001-16.png
00000009,830,1,1447262552746,1447262553040,991,300,0,0,0,3,2,1,5,0002-00-0000-97.png,0003-00-0000-38.png
00000009,831,1,1447262554050,1447262554710,504,263,0,0,0,1,2,1,3,0005-00-0001-48.png,0003-00-0000-82.png
00000009,832,0,1447262555600,1447262556286,426,363,0,0,0,4,0,4,4,0004-00-0001-64.png,0001-00-0000-17.png
00000009,833,1,1447262559200,1447262559730,393,337,0,0,0,1,3,2,4,0005-00-0000-45.png,0002-00-0001-33.png
00000009,834,1,1447262560689,1447262561525,471,245,0,0,0,1,4,3,5,0005-00-0001-55.png,0004-00-0000-29.png
00000009,835,0,1447262562434,1447262563170,1009,299,0,0,0,2,3,1,5,0003-00-0001-16.png,0002-00-0001-39.png
00000009,836,1,1447262566134,1447262566652,479,284,0,0,0,0,2,2,2,0001-00-0001-92.png,0003-00-0000-90.png
00000009,837,1,1447262567644,1447262568377,1035,299,0,0,0,3,1,2,4,0002-00-0001-08.png,0005-00-0000-61.png
00000009,838,1,1447262569260,1447262569994,1025,299,0,0,0,2,0,2,2,0003-00-0001-04.png,0001-00-0000-58.png
00000009,839,1,1447262570999,1447262571064,871,462,0,0,0,2,1,1,3,0003-00-0001-37.png,0005-00-0000-13.png
00000009,840,1,1447262572105,1447262572189,895,455,0,0,0,4,3,1,7,0004-00-0001-82.png,0002-00-0001-84.png
00000009,841,0,1447262573219,1447262573247,862,436,0,0,0,1,4,3,5,0005-00-0001-48.png,0004-00-0001-68.png
00000009,842,1,1447262577273,1447262577804,957,365,0,0,0,4,0,4,4,0004-00-0000-92.png,0001-00-0001-70.png
00000009,843,0,1447262578833,1447262579718,445,239,0,0,0,4,2,2,6,0004-00-0001-30.png,0003-00-0001-91.png
00000009,844,1,1447262591844,1447262592432,506,267,0,0,0,3,4,1,7,0002-00-0000-67.png,0004-00-0000-90.png
00000009,845,1,1447262593500,1447262594104,920,386,0,0,0,1,0,1,1,0005-00-0001-47.png,0001-00-0000-00.png
00000009,846,1,1447262594989,1447262595009,903,384,0,0,0,3,2,1,5,0002-00-0001-82.png,0003-00-0000-87.png
00000009,847,0,1447262595953,1447262596007,862,422,0,0,0,1,2,1,3,0005-00-0001-18.png,0003-00-0001-17.png
00000009,848,0,1447262599146,1447262599837,483,248,0,0,0,3,1,2,4,0002-00-0000-81.png,0005-00-0001-38.png
00000009,849,1,1447262602744,1447262603541,375,371,0,0,0,2,3,1,5,0003-00-0001-28.png,0002-00-0001-58.png
00000009,850,1,1447262604531,1447262605252,1023,273,0,0,0,2,1,1,3,0003-00-0001-92.png,0005-00-0001-11.png
00000009,851,1,1447262606262,1447262607119,1041,279,0,0,0,4,3,1,7,0004-00-0000-66.png,0002-00-0001-14.png
00000009,852,1,1447262608199,1447262608247,862,462,0,0,0,3,0,3,3,0002-00-0000-31.png,0001-00-0001-45.png
00000009,853,1,1447262609182,1447262609990,907,341,0,0,0,4,1,3,5,0004-00-0001-10.png,0005-00-0001-97.png
00000009,854,1,1447262610941,1447262611812,419,348,0,0,0,0,1,1,1,0001-00-0001-28.png,0005-00-0001-13.png
00000009,855,0,1447262612739,1447262612783,857,437,0,0,0,1,3,2,4,0005-00-0001-08.png,0002-00-0001-27.png
00000009,856,1,1447262616089,1447262616830,492,237,0,0,0,0,4,4,4,0001-00-0001-82.png,0004-00-0001-70.png
00000009,857,0,1447262617779,1447262618512,508,231,0,0,0,2,0,2,2,0003-00-0000-99.png,0001-00-0001-78.png
00000009,858,1,1447262621950,1447262622583,466,235,0,0,0,0,2,2,2,0001-00-0001-19.png,0003-00-0000-35.png
00000009,859,1,1447262623552,1447262624187,485,244,0,0,0,0,3,3,3,0001-00-0000-91.png,0002-00-0000-07.png
00000009,860,0,1447262625251,1447262625331,870,482,0,0,0,2,4,2,6,0003-00-0001-20.png,0004-00-0000-47.png
00000009,861,1,1447262628242,1447262628270,868,322,0,0,0,3,1,2,4,0002-00-0001-64.png,0005-00-0000-84.png
00000009,862,1,1447262629307,1447262630103,511,229,0,0,0,0,4,4,4,0001-00-0001-32.png,0004-00-0001-07.png
00000009,863,1,1447262631074,1447262631115,870,402,0,0,0,1,0,1,1,0005-00-0001-10.png,0001-00-0001-84.png
00000009,864,1,1447262632289,1447262632337,878,410,0,0,0,2,0,2,2,0003-00-0000-96.png,0001-00-0000-11.png
00000009,865,0,1447262633469,1447262634218,1035,275,0,0,0,0,1,1,1,0001-00-0001-25.png,0005-00-0001-77.png
00000009,866,1,1447262638371,1447262638861,1065,280,0,0,0,2,1,1,3,0003-00-0001-69.png,0005-00-0001-28.png
00000009,867,0,1447262639818,1447262640476,938,368,0,0,0,1,3,2,4,0005-00-0000-90.png,0002-00-0001-66.png
00000009,868,0,1447262649751,1447262650319,495,260,0,0,0,4,3,1,7,0004-00-0001-61.png,0002-00-0001-18.png
00000009,869,0,1447262653700,1447262654215,1087,249,0,0,0,1,2,1,3,0005-00-0001-93.png,0003-00-0000-30.png
00000009,870,0,1447262657150,1447262657798,513,267,0,0,0,4,2,2,6,0004-00-0000-19.png,0003-00-0001-51.png
00000009,871,1,1447262670783,1447262671275,397,362,0,0,0,0,2,2,2,0001-00-0001-04.png,0003-00-0001-98.png
00000009,872,1,1447262672342,1447262673045,1015,264,0,0,0,3,0,3,3,0002-00-0001-87.png,0001-00-0001-48.png
00000009,873,0,1447262673924,1447262674619,485,256,0,0,0,3,2,1,5,0002-00-0001-89.png,0003-00-0001-76.png
00000009,874,0,1447262677600,1447262677640,873,332,0,0,0,2,4,2,6,0003-00-0000-35.png,0004-00-0000-05.png
00000009,875,1,1447262680771,1447262681282,1075,274,0,0,0,4,0,4,4,0004-00-0001-89.png,0001-00-0001-23.png
00000009,876,0,1447262682130,1447262682893,917,315,0,0,0,3,4,1,7,0002-00-0000-11.png,0004-00-0001-73.png
00000009,877,1,1447262685800,1447262686313,384,350,0,0,0,0,3,3,3,0001-00-0000-58.png,0002-00-0000-58.png
00000009,878,0,1447262687201,1447262688149,941,329,0,0,0,2,3,1,5,0003-00-0001-99.png,0002-00-0000-11.png
00000009,879,1,1447262691265,1447262691781,910,322,0,0,0,4,1,3,5,0004-00-0000-31.png,0005-00-0001-02.png
00000009,880,0,1447262692693,1447262692746,913,410,0,0,0,1,4,3,5,0005-00-0000-34.png,0004-00-0000-97.png
00000009,881,1,1447262695765,1447262695813,965,243,0,0,0,2,1,1,3,0003-00-0001-56.png,0005-00-0000-59.png
00000009,882,0,1447262696880,1447262696977,890,429,0,0,0,2,4,2,6,0003-00-0000-30.png,0004-00-0001-79.png
00000009,883,0,1447262699880,1447262700361,432,330,0,0,0,4,2,2,6,0004-00-0000-06.png,0003-00-0001-49.png
00000009,884,1,1447262703279,1447262703320,944,387,0,0,0,2,0,2,2,0003-00-0001-44.png,0001-00-0000-91.png
00000009,885,1,1447262704322,1447262705131,1046,312,0,0,0,4,1,3,5,0004-00-0001-92.png,0005-00-0001-26.png
00000009,886,0,1447262706073,1447262706129,884,437,0,0,0,1,2,1,3,0005-00-0001-81.png,0003-00-0000-11.png
00000009,887,1,1447262709041,1447262709680,516,265,0,0,0,0,2,2,2,0001-00-0001-69.png,0003-00-0000-13.png
00000009,888,1,1447262710573,1447262711247,502,253,0,0,0,1,4,3,5,0005-00-0000-98.png,0004-00-0000-42.png
00000009,889,0,1447262712123,1447262712163,874,384,0,0,0,3,4,1,7,0002-00-0001-16.png,0004-00-0001-14.png
00000009,890,1,1447262715602,1447262716114,1073,243,0,0,0,3,1,2,4,0002-00-0001-58.png,0005-00-0001-59.png
00000009,891,0,1447262717102,1447262717844,1034,316,0,0,0,2,3,1,5,0003-00-0001-57.png,0002-00-0001-23.png
00000009,892,1,1447262721007,1447262721031,882,391,0,0,0,4,3,1,7,0004-00-0001-38.png,0002-00-0000-43.png
00000009,893,1,1447262722021,1447262722069,888,436,0,0,0,3,0,3,3,0002-00-0001-97.png,0001-00-0001-70.png
00000009,894,1,1447262723023,1447262723122,898,462,0,0,0,3,2,1,5,0002-00-0000-44.png,0003-00-0001-33.png
00000009,895,1,1447262724307,1447262724335,888,425,0,0,0,1,0,1,1,0005-00-0001-70.png,0001-00-0001-84.png
00000009,896,1,1447262725471,1447262726218,458,390,0,0,0,1,3,2,4,0005-00-0001-05.png,0002-00-0000-95.png
00000009,897,1,1447262727239,1447262727943,1016,289,0,0,0,4,0,4,4,0004-00-0000-24.png,0001-00-0001-52.png
00000009,898,0,1447262728817,1447262728847,899,406,0,0,0,0,1,1,1,0001-00-0000-21.png,0005-00-0001-67.png
00000009,899,0,1447262745515,1447262745990,982,257,0,0,0,0,4,4,4,0001-00-0001-40.png,0004-00-0000-75.png
00000009,900,1,1447262748899,1447262749391,509,270,0,0,0,0,3,3,3,0001-00-0001-31.png,0002-00-0001-53.png
00000009,901,0,1447262750318,1447262750396,903,473,0,0,0,0,4,4,4,0001-00-0000-21.png,0004-00-0001-22.png
00000009,902,1,1447262753541,1447262753813,976,305,0,0,0,4,0,4,4,0004-00-0000-76.png,0001-00-0000-65.png
00000009,903,0,1447262754743,1447262754791,921,482,0,0,0,2,3,1,5,0003-00-0001-92.png,0002-00-0000-69.png
00000009,904,0,1447262757931,1447262758723,478,292,0,0,0,1,0,1,1,0005-00-0001-28.png,0001-00-0001-34.png
00000009,905,1,1447262762405,1447262762791,1206,520,0,0,0,3,1,2,4,0002-00-0001-35.png,0005-00-0001-54.png
00000009,906,0,1447262764523,1447262765059,1008,272,0,0,0,0,3,3,3,0001-00-0000-79.png,0002-00-0001-27.png
00000009,907,1,1447262768894,1447262769395,416,346,0,0,0,1,4,3,5,0005-00-0000-83.png,0004-00-0000-89.png
00000009,908,0,1447262770412,1447262771189,379,310,0,0,0,3,0,3,3,0002-00-0000-52.png,0001-00-0001-51.png
00000009,909,0,1447262954871,1447262955347,493,249,0,0,0,4,2,2,6,0004-00-0001-16.png,0003-00-0000-52.png
00000009,910,1,1447262958481,1447262959052,506,256,0,0,0,0,2,2,2,0001-00-0000-08.png,0003-00-0001-30.png
00000009,911,1,1447262960010,1447262960120,909,435,0,0,0,4,3,1,7,0004-00-0001-04.png,0002-00-0001-68.png
00000009,912,0,1447262961152,1447262961848,991,256,0,0,0,0,1,1,1,0001-00-0001-18.png,0005-00-0000-91.png
00000009,913,0,1447262964999,1447262965501,1066,275,0,0,0,2,4,2,6,0003-00-0001-80.png,0004-00-0000-79.png
00000009,914,1,1447262968628,1447262969166,411,320,0,0,0,1,2,1,3,0005-00-0001-40.png,0003-00-0001-29.png
00000009,915,1,1447262970058,1447262970818,1044,296,0,0,0,2,0,2,2,0003-00-0001-57.png,0001-00-0000-78.png
00000009,916,1,1447262971645,1447262971697,904,410,0,0,0,3,2,1,5,0002-00-0001-64.png,0003-00-0000-74.png
00000009,917,0,1447262972731,1447262973035,915,539,0,0,0,1,3,2,4,0005-00-0000-62.png,0002-00-0001-33.png
00000009,918,1,1447262976460,1447262976989,1078,260,0,0,0,4,1,3,5,0004-00-0000-61.png,0005-00-0001-19.png
00000009,919,0,1447262978000,1447262978040,862,436,0,0,0,3,4,1,7,0002-00-0000-00.png,0004-00-0000-33.png
00000009,920,1,1447262981090,1447262981573,1069,282,0,0,0,2,1,1,3,0003-00-0001-46.png,0005-00-0001-17.png
00000009,921,1,1447262983067,1447262983127,862,410,0,0,0,2,1,1,3,0003-00-0001-72.png,0005-00-0000-72.png
00000009,922,1,1447262984129,1447262984177,861,414,0,0,0,4,2,2,6,0004-00-0000-58.png,0003-00-0001-34.png
00000009,923,1,1447262985215,1447262985283,874,436,0,0,0,3,2,1,5,0002-00-0000-71.png,0003-00-0001-80.png
00000009,924,1,1447262986337,1447262987162,885,329,0,0,0,4,3,1,7,0004-00-0001-15.png,0002-00-0000-41.png
00000009,925,0,1447262988126,1447262988186,877,424,0,0,0,2,4,2,6,0003-00-0000-96.png,0004-00-0000-34.png
00000009,926,1,1447262991393,1447262991893,504,253,0,0,0,0,2,2,2,0001-00-0000-69.png,0003-00-0001-18.png
00000009,927,1,1447262992847,1447262993540,498,262,0,0,0,1,2,1,3,0005-00-0001-85.png,0003-00-0000-36.png
00000009,928,1,1447262994555,1447262995403,944,320,0,0,0,2,0,2,2,0003-00-0000-54.png,0001-00-0001-41.png
00000009,929,0,1447262996384,1447262996416,888,368,0,0,0,0,1,1,1,0001-00-0001-69.png,0005-00-0000-69.png
00000009,930,1,1447262999584,1447263000118,1047,275,0,0,0,4,1,3,5,0004-00-0001-20.png,0005-00-0001-84.png
00000009,931,1,1447263001064,1447263001749,1031,300,0,0,0,1,0,1,1,0005-00-0001-68.png,0001-00-0001-03.png
00000009,932,0,1447263002683,1447263002724,872,412,0,0,0,1,3,2,4,0005-00-0001-75.png,0002-00-0001-68.png
00000009,933,1,1447263005865,1447263006389,963,314,0,0,0,3,0,3,3,0002-00-0001-08.png,0001-00-0000-91.png
00000009,934,1,1447263007880,1447263008477,477,246,0,0,0,0,3,3,3,0001-00-0000-94.png,0002-00-0000-96.png
00000009,935,0,1447263009412,1447263009554,862,462,0,0,0,3,4,1,7,0002-00-0001-29.png,0004-00-0000-58.png
00000009,936,1,1447263012600,1447263013092,935,313,0,0,0,3,1,2,4,0002-00-0000-00.png,0005-00-0000-90.png
00000009,937,0,1447263013983,1447263014031,878,443,0,0,0,0,4,4,4,0001-00-0001-82.png,0004-00-0001-65.png
00000009,938,1,1447263017234,1447263017715,938,308,0,0,0,4,0,4,4,0004-00-0001-19.png,0001-00-0000-21.png
00000009,939,0,1447263018633,1447263018673,862,436,0,0,0,2,3,1,5,0003-00-0000-80.png,0002-00-0000-10.png
00000009,940,1,1447263021691,1447263022263,509,256,0,0,0,1,4,3,5,0005-00-0001-95.png,0004-00-0000-83.png
00000009,941,0,1447263023133,1447263023232,864,492,0,0,0,0,2,2,2,0001-00-0000-23.png,0003-00-0000-19.png
00000009,942,1,1447263026126,1447263026648,1049,299,0,0,0,1,0,1,1,0005-00-0001-72.png,0001-00-0001-20.png
00000009,943,1,1447263027536,1447263028250,496,262,0,0,0,0,4,4,4,0001-00-0000-82.png,0004-00-0001-67.png
00000009,944,0,1447263029178,1447263029282,897,514,0,0,0,1,4,3,5,0005-00-0000-48.png,0004-00-0001-26.png
00000009,945,0,1447263032145,1447263032668,519,267,0,0,0,4,2,2,6,0004-00-0000-98.png,0003-00-0001-46.png
00000009,946,0,1447263035835,1447263036847,861,338,0,0,0,0,1,1,1,0001-00-0000-42.png,0005-00-0000-40.png
00000009,947,1,1447263039956,1447263040425,478,268,0,0,0,1,2,1,3,0005-00-0001-17.png,0003-00-0000-23.png
00000009,948,1,1447263041470,1447263042210,939,318,0,0,0,2,0,2,2,0003-00-0001-62.png,0001-00-0001-74.png
00000009,949,1,1447263043129,1447263043165,863,438,0,0,0,3,2,1,5,0002-00-0000-69.png,0003-00-0001-41.png
00000009,950,1,1447263044120,1447263044188,888,450,0,0,0,3,1,2,4,0002-00-0001-75.png,0005-00-0000-41.png
